"Time (s)","Acceleration x (m/s^2)","Acceleration y (m/s^2)","Acceleration z (m/s^2)"
1.784204200E-2,-3.352480888E0,1.715445518E0,9.489418030E0
3.804527200E-2,-2.785055161E0,1.715445518E0,9.290699959E0
5.822287600E-2,-2.409165382E0,1.720233917E0,9.376891136E0
7.840079200E-2,-2.291849613E0,1.634042621E0,9.791088104E0
9.857933400E-2,-2.531269789E0,1.468842745E0,9.850942612E0
1.187588130E-1,-2.844910145E0,1.452083349E0,9.470264435E0
1.389395420E-1,-2.852092743E0,1.593341231E0,9.072827339E0
1.591217300E-1,-2.600701571E0,1.689109325E0,8.831012726E0
1.793054800E-1,-2.385223389E0,1.741781712E0,8.840589523E0
1.994908970E-1,-2.320580006E0,1.708262920E0,8.981847763E0
2.196778760E-1,-2.461838007E0,1.612494826E0,9.216479301E0
2.398664170E-1,-2.751536369E0,1.567005038E0,9.216479301E0
2.600564170E-1,-2.943072557E0,1.705868721E0,8.960299492E0
2.802476670E-1,-2.904765129E0,1.839944005E0,8.811859131E0
3.004399590E-1,-2.734776974E0,1.911770105E0,8.953117371E0
3.206329800E-1,-2.548029184E0,1.875856996E0,9.135076523E0
3.408264170E-1,-2.562394381E0,1.827973008E0,9.199720383E0
3.610200630E-1,-2.607884169E0,1.837549806E0,9.293093681E0
3.812126670E-1,-2.560000181E0,1.859097600E0,9.345766068E0
4.013994380E-1,-2.430713177E0,1.902193308E0,9.369708061E0
4.215807920E-1,-2.339733601E0,1.696291924E0,9.429563522E0
4.417625630E-1,-2.373252392E0,1.636436820E0,9.434351921E0
4.619449590E-1,-1.585560083E0,1.588552833E0,9.731232643E0
4.821280840E-1,-6.494272351E-1,1.250970364E0,1.000177765E1
5.023120420E-1,2.579752207E-1,7.888894677E-1,1.019091988E1
5.224969380E-1,1.373673201E0,3.004723191E-1,9.937133789E0
5.426827720E-1,1.926733851E0,-1.233013868E-1,9.673771858E0
5.628695420E-1,2.209249735E0,-7.266402245E-1,9.331400871E0
5.830572510E-1,2.501342297E0,-6.284779310E-1,9.443928719E0
6.032457920E-1,2.281075716E0,-4.967968464E-1,9.178172112E0
6.234350630E-1,2.218826532E0,-5.829881430E-1,9.331400871E0
6.436249590E-1,1.799841166E0,-4.704606235E-1,9.372102737E0
6.638153760E-1,1.490989089E0,2.837128937E-1,9.680954933E0
6.840061050E-1,1.342548609E0,5.374982953E-1,1.009036350E1
7.041970420E-1,1.385644197E0,4.668693244E-2,9.836577415E0
7.243988130E-1,1.629852772E0,-1.200692177E0,9.238027573E0
7.445758970E-1,1.854907751E0,-2.416946650E0,8.847772598E0
7.647532920E-1,2.319382906E0,-2.972401381E0,8.593987465E0
7.849314170E-1,3.068768024E0,-3.219004154E0,8.503006935E0
8.051105840E-1,3.535637379E0,-3.707421303E0,7.940370083E0
8.252910010E-1,3.806182146E0,-3.757699490E0,7.480683327E0
8.454728760E-1,1.874061346E0,-1.353921056E0,8.196549416E0
8.656564170E-1,6.410474777E-1,-2.908954918E-1,8.914810181E0
8.858416260E-1,1.062427044E0,-1.179144382E0,9.249998093E0
9.060285010E-1,1.452681899E0,-1.842338204E0,9.467870712E0
9.262170420E-1,1.488594890E0,-1.739387512E0,9.702502251E0
9.464070420E-1,1.548449993E0,-1.744175911E0,9.906009674E0
9.665983970E-1,1.569997787E0,-1.974019289E0,1.038006115E1
9.867907920E-1,1.969829440E0,-2.266111851E0,1.043752193E1
1.006984022E0,2.063203335E0,-2.622848034E0,9.779116631E0
1.027177772E0,1.335366011E0,-2.845508814E0,8.306682587E0
1.047371730E0,8.900445104E-1,-2.369062662E0,7.547720909E0
1.067565480E0,1.481412292E0,-1.957259893E0,7.856573105E0
1.087752355E0,2.056020737E0,-2.653972626E0,8.728062630E0
1.107939126E0,2.575562477E0,-3.250128746E0,9.920374870E0
1.128120480E0,3.801393747E0,-3.362656355E0,1.073919201E1
1.148302251E0,4.189254284E0,-3.197456360E0,1.075595093E1
1.168484647E0,4.366425514E0,-4.088099480E0,1.016218948E1
1.188667772E0,5.436633587E0,-4.351461411E0,1.022443867E1
1.208851730E0,6.324882507E0,-3.918111086E0,9.805453300E0
1.229036626E0,7.737461567E0,-4.080916882E0,8.462306023E0
1.249222459E0,8.283339500E0,-3.223792553E0,7.226897717E0
1.269409230E0,9.025542259E0,-2.242169857E0,7.167042732E0
1.289596938E0,9.032724380E0,-2.483984232E0,6.539762020E0
1.309785480E0,9.003993988E0,-2.776076794E0,5.627571106E0
1.329974751E0,8.460510254E0,-2.455253839E0,4.890156746E0
1.350164647E0,7.869142532E0,-1.116895080E0,1.583764434E0
1.370355063E0,8.417414665E0,-4.680664241E-1,-3.690661907E0
1.390545792E0,8.467693329E0,-2.048239470E0,-2.400187254E0
1.410736730E0,5.941810131E0,-1.715445518E0,1.183932781E0
1.430938501E0,3.684077978E0,-1.696291924E0,3.305195332E0
1.451115480E0,4.083909512E0,-7.003039718E-1,5.665878296E0
1.471292772E0,7.318476200E0,-1.487996340E0,5.670666695E0
1.491470792E0,8.395866394E0,-1.600523829E0,2.273294449E0
1.511649855E0,8.582614899E0,-2.661155224E0,-2.023100406E-1
1.531830272E0,1.125214958E1,-3.707421303E0,1.080982089E0
1.552012147E0,1.248276901E1,-3.767276287E0,2.218227863E0
1.572195688E0,1.141974354E1,-4.325125217E0,8.319851160E-1
1.592380897E0,9.193136215E0,-5.531803131E0,-1.148019671E0
1.612567772E0,8.362347603E0,-5.397727966E0,-2.479195833E0
1.632756313E0,7.912238121E0,-5.448006153E0,-1.112106681E0
1.652946417E0,7.457339764E0,-6.898892403E0,1.588552833E0
1.673137876E0,6.494870663E0,-7.006631374E0,2.141613483E0
1.693330376E0,6.798934460E0,-7.439981937E0,-1.663970202E-1
1.713523709E0,7.294534206E0,-6.927622795E0,-2.402581453E0
1.733717563E0,7.770980358E0,-6.731297970E0,-2.290053844E0
1.753911626E0,7.569867134E0,-6.367379189E0,-5.590460896E-1
1.774104855E0,7.050325394E0,-5.969942093E0,5.446808934E-1
1.794291730E0,6.420650482E0,-5.993884087E0,-5.614402890E-1
1.814473188E0,6.408679485E0,-5.651513100E0,-4.538209438E0
1.834655063E0,5.735908508E0,-5.400122166E0,-4.602852821E0
1.854837459E0,4.098274708E0,-4.207809448E0,-1.811213613E0
1.875020584E0,2.565985680E0,-3.463212729E0,7.314286232E-1
1.895204542E0,3.253121614E0,-4.892550945E0,3.171120167E0
1.915389438E0,3.945045948E0,-8.184578896E0,4.344278812E0
1.935575272E0,1.234809518E0,-6.082469463E0,7.362170219E-1
1.955762042E0,5.357026458E-1,-4.839878559E0,7.649474144E-1
1.975949751E0,3.770867735E-2,-6.190208435E0,1.636436820E0
1.996138292E0,3.752911091E-1,-9.058462143E0,9.457096457E-2
2.016327563E0,1.143231317E-1,-1.186207199E1,-4.035427094E0
2.036517459E0,1.751957059E0,-1.596573448E1,-4.703409195E0
2.056707876E0,3.751115561E0,-2.287540054E1,2.274491638E-2
2.076898605E0,2.867655039E0,-2.458007240E1,-7.098808289E-1
2.097089438E0,-5.488707423E-1,-1.603995514E1,-2.361880064E0
2.117291105E0,-9.870096445E-1,-8.728062630E0,-1.138442874E0
2.137467876E0,4.010287672E-2,-6.314706802E0,-2.813186944E-1
2.157644959E0,1.287482023E0,-6.748057365E0,-6.584054977E-2
2.177822772E0,2.901173830E0,-8.926780701E0,1.328781992E-1
2.198001626E0,3.147776604E0,-1.047104073E1,8.499415964E-2
2.218181834E0,2.058414936E0,-1.027711105E1,-6.739677787E-1
2.238363605E0,1.143829823E0,-9.664195061E0,-1.667561531E0
2.258547042E0,1.153406620E0,-9.824606895E0,-1.425747156E0
2.278732251E0,1.467047095E0,-9.831789017E0,-6.835445762E-1
2.298919230E0,1.462258697E0,-9.621099472E0,-3.722983599E-1
2.319107876E0,1.495777488E0,-9.534908295E0,-4.369418025E-1
2.339298084E0,1.232415318E0,-9.259574890E0,-2.885012925E-1
2.359489647E0,1.146224022E0,-9.075222015E0,1.616086215E-1
2.379682355E0,1.562815189E0,-1.011191082E1,-1.951274425E-1
2.399875897E0,1.464652896E0,-1.048540592E1,-1.023521185E0
2.420069959E0,9.522937536E-1,-8.965087891E0,-8.990227580E-1
2.440264230E0,1.534084797E0,-9.245209694E0,-5.614402890E-1
2.460457147E0,2.044049740E0,-9.836577415E0,-3.268085420E-1
2.480644022E0,1.768716455E0,-9.484629631E0,-1.879448295E-1
2.500830792E0,1.799841166E0,-9.455899239E0,-4.201824069E-1
2.521012147E0,1.735197663E0,-9.554061890E0,-5.015852451E-1
2.541193917E0,1.711255670E0,-9.733627319E0,-5.351040959E-1
2.561376313E0,1.543661594E0,-9.690531731E0,-6.763619781E-1
2.581559438E0,1.356913805E0,-9.659406662E0,-5.135562420E-1
2.601743397E0,1.203684926E0,-9.676166534E0,-2.118868530E-1
2.621928292E0,1.028908134E0,-9.800664902E0,-7.781155407E-2
2.642114126E0,7.846996188E-1,-9.915586472E0,-2.406172752E-1
2.662300897E0,4.973953962E-1,-1.005923843E1,-5.231330991E-1
2.682488605E0,2.124854028E-1,-1.002332497E1,-7.170634270E-1
2.702677147E0,4.010287672E-2,-9.889249802E0,-7.649474144E-1
2.722866417E0,1.933317930E-1,-9.870096207E0,-6.835445762E-1
2.743056313E0,7.152677774E-1,-9.834183693E0,-5.973533392E-1
2.763246730E0,1.364096403E0,-9.697713852E0,-5.279214978E-1
2.783437459E0,1.979406238E0,-9.321824074E0,-5.159504414E-1
2.803628292E0,2.575562477E0,-9.120711327E0,-5.255272985E-1
2.823829959E0,2.994547844E0,-9.170989990E0,-5.135562420E-1
2.844006834E0,3.341706991E0,-9.163806915E0,-6.236895323E-1
2.864184022E0,3.293823004E0,-9.563638687E0,-8.678981066E-1
2.884361938E0,2.214038134E0,-1.011669922E1,-1.435323954E0
2.904540897E0,1.680131078E0,-9.388861656E0,-1.217451572E0
2.924721209E0,2.309806108E0,-9.199720383E0,-9.564836025E-1
2.944903084E0,2.321777105E0,-9.592369080E0,-8.463503122E-1
2.965086626E0,2.000954151E0,-9.728838921E0,-7.074866295E-1
2.985271938E0,1.773504853E0,-9.455899239E0,-6.308721304E-1
3.005459022E0,1.737591863E0,-9.166201591E0,-6.811503768E-1
3.025647772E0,2.048838139E0,-9.264363289E0,-6.452373862E-1
3.045837980E0,2.127846718E0,-9.491812706E0,-6.141127348E-1
3.066029438E0,1.569997787E0,-9.712079048E0,-7.553706169E-1
3.086221938E0,9.283517003E-1,-1.008318043E1,-7.242460251E-1
3.106415272E0,5.093663931E-1,-1.002571964E1,-5.111620426E-1
3.126609126E0,7.224503756E-1,-9.625887871E0,-5.015852451E-1
3.146803188E0,1.122282028E0,-9.317035675E0,-5.063736439E-1
3.166996105E0,1.373673201E0,-9.506177902E0,-4.824316502E-1
3.187182876E0,1.476623893E0,-9.697713852E0,-5.039794445E-1
3.207364230E0,1.392826796E0,-9.882067680E0,-6.284779310E-1
3.227546001E0,9.858125448E-1,-1.005684471E1,-4.896142483E-1
3.247728292E0,8.565256596E-1,-9.702502251E0,-3.004723191E-1
3.267911313E0,1.136647224E0,-9.429563522E0,-4.106055796E-1
3.288095167E0,1.364096403E0,-9.537302017E0,-6.141127348E-1
3.308279959E0,1.342548609E0,-9.776722908E0,-7.577648163E-1
3.328465688E0,1.617881775E0,-9.757569313E0,-4.991910458E-1
3.348652459E0,1.993771434E0,-9.654618263E0,-4.034229815E-1
3.368840167E0,2.175730705E0,-9.527725220E0,-4.584896266E-1
3.389028709E0,2.103904724E0,-9.496601105E0,-5.422866940E-1
3.409217980E0,1.924339652E0,-9.637859344E0,-5.877765417E-1
3.429407876E0,1.728015065E0,-9.759963036E0,-6.356605291E-1
3.449598292E0,1.534084797E0,-9.752780914E0,-6.596025825E-1
3.469789022E0,1.383249998E0,-9.731232643E0,-6.404489279E-1
3.489979959E0,1.309029818E0,-9.736021042E0,-5.973533392E-1
3.510181730E0,1.270722508E0,-9.743204117E0,-5.614402890E-1
3.530358813E0,1.462258697E0,-9.599552155E0,-5.374982953E-1
3.550536209E0,1.739986062E0,-9.537302017E0,-4.872200489E-1
3.570714334E0,1.876455545E0,-9.546878815E0,-4.752490520E-1
3.590893501E0,1.811812162E0,-9.599552155E0,-5.183446407E-1
3.611073917E0,1.637035370E0,-9.611522675E0,-6.117185354E-1
3.631255792E0,1.629852772E0,-9.484629631E0,-6.284779310E-1
3.651439334E0,1.651400566E0,-9.422380447E0,-5.853823423E-1
3.671624542E0,1.622670174E0,-9.477447510E0,-5.111620426E-1
3.691811417E0,1.543661594E0,-9.455899239E0,-4.991910458E-1
3.711999959E0,1.548449993E0,-9.408015251E0,-5.087678432E-1
3.732189959E0,1.660977483E0,-9.508571625E0,-5.135562420E-1
3.752381313E0,1.725620866E0,-9.621099472E0,-5.877765417E-1
3.772573709E0,1.627458572E0,-9.680954933E0,-7.433996201E-1
3.792766938E0,1.388038397E0,-9.786299706E0,-9.062053561E-1
3.812960688E0,1.162983418E0,-9.738415718E0,-9.109937549E-1
3.833154647E0,1.155800819E0,-9.692925453E0,-7.170634270E-1
3.853347980E0,1.447893500E0,-9.697713852E0,-5.949591398E-1
3.873534751E0,1.646612167E0,-9.848548889E0,-3.866635859E-1
3.893716105E0,1.593939781E0,-1.016937160E1,6.105214357E-2
3.913897876E0,1.134253025E0,-9.704896927E0,1.185129806E-1
3.934080272E0,8.445546627E-1,-9.290699959E0,-2.382230759E-1
3.954263397E0,1.316212416E0,-9.307458878E0,-6.404489279E-1
3.974447355E0,2.147000313E0,-9.513360023E0,-9.660604000E-1
3.994632251E0,2.712032080E0,-9.479841232E0,-1.006761789E0
4.014818084E0,2.817376852E0,-9.439140320E0,-9.109937549E-1
4.035004855E0,2.427121878E0,-9.422380447E0,-6.619967818E-1
4.055192563E0,1.950675845E0,-9.467870712E0,-4.249708056E-1
4.075381105E0,1.620275974E0,-9.539696693E0,-4.776432514E-1
4.095570376E0,1.529296279E0,-9.690531731E0,-6.643909812E-1
4.115760272E0,1.488594890E0,-9.803058624E0,-8.487445116E-1
4.135950688E0,1.409586191E0,-9.661801338E0,-9.469067454E-1
4.156141417E0,1.462258697E0,-9.592369080E0,-7.721300721E-1
4.176332251E0,1.459864497E0,-9.771934509E0,-5.374982953E-1
4.196533917E0,1.428739905E0,-9.745597839E0,-4.489128292E-1
4.216710688E0,1.555632591E0,-9.654618263E0,-4.752490520E-1
4.236887772E0,1.756745458E0,-9.630676270E0,-5.781996846E-1
4.257065584E0,1.898003340E0,-9.532513618E0,-6.596025825E-1
4.277244438E0,1.931522250E0,-9.506177902E0,-6.500257850E-1
4.297424647E0,1.840542555E0,-9.542090416E0,-6.476315856E-1
4.317606417E0,1.761533856E0,-9.642647743E0,-6.715735793E-1
4.337789855E0,1.665765882E0,-9.719262123E0,-7.338228226E-1
4.357975063E0,1.620275974E0,-9.580398560E0,-7.505822182E-1
4.378162042E0,1.744774461E0,-9.508571625E0,-6.811503768E-1
4.398350688E0,1.895609140E0,-9.645041466E0,-5.710170865E-1
4.418540897E0,1.854907751E0,-9.719262123E0,-5.542576909E-1
4.438732459E0,1.759139657E0,-9.566033363E0,-7.290344238E-1
4.458925063E0,1.850119352E0,-9.434351921E0,-7.697358727E-1
4.479118501E0,1.921945453E0,-9.537302017E0,-5.901707411E-1
4.499312459E0,1.852513552E0,-9.561244011E0,-4.991910458E-1
4.519506626E0,1.807023764E0,-9.522936821E0,-5.015852451E-1
4.539699751E0,1.771110654E0,-9.592369080E0,-5.039794445E-1
4.559886522E0,1.728015065E0,-9.527725220E0,-5.279214978E-1
4.580067876E0,1.773504853E0,-9.549273491E0,-5.351040959E-1
4.600249647E0,1.759139657E0,-9.642647743E0,-5.351040959E-1
4.620432042E0,1.684919477E0,-9.623494148E0,-4.967968464E-1
4.640615167E0,1.579574585E0,-9.597157478E0,-4.872200489E-1
4.660799126E0,1.605910778E0,-9.597157478E0,-4.848258495E-1
4.680984022E0,1.708861470E0,-9.633070946E0,-4.967968464E-1
4.701169855E0,1.754351258E0,-9.601945877E0,-5.063736439E-1
4.721356626E0,1.771110654E0,-9.556455612E0,-4.967968464E-1
4.741544334E0,1.797446966E0,-9.587580681E0,-4.967968464E-1
4.761732876E0,1.778293371E0,-9.659406662E0,-5.494692922E-1
4.781922147E0,1.713649869E0,-9.678560257E0,-6.404489279E-1
4.802112042E0,1.672948480E0,-9.616311073E0,-6.883329749E-1
4.822302459E0,1.672948480E0,-9.616311073E0,-6.428431273E-1
4.842493188E0,1.658583283E0,-9.676166534E0,-6.069301367E-1
4.862684022E0,1.665765882E0,-9.654618263E0,-6.787561774E-1
4.882885688E0,1.725620866E0,-9.690531731E0,-7.194576263E-1
4.903062355E0,1.816600561E0,-9.716867447E0,-6.691793799E-1
4.923239334E0,1.886032343E0,-9.633070946E0,-6.141127348E-1
4.943417042E0,1.641823769E0,-9.051279068E0,-5.686228871E-1
4.963595792E0,1.864484549E0,-9.094375610E0,-4.058171809E-1
4.983775897E0,2.190095901E0,-9.489418030E0,-3.315969408E-1
5.003957563E0,2.214038134E0,-9.542090416E0,-4.201824069E-1
5.024140897E0,2.075174332E0,-9.503783226E0,-6.380547285E-1
5.044326001E0,1.960252643E0,-9.630676270E0,-7.170634270E-1
5.064512876E0,1.718438268E0,-9.736021042E0,-6.165069342E-1
5.084701417E0,1.400009394E0,-9.776722908E0,-5.446808934E-1
5.104891522E0,1.160589218E0,-9.803058624E0,-4.967968464E-1
5.125082980E0,1.052850246E0,-9.793481827E0,-4.201824069E-1
5.145275584E0,1.091157436E0,-9.714473724E0,-3.890577853E-1
5.165469022E0,1.349731207E0,-9.690531731E0,-4.393360019E-1
5.185662980E0,1.584362984E0,-9.733627319E0,-5.135562420E-1
5.205857147E0,1.723226666E0,-9.640253067E0,-5.566518903E-1
5.226045897E0,1.768716455E0,-9.575610161E0,-5.231330991E-1
5.246234751E0,1.747168660E0,-9.680954933E0,-4.896142483E-1
5.266434438E0,1.773504853E0,-9.697713852E0,-5.183446407E-1
5.286611834E0,1.739986062E0,-9.700108528E0,-4.944026470E-1
5.306789542E0,1.567603588E0,-9.721655846E0,-4.896142483E-1
5.326967876E0,1.665765882E0,-9.592369080E0,-6.021417379E-1
5.347147251E0,2.029684544E0,-9.578003883E0,-5.638344884E-1
5.367327876E0,2.259527922E0,-9.580398560E0,-4.129997790E-1
5.387509959E0,2.202066898E0,-9.393650055E0,-4.249708056E-1
5.407693605E0,2.022501945E0,-9.345766068E0,-5.805938840E-1
5.427878917E0,1.943493247E0,-9.465476036E0,-8.248024583E-1
5.448065897E0,2.087145329E0,-9.465476036E0,-1.047463298E0
5.468254438E0,2.321777105E0,-9.391256332E0,-9.564836025E-1
5.488444438E0,2.381632090E0,-9.408015251E0,-5.973533392E-1
5.508635688E0,2.053626537E0,-9.484629631E0,-3.387795389E-1
5.528827980E0,1.634641171E0,-9.578003883E0,-3.459621370E-1
5.549021001E0,1.340154409E0,-9.647436142E0,-5.183446407E-1
5.569214542E0,1.136647224E0,-9.774328232E0,-6.284779310E-1
5.589408292E0,1.045667648E0,-9.862914085E0,-7.266402245E-1
5.609600688E0,1.218050122E0,-9.827000618E0,-7.218518257E-1
5.629787563E0,1.507748485E0,-9.719262123E0,-4.824316502E-1
5.649974334E0,1.653794765E0,-9.599552155E0,-2.047042400E-1
5.670155688E0,1.651400566E0,-9.539696693E0,-1.400607973E-1
5.690337459E0,1.615487576E0,-9.546878815E0,-2.621650994E-1
5.710519751E0,1.651400566E0,-9.355342865E0,-4.369418025E-1
5.730702772E0,1.658583283E0,-9.283516884E0,-5.015852451E-1
5.750886626E0,1.438316703E0,-9.360131264E0,-3.818751574E-1
5.771071417E0,1.067215443E0,-9.348160744E0,-2.382230759E-1
5.791257147E0,8.684966564E-1,-9.611522675E0,-2.501940727E-1
5.811443813E0,1.213261724E0,-1.060751057E1,-4.537012279E-1
5.831631417E0,2.096722126E0,-1.159871006E1,-6.907271743E-1
5.851819855E0,1.881243944E0,-9.482235909E0,-9.612720013E-1
5.872009126E0,1.977012038E0,-8.304288864E0,-7.960720658E-1
5.892199022E0,2.125452518E0,-8.720879555E0,-1.831564307E-1
5.912389438E0,2.127846718E0,-9.525331497E0,2.513911761E-2
5.932580167E0,1.864484549E0,-1.009754562E1,-5.518634915E-1
5.952771105E0,1.763928056E0,-1.008318043E1,-8.200140595E-1
5.972972876E0,1.622670174E0,-9.673771858E0,-7.098808289E-1
5.993149959E0,1.388038397E0,-9.498994827E0,-4.297592044E-1
6.013327355E0,1.139041424E0,-9.551667213E0,-3.986345828E-1
6.033505480E0,1.031302333E0,-9.678560257E0,-6.380547285E-1
6.053684647E0,1.222838521E0,-9.716867447E0,-9.062053561E-1
6.073865063E0,1.579574585E0,-9.666589737E0,-9.732429981E-1
6.094046938E0,2.161365509E0,-9.640253067E0,-7.793126702E-1
6.114230480E0,2.489371300E0,-9.498994827E0,-6.021417379E-1
6.134415688E0,2.056020737E0,-9.283516884E0,-7.649474144E-1
6.154602563E0,1.500565886E0,-9.412803650E0,-8.008604646E-1
6.174791105E0,1.354519606E0,-9.704896927E0,-7.194576263E-1
6.194981105E0,1.543661594E0,-9.671378136E0,-8.583213091E-1
6.215172355E0,1.840542555E0,-9.532513618E0,-9.636662006E-1
6.235364647E0,1.957858443E0,-9.510966301E0,-8.870517015E-1
6.255557772E0,1.902791858E0,-9.467870712E0,-8.870517015E-1
6.275751417E0,2.041655540E0,-9.446322441E0,-9.684545994E-1
6.295945272E0,2.388814688E0,-9.613917351E0,-9.301473498E-1
6.316138813E0,2.374449492E0,-9.680954933E0,-7.505822182E-1
6.336325688E0,2.032078743E0,-9.544485092E0,-7.194576263E-1
6.356512459E0,1.670554280E0,-9.515754700E0,-7.817068696E-1
6.376693813E0,1.447893500E0,-9.645041466E0,-7.745242715E-1
6.396875584E0,1.464652896E0,-9.750386238E0,-8.990227580E-1
6.417057876E0,1.629852772E0,-9.688137054E0,-1.124077678E0
6.437240897E0,1.797446966E0,-9.594763756E0,-1.152808070E0
6.457424751E0,1.998559833E0,-9.592369080E0,-1.126471877E0
6.477609542E0,2.041655540E0,-9.623494148E0,-9.780313969E-1
6.497795272E0,1.692102075E0,-9.582792282E0,-8.367735147E-1
6.517981938E0,1.287482023E0,-9.415198326E0,-7.194576263E-1
6.538169542E0,1.062427044E0,-9.427168846E0,-6.931213737E-1
6.558357980E0,1.122282028E0,-9.604340553E0,-1.037886381E0
6.578547251E0,1.775899053E0,-9.542090416E0,-1.241393566E0
6.598737147E0,2.123058319E0,-9.345766068E0,-9.780313969E-1
6.618927563E0,1.929128051E0,-9.336189270E0,-1.047463298E0
6.639118292E0,1.929128051E0,-9.417592049E0,-1.363497853E0
6.659309230E0,2.242768526E0,-9.575610161E0,-1.435323954E0
6.679511001E0,2.470217705E0,-9.585186958E0,-1.248576164E0
6.699688084E0,2.360084295E0,-9.494206429E0,-8.726865053E-1
6.719865480E0,1.965041041E0,-9.647436142E0,-8.702923059E-1
6.740043605E0,1.785475969E0,-9.853337288E0,-1.138442874E0
6.760222772E0,1.826177359E0,-9.587580681E0,-1.145625472E0
6.780403188E0,1.555632591E0,-9.206902504E0,-9.397241473E-1
6.800585063E0,1.584362984E0,-9.458293915E0,-7.553706169E-1
6.820768605E0,1.768716455E0,-9.649829865E0,-7.386112213E-1
6.840953813E0,1.763928056E0,-9.487024307E0,-9.684545994E-1
6.861140688E0,1.936310649E0,-9.376891136E0,-1.203086376E0
6.881329230E0,2.056020737E0,-9.422380447E0,-1.224634171E0
6.901519230E0,1.907580256E0,-9.611522675E0,-1.157596469E0
6.921710480E0,1.962646842E0,-9.680954933E0,-1.085770488E0
6.941902772E0,2.173336506E0,-9.515754700E0,-1.045069098E0
6.962095897E0,1.907580256E0,-9.534908295E0,-8.487445116E-1
6.982289542E0,1.344942808E0,-9.707290649E0,-6.260837317E-1
7.002483397E0,1.043273449E0,-9.589975357E0,-8.367735147E-1
7.022676938E0,1.428739905E0,-9.539696693E0,-1.318008065E0
7.042863709E0,2.144606113E0,-9.487024307E0,-1.425747156E0
7.063045063E0,2.223614931E0,-9.369708061E0,-1.143231273E0
7.083226834E0,1.977012038E0,-9.300276756E0,-9.493009448E-1
7.103409126E0,1.864484549E0,-9.376891136E0,-9.349357486E-1
7.123592147E0,1.754351258E0,-9.628282547E0,-1.001973391E0
7.143776001E0,1.651400566E0,-9.621099472E0,-1.181538582E0
7.163960792E0,1.869272947E0,-9.518148422E0,-1.282094955E0
7.184146522E0,2.168548107E0,-9.520543098E0,-1.258152962E0
7.204333188E0,2.350507498E0,-9.503783226E0,-1.253364563E0
7.224520792E0,2.422333479E0,-9.484629631E0,-1.282094955E0
7.244709230E0,2.369661093E0,-9.491812706E0,-1.279700756E0
7.264898501E0,2.431910276E0,-9.518148422E0,-1.088164687E0
7.285088397E0,2.302623510E0,-9.496601105E0,-1.049857497E0
7.305278813E0,1.950675845E0,-9.386467934E0,-1.229422569E0
7.325469542E0,1.718438268E0,-9.419986725E0,-1.227028370E0
7.345660480E0,1.840542555E0,-9.527725220E0,-1.104924083E0
7.365862251E0,1.921945453E0,-9.482235909E0,-1.047463298E0
7.386039334E0,1.598728180E0,-9.582792282E0,-1.011550188E0
7.406216730E0,1.445499301E0,-9.685743332E0,-9.636662006E-1
7.426394855E0,1.637035370E0,-9.661801338E0,-9.708487988E-1
7.446574022E0,1.797446966E0,-9.613917351E0,-9.732429981E-1
7.466754438E0,1.862090349E0,-9.491812706E0,-1.011550188E0
7.486936313E0,2.020107746E0,-9.374496460E0,-1.052251697E0
7.507119855E0,2.058414936E0,-9.412803650E0,-1.090558887E0
7.527305063E0,1.991377234E0,-9.537302017E0,-1.203086376E0
7.547491938E0,1.936310649E0,-9.671378136E0,-1.267729759E0
7.567680480E0,1.895609140E0,-9.606734276E0,-1.200692177E0
7.587870480E0,1.799841166E0,-9.415198326E0,-1.045069098E0
7.608061730E0,1.502960086E0,-9.431957245E0,-9.923965931E-1
7.628254022E0,1.390432596E0,-9.635464668E0,-9.493009448E-1
7.648447147E0,1.474229693E0,-9.724050522E0,-9.780313969E-1
7.668640792E0,1.704073071E0,-9.549273491E0,-1.222239971E0
7.688834647E0,2.065597534E0,-9.491812706E0,-1.346738458E0
7.709028084E0,2.197278500E0,-9.496601105E0,-1.210268974E0
7.729214855E0,2.010530949E0,-9.487024307E0,-1.080982089E0
7.749396209E0,1.802235365E0,-9.458293915E0,-1.174355984E0
7.769577980E0,1.778293371E0,-9.489418030E0,-1.341950059E0
7.789760272E0,1.807023764E0,-9.604340553E0,-1.358709455E0
7.809943292E0,1.917157054E0,-9.570821762E0,-1.282094955E0
7.830127147E0,2.005742550E0,-9.475052834E0,-1.282094955E0
7.850311938E0,2.032078743E0,-9.472659111E0,-1.322796464E0
7.870497667E0,1.967435241E0,-9.494206429E0,-1.341950059E0
7.890684334E0,1.900397658E0,-9.491812706E0,-1.282094955E0
7.910871938E0,2.027290344E0,-9.453505516E0,-1.176750183E0
7.931060376E0,2.113481522E0,-9.422380447E0,-1.128866076E0
7.951249647E0,1.950675845E0,-9.479841232E0,-1.159990668E0
7.971439542E0,1.704073071E0,-9.506177902E0,-1.243787766E0
7.991629959E0,1.653794765E0,-9.522936821E0,-1.334767461E0
8.011820688E0,1.804629564E0,-9.494206429E0,-1.325190663E0
8.032011626E0,1.965041041E0,-9.479841232E0,-1.246181965E0
8.052213397E0,2.022501945E0,-9.372102737E0,-1.090558887E0
8.072390480E0,1.859696150E0,-9.391256332E0,-1.030703783E0
8.092567876E0,1.749562860E0,-9.463082314E0,-1.136048675E0
8.112746001E0,1.756745458E0,-9.503783226E0,-1.222239971E0
8.132925167E0,1.780687571E0,-9.637859344E0,-1.229422569E0
8.153105584E0,1.759139657E0,-9.664195061E0,-1.193509579E0
8.173287459E0,1.759139657E0,-9.657012939E0,-1.155202270E0
8.193471001E0,1.766322255E0,-9.611522675E0,-1.133654475E0
8.213656209E0,1.747168660E0,-9.477447510E0,-1.112106681E0
8.233843084E0,1.850119352E0,-9.503783226E0,-1.162384868E0
8.254031626E0,1.933916450E0,-9.561244011E0,-1.179144382E0
8.274221626E0,1.876455545E0,-9.532513618E0,-1.133654475E0
8.294412876E0,1.852513552E0,-9.489418030E0,-1.128866076E0
8.314605167E0,1.900397658E0,-9.506177902E0,-1.171961784E0
8.334798292E0,1.924339652E0,-9.522936821E0,-1.133654475E0
8.354991938E0,1.862090349E0,-9.530119896E0,-1.092953086E0
8.375185792E0,1.835754156E0,-9.501389503E0,-1.114500880E0
8.395379230E0,1.857301950E0,-9.475052834E0,-1.133654475E0
8.415566001E0,1.890820742E0,-9.498994827E0,-1.121683478E0
8.435747355E0,1.888426542E0,-9.616311073E0,-1.183932781E0
8.455929126E0,1.835754156E0,-9.589975357E0,-1.181538582E0
8.476111417E0,1.864484549E0,-9.522936821E0,-1.126471877E0
8.496294438E0,1.900397658E0,-9.534908295E0,-1.114500880E0
8.516478292E0,1.852513552E0,-9.556455612E0,-1.064222693E0
8.536663084E0,1.804629564E0,-9.513360023E0,-1.109712481E0
8.556848813E0,1.826177359E0,-9.467870712E0,-1.169567585E0
8.577035480E0,1.876455545E0,-9.494206429E0,-1.162384868E0
8.597223084E0,1.902791858E0,-9.561244011E0,-1.121683478E0
8.617411522E0,1.840542555E0,-9.515754700E0,-1.136048675E0
8.637600792E0,1.866878748E0,-9.453505516E0,-1.126471877E0
8.657790688E0,1.893214941E0,-9.580398560E0,-1.049857497E0
8.677981105E0,1.854907751E0,-9.530119896E0,-1.155202270E0
8.698171834E0,1.926733851E0,-9.391256332E0,-1.248576164E0
8.718362772E0,2.032078743E0,-9.491812706E0,-1.205480576E0
8.738564542E0,2.036867142E0,-9.530119896E0,-1.150413871E0
8.758741626E0,2.015319347E0,-9.434351921E0,-1.157596469E0
8.778919022E0,2.022501945E0,-9.393650055E0,-1.097741485E0
8.799097147E0,2.000954151E0,-9.422380447E0,-9.971849918E-1
8.819276313E0,1.905186057E0,-9.465476036E0,-9.205705523E-1
8.839456730E0,1.747168660E0,-9.482235909E0,-9.325415492E-1
8.859638605E0,1.744774461E0,-9.455899239E0,-9.445125461E-1
8.879822147E0,1.809417963E0,-9.467870712E0,-8.702923059E-1
8.900007355E0,1.826177359E0,-9.527725220E0,-7.793126702E-1
8.920194230E0,1.818994761E0,-9.575610161E0,-6.859387755E-1
8.940382772E0,1.696890473E0,-9.637859344E0,-5.470750928E-1
8.960572772E0,1.488594890E0,-9.759963036E0,-7.936778665E-1
8.980764022E0,1.378461599E0,-9.886856079E0,-1.531091928E0
9.000956313E0,1.675342679E0,-9.922768593E0,-1.799242616E0
9.021149438E0,2.079962730E0,-9.604340553E0,-9.780313969E-1
9.041343084E0,2.204461098E0,-9.362525940E0,-1.280897856E-1
9.061536938E0,2.072780132E0,-9.398438454E0,-3.711012751E-2
9.081730272E0,1.759139657E0,-9.518148422E0,-6.428431273E-1
9.101917147E0,1.608304977E0,-9.736021042E0,-1.298854470E0
9.122103917E0,1.541267395E0,-9.764751434E0,-1.550245643E0
9.142285272E0,1.663371682E0,-9.554061890E0,-1.131260276E0
9.162467042E0,1.847725153E0,-9.544485092E0,-4.584896266E-1
9.182649334E0,1.818994761E0,-9.501389503E0,-1.663970202E-1
9.202832355E0,1.675342679E0,-9.513360023E0,-2.932897210E-1
9.223016209E0,1.560420990E0,-9.659406662E0,-5.518634915E-1
9.243201001E0,1.483806491E0,-9.700108528E0,-7.386112213E-1
9.263386730E0,1.450287700E0,-9.623494148E0,-8.080430627E-1
9.283573397E0,1.531690478E0,-9.668983459E0,-8.032546639E-1
9.303761001E0,1.605910778E0,-9.640253067E0,-7.218518257E-1
9.323949438E0,1.739986062E0,-9.556455612E0,-6.236895323E-1
9.344138605E0,1.771110654E0,-9.573215485E0,-5.207388401E-1
9.364328397E0,1.792658567E0,-9.582792282E0,-5.063736439E-1
9.384518709E0,1.871667147E0,-9.542090416E0,-5.303156972E-1
9.404709334E0,1.898003340E0,-9.578003883E0,-5.327098966E-1
9.424900167E0,1.807023764E0,-9.597157478E0,-5.734112859E-1
9.445101834E0,1.847725153E0,-9.479841232E0,-6.093243361E-1
9.465279334E0,1.953070045E0,-9.494206429E0,-5.494692922E-1
9.485457147E0,1.921945453E0,-9.580398560E0,-5.111620426E-1
9.505635584E0,1.823783159E0,-9.609128952E0,-5.710170865E-1
9.525814959E0,1.823783159E0,-9.604340553E0,-6.739677787E-1
9.545995584E0,1.799841166E0,-9.654618263E0,-7.074866295E-1
9.566177667E0,1.720832467E0,-9.661801338E0,-6.907271743E-1
9.586361313E0,1.687313676E0,-9.594763756E0,-6.260837317E-1
9.606546626E0,1.627458572E0,-9.609128952E0,-5.327098966E-1
9.626733605E0,1.519719481E0,-9.640253067E0,-5.351040959E-1
9.646922147E0,1.455076098E0,-9.618705750E0,-6.236895323E-1
9.667112147E0,1.416768909E0,-9.647436142E0,-6.667851806E-1
9.687303397E0,1.411980510E0,-9.657012939E0,-6.548141837E-1
9.707495688E0,1.450287700E0,-9.654618263E0,-6.284779310E-1
9.727688709E0,1.423951507E0,-9.671378136E0,-6.069301367E-1
9.747882147E0,1.378461599E0,-9.683348656E0,-6.428431273E-1
9.768075792E0,1.383249998E0,-9.668983459E0,-7.673416734E-1
9.788267980E0,1.469441295E0,-9.659406662E0,-7.936778665E-1
9.808454751E0,1.526902080E0,-9.621099472E0,-7.290344238E-1
9.828636105E0,1.646612167E0,-9.568427086E0,-6.667851806E-1
9.848817876E0,1.802235365E0,-9.551667213E0,-6.811503768E-1
9.869000167E0,1.965041041E0,-9.556455612E0,-7.649474144E-1
9.889183188E0,2.084751129E0,-9.513360023E0,-8.008604646E-1
9.909367042E0,2.144606113E0,-9.549273491E0,-7.146692276E-1
9.929551834E0,2.032078743E0,-9.558850288E0,-6.787561774E-1
9.949737563E0,1.838148355E0,-9.513360023E0,-6.811503768E-1
9.969924230E0,1.689707875E0,-9.594763756E0,-6.332663298E-1
9.990111834E0,1.634641171E0,-9.606734276E0,-6.260837317E-1
1.001030027E1,1.747168660E0,-9.520543098E0,-6.596025825E-1
1.003048944E1,1.866878748E0,-9.544485092E0,-6.643909812E-1
1.005067923E1,1.878849745E0,-9.534908295E0,-7.242460251E-1
1.007086954E1,1.838148355E0,-9.522936821E0,-7.817068696E-1
1.009106017E1,1.720832467E0,-9.611522675E0,-7.433996201E-1
1.011125100E1,1.627458572E0,-9.616311073E0,-7.266402245E-1
1.013145267E1,1.629852772E0,-9.592369080E0,-7.433996201E-1
1.015163017E1,1.658583283E0,-9.625887871E0,-7.362170219E-1
1.017180798E1,1.660977483E0,-9.654618263E0,-7.098808289E-1
1.019198642E1,1.684919477E0,-9.613917351E0,-7.266402245E-1
1.021216579E1,1.775899053E0,-9.551667213E0,-7.912836671E-1
1.023234642E1,1.878849745E0,-9.518148422E0,-8.008604646E-1
1.025252850E1,1.876455545E0,-9.546878815E0,-7.314286232E-1
1.027271215E1,1.838148355E0,-9.570821762E0,-6.548141837E-1
1.029289746E1,1.787870169E0,-9.594763756E0,-6.548141837E-1
1.031308444E1,1.742380261E0,-9.585186958E0,-6.907271743E-1
1.033327298E1,1.728015065E0,-9.561244011E0,-7.026981711E-1
1.035346298E1,1.742380261E0,-9.570821762E0,-6.500257850E-1
1.037365423E1,1.763928056E0,-9.594763756E0,-6.069301367E-1
1.039384652E1,1.725620866E0,-9.597157478E0,-6.284779310E-1
1.041403954E1,1.675342679E0,-9.556455612E0,-6.835445762E-1
1.043423298E1,1.665765882E0,-9.534908295E0,-7.242460251E-1
1.045442663E1,1.625064373E0,-9.611522675E0,-7.290344238E-1
1.047461881E1,1.560420990E0,-9.671378136E0,-7.266402245E-1
1.049480558E1,1.512536883E0,-9.649829865E0,-7.433996201E-1
1.051498694E1,1.529296279E0,-9.585186958E0,-7.290344238E-1
1.053516871E1,1.584362984E0,-9.554061890E0,-6.787561774E-1
1.055535100E1,1.641823769E0,-9.594763756E0,-6.284779310E-1
1.057553402E1,1.675342679E0,-9.767146111E0,-5.686228871E-1
1.059571788E1,1.593939781E0,-9.757569313E0,-5.758054852E-1
1.061590267E1,1.553238392E0,-9.537302017E0,-6.572083831E-1
1.063608840E1,1.665765882E0,-9.597157478E0,-6.236895323E-1
1.065627506E1,1.811812162E0,-9.582792282E0,-5.710170865E-1
1.067646267E1,1.914762855E0,-9.491812706E0,-6.212953329E-1
1.069665110E1,1.991377234E0,-9.527725220E0,-6.643909812E-1
1.071684027E1,1.960252643E0,-9.498994827E0,-6.356605291E-1
1.073703006E1,1.728015065E0,-9.530119896E0,-5.494692922E-1
1.075722038E1,1.385644197E0,-9.633070946E0,-6.284779310E-1
1.077741100E1,1.179742932E0,-9.736021042E0,-7.960720658E-1
1.079760183E1,1.191713929E0,-9.805453300E0,-9.421183467E-1
1.081780350E1,1.356913805E0,-9.781511307E0,-8.918401599E-1
1.083798079E1,1.560420990E0,-9.661801338E0,-7.170634270E-1
1.085815840E1,1.845330954E0,-9.551667213E0,-5.255272985E-1
1.087833673E1,2.053626537E0,-9.487024307E0,-4.896142483E-1
1.089851610E1,2.130240917E0,-9.410409927E0,-5.470750928E-1
1.091869673E1,2.044049740E0,-9.446322441E0,-5.159504414E-1
1.093887881E1,2.000954151E0,-9.628282547E0,-4.680664241E-1
1.095906246E1,2.036867142E0,-9.692925453E0,-5.829881430E-1
1.097924777E1,1.960252643E0,-9.587580681E0,-6.572083831E-1
1.099943475E1,1.701678872E0,-9.537302017E0,-7.553706169E-1
1.101962329E1,1.505354285E0,-9.537302017E0,-8.631097078E-1
1.103981329E1,1.613093376E0,-9.558850288E0,-7.888894677E-1
1.106000454E1,1.818994761E0,-9.563638687E0,-6.452373862E-1
1.108019683E1,1.792658567E0,-9.558850288E0,-6.452373862E-1
1.110038986E1,1.713649869E0,-9.566033363E0,-7.673416734E-1
1.112058329E1,1.708861470E0,-9.582792282E0,-8.918401599E-1
1.114077694E1,1.876455545E0,-9.544485092E0,-8.990227580E-1
1.116096933E1,2.053626537E0,-9.522936821E0,-7.793126702E-1
1.118115611E1,2.017713547E0,-9.549273491E0,-6.476315856E-1
1.120133746E1,1.830965757E0,-9.563638687E0,-5.997475386E-1
1.122151923E1,1.660977483E0,-9.573215485E0,-6.332663298E-1
1.124170152E1,1.577180386E0,-9.652224541E0,-6.667851806E-1
1.126188454E1,1.593939781E0,-9.539696693E0,-6.548141837E-1
1.128206840E1,1.632246971E0,-9.391256332E0,-6.284779310E-1
1.130225319E1,1.718438268E0,-9.611522675E0,-5.973533392E-1
1.132243892E1,1.725620866E0,-9.841365814E0,-6.141127348E-1
1.134262558E1,1.569997787E0,-9.733627319E0,-6.596025825E-1
1.136281319E1,1.330577612E0,-9.666589737E0,-6.093243361E-1
1.138300163E1,1.268328309E0,-9.791088104E0,-2.094926536E-1
1.140319079E1,1.385644197E0,-9.678560257E0,6.823474914E-2
1.142338058E1,1.766322255E0,-9.498994827E0,-6.823474914E-2
1.144357090E1,2.077568531E0,-9.479841232E0,-4.680664241E-1
1.146376152E1,2.056020737E0,-9.455899239E0,-8.008604646E-1
1.148395236E1,1.816600561E0,-9.563638687E0,-9.062053561E-1
1.150415402E1,1.558026791E0,-9.688137054E0,-7.936778665E-1
1.152433131E1,1.433528304E0,-9.659406662E0,-6.260837317E-1
1.154450892E1,1.443105102E0,-9.683348656E0,-4.537012279E-1
1.156468725E1,1.447893500E0,-9.733627319E0,-3.818751574E-1
1.158486663E1,1.452681899E0,-9.740809441E0,-4.728548229E-1
1.160504725E1,1.517325282E0,-9.664195061E0,-6.380547285E-1
1.162522933E1,1.579574585E0,-9.700108528E0,-6.739677787E-1
1.164541298E1,1.524507880E0,-9.697713852E0,-6.141127348E-1
1.166559829E1,1.558026791E0,-9.589975357E0,-5.781996846E-1
1.168578527E1,1.660977483E0,-9.594763756E0,-5.494692922E-1
1.170597381E1,1.699284673E0,-9.609128952E0,-5.686228871E-1
1.172616381E1,1.692102075E0,-9.578003883E0,-6.284779310E-1
1.174635506E1,1.672948480E0,-9.587580681E0,-6.739677787E-1
1.176654736E1,1.663371682E0,-9.609128952E0,-6.380547285E-1
1.178674038E1,1.644217968E0,-9.621099472E0,-6.141127348E-1
1.180693381E1,1.644217968E0,-9.589975357E0,-5.949591398E-1
1.182712746E1,1.649006367E0,-9.568427086E0,-5.925649405E-1
1.184731975E1,1.637035370E0,-9.558850288E0,-6.141127348E-1
1.186750652E1,1.725620866E0,-9.518148422E0,-6.619967818E-1
1.188768788E1,1.826177359E0,-9.561244011E0,-6.739677787E-1
1.190786965E1,1.826177359E0,-9.621099472E0,-6.428431273E-1
1.192805194E1,1.653794765E0,-9.671378136E0,-5.901707411E-1
1.194823496E1,1.517325282E0,-9.558850288E0,-5.686228871E-1
1.196841881E1,1.577180386E0,-9.556455612E0,-5.374982953E-1
1.198860361E1,1.689707875E0,-9.633070946E0,-5.374982953E-1
1.200878933E1,1.706467271E0,-9.635464668E0,-5.925649405E-1
1.202897600E1,1.660977483E0,-9.558850288E0,-6.835445762E-1
1.204916360E1,1.684919477E0,-9.558850288E0,-7.362170219E-1
1.206935204E1,1.716044068E0,-9.585186958E0,-7.266402245E-1
1.208954121E1,1.768716455E0,-9.534908295E0,-7.026981711E-1
1.210973100E1,1.773504853E0,-9.611522675E0,-6.404489279E-1
1.212992131E1,1.637035370E0,-9.640253067E0,-6.284779310E-1
1.215011194E1,1.625064373E0,-9.534908295E0,-6.643909812E-1
1.217030277E1,1.689707875E0,-9.597157478E0,-7.266402245E-1
1.219050444E1,1.754351258E0,-9.640253067E0,-8.295909166E-1
1.221068173E1,1.816600561E0,-9.618705750E0,-8.942343593E-1
1.223085933E1,1.833359957E0,-9.611522675E0,-8.439561129E-1
1.225103767E1,1.811812162E0,-9.582792282E0,-7.745242715E-1
1.227121704E1,1.785475969E0,-9.589975357E0,-7.745242715E-1
1.229139767E1,1.725620866E0,-9.618705750E0,-8.200140595E-1
1.231157975E1,1.692102075E0,-9.580398560E0,-8.152256608E-1
1.233176340E1,1.699284673E0,-9.585186958E0,-7.314286232E-1
1.235194871E1,1.668160081E0,-9.625887871E0,-6.811503768E-1
1.237213569E1,1.572391987E0,-9.606734276E0,-7.290344238E-1
1.239232423E1,1.608304977E0,-9.566033363E0,-7.984662652E-1
1.241251423E1,1.749562860E0,-9.609128952E0,-7.864952683E-1
1.243270548E1,1.802235365E0,-9.625887871E0,-7.338228226E-1
1.245289777E1,1.730409265E0,-9.594763756E0,-7.481880188E-1
1.247309079E1,1.675342679E0,-9.544485092E0,-7.745242715E-1
1.249328423E1,1.718438268E0,-9.484629631E0,-7.888894677E-1
1.251347788E1,1.780687571E0,-9.510966301E0,-8.224082589E-1
1.253367017E1,1.804629564E0,-9.587580681E0,-8.343793154E-1
1.255385694E1,1.744774461E0,-9.649829865E0,-7.673416734E-1
1.257403829E1,1.569997787E0,-9.659406662E0,-7.003039718E-1
1.259422006E1,1.507748485E0,-9.673771858E0,-7.074866295E-1
1.261440236E1,1.531690478E0,-9.657012939E0,-8.008604646E-1
1.263458538E1,1.610699177E0,-9.640253067E0,-8.439561129E-1
1.265476923E1,1.687313676E0,-9.568427086E0,-7.625532150E-1
1.267495402E1,1.716044068E0,-9.494206429E0,-7.242460251E-1
1.269513975E1,1.816600561E0,-9.549273491E0,-7.553706169E-1
1.271532642E1,1.900397658E0,-9.637859344E0,-7.553706169E-1
1.273551402E1,1.742380261E0,-9.589975357E0,-7.481880188E-1
1.275570246E1,1.584362984E0,-9.525331497E0,-7.601590157E-1
1.277589163E1,1.615487576E0,-9.537302017E0,-7.386112213E-1
1.279608142E1,1.751957059E0,-9.604340553E0,-7.026981711E-1
1.281627173E1,1.802235365E0,-9.580398560E0,-7.242460251E-1
1.283646236E1,1.751957059E0,-9.566033363E0,-7.242460251E-1
1.285665319E1,1.680131078E0,-9.618705750E0,-7.290344238E-1
1.287685486E1,1.644217968E0,-9.594763756E0,-7.170634270E-1
1.289703215E1,1.677736878E0,-9.563638687E0,-7.194576263E-1
1.291720975E1,1.706467271E0,-9.580398560E0,-7.505822182E-1
1.293738808E1,1.711255670E0,-9.575610161E0,-7.673416734E-1
1.295756746E1,1.768716455E0,-9.587580681E0,-7.912836671E-1
1.297774808E1,1.792658567E0,-9.601945877E0,-7.793126702E-1
1.299793017E1,1.780687571E0,-9.582792282E0,-7.649474144E-1
1.301811381E1,1.735197663E0,-9.544485092E0,-7.314286232E-1
1.303829913E1,1.692102075E0,-9.561244011E0,-6.787561774E-1
1.305848610E1,1.682525277E0,-9.604340553E0,-6.619967818E-1
1.307867465E1,1.629852772E0,-9.637859344E0,-7.146692276E-1
1.309886465E1,1.565209389E0,-9.561244011E0,-8.271966577E-1
1.311905590E1,1.634641171E0,-9.537302017E0,-8.415619135E-1
1.313924819E1,1.737591863E0,-9.604340553E0,-7.817068696E-1
1.315944121E1,1.826177359E0,-9.606734276E0,-7.697358727E-1
1.317963465E1,1.816600561E0,-9.568427086E0,-7.888894677E-1
1.319982829E1,1.780687571E0,-9.589975357E0,-8.032546639E-1
1.322002058E1,1.739986062E0,-9.666589737E0,-8.104372621E-1
1.324020736E1,1.675342679E0,-9.714473724E0,-8.774749041E-1
1.326038871E1,1.613093376E0,-9.647436142E0,-9.421183467E-1
1.328057048E1,1.613093376E0,-9.599552155E0,-8.655039072E-1
1.330075277E1,1.641823769E0,-9.649829865E0,-7.745242715E-1
1.332093579E1,1.665765882E0,-9.700108528E0,-7.649474144E-1
1.334111965E1,1.663371682E0,-9.692925453E0,-7.984662652E-1
1.336130444E1,1.608304977E0,-9.630676270E0,-8.224082589E-1
1.338149017E1,1.553238392E0,-9.515754700E0,-7.817068696E-1
1.340167683E1,1.512536883E0,-9.506177902E0,-7.170634270E-1
1.342186444E1,1.529296279E0,-9.578003883E0,-6.835445762E-1
1.344205288E1,1.558026791E0,-9.645041466E0,-7.098808289E-1
1.346224204E1,1.596333981E0,-9.582792282E0,-7.769184709E-1
1.348243183E1,1.649006367E0,-9.465476036E0,-8.080430627E-1
1.350262215E1,1.684919477E0,-9.460687637E0,-7.290344238E-1
1.352281277E1,1.677736878E0,-9.522936821E0,-6.404489279E-1
1.354300361E1,1.649006367E0,-9.594763756E0,-6.931213737E-1
1.356320527E1,1.555632591E0,-9.642647743E0,-8.032546639E-1
1.358338267E1,1.488594890E0,-9.628282547E0,-8.870517015E-1
1.360356038E1,1.543661594E0,-9.616311073E0,-8.295909166E-1
1.362373871E1,1.569997787E0,-9.649829865E0,-7.146692276E-1
1.364391798E1,1.514931083E0,-9.671378136E0,-7.481880188E-1
1.366409850E1,1.419163108E0,-9.640253067E0,-9.038111567E-1
1.368428048E1,1.447893500E0,-9.635464668E0,-1.121683478E0
1.370446402E1,1.514931083E0,-9.712079048E0,-1.171961784E0
1.372464923E1,1.510142684E0,-9.695320129E0,-1.126471877E0
1.374483611E1,1.512536883E0,-9.625887871E0,-1.140837073E0
1.376502454E1,1.572391987E0,-9.585186958E0,-1.045069098E0
1.378521444E1,1.658583283E0,-9.513360023E0,-9.062053561E-1
1.380540558E1,1.728015065E0,-9.384073257E0,-7.984662652E-1
1.382559777E1,1.816600561E0,-9.458293915E0,-7.170634270E-1
1.384579079E1,1.852513552E0,-9.628282547E0,-8.008604646E-1
1.386598433E1,1.732803464E0,-9.597157478E0,-9.588778019E-1
1.388617808E1,1.589151382E0,-9.482235909E0,-1.040280581E0
1.390637121E1,1.565209389E0,-9.479841232E0,-1.037886381E0
1.392655798E1,1.481412292E0,-9.558850288E0,-1.126471877E0
1.394673933E1,1.450287700E0,-9.657012939E0,-1.157596469E0
1.396692110E1,1.517325282E0,-9.666589737E0,-1.076193690E0
1.398710340E1,1.517325282E0,-9.563638687E0,-9.995791912E-1
1.400728642E1,1.536478996E0,-9.558850288E0,-9.493009448E-1
1.402747027E1,1.589151382E0,-9.611522675E0,-1.021126986E0
1.404765506E1,1.565209389E0,-9.578003883E0,-1.148019671E0
1.406784079E1,1.553238392E0,-9.599552155E0,-1.140837073E0
1.408802746E1,1.546055794E0,-9.678560257E0,-1.025915384E0
1.410821506E1,1.505354285E0,-9.635464668E0,-1.001973391E0
1.412840350E1,1.505354285E0,-9.570821762E0,-9.995791912E-1
1.414859267E1,1.510142684E0,-9.601945877E0,-1.092953086E0
1.416878246E1,1.562815189E0,-9.637859344E0,-1.136048675E0
1.418897277E1,1.608304977E0,-9.582792282E0,-1.076193690E0
1.420916340E1,1.653794765E0,-9.549273491E0,-1.090558887E0
1.422935423E1,1.713649869E0,-9.587580681E0,-1.171961784E0
1.424955590E1,1.649006367E0,-9.587580681E0,-1.234210968E0
1.426973340E1,1.639429569E0,-9.513360023E0,-1.174355984E0
1.428991121E1,1.663371682E0,-9.487024307E0,-1.040280581E0
1.431008965E1,1.615487576E0,-9.563638687E0,-1.112106681E0
1.433026902E1,1.558026791E0,-9.606734276E0,-1.238999367E0
1.435044965E1,1.567603588E0,-9.570821762E0,-1.274912357E0
1.437063173E1,1.706467271E0,-9.527725220E0,-1.337161660E0
1.439081538E1,1.876455545E0,-9.503783226E0,-1.327584863E0
1.441100069E1,1.936310649E0,-9.465476036E0,-1.260547161E0
1.443118767E1,1.914762855E0,-9.467870712E0,-1.265335560E0
1.445137621E1,1.883638144E0,-9.460687637E0,-1.289277673E0
1.447156621E1,1.924339652E0,-9.475052834E0,-1.260547161E0
1.449175746E1,1.871667147E0,-9.501389503E0,-1.250970364E0
1.451194975E1,1.790264368E0,-9.494206429E0,-1.229422569E0
1.453214277E1,1.706467271E0,-9.530119896E0,-1.203086376E0
1.455233621E1,1.672948480E0,-9.566033363E0,-1.260547161E0
1.457252986E1,1.701678872E0,-9.534908295E0,-1.349132657E0
1.459272204E1,1.725620866E0,-9.561244011E0,-1.227028370E0
1.461290892E1,1.675342679E0,-9.530119896E0,-1.176750183E0
1.463309569E1,1.680131078E0,-9.513360023E0,-1.315613866E0
1.465327704E1,1.739986062E0,-9.510966301E0,-1.318008065E0
1.467345881E1,1.756745458E0,-9.515754700E0,-1.131260276E0
1.469364111E1,1.718438268E0,-9.503783226E0,-1.095347285E0
1.471382413E1,1.684919477E0,-9.534908295E0,-1.303642869E0
1.473400798E1,1.646612167E0,-9.585186958E0,-1.413776159E0
1.475419277E1,1.694496274E0,-9.518148422E0,-1.246181965E0
1.477437850E1,1.780687571E0,-9.489418030E0,-1.095347285E0
1.479456517E1,1.790264368E0,-9.506177902E0,-1.152808070E0
1.481475277E1,1.696890473E0,-9.580398560E0,-1.341950059E0
1.483494121E1,1.627458572E0,-9.546878815E0,-1.413776159E0
1.485513038E1,1.744774461E0,-9.537302017E0,-1.301248670E0
1.487532017E1,1.874061346E0,-9.549273491E0,-1.258152962E0
1.489551048E1,1.852513552E0,-9.506177902E0,-1.320402265E0
1.491570110E1,1.771110654E0,-9.515754700E0,-1.315613866E0
1.493589194E1,1.747168660E0,-9.554061890E0,-1.322796464E0
1.495609361E1,1.807023764E0,-9.513360023E0,-1.363497853E0
1.497627110E1,1.871667147E0,-9.489418030E0,-1.313219666E0
1.499644892E1,1.850119352E0,-9.510966301E0,-1.255758762E0
1.501662736E1,1.778293371E0,-9.537302017E0,-1.236605167E0
1.503680673E1,1.663371682E0,-9.518148422E0,-1.289277673E0
1.505698736E1,1.625064373E0,-9.527725220E0,-1.327584863E0
1.507716944E1,1.694496274E0,-9.542090416E0,-1.341950059E0
1.509735308E1,1.809417963E0,-9.498994827E0,-1.353921056E0
1.511753840E1,1.857301950E0,-9.475052834E0,-1.329979062E0
1.513772538E1,1.785475969E0,-9.491812706E0,-1.294066072E0
1.515791392E1,1.704073071E0,-9.506177902E0,-1.296460271E0
1.517810392E1,1.735197663E0,-9.525331497E0,-1.382651448E0
1.519829517E1,1.826177359E0,-9.501389503E0,-1.370680451E0
1.521848746E1,1.821388960E0,-9.506177902E0,-1.294066072E0
1.523868048E1,1.730409265E0,-9.534908295E0,-1.320402265E0
1.525887392E1,1.696890473E0,-9.537302017E0,-1.401805043E0
1.527906756E1,1.766322255E0,-9.522936821E0,-1.389834046E0
1.529925975E1,1.866878748E0,-9.482235909E0,-1.377863050E0
1.531944663E1,1.895609140E0,-9.467870712E0,-1.404199243E0
1.533963340E1,1.854907751E0,-9.503783226E0,-1.432929754E0
1.535981475E1,1.811812162E0,-9.484629631E0,-1.425747156E0
1.537999652E1,1.823783159E0,-9.494206429E0,-1.334767461E0
1.540017881E1,1.871667147E0,-9.463082314E0,-1.346738458E0
1.542036183E1,1.890820742E0,-9.465476036E0,-1.387439847E0
1.544054569E1,1.787870169E0,-9.534908295E0,-1.392228246E0
1.546073048E1,1.694496274E0,-9.527725220E0,-1.435323954E0
1.548091621E1,1.763928056E0,-9.465476036E0,-1.387439847E0
1.550110288E1,1.866878748E0,-9.482235909E0,-1.291671872E0
1.552129048E1,1.838148355E0,-9.518148422E0,-1.262941360E0
1.554147892E1,1.720832467E0,-9.429563522E0,-1.248576164E0
1.556166808E1,1.646612167E0,-9.350554466E0,-1.253364563E0
1.558185788E1,1.704073071E0,-9.295488358E0,-1.227028370E0
1.560204819E1,1.821388960E0,-9.211690903E0,-1.116895080E0
1.562223881E1,1.905186057E0,-9.101557732E0,-1.016338587E0
1.564242965E1,2.039261341E0,-9.077615738E0,-1.061828494E0
1.566263131E1,2.283469915E0,-9.424775124E0,-1.116895080E0
1.568280892E1,2.360084295E0,-1.022683239E1,-1.145625472E0
1.570298683E1,1.847725153E0,-1.040160942E1,-1.289277673E0
1.572316538E1,8.948329091E-1,-9.759963036E0,-1.669955730E0
1.574334486E1,5.452794433E-1,-9.460687637E0,-1.657984734E0
1.576352558E1,1.110311031E0,-9.604340553E0,-1.064222693E0
1.578370777E1,1.919551253E0,-9.654618263E0,-5.374982953E-1
1.580389152E1,2.319382906E0,-9.475052834E0,-4.896142483E-1
1.582407683E1,2.127846718E0,-9.431957245E0,-1.023521185E0
1.584426371E1,1.773504853E0,-9.594763756E0,-1.365892053E0
1.586445215E1,1.622670174E0,-9.582792282E0,-1.124077678E0
1.588464194E1,1.601122379E0,-9.489418030E0,-6.069301367E-1
1.590483298E1,1.569997787E0,-9.463082314E0,-2.525882721E-1
1.592502506E1,1.459864497E0,-9.496601105E0,-2.406172752E-1
1.594521788E1,1.321000814E0,-9.520543098E0,-7.003039718E-1
1.596541121E1,1.435922503E0,-9.774328232E0,-1.614889026E0
1.598560475E1,1.809417963E0,-1.013345909E1,-1.995567083E0
1.600579756E1,1.852513552E0,-9.561244011E0,-1.329979062E0
1.602598444E1,1.938704848E0,-9.297882080E0,-2.238578647E-1
1.604617121E1,1.859696150E0,-9.458293915E0,3.148375154E-1
1.606635256E1,1.522113681E0,-9.616311073E0,-2.310404629E-1
1.608653433E1,1.371279001E0,-9.700108528E0,-1.095347285E0
1.610671663E1,1.605910778E0,-9.762357712E0,-1.595735431E0
1.612689965E1,1.783081770E0,-9.757569313E0,-1.504755735E0
1.614708350E1,1.754351258E0,-9.635464668E0,-9.947907925E-1
1.616726829E1,1.747168660E0,-9.563638687E0,-4.896142483E-1
1.618745402E1,1.790264368E0,-9.563638687E0,-3.483563364E-1
1.620764069E1,1.785475969E0,-9.570821762E0,-6.619967818E-1
1.622782829E1,1.842936754E0,-9.546878815E0,-1.080982089E0
1.624801673E1,1.893214941E0,-9.546878815E0,-1.270123959E0
1.626820590E1,1.823783159E0,-9.585186958E0,-1.064222693E0
1.628839569E1,1.687313676E0,-9.611522675E0,-7.912836671E-1
1.630858600E1,1.687313676E0,-9.599552155E0,-7.003039718E-1
1.632877663E1,1.785475969E0,-9.582792282E0,-7.673416734E-1
1.634896746E1,1.840542555E0,-9.561244011E0,-8.894459605E-1
1.636916913E1,1.835754156E0,-9.558850288E0,-9.636662006E-1
1.638934673E1,1.763928056E0,-9.678560257E0,-8.846575022E-1
1.640952465E1,1.546055794E0,-9.597157478E0,-7.410054207E-1
1.642970319E1,1.340154409E0,-9.451110840E0,-6.619967818E-1
1.644988267E1,1.421557307E0,-9.544485092E0,-5.662286878E-1
1.647006340E1,1.589151382E0,-9.506177902E0,-6.236895323E-1
1.649024558E1,1.761533856E0,-9.513360023E0,-7.912836671E-1
1.651042933E1,1.933916450E0,-9.554061890E0,-9.014169574E-1
1.653061465E1,1.967435241E0,-9.508571625E0,-9.660604000E-1
1.655080152E1,1.948281646E0,-9.534908295E0,-9.373299479E-1
1.657098996E1,1.830965757E0,-9.604340553E0,-8.343793154E-1
1.659117975E1,1.637035370E0,-9.645041466E0,-7.146692276E-1
1.661137079E1,1.536478996E0,-9.668983459E0,-6.787561774E-1
1.663156288E1,1.531690478E0,-9.664195061E0,-7.146692276E-1
1.665175569E1,1.550844193E0,-9.673771858E0,-7.577648163E-1
1.667194902E1,1.629852772E0,-9.671378136E0,-7.649474144E-1
1.669214256E1,1.711255670E0,-9.640253067E0,-7.841010690E-1
1.671233548E1,1.792658567E0,-9.592369080E0,-8.080430627E-1
1.673252225E1,1.807023764E0,-9.599552155E0,-7.553706169E-1
1.675270360E1,1.665765882E0,-9.587580681E0,-6.955155730E-1
1.677288538E1,1.562815189E0,-9.539696693E0,-6.931213737E-1
1.679306767E1,1.615487576E0,-9.589975357E0,-6.715735793E-1
1.681325069E1,1.677736878E0,-9.597157478E0,-6.452373862E-1
1.683343454E1,1.692102075E0,-9.544485092E0,-7.003039718E-1
1.685361933E1,1.739986062E0,-9.532513618E0,-7.673416734E-1
1.687380506E1,1.780687571E0,-9.592369080E0,-7.601590157E-1
1.689399173E1,1.759139657E0,-9.592369080E0,-7.481880188E-1
1.691417933E1,1.716044068E0,-9.609128952E0,-7.433996201E-1
1.693436777E1,1.672948480E0,-9.625887871E0,-7.577648163E-1
1.695455694E1,1.663371682E0,-9.613917351E0,-7.769184709E-1
1.697474673E1,1.713649869E0,-9.597157478E0,-7.864952683E-1
1.699493704E1,1.754351258E0,-9.575610161E0,-7.793126702E-1
1.701512767E1,1.756745458E0,-9.568427086E0,-7.649474144E-1
1.703531850E1,1.718438268E0,-9.558850288E0,-7.745242715E-1
1.705552017E1,1.756745458E0,-9.585186958E0,-7.553706169E-1
1.707569767E1,1.787870169E0,-9.597157478E0,-7.338228226E-1
1.709587548E1,1.747168660E0,-9.549273491E0,-7.290344238E-1
1.711605392E1,1.737591863E0,-9.580398560E0,-7.146692276E-1
1.713623329E1,1.708861470E0,-9.609128952E0,-7.146692276E-1
1.715641392E1,1.682525277E0,-9.575610161E0,-7.505822182E-1
1.717659600E1,1.660977483E0,-9.594763756E0,-7.362170219E-1
1.719677965E1,1.634641171E0,-9.613917351E0,-7.218518257E-1
1.721696496E1,1.660977483E0,-9.625887871E0,-7.122750282E-1
1.723715194E1,1.716044068E0,-9.613917351E0,-7.338228226E-1
1.725734048E1,1.754351258E0,-9.592369080E0,-7.410054207E-1
1.727753048E1,1.759139657E0,-9.599552155E0,-7.433996201E-1
1.729772173E1,1.754351258E0,-9.592369080E0,-7.577648163E-1
1.731791402E1,1.754351258E0,-9.573215485E0,-7.721300721E-1
1.733810704E1,1.775899053E0,-9.580398560E0,-7.433996201E-1
1.735830048E1,1.763928056E0,-9.599552155E0,-7.338228226E-1
1.737849413E1,1.732803464E0,-9.587580681E0,-7.314286232E-1
1.739868631E1,1.699284673E0,-9.539696693E0,-7.314286232E-1
1.741887319E1,1.716044068E0,-9.585186958E0,-7.170634270E-1
1.743905996E1,1.699284673E0,-9.635464668E0,-7.553706169E-1
1.745924131E1,1.706467271E0,-9.580398560E0,-8.200140595E-1
1.747942308E1,1.761533856E0,-9.549273491E0,-8.726865053E-1
1.749960538E1,1.857301950E0,-9.561244011E0,-8.535329103E-1
1.751978840E1,1.888426542E0,-9.566033363E0,-8.032546639E-1
1.753997225E1,1.814206362E0,-9.554061890E0,-7.673416734E-1
1.756015704E1,1.723226666E0,-9.582792282E0,-7.553706169E-1
1.758034277E1,1.689707875E0,-9.604340553E0,-7.793126702E-1
1.760052944E1,1.692102075E0,-9.599552155E0,-8.080430627E-1
1.762071704E1,1.713649869E0,-9.556455612E0,-8.295909166E-1
1.764090548E1,1.739986062E0,-9.573215485E0,-7.960720658E-1
1.766109465E1,1.749562860E0,-9.594763756E0,-7.649474144E-1
1.768128444E1,1.744774461E0,-9.561244011E0,-7.817068696E-1
1.770147475E1,1.756745458E0,-9.573215485E0,-8.056488633E-1
1.772166538E1,1.751957059E0,-9.585186958E0,-8.056488633E-1
1.774185621E1,1.704073071E0,-9.575610161E0,-7.888894677E-1
1.776205788E1,1.692102075E0,-9.585186958E0,-7.721300721E-1
1.778223538E1,1.696890473E0,-9.594763756E0,-7.793126702E-1
1.780241319E1,1.742380261E0,-9.589975357E0,-7.888894677E-1
1.782259163E1,1.756745458E0,-9.566033363E0,-7.793126702E-1
1.784277100E1,1.766322255E0,-9.573215485E0,-7.505822182E-1
1.786295163E1,1.720832467E0,-9.592369080E0,-7.362170219E-1
1.788313371E1,1.665765882E0,-9.587580681E0,-7.529764175E-1
1.790331736E1,1.670554280E0,-9.570821762E0,-7.984662652E-1
1.792350267E1,1.725620866E0,-9.570821762E0,-7.864952683E-1
1.794368965E1,1.754351258E0,-9.589975357E0,-7.649474144E-1
1.796387819E1,1.749562860E0,-9.585186958E0,-7.697358727E-1
1.798406819E1,1.716044068E0,-9.585186958E0,-7.769184709E-1
1.800425944E1,1.713649869E0,-9.578003883E0,-7.721300721E-1
1.802445173E1,1.704073071E0,-9.585186958E0,-7.362170219E-1
1.804464475E1,1.694496274E0,-9.566033363E0,-7.314286232E-1
1.806483819E1,1.728015065E0,-9.637859344E0,-7.601590157E-1
1.808503183E1,1.730409265E0,-9.618705750E0,-7.745242715E-1
1.810522392E1,1.687313676E0,-9.532513618E0,-7.936778665E-1
1.812541069E1,1.713649869E0,-9.544485092E0,-7.888894677E-1
1.814559204E1,1.802235365E0,-9.589975357E0,-7.457938194E-1
1.816577381E1,1.809417963E0,-9.563638687E0,-7.242460251E-1
1.818595611E1,1.763928056E0,-9.556455612E0,-7.433996201E-1
1.820613913E1,1.728015065E0,-9.601945877E0,-7.745242715E-1
1.822632298E1,1.723226666E0,-9.633070946E0,-7.745242715E-1
1.824650777E1,1.692102075E0,-9.604340553E0,-7.601590157E-1
1.826669350E1,1.684919477E0,-9.578003883E0,-7.649474144E-1
1.828688017E1,1.732803464E0,-9.556455612E0,-7.721300721E-1
1.830706777E1,1.783081770E0,-9.573215485E0,-7.745242715E-1
1.832725621E1,1.773504853E0,-9.578003883E0,-7.817068696E-1
1.834744538E1,1.744774461E0,-9.556455612E0,-8.080430627E-1
1.836763517E1,1.778293371E0,-9.546878815E0,-8.200140595E-1
1.838782548E1,1.797446966E0,-9.575610161E0,-8.056488633E-1
1.840801610E1,1.751957059E0,-9.585186958E0,-7.841010690E-1
1.842820694E1,1.720832467E0,-9.570821762E0,-7.960720658E-1
1.844840860E1,1.725620866E0,-9.578003883E0,-8.008604646E-1
1.846858610E1,1.744774461E0,-9.594763756E0,-8.032546639E-1
1.848876392E1,1.747168660E0,-9.592369080E0,-8.200140595E-1
1.850894236E1,1.756745458E0,-9.604340553E0,-8.271966577E-1
1.852912173E1,1.732803464E0,-9.594763756E0,-8.271966577E-1
1.854930236E1,1.716044068E0,-9.563638687E0,-8.343793154E-1
1.856948444E1,1.759139657E0,-9.589975357E0,-8.224082589E-1
1.858966808E1,1.780687571E0,-9.618705750E0,-8.032546639E-1
1.860985340E1,1.751957059E0,-9.570821762E0,-8.128314614E-1
1.863004038E1,1.725620866E0,-9.592369080E0,-8.032546639E-1
1.865022892E1,1.694496274E0,-9.609128952E0,-7.817068696E-1
1.867041892E1,1.675342679E0,-9.587580681E0,-7.721300721E-1
1.869061017E1,1.670554280E0,-9.558850288E0,-7.553706169E-1
1.871080246E1,1.725620866E0,-9.573215485E0,-7.386112213E-1
1.873099548E1,1.749562860E0,-9.601945877E0,-7.338228226E-1
1.875118892E1,1.711255670E0,-9.578003883E0,-7.457938194E-1
1.877138256E1,1.689707875E0,-9.525331497E0,-7.912836671E-1
1.879157465E1,1.768716455E0,-9.561244011E0,-8.056488633E-1
1.881176142E1,1.809417963E0,-9.599552155E0,-7.912836671E-1
1.883194277E1,1.742380261E0,-9.563638687E0,-7.793126702E-1
1.885212454E1,1.701678872E0,-9.587580681E0,-8.128314614E-1
1.887230683E1,1.694496274E0,-9.599552155E0,-8.391677141E-1
1.889248986E1,1.711255670E0,-9.611522675E0,-8.343793154E-1
1.891267371E1,1.716044068E0,-9.597157478E0,-8.367735147E-1
1.893285850E1,1.728015065E0,-9.589975357E0,-8.511387110E-1
1.895304423E1,1.759139657E0,-9.558850288E0,-8.511387110E-1
1.897323090E1,1.787870169E0,-9.542090416E0,-8.271966577E-1
1.899341850E1,1.792658567E0,-9.544485092E0,-7.960720658E-1
1.901360694E1,1.768716455E0,-9.556455612E0,-7.984662652E-1
1.903379610E1,1.768716455E0,-9.539696693E0,-8.248024583E-1
1.905398590E1,1.766322255E0,-9.575610161E0,-8.439561129E-1
1.907417621E1,1.735197663E0,-9.630676270E0,-8.391677141E-1
1.909436683E1,1.649006367E0,-9.630676270E0,-7.817068696E-1
1.911455767E1,1.529296279E0,-9.556455612E0,-7.529764175E-1
1.913475933E1,1.541267395E0,-9.530119896E0,-7.888894677E-1
1.915493663E1,1.708861470E0,-9.537302017E0,-8.631097078E-1
1.917511423E1,1.895609140E0,-9.539696693E0,-9.301473498E-1
1.919529256E1,2.008136749E0,-9.556455612E0,-9.349357486E-1
1.921547194E1,1.919551253E0,-9.542090416E0,-8.918401599E-1
1.923565256E1,1.804629564E0,-9.575610161E0,-8.176198602E-1
1.925583465E1,1.742380261E0,-9.613917351E0,-7.649474144E-1
1.927601829E1,1.689707875E0,-9.609128952E0,-8.104372621E-1
1.929620361E1,1.660977483E0,-9.637859344E0,-8.463503122E-1
1.931639058E1,1.668160081E0,-9.666589737E0,-8.295909166E-1
1.933657913E1,1.701678872E0,-9.618705750E0,-8.080430627E-1
1.935676913E1,1.735197663E0,-9.532513618E0,-8.032546639E-1
1.937696038E1,1.728015065E0,-9.539696693E0,-7.912836671E-1
1.939715267E1,1.713649869E0,-9.630676270E0,-7.769184709E-1
1.941734569E1,1.660977483E0,-9.611522675E0,-7.936778665E-1
1.943753913E1,1.658583283E0,-9.573215485E0,-8.319851160E-1
1.945773277E1,1.744774461E0,-9.585186958E0,-8.295909166E-1
1.947792506E1,1.787870169E0,-9.582792282E0,-7.673416734E-1
1.949811194E1,1.706467271E0,-9.558850288E0,-7.290344238E-1
1.951829871E1,1.584362984E0,-9.570821762E0,-7.457938194E-1
1.953848006E1,1.625064373E0,-9.597157478E0,-7.649474144E-1
1.955866183E1,1.728015065E0,-9.594763756E0,-7.577648163E-1
1.957884413E1,1.754351258E0,-9.549273491E0,-7.362170219E-1
1.959902715E1,1.730409265E0,-9.508571625E0,-7.505822182E-1
1.961921100E1,1.766322255E0,-9.513360023E0,-7.888894677E-1
1.963939579E1,1.838148355E0,-9.532513618E0,-8.415619135E-1
1.965958152E1,1.886032343E0,-9.580398560E0,-8.678981066E-1
1.967976819E1,1.814206362E0,-9.589975357E0,-8.774749041E-1
1.969995579E1,1.771110654E0,-9.558850288E0,-8.846575022E-1
1.972014423E1,1.792658567E0,-9.587580681E0,-8.200140595E-1
1.974033340E1,1.795052767E0,-9.606734276E0,-7.673416734E-1
1.976052319E1,1.773504853E0,-9.597157478E0,-7.936778665E-1
1.978071350E1,1.768716455E0,-9.606734276E0,-8.367735147E-1
1.980090413E1,1.749562860E0,-9.613917351E0,-8.607155085E-1
1.982109496E1,1.711255670E0,-9.611522675E0,-8.463503122E-1
1.984129663E1,1.684919477E0,-9.618705750E0,-7.888894677E-1
1.986147381E1,1.706467271E0,-9.580398560E0,-7.170634270E-1
1.988165131E1,1.739986062E0,-9.566033363E0,-6.715735793E-1
1.990182954E1,1.653794765E0,-9.554061890E0,-6.931213737E-1
1.992200881E1,1.569997787E0,-9.570821762E0,-7.170634270E-1
1.994218933E1,1.565209389E0,-9.601945877E0,-7.242460251E-1
1.996237131E1,1.637035370E0,-9.606734276E0,-7.386112213E-1
1.998255486E1,1.744774461E0,-9.554061890E0,-7.649474144E-1
2.000274006E1,1.797446966E0,-9.503783226E0,-7.745242715E-1
2.002292694E1,1.821388960E0,-9.556455612E0,-7.936778665E-1
2.004311538E1,1.799841166E0,-9.611522675E0,-8.439561129E-1
2.006330527E1,1.771110654E0,-9.578003883E0,-8.487445116E-1
2.008349642E1,1.744774461E0,-9.570821762E0,-8.152256608E-1
2.010368861E1,1.728015065E0,-9.652224541E0,-7.912836671E-1
2.012388163E1,1.704073071E0,-9.566033363E0,-8.391677141E-1
2.014407517E1,1.744774461E0,-9.542090416E0,-9.014169574E-1
2.016426892E1,1.866878748E0,-9.597157478E0,-8.870517015E-1
2.018446215E1,1.931522250E0,-9.563638687E0,-8.774749041E-1
2.020464892E1,1.883638144E0,-9.522936821E0,-8.535329103E-1
2.022483027E1,1.751957059E0,-9.570821762E0,-8.008604646E-1
2.024501204E1,1.629852772E0,-9.616311073E0,-7.745242715E-1
2.026519433E1,1.613093376E0,-9.570821762E0,-7.649474144E-1
2.028537736E1,1.627458572E0,-9.599552155E0,-7.505822182E-1
2.030556121E1,1.653794765E0,-9.587580681E0,-7.433996201E-1
2.032574600E1,1.649006367E0,-9.558850288E0,-7.625532150E-1
2.034593173E1,1.596333981E0,-9.594763756E0,-7.290344238E-1
2.036611840E1,1.529296279E0,-9.606734276E0,-7.122750282E-1
2.038630600E1,1.565209389E0,-9.561244011E0,-7.338228226E-1
2.040649444E1,1.632246971E0,-9.556455612E0,-7.074866295E-1
2.042668360E1,1.601122379E0,-9.592369080E0,-6.979097724E-1
2.044687340E1,1.569997787E0,-9.582792282E0,-7.362170219E-1
2.046706371E1,1.622670174E0,-9.597157478E0,-7.721300721E-1
2.048725433E1,1.689707875E0,-9.611522675E0,-7.936778665E-1
2.050744517E1,1.680131078E0,-9.589975357E0,-8.271966577E-1
2.052764683E1,1.658583283E0,-9.566033363E0,-8.415619135E-1
2.054782402E1,1.696890473E0,-9.551667213E0,-8.104372621E-1
2.056800152E1,1.751957059E0,-9.539696693E0,-7.841010690E-1
2.058817975E1,1.778293371E0,-9.534908295E0,-7.984662652E-1
2.060835902E1,1.737591863E0,-9.544485092E0,-8.583213091E-1
2.062853954E1,1.675342679E0,-9.544485092E0,-8.702923059E-1
2.064872152E1,1.637035370E0,-9.623494148E0,-8.224082589E-1
2.066890506E1,1.610699177E0,-9.642647743E0,-7.984662652E-1
2.068909027E1,1.625064373E0,-9.621099472E0,-8.248024583E-1
2.070927715E1,1.653794765E0,-9.597157478E0,-8.343793154E-1
2.072946558E1,1.704073071E0,-9.582792282E0,-8.248024583E-1
2.074965548E1,1.699284673E0,-9.649829865E0,-7.290344238E-1
2.076984663E1,1.689707875E0,-9.563638687E0,-7.936778665E-1
2.079003881E1,1.792658567E0,-9.556455612E0,-8.583213091E-1
2.081023183E1,1.747168660E0,-9.546878815E0,-7.960720658E-1
2.083042538E1,1.713649869E0,-9.501389503E0,-8.152256608E-1
2.085061913E1,1.771110654E0,-9.501389503E0,-7.769184709E-1
2.087081225E1,1.749562860E0,-9.561244011E0,-6.476315856E-1
2.089099892E1,1.658583283E0,-9.546878815E0,-5.446808934E-1
2.091118017E1,1.713649869E0,-9.522936821E0,-4.632780254E-1
2.093136183E1,1.756745458E0,-9.544485092E0,-4.106055796E-1
2.095154413E1,1.833359957E0,-9.587580681E0,-4.441244006E-1
2.097172715E1,1.905186057E0,-9.649829865E0,-4.058171809E-1
2.099191100E1,1.804629564E0,-9.570821762E0,-4.082113802E-1
2.101209579E1,1.713649869E0,-9.513360023E0,-6.212953329E-1
2.103228152E1,1.876455545E0,-9.496601105E0,-7.577648163E-1
2.105246819E1,2.230797529E0,-9.527725220E0,-5.662286878E-1
2.107265579E1,2.434304476E0,-9.575610161E0,-2.118868530E-1
2.109284423E1,2.419939280E0,-9.503783226E0,-5.865794048E-2
2.111303340E1,2.381632090E0,-9.537302017E0,-1.831564307E-1
2.113322319E1,2.331353903E0,-9.642647743E0,-3.914519846E-1
2.115341350E1,2.288258314E0,-9.633070946E0,-5.207388401E-1
2.117360413E1,2.147000313E0,-9.683348656E0,-5.710170865E-1
2.119379496E1,1.967435241E0,-9.678560257E0,-6.715735793E-1
2.121399663E1,1.929128051E0,-9.561244011E0,-8.056488633E-1
2.123417392E1,2.020107746E0,-9.472659111E0,-8.415619135E-1
2.125435152E1,2.257133722E0,-9.546878815E0,-6.619967818E-1
2.127452986E1,2.460640907E0,-9.637859344E0,-3.172317147E-1
2.129470913E1,2.324171305E0,-9.683348656E0,-3.232172132E-2
2.131488965E1,1.950675845E0,-9.623494148E0,-1.975216419E-1
2.133507163E1,1.857301950E0,-9.589975357E0,-5.470750928E-1
2.135525517E1,1.909974456E0,-9.642647743E0,-7.003039718E-1
2.137544038E1,1.840542555E0,-9.573215485E0,-6.452373862E-1
2.139562725E1,1.840542555E0,-9.532513618E0,-5.542576909E-1
2.141581569E1,1.977012038E0,-9.597157478E0,-4.920084476E-1
2.143600558E1,2.072780132E0,-9.578003883E0,-5.303156972E-1
2.145619673E1,2.137423515E0,-9.458293915E0,-6.236895323E-1
2.147638892E1,2.324171305E0,-9.436745644E0,-5.638344884E-1
2.149658183E1,2.407968283E0,-9.510966301E0,-3.339911401E-1
2.151677527E1,2.276287317E0,-9.501389503E0,-2.621650994E-1
2.153696892E1,2.139817715E0,-9.376891136E0,-4.153940082E-1
2.155716204E1,2.192490101E0,-9.376891136E0,-6.212953329E-1
2.157734881E1,2.333748102E0,-9.542090416E0,-7.122750282E-1
2.159753017E1,2.355295897E0,-9.534908295E0,-8.367735147E-1
2.161771194E1,2.348113298E0,-9.498994827E0,-8.966285586E-1
2.163789423E1,2.290652514E0,-9.621099472E0,-8.343793154E-1
2.165807725E1,2.182913303E0,-9.621099472E0,-7.074866295E-1
2.167826110E1,2.199672699E0,-9.779116631E0,-5.853823423E-1
2.169844590E1,2.216432333E0,-9.795876503E0,-3.986345828E-1
2.171863163E1,2.008136749E0,-9.649829865E0,-4.082113802E-1
2.173881829E1,1.687313676E0,-9.479841232E0,-4.896142483E-1
2.175900590E1,1.572391987E0,-9.434351921E0,-6.045359373E-1
2.177919433E1,1.641823769E0,-9.637859344E0,-3.914519846E-1
2.179938350E1,1.203684926E0,-9.747992516E0,-2.214636505E-1
2.181957329E1,3.441664875E-1,-9.671378136E0,-8.439561129E-1
2.183976360E1,-1.514332592E-1,-9.745597839E0,-1.839944005E0
2.185995423E1,3.052607179E-2,-9.757569313E0,-2.263717651E0
2.188014506E1,5.572504401E-1,-9.479841232E0,-2.153584480E0
2.190034673E1,1.043273449E0,-9.343372345E0,-1.974019289E0
2.192052360E1,1.328183413E0,-9.484629631E0,-1.926135302E0
2.194070079E1,1.526902080E0,-9.498994827E0,-1.993172884E0
2.196087871E1,1.534084797E0,-9.386467934E0,-2.064998865E0
2.198105767E1,1.407191992E0,-9.384073257E0,-2.105700493E0
2.200123798E1,1.498171687E0,-9.324218750E0,-2.151190281E0
2.202141986E1,1.936310649E0,-9.223662376E0,-2.045845270E0
2.204160340E1,2.331353903E0,-9.278728485E0,-2.091335297E0
2.206178860E1,2.180519104E0,-9.465476036E0,-2.273294449E0
2.208197548E1,1.687313676E0,-9.587580681E0,-2.517503023E0
2.210216402E1,1.596333981E0,-9.396044731E0,-2.584540844E0
2.212235402E1,1.634641171E0,-9.192537308E0,-2.510320425E0
2.214254538E1,1.514931083E0,-9.247604370E0,-2.457648039E0
2.216273777E1,1.421557307E0,-9.364919662E0,-2.505532026E0
2.218293100E1,1.347337008E0,-9.194931984E0,-2.742558002E0
2.220312475E1,1.309029818E0,-9.068038940E0,-2.826355219E0
2.222331871E1,1.373673201E0,-9.324218750E0,-2.665943623E0
2.224351163E1,1.608304977E0,-9.645041466E0,-2.637213230E0
2.226369840E1,1.625064373E0,-9.513360023E0,-2.596511841E0
2.228387975E1,1.493383288E0,-9.199720383E0,-2.512714624E0
2.230406152E1,1.184531331E0,-9.297882080E0,-2.639607430E0
2.232424381E1,8.134300113E-1,-9.537302017E0,-2.764105797E0
2.234442683E1,4.519055784E-1,-9.827000618E0,-2.867056608E0
2.236461069E1,2.843114436E-1,-1.004487324E1,-3.041833162E0
2.238479548E1,2.867056429E-1,-9.819818497E0,-3.175908566E0
2.240498121E1,7.152677774E-1,-9.357737541E0,-3.065775394E0
2.242516788E1,1.196502328E0,-9.058462143E0,-2.653972626E0
2.244535548E1,1.529296279E0,-8.926780701E0,-2.292448044E0
2.246554392E1,1.713649869E0,-8.876502991E0,-2.141613483E0
2.248573308E1,1.598728180E0,-8.902838707E0,-2.158372879E0
2.250592288E1,1.474229693E0,-9.020154953E0,-2.352303267E0
2.252611319E1,1.517325282E0,-9.211690903E0,-2.572569609E0
2.254630381E1,1.490989089E0,-9.369708061E0,-2.610877037E0
2.256649465E1,1.321000814E0,-9.446322441E0,-2.522291422E0
2.258669631E1,1.127070427E0,-9.484629631E0,-2.409764051E0
2.260687308E1,8.756792545E-1,-9.436745644E0,-2.359485865E0
2.262705017E1,8.421604633E-1,-9.484629631E0,-2.366668463E0
2.264722798E1,8.900445104E-1,-9.530119896E0,-2.467224836E0
2.266740683E1,1.095945835E0,-9.597157478E0,-2.653972626E0
2.268758704E1,1.321000814E0,-9.640253067E0,-2.730587006E0
2.270776881E1,1.318606615E0,-9.573215485E0,-2.584540844E0
2.272795225E1,1.275510907E0,-9.415198326E0,-2.407369852E0
2.274813746E1,1.277905107E0,-9.285911560E0,-2.330755472E0
2.276832444E1,1.251568913E0,-9.190143585E0,-2.361880064E0
2.278851308E1,1.182137132E0,-9.249998093E0,-2.352303267E0
2.280870319E1,1.098340034E0,-9.350554466E0,-2.369062662E0
2.282889465E1,1.206079125E0,-9.266757965E0,-2.323572636E0
2.284908715E1,1.452681899E0,-8.986636162E0,-2.129642487E0
2.286928048E1,1.605910778E0,-8.862137794E0,-1.918952703E0
2.288947433E1,1.488594890E0,-9.048885345E0,-1.995567083E0
2.290966840E1,1.261145711E0,-9.022548676E0,-2.017114878E0
2.292986110E1,1.072003841E0,-9.166201591E0,-1.969230890E0
2.295004777E1,1.057638645E0,-9.551667213E0,-2.122459888E0
2.297022902E1,1.263539910E0,-9.788693428E0,-2.321178436E0
2.299041069E1,1.629852772E0,-9.740809441E0,-2.340332270E0
2.301059298E1,2.015319347E0,-9.551667213E0,-2.155978680E0
2.303077600E1,2.125452518E0,-9.460687637E0,-1.914164305E0
2.305095986E1,1.871667147E0,-9.527725220E0,-1.796848416E0
2.307114465E1,1.526902080E0,-9.738415718E0,-1.863885999E0
2.309133038E1,1.237203717E0,-9.776722908E0,-2.062604666E0
2.311151704E1,1.301847219E0,-9.501389503E0,-2.225410461E0
2.313170465E1,1.713649869E0,-9.317035675E0,-2.076969862E0
2.315189308E1,1.988983035E0,-9.388861656E0,-1.765723705E0
2.317208225E1,1.979406238E0,-9.513360023E0,-1.473631144E0
2.319227204E1,1.807023764E0,-9.578003883E0,-1.181538582E0
2.321246236E1,1.546055794E0,-9.597157478E0,-1.064222693E0
2.323265298E1,1.354519606E0,-9.554061890E0,-1.227028370E0
2.325284381E1,1.366490602E0,-9.542090416E0,-1.502361536E0
2.327304548E1,1.457470298E0,-9.616311073E0,-1.545457244E0
2.329322246E1,1.490989089E0,-9.661801338E0,-1.387439847E0
2.331339975E1,1.455076098E0,-9.604340553E0,-1.167173386E0
2.333357777E1,1.366490602E0,-9.652224541E0,-9.780313969E-1
2.335375683E1,1.383249998E0,-9.654618263E0,-9.205705523E-1
2.337393715E1,1.541267395E0,-9.606734276E0,-9.684545994E-1
2.339411892E1,1.699284673E0,-9.510966301E0,-1.018732786E0
2.341430236E1,1.797446966E0,-9.503783226E0,-9.780313969E-1
2.343448746E1,1.701678872E0,-9.592369080E0,-8.176198602E-1
2.345467423E1,1.517325282E0,-9.580398560E0,-6.955155730E-1
2.347486267E1,1.476623893E0,-9.515754700E0,-6.907271743E-1
2.349505256E1,1.505354285E0,-9.537302017E0,-8.032546639E-1
2.351524381E1,1.526902080E0,-9.568427086E0,-9.277531505E-1
2.353543611E1,1.581968784E0,-9.518148422E0,-9.804255962E-1
2.355562923E1,1.718438268E0,-9.566033363E0,-9.373299479E-1
2.357582288E1,1.756745458E0,-9.678560257E0,-8.774749041E-1
2.359601673E1,1.684919477E0,-9.676166534E0,-8.846575022E-1
2.361621038E1,1.644217968E0,-9.640253067E0,-9.325415492E-1
2.363639704E1,1.677736878E0,-9.628282547E0,-9.660604000E-1
2.365657829E1,1.728015065E0,-9.635464668E0,-9.373299479E-1
2.367675996E1,1.725620866E0,-9.640253067E0,-9.109937549E-1
2.369694225E1,1.718438268E0,-9.625887871E0,-9.014169574E-1
2.371712527E1,1.735197663E0,-9.604340553E0,-9.277531505E-1
2.373730913E1,1.768716455E0,-9.597157478E0,-9.660604000E-1
2.375749392E1,1.807023764E0,-9.551667213E0,-9.780313969E-1
2.377767965E1,1.842936754E0,-9.460687637E0,-9.397241473E-1
2.379786631E1,1.874061346E0,-9.475052834E0,-8.463503122E-1
2.381805392E1,1.931522250E0,-9.618705750E0,-8.415619135E-1
2.383824236E1,1.924339652E0,-9.589975357E0,-9.014169574E-1
2.385843152E1,1.838148355E0,-9.563638687E0,-9.205705523E-1
2.387862131E1,1.728015065E0,-9.623494148E0,-8.535329103E-1
2.389881163E1,1.684919477E0,-9.580398560E0,-8.128314614E-1
2.391900225E1,1.766322255E0,-9.539696693E0,-8.415619135E-1
2.393919308E1,1.830965757E0,-9.566033363E0,-8.894459605E-1
2.395939475E1,1.850119352E0,-9.549273491E0,-9.205705523E-1
2.397957163E1,1.866878748E0,-9.520543098E0,-9.038111567E-1
2.399974881E1,1.847725153E0,-9.558850288E0,-8.655039072E-1
2.401992673E1,1.809417963E0,-9.501389503E0,-8.511387110E-1
2.404010569E1,1.761533856E0,-9.510966301E0,-8.583213091E-1
2.406028600E1,1.711255670E0,-9.573215485E0,-8.439561129E-1
2.408046788E1,1.665765882E0,-9.601945877E0,-8.080430627E-1
2.410065142E1,1.615487576E0,-9.623494148E0,-8.295909166E-1
2.412083663E1,1.605910778E0,-9.618705750E0,-8.942343593E-1
2.414102350E1,1.682525277E0,-9.613917351E0,-1.001973391E0
2.416121204E1,1.811812162E0,-9.575610161E0,-1.073799491E0
2.418140204E1,1.955464244E0,-9.544485092E0,-1.030703783E0
2.420159329E1,1.938704848E0,-9.585186958E0,-9.325415492E-1
2.422178558E1,1.876455545E0,-9.527725220E0,-9.564836025E-1
2.424197871E1,1.859696150E0,-9.487024307E0,-9.876081944E-1
2.426217236E1,1.818994761E0,-9.606734276E0,-9.780313969E-1
2.428236621E1,1.759139657E0,-9.601945877E0,-1.047463298E0
2.430255954E1,1.797446966E0,-9.510966301E0,-1.078587890E0
2.432274621E1,1.826177359E0,-9.498994827E0,-1.006761789E0
2.434292746E1,1.828571558E0,-9.510966301E0,-9.828197956E-1
2.436310913E1,1.828571558E0,-9.503783226E0,-1.016338587E0
2.438329142E1,1.842936754E0,-9.556455612E0,-1.047463298E0
2.440347444E1,1.912368655E0,-9.592369080E0,-1.071405292E0
2.442365829E1,1.938704848E0,-9.575610161E0,-1.064222693E0
2.444384308E1,1.862090349E0,-9.534908295E0,-1.025915384E0
2.446402881E1,1.835754156E0,-9.515754700E0,-9.971849918E-1
2.448421548E1,1.797446966E0,-9.546878815E0,-9.564836025E-1
2.450440308E1,1.826177359E0,-9.556455612E0,-9.708487988E-1
2.452459152E1,1.933916450E0,-9.556455612E0,-1.037886381E0
2.454478069E1,2.051232338E0,-9.613917351E0,-1.028309584E0
2.456497048E1,2.036867142E0,-9.613917351E0,-9.038111567E-1
2.458516079E1,1.943493247E0,-9.666589737E0,-7.529764175E-1
2.460535142E1,1.744774461E0,-9.623494148E0,-6.979097724E-1
2.462554225E1,1.452681899E0,-9.429563522E0,-7.433996201E-1
2.464574392E1,1.373673201E0,-9.525331497E0,-8.248024583E-1
2.466592079E1,1.512536883E0,-9.611522675E0,-8.678981066E-1
2.468609798E1,1.610699177E0,-9.671378136E0,-8.750807047E-1
2.470627590E1,1.591545582E0,-9.728838921E0,-9.349357486E-1
2.472645486E1,1.704073071E0,-9.673771858E0,-1.016338587E0
2.474663517E1,1.890820742E0,-9.530119896E0,-1.054645896E0
2.476681694E1,1.972223639E0,-9.463082314E0,-1.018732786E0
2.478700038E1,1.981800437E0,-9.467870712E0,-9.157821536E-1
2.480718548E1,1.972223639E0,-9.393650055E0,-7.984662652E-1
2.482737225E1,2.056020737E0,-9.340977669E0,-7.481880188E-1
2.484756069E1,2.156577110E0,-9.240421295E0,-7.912836671E-1
2.486775069E1,2.197278500E0,-9.271546364E0,-9.014169574E-1
2.488794204E1,2.156577110E0,-9.405621529E0,-1.059434295E0
2.490813444E1,2.120664120E0,-9.570821762E0,-1.198297977E0
2.492832767E1,2.135029316E0,-9.594763756E0,-1.260547161E0
2.494852142E1,2.094327927E0,-9.582792282E0,-1.167173386E0
2.496871538E1,1.914762855E0,-9.633070946E0,-1.021126986E0
2.498890861E1,1.694496274E0,-9.654618263E0,-9.732429981E-1
2.500909527E1,1.596333981E0,-9.690531731E0,-9.636662006E-1
2.502927652E1,1.553238392E0,-9.666589737E0,-9.397241473E-1
2.504945819E1,1.581968784E0,-9.556455612E0,-9.971849918E-1
2.506964048E1,1.723226666E0,-9.525331497E0,-1.078587890E0
2.508982350E1,1.864484549E0,-9.561244011E0,-1.042674899E0
2.511000736E1,1.907580256E0,-9.513360023E0,-9.660604000E-1
2.513019215E1,1.902791858E0,-9.489418030E0,-9.397241473E-1
2.515037788E1,1.933916450E0,-9.501389503E0,-9.445125461E-1
2.517056454E1,1.936310649E0,-9.561244011E0,-9.229647517E-1
2.519075215E1,1.799841166E0,-9.597157478E0,-8.750807047E-1
2.521094058E1,1.660977483E0,-9.568427086E0,-8.487445116E-1
2.523112975E1,1.644217968E0,-9.539696693E0,-8.798691034E-1
2.525131954E1,1.696890473E0,-9.616311073E0,-9.014169574E-1
2.527150986E1,1.665765882E0,-9.623494148E0,-8.798691034E-1
2.529170048E1,1.632246971E0,-9.573215485E0,-8.391677141E-1
2.531189131E1,1.634641171E0,-9.554061890E0,-8.032546639E-1
2.533209298E1,1.706467271E0,-9.482235909E0,-8.128314614E-1
2.535226986E1,1.902791858E0,-9.453505516E0,-8.583213091E-1
2.537244704E1,2.058414936E0,-9.424775124E0,-9.038111567E-1
2.539262496E1,2.032078743E0,-9.458293915E0,-9.157821536E-1
2.541280392E1,1.874061346E0,-9.532513618E0,-9.564836025E-1
2.543298423E1,1.737591863E0,-9.613917351E0,-1.028309584E0
2.545316600E1,1.763928056E0,-9.592369080E0,-1.095347285E0
2.547334944E1,1.917157054E0,-9.609128952E0,-1.109712481E0
2.549353454E1,1.960252643E0,-9.664195061E0,-1.097741485E0
2.551372131E1,1.783081770E0,-9.659406662E0,-1.033097982E0
2.553390975E1,1.682525277E0,-9.566033363E0,-9.588778019E-1
2.555409965E1,1.780687571E0,-9.508571625E0,-9.253589511E-1
2.557429090E1,1.864484549E0,-9.568427086E0,-9.564836025E-1
2.559448319E1,1.850119352E0,-9.539696693E0,-9.900023937E-1
2.561467631E1,1.871667147E0,-9.487024307E0,-9.756371975E-1
2.563486996E1,1.900397658E0,-9.477447510E0,-9.253589511E-1
2.565506381E1,1.845330954E0,-9.532513618E0,-8.583213091E-1
2.567525756E1,1.708861470E0,-9.589975357E0,-8.319851160E-1
2.569544423E1,1.603516579E0,-9.558850288E0,-8.774749041E-1
2.571562548E1,1.663371682E0,-9.518148422E0,-9.493009448E-1
2.573580715E1,1.835754156E0,-9.503783226E0,-1.004367590E0
2.575598944E1,2.015319347E0,-9.539696693E0,-1.057040095E0
2.577617246E1,2.077568531E0,-9.546878815E0,-1.097741485E0
2.579635631E1,1.965041041E0,-9.558850288E0,-1.047463298E0
2.581654111E1,1.751957059E0,-9.575610161E0,-9.445125461E-1
2.583672683E1,1.634641171E0,-9.496601105E0,-9.229647517E-1
2.585691350E1,1.735197663E0,-9.463082314E0,-1.006761789E0
2.587710110E1,1.972223639E0,-9.568427086E0,-1.112106681E0
2.589728954E1,1.960252643E0,-9.570821762E0,-1.112106681E0
2.591747871E1,1.799841166E0,-9.563638687E0,-1.054645896E0
2.593766850E1,1.701678872E0,-9.642647743E0,-1.047463298E0
2.595785881E1,1.711255670E0,-9.700108528E0,-1.078587890E0
2.597804944E1,1.747168660E0,-9.690531731E0,-1.061828494E0
2.599824017E1,1.718438268E0,-9.654618263E0,-9.900023937E-1
2.601844173E1,1.649006367E0,-9.704896927E0,-8.678981066E-1
2.603861860E1,1.574786186E0,-9.654618263E0,-7.888894677E-1
2.605879579E1,1.579574585E0,-9.482235909E0,-7.242460251E-1
2.607897371E1,1.728015065E0,-9.352949142E0,-6.428431273E-1
2.609915267E1,1.986588836E0,-9.300276756E0,-6.165069342E-1
2.611933298E1,2.257133722E0,-9.305065155E0,-6.739677787E-1
2.613951475E1,2.302623510E0,-9.379284859E0,-8.032546639E-1
2.615969819E1,2.079962730E0,-9.441534042E0,-9.516952038E-1
2.617988329E1,1.857301950E0,-9.513360023E0,-1.028309584E0
2.620007006E1,1.687313676E0,-9.628282547E0,-9.804255962E-1
2.622025850E1,1.538873196E0,-9.702502251E0,-8.990227580E-1
2.624044840E1,1.380855799E0,-9.683348656E0,-9.133879542E-1
2.626063965E1,1.249174714E0,-9.721655846E0,-9.612720013E-1
2.628083194E1,1.222838521E0,-9.755174637E0,-1.025915384E0
2.630102506E1,1.426345706E0,-9.738415718E0,-1.045069098E0
2.632121871E1,1.833359957E0,-9.635464668E0,-1.040280581E0
2.634141256E1,2.199672699E0,-9.518148422E0,-9.660604000E-1
2.636160631E1,2.218826532E0,-9.470264435E0,-8.463503122E-1
2.638179298E1,2.000954151E0,-9.448717117E0,-7.936778665E-1
2.640197423E1,1.835754156E0,-9.489418030E0,-8.248024583E-1
2.642215590E1,1.792658567E0,-9.546878815E0,-9.109937549E-1
2.644233819E1,1.761533856E0,-9.544485092E0,-9.876081944E-1
2.646252121E1,1.847725153E0,-9.494206429E0,-1.001973391E0
2.648270506E1,1.988983035E0,-9.496601105E0,-9.469067454E-1
2.650288986E1,2.027290344E0,-9.530119896E0,-8.846575022E-1
2.652307558E1,1.960252643E0,-9.561244011E0,-9.038111567E-1
2.654326225E1,1.771110654E0,-9.621099472E0,-9.995791912E-1
2.656344986E1,1.569997787E0,-9.661801338E0,-1.090558887E0
2.658363829E1,1.455076098E0,-9.659406662E0,-1.126471877E0
2.660382746E1,1.584362984E0,-9.604340553E0,-1.133654475E0
2.662401725E1,1.761533856E0,-9.573215485E0,-1.073799491E0
2.664420756E1,1.775899053E0,-9.561244011E0,-1.011550188E0
2.666439819E1,1.725620866E0,-9.561244011E0,-1.023521185E0
2.668442225E1,1.670554280E0,-9.585186958E0,-1.042674899E0
2.670445965E1,1.756745458E0,-9.446322441E0,-1.136048675E0
2.672451579E1,2.008136749E0,-9.381679535E0,-1.169567585E0
2.674459517E1,2.070385933E0,-9.482235909E0,-1.167173386E0
2.676470116E1,2.003348351E0,-9.408015251E0,-1.217451572E0
2.678483595E1,1.912368655E0,-9.333795547E0,-1.234210968E0
2.680500043E1,1.914762855E0,-9.441534042E0,-9.804255962E-1
2.682519428E1,1.938704848E0,-9.666589737E0,-7.146692276E-1
2.684541605E1,1.857301950E0,-9.836577415E0,-5.901707411E-1
2.686566324E1,1.754351258E0,-9.678560257E0,-8.032546639E-1
2.688593241E1,1.768716455E0,-9.396044731E0,-1.128866076E0
2.690621933E1,2.036867142E0,-9.417592049E0,-1.274912357E0
2.692651933E1,2.249951124E0,-9.396044731E0,-1.219845772E0
2.694682736E1,2.261922121E0,-9.364919662E0,-1.069011092E0
2.696713824E1,2.101510525E0,-9.429563522E0,-9.971849918E-1
2.698739095E1,1.902791858E0,-9.496601105E0,-1.057040095E0
2.700758152E1,1.814206362E0,-9.587580681E0,-1.193509579E0
2.702776824E1,1.735197663E0,-9.628282547E0,-1.188721180E0
2.704796032E1,1.625064373E0,-9.716867447E0,-1.061828494E0
2.706814704E1,1.660977483E0,-9.692925453E0,-1.021126986E0
2.708832319E1,1.931522250E0,-9.522936821E0,-9.756371975E-1
2.710849991E1,2.060809135E0,-9.496601105E0,-8.176198602E-1
2.712867756E1,1.965041041E0,-9.551667213E0,-7.122750282E-1
2.714885652E1,1.713649869E0,-9.491812706E0,-7.457938194E-1
2.716903704E1,1.605910778E0,-9.537302017E0,-8.248024583E-1
2.718921928E1,1.651400566E0,-9.594763756E0,-8.870517015E-1
2.720940334E1,1.732803464E0,-9.534908295E0,-9.636662006E-1
2.722958928E1,1.840542555E0,-9.496601105E0,-9.636662006E-1
2.724977704E1,1.883638144E0,-9.561244011E0,-8.870517015E-1
2.726996652E1,1.747168660E0,-9.601945877E0,-8.271966577E-1
2.729015756E1,1.605910778E0,-9.573215485E0,-8.439561129E-1
2.731034991E1,1.665765882E0,-9.582792282E0,-9.038111567E-1
2.733054324E1,1.871667147E0,-9.659406662E0,-9.181763530E-1
2.735073725E1,1.828571558E0,-9.654618263E0,-9.253589511E-1
2.737093163E1,1.711255670E0,-9.575610161E0,-9.469067454E-1
2.739112574E1,1.787870169E0,-9.551667213E0,-9.277531505E-1
2.741131600E1,1.890820742E0,-9.518148422E0,-8.870517015E-1
2.743150272E1,1.881243944E0,-9.563638687E0,-8.918401599E-1
2.745168668E1,1.833359957E0,-9.621099472E0,-9.301473498E-1
2.747186814E1,1.814206362E0,-9.597157478E0,-9.205705523E-1
2.749205012E1,1.814206362E0,-9.508571625E0,-8.846575022E-1
2.751223277E1,1.749562860E0,-9.558850288E0,-7.912836671E-1
2.753241621E1,1.620275974E0,-9.568427086E0,-7.649474144E-1
2.755260053E1,1.637035370E0,-9.537302017E0,-8.152256608E-1
2.757278579E1,1.732803464E0,-9.561244011E0,-8.774749041E-1
2.759297199E1,1.883638144E0,-9.482235909E0,-9.684545994E-1
2.761315913E1,2.036867142E0,-9.441534042E0,-9.923965931E-1
2.763334715E1,2.072780132E0,-9.525331497E0,-9.708487988E-1
2.765353595E1,2.022501945E0,-9.534908295E0,-9.612720013E-1
2.767372543E1,1.890820742E0,-9.539696693E0,-9.852139950E-1
2.769391548E1,1.821388960E0,-9.566033363E0,-1.023521185E0
2.771410595E1,1.802235365E0,-9.589975357E0,-1.052251697E0
2.773429663E1,1.888426542E0,-9.587580681E0,-1.054645896E0
2.775449277E1,1.936310649E0,-9.566033363E0,-9.636662006E-1
2.777468194E1,1.893214941E0,-9.556455612E0,-9.421183467E-1
2.779485887E1,1.898003340E0,-9.518148422E0,-1.009155989E0
2.781503631E1,1.914762855E0,-9.467870712E0,-1.047463298E0
2.783521465E1,1.962646842E0,-9.539696693E0,-9.852139950E-1
2.785539418E1,1.974617839E0,-9.542090416E0,-8.918401599E-1
2.787557517E1,1.883638144E0,-9.520543098E0,-8.894459605E-1
2.789575777E1,1.799841166E0,-9.479841232E0,-9.038111567E-1
2.791594209E1,1.759139657E0,-9.542090416E0,-9.014169574E-1
2.793612814E1,1.737591863E0,-9.575610161E0,-9.349357486E-1
2.795631584E1,1.840542555E0,-9.525331497E0,-9.900023937E-1
2.797650512E1,2.005742550E0,-9.549273491E0,-1.016338587E0
2.799669579E1,2.036867142E0,-9.513360023E0,-9.756371975E-1
2.801688767E1,1.919551253E0,-9.554061890E0,-9.229647517E-1
2.803708048E1,1.840542555E0,-9.554061890E0,-9.157821536E-1
2.805727397E1,1.814206362E0,-9.556455612E0,-9.038111567E-1
2.807746782E1,1.785475969E0,-9.537302017E0,-9.636662006E-1
2.809766131E1,1.838148355E0,-9.472659111E0,-1.004367590E0
2.811785121E1,1.869272947E0,-9.510966301E0,-9.660604000E-1
2.813803793E1,1.883638144E0,-9.604340553E0,-9.301473498E-1
2.815822189E1,1.883638144E0,-9.518148422E0,-9.804255962E-1
2.817840334E1,1.921945453E0,-9.496601105E0,-1.004367590E0
2.819858532E1,1.938704848E0,-9.566033363E0,-1.006761789E0
2.821876798E1,1.924339652E0,-9.522936821E0,-9.876081944E-1
2.823895142E1,1.864484549E0,-9.501389503E0,-9.660604000E-1
2.825913574E1,1.821388960E0,-9.518148422E0,-9.756371975E-1
2.827932100E1,1.835754156E0,-9.482235909E0,-1.047463298E0
2.829950720E1,1.907580256E0,-9.475052834E0,-1.107318282E0
2.831969433E1,1.984194636E0,-9.534908295E0,-1.071405292E0
2.833988236E1,2.015319347E0,-9.561244011E0,-1.030703783E0
2.836007116E1,1.967435241E0,-9.501389503E0,-1.071405292E0
2.838026064E1,1.953070045E0,-9.484629631E0,-1.100135684E0
2.840045069E1,1.893214941E0,-9.527725220E0,-1.066616893E0
2.842064116E1,1.893214941E0,-9.566033363E0,-1.104924083E0
2.844083183E1,2.015319347E0,-9.515754700E0,-1.195903778E0
2.846102798E1,2.123058319E0,-9.513360023E0,-1.183932781E0
2.848121715E1,2.046443939E0,-9.546878815E0,-1.121683478E0
2.850139407E1,1.912368655E0,-9.522936821E0,-1.085770488E0
2.852157152E1,1.881243944E0,-9.549273491E0,-1.049857497E0
2.854174986E1,1.979406238E0,-9.558850288E0,-1.059434295E0
2.856192939E1,2.087145329E0,-9.463082314E0,-1.114500880E0
2.858211038E1,2.065597534E0,-9.467870712E0,-1.085770488E0
2.860229298E1,1.941099048E0,-9.467870712E0,-9.876081944E-1
2.862247730E1,1.857301950E0,-9.455899239E0,-9.205705523E-1
2.864266334E1,1.895609140E0,-9.520543098E0,-9.085995555E-1
2.866285105E1,1.991377234E0,-9.467870712E0,-9.876081944E-1
2.868304032E1,2.132635117E0,-9.494206429E0,-1.069011092E0
2.870323100E1,2.168548107E0,-9.465476036E0,-1.061828494E0
2.872342288E1,2.096722126E0,-9.422380447E0,-1.004367590E0
2.874361569E1,2.010530949E0,-9.487024307E0,-9.133879542E-1
2.876380918E1,1.857301950E0,-9.556455612E0,-9.277531505E-1
2.878400303E1,1.658583283E0,-9.613917351E0,-1.018732786E0
2.880419647E1,1.584362984E0,-9.690531731E0,-1.188721180E0
2.882438631E1,1.850119352E0,-9.704896927E0,-1.229422569E0
2.884457038E1,2.125452518E0,-9.647436142E0,-1.109712481E0
2.886475194E1,2.115875721E0,-9.494206429E0,-9.995791912E-1
2.888493397E1,1.883638144E0,-9.367314339E0,-9.157821536E-1
2.890511663E1,1.684919477E0,-9.367314339E0,-7.721300721E-1
2.892530006E1,1.687313676E0,-9.470264435E0,-5.279214978E-1
2.894548439E1,1.732803464E0,-9.551667213E0,-3.507505357E-1
2.896566965E1,1.771110654E0,-9.616311073E0,-2.406172752E-1
2.898585584E1,1.737591863E0,-9.613917351E0,-2.597708702E-1
2.900604298E1,1.632246971E0,-9.544485092E0,-5.662286878E-1
2.902623100E1,1.565209389E0,-9.520543098E0,-1.109712481E0
2.904641980E1,1.634641171E0,-9.549273491E0,-1.590947032E0
2.906660928E1,1.898003340E0,-9.609128952E0,-1.686715126E0
2.908679933E1,2.149394512E0,-9.546878815E0,-1.473631144E0
2.910698980E1,2.281075716E0,-9.568427086E0,-1.128866076E0
2.912718048E1,2.230797529E0,-9.668983459E0,-7.984662652E-1
2.914737663E1,1.996165633E0,-9.582792282E0,-7.505822182E-1
2.916756564E1,1.807023764E0,-9.496601105E0,-8.248024583E-1
2.918774225E1,1.778293371E0,-9.549273491E0,-8.224082589E-1
2.920791939E1,1.759139657E0,-9.525331497E0,-8.798691034E-1
2.922809741E1,1.680131078E0,-9.503783226E0,-9.780313969E-1
2.924827663E1,1.672948480E0,-9.515754700E0,-1.066616893E0
2.926845730E1,1.850119352E0,-9.510966301E0,-1.121683478E0
2.928863965E1,2.036867142E0,-9.506177902E0,-1.124077678E0
2.930882376E1,2.135029316E0,-9.479841232E0,-1.131260276E0
2.932900965E1,2.168548107E0,-9.506177902E0,-1.037886381E0
2.934919730E1,2.020107746E0,-9.568427086E0,-8.846575022E-1
2.936938663E1,1.809417963E0,-9.616311073E0,-8.128314614E-1
2.938957741E1,1.701678872E0,-9.609128952E0,-9.062053561E-1
2.940976944E1,1.807023764E0,-9.645041466E0,-1.049857497E0
2.942996246E1,2.003348351E0,-9.544485092E0,-1.116895080E0
2.945015616E1,1.991377234E0,-9.374496460E0,-1.013944387E0
2.947035022E1,1.953070045E0,-9.427168846E0,-8.966285586E-1
2.949054433E1,1.919551253E0,-9.551667213E0,-9.325415492E-1
2.951073470E1,1.811812162E0,-9.589975357E0,-1.045069098E0
2.953091866E1,1.763928056E0,-9.645041466E0,-1.025915384E0
2.955110012E1,1.713649869E0,-9.556455612E0,-9.253589511E-1
2.957128209E1,1.699284673E0,-9.515754700E0,-8.415619135E-1
2.959146475E1,1.799841166E0,-9.532513618E0,-8.176198602E-1
2.961164819E1,1.905186057E0,-9.544485092E0,-8.607155085E-1
2.963183251E1,1.919551253E0,-9.525331497E0,-9.564836025E-1
2.965201777E1,1.895609140E0,-9.458293915E0,-1.001973391E0
2.967220397E1,1.886032343E0,-9.455899239E0,-9.708487988E-1
2.969239111E1,1.929128051E0,-9.484629631E0,-9.253589511E-1
2.971257913E1,1.948281646E0,-9.503783226E0,-9.421183467E-1
2.973276793E1,1.886032343E0,-9.534908295E0,-1.018732786E0
2.975295741E1,1.854907751E0,-9.510966301E0,-1.080982089E0
2.977314746E1,1.912368655E0,-9.609128952E0,-1.045069098E0
2.979333793E1,1.936310649E0,-9.692925453E0,-1.033097982E0
2.981352861E1,1.950675845E0,-9.587580681E0,-1.006761789E0
2.983372475E1,1.974617839E0,-9.527725220E0,-9.708487988E-1
2.985391387E1,1.996165633E0,-9.494206429E0,-9.995791912E-1
2.987409069E1,1.933916450E0,-9.503783226E0,-1.042674899E0
2.989426803E1,1.914762855E0,-9.537302017E0,-1.057040095E0
2.991444626E1,1.948281646E0,-9.573215485E0,-1.028309584E0
2.993462569E1,1.895609140E0,-9.549273491E0,-9.995791912E-1
2.995480657E1,1.795052767E0,-9.496601105E0,-9.852139950E-1
2.997498907E1,1.804629564E0,-9.479841232E0,-9.900023937E-1
2.999517291E1,1.857301950E0,-9.530119896E0,-9.540894032E-1
3.001535827E1,1.854907751E0,-9.518148422E0,-9.205705523E-1
3.003554598E1,1.886032343E0,-9.491812706E0,-9.253589511E-1
3.005573530E1,1.941099048E0,-9.522936821E0,-9.684545994E-1
3.007592608E1,1.936310649E0,-9.566033363E0,-9.804255962E-1
3.009611806E1,1.890820742E0,-9.575610161E0,-9.900023937E-1
3.011631098E1,1.909974456E0,-9.520543098E0,-9.971849918E-1
3.013650457E1,1.965041041E0,-9.484629631E0,-9.469067454E-1
3.015669853E1,1.986588836E0,-9.475052834E0,-9.062053561E-1
3.017689212E1,1.929128051E0,-9.470264435E0,-9.445125461E-1
3.019708202E1,1.871667147E0,-9.513360023E0,-9.564836025E-1
3.021726598E1,1.835754156E0,-9.611522675E0,-9.301473498E-1
3.023744744E1,1.816600561E0,-9.546878815E0,-9.349357486E-1
3.025762936E1,1.804629564E0,-9.508571625E0,-9.062053561E-1
3.027781192E1,1.766322255E0,-9.578003883E0,-8.894459605E-1
3.029799525E1,1.720832467E0,-9.551667213E0,-9.516952038E-1
3.031817947E1,1.687313676E0,-9.501389503E0,-1.013944387E0
3.033836462E1,1.826177359E0,-9.515754700E0,-1.047463298E0
3.035855077E1,1.981800437E0,-9.566033363E0,-1.078587890E0
3.037873790E1,2.015319347E0,-9.520543098E0,-1.126471877E0
3.039892593E1,2.005742550E0,-9.451110840E0,-1.140837073E0
3.041911473E1,1.945887446E0,-9.501389503E0,-1.097741485E0
3.043930421E1,1.888426542E0,-9.546878815E0,-1.080982089E0
3.045949426E1,1.852513552E0,-9.597157478E0,-1.088164687E0
3.047968473E1,1.826177359E0,-9.637859344E0,-1.131260276E0
3.049987546E1,1.783081770E0,-9.609128952E0,-1.217451572E0
3.052007171E1,1.763928056E0,-9.544485092E0,-1.346738458E0
3.054026098E1,1.859696150E0,-9.518148422E0,-1.308431268E0
3.056043801E1,1.991377234E0,-9.570821762E0,-1.222239971E0
3.058061556E1,2.015319347E0,-9.659406662E0,-1.272518158E0
3.060079400E1,1.960252643E0,-9.625887871E0,-1.322796464E0
3.062097364E1,1.965041041E0,-9.563638687E0,-1.272518158E0
3.064115468E1,1.898003340E0,-9.537302017E0,-1.205480576E0
3.066133728E1,1.751957059E0,-9.561244011E0,-1.425747156E0
3.068152155E1,1.747168660E0,-9.633070946E0,-1.490390539E0
3.070170749E1,1.747168660E0,-9.597157478E0,-1.222239971E0
3.072189509E1,1.653794765E0,-9.530119896E0,-1.157596469E0
3.074208426E1,1.718438268E0,-9.463082314E0,-1.212663174E0
3.076227483E1,1.716044068E0,-9.319430351E0,-9.732429981E-1
3.078246660E1,1.749562860E0,-9.209297180E0,-7.912836671E-1
3.080265931E1,1.979406238E0,-9.314641953E0,-8.631097078E-1
3.082285270E1,2.039261341E0,-9.381679535E0,-1.143231273E0
3.084304645E1,1.751957059E0,-9.429563522E0,-1.361103654E0
3.086324009E1,1.354519606E0,-9.482235909E0,-1.332373261E0
3.088343020E1,1.493383288E0,-9.487024307E0,-1.097741485E0
3.090361692E1,1.840542555E0,-9.487024307E0,-1.155202270E0
3.092380087E1,1.924339652E0,-9.539696693E0,-1.392228246E0
3.094398233E1,1.907580256E0,-9.549273491E0,-1.492784739E0
3.096416426E1,1.938704848E0,-9.532513618E0,-1.464054346E0
3.098434681E1,1.972223639E0,-9.589975357E0,-1.353921056E0
3.100453014E1,1.907580256E0,-9.599552155E0,-1.413776159E0
3.102471436E1,1.895609140E0,-9.554061890E0,-1.497573137E0
3.104489952E1,1.890820742E0,-9.532513618E0,-1.380257249E0
3.106508561E1,1.811812162E0,-9.522936821E0,-1.250970364E0
3.108527265E1,1.888426542E0,-9.443928719E0,-1.246181965E0
3.110546061E1,1.933916450E0,-9.472659111E0,-1.265335560E0
3.112564947E1,1.826177359E0,-9.532513618E0,-1.310825467E0
3.114583905E1,1.718438268E0,-9.549273491E0,-1.289277673E0
3.116602921E1,1.711255670E0,-9.546878815E0,-1.191115379E0
3.118621978E1,1.737591863E0,-9.527725220E0,-1.176750183E0
3.120641056E1,1.780687571E0,-9.542090416E0,-1.282094955E0
3.122660681E1,1.773504853E0,-9.532513618E0,-1.315613866E0
3.124679598E1,1.809417963E0,-9.487024307E0,-1.227028370E0
3.126697280E1,1.900397658E0,-9.487024307E0,-1.183932781E0
3.128715015E1,1.881243944E0,-9.470264435E0,-1.253364563E0
3.130732837E1,1.859696150E0,-9.463082314E0,-1.286883354E0
3.132750780E1,1.773504853E0,-9.542090416E0,-1.219845772E0
3.134768869E1,1.718438268E0,-9.537302017E0,-1.215057373E0
3.136787119E1,1.816600561E0,-9.443928719E0,-1.315613866E0
3.138805541E1,1.941099048E0,-9.436745644E0,-1.286883354E0
3.140824140E1,1.929128051E0,-9.496601105E0,-1.215057373E0
3.142842910E1,1.862090349E0,-9.491812706E0,-1.227028370E0
3.144861843E1,1.816600561E0,-9.539696693E0,-1.353921056E0
3.146880921E1,1.850119352E0,-9.525331497E0,-1.432929754E0
3.148900119E1,1.972223639E0,-9.446322441E0,-1.411381960E0
3.150919410E1,2.063203335E0,-9.491812706E0,-1.329979062E0
3.152938770E1,1.986588836E0,-9.460687637E0,-1.344344258E0
3.154958166E1,1.902791858E0,-9.446322441E0,-1.356315255E0
3.156977520E1,1.907580256E0,-9.506177902E0,-1.308431268E0
3.158996504E1,1.893214941E0,-9.525331497E0,-1.320402265E0
3.161014900E1,1.869272947E0,-9.515754700E0,-1.325190663E0
3.163033046E1,1.845330954E0,-9.498994827E0,-1.246181965E0
3.165051239E1,1.840542555E0,-9.498994827E0,-1.174355984E0
3.167069494E1,1.847725153E0,-9.513360023E0,-1.114500880E0
3.169087827E1,1.878849745E0,-9.482235909E0,-1.037886381E0
3.171106249E1,1.852513552E0,-9.460687637E0,-8.750807047E-1
3.173124765E1,1.780687571E0,-9.460687637E0,-7.529764175E-1
3.175143374E1,1.639429569E0,-9.580398560E0,-9.540894032E-1
3.177162077E1,1.524507880E0,-9.764751434E0,-1.727416515E0
3.179180874E1,1.622670174E0,-9.752780914E0,-2.062604666E0
3.181199754E1,1.830965757E0,-9.592369080E0,-1.351526856E0
3.183218702E1,1.929128051E0,-9.396044731E0,-6.165069342E-1
3.185237707E1,1.948281646E0,-9.331400871E0,-4.608838260E-1
3.187256754E1,1.917157054E0,-9.513360023E0,-1.025915384E0
3.189275827E1,1.802235365E0,-9.695320129E0,-1.605312228E0
3.191295452E1,1.694496274E0,-9.503783226E0,-1.514332533E0
3.193314390E1,1.826177359E0,-9.446322441E0,-9.445125461E-1
3.195332114E1,1.754351258E0,-9.532513618E0,-5.997475386E-1
3.197349890E1,1.660977483E0,-9.544485092E0,-7.649474144E-1
3.199367754E1,1.751957059E0,-9.549273491E0,-1.183932781E0
3.201385733E1,1.914762855E0,-9.578003883E0,-1.442506552E0
3.203403848E1,2.044049740E0,-9.585186958E0,-1.365892053E0
3.205422114E1,2.000954151E0,-9.475052834E0,-1.102529883E0
3.207440540E1,1.852513552E0,-9.460687637E0,-9.421183467E-1
3.209459134E1,1.842936754E0,-9.563638687E0,-1.028309584E0
3.211477890E1,1.852513552E0,-9.604340553E0,-1.157596469E0
3.213496796E1,1.862090349E0,-9.484629631E0,-1.200692177E0
3.215515837E1,1.919551253E0,-9.520543098E0,-1.136048675E0
3.217534994E1,1.886032343E0,-9.570821762E0,-1.016338587E0
3.219554244E1,1.790264368E0,-9.561244011E0,-1.021126986E0
3.221573561E1,1.785475969E0,-9.539696693E0,-1.104924083E0
3.223592916E1,1.859696150E0,-9.558850288E0,-1.133654475E0
3.225612009E1,1.881243944E0,-9.539696693E0,-1.119289279E0
3.227630837E1,1.862090349E0,-9.544485092E0,-1.078587890E0
3.229650212E1,1.811812162E0,-9.534908295E0,-1.009155989E0
3.231669077E1,1.792658567E0,-9.518148422E0,-9.804255962E-1
3.233686905E1,1.785475969E0,-9.525331497E0,-9.923965931E-1
3.235704780E1,1.768716455E0,-9.525331497E0,-1.011550188E0
3.237722733E1,1.763928056E0,-9.563638687E0,-1.013944387E0
3.239740790E1,1.768716455E0,-9.532513618E0,-1.030703783E0
3.241758968E1,1.845330954E0,-9.508571625E0,-1.037886381E0
3.243777280E1,1.893214941E0,-9.530119896E0,-9.900023937E-1
3.245795738E1,1.852513552E0,-9.532513618E0,-9.469067454E-1
3.247814343E1,1.835754156E0,-9.513360023E0,-9.804255962E-1
3.249833093E1,1.785475969E0,-9.484629631E0,-1.049857497E0
3.251851978E1,1.766322255E0,-9.652224541E0,-1.040280581E0
3.253870983E1,1.756745458E0,-9.633070946E0,-9.732429981E-1
3.255890093E1,1.795052767E0,-9.513360023E0,-9.588778019E-1
3.257909285E1,1.835754156E0,-9.503783226E0,-9.373299479E-1
3.259928535E1,1.818994761E0,-9.532513618E0,-9.780313969E-1
3.261947817E1,1.799841166E0,-9.558850288E0,-1.049857497E0
3.263967087E1,1.833359957E0,-9.549273491E0,-1.059434295E0
3.265986046E1,1.850119352E0,-9.551667213E0,-1.001973391E0
3.268004442E1,1.830965757E0,-9.618705750E0,-9.157821536E-1
3.270022587E1,1.850119352E0,-9.592369080E0,-9.373299479E-1
3.272040780E1,1.869272947E0,-9.544485092E0,-1.013944387E0
3.274059035E1,1.835754156E0,-9.537302017E0,-1.037886381E0
3.276077369E1,1.778293371E0,-9.491812706E0,-1.042674899E0
3.278095790E1,1.737591863E0,-9.520543098E0,-1.006761789E0
3.280114306E1,1.766322255E0,-9.573215485E0,-9.780313969E-1
3.282132916E1,1.811812162E0,-9.611522675E0,-9.516952038E-1
3.284151619E1,1.804629564E0,-9.582792282E0,-9.828197956E-1
3.286170416E1,1.797446966E0,-9.518148422E0,-1.028309584E0
3.288189296E1,1.804629564E0,-9.515754700E0,-1.049857497E0
3.290208244E1,1.807023764E0,-9.558850288E0,-9.971849918E-1
3.292227249E1,1.751957059E0,-9.551667213E0,-9.564836025E-1
3.294246296E1,1.699284673E0,-9.522936821E0,-9.373299479E-1
3.296265369E1,1.754351258E0,-9.542090416E0,-9.516952038E-1
3.298284994E1,1.780687571E0,-9.582792282E0,-9.708487988E-1
3.300303931E1,1.723226666E0,-9.554061890E0,-9.947907925E-1
3.302321655E1,1.739986062E0,-9.501389503E0,-1.021126986E0
3.304339431E1,1.807023764E0,-9.544485092E0,-1.016338587E0
3.306357296E1,1.852513552E0,-9.578003883E0,-1.030703783E0
3.308375275E1,1.838148355E0,-9.542090416E0,-1.057040095E0
3.310393390E1,1.874061346E0,-9.546878815E0,-1.090558887E0
3.312411655E1,1.914762855E0,-9.599552155E0,-1.083376288E0
3.314430082E1,1.845330954E0,-9.587580681E0,-1.054645896E0
3.316448676E1,1.723226666E0,-9.578003883E0,-1.042674899E0
3.318467431E1,1.660977483E0,-9.592369080E0,-1.033097982E0
3.320486337E1,1.670554280E0,-9.568427086E0,-1.009155989E0
3.322505379E1,1.701678872E0,-9.522936821E0,-1.004367590E0
3.324524535E1,1.747168660E0,-9.453505516E0,-1.037886381E0
3.326543785E1,1.857301950E0,-9.496601105E0,-1.049857497E0
3.328563103E1,1.924339652E0,-9.527725220E0,-1.061828494E0
3.330582457E1,1.933916450E0,-9.556455612E0,-1.047463298E0
3.332601551E1,1.929128051E0,-9.582792282E0,-1.013944387E0
3.334620379E1,1.890820742E0,-9.532513618E0,-1.028309584E0
3.336639754E1,1.857301950E0,-9.494206429E0,-1.054645896E0
3.338658614E1,1.818994761E0,-9.530119896E0,-1.064222693E0
3.340676431E1,1.756745458E0,-9.551667213E0,-1.052251697E0
3.342694296E1,1.737591863E0,-9.573215485E0,-1.023521185E0
3.344712238E1,1.749562860E0,-9.568427086E0,-1.009155989E0
3.346730285E1,1.795052767E0,-9.534908295E0,-1.021126986E0
3.348748457E1,1.838148355E0,-9.506177902E0,-1.035492182E0
3.350766770E1,1.854907751E0,-9.542090416E0,-1.040280581E0
3.352785228E1,1.859696150E0,-9.556455612E0,-1.059434295E0
3.354803832E1,1.862090349E0,-9.539696693E0,-1.059434295E0
3.356822582E1,1.845330954E0,-9.551667213E0,-1.052251697E0
3.358841473E1,1.795052767E0,-9.520543098E0,-1.054645896E0
3.360860489E1,1.761533856E0,-9.510966301E0,-1.049857497E0
3.362879608E1,1.775899053E0,-9.594763756E0,-9.828197956E-1
3.364898811E1,1.713649869E0,-9.613917351E0,-9.349357486E-1
3.366918072E1,1.672948480E0,-9.525331497E0,-1.006761789E0
3.368937364E1,1.828571558E0,-9.508571625E0,-1.124077678E0
3.370956629E1,1.979406238E0,-9.534908295E0,-1.155202270E0
3.372975577E1,1.957858443E0,-9.496601105E0,-1.124077678E0
3.374993973E1,1.912368655E0,-9.487024307E0,-1.049857497E0
3.377012119E1,1.871667147E0,-9.527725220E0,-1.054645896E0
3.379030311E1,1.795052767E0,-9.556455612E0,-1.148019671E0
3.381048567E1,1.711255670E0,-9.551667213E0,-1.159990668E0
3.383066900E1,1.761533856E0,-9.551667213E0,-1.078587890E0
3.385085322E1,1.818994761E0,-9.534908295E0,-1.021126986E0
3.387103837E1,1.859696150E0,-9.534908295E0,-1.049857497E0
3.389122447E1,1.869272947E0,-9.520543098E0,-1.150413871E0
3.391141150E1,1.864484549E0,-9.513360023E0,-1.217451572E0
3.393159947E1,1.890820742E0,-9.520543098E0,-1.215057373E0
3.395178827E1,1.914762855E0,-9.537302017E0,-1.162384868E0
3.397197775E1,1.912368655E0,-9.522936821E0,-1.159990668E0
3.399216780E1,1.886032343E0,-9.503783226E0,-1.119289279E0
3.401235827E1,1.878849745E0,-9.503783226E0,-1.104924083E0
3.403254900E1,1.866878748E0,-9.530119896E0,-1.136048675E0
3.405274525E1,1.852513552E0,-9.551667213E0,-1.150413871E0
3.407293457E1,1.816600561E0,-9.544485092E0,-1.131260276E0
3.409311171E1,1.828571558E0,-9.527725220E0,-1.100135684E0
3.411328936E1,1.847725153E0,-9.498994827E0,-1.092953086E0
3.413346790E1,1.842936754E0,-9.520543098E0,-1.112106681E0
3.415364759E1,1.862090349E0,-9.520543098E0,-1.136048675E0
3.417382864E1,1.883638144E0,-9.522936821E0,-1.157596469E0
3.419401124E1,1.883638144E0,-9.542090416E0,-1.128866076E0
3.421419551E1,1.833359957E0,-9.534908295E0,-1.076193690E0
3.423438145E1,1.818994761E0,-9.489418030E0,-1.083376288E0
3.425456905E1,1.842936754E0,-9.563638687E0,-1.095347285E0
3.427475822E1,1.795052767E0,-9.578003883E0,-1.069011092E0
3.429494874E1,1.754351258E0,-9.525331497E0,-1.083376288E0
3.431514040E1,1.807023764E0,-9.515754700E0,-1.119289279E0
3.433533301E1,1.890820742E0,-9.522936821E0,-1.107318282E0
3.435552629E1,1.907580256E0,-9.510966301E0,-1.088164687E0
3.437571994E1,1.886032343E0,-9.513360023E0,-1.092953086E0
3.439591353E1,1.881243944E0,-9.554061890E0,-1.104924083E0
3.441610358E1,1.862090349E0,-9.578003883E0,-1.090558887E0
3.443628754E1,1.826177359E0,-9.534908295E0,-1.097741485E0
3.445646900E1,1.818994761E0,-9.496601105E0,-1.116895080E0
3.447665093E1,1.814206362E0,-9.561244011E0,-1.078587890E0
3.449683348E1,1.775899053E0,-9.582792282E0,-1.023521185E0
3.451701681E1,1.763928056E0,-9.539696693E0,-1.021126986E0
3.453720103E1,1.811812162E0,-9.506177902E0,-1.028309584E0
3.455738619E1,1.866878748E0,-9.532513618E0,-1.028309584E0
3.457757228E1,1.900397658E0,-9.513360023E0,-1.049857497E0
3.459775931E1,1.895609140E0,-9.496601105E0,-1.064222693E0
3.461794728E1,1.883638144E0,-9.508571625E0,-1.030703783E0
3.463813608E1,1.886032343E0,-9.491812706E0,-9.900023937E-1
3.465832556E1,1.893214941E0,-9.515754700E0,-9.804255962E-1
3.467851561E1,1.864484549E0,-9.539696693E0,-1.009155989E0
3.469870608E1,1.883638144E0,-9.510966301E0,-1.011550188E0
3.471889681E1,1.909974456E0,-9.532513618E0,-9.852139950E-1
3.473909306E1,1.898003340E0,-9.539696693E0,-1.004367590E0
3.475928238E1,1.909974456E0,-9.489418030E0,-1.047463298E0
3.477945952E1,1.926733851E0,-9.498994827E0,-1.030703783E0
3.479963718E1,1.886032343E0,-9.537302017E0,-9.900023937E-1
3.481981572E1,1.850119352E0,-9.515754700E0,-1.006761789E0
3.483999540E1,1.878849745E0,-9.518148422E0,-1.006761789E0
3.486017645E1,1.890820742E0,-9.554061890E0,-9.923965931E-1
3.488035905E1,1.854907751E0,-9.513360023E0,-9.780313969E-1
3.490054332E1,1.888426542E0,-9.515754700E0,-9.516952038E-1
3.492072926E1,1.869272947E0,-9.575610161E0,-8.918401599E-1
3.494091686E1,1.763928056E0,-9.578003883E0,-9.205705523E-1
3.496110603E1,1.701678872E0,-9.558850288E0,-9.971849918E-1
3.498129655E1,1.785475969E0,-9.599552155E0,-9.852139950E-1
3.500148822E1,1.826177359E0,-9.585186958E0,-9.229647517E-1
3.502168082E1,1.751957059E0,-9.575610161E0,-8.726865053E-1
3.504187410E1,1.610699177E0,-9.611522675E0,-9.014169574E-1
3.506206775E1,1.615487576E0,-9.592369080E0,-9.421183467E-1
3.508226134E1,1.670554280E0,-9.645041466E0,-9.157821536E-1
3.510245140E1,1.694496274E0,-9.633070946E0,-8.822633028E-1
3.512263535E1,1.699284673E0,-9.582792282E0,-8.726865053E-1
3.514281681E1,1.723226666E0,-9.578003883E0,-8.702923059E-1
3.516299874E1,1.706467271E0,-9.599552155E0,-9.181763530E-1
3.518318155E1,1.660977483E0,-9.604340553E0,-9.540894032E-1
3.520336572E1,1.692102075E0,-9.580398560E0,-9.373299479E-1
3.522355072E1,1.778293371E0,-9.549273491E0,-8.942343593E-1
3.524373655E1,1.804629564E0,-9.566033363E0,-8.870517015E-1
3.526392322E1,1.711255670E0,-9.611522675E0,-9.397241473E-1
3.528411072E1,1.687313676E0,-9.589975357E0,-1.016338587E0
3.530429895E1,1.747168660E0,-9.582792282E0,-9.828197956E-1
3.532448780E1,1.787870169E0,-9.561244011E0,-9.421183467E-1
3.534467718E1,1.814206362E0,-9.539696693E0,-9.660604000E-1
3.536486697E1,1.874061346E0,-9.530119896E0,-1.018732786E0
3.538505707E1,1.902791858E0,-9.556455612E0,-1.040280581E0
3.540524728E1,1.881243944E0,-9.534908295E0,-1.013944387E0
3.542544832E1,1.840542555E0,-9.537302017E0,-9.756371975E-1
3.544562530E1,1.799841166E0,-9.544485092E0,-9.684545994E-1
3.546580259E1,1.814206362E0,-9.522936821E0,-1.009155989E0
3.548598061E1,1.809417963E0,-9.561244011E0,-1.023521185E0
3.550615968E1,1.804629564E0,-9.515754700E0,-1.013944387E0
3.552633999E1,1.854907751E0,-9.472659111E0,-9.852139950E-1
3.554652176E1,1.945887446E0,-9.534908295E0,-9.684545994E-1
3.556670520E1,1.965041041E0,-9.520543098E0,-1.011550188E0
3.558689030E1,1.960252643E0,-9.472659111E0,-1.059434295E0
3.560707707E1,1.965041041E0,-9.496601105E0,-1.057040095E0
3.562726551E1,1.938704848E0,-9.532513618E0,-1.023521185E0
3.564745540E1,1.878849745E0,-9.508571625E0,-1.052251697E0
3.566764655E1,1.826177359E0,-9.508571625E0,-1.057040095E0
3.568783874E1,1.795052767E0,-9.556455612E0,-1.033097982E0
3.570803176E1,1.797446966E0,-9.613917351E0,-1.013944387E0
3.572822530E1,1.809417963E0,-9.592369080E0,-1.052251697E0
3.574841905E1,1.795052767E0,-9.558850288E0,-1.085770488E0
3.576861249E1,1.775899053E0,-9.568427086E0,-1.071405292E0
3.578879916E1,1.759139657E0,-9.601945877E0,-1.042674899E0
3.580898040E1,1.759139657E0,-9.563638687E0,-1.033097982E0
3.582916207E1,1.799841166E0,-9.496601105E0,-1.018732786E0
3.584934426E1,1.795052767E0,-9.525331497E0,-9.900023937E-1
3.586952718E1,1.768716455E0,-9.563638687E0,-9.828197956E-1
3.588971093E1,1.749562860E0,-9.542090416E0,-1.030703783E0
3.590989561E1,1.830965757E0,-9.515754700E0,-1.054645896E0
3.593008124E1,1.912368655E0,-9.513360023E0,-1.047463298E0
3.595026780E1,1.941099048E0,-9.489418030E0,-1.054645896E0
3.597045530E1,1.943493247E0,-9.510966301E0,-1.064222693E0
3.599064364E1,1.917157054E0,-9.525331497E0,-1.066616893E0
3.601083280E1,1.869272947E0,-9.532513618E0,-1.080982089E0
3.603102259E1,1.859696150E0,-9.522936821E0,-1.107318282E0
3.605121290E1,1.883638144E0,-9.506177902E0,-1.109712481E0
3.607140353E1,1.921945453E0,-9.513360023E0,-1.102529883E0
3.609159436E1,1.917157054E0,-9.532513618E0,-1.088164687E0
3.611179603E1,1.869272947E0,-9.530119896E0,-1.080982089E0
3.613197301E1,1.890820742E0,-9.527725220E0,-1.102529883E0
3.615215030E1,1.929128051E0,-9.506177902E0,-1.148019671E0
3.617232832E1,1.957858443E0,-9.489418030E0,-1.128866076E0
3.619250738E1,1.943493247E0,-9.522936821E0,-1.071405292E0
3.621268770E1,1.852513552E0,-9.542090416E0,-1.013944387E0
3.623286947E1,1.787870169E0,-9.496601105E0,-1.035492182E0
3.625305291E1,1.830965757E0,-9.496601105E0,-1.140837073E0
3.627323801E1,1.921945453E0,-9.525331497E0,-1.171961784E0
3.629342478E1,1.955464244E0,-9.525331497E0,-1.116895080E0
3.631361322E1,1.912368655E0,-9.506177902E0,-1.059434295E0
3.633380311E1,1.854907751E0,-9.520543098E0,-1.047463298E0
3.635399426E1,1.826177359E0,-9.542090416E0,-1.073799491E0
3.637418645E1,1.780687571E0,-9.554061890E0,-1.100135684E0
3.639437947E1,1.778293371E0,-9.539696693E0,-1.112106681E0
3.641457301E1,1.804629564E0,-9.532513618E0,-1.083376288E0
3.643476676E1,1.830965757E0,-9.520543098E0,-1.066616893E0
3.645496020E1,1.826177359E0,-9.539696693E0,-1.069011092E0
3.647514686E1,1.783081770E0,-9.546878815E0,-1.114500880E0
3.649532811E1,1.826177359E0,-9.503783226E0,-1.174355984E0
3.651550978E1,1.938704848E0,-9.508571625E0,-1.145625472E0
3.653569197E1,1.984194636E0,-9.489418030E0,-1.136048675E0
3.655587488E1,1.878849745E0,-9.477447510E0,-1.176750183E0
3.657605864E1,1.780687571E0,-9.491812706E0,-1.176750183E0
3.659624332E1,1.814206362E0,-9.515754700E0,-1.169567585E0
3.661642895E1,1.893214941E0,-9.503783226E0,-1.188721180E0
3.663661551E1,1.931522250E0,-9.513360023E0,-1.203086376E0
3.665680301E1,1.912368655E0,-9.534908295E0,-1.215057373E0
3.667699145E1,1.893214941E0,-9.532513618E0,-1.188721180E0
3.669718061E1,1.857301950E0,-9.518148422E0,-1.140837073E0
3.671737041E1,1.857301950E0,-9.496601105E0,-1.157596469E0
3.673756072E1,1.912368655E0,-9.496601105E0,-1.164779186E0
3.675775134E1,1.926733851E0,-9.515754700E0,-1.176750183E0
3.677794218E1,1.917157054E0,-9.554061890E0,-1.188721180E0
3.679814384E1,1.893214941E0,-9.537302017E0,-1.171961784E0
3.681832082E1,1.833359957E0,-9.508571625E0,-1.128866076E0
3.683849811E1,1.862090349E0,-9.563638687E0,-1.090558887E0
3.685867614E1,1.830965757E0,-9.558850288E0,-1.080982089E0
3.687885520E1,1.790264368E0,-9.494206429E0,-1.138442874E0
3.689903551E1,1.847725153E0,-9.465476036E0,-1.195903778E0
3.691921728E1,1.909974456E0,-9.501389503E0,-1.128866076E0
3.693940072E1,1.900397658E0,-9.506177902E0,-1.040280581E0
3.695958582E1,1.842936754E0,-9.494206429E0,-1.042674899E0
3.697977259E1,1.838148355E0,-9.508571625E0,-1.121683478E0
3.699996103E1,1.893214941E0,-9.578003883E0,-1.179144382E0
3.702015093E1,1.912368655E0,-9.556455612E0,-1.205480576E0
3.704034207E1,1.881243944E0,-9.496601105E0,-1.155202270E0
3.706053426E1,1.886032343E0,-9.508571625E0,-1.080982089E0
3.708072728E1,1.905186057E0,-9.582792282E0,-1.071405292E0
3.710092082E1,1.814206362E0,-9.578003883E0,-1.092953086E0
3.712111457E1,1.720832467E0,-9.520543098E0,-1.116895080E0
3.714130801E1,1.771110654E0,-9.551667213E0,-1.095347285E0
3.716149468E1,1.852513552E0,-9.527725220E0,-1.071405292E0
3.718167593E1,1.890820742E0,-9.530119896E0,-1.071405292E0
3.720185759E1,1.864484549E0,-9.537302017E0,-1.071405292E0
3.722203978E1,1.818994761E0,-9.484629631E0,-1.025915384E0
3.724222270E1,1.783081770E0,-9.501389503E0,-1.006761789E0
3.726240645E1,1.830965757E0,-9.537302017E0,-1.028309584E0
3.728259114E1,1.881243944E0,-9.530119896E0,-1.066616893E0
3.730277676E1,1.854907751E0,-9.522936821E0,-1.109712481E0
3.732296332E1,1.771110654E0,-9.539696693E0,-1.088164687E0
3.734315082E1,1.749562860E0,-9.561244011E0,-9.995791912E-1
3.736333916E1,1.780687571E0,-9.551667213E0,-9.732429981E-1
3.738352832E1,1.842936754E0,-9.532513618E0,-1.071405292E0
3.740371811E1,1.878849745E0,-9.554061890E0,-1.143231273E0
3.742390843E1,1.866878748E0,-9.544485092E0,-1.116895080E0
3.744409905E1,1.830965757E0,-9.537302017E0,-1.040280581E0
3.746428988E1,1.823783159E0,-9.573215485E0,-9.804255962E-1
3.748449155E1,1.783081770E0,-9.563638687E0,-9.852139950E-1
3.750466853E1,1.739986062E0,-9.544485092E0,-1.052251697E0
3.752484582E1,1.783081770E0,-9.508571625E0,-1.102529883E0
3.754502384E1,1.871667147E0,-9.539696693E0,-1.069011092E0
3.756520290E1,1.909974456E0,-9.549273491E0,-1.011550188E0
3.758538322E1,1.830965757E0,-9.501389503E0,-1.001973391E0
3.760556499E1,1.751957059E0,-9.539696693E0,-1.013944387E0
3.762574843E1,1.747168660E0,-9.556455612E0,-1.023521185E0
3.764593353E1,1.749562860E0,-9.573215485E0,-1.054645896E0
3.766612030E1,1.756745458E0,-9.544485092E0,-1.066616893E0
3.768630874E1,1.821388960E0,-9.558850288E0,-1.042674899E0
3.770649864E1,1.833359957E0,-9.578003883E0,-1.004367590E0
3.772668978E1,1.816600561E0,-9.534908295E0,-9.780313969E-1
3.774688197E1,1.773504853E0,-9.549273491E0,-9.900023937E-1
3.776707499E1,1.785475969E0,-9.556455612E0,-1.040280581E0
3.778726853E1,1.833359957E0,-9.551667213E0,-1.080982089E0
3.780746228E1,1.835754156E0,-9.549273491E0,-1.080982089E0
3.782765582E1,1.809417963E0,-9.539696693E0,-1.035492182E0
3.784784249E1,1.780687571E0,-9.551667213E0,-9.876081944E-1
3.786802374E1,1.778293371E0,-9.551667213E0,-9.947907925E-1
3.788820540E1,1.814206362E0,-9.554061890E0,-1.011550188E0
3.790838759E1,1.811812162E0,-9.575610161E0,-1.025915384E0
3.792857051E1,1.783081770E0,-9.566033363E0,-1.045069098E0
3.794875426E1,1.749562860E0,-9.537302017E0,-1.028309584E0
3.796893895E1,1.785475969E0,-9.513360023E0,-9.876081944E-1
3.798912457E1,1.857301950E0,-9.515754700E0,-1.004367590E0
3.800931114E1,1.912368655E0,-9.542090416E0,-1.052251697E0
3.802949864E1,1.890820742E0,-9.563638687E0,-1.045069098E0
3.804968697E1,1.833359957E0,-9.558850288E0,-9.947907925E-1
3.806987614E1,1.763928056E0,-9.520543098E0,-9.900023937E-1
3.809006593E1,1.792658567E0,-9.563638687E0,-1.013944387E0
3.811025624E1,1.795052767E0,-9.597157478E0,-1.006761789E0
3.813044686E1,1.756745458E0,-9.537302017E0,-9.732429981E-1
3.815063770E1,1.775899053E0,-9.479841232E0,-9.588778019E-1
3.817083936E1,1.818994761E0,-9.537302017E0,-9.469067454E-1
3.819101645E1,1.850119352E0,-9.542090416E0,-9.947907925E-1
3.821119384E1,1.883638144E0,-9.518148422E0,-1.059434295E0
3.823137197E1,1.931522250E0,-9.522936821E0,-1.049857497E0
3.825155114E1,1.917157054E0,-9.539696693E0,-1.025915384E0
3.827173155E1,1.826177359E0,-9.556455612E0,-1.037886381E0
3.829191343E1,1.739986062E0,-9.568427086E0,-1.037886381E0
3.831209686E1,1.778293371E0,-9.561244011E0,-1.061828494E0
3.833228197E1,1.869272947E0,-9.556455612E0,-1.102529883E0
3.835246874E1,1.878849745E0,-9.522936821E0,-1.092953086E0
3.837265707E1,1.845330954E0,-9.544485092E0,-1.033097982E0
3.839284686E1,1.771110654E0,-9.551667213E0,-9.828197956E-1
3.841303790E1,1.787870169E0,-9.558850288E0,-1.004367590E0
3.843322999E1,1.826177359E0,-9.561244011E0,-1.030703783E0
3.845342291E1,1.830965757E0,-9.551667213E0,-1.025915384E0
3.847361634E1,1.790264368E0,-9.556455612E0,-1.004367590E0
3.849380999E1,1.742380261E0,-9.549273491E0,-9.900023937E-1
3.851399822E1,1.778293371E0,-9.532513618E0,-1.011550188E0
3.853418655E1,1.852513552E0,-9.527725220E0,-1.049857497E0
3.855438572E1,1.886032343E0,-9.530119896E0,-1.057040095E0
3.857456374E1,1.871667147E0,-9.501389503E0,-1.004367590E0
3.859474207E1,1.818994761E0,-9.532513618E0,-9.540894032E-1
3.861492103E1,1.783081770E0,-9.534908295E0,-9.876081944E-1
3.863510093E1,1.773504853E0,-9.558850288E0,-1.049857497E0
3.865528197E1,1.771110654E0,-9.599552155E0,-1.049857497E0
3.867546436E1,1.742380261E0,-9.551667213E0,-9.971849918E-1
3.869564822E1,1.732803464E0,-9.530119896E0,-1.001973391E0
3.871583353E1,1.830965757E0,-9.542090416E0,-1.040280581E0
3.873602030E1,1.859696150E0,-9.542090416E0,-1.021126986E0
3.875620853E1,1.840542555E0,-9.532513618E0,-1.030703783E0
3.877639811E1,1.850119352E0,-9.522936821E0,-1.030703783E0
3.879658884E1,1.818994761E0,-9.551667213E0,-1.028309584E0
3.881678051E1,1.761533856E0,-9.527725220E0,-1.054645896E0
3.883697290E1,1.778293371E0,-9.522936821E0,-1.069011092E0
3.885716572E1,1.895609140E0,-9.556455612E0,-1.069011092E0
3.887735874E1,1.974617839E0,-9.520543098E0,-1.090558887E0
3.889755103E1,1.977012038E0,-9.491812706E0,-1.104924083E0
3.891773780E1,1.943493247E0,-9.520543098E0,-1.066616893E0
3.893792447E1,1.866878748E0,-9.508571625E0,-1.045069098E0
3.895810572E1,1.835754156E0,-9.527725220E0,-1.049857497E0
3.897828738E1,1.811812162E0,-9.558850288E0,-1.078587890E0
3.899846957E1,1.814206362E0,-9.534908295E0,-1.107318282E0
3.901865249E1,1.821388960E0,-9.542090416E0,-1.080982089E0
3.903883624E1,1.835754156E0,-9.549273491E0,-1.025915384E0
3.905902093E1,1.818994761E0,-9.549273491E0,-1.018732786E0
3.907920655E1,1.816600561E0,-9.532513618E0,-1.080982089E0
3.909939311E1,1.886032343E0,-9.522936821E0,-1.109712481E0
3.911958061E1,1.929128051E0,-9.532513618E0,-1.078587890E0
3.913976905E1,1.878849745E0,-9.537302017E0,-1.047463298E0
3.915995822E1,1.790264368E0,-9.554061890E0,-1.030703783E0
3.918014801E1,1.692102075E0,-9.580398560E0,-1.025915384E0
3.920033832E1,1.718438268E0,-9.573215485E0,-1.040280581E0
3.922052895E1,1.763928056E0,-9.534908295E0,-1.025915384E0
3.924071978E1,1.754351258E0,-9.532513618E0,-1.049857497E0
3.926092145E1,1.809417963E0,-9.546878815E0,-1.114500880E0
3.928109853E1,1.895609140E0,-9.508571625E0,-1.152808070E0
3.930127593E1,1.933916450E0,-9.510966301E0,-1.114500880E0
3.932145405E1,1.921945453E0,-9.578003883E0,-1.064222693E0
3.934163322E1,1.826177359E0,-9.599552155E0,-1.047463298E0
3.936181364E1,1.735197663E0,-9.568427086E0,-1.085770488E0
3.938199551E1,1.754351258E0,-9.496601105E0,-1.109712481E0
3.940217895E1,1.797446966E0,-9.510966301E0,-1.061828494E0
3.942236405E1,1.818994761E0,-9.539696693E0,-1.037886381E0
3.944255082E1,1.828571558E0,-9.537302017E0,-1.047463298E0
3.946273916E1,1.838148355E0,-9.527725220E0,-1.049857497E0
3.948292895E1,1.816600561E0,-9.522936821E0,-1.047463298E0
3.950311999E1,1.790264368E0,-9.544485092E0,-1.066616893E0
3.952331207E1,1.804629564E0,-9.549273491E0,-1.116895080E0
3.954350499E1,1.857301950E0,-9.558850288E0,-1.119289279E0
3.956369843E1,1.811812162E0,-9.542090416E0,-1.085770488E0
3.958389207E1,1.751957059E0,-9.520543098E0,-1.069011092E0
3.960408030E1,1.792658567E0,-9.530119896E0,-1.088164687E0
3.962426864E1,1.876455545E0,-9.530119896E0,-1.119289279E0
3.964446780E1,1.931522250E0,-9.534908295E0,-1.140837073E0
3.966464603E1,1.878849745E0,-9.539696693E0,-1.119289279E0
3.968482457E1,1.830965757E0,-9.542090416E0,-1.088164687E0
3.970500374E1,1.833359957E0,-9.539696693E0,-1.071405292E0
3.972518374E1,1.850119352E0,-9.515754700E0,-1.066616893E0
3.974536488E1,1.854907751E0,-9.522936821E0,-1.076193690E0
3.976554728E1,1.840542555E0,-9.546878815E0,-1.080982089E0
3.978573114E1,1.795052767E0,-9.527725220E0,-1.066616893E0
3.980591645E1,1.756745458E0,-9.470264435E0,-1.013944387E0
3.982610322E1,1.773504853E0,-9.467870712E0,-9.301473498E-1
3.984629145E1,1.876455545E0,-9.556455612E0,-8.918401599E-1
3.986648093E1,1.941099048E0,-9.566033363E0,-9.732429981E-1
3.988667155E1,1.936310649E0,-9.501389503E0,-1.006761789E0
3.990686311E1,1.957858443E0,-9.484629631E0,-9.038111567E-1
3.992705541E1,2.051232338E0,-9.587580681E0,-7.673416734E-1
3.994724811E1,2.046443939E0,-9.604340553E0,-7.314286232E-1
3.996744103E1,1.991377234E0,-9.522936821E0,-7.936778665E-1
3.998763353E1,1.969829440E0,-9.484629631E0,-9.181763530E-1
4.000782020E1,2.077568531E0,-9.546878815E0,-9.564836025E-1
4.002800145E1,2.221220732E0,-9.465476036E0,-8.631097078E-1
4.004818311E1,2.259527922E0,-9.343372345E0,-8.152256608E-1
4.006836540E1,2.245162725E0,-9.410409927E0,-8.535329103E-1
4.008854843E1,2.048838139E0,-9.522936821E0,-9.756371975E-1
4.010873228E1,1.857301950E0,-9.542090416E0,-1.169567585E0
4.012891707E1,1.833359957E0,-9.544485092E0,-1.157596469E0
4.014910280E1,1.684919477E0,-9.621099472E0,-9.540894032E-1
4.016928947E1,1.378461599E0,-9.618705750E0,-8.343793154E-1
4.018947707E1,1.186925530E0,-9.582792282E0,-9.325415492E-1
4.020966551E1,1.196502328E0,-9.680954933E0,-1.131260276E0
4.022985468E1,1.313818216E0,-9.776722908E0,-1.222239971E0
4.025004447E1,1.455076098E0,-9.707290649E0,-1.131260276E0
4.027023478E1,1.610699177E0,-9.594763756E0,-1.025915384E0
4.029042540E1,1.802235365E0,-9.578003883E0,-1.030703783E0
4.031061614E1,1.991377234E0,-9.534908295E0,-1.188721180E0
4.033081770E1,2.079962730E0,-9.508571625E0,-1.301248670E0
4.035099447E1,2.084751129E0,-9.506177902E0,-1.198297977E0
4.037117155E1,1.965041041E0,-9.472659111E0,-1.100135684E0
4.039134936E1,1.854907751E0,-9.515754700E0,-1.124077678E0
4.041152822E1,1.682525277E0,-9.642647743E0,-1.212663174E0
4.043170843E1,1.488594890E0,-9.652224541E0,-1.387439847E0
4.045189020E1,1.433528304E0,-9.582792282E0,-1.509544134E0
4.047207364E1,1.445499301E0,-9.587580681E0,-1.468842745E0
4.049225884E1,1.376067400E0,-9.589975357E0,-1.454477549E0
4.051244572E1,1.402403593E0,-9.539696693E0,-1.643619418E0
4.053263426E1,1.613093376E0,-9.525331497E0,-1.830367208E0
4.055282426E1,1.768716455E0,-9.513360023E0,-1.880645394E0
4.057301561E1,1.728015065E0,-9.630676270E0,-1.859097600E0
4.059320801E1,1.409586191E0,-9.867702484E0,-1.940500498E0
4.061340124E1,1.043273449E0,-9.903614998E0,-2.196680069E0
4.063359499E1,1.146224022E0,-9.654618263E0,-2.412158251E0
4.065378895E1,1.620275974E0,-9.482235909E0,-2.474407434E0
4.067398197E1,1.876455545E0,-9.451110840E0,-2.500743628E0
4.069416874E1,1.972223639E0,-9.582792282E0,-2.527079821E0
4.071435540E1,1.909974456E0,-9.539696693E0,-2.479195833E0
4.073453666E1,1.778293371E0,-9.415198326E0,-2.282871246E0
4.075471832E1,1.414374709E0,-9.317035675E0,-2.050633669E0
4.077490061E1,1.335366011E0,-9.271546364E0,-1.851915002E0
4.079508364E1,1.093551636E0,-9.379284859E0,-1.985990286E0
4.081526749E1,6.434416771E-1,-9.307458878E0,-2.424129248E0
4.083545228E1,8.637082577E-1,-9.226056099E0,-2.558204412E0
4.085563801E1,9.810241461E-1,-9.154230118E0,-2.345120668E0
4.087582468E1,1.261145711E0,-8.993818283E0,-2.177526474E0
4.089601228E1,1.601122379E0,-8.965087891E0,-2.182314873E0
4.091620072E1,1.763928056E0,-9.182960510E0,-2.390610456E0
4.093638989E1,1.895609140E0,-9.355342865E0,-2.457648039E0
4.095657968E1,2.115875721E0,-9.247604370E0,-2.230198860E0
4.097676999E1,2.158971310E0,-9.137471199E0,-1.816002011E0
4.099696061E1,1.898003340E0,-9.192537308E0,-1.885433793E0
4.101715134E1,1.653794765E0,-9.202114105E0,-2.215833664E0
4.103735291E1,1.510142684E0,-9.180566788E0,-2.359485865E0
4.105752968E1,1.450287700E0,-9.223662376E0,-2.256535053E0
4.107770676E1,1.443105102E0,-9.355342865E0,-2.220622063E0
4.109788457E1,1.282693505E0,-9.700108528E0,-2.357091665E0
4.111806343E1,8.134300113E-1,-9.898826599E0,-2.610877037E0
4.113824364E1,8.948329091E-1,-9.482235909E0,-2.553416014E0
4.115842540E1,1.426345706E0,-9.168595314E0,-2.184709072E0
4.117860884E1,1.613093376E0,-9.321824074E0,-2.191891670E0
4.119879405E1,1.404797792E0,-9.410409927E0,-2.366668463E0
4.121898103E1,1.455076098E0,-9.305065155E0,-2.266111851E0
4.123916968E1,1.579574585E0,-9.317035675E0,-2.076969862E0
4.125935978E1,1.610699177E0,-9.376891136E0,-2.074575663E0
4.127955124E1,1.603516579E0,-9.372102737E0,-2.242169857E0
4.129974374E1,1.546055794E0,-9.429563522E0,-2.421735048E0
4.131993707E1,1.548449993E0,-9.422380447E0,-2.495955229E0
4.134013093E1,1.641823769E0,-9.381679535E0,-2.359485865E0
