"Time (s)","Acceleration x (m/s^2)","Acceleration y (m/s^2)","Acceleration z (m/s^2)"
3.804527200E-2,-2.809627771E0,1.626196027E0,9.253747940E0
5.822287600E-2,-2.740314722E0,1.637160420E0,9.272581100E0
7.840079200E-2,-2.715257883E0,1.629823565E0,9.281241417E0
9.857933400E-2,-2.736207008E0,1.624382257E0,9.276040077E0
1.187588130E-1,-2.778605938E0,1.633957386E0,9.261745453E0
1.389395420E-1,-2.808768749E0,1.657726884E0,9.248413086E0
1.591217300E-1,-2.815767288E0,1.682292938E0,9.241847038E0
1.793054800E-1,-2.808487415E0,1.698760629E0,9.241048813E0
1.994908970E-1,-2.798149109E0,1.706698775E0,9.242722511E0
2.196778760E-1,-2.799260139E0,1.710429788E0,9.241696358E0
2.398664170E-1,-2.824680805E0,1.717620134E0,9.232624054E0
2.600564170E-1,-2.858978033E0,1.731064558E0,9.219547272E0
2.802476670E-1,-2.875415325E0,1.743917584E0,9.212010384E0
3.004399590E-1,-2.864051580E0,1.753345728E0,9.213760376E0
3.206329800E-1,-2.838715792E0,1.761937261E0,9.219960213E0
3.408264170E-1,-2.812284231E0,1.769148350E0,9.226675987E0
3.610200630E-1,-2.779093981E0,1.774452209E0,9.235711098E0
3.812126670E-1,-2.720505953E0,1.773934245E0,9.253236771E0
4.013994380E-1,-2.610213041E0,1.758987665E0,9.287795067E0
4.215807920E-1,-2.419530869E0,1.711055160E0,9.348184586E0
4.417625630E-1,-2.132078648E0,1.628154516E0,9.432589531E0
4.619449590E-1,-1.698503137E0,1.505725503E0,9.540349960E0
4.821280840E-1,-1.134363055E0,1.345719695E0,9.647417068E0
5.023120420E-1,-5.131890178E-1,1.175899863E0,9.722359657E0
5.224969380E-1,-2.512616292E-2,9.839669466E-1,9.757128716E0
5.426827720E-1,2.721960843E-1,7.550005317E-1,9.773754120E0
5.628695420E-1,4.998631477E-1,4.806194305E-1,9.782103539E0
5.830572510E-1,7.978556156E-1,1.843986064E-1,9.772400856E0
6.032457920E-1,1.158539772E0,-1.243348047E-1,9.737181664E0
6.234350630E-1,1.474655390E0,-4.660772979E-1,9.683933258E0
6.436249590E-1,1.707082033E0,-8.413660526E-1,9.620206833E0
6.638153760E-1,1.826987147E0,-1.188715935E0,9.561352730E0
6.840061050E-1,1.911349654E0,-1.424943566E0,9.512448311E0
7.041970420E-1,2.027684689E0,-1.503437281E0,9.476210594E0
7.243988130E-1,2.169711113E0,-1.459406614E0,9.451607704E0
7.445758970E-1,2.343054295E0,-1.366881728E0,9.424017906E0
7.647532920E-1,2.532225609E0,-1.276674867E0,9.387669563E0
7.849314170E-1,2.712960720E0,-1.209961534E0,9.345919609E0
8.051105840E-1,2.885176897E0,-1.176970959E0,9.298434258E0
8.252910010E-1,3.043179274E0,-1.173100829E0,9.248420715E0
8.454728760E-1,3.164269686E0,-1.200037718E0,9.204221725E0
8.656564170E-1,3.245858192E0,-1.285810232E0,9.164141655E0
8.858416260E-1,3.264774323E0,-1.433058500E0,9.135534286E0
9.060285010E-1,3.221273661E0,-1.616002202E0,9.120434761E0
9.262170420E-1,3.147714853E0,-1.806778193E0,9.110314369E0
9.464070420E-1,3.137065411E0,-1.965362787E0,9.081110001E0
9.665983970E-1,3.238317966E0,-2.044694901E0,9.027895927E0
9.867907920E-1,3.444576740E0,-2.023000002E0,8.956157684E0
1.006984022E0,3.697439194E0,-1.925626755E0,8.876445770E0
1.027177772E0,3.890049934E0,-1.848056436E0,8.810367584E0
1.047371730E0,4.003607750E0,-1.895190358E0,8.749272346E0
1.067565480E0,4.093971729E0,-2.078729391E0,8.665371895E0
1.087752355E0,4.173480034E0,-2.360585928E0,8.554535866E0
1.107939126E0,4.286013603E0,-2.667500734E0,8.407432556E0
1.128120480E0,4.488194466E0,-2.910378695E0,8.219257355E0
1.148302251E0,4.731610775E0,-3.067305803E0,8.023332596E0
1.168484647E0,5.007724762E0,-3.180798769E0,7.808688164E0
1.188667772E0,5.363667488E0,-3.264501095E0,7.532894135E0
1.208851730E0,5.668209076E0,-3.314647436E0,7.283879280E0
1.229036626E0,5.916001797E0,-3.333580971E0,7.075207233E0
1.249222459E0,6.243977070E0,-3.311661720E0,6.798236847E0
1.269409230E0,6.635838032E0,-3.244751453E0,6.450396538E0
1.289596938E0,6.965050220E0,-3.131523848E0,6.152399063E0
1.309785480E0,7.243966103E0,-2.981525183E0,5.899648190E0
1.329974751E0,7.541683197E0,-2.771933794E0,5.622257710E0
1.350164647E0,7.908697128E0,-2.539479971E0,5.212862492E0
1.370355063E0,8.293850899E0,-2.363537312E0,4.668632030E0
1.390545792E0,8.529910088E0,-2.281846762E0,4.266637802E0
1.410736730E0,8.610351562E0,-2.287785530E0,4.098569870E0
1.430938501E0,8.628825188E0,-2.411261320E0,3.987429857E0
1.451115480E0,8.679165840E0,-2.631622314E0,3.730552912E0
1.471292772E0,8.797507286E0,-2.881097794E0,3.236282587E0
1.491470792E0,8.925951958E0,-3.111443996E0,2.610876322E0
1.511649855E0,8.981848717E0,-3.407317400E0,1.971539021E0
1.531830272E0,8.959120750E0,-3.735609293E0,1.396342754E0
1.552012147E0,8.889789581E0,-4.036523819E0,9.211428165E-1
1.572195688E0,8.784483910E0,-4.323861122E0,5.544737577E-1
1.592380897E0,8.646765709E0,-4.616468430E0,3.034045696E-1
1.612567772E0,8.484907150E0,-4.914511681E0,1.559676677E-1
1.632756313E0,8.314945221E0,-5.199161530E0,2.827424556E-2
1.652946417E0,8.145463943E0,-5.459056377E0,-1.432639509E-1
1.673137876E0,7.966662884E0,-5.708841324E0,-3.343583345E-1
1.693330376E0,7.784579754E0,-5.945449352E0,-4.715187252E-1
1.713523709E0,7.603788853E0,-6.167697906E0,-5.588294864E-1
1.733717563E0,7.425681114E0,-6.375016689E0,-6.235473156E-1
1.753911626E0,7.226810932E0,-6.591664314E0,-7.025375962E-1
1.774104855E0,6.972839832E0,-6.843927383E0,-8.429377675E-1
1.794291730E0,6.676271915E0,-7.122849464E0,-9.288622141E-1
1.814473188E0,6.394639969E0,-7.397026539E0,-7.503111362E-1
1.834655063E0,6.128905773E0,-7.640426159E0,-4.803921878E-1
1.854837459E0,5.804478168E0,-7.901107788E0,-2.256544977E-1
1.875020584E0,5.353118896E0,-8.216716766E0,8.162706159E-3
1.895204542E0,4.818692684E0,-8.536970139E0,2.659516335E-1
1.915389438E0,4.325587273E0,-8.785597801E0,5.224285722E-1
1.935575272E0,3.851278782E0,-9.000831604E0,5.683854818E-1
1.955762042E0,3.278421879E0,-9.235668182E0,3.532227278E-1
1.975949751E0,2.574130774E0,-9.462466240E0,7.724162191E-2
1.996138292E0,1.769576192E0,-9.643686295E0,-1.956732422E-1
2.016327563E0,9.667633772E-1,-9.744966507E0,-5.209490657E-1
2.036517459E0,3.657513559E-1,-9.773974419E0,-7.113713622E-1
2.056707876E0,2.674131691E-1,-9.784972191E0,-5.943006277E-1
2.076898605E0,6.160755754E-1,-9.778469086E0,-4.151782990E-1
2.097089438E0,1.042841911E0,-9.742051125E0,-4.187257886E-1
2.117291105E0,1.305683255E0,-9.706070900E0,-5.076949596E-1
2.137467876E0,1.393818617E0,-9.691798210E0,-5.446969867E-1
2.157644959E0,1.359312534E0,-9.695802689E0,-5.604166389E-1
2.177822772E0,1.306485057E0,-9.701434135E0,-5.879318714E-1
2.198001626E0,1.312574148E0,-9.701391220E0,-5.749160051E-1
2.218181834E0,1.343931556E0,-9.699632645E0,-5.304316878E-1
2.238363605E0,1.365449786E0,-9.697248459E0,-5.189422965E-1
2.258547042E0,1.376515746E0,-9.692872047E0,-5.690660477E-1
2.278732251E0,1.399206996E0,-9.685879707E0,-6.295443177E-1
2.298919230E0,1.435505509E0,-9.679790497E0,-6.413805485E-1
2.319107876E0,1.476094604E0,-9.673496246E0,-6.442110538E-1
2.339298084E0,1.506416202E0,-9.668744087E0,-6.453627348E-1
2.359489647E0,1.501816273E0,-9.671887398E0,-6.078705788E-1
2.379682355E0,1.493955135E0,-9.676030159E0,-5.593969226E-1
2.399875897E0,1.496523976E0,-9.674903870E0,-5.718626976E-1
2.420069959E0,1.497798920E0,-9.674229622E0,-5.798922777E-1
2.440264230E0,1.490739346E0,-9.676075935E0,-5.671290159E-1
2.460457147E0,1.493302226E0,-9.675041199E0,-5.779313445E-1
2.480644022E0,1.498087764E0,-9.674835205E0,-5.689386129E-1
2.500830792E0,1.498784304E0,-9.675530434E0,-5.550991893E-1
2.521012147E0,1.496237278E0,-9.676095963E0,-5.521202087E-1
2.541193917E0,1.493021727E0,-9.677031517E0,-5.443634391E-1
2.561376313E0,1.493490219E0,-9.676981926E0,-5.439723134E-1
2.581559438E0,1.493408918E0,-9.676516533E0,-5.524029732E-1
2.601743397E0,1.495260000E0,-9.675872803E0,-5.586498380E-1
2.621928292E0,1.497401595E0,-9.675484657E0,-5.596289635E-1
2.642114126E0,1.500443816E0,-9.675177574E0,-5.567693114E-1
2.662300897E0,1.504400492E0,-9.674610138E0,-5.559501648E-1
2.682488605E0,1.511044979E0,-9.673421860E0,-5.586060882E-1
2.702677147E0,1.519148588E0,-9.671729088E0,-5.658842325E-1
2.722866417E0,1.521644235E0,-9.670299530E0,-5.833586454E-1
2.743056313E0,1.510340929E0,-9.670369148E0,-6.109115481E-1
2.763246730E0,1.491057873E0,-9.671422005E0,-6.408882737E-1
2.783437459E0,1.474079967E0,-9.672376633E0,-6.653006077E-1
2.803628292E0,1.470170498E0,-9.671774864E0,-6.824735999E-1
2.823829959E0,1.475057483E0,-9.670703888E0,-6.870777607E-1
2.844006834E0,1.483073473E0,-9.670384407E0,-6.741940975E-1
2.864184022E0,1.502577662E0,-9.668970108E0,-6.509069800E-1
2.884361938E0,1.544533849E0,-9.662530899E0,-6.483017206E-1
2.904540897E0,1.561662316E0,-9.659369469E0,-6.543567777E-1
2.924721209E0,1.556185246E0,-9.659430504E0,-6.663867235E-1
2.944903084E0,1.550043821E0,-9.660184860E0,-6.697538495E-1
2.965086626E0,1.550570130E0,-9.661132812E0,-6.547113061E-1
2.985271938E0,1.549602747E0,-9.662446976E0,-6.373663545E-1
3.005459022E0,1.539960027E0,-9.664715767E0,-6.262499094E-1
3.025647772E0,1.528055549E0,-9.667174339E0,-6.173875332E-1
3.045837980E0,1.527368903E0,-9.668107986E0,-6.043325663E-1
3.066029438E0,1.536598206E0,-9.667646408E0,-5.881047845E-1
3.086221938E0,1.547124267E0,-9.666672707E0,-5.763910413E-1
3.106415272E0,1.540231109E0,-9.668410301E0,-5.656172633E-1
3.126609126E0,1.521218538E0,-9.672054291E0,-5.546655059E-1
3.146803188E0,1.503797412E0,-9.675504684E0,-5.418396592E-1
3.166996105E0,1.491532922E0,-9.678346634E0,-5.247094631E-1
3.187182876E0,1.485734344E0,-9.680291176E0,-5.049180984E-1
3.207364230E0,1.481891751E0,-9.681736946E0,-4.882046282E-1
3.227546001E0,1.478169799E0,-9.682845116E0,-4.773831666E-1
3.247728292E0,1.468628645E0,-9.684918404E0,-4.646294117E-1
3.267911313E0,1.448715925E0,-9.688042641E0,-4.620035887E-1
3.288095167E0,1.434520602E0,-9.690825462E0,-4.477075040E-1
3.308279959E0,1.429967165E0,-9.692195892E0,-4.323525727E-1
3.328465688E0,1.424835443E0,-9.693338394E0,-4.235607684E-1
3.348652459E0,1.418069243E0,-9.694550514E0,-4.185286164E-1
3.368840167E0,1.417987466E0,-9.694810867E0,-4.127194881E-1
3.389028709E0,1.426459789E0,-9.693740845E0,-4.086683989E-1
3.409217980E0,1.444154143E0,-9.691241264E0,-4.057829976E-1
3.429407876E0,1.474222779E0,-9.686455727E0,-4.118533731E-1
3.449598292E0,1.500527978E0,-9.681925774E0,-4.232063591E-1
3.469789022E0,1.520173073E0,-9.678082466E0,-4.406476021E-1
3.489979959E0,1.532840610E0,-9.675140381E0,-4.609146416E-1
3.510181730E0,1.539006948E0,-9.673300743E0,-4.786523581E-1
3.530358813E0,1.546068788E0,-9.671227455E0,-4.973956048E-1
3.550536209E0,1.561485291E0,-9.667745590E0,-5.165562630E-1
3.570714334E0,1.584858894E0,-9.663056374E0,-5.328686237E-1
3.590893501E0,1.611084700E0,-9.657982826E0,-5.460438728E-1
3.611073917E0,1.631514907E0,-9.653775215E0,-5.596293211E-1
3.631255792E0,1.648894191E0,-9.649904251E0,-5.752288103E-1
3.651439334E0,1.665114164E0,-9.646281242E0,-5.890984535E-1
3.671624542E0,1.677844882E0,-9.643548012E0,-5.976634622E-1
3.691811417E0,1.684620976E0,-9.642049789E0,-6.027583480E-1
3.711999959E0,1.688712597E0,-9.641077995E0,-6.068361998E-1
3.732189959E0,1.694116592E0,-9.640031815E0,-6.084048748E-1
3.752381313E0,1.702479005E0,-9.638567924E0,-6.082438231E-1
3.772573709E0,1.711634278E0,-9.636889458E0,-6.091333032E-1
3.792766938E0,1.714606762E0,-9.636067390E0,-6.137730479E-1
3.812960688E0,1.709366083E0,-9.636344910E0,-6.239452958E-1
3.833154647E0,1.698066115E0,-9.637602806E0,-6.352753043E-1
3.853347980E0,1.683919907E0,-9.638008118E0,-6.660292745E-1
3.873534751E0,1.669957757E0,-9.636354446E0,-7.227036953E-1
3.893716105E0,1.655645728E0,-9.636291504E0,-7.557281256E-1
3.913897876E0,1.658133030E0,-9.639263153E0,-7.110471129E-1
3.934080272E0,1.651664615E0,-9.644403458E0,-6.541194916E-1
3.954263397E0,1.629265904E0,-9.650321960E0,-6.222226620E-1
3.974447355E0,1.615218639E0,-9.653042793E0,-6.166259050E-1
3.994632251E0,1.622592449E0,-9.651161194E0,-6.266220808E-1
4.014818084E0,1.648321152E0,-9.646193504E0,-6.359073520E-1
4.035004855E0,1.674029112E0,-9.642036438E0,-6.317877769E-1
4.055192563E0,1.685037255E0,-9.641703606E0,-6.071126461E-1
4.075381105E0,1.680842638E0,-9.644442558E0,-5.743609071E-1
4.095570376E0,1.666056752E0,-9.648584366E0,-5.472468138E-1
4.115760272E0,1.647112727E0,-9.652774811E0,-5.304265618E-1
4.135950688E0,1.635182619E0,-9.655591965E0,-5.158507228E-1
4.156141417E0,1.625872970E0,-9.657411575E0,-5.112009048E-1
4.176332251E0,1.618601441E0,-9.658692360E0,-5.100805759E-1
4.196533917E0,1.612432241E0,-9.659840584E0,-5.078625083E-1
4.216710688E0,1.606007814E0,-9.661053658E0,-5.051519275E-1
4.236887772E0,1.601462245E0,-9.661992073E0,-5.016168356E-1
4.257065584E0,1.601968884E0,-9.662064552E0,-4.985867143E-1
4.277244438E0,1.608898878E0,-9.660984039E0,-4.972109199E-1
4.297424647E0,1.619959235E0,-9.659175873E0,-4.964210391E-1
4.317606417E0,1.635478497E0,-9.656367302E0,-5.001654625E-1
4.337789855E0,1.647329211E0,-9.654072762E0,-5.055425167E-1
4.357975063E0,1.656967759E0,-9.651942253E0,-5.146396756E-1
4.378162042E0,1.668807387E0,-9.649300575E0,-5.258077979E-1
4.398350688E0,1.685586572E0,-9.645909309E0,-5.344197154E-1
4.418540897E0,1.701279163E0,-9.642912865E0,-5.387631059E-1
4.438732459E0,1.712687135E0,-9.640358925E0,-5.482427478E-1
4.458925063E0,1.726457119E0,-9.636889458E0,-5.657721758E-1
4.479118501E0,1.743830562E0,-9.632948875E0,-5.794315338E-1
4.499312459E0,1.759067416E0,-9.629783630E0,-5.859552026E-1
4.519506626E0,1.769621611E0,-9.627553940E0,-5.907853842E-1
4.539699751E0,1.775740981E0,-9.626302719E0,-5.928087234E-1
4.559886522E0,1.778369069E0,-9.625817299E0,-5.928106308E-1
4.580067876E0,1.780560613E0,-9.625422478E0,-5.926645398E-1
4.600249647E0,1.781126380E0,-9.625274658E0,-5.933369994E-1
4.620432042E0,1.780200720E0,-9.625585556E0,-5.910740495E-1
4.640615167E0,1.776111960E0,-9.626639366E0,-5.862036347E-1
4.660799126E0,1.770209312E0,-9.627991676E0,-5.818192959E-1
4.680984022E0,1.765517116E0,-9.629107475E0,-5.775926709E-1
4.701169855E0,1.762674928E0,-9.629911423E0,-5.728584528E-1
4.721356626E0,1.761390328E0,-9.630420685E0,-5.682222247E-1
4.741544334E0,1.763197899E0,-9.630364418E0,-5.635734797E-1
4.761732876E0,1.767080665E0,-9.629904747E0,-5.592390299E-1
4.781922147E0,1.769089937E0,-9.629578590E0,-5.585032701E-1
4.802112042E0,1.768904209E0,-9.629352570E0,-5.629829764E-1
4.822302459E0,1.768555522E0,-9.629120827E0,-5.679988265E-1
4.842493188E0,1.767991900E0,-9.629114151E0,-5.698564649E-1
4.862684022E0,1.767287731E0,-9.629012108E0,-5.737655163E-1
4.882885688E0,1.769172430E0,-9.628175735E0,-5.819342136E-1
4.903062355E0,1.776009679E0,-9.626444817E0,-5.896920562E-1
4.923239334E0,1.788347244E0,-9.623896599E0,-5.939897895E-1
4.943417042E0,1.787561297E0,-9.624207497E0,-5.913121700E-1
4.963595792E0,1.774931788E0,-9.627294540E0,-5.789768100E-1
4.983775897E0,1.765039086E0,-9.630268097E0,-5.594285131E-1
5.003957563E0,1.758977175E0,-9.632809639E0,-5.341879725E-1
5.024140897E0,1.755494356E0,-9.634421349E0,-5.162803531E-1
5.044326001E0,1.755337238E0,-9.634746552E0,-5.107316971E-1
5.064512876E0,1.755860448E0,-9.634766579E0,-5.085514784E-1
5.084701417E0,1.751894355E0,-9.635619164E0,-5.060577393E-1
5.104891522E0,1.738317013E0,-9.638130188E0,-5.050675869E-1
5.125082980E0,1.715459943E0,-9.642352104E0,-5.026206374E-1
5.145275584E0,1.687981963E0,-9.647527695E0,-4.962937832E-1
5.165469022E0,1.664420366E0,-9.651953697E0,-4.897847176E-1
5.185662980E0,1.648485065E0,-9.654838562E0,-4.868051410E-1
5.205857147E0,1.640320778E0,-9.656185150E0,-4.876751900E-1
5.226045897E0,1.639574409E0,-9.656244278E0,-4.890141189E-1
5.246234751E0,1.640622854E0,-9.656003952E0,-4.902399182E-1
5.266434438E0,1.642043829E0,-9.655514717E0,-4.950880110E-1
5.286611834E0,1.646653652E0,-9.654384613E0,-5.017833114E-1
5.306789542E0,1.650703311E0,-9.653653145E0,-5.025480986E-1
5.326967876E0,1.657037973E0,-9.652352333E0,-5.066695213E-1
5.347147251E0,1.671544671E0,-9.649255753E0,-5.178653002E-1
5.367327876E0,1.692761779E0,-9.645068169E0,-5.268809199E-1
5.387509959E0,1.715190768E0,-9.640811920E0,-5.321979523E-1
5.407693605E0,1.735035539E0,-9.637104988E0,-5.350207090E-1
5.427878917E0,1.748711348E0,-9.634417534E0,-5.388856530E-1
5.448065897E0,1.758409858E0,-9.631843567E0,-5.531384349E-1
5.468254438E0,1.770125747E0,-9.628437042E0,-5.746745467E-1
5.488444438E0,1.786537766E0,-9.624484062E0,-5.898882151E-1
5.508635688E0,1.798764348E0,-9.622272491E0,-5.888128281E-1
5.528827980E0,1.798699856E0,-9.623068810E0,-5.758595467E-1
5.549021001E0,1.787513733E0,-9.625853539E0,-5.640356541E-1
5.569214542E0,1.767179608E0,-9.630056381E0,-5.563058853E-1
5.589408292E0,1.739682198E0,-9.635090828E0,-5.558223128E-1
5.609600688E0,1.713651180E0,-9.639095306E0,-5.671411157E-1
5.629787563E0,1.698148251E0,-9.641067505E0,-5.800905228E-1
5.649974334E0,1.693561554E0,-9.641811371E0,-5.811442137E-1
5.670155688E0,1.693121672E0,-9.642487526E0,-5.710992813E-1
5.690337459E0,1.691573977E0,-9.643576622E0,-5.571308136E-1
5.710519751E0,1.691782475E0,-9.644372940E0,-5.425140858E-1
5.730702772E0,1.698405385E0,-9.644108772E0,-5.262892246E-1
5.750886626E0,1.702933431E0,-9.644368172E0,-5.065397620E-1
5.771071417E0,1.696586490E0,-9.646864891E0,-4.795676172E-1
5.791257147E0,1.677186370E0,-9.651514053E0,-4.535494447E-1
5.811443813E0,1.650077462E0,-9.656464577E0,-4.475750625E-1
5.831631417E0,1.634682894E0,-9.657729149E0,-4.758739471E-1
5.851819855E0,1.620271564E0,-9.659021378E0,-4.984072447E-1
5.872009126E0,1.615755796E0,-9.658114433E0,-5.296635032E-1
5.892199022E0,1.617869854E0,-9.656036377E0,-5.602329969E-1
5.912389438E0,1.622621536E0,-9.654799461E0,-5.677396059E-1
5.932580167E0,1.629810691E0,-9.653638840E0,-5.668956041E-1
5.952771105E0,1.633497357E0,-9.652517319E0,-5.753083825E-1
5.972972876E0,1.642904639E0,-9.649705887E0,-5.953488946E-1
5.993149959E0,1.660540581E0,-9.645498276E0,-6.142758727E-1
6.013327355E0,1.676319838E0,-9.642117500E0,-6.244230866E-1
6.033505480E0,1.679972410E0,-9.641304970E0,-6.271737218E-1
6.053684647E0,1.672722459E0,-9.642543793E0,-6.274967790E-1
6.073865063E0,1.658360124E0,-9.644638062E0,-6.333895326E-1
6.094046938E0,1.640277028E0,-9.646897316E0,-6.459509730E-1
6.114230480E0,1.636055470E0,-9.646970749E0,-6.554796696E-1
6.134415688E0,1.651257873E0,-9.644165993E0,-6.586285830E-1
6.154602563E0,1.669675231E0,-9.640471458E0,-6.662319303E-1
6.174791105E0,1.678505778E0,-9.638125420E0,-6.778934002E-1
6.194981105E0,1.675877810E0,-9.637691498E0,-6.904526949E-1
6.215172355E0,1.667237639E0,-9.637716293E0,-7.107335329E-1
6.235364647E0,1.658037543E0,-9.637533188E0,-7.343305945E-1
6.255557772E0,1.646551371E0,-9.637807846E0,-7.562462687E-1
6.275751417E0,1.632446647E0,-9.638730049E0,-7.748452425E-1
6.295945272E0,1.626520038E0,-9.638339996E0,-7.919713855E-1
6.316138813E0,1.635132074E0,-9.635366440E0,-8.102182746E-1
6.336325688E0,1.655920625E0,-9.630657196E0,-8.238635063E-1
6.356512459E0,1.681954026E0,-9.625059128E0,-8.364486694E-1
6.376693813E0,1.697408080E0,-9.621859550E0,-8.420354128E-1
6.396875584E0,1.703814983E0,-9.620158195E0,-8.485043049E-1
6.417057876E0,1.707376480E0,-9.618050575E0,-8.650770783E-1
6.437240897E0,1.714819431E0,-9.614582062E0,-8.885957003E-1
6.457424751E0,1.728937626E0,-9.609324455E0,-9.176391363E-1
6.477609542E0,1.751963735E0,-9.602518082E0,-9.448073506E-1
6.497795272E0,1.774517894E0,-9.596170425E0,-9.669367671E-1
6.517981938E0,1.787141204E0,-9.592234612E0,-9.826208353E-1
6.538169542E0,1.785399914E0,-9.592129707E0,-9.868077636E-1
6.558357980E0,1.770065188E0,-9.594999313E0,-9.865232706E-1
6.578547251E0,1.762585282E0,-9.595039368E0,-9.994424582E-1
6.598737147E0,1.769299984E0,-9.592908859E0,-1.007997274E0
6.618927563E0,1.771136403E0,-9.592735291E0,-1.006423116E0
6.639118292E0,1.765195966E0,-9.593140602E0,-1.012979984E0
6.659309230E0,1.765922546E0,-9.591219902E0,-1.029757500E0
6.679511001E0,1.780333757E0,-9.586353302E0,-1.050063610E0
6.699688084E0,1.805047631E0,-9.580415726E0,-1.061984658E0
6.719865480E0,1.825532556E0,-9.576235771E0,-1.064669728E0
6.740043605E0,1.832650542E0,-9.573738098E0,-1.074860096E0
6.760222772E0,1.842368841E0,-9.570072174E0,-1.090762734E0
6.780403188E0,1.854649305E0,-9.567252159E0,-1.094693184E0
6.800585063E0,1.861653924E0,-9.566815376E0,-1.086588979E0
6.820768605E0,1.866992593E0,-9.567368507E0,-1.072465777E0
6.840953813E0,1.867029428E0,-9.568439484E0,-1.062796950E0
6.861140688E0,1.868156910E0,-9.567925453E0,-1.065447927E0
6.881329230E0,1.876189709E0,-9.565513611E0,-1.072959900E0
6.901519230E0,1.879760981E0,-9.564079285E0,-1.079475760E0
6.921710480E0,1.881224751E0,-9.562826157E0,-1.087998509E0
6.941902772E0,1.899165750E0,-9.558565140E0,-1.094256997E0
6.962095897E0,1.922305346E0,-9.553977013E0,-1.093912840E0
6.982289542E0,1.927438378E0,-9.554152489E0,-1.083294392E0
7.002483397E0,1.910606146E0,-9.558729172E0,-1.072694540E0
7.022676938E0,1.885277152E0,-9.563495636E0,-1.075024128E0
7.042863709E0,1.879888535E0,-9.562641144E0,-1.091925979E0
7.063045063E0,1.884863138E0,-9.559856415E0,-1.107622147E0
7.083226834E0,1.880379438E0,-9.560476303E0,-1.109883904E0
7.103409126E0,1.868910670E0,-9.564002991E0,-1.098820686E0
7.123592147E0,1.851850986E0,-9.569725037E0,-1.077685595E0
7.143776001E0,1.825642824E0,-9.576878548E0,-1.058680296E0
7.163960792E0,1.800625920E0,-9.582718849E0,-1.048633099E0
7.184146522E0,1.787145734E0,-9.585830688E0,-1.043240786E0
7.204333188E0,1.785529733E0,-9.586440086E0,-1.040407538E0
7.224520792E0,1.796201110E0,-9.584294319E0,-1.041809320E0
7.244709230E0,1.814453125E0,-9.580094337E0,-1.048781037E0
7.264898501E0,1.839460969E0,-9.574479103E0,-1.056466818E0
7.285088397E0,1.865992188E0,-9.568799019E0,-1.061383367E0
7.305278813E0,1.883415937E0,-9.564339638E0,-1.070757508E0
7.325469542E0,1.887244582E0,-9.562018394E0,-1.084666967E0
7.345660480E0,1.885396719E0,-9.561094284E0,-1.095970154E0
7.365862251E0,1.890608907E0,-9.559206009E0,-1.103437662E0
7.386039334E0,1.891789794E0,-9.558467865E0,-1.107804656E0
7.406216730E0,1.883657575E0,-9.559581757E0,-1.112025023E0
7.426394855E0,1.876491547E0,-9.560390472E0,-1.117184997E0
7.446574022E0,1.874921322E0,-9.560390472E0,-1.119814157E0
7.466754438E0,1.875822663E0,-9.560309410E0,-1.118997335E0
7.486936313E0,1.882722020E0,-9.558910370E0,-1.119360685E0
7.507119855E0,1.892199039E0,-9.556995392E0,-1.119736552E0
7.527305063E0,1.898525238E0,-9.555315971E0,-1.123357177E0
7.547491938E0,1.904508591E0,-9.553006172E0,-1.132836938E0
7.567680480E0,1.910069346E0,-9.550106049E0,-1.147823215E0
7.587870480E0,1.918723464E0,-9.546950340E0,-1.159577847E0
7.608061730E0,1.921734214E0,-9.545816422E0,-1.163922548E0
7.628254022E0,1.912012815E0,-9.547893524E0,-1.162889123E0
7.648447147E0,1.894136667E0,-9.552390099E0,-1.155194998E0
7.668640792E0,1.877638459E0,-9.555968285E0,-1.152528763E0
7.688834647E0,1.873088837E0,-9.556141853E0,-1.158486962E0
7.709028084E0,1.881550670E0,-9.553788185E0,-1.164170146E0
7.729214855E0,1.889916420E0,-9.552080154E0,-1.164632678E0
7.749396209E0,1.889630318E0,-9.552297592E0,-1.163303614E0
7.769577980E0,1.884775281E0,-9.552971840E0,-1.165646553E0
7.789760272E0,1.877457619E0,-9.553627968E0,-1.172066808E0
7.809943292E0,1.872297168E0,-9.553797722E0,-1.178918123E0
7.830127147E0,1.874612093E0,-9.552435875E0,-1.186242580E0
7.850311938E0,1.881109595E0,-9.550016403E0,-1.195408940E0
7.870497667E0,1.886959910E0,-9.547387123E0,-1.207136035E0
7.890684334E0,1.889420629E0,-9.545557022E0,-1.217710853E0
7.910871938E0,1.894677877E0,-9.543825150E0,-1.223105788E0
7.931060376E0,1.904364467E0,-9.541775703E0,-1.224049687E0
7.951249647E0,1.911206007E0,-9.540583611E0,-1.222671986E0
7.971439542E0,1.909716368E0,-9.541002274E0,-1.221734643E0
7.991629959E0,1.903136849E0,-9.541992188E0,-1.224274278E0
8.011820688E0,1.898862481E0,-9.542234421E0,-1.229009628E0
8.032011626E0,1.899139404E0,-9.541872025E0,-1.231391311E0
8.052213397E0,1.904406428E0,-9.541403770E0,-1.226876497E0
8.072390480E0,1.907032728E0,-9.542526245E0,-1.213999867E0
8.092567876E0,1.902676702E0,-9.545219421E0,-1.199582577E0
8.112746001E0,1.894414306E0,-9.547904968E0,-1.191252112E0
8.132925167E0,1.885657191E0,-9.550206184E0,-1.186689496E0
8.153105584E0,1.877935410E0,-9.552207947E0,-1.182820678E0
8.173287459E0,1.871747613E0,-9.553797722E0,-1.179783344E0
8.193471001E0,1.867454052E0,-9.555141449E0,-1.175703049E0
8.213656209E0,1.863741040E0,-9.556599617E0,-1.169725537E0
8.233843084E0,1.861642718E0,-9.557631493E0,-1.164618969E0
8.254031626E0,1.862714767E0,-9.557817459E0,-1.161380410E0
8.274221626E0,1.863244891E0,-9.558015823E0,-1.158897638E0
8.294412876E0,1.861047506E0,-9.558594704E0,-1.157654524E0
8.314605167E0,1.859148383E0,-9.558894157E0,-1.158238769E0
8.334798292E0,1.858009458E0,-9.559063911E0,-1.158649445E0
8.354991938E0,1.854383111E0,-9.559997559E0,-1.156758428E0
8.375185792E0,1.850292802E0,-9.561122894E0,-1.154012322E0
8.395379230E0,1.846991420E0,-9.562097549E0,-1.151223302E0
8.415566001E0,1.845231652E0,-9.562920570E0,-1.147196293E0
8.435747355E0,1.843111396E0,-9.563802719E0,-1.143241882E0
8.455929126E0,1.840679765E0,-9.564475060E0,-1.141534090E0
8.476111417E0,1.839761138E0,-9.564794540E0,-1.140339375E0
8.496294438E0,1.840231419E0,-9.564809799E0,-1.139452577E0
8.516478292E0,1.840466857E0,-9.565047264E0,-1.137075782E0
8.536663084E0,1.838958740E0,-9.565634727E0,-1.134572744E0
8.556848813E0,1.836743116E0,-9.566126823E0,-1.134016514E0
8.577035480E0,1.834505200E0,-9.566626549E0,-1.133423805E0
8.597223084E0,1.832104087E0,-9.567509651E0,-1.129841328E0
8.617411522E0,1.827188849E0,-9.569079399E0,-1.124488235E0
8.637600792E0,1.823056459E0,-9.570538521E0,-1.118770838E0
8.657790688E0,1.818346262E0,-9.572608948E0,-1.108669043E0
8.677981105E0,1.810357690E0,-9.575346947E0,-1.098056316E0
8.698171834E0,1.804557681E0,-9.577168465E0,-1.091700315E0
8.718362772E0,1.802692771E0,-9.578177452E0,-1.085917234E0
8.738564542E0,1.801873684E0,-9.579442978E0,-1.076065063E0
8.758741626E0,1.800156832E0,-9.581017494E0,-1.064854503E0
8.778919022E0,1.798064351E0,-9.582903862E0,-1.051333070E0
8.799097147E0,1.795269489E0,-9.585510254E0,-1.032169223E0
8.819276313E0,1.789869547E0,-9.589148521E0,-1.007462502E0
8.839456730E0,1.779038906E0,-9.593983650E0,-9.802477360E-1
8.859638605E0,1.767339468E0,-9.598820686E0,-9.536931515E-1
8.879822147E0,1.760797024E0,-9.602611542E0,-9.272710085E-1
8.900007355E0,1.760359764E0,-9.605482101E0,-8.979017735E-1
8.920194230E0,1.765032768E0,-9.607548714E0,-8.660537601E-1
8.940382772E0,1.770105124E0,-9.610055923E0,-8.269989491E-1
8.960572772E0,1.765630126E0,-9.614175797E0,-7.877547741E-1
8.980764022E0,1.745881796E0,-9.618444443E0,-7.796205282E-1
9.000956313E0,1.726373672E0,-9.619365692E0,-8.110607266E-1
9.021149438E0,1.727850556E0,-9.616740227E0,-8.385882378E-1
9.041343084E0,1.746239066E0,-9.614300728E0,-8.284114003E-1
9.061536938E0,1.769080520E0,-9.613300323E0,-7.906997800E-1
9.081730272E0,1.781113982E0,-9.613610268E0,-7.592918873E-1
9.101917147E0,1.783023357E0,-9.613606453E0,-7.548443079E-1
9.122103917E0,1.779780626E0,-9.612421989E0,-7.772441506E-1
9.142285272E0,1.778221965E0,-9.610398293E0,-8.053339124E-1
9.162467042E0,1.785544991E0,-9.608472824E0,-8.120657802E-1
9.182649334E0,1.795617938E0,-9.608126640E0,-7.937620282E-1
9.202832355E0,1.801053047E0,-9.609470367E0,-7.646418810E-1
9.223016209E0,1.802311420E0,-9.611443520E0,-7.363566756E-1
9.243201001E0,1.800352216E0,-9.613374710E0,-7.156503201E-1
9.263386730E0,1.793919921E0,-9.615434647E0,-7.040277719E-1
9.283573397E0,1.785506606E0,-9.617123604E0,-7.023380995E-1
9.303761001E0,1.775425911E0,-9.618757248E0,-7.055109739E-1
9.323949438E0,1.769076228E0,-9.619676590E0,-7.089251280E-1
9.344138605E0,1.765730500E0,-9.620369911E0,-7.078602910E-1
9.364328397E0,1.762891412E0,-9.621335983E0,-7.017894983E-1
9.384518709E0,1.761444569E0,-9.622082710E0,-6.951436996E-1
9.404709334E0,1.762097239E0,-9.622570038E0,-6.866900921E-1
9.424900167E0,1.761364341E0,-9.623526573E0,-6.750801802E-1
9.445101834E0,1.760241032E0,-9.624444962E0,-6.648241878E-1
9.465279334E0,1.761861920E0,-9.624732971E0,-6.563085914E-1
9.485457147E0,1.764910221E0,-9.624782562E0,-6.473376155E-1
9.505635584E0,1.765795350E0,-9.625313759E0,-6.369385123E-1
9.525814959E0,1.767147064E0,-9.625459671E0,-6.309664249E-1
9.545995584E0,1.768479228E0,-9.625221252E0,-6.308683753E-1
9.566177667E0,1.766995192E0,-9.625263214E0,-6.343598366E-1
9.586361313E0,1.765944123E0,-9.625148773E0,-6.390193105E-1
9.606546626E0,1.765941024E0,-9.625100136E0,-6.397621632E-1
9.626733605E0,1.762733698E0,-9.625904083E0,-6.365000606E-1
9.646922147E0,1.755887747E0,-9.627270699E0,-6.347410679E-1
9.667112147E0,1.745939732E0,-9.629005432E0,-6.358764172E-1
9.687303397E0,1.733342171E0,-9.631186485E0,-6.373162866E-1
9.707495688E0,1.720657110E0,-9.633304596E0,-6.396613717E-1
9.727688709E0,1.709285498E0,-9.635327339E0,-6.396874189E-1
9.747882147E0,1.698597312E0,-9.637375832E0,-6.372987032E-1
9.768075792E0,1.688391328E0,-9.639028549E0,-6.394094825E-1
9.788267980E0,1.680335641E0,-9.639964104E0,-6.464983821E-1
9.808454751E0,1.673143268E0,-9.640820503E0,-6.523542404E-1
9.828636105E0,1.667188048E0,-9.641679764E0,-6.548925638E-1
9.848817876E0,1.663287282E0,-9.642281532E0,-6.559503078E-1
9.869000167E0,1.663988113E0,-9.642129898E0,-6.563940644E-1
9.889183188E0,1.670573235E0,-9.640668869E0,-6.611201763E-1
9.909367042E0,1.684068799E0,-9.637902260E0,-6.671800017E-1
9.929551834E0,1.700670362E0,-9.634724617E0,-6.709474921E-1
9.949737563E0,1.715355277E0,-9.631793022E0,-6.756640077E-1
9.969924230E0,1.723416448E0,-9.630138397E0,-6.787223816E-1
9.990111834E0,1.723034978E0,-9.630212784E0,-6.786263585E-1
1.001030027E1,1.720322132E0,-9.630760193E0,-6.777332425E-1
1.003048944E1,1.719360590E0,-9.631031036E0,-6.763429642E-1
1.005067923E1,1.720972896E0,-9.630854607E0,-6.747534871E-1
1.007086954E1,1.724951982E0,-9.630002022E0,-6.767424941E-1
1.009106017E1,1.729205489E0,-9.629189491E0,-6.774615049E-1
1.011125100E1,1.729557395E0,-9.629162788E0,-6.769346595E-1
1.013145267E1,1.727272987E0,-9.629489899E0,-6.781316400E-1
1.015163017E1,1.724512219E0,-9.629855156E0,-6.799482107E-1
1.017180798E1,1.721345901E0,-9.630364418E0,-6.807666421E-1
1.019198642E1,1.717605948E0,-9.630975723E0,-6.815671921E-1
1.021216579E1,1.716373682E0,-9.630983353E0,-6.845518351E-1
1.023234642E1,1.719899774E0,-9.630006790E0,-6.894286871E-1
1.025252850E1,1.725320697E0,-9.628797531E0,-6.927595735E-1
1.027271215E1,1.730842590E0,-9.627805710E0,-6.927634478E-1
1.029289746E1,1.734802723E0,-9.627227783E0,-6.908984184E-1
1.031308444E1,1.736581087E0,-9.627011299E0,-6.894190907E-1
1.033327298E1,1.736989021E0,-9.626890182E0,-6.901009679E-1
1.035346298E1,1.737306833E0,-9.626818657E0,-6.903021932E-1
1.037365423E1,1.738991261E0,-9.626696587E0,-6.877489686E-1
1.039384652E1,1.740257859E0,-9.626738548E0,-6.839616299E-1
1.041403954E1,1.740041256E0,-9.626964569E0,-6.813206077E-1
1.043423298E1,1.739402294E0,-9.627102852E0,-6.809960604E-1
1.045442663E1,1.737699151E0,-9.627427101E0,-6.807607412E-1
1.047461881E1,1.732669115E0,-9.628421783E0,-6.795216799E-1
1.049480558E1,1.724510074E0,-9.629926682E0,-6.789408326E-1
1.051498694E1,1.716041684E0,-9.631397247E0,-6.795472503E-1
1.053516871E1,1.708193898E0,-9.632789612E0,-6.795742512E-1
1.055535100E1,1.701924920E0,-9.633900642E0,-6.795560122E-1
1.057553402E1,1.696888804E0,-9.634897232E0,-6.780155301E-1
1.059571788E1,1.690752983E0,-9.636308670E0,-6.732683778E-1
1.061590267E1,1.683665514E0,-9.637682915E0,-6.713559628E-1
1.063608840E1,1.677886248E0,-9.638731956E0,-6.707571745E-1
1.065627506E1,1.674683094E0,-9.639634132E0,-6.657926440E-1
1.067646267E1,1.675609827E0,-9.639868736E0,-6.600357294E-1
1.069665110E1,1.680750251E0,-9.639292717E0,-6.553688049E-1
1.071684027E1,1.689021468E0,-9.638033867E0,-6.526156068E-1
1.073703006E1,1.695594788E0,-9.637392998E0,-6.449808478E-1
1.075722038E1,1.693772197E0,-9.638583183E0,-6.318560243E-1
1.077741100E1,1.683537722E0,-9.641068459E0,-6.212055683E-1
1.079760183E1,1.668184757E0,-9.643793106E0,-6.203281879E-1
1.081780350E1,1.652145505E0,-9.646055222E0,-6.280363202E-1
1.083798079E1,1.639909744E0,-9.647490501E0,-6.379758716E-1
1.085815840E1,1.636557579E0,-9.647557259E0,-6.455411315E-1
1.087833673E1,1.642814279E0,-9.646018982E0,-6.525862217E-1
1.089851610E1,1.652615190E0,-9.643271446E0,-6.682646275E-1
1.091869673E1,1.650817871E0,-9.641544342E0,-6.970083714E-1
1.093887881E1,1.643454909E0,-9.641526222E0,-7.144444585E-1
1.095906246E1,1.654443622E0,-9.640707970E0,-6.999709010E-1
1.097924777E1,1.683293939E0,-9.638282776E0,-6.636292934E-1
1.099943475E1,1.702822924E0,-9.636616707E0,-6.374885440E-1
1.101962329E1,1.702249169E0,-9.636616707E0,-6.390290856E-1
1.103981329E1,1.694810867E0,-9.637398720E0,-6.469552517E-1
1.106000454E1,1.695697784E0,-9.637295723E0,-6.461451054E-1
1.108019683E1,1.698637605E0,-9.637192726E0,-6.399545074E-1
1.110038986E1,1.698188543E0,-9.637632370E0,-6.344893575E-1
1.112058329E1,1.693943381E0,-9.638432503E0,-6.336853504E-1
1.114077694E1,1.691332221E0,-9.638702393E0,-6.365522742E-1
1.116096933E1,1.696038365E0,-9.637702942E0,-6.391515732E-1
1.118115611E1,1.705674887E0,-9.636125565E0,-6.372860074E-1
1.120133746E1,1.714510083E0,-9.635012627E0,-6.303744912E-1
1.122151923E1,1.720240235E0,-9.634587288E0,-6.211948991E-1
1.124170152E1,1.720188618E0,-9.635119438E0,-6.130397916E-1
1.126188454E1,1.716982365E0,-9.635962486E0,-6.087526083E-1
1.128206840E1,1.716432571E0,-9.635978699E0,-6.100490093E-1
1.130225319E1,1.718263745E0,-9.634797096E0,-6.234102845E-1
1.132243892E1,1.720544815E0,-9.632205963E0,-6.562859416E-1
1.134262558E1,1.719579697E0,-9.629290581E0,-7.001209259E-1
1.136281319E1,1.719502807E0,-9.626673698E0,-7.354176044E-1
1.138300163E1,1.724573731E0,-9.625839233E0,-7.344732881E-1
1.140319079E1,1.722839117E0,-9.628924370E0,-6.971734762E-1
1.142338058E1,1.716620207E0,-9.633402824E0,-6.489675045E-1
1.144357090E1,1.716480136E0,-9.635915756E0,-6.109314561E-1
1.146376152E1,1.721364737E0,-9.636344910E0,-5.900410414E-1
1.148395236E1,1.725607276E0,-9.635807037E0,-5.864142179E-1
1.150415402E1,1.723860741E0,-9.635945320E0,-5.892838240E-1
1.152433131E1,1.716880798E0,-9.636995316E0,-5.924777389E-1
1.154450892E1,1.707979083E0,-9.638667107E0,-5.910098553E-1
1.156468725E1,1.697796822E0,-9.640886307E0,-5.841220617E-1
1.158486663E1,1.687144279E0,-9.643149376E0,-5.775856376E-1
1.160504725E1,1.680410743E0,-9.644193649E0,-5.797711611E-1
1.162522933E1,1.679992199E0,-9.643683434E0,-5.893951654E-1
1.164541298E1,1.680703640E0,-9.642880440E0,-6.004028320E-1
1.166559829E1,1.683048725E0,-9.641758919E0,-6.117351055E-1
1.168578527E1,1.688115239E0,-9.640179634E0,-6.225593686E-1
1.170597381E1,1.693688035E0,-9.638510704E0,-6.331958771E-1
1.172616381E1,1.699402213E0,-9.636742592E0,-6.446719766E-1
1.174635506E1,1.705719471E0,-9.634797096E0,-6.569598317E-1
1.176654736E1,1.710774422E0,-9.633220673E0,-6.668544412E-1
1.178674038E1,1.712661028E0,-9.632474899E0,-6.727698445E-1
1.180693381E1,1.711870551E0,-9.632571220E0,-6.733824015E-1
1.182712746E1,1.709606528E0,-9.633190155E0,-6.702666879E-1
1.184731975E1,1.704859734E0,-9.634392738E0,-6.650630236E-1
1.186750652E1,1.701937556E0,-9.635128975E0,-6.618858576E-1
1.188768788E1,1.703733563E0,-9.634828568E0,-6.616417170E-1
1.190786965E1,1.709381700E0,-9.633734703E0,-6.629987955E-1
1.192805194E1,1.711699486E0,-9.633274078E0,-6.637135148E-1
1.194823496E1,1.708385706E0,-9.633811951E0,-6.644230485E-1
1.196841881E1,1.705384374E0,-9.634428024E0,-6.632129550E-1
1.198860361E1,1.703990698E0,-9.634812355E0,-6.612064242E-1
1.200878933E1,1.702767372E0,-9.635127068E0,-6.597651839E-1
1.202897600E1,1.701000571E0,-9.635351181E0,-6.610594392E-1
1.204916360E1,1.700375676E0,-9.635114670E0,-6.660885811E-1
1.206935204E1,1.699661136E0,-9.634778023E0,-6.727509499E-1
1.208954121E1,1.700323582E0,-9.634159088E0,-6.799054146E-1
1.210973100E1,1.702581406E0,-9.633539200E0,-6.830227971E-1
1.212992131E1,1.699684024E0,-9.634264946E0,-6.799970269E-1
1.215011194E1,1.693663001E0,-9.635695457E0,-6.747340560E-1
1.217030277E1,1.687875390E0,-9.637063980E0,-6.696684957E-1
1.219050444E1,1.682436466E0,-9.638108253E0,-6.683261395E-1
1.221068173E1,1.679553509E0,-9.638299942E0,-6.727931499E-1
1.223085933E1,1.681042790E0,-9.637612343E0,-6.789070368E-1
1.225103767E1,1.685999393E0,-9.636426926E0,-6.834175587E-1
1.227121704E1,1.692124605E0,-9.635066986E0,-6.874472499E-1
1.229139767E1,1.695711613E0,-9.634000778E0,-6.935264468E-1
1.231157975E1,1.697153449E0,-9.633127213E0,-7.020738721E-1
1.233176340E1,1.699033022E0,-9.632318497E0,-7.086122632E-1
1.235194871E1,1.700440526E0,-9.631859779E0,-7.114635706E-1
1.237213569E1,1.697476864E0,-9.632232666E0,-7.134673595E-1
1.239232423E1,1.693007708E0,-9.632634163E0,-7.186564803E-1
1.241251423E1,1.692122817E0,-9.632334709E0,-7.247290015E-1
1.243270548E1,1.694348693E0,-9.631668091E0,-7.283768058E-1
1.245289777E1,1.696468830E0,-9.631144524E0,-7.303573489E-1
1.247309079E1,1.696578503E0,-9.630982399E0,-7.322590947E-1
1.249328423E1,1.696825743E0,-9.630794525E0,-7.341442108E-1
1.251347788E1,1.697850347E0,-9.630329132E0,-7.378709316E-1
1.253367017E1,1.700283408E0,-9.629463196E0,-7.435452342E-1
1.255385694E1,1.704363942E0,-9.628423691E0,-7.476558685E-1
1.257403829E1,1.705023646E0,-9.628337860E0,-7.472539544E-1
1.259422006E1,1.702599406E0,-9.629014969E0,-7.440540195E-1
1.261440236E1,1.699077249E0,-9.629708290E0,-7.431274652E-1
1.263458538E1,1.696350694E0,-9.629931450E0,-7.464610338E-1
1.265476923E1,1.696389675E0,-9.629596710E0,-7.506704926E-1
1.267495402E1,1.698365331E0,-9.629104614E0,-7.525272965E-1
1.269513975E1,1.703040242E0,-9.628132820E0,-7.543879747E-1
1.271532642E1,1.711155415E0,-9.626363754E0,-7.585884333E-1
1.273551402E1,1.716889977E0,-9.624974251E0,-7.632423043E-1
1.275570246E1,1.718406558E0,-9.624428749E0,-7.667100430E-1
1.277589163E1,1.717742801E0,-9.624294281E0,-7.698802352E-1
1.279608142E1,1.717397571E0,-9.624292374E0,-7.706647515E-1
1.281627173E1,1.718421817E0,-9.624105453E0,-7.707235813E-1
1.283646236E1,1.720329523E0,-9.623762131E0,-7.707524300E-1
1.285665319E1,1.721700191E0,-9.623510361E0,-7.708314657E-1
1.287685486E1,1.721080184E0,-9.623568535E0,-7.714908719E-1
1.289703215E1,1.720062852E0,-9.623678207E0,-7.723960280E-1
1.291720975E1,1.719300508E0,-9.623681068E0,-7.740492225E-1
1.293738808E1,1.717772126E0,-9.623861313E0,-7.751972675E-1
1.295756746E1,1.717763186E0,-9.623639107E0,-7.779814005E-1
1.297774808E1,1.719534636E0,-9.623195648E0,-7.795475125E-1
1.299793017E1,1.722688794E0,-9.622488976E0,-7.812883258E-1
1.301811381E1,1.725397110E0,-9.621766090E0,-7.842249870E-1
1.303829913E1,1.726800919E0,-9.621504784E0,-7.843472362E-1
1.305848610E1,1.727040172E0,-9.621760368E0,-7.806624174E-1
1.307867465E1,1.723938346E0,-9.622699738E0,-7.759387493E-1
1.309886465E1,1.715314150E0,-9.624207497E0,-7.763440609E-1
1.311905590E1,1.706910729E0,-9.625375748E0,-7.803664207E-1
1.313924819E1,1.700512528E0,-9.626363754E0,-7.821514606E-1
1.315944121E1,1.698055148E0,-9.626841545E0,-7.816175818E-1
1.317963465E1,1.697879195E0,-9.626910210E0,-7.811424136E-1
1.319982829E1,1.698973179E0,-9.626742363E0,-7.808455825E-1
1.322002058E1,1.699609995E0,-9.626772881E0,-7.790732384E-1
1.324020736E1,1.697186947E0,-9.627199173E0,-7.790937424E-1
1.326038871E1,1.690923691E0,-9.627767563E0,-7.856526971E-1
1.328057048E1,1.683369398E0,-9.628512383E0,-7.927121520E-1
1.330075277E1,1.674987555E0,-9.629787445E0,-7.949851155E-1
1.332093579E1,1.665135264E0,-9.631600380E0,-7.937206626E-1
1.334111965E1,1.653694630E0,-9.633713722E0,-7.919796705E-1
1.336130444E1,1.639161587E0,-9.636161804E0,-7.924150825E-1
1.338149017E1,1.624744296E0,-9.638577461E0,-7.927306294E-1
1.340167683E1,1.611417413E0,-9.641122818E0,-7.889810205E-1
1.342186444E1,1.598529935E0,-9.643781662E0,-7.826775908E-1
1.344205288E1,1.585311055E0,-9.646371841E0,-7.776201367E-1
1.346224204E1,1.574034095E0,-9.648388863E0,-7.754915953E-1
1.348243183E1,1.568493247E0,-9.649194717E0,-7.766872048E-1
1.350262215E1,1.567244887E0,-9.649350166E0,-7.772869468E-1
1.352281277E1,1.567901254E0,-9.649620056E0,-7.726004720E-1
1.354300361E1,1.568727732E0,-9.649931908E0,-7.670020461E-1
1.356320527E1,1.567482352E0,-9.650261879E0,-7.653937340E-1
1.358338267E1,1.562877417E0,-9.650634766E0,-7.701051235E-1
1.360356038E1,1.559386134E0,-9.650694847E0,-7.763885260E-1
1.362373871E1,1.558004737E0,-9.650731087E0,-7.787165046E-1
1.364391798E1,1.554886818E0,-9.651084900E0,-7.805640101E-1
1.366409850E1,1.546653986E0,-9.651711464E0,-7.891173959E-1
1.368428048E1,1.536674261E0,-9.651540756E0,-8.104091883E-1
1.370446402E1,1.527258635E0,-9.650226593E0,-8.432024121E-1
1.372464923E1,1.516879320E0,-9.648309708E0,-8.829398751E-1
1.374483611E1,1.507677913E0,-9.645523071E0,-9.279996753E-1
1.376502454E1,1.502477884E0,-9.642155647E0,-9.704580307E-1
1.378521444E1,1.500450253E0,-9.638919830E0,-1.005112052E0
1.380540558E1,1.504934311E0,-9.635510445E0,-1.030773520E0
1.382559777E1,1.518911958E0,-9.632160187E0,-1.041534066E0
1.384579079E1,1.534880996E0,-9.629356384E0,-1.044036031E0
1.386598433E1,1.547508121E0,-9.627085686E0,-1.046346664E0
1.388617808E1,1.555269480E0,-9.625672340E0,-1.047830343E0
1.390637121E1,1.561235905E0,-9.624718666E0,-1.047717214E0
1.392655798E1,1.564719439E0,-9.624031067E0,-1.048843384E0
1.394673933E1,1.565996528E0,-9.623429298E0,-1.052445173E0
1.396692110E1,1.567905784E0,-9.622814178E0,-1.055221558E0
1.398710340E1,1.571032882E0,-9.622252464E0,-1.055693746E0
1.400728642E1,1.574444771E0,-9.622063637E0,-1.052328110E0
1.402747027E1,1.579206944E0,-9.621517181E0,-1.050183773E0
1.404765506E1,1.585587382E0,-9.620044708E0,-1.054058552E0
1.406784079E1,1.592800140E0,-9.618021011E0,-1.061624646E0
1.408802746E1,1.600215673E0,-9.616210938E0,-1.066855311E0
1.410821506E1,1.606637478E0,-9.614523888E0,-1.072394133E0
1.412840350E1,1.613836050E0,-9.612759590E0,-1.077390790E0
1.414859267E1,1.619787693E0,-9.610869408E0,-1.085299015E0
1.416878246E1,1.625575185E0,-9.608511925E0,-1.097444177E0
1.418897277E1,1.633908987E0,-9.605862617E0,-1.108211279E0
1.420916340E1,1.645043969E0,-9.602809906E0,-1.118148565E0
1.422935423E1,1.658745408E0,-9.598834991E0,-1.131952524E0
1.424955590E1,1.670114875E0,-9.594665527E0,-1.150441170E0
1.426973340E1,1.680602431E0,-9.590570450E0,-1.169158459E0
1.428991121E1,1.692605615E0,-9.586882591E0,-1.182013631E0
1.431008965E1,1.701820970E0,-9.584107399E0,-1.191258669E0
1.433026902E1,1.705844998E0,-9.581675529E0,-1.204977274E0
1.435044965E1,1.708724141E0,-9.579375267E0,-1.219106674E0
1.437063173E1,1.714239359E0,-9.576086044E0,-1.237074018E0
1.439081538E1,1.725580096E0,-9.571437836E0,-1.257116914E0
1.441100069E1,1.741299987E0,-9.566281319E0,-1.274568081E0
1.443118767E1,1.759135723E0,-9.560948372E0,-1.289999247E0
1.445137621E1,1.776596785E0,-9.555603981E0,-1.305574536E0
1.447156621E1,1.794717312E0,-9.550406456E0,-1.318752289E0
1.449175746E1,1.810673952E0,-9.545996666E0,-1.328827381E0
1.451194975E1,1.822280169E0,-9.542765617E0,-1.336153865E0
1.453214277E1,1.829086304E0,-9.541106224E0,-1.338703752E0
1.455233621E1,1.831303239E0,-9.540657997E0,-1.338862062E0
1.457252986E1,1.831880450E0,-9.540155411E0,-1.341646671E0
1.459272204E1,1.832458138E0,-9.540184975E0,-1.340651512E0
1.461290892E1,1.831983805E0,-9.541113853E0,-1.334679842E0
1.463309569E1,1.829825044E0,-9.541921616E0,-1.331863761E0
1.465327704E1,1.828258157E0,-9.542178154E0,-1.332180381E0
1.467345881E1,1.826977730E0,-9.543130875E0,-1.327099085E0
1.469364111E1,1.824462652E0,-9.544977188E0,-1.317244411E0
1.471382413E1,1.820142627E0,-9.546420097E0,-1.312758565E0
1.473400798E1,1.813471675E0,-9.547323227E0,-1.315420151E0
1.475419277E1,1.807002306E0,-9.548517227E0,-1.315648913E0
1.477437850E1,1.803831339E0,-9.550326347E0,-1.306845665E0
1.479456517E1,1.801575303E0,-9.552189827E0,-1.296294451E0
1.481475277E1,1.797100544E0,-9.553603172E0,-1.292084098E0
1.483494121E1,1.789854646E0,-9.554606438E0,-1.294720769E0
1.485513038E1,1.785592556E0,-9.555078506E0,-1.297123551E0
1.487532017E1,1.786384821E0,-9.554825783E0,-1.297891259E0
1.489551048E1,1.788866401E0,-9.553961754E0,-1.300826669E0
1.491570110E1,1.790858030E0,-9.553117752E0,-1.304283142E0
1.493589194E1,1.791726589E0,-9.552461624E0,-1.307892203E0
1.495609361E1,1.793086171E0,-9.551403046E0,-1.313742161E0
1.497627110E1,1.796727657E0,-9.549985886E0,-1.319063663E0
1.499644892E1,1.801692247E0,-9.548783302E0,-1.320997000E0
1.501662736E1,1.805259585E0,-9.548220634E0,-1.320193052E0
1.503680673E1,1.804282188E0,-9.548564911E0,-1.319043636E0
1.505698736E1,1.798870683E0,-9.549674034E0,-1.318398833E0
1.507716944E1,1.792138577E0,-9.550966263E0,-1.318206906E0
1.509735308E1,1.789139032E0,-9.551439285E0,-1.318853021E0
1.511753840E1,1.789723873E0,-9.551203728E0,-1.319768786E0
1.513772538E1,1.789357185E0,-9.551282883E0,-1.319694519E0
1.515791392E1,1.784657717E0,-9.552363396E0,-1.318234324E0
1.517810392E1,1.778481722E0,-9.553373337E0,-1.319252729E0
1.519829517E1,1.774737000E0,-9.553658485E0,-1.322229266E0
1.521848746E1,1.773400187E0,-9.553886414E0,-1.322375894E0
1.523868048E1,1.770120978E0,-9.554543495E0,-1.322027564E0
1.525887392E1,1.765021920E0,-9.555193901E0,-1.324140429E0
1.527906756E1,1.760767221E0,-9.555537224E0,-1.327328086E0
1.529925975E1,1.760278940E0,-9.555192947E0,-1.330452681E0
1.531944663E1,1.762663603E0,-9.554112434E0,-1.335038781E0
1.533963340E1,1.765305877E0,-9.552774429E0,-1.341111660E0
1.535981475E1,1.766668439E0,-9.551542282E0,-1.348074913E0
1.537999652E1,1.767214894E0,-9.551160812E0,-1.350059986E0
1.540017881E1,1.767331719E0,-9.551159859E0,-1.349912167E0
1.542036183E1,1.768800020E0,-9.550853729E0,-1.350163579E0
1.544054569E1,1.767024875E0,-9.551382065E0,-1.348747015E0
1.546073048E1,1.759682178E0,-9.552854538E0,-1.347915173E0
1.548091621E1,1.752920389E0,-9.554488182E0,-1.345139861E0
1.550110288E1,1.749365807E0,-9.556337357E0,-1.336606383E0
1.552129048E1,1.744281411E0,-9.558902740E0,-1.324857116E0
1.554147892E1,1.735287666E0,-9.562485695E0,-1.310733438E0
1.556166808E1,1.723944426E0,-9.567056656E0,-1.292217374E0
1.558185788E1,1.712944865E0,-9.572097778E0,-1.269305348E0
1.560204819E1,1.706472635E0,-9.577118874E0,-1.239812970E0
1.562223881E1,1.708713531E0,-9.581962585E0,-1.198613524E0
1.564242965E1,1.721815109E0,-9.585442543E0,-1.151106596E0
1.566263131E1,1.747999549E0,-9.586264610E0,-1.103814363E0
1.568280892E1,1.778729558E0,-9.585331917E0,-1.062029839E0
1.570298683E1,1.792842746E0,-9.585337639E0,-1.037987232E0
1.572316538E1,1.774046898E0,-9.588295937E0,-1.042938828E0
1.574334486E1,1.730047107E0,-9.593608856E0,-1.067698240E0
1.576352558E1,1.692795992E0,-9.598947525E0,-1.079372883E0
1.578370777E1,1.683368325E0,-9.602461815E0,-1.062726498E0
1.580389152E1,1.697167873E0,-9.603699684E0,-1.029058456E0
1.582407683E1,1.714368701E0,-9.603052139E0,-1.006338716E0
1.584426371E1,1.721620440E0,-9.601858139E0,-1.005349755E0
1.586445215E1,1.722639918E0,-9.601308823E0,-1.008837938E0
1.588464194E1,1.726958990E0,-9.600835800E0,-1.005953431E0
1.590483298E1,1.732226372E0,-9.602011681E0,-9.854759574E-1
1.592502506E1,1.736830950E0,-9.605418205E0,-9.432604313E-1
1.594521788E1,1.734791994E0,-9.611306190E0,-8.852552176E-1
1.596541121E1,1.720507026E0,-9.618198395E0,-8.369640708E-1
1.598560475E1,1.702003360E0,-9.622241020E0,-8.282743096E-1
1.600579756E1,1.692109585E0,-9.622172356E0,-8.490774035E-1
1.602598444E1,1.693714499E0,-9.620453835E0,-8.652075529E-1
1.604617121E1,1.703018904E0,-9.620167732E0,-8.499915004E-1
1.606635256E1,1.710174441E0,-9.622414589E0,-8.092079163E-1
1.608653433E1,1.708401561E0,-9.625977516E0,-7.696095705E-1
1.610671663E1,1.700551629E0,-9.628638268E0,-7.535491586E-1
1.612689965E1,1.696195960E0,-9.628623962E0,-7.634696364E-1
1.614708350E1,1.694964767E0,-9.627038002E0,-7.859052420E-1
1.616726829E1,1.693946242E0,-9.625621796E0,-8.051992655E-1
1.618745402E1,1.693801880E0,-9.625394821E0,-8.082005382E-1
1.620764069E1,1.693972111E0,-9.626235962E0,-7.977691889E-1
1.622782829E1,1.694909334E0,-9.626712799E0,-7.899843454E-1
1.624801673E1,1.700239420E0,-9.625514030E0,-7.931166887E-1
1.626820590E1,1.708742380E0,-9.623040199E0,-8.047885895E-1
1.628839569E1,1.715587497E0,-9.620973587E0,-8.148695230E-1
1.630858600E1,1.718426466E0,-9.620118141E0,-8.189654946E-1
1.632877663E1,1.719671249E0,-9.620006561E0,-8.176688552E-1
1.634896746E1,1.722783566E0,-9.619626045E0,-8.156008720E-1
1.636916913E1,1.729939699E0,-9.618369102E0,-8.152688146E-1
1.638934673E1,1.743076086E0,-9.615596771E0,-8.199911714E-1
1.640952465E1,1.750028849E0,-9.613858223E0,-8.255380392E-1
1.642970319E1,1.745950580E0,-9.614269257E0,-8.293753862E-1
1.644988267E1,1.735190511E0,-9.616479874E0,-8.263261318E-1
1.647006340E1,1.721857429E0,-9.619837761E0,-8.150631189E-1
1.649024558E1,1.709463716E0,-9.623168945E0,-8.017085195E-1
1.651042933E1,1.703722596E0,-9.625222206E0,-7.891988754E-1
1.653061465E1,1.704615474E0,-9.625714302E0,-7.812225223E-1
1.655080152E1,1.710939765E0,-9.624872208E0,-7.777640820E-1
1.657098996E1,1.719168663E0,-9.623580933E0,-7.755827904E-1
1.659117975E1,1.723040223E0,-9.623325348E0,-7.701480389E-1
1.661137079E1,1.720561147E0,-9.624434471E0,-7.617893815E-1
1.663156288E1,1.714889050E0,-9.626066208E0,-7.539219260E-1
1.665175569E1,1.708429694E0,-9.627654076E0,-7.482921481E-1
1.667194902E1,1.704224825E0,-9.628600121E0,-7.456890345E-1
1.669214256E1,1.703872204E0,-9.628601074E0,-7.464848161E-1
1.671233548E1,1.709222555E0,-9.627233505E0,-7.518728375E-1
1.673252225E1,1.718567610E0,-9.625041008E0,-7.586191297E-1
1.675270360E1,1.724717975E0,-9.623625755E0,-7.626069784E-1
1.677288538E1,1.725088000E0,-9.623314857E0,-7.656862736E-1
1.679306767E1,1.722861290E0,-9.623573303E0,-7.674443722E-1
1.681325069E1,1.720353842E0,-9.624208450E0,-7.650958896E-1
1.683343454E1,1.718344212E0,-9.624921799E0,-7.606243491E-1
1.685361933E1,1.718562722E0,-9.625083923E0,-7.580798864E-1
1.687380506E1,1.720792055E0,-9.624848366E0,-7.560214400E-1
1.689399173E1,1.723005414E0,-9.624590874E0,-7.542492747E-1
1.691417933E1,1.723957658E0,-9.624536514E0,-7.527680993E-1
1.693436777E1,1.723391056E0,-9.624668121E0,-7.523888350E-1
1.695455694E1,1.721369147E0,-9.624977112E0,-7.530476451E-1
1.697474673E1,1.720053434E0,-9.625078201E0,-7.547877431E-1
1.699493704E1,1.720876098E0,-9.624774933E0,-7.567600012E-1
1.701512767E1,1.722687960E0,-9.624318123E0,-7.584560513E-1
1.703531850E1,1.723161101E0,-9.624074936E0,-7.604527473E-1
1.705552017E1,1.723764539E0,-9.623903275E0,-7.612541914E-1
1.707569767E1,1.725056410E0,-9.623740196E0,-7.603886127E-1
1.709587548E1,1.725971818E0,-9.623708725E0,-7.587155104E-1
1.711605392E1,1.727853775E0,-9.623597145E0,-7.558330894E-1
1.713623329E1,1.728843689E0,-9.623691559E0,-7.523590326E-1
1.715641392E1,1.728730798E0,-9.623833656E0,-7.508074641E-1
1.717659600E1,1.727913022E0,-9.624101639E0,-7.492417097E-1
1.719677965E1,1.725065351E0,-9.624773026E0,-7.471808195E-1
1.721696496E1,1.721153378E0,-9.625614166E0,-7.453696728E-1
1.723715194E1,1.719024420E0,-9.626028061E0,-7.449239492E-1
1.725734048E1,1.719554305E0,-9.625882149E0,-7.455838919E-1
1.727753048E1,1.721642256E0,-9.625442505E0,-7.464381456E-1
1.729772173E1,1.723678470E0,-9.624941826E0,-7.482042909E-1
1.731791402E1,1.725527048E0,-9.624328613E0,-7.518244982E-1
1.733810704E1,1.728143334E0,-9.623614311E0,-7.549634576E-1
1.735830048E1,1.730646610E0,-9.622979164E0,-7.573077679E-1
1.737849413E1,1.732506275E0,-9.622514725E0,-7.589587569E-1
1.739868631E1,1.733221650E0,-9.622327805E0,-7.597029805E-1
1.741887319E1,1.733248234E0,-9.622364998E0,-7.591628432E-1
1.743905996E1,1.731000423E0,-9.622757912E0,-7.592988014E-1
1.745924131E1,1.727924109E0,-9.623214722E0,-7.605205178E-1
1.747942308E1,1.727102041E0,-9.623091698E0,-7.639559507E-1
1.749960538E1,1.729652882E0,-9.622230530E0,-7.690135241E-1
1.751978840E1,1.734812737E0,-9.620966911E0,-7.731710672E-1
1.753997225E1,1.739819169E0,-9.619870186E0,-7.755743265E-1
1.756015704E1,1.742155671E0,-9.619449615E0,-7.755522728E-1
1.758034277E1,1.741699696E0,-9.619562149E0,-7.751696706E-1
1.760052944E1,1.739503264E0,-9.619935989E0,-7.754743099E-1
1.762071704E1,1.737065315E0,-9.620193481E0,-7.777289152E-1
1.764090548E1,1.735983849E0,-9.620244980E0,-7.795017958E-1
1.766109465E1,1.736156464E0,-9.620261192E0,-7.789327502E-1
1.768128444E1,1.736755013E0,-9.620192528E0,-7.784293890E-1
1.770147475E1,1.738333225E0,-9.619860649E0,-7.790206671E-1
1.772166538E1,1.740125299E0,-9.619425774E0,-7.803816199E-1
1.774185621E1,1.740352750E0,-9.619275093E0,-7.817244530E-1
1.776205788E1,1.739463210E0,-9.619397163E0,-7.822090983E-1
1.778223538E1,1.737948537E0,-9.619706154E0,-7.817800045E-1
1.780241319E1,1.737390280E0,-9.619808197E0,-7.817557454E-1
1.782259163E1,1.737609029E0,-9.619776726E0,-7.816612720E-1
1.784277100E1,1.739437461E0,-9.619575500E0,-7.800678611E-1
1.786295163E1,1.741035581E0,-9.619529724E0,-7.770511508E-1
1.788313371E1,1.740139365E0,-9.619973183E0,-7.735762000E-1
1.790331736E1,1.737859130E0,-9.620448112E0,-7.727965713E-1
1.792350267E1,1.736492634E0,-9.620664597E0,-7.731620073E-1
1.794368965E1,1.736302018E0,-9.620718956E0,-7.729358673E-1
1.796387819E1,1.737180829E0,-9.620621681E0,-7.721579075E-1
1.798406819E1,1.737512350E0,-9.620598793E0,-7.716975212E-1
1.800425944E1,1.737523437E0,-9.620543480E0,-7.723588347E-1
1.802445173E1,1.737562895E0,-9.620594025E0,-7.716449499E-1
1.804464475E1,1.737095833E0,-9.620827675E0,-7.697672248E-1
1.806483819E1,1.736122847E0,-9.621040344E0,-7.693046927E-1
1.808503183E1,1.735345006E0,-9.621109962E0,-7.702036500E-1
1.810522392E1,1.734652042E0,-9.621182442E0,-7.708563209E-1
1.812541069E1,1.734400988E0,-9.621142387E0,-7.719136477E-1
1.814559204E1,1.735550523E0,-9.620888710E0,-7.725005150E-1
1.816577381E1,1.737888455E0,-9.620506287E0,-7.719944119E-1
1.818595611E1,1.740262508E0,-9.620128632E0,-7.713556886E-1
1.820613913E1,1.741421938E0,-9.619887352E0,-7.717544436E-1
1.822632298E1,1.742269993E0,-9.619632721E0,-7.730161548E-1
1.824650777E1,1.741923809E0,-9.619566917E0,-7.746191621E-1
1.826669350E1,1.740400076E0,-9.619721413E0,-7.761180401E-1
1.828688017E1,1.739528775E0,-9.619727135E0,-7.780025601E-1
1.830706777E1,1.740319967E0,-9.619408607E0,-7.801535726E-1
1.832725621E1,1.742235065E0,-9.618914604E0,-7.819821239E-1
1.834744538E1,1.743010879E0,-9.618599892E0,-7.841225863E-1
1.836763517E1,1.744102716E0,-9.618087769E0,-7.879512310E-1
1.838782548E1,1.745935678E0,-9.617465973E0,-7.914892435E-1
1.840801610E1,1.747058749E0,-9.617109299E0,-7.933276892E-1
1.842820694E1,1.746995211E0,-9.617094040E0,-7.936574817E-1
1.844840860E1,1.745719671E0,-9.617359161E0,-7.932682037E-1
1.846858610E1,1.744752169E0,-9.617617607E0,-7.922453880E-1
1.848876392E1,1.744224548E0,-9.617788315E0,-7.913470864E-1
1.850894236E1,1.745114923E0,-9.617636681E0,-7.912176847E-1
1.852912173E1,1.745837808E0,-9.617486954E0,-7.914479971E-1
1.854930236E1,1.746138811E0,-9.617273331E0,-7.933714986E-1
1.856948444E1,1.747544765E0,-9.616800308E0,-7.960141301E-1
1.858966808E1,1.749841809E0,-9.616238594E0,-7.977450490E-1
1.860985340E1,1.752348065E0,-9.615529060E0,-8.007873297E-1
1.863004038E1,1.755153179E0,-9.614686966E0,-8.047367334E-1
1.865022892E1,1.756409407E0,-9.614078522E0,-8.092548847E-1
1.867041892E1,1.755908132E0,-9.613792419E0,-8.137464523E-1
1.869061017E1,1.754447937E0,-9.613826752E0,-8.164743185E-1
1.871080246E1,1.753412247E0,-9.613967896E0,-8.170424104E-1
1.873099548E1,1.752284527E0,-9.614157677E0,-8.172337413E-1
1.875118892E1,1.750385404E0,-9.614686966E0,-8.150641918E-1
1.877138256E1,1.747916102E0,-9.615402222E0,-8.119326830E-1
1.879157465E1,1.746277809E0,-9.615866661E0,-8.099472523E-1
1.881176142E1,1.746578693E0,-9.616020203E0,-8.074640632E-1
1.883194277E1,1.746252775E0,-9.616327286E0,-8.045051098E-1
1.885212454E1,1.744595051E0,-9.616765976E0,-8.028596044E-1
1.887230683E1,1.741852283E0,-9.617212296E0,-8.034695983E-1
1.889248986E1,1.739344120E0,-9.617510796E0,-8.053319454E-1
1.891267371E1,1.737132192E0,-9.617693901E0,-8.079022765E-1
1.893285850E1,1.735558748E0,-9.617684364E0,-8.114044070E-1
1.895304423E1,1.735520005E0,-9.617305756E0,-8.159604669E-1
1.897323090E1,1.737510800E0,-9.616653442E0,-8.194040060E-1
1.899341850E1,1.740284681E0,-9.616057396E0,-8.205071092E-1
1.901360694E1,1.741891623E0,-9.615835190E0,-8.197030425E-1
1.903379610E1,1.742770195E0,-9.615789413E0,-8.183737993E-1
1.905398590E1,1.743571639E0,-9.615741730E0,-8.172369599E-1
1.907417621E1,1.743792295E0,-9.615703583E0,-8.171972036E-1
1.909436683E1,1.743655443E0,-9.615787506E0,-8.165199161E-1
1.911455767E1,1.740783095E0,-9.616646767E0,-8.125017285E-1
1.913475933E1,1.733795881E0,-9.618396759E0,-8.067157269E-1
1.915493663E1,1.726091266E0,-9.620150566E0,-8.023034930E-1
1.917511423E1,1.722197056E0,-9.620909691E0,-8.015742302E-1
1.919529256E1,1.725781798E0,-9.620145798E0,-8.030424714E-1
1.921547194E1,1.732296348E0,-9.618754387E0,-8.056555986E-1
1.923565256E1,1.738331199E0,-9.617570877E0,-8.067934513E-1
1.925583465E1,1.743040204E0,-9.616837502E0,-8.053699732E-1
1.927601829E1,1.745015740E0,-9.616585732E0,-8.041086197E-1
1.929620361E1,1.744960189E0,-9.616615295E0,-8.038745522E-1
1.931639058E1,1.743940353E0,-9.616769791E0,-8.042469025E-1
1.933657913E1,1.743306518E0,-9.616789818E0,-8.053757548E-1
1.935676913E1,1.745385408E0,-9.616239548E0,-8.074417114E-1
1.937696038E1,1.749036193E0,-9.615395546E0,-8.095873594E-1
1.939715267E1,1.752558470E0,-9.614568710E0,-8.117779493E-1
1.941734569E1,1.753996730E0,-9.614165306E0,-8.134559989E-1
1.943753913E1,1.754258633E0,-9.613981247E0,-8.150649071E-1
1.945773277E1,1.755373001E0,-9.613508224E0,-8.182307482E-1
1.947792506E1,1.758837581E0,-9.612687111E0,-8.204352856E-1
1.949811194E1,1.762297392E0,-9.612031937E0,-8.206957579E-1
1.951829871E1,1.760803580E0,-9.612319946E0,-8.205302954E-1
1.953848006E1,1.756869674E0,-9.612997055E0,-8.210259676E-1
1.955866183E1,1.754101753E0,-9.613489151E0,-8.211790919E-1
1.957884413E1,1.752125382E0,-9.614020348E0,-8.191792369E-1
1.959902715E1,1.749530196E0,-9.614856720E0,-8.149027228E-1
1.961921100E1,1.746775746E0,-9.615750313E0,-8.102576733E-1
1.963939579E1,1.746241331E0,-9.616122246E0,-8.069942594E-1
1.965958152E1,1.748441458E0,-9.615892410E0,-8.049532175E-1
1.967976819E1,1.750461102E0,-9.615660667E0,-8.033265471E-1
1.969995579E1,1.751187444E0,-9.615531921E0,-8.032966256E-1
1.972014423E1,1.752567053E0,-9.615329742E0,-8.026929498E-1
1.974033340E1,1.754515886E0,-9.615209579E0,-7.998698950E-1
1.976052319E1,1.756153584E0,-9.615110397E0,-7.974729538E-1
1.978071350E1,1.758969784E0,-9.614617348E0,-7.972193360E-1
1.980090413E1,1.761675119E0,-9.613918304E0,-7.996506095E-1
1.982109496E1,1.764011621E0,-9.613113403E0,-8.041753769E-1
1.984129663E1,1.765596986E0,-9.612525940E0,-8.077125549E-1
1.986147381E1,1.767743587E0,-9.612014771E0,-8.091042042E-1
1.988165131E1,1.771449804E0,-9.611414909E0,-8.081109524E-1
1.990182954E1,1.773209810E0,-9.611188889E0,-8.069465756E-1
1.992200881E1,1.771014810E0,-9.611653328E0,-8.062361479E-1
1.994218933E1,1.765263200E0,-9.612903595E0,-8.039473295E-1
1.996237131E1,1.757688284E0,-9.614587784E0,-8.003850579E-1
1.998255486E1,1.751960397E0,-9.615914345E0,-7.970073223E-1
2.000274006E1,1.749266744E0,-9.616732597E0,-7.930414081E-1
2.002292694E1,1.748919368E0,-9.617153168E0,-7.886934280E-1
2.004311538E1,1.748624563E0,-9.617344856E0,-7.869996428E-1
2.006330527E1,1.747522235E0,-9.617454529E0,-7.881222367E-1
2.008349642E1,1.746030688E0,-9.617782593E0,-7.874246836E-1
2.010368861E1,1.742669702E0,-9.618595123E0,-7.849309444E-1
2.012388163E1,1.738015413E0,-9.619556427E0,-7.834692001E-1
2.014407517E1,1.735268593E0,-9.619909286E0,-7.852168083E-1
2.016426892E1,1.736608863E0,-9.619292259E0,-7.898018956E-1
2.018446215E1,1.742201805E0,-9.617734909E0,-7.964387536E-1
2.020464892E1,1.750356674E0,-9.615670204E0,-8.034478426E-1
2.022483027E1,1.756696105E0,-9.614097595E0,-8.084089756E-1
2.024501204E1,1.757797837E0,-9.613695145E0,-8.108055592E-1
2.026519433E1,1.756577373E0,-9.613785744E0,-8.123732209E-1
2.028537736E1,1.754785419E0,-9.614124298E0,-8.122434616E-1
2.030556121E1,1.753130436E0,-9.614529610E0,-8.110089898E-1
2.032574600E1,1.751490712E0,-9.614791870E0,-8.114416003E-1
2.034593173E1,1.748319864E0,-9.615418434E0,-8.108556867E-1
2.036611840E1,1.741330385E0,-9.616919518E0,-8.080949783E-1
2.038630600E1,1.733800530E0,-9.618545532E0,-8.049266934E-1
2.040649444E1,1.727484465E0,-9.620052338E0,-8.004884124E-1
2.042668360E1,1.720232606E0,-9.621941566E0,-7.933648229E-1
2.044687340E1,1.711264610E0,-9.624199867E0,-7.853219509E-1
2.046706371E1,1.703247309E0,-9.626177788E0,-7.784861326E-1
2.048725433E1,1.698836088E0,-9.627412796E0,-7.728303075E-1
2.050744517E1,1.696263313E0,-9.628175735E0,-7.689549923E-1
2.052764683E1,1.694002628E0,-9.628774643E0,-7.664439082E-1
2.054782402E1,1.692964196E0,-9.629205704E0,-7.633167505E-1
2.056800152E1,1.693277597E0,-9.629548073E0,-7.582836747E-1
2.058817975E1,1.695287585E0,-9.629686356E0,-7.520106435E-1
2.060835902E1,1.697053075E0,-9.629669189E0,-7.482275367E-1
2.062853954E1,1.698161840E0,-9.629721642E0,-7.450478673E-1
2.064872152E1,1.697965622E0,-9.630182266E0,-7.395129204E-1
2.066890506E1,1.696906328E0,-9.630954742E0,-7.318512201E-1
2.068909027E1,1.696544647E0,-9.631506920E0,-7.253953218E-1
2.070927715E1,1.697409034E0,-9.631741524E0,-7.202404737E-1
2.072946558E1,1.699365497E0,-9.631779671E0,-7.150980234E-1
2.074965548E1,1.702518702E0,-9.632071495E0,-7.035726905E-1
2.076984663E1,1.704933882E0,-9.632719994E0,-6.886836886E-1
2.079003881E1,1.713989019E0,-9.631543159E0,-6.826407313E-1
2.081023183E1,1.726219773E0,-9.629718781E0,-6.775577068E-1
2.083042538E1,1.738425374E0,-9.627520561E0,-6.775703430E-1
2.085061913E1,1.752030373E0,-9.624817848E0,-6.809275746E-1
2.087081225E1,1.764536858E0,-9.622475624E0,-6.817349195E-1
2.089099892E1,1.771919608E0,-9.621525764E0,-6.759781241E-1
2.091118017E1,1.777973652E0,-9.621316910E0,-6.629195213E-1
2.093136183E1,1.784693480E0,-9.621531487E0,-6.413910985E-1
2.095154413E1,1.792475581E0,-9.621503830E0,-6.197347641E-1
2.097172715E1,1.803630352E0,-9.620623589E0,-6.007625461E-1
2.099191100E1,1.813267946E0,-9.619953156E0,-5.821853280E-1
2.101209579E1,1.814872265E0,-9.620072365E0,-5.751870275E-1
2.103228152E1,1.812303066E0,-9.619862556E0,-5.866910219E-1
2.105246819E1,1.818327069E0,-9.617656708E0,-6.039449573E-1
2.107265579E1,1.837776542E0,-9.613677025E0,-6.084301472E-1
2.109284423E1,1.865627289E0,-9.608880997E0,-5.993447304E-1
2.111303340E1,1.898029447E0,-9.603333473E0,-5.863758326E-1
2.113322319E1,1.930526257E0,-9.597482681E0,-5.760081410E-1
2.115341350E1,1.960251689E0,-9.591753960E0,-5.710219741E-1
2.117360413E1,1.981917977E0,-9.587362289E0,-5.699892044E-1
2.119379496E1,1.990581393E0,-9.585305214E0,-5.743724108E-1
2.121399663E1,1.988556743E0,-9.584852219E0,-5.887668729E-1
2.123417392E1,1.982674122E0,-9.584611893E0,-6.120419502E-1
2.125435152E1,1.977119923E0,-9.584213257E0,-6.357923150E-1
2.127452986E1,1.979236841E0,-9.582782745E0,-6.505865455E-1
2.129470913E1,1.985744715E0,-9.581649780E0,-6.474502683E-1
2.131488965E1,1.985617638E0,-9.582423210E0,-6.363012791E-1
2.133507163E1,1.981172919E0,-9.583565712E0,-6.329282522E-1
2.135525517E1,1.977098346E0,-9.584018707E0,-6.387870908E-1
2.137544038E1,1.968946815E0,-9.584999084E0,-6.491779089E-1
2.139562725E1,1.954126477E0,-9.587224007E0,-6.609985828E-1
2.141581569E1,1.936033487E0,-9.589983940E0,-6.740855575E-1
2.143600558E1,1.916354060E0,-9.592793465E0,-6.901353002E-1
2.145619673E1,1.896168828E0,-9.595147133E0,-7.127957940E-1
2.147638892E1,1.882305741E0,-9.595899582E0,-7.389429808E-1
2.149658183E1,1.876819730E0,-9.595603943E0,-7.565185428E-1
2.151677527E1,1.871450305E0,-9.596275330E0,-7.612906694E-1
2.153696892E1,1.861317873E0,-9.598324776E0,-7.602955103E-1
2.155716204E1,1.847309113E0,-9.600749016E0,-7.638388872E-1
2.157734881E1,1.831151485E0,-9.603107452E0,-7.730427980E-1
2.159753017E1,1.812428355E0,-9.605184555E0,-7.911502719E-1
2.161771194E1,1.794035912E0,-9.606381416E0,-8.180796504E-1
2.163789423E1,1.776288271E0,-9.607213020E0,-8.465481997E-1
2.165807725E1,1.756523848E0,-9.608633041E0,-8.713017702E-1
2.167826110E1,1.734769344E0,-9.610381126E0,-8.952914476E-1
2.169844590E1,1.719414234E0,-9.611686707E0,-9.107587934E-1
2.171863163E1,1.708650589E0,-9.612535477E0,-9.219862223E-1
2.173881829E1,1.698591948E0,-9.613404274E0,-9.314678907E-1
2.175900590E1,1.688145876E0,-9.613838196E0,-9.458596706E-1
2.177919433E1,1.685260773E0,-9.613039017E0,-9.590505362E-1
2.179938350E1,1.687116742E0,-9.612958908E0,-9.565749168E-1
2.181957329E1,1.664379001E0,-9.617098808E0,-9.547996521E-1
2.183976360E1,1.660214782E0,-9.617078781E0,-9.622251391E-1
2.185995423E1,1.645376086E0,-9.616113663E0,-9.967491031E-1
2.188014506E1,1.631109476E0,-9.612042427E0,-1.057600379E0
2.190034673E1,1.617702484E0,-9.605544090E0,-1.134441018E0
2.192052360E1,1.609771132E0,-9.596765518E0,-1.217013836E0
2.194070079E1,1.610775471E0,-9.585252762E0,-1.303344250E0
2.196087871E1,1.623316526E0,-9.571358681E0,-1.387195945E0
2.198105767E1,1.645811796E0,-9.556834221E0,-1.458980441E0
2.200123798E1,1.664918184E0,-9.543212891E0,-1.524964809E0
2.202141986E1,1.668917656E0,-9.531044006E0,-1.595088720E0
2.204160340E1,1.662566185E0,-9.519925117E0,-1.666520000E0
2.206178860E1,1.656526327E0,-9.509486198E0,-1.730888963E0
2.208197548E1,1.646698356E0,-9.501814842E0,-1.781646967E0
2.210216402E1,1.631607056E0,-9.497388840E0,-1.818752885E0
2.212235402E1,1.620929718E0,-9.493786812E0,-1.846883535E0
2.214254538E1,1.620239615E0,-9.489831924E0,-1.867704749E0
2.216273777E1,1.623918772E0,-9.486134529E0,-1.883221626E0
2.218293100E1,1.626798272E0,-9.482057571E0,-1.901179552E0
2.220312475E1,1.626279235E0,-9.476791382E0,-1.927698493E0
2.222331871E1,1.617235661E0,-9.472419739E0,-1.956577420E0
2.224351163E1,1.597270966E0,-9.469735146E0,-1.985753775E0
2.226369840E1,1.572256923E0,-9.465079308E0,-2.027482033E0
2.228387975E1,1.547302365E0,-9.458633423E0,-2.076175690E0
2.230406152E1,1.530733585E0,-9.454319000E0,-2.107863188E0
2.232424381E1,1.521335363E0,-9.450576782E0,-2.131316185E0
2.234442683E1,1.513427138E0,-9.445584297E0,-2.158904791E0
2.236461069E1,1.505395055E0,-9.439418793E0,-2.191240311E0
2.238479548E1,1.495623827E0,-9.433205605E0,-2.224437714E0
2.240498121E1,1.484629154E0,-9.425933838E0,-2.262307644E0
2.242516788E1,1.480630040E0,-9.417104721E0,-2.301357985E0
2.244535548E1,1.483457446E0,-9.409489632E0,-2.330501080E0
2.246554392E1,1.495324135E0,-9.403747559E0,-2.346049309E0
2.248573308E1,1.515824199E0,-9.400496483E0,-2.345915794E0
2.250592288E1,1.539501905E0,-9.400361061E0,-2.330991507E0
2.252611319E1,1.563353658E0,-9.402548790E0,-2.306164742E0
2.254630381E1,1.584338903E0,-9.405808449E0,-2.278381586E0
2.256649465E1,1.600168705E0,-9.409952164E0,-2.250030994E0
2.258669631E1,1.597597361E0,-9.416708946E0,-2.223433495E0
2.260687308E1,1.602010489E0,-9.424918175E0,-2.185144186E0
2.262705017E1,1.593425512E0,-9.435773849E0,-2.144190550E0
2.264722798E1,1.572013736E0,-9.448733330E0,-2.102522612E0
2.266740683E1,1.544731140E0,-9.462416649E0,-2.060787678E0
2.268758704E1,1.522328019E0,-9.473573685E0,-2.025909424E0
2.270776881E1,1.501729727E0,-9.478316307E0,-2.019088507E0
2.272795225E1,1.487483859E0,-9.481666565E0,-2.013895750E0
2.274813746E1,1.478107691E0,-9.484643936E0,-2.006767750E0
2.276832444E1,1.469074965E0,-9.487018585E0,-2.002169847E0
2.278851308E1,1.456846595E0,-9.489682198E0,-1.998478293E0
2.280870319E1,1.441862702E0,-9.492929459E0,-1.993920565E0
2.282889465E1,1.433894038E0,-9.494933128E0,-1.990123034E0
2.284908715E1,1.440769434E0,-9.495441437E0,-1.982718349E0
2.286928048E1,1.445638895E0,-9.497771263E0,-1.967957854E0
2.288947433E1,1.436722279E0,-9.502453804E0,-1.951814890E0
2.290966840E1,1.430232286E0,-9.507186890E0,-1.933451772E0
2.292986110E1,1.422728419E0,-9.514839172E0,-1.901066184E0
2.295004777E1,1.405025482E0,-9.526256561E0,-1.856539011E0
2.297022902E1,1.383161545E0,-9.538002014E0,-1.812118053E0
2.299041069E1,1.370739698E0,-9.547022820E0,-1.773644805E0
2.301059298E1,1.379353523E0,-9.552693367E0,-1.736035347E0
2.303077600E1,1.407707095E0,-9.556864738E0,-1.689694166E0
2.305095986E1,1.440519094E0,-9.562132835E0,-1.631230474E0
2.307114465E1,1.464725256E0,-9.568692207E0,-1.570058823E0
2.309133038E1,1.471624732E0,-9.574830055E0,-1.525559664E0
2.311151704E1,1.468552828E0,-9.578218460E0,-1.507140636E0
2.313170465E1,1.479006171E0,-9.577640533E0,-1.500575900E0
2.315189308E1,1.507883668E0,-9.574410439E0,-1.492429852E0
2.317208225E1,1.545646191E0,-9.570940018E0,-1.475961566E0
2.319227204E1,1.584494114E0,-9.568665504E0,-1.449284792E0
2.321246236E1,1.618288398E0,-9.568878174E0,-1.409996867E0
2.323265298E1,1.642545104E0,-9.570922852E0,-1.367431283E0
2.325284381E1,1.659900308E0,-9.572200775E0,-1.337196946E0
2.327304548E1,1.675445199E0,-9.571732521E0,-1.321063042E0
2.329322246E1,1.688524604E0,-9.571004868E0,-1.309630036E0
2.331339975E1,1.698985100E0,-9.570649147E0,-1.298653126E0
2.333357777E1,1.705806255E0,-9.571619987E0,-1.282457709E0
2.335375683E1,1.716162324E0,-9.571105003E0,-1.272449374E0
2.337393715E1,1.722593427E0,-9.571457863E0,-1.261055827E0
2.339411892E1,1.728660703E0,-9.571837425E0,-1.249814510E0
2.341430236E1,1.736665368E0,-9.571199417E0,-1.243591428E0
2.343448746E1,1.748038888E0,-9.569967270E0,-1.237127423E0
2.345467423E1,1.757496595E0,-9.569924355E0,-1.223986387E0
2.347486267E1,1.762623549E0,-9.571749687E0,-1.202149510E0
2.349505256E1,1.756993175E0,-9.577289581E0,-1.165711045E0
2.351524381E1,1.747885585E0,-9.582973480E0,-1.132217050E0
2.353543611E1,1.737324953E0,-9.588343620E0,-1.102619410E0
2.355562923E1,1.730328202E0,-9.592600822E0,-1.076277733E0
2.357582288E1,1.727825522E0,-9.595905304E0,-1.050519824E0
2.359601673E1,1.727366209E0,-9.598648071E0,-1.025935411E0
2.361621038E1,1.727105856E0,-9.600932121E0,-1.004780889E0
2.363639704E1,1.727017045E0,-9.602574348E0,-9.891266227E-1
2.365657829E1,1.727950454E0,-9.603526115E0,-9.781857133E-1
2.367675996E1,1.729756355E0,-9.604166031E0,-9.686788321E-1
2.369694225E1,1.732197285E0,-9.604609489E0,-9.598699212E-1
2.371712527E1,1.734720588E0,-9.604846001E0,-9.529278278E-1
2.373730913E1,1.737298369E0,-9.604915619E0,-9.475160241E-1
2.375749392E1,1.740555167E0,-9.604739189E0,-9.433134794E-1
2.377767965E1,1.745733023E0,-9.604159355E0,-9.396456480E-1
2.379786631E1,1.753163218E0,-9.603507042E0,-9.324502349E-1
2.381805392E1,1.761746526E0,-9.602720261E0,-9.243410826E-1
2.383824236E1,1.770758033E0,-9.601612091E0,-9.186154604E-1
2.385843152E1,1.780049562E0,-9.600028992E0,-9.172005057E-1
2.387862131E1,1.786793709E0,-9.599010468E0,-9.147416353E-1
2.389881163E1,1.789285779E0,-9.599052429E0,-9.094190001E-1
2.391900225E1,1.790671229E0,-9.599197388E0,-9.051508904E-1
2.393919308E1,1.792734027E0,-9.598962784E0,-9.035504460E-1
2.395939475E1,1.796215653E0,-9.598400116E0,-9.026107788E-1
2.397957163E1,1.801231980E0,-9.597417831E0,-9.030599594E-1
2.399974881E1,1.806028724E0,-9.596487999E0,-9.033614397E-1
2.401992673E1,1.811368108E0,-9.595713615E0,-9.009002447E-1
2.404010569E1,1.816899538E0,-9.594940186E0,-8.979824781E-1
2.406028600E1,1.820137262E0,-9.594413757E0,-8.970528245E-1
2.408046788E1,1.820543528E0,-9.594547272E0,-8.948027492E-1
2.410065142E1,1.817665339E0,-9.595566750E0,-8.897108436E-1
2.412083663E1,1.809100032E0,-9.597527504E0,-8.860208988E-1
2.414102350E1,1.797531009E0,-9.599515915E0,-8.880132437E-1
2.416121204E1,1.788691998E0,-9.600450516E0,-8.957151175E-1
2.418140204E1,1.786453128E0,-9.599823952E0,-9.068284035E-1
2.420159329E1,1.787711501E0,-9.598883629E0,-9.142797589E-1
2.422178558E1,1.788866401E0,-9.598211288E0,-9.190698266E-1
2.424197871E1,1.792301178E0,-9.597056389E0,-9.244223833E-1
2.426217236E1,1.795222759E0,-9.596214294E0,-9.274874330E-1
2.428236621E1,1.794134378E0,-9.596093178E0,-9.308375120E-1
2.430255954E1,1.793739796E0,-9.595550537E0,-9.371765256E-1
2.432274621E1,1.794608951E0,-9.594981194E0,-9.413321614E-1
2.434292746E1,1.794533730E0,-9.594937325E0,-9.419121742E-1
2.436310913E1,1.794192791E0,-9.595030785E0,-9.416069388E-1
2.438329142E1,1.793363571E0,-9.595252037E0,-9.409434199E-1
2.440347444E1,1.794167042E0,-9.594976425E0,-9.422227740E-1
2.442365829E1,1.798374295E0,-9.593790054E0,-9.462713003E-1
2.444384308E1,1.803191662E0,-9.592519760E0,-9.499764442E-1
2.446402881E1,1.807840109E0,-9.591279030E0,-9.536685348E-1
2.448421548E1,1.810019135E0,-9.590749741E0,-9.548498392E-1
2.450440308E1,1.809578776E0,-9.591062546E0,-9.525465369E-1
2.452459152E1,1.810328126E0,-9.591191292E0,-9.498174191E-1
2.454478069E1,1.816067338E0,-9.590386391E0,-9.469802976E-1
2.456497048E1,1.826458812E0,-9.588912010E0,-9.419075251E-1
2.458516079E1,1.840308189E0,-9.587200165E0,-9.323330522E-1
2.460535142E1,1.850458622E0,-9.585872650E0,-9.258758426E-1
2.462554225E1,1.852928519E0,-9.585845947E0,-9.211903214E-1
2.464574392E1,1.849987864E0,-9.586934090E0,-9.157789946E-1
2.466592079E1,1.846524954E0,-9.587761879E0,-9.140828252E-1
2.468609798E1,1.843142867E0,-9.588265419E0,-9.156309366E-1
2.470627590E1,1.838499665E0,-9.589007378E0,-9.171996117E-1
2.472645486E1,1.836436033E0,-9.588823318E0,-9.232295752E-1
2.474663517E1,1.841781735E0,-9.586498260E0,-9.366353154E-1
2.476681694E1,1.853301883E0,-9.582579613E0,-9.538505077E-1
2.478700038E1,1.866815686E0,-9.578643799E0,-9.669491649E-1
2.480718548E1,1.875352502E0,-9.576331139E0,-9.733131528E-1
2.482737225E1,1.877472758E0,-9.575919151E0,-9.732749462E-1
2.484756069E1,1.877720356E0,-9.576789856E0,-9.641792774E-1
2.486775069E1,1.877378702E0,-9.578436852E0,-9.483548999E-1
2.488794204E1,1.875887156E0,-9.580093384E0,-9.344776273E-1
2.490813444E1,1.874955297E0,-9.580998421E0,-9.270399809E-1
2.492832767E1,1.879059434E0,-9.580120087E0,-9.278119802E-1
2.494852142E1,1.888954997E0,-9.577565193E0,-9.340680838E-1
2.496871538E1,1.897958398E0,-9.575201988E0,-9.400194883E-1
2.498890861E1,1.901065230E0,-9.574144363E0,-9.445092678E-1
2.500909527E1,1.899171710E0,-9.574125290E0,-9.485045671E-1
2.502927652E1,1.892367363E0,-9.575193405E0,-9.513129592E-1
2.504945819E1,1.883927822E0,-9.576552391E0,-9.543868899E-1
2.506964048E1,1.878666520E0,-9.576977730E0,-9.604702592E-1
2.508982350E1,1.877935648E0,-9.576331139E0,-9.683155417E-1
2.511000736E1,1.879767060E0,-9.575378418E0,-9.741619825E-1
2.513019215E1,1.883296251E0,-9.574420929E0,-9.767472148E-1
2.515037788E1,1.888129950E0,-9.573274612E0,-9.786498547E-1
2.517056454E1,1.893228531E0,-9.571996689E0,-9.812957048E-1
2.519075215E1,1.896060824E0,-9.571320534E0,-9.824219346E-1
2.521094058E1,1.894210458E0,-9.571894646E0,-9.804044366E-1
2.523112975E1,1.889468193E0,-9.573171616E0,-9.770829678E-1
2.525131954E1,1.883518338E0,-9.574431419E0,-9.762219787E-1
2.527150986E1,1.875860214E0,-9.575822830E0,-9.773204327E-1
2.529170048E1,1.867679834E0,-9.577497482E0,-9.765824080E-1
2.531189131E1,1.858777165E0,-9.579588890E0,-9.730520248E-1
2.533209298E1,1.847561002E0,-9.582448959E0,-9.662212133E-1
2.535226986E1,1.838560462E0,-9.585045815E0,-9.575894475E-1
2.537244704E1,1.834668279E0,-9.586535454E0,-9.501123428E-1
2.539262496E1,1.834542274E0,-9.587286949E0,-9.427447915E-1
2.541280392E1,1.834329009E0,-9.588256836E0,-9.332506061E-1
2.543298423E1,1.828790307E0,-9.590080261E0,-9.253385067E-1
2.545316600E1,1.820243478E0,-9.591958046E0,-9.227406383E-1
2.547334944E1,1.816661119E0,-9.592507362E0,-9.240819812E-1
2.549353454E1,1.820521116E0,-9.591251373E0,-9.295157790E-1
2.551372131E1,1.824938893E0,-9.589642525E0,-9.374126792E-1
2.553390975E1,1.825534582E0,-9.588848114E0,-9.443592429E-1
2.555409965E1,1.824247122E0,-9.588496208E0,-9.503983259E-1
2.557429090E1,1.823668242E0,-9.588125229E0,-9.552387595E-1
2.559448319E1,1.824326038E0,-9.587542534E0,-9.598152041E-1
2.561467631E1,1.827057362E0,-9.586606026E0,-9.639649391E-1
2.563486996E1,1.831554174E0,-9.585482597E0,-9.666067362E-1
2.565506381E1,1.835325122E0,-9.584722519E0,-9.669916630E-1
2.567525756E1,1.834719181E0,-9.585093498E0,-9.644462466E-1
2.569544423E1,1.828588605E0,-9.586829185E0,-9.588382244E-1
2.571562548E1,1.819476843E0,-9.589048386E0,-9.539573193E-1
2.573580715E1,1.812542915E0,-9.590737343E0,-9.501824975E-1
2.575598944E1,1.812145710E0,-9.591024399E0,-9.480237365E-1
2.577617246E1,1.818527937E0,-9.589648247E0,-9.497302771E-1
2.579635631E1,1.826158524E0,-9.587676048E0,-9.549854398E-1
2.581654111E1,1.828494191E0,-9.586904526E0,-9.582590461E-1
2.583672683E1,1.824188590E0,-9.587924957E0,-9.562575221E-1
2.585691350E1,1.817192674E0,-9.589730263E0,-9.514552355E-1
2.587710110E1,1.814267993E0,-9.590318680E0,-9.511082172E-1
2.589728954E1,1.815723538E0,-9.589673042E0,-9.548354149E-1
2.591747871E1,1.819343448E0,-9.588788033E0,-9.568323493E-1
2.593766850E1,1.823888779E0,-9.587693214E0,-9.591374397E-1
2.595785881E1,1.828074098E0,-9.586181641E0,-9.662543535E-1
2.597804944E1,1.833076715E0,-9.584117889E0,-9.771878123E-1
2.599824017E1,1.838848948E0,-9.581707001E0,-9.899075031E-1
2.601844173E1,1.844287992E0,-9.579527855E0,-1.000807405E0
2.603861860E1,1.847977877E0,-9.577839851E0,-1.010115862E0
2.605879579E1,1.849577188E0,-9.576789856E0,-1.017117977E0
2.607897371E1,1.848596215E0,-9.576980591E0,-1.017124772E0
2.609915267E1,1.845317602E0,-9.578709602E0,-1.006737590E0
2.611933298E1,1.844439626E0,-9.580696106E0,-9.892895818E-1
2.613951475E1,1.848779678E0,-9.581874847E0,-9.695702195E-1
2.615969819E1,1.853478670E0,-9.582718849E0,-9.521033764E-1
2.617988329E1,1.853672504E0,-9.583716393E0,-9.416271448E-1
2.620007006E1,1.848034143E0,-9.585410118E0,-9.354522228E-1
2.622025850E1,1.835796833E0,-9.588424683E0,-9.286254048E-1
2.624044840E1,1.818839312E0,-9.592329979E0,-9.216398597E-1
2.626063965E1,1.798439384E0,-9.596759796E0,-9.155344963E-1
2.628083194E1,1.775633097E0,-9.601347923E0,-9.119430184E-1
2.630102506E1,1.755050540E0,-9.605129242E0,-9.119684100E-1
2.632121871E1,1.742846370E0,-9.606876373E0,-9.169483185E-1
2.634141256E1,1.745759010E0,-9.605504036E0,-9.257372618E-1
2.636160631E1,1.759831548E0,-9.602354050E0,-9.317525625E-1
2.638179298E1,1.775365472E0,-9.599389076E0,-9.328405857E-1
2.640197423E1,1.785945535E0,-9.597547531E0,-9.315974712E-1
2.642215590E1,1.790175319E0,-9.596885681E0,-9.302955270E-1
2.644233819E1,1.787803769E0,-9.597357750E0,-9.299820662E-1
2.646252121E1,1.783761859E0,-9.598027229E0,-9.308472872E-1
2.648270506E1,1.784104705E0,-9.597936630E0,-9.311126471E-1
2.650288986E1,1.789114594E0,-9.597167015E0,-9.294212461E-1
2.652307558E1,1.799498558E0,-9.595314026E0,-9.285162687E-1
2.654326225E1,1.811595798E0,-9.592858315E0,-9.303693771E-1
2.656344986E1,1.819503903E0,-9.590767860E0,-9.364628196E-1
2.658363829E1,1.817864656E0,-9.590170860E0,-9.457131028E-1
2.660382746E1,1.812779307E0,-9.589916229E0,-9.579814076E-1
2.662401725E1,1.812515378E0,-9.588679314E0,-9.707767963E-1
2.664420756E1,1.814383984E0,-9.587267876E0,-9.811767936E-1
2.666439819E1,1.815905809E0,-9.586085320E0,-9.898719788E-1
2.668442225E1,1.813868642E0,-9.585900307E0,-9.953780174E-1
2.670445965E1,1.809490323E0,-9.586024284E0,-1.002133250E0
2.672451579E1,1.811809063E0,-9.584815025E0,-1.009492397E0
2.674459517E1,1.816504598E0,-9.583463669E0,-1.013877749E0
2.676470116E1,1.817774177E0,-9.582661629E0,-1.019150138E0
2.678483595E1,1.810468316E0,-9.581871986E0,-1.039384604E0
2.680500043E1,1.798302770E0,-9.581815720E0,-1.060803294E0
2.682519428E1,1.787089109E0,-9.582332611E0,-1.074991345E0
2.684541605E1,1.781957507E0,-9.584421158E0,-1.064836025E0
2.686566324E1,1.789745092E0,-9.586619377E0,-1.031464934E0
2.688593241E1,1.802801967E0,-9.586931229E0,-1.005513906E0
2.690621933E1,1.816327453E0,-9.585465431E0,-9.950851798E-1
2.692651933E1,1.830933571E0,-9.582728386E0,-9.946845770E-1
2.694682736E1,1.846949577E0,-9.579961777E0,-9.917107821E-1
2.696713824E1,1.860409141E0,-9.578131676E0,-9.842016697E-1
2.698739095E1,1.867017746E0,-9.577496529E0,-9.778524637E-1
2.700758152E1,1.870088696E0,-9.576902390E0,-9.777941704E-1
2.702776824E1,1.871839166E0,-9.575904846E0,-9.842016697E-1
2.704796032E1,1.870293856E0,-9.575637817E0,-9.897152185E-1
2.706814704E1,1.864787698E0,-9.576226234E0,-9.944138527E-1
2.708832319E1,1.865361333E0,-9.575429916E0,-1.000980496E0
2.710849991E1,1.874652386E0,-9.573213577E0,-1.004812598E0
2.712867756E1,1.888118386E0,-9.571048737E0,-1.000205398E0
2.714885652E1,1.897383571E0,-9.570192337E0,-9.908314943E-1
2.716903704E1,1.897249460E0,-9.571114540E0,-9.821387529E-1
2.718921928E1,1.891073942E0,-9.573081970E0,-9.748445749E-1
2.720940334E1,1.883512020E0,-9.575073242E0,-9.699135423E-1
2.722958928E1,1.878473163E0,-9.576478958E0,-9.658059478E-1
2.724977704E1,1.878087282E0,-9.577123642E0,-9.601371884E-1
2.726996652E1,1.877068996E0,-9.578294754E0,-9.504104853E-1
2.729015756E1,1.871261239E0,-9.580608368E0,-9.384585023E-1
2.731034991E1,1.862311721E0,-9.583370209E0,-9.280019403E-1
2.733054324E1,1.856928349E0,-9.585032463E0,-9.216107130E-1
2.735073725E1,1.853060603E0,-9.586022377E0,-9.190891385E-1
2.737093163E1,1.847088099E0,-9.587058067E0,-9.203100204E-1
2.739112574E1,1.843337536E0,-9.587417603E0,-9.240771532E-1
2.741131600E1,1.845106840E0,-9.586747169E0,-9.274959564E-1
2.743150272E1,1.849359512E0,-9.585748672E0,-9.293391705E-1
2.745168668E1,1.851918459E0,-9.584928513E0,-9.326946139E-1
2.747186814E1,1.853395700E0,-9.584158897E0,-9.376636147E-1
2.749205012E1,1.857165813E0,-9.582876205E0,-9.432935715E-1
2.751223277E1,1.861719131E0,-9.581822395E0,-9.450237751E-1
2.753241621E1,1.860082984E0,-9.582373619E0,-9.426577687E-1
2.755260053E1,1.854211926E0,-9.583797455E0,-9.397445321E-1
2.757278579E1,1.847456694E0,-9.585499763E0,-9.356698394E-1
2.759297199E1,1.843001008E0,-9.586570740E0,-9.334804416E-1
2.761315913E1,1.845336676E0,-9.586240768E0,-9.322571158E-1
2.763334715E1,1.851056099E0,-9.585334778E0,-9.302402735E-1
2.765353595E1,1.858630300E0,-9.584028244E0,-9.285889864E-1
2.767372543E1,1.863877892E0,-9.583018303E0,-9.284886122E-1
2.769391548E1,1.865849257E0,-9.582413673E0,-9.307727218E-1
2.771410595E1,1.864951968E0,-9.582165718E0,-9.351178408E-1
2.773429663E1,1.865412712E0,-9.581413269E0,-9.418821335E-1
2.775449277E1,1.869073987E0,-9.580189705E0,-9.470614791E-1
2.777468194E1,1.873415112E0,-9.579161644E0,-9.488692880E-1
2.779485887E1,1.877395868E0,-9.577994347E0,-9.527872205E-1
2.781503631E1,1.881807446E0,-9.576407433E0,-9.600126147E-1
2.783521465E1,1.887541652E0,-9.574716568E0,-9.655946493E-1
2.785539418E1,1.893589497E0,-9.573319435E0,-9.676136374E-1
2.787557517E1,1.897655249E0,-9.572506905E0,-9.676818252E-1
2.789575777E1,1.899487019E0,-9.572138786E0,-9.677175283E-1
2.791594209E1,1.899140596E0,-9.572467804E0,-9.651554227E-1
2.793612814E1,1.894415140E0,-9.573755264E0,-9.616662860E-1
2.795631584E1,1.889622927E0,-9.574830055E0,-9.603862762E-1
2.797650512E1,1.890304685E0,-9.574473381E0,-9.626001120E-1
2.799669579E1,1.896565676E0,-9.572858810E0,-9.663353562E-1
2.801688767E1,1.902277350E0,-9.571487427E0,-9.686866999E-1
2.803708048E1,1.905747175E0,-9.570503235E0,-9.715898037E-1
2.805727397E1,1.907397151E0,-9.569938660E0,-9.739084244E-1
2.807746782E1,1.905264258E0,-9.570096970E0,-9.765222073E-1
2.809766131E1,1.902770877E0,-9.570042610E0,-9.819060564E-1
2.811785121E1,1.901481867E0,-9.569794655E0,-9.868091941E-1
2.813803793E1,1.900925517E0,-9.569743156E0,-9.883740544E-1
2.815822189E1,1.900097966E0,-9.569702148E0,-9.903653264E-1
2.817840334E1,1.900405526E0,-9.569264412E0,-9.940010905E-1
2.819858532E1,1.901053905E0,-9.568705559E0,-9.981269240E-1
2.821876798E1,1.902362823E0,-9.568099022E0,-1.001439452E0
2.823895142E1,1.903634787E0,-9.567694664E0,-1.002889037E0
2.825913574E1,1.901213884E0,-9.568217278E0,-1.002489328E0
2.827932100E1,1.895167470E0,-9.569292068E0,-1.003690958E0
2.829950720E1,1.889609575E0,-9.570054054E0,-1.006888390E0
2.831969433E1,1.886624813E0,-9.570379257E0,-1.009393454E0
2.833988236E1,1.885969281E0,-9.570426941E0,-1.010167718E0
2.836007116E1,1.886108637E0,-9.570398331E0,-1.010174513E0
2.838026064E1,1.888344884E0,-9.569881439E0,-1.010897398E0
2.840045069E1,1.888821483E0,-9.569827080E0,-1.010527372E0
2.842064116E1,1.885449648E0,-9.570686340E0,-1.008681297E0
2.844083183E1,1.883872747E0,-9.570796013E0,-1.010581732E0
2.846102798E1,1.888085961E0,-9.569405556E0,-1.015863299E0
2.848121715E1,1.894279957E0,-9.567672729E0,-1.020657659E0
2.850139407E1,1.899368644E0,-9.566177368E0,-1.025199533E0
2.852157152E1,1.903185964E0,-9.565065384E0,-1.028496027E0
2.854174986E1,1.906881690E0,-9.564011574E0,-1.031437039E0
2.856192939E1,1.914678216E0,-9.561882973E0,-1.036712527E0
2.858211038E1,1.925402641E0,-9.559055328E0,-1.042912364E0
2.860229298E1,1.933871031E0,-9.557045937E0,-1.045652986E0
2.862247730E1,1.939150929E0,-9.556381226E0,-1.041948795E0
2.864266334E1,1.940658927E0,-9.556926727E0,-1.034111857E0
2.866285105E1,1.941480398E0,-9.557863235E0,-1.023858666E0
2.868304032E1,1.946603417E0,-9.557839394E0,-1.014310718E0
2.870323100E1,1.955665946E0,-9.556904793E0,-1.005645871E0
2.872342288E1,1.964516163E0,-9.555939674E0,-9.975319505E-1
2.874361569E1,1.971729279E0,-9.555340767E0,-9.890000820E-1
2.876380918E1,1.976198435E0,-9.554924011E0,-9.841005206E-1
2.878400303E1,1.976534724E0,-9.554831505E0,-9.843183160E-1
2.880419647E1,1.971060514E0,-9.555274963E0,-9.909738898E-1
2.882438631E1,1.968240380E0,-9.554378510E0,-1.005115747E0
2.884457038E1,1.974285126E0,-9.551630020E0,-1.019289017E0
2.886475194E1,1.985681891E0,-9.548088074E0,-1.030270576E0
2.888493397E1,1.992877841E0,-9.546043396E0,-1.035313845E0
2.890511663E1,1.990133405E0,-9.546646118E0,-1.035034537E0
2.892530006E1,1.980271339E0,-9.549686432E0,-1.025869131E0
2.894548439E1,1.966234803E0,-9.554553986E0,-1.007375360E0
2.896566965E1,1.949599624E0,-9.560519218E0,-9.828168154E-1
2.898585584E1,1.929677844E0,-9.567731857E0,-9.514458776E-1
2.900604298E1,1.909387589E0,-9.575019836E0,-9.184955359E-1
2.902623100E1,1.892750978E0,-9.580471992E0,-8.957899213E-1
2.904641980E1,1.882294893E0,-9.582709312E0,-8.938960433E-1
2.906660928E1,1.879050732E0,-9.582018852E0,-9.080109596E-1
2.908679933E1,1.882844925E0,-9.579379082E0,-9.277814031E-1
2.910698980E1,1.892944217E0,-9.575681686E0,-9.452335835E-1
2.912718048E1,1.905338526E0,-9.572572708E0,-9.518085718E-1
2.914737663E1,1.912553072E0,-9.570909500E0,-9.540601969E-1
2.916756564E1,1.912528276E0,-9.570674896E0,-9.564530253E-1
2.918774225E1,1.908399105E0,-9.571666718E0,-9.547715783E-1
2.920791939E1,1.900827050E0,-9.573464394E0,-9.518465996E-1
2.922809741E1,1.890070796E0,-9.575803757E0,-9.497398734E-1
2.924827663E1,1.876421332E0,-9.578629494E0,-9.483121037E-1
2.926845730E1,1.866453767E0,-9.580492973E0,-9.491480589E-1
2.928863965E1,1.866186857E0,-9.580391884E0,-9.506989121E-1
2.930882376E1,1.874217033E0,-9.578515053E0,-9.538046718E-1
2.932900965E1,1.888655901E0,-9.575218201E0,-9.584151506E-1
2.934919730E1,1.902357101E0,-9.572103500E0,-9.624306560E-1
2.936938663E1,1.909671545E0,-9.570444107E0,-9.644435048E-1
2.938957741E1,1.908651710E0,-9.570384026E0,-9.670435190E-1
2.940976944E1,1.903764367E0,-9.570849419E0,-9.720624685E-1
2.942996246E1,1.903602362E0,-9.570084572E0,-9.798757434E-1
2.945015616E1,1.906525016E0,-9.569024086E0,-9.845462441E-1
2.947035022E1,1.910397172E0,-9.568569183E0,-9.814625978E-1
2.949054433E1,1.914829373E0,-9.568201065E0,-9.763945341E-1
2.951073470E1,1.917280793E0,-9.567654610E0,-9.769309759E-1
2.953091866E1,1.916606545E0,-9.567252159E0,-9.821885824E-1
2.955110012E1,1.912462234E0,-9.567432404E0,-9.884843826E-1
2.957128209E1,1.904545188E0,-9.568741798E0,-9.910930991E-1
2.959146475E1,1.896344185E0,-9.570494652E0,-9.898975492E-1
2.961164819E1,1.890214086E0,-9.572034836E0,-9.867305160E-1
2.963183251E1,1.885670066E0,-9.573130608E0,-9.847890139E-1
2.965201777E1,1.882392049E0,-9.573846817E0,-9.840924740E-1
2.967220397E1,1.879204392E0,-9.574604988E0,-9.828100204E-1
2.969239111E1,1.876546264E0,-9.575517654E0,-9.789903164E-1
2.971257913E1,1.874851704E0,-9.576387405E0,-9.737176895E-1
2.973276793E1,1.872584343E0,-9.577271461E0,-9.693669081E-1
2.975295741E1,1.869514823E0,-9.577809334E0,-9.699783325E-1
2.977314746E1,1.868867993E0,-9.577733040E0,-9.719834924E-1
2.979333793E1,1.868938208E0,-9.577388763E0,-9.752345681E-1
2.981352861E1,1.871138453E0,-9.576398849E0,-9.807174802E-1
2.983372475E1,1.875749111E0,-9.575060844E0,-9.849628210E-1
2.985391387E1,1.882912993E0,-9.573347092E0,-9.879544973E-1
2.987409069E1,1.889294386E0,-9.571757317E0,-9.911590815E-1
2.989426803E1,1.893910885E0,-9.570451736E0,-9.949672222E-1
2.991444626E1,1.898671746E0,-9.569019318E0,-9.996511936E-1
2.993462569E1,1.902220249E0,-9.567862511E0,-1.003975630E0
2.995480657E1,1.902495027E0,-9.567510605E0,-1.006793022E0
2.997498907E1,1.901147246E0,-9.567639351E0,-1.008115649E0
2.999517228E1,1.899487138E0,-9.568104744E0,-1.006827235E0
3.001535827E1,1.895887256E0,-9.569173813E0,-1.003458142E0
3.003554598E1,1.892879009E0,-9.570376396E0,-9.976432920E-1
3.005573530E1,1.891578674E0,-9.571088791E0,-9.932645559E-1
3.007592608E1,1.890308976E0,-9.571493149E0,-9.917846322E-1
3.009611806E1,1.888332248E0,-9.572025299E0,-9.904150367E-1
3.011631098E1,1.886978388E0,-9.572342873E0,-9.899208546E-1
3.013650457E1,1.888079762E0,-9.572101593E0,-9.901602864E-1
3.015669853E1,1.892568469E0,-9.571330070E0,-9.890376925E-1
3.017689212E1,1.897386312E0,-9.570440292E0,-9.884241223E-1
3.019708202E1,1.900529146E0,-9.569708824E0,-9.894785881E-1
3.021726598E1,1.900315166E0,-9.569675446E0,-9.901978374E-1
3.023744744E1,1.897032738E0,-9.570108414E0,-9.923068881E-1
3.025762936E1,1.893276930E0,-9.570640564E0,-9.943418503E-1
3.027781192E1,1.887576580E0,-9.571865082E0,-9.934036136E-1
3.029799525E1,1.878352165E0,-9.573493004E0,-9.951983690E-1
3.031817947E1,1.865334153E0,-9.575644493E0,-9.989717603E-1
3.033836462E1,1.852701306E0,-9.577619553E0,-1.003535628E0
3.035855077E1,1.844274282E0,-9.578762054E0,-1.008149385E0
3.037873790E1,1.839704633E0,-9.579079628E0,-1.013468266E0
3.039892593E1,1.838162541E0,-9.578652382E0,-1.020273209E0
3.041911473E1,1.838363528E0,-9.578067780E0,-1.025398731E0
3.043930421E1,1.838273883E0,-9.577735901E0,-1.028653026E0
3.045949426E1,1.838003874E0,-9.577568054E0,-1.030682683E0
3.047968473E1,1.837173343E0,-9.577503204E0,-1.032764912E0
3.049987546E1,1.834078193E0,-9.577453613E0,-1.038714886E0
3.052007171E1,1.828811407E0,-9.576905251E0,-1.052956462E0
3.054026098E1,1.825261474E0,-9.575436592E0,-1.072297692E0
3.056043801E1,1.827751756E0,-9.572757721E0,-1.091799021E0
3.058061556E1,1.834424257E0,-9.568802834E0,-1.115031004E0
3.060079400E1,1.841367602E0,-9.564076424E0,-1.143756986E0
3.062097364E1,1.850768447E0,-9.558410645E0,-1.175509334E0
3.064115468E1,1.862171054E0,-9.552317619E0,-1.206619024E0
3.066133728E1,1.869603157E0,-9.546130180E0,-1.243529439E0
3.068152155E1,1.872701645E0,-9.539250374E0,-1.290758848E0
3.070170749E1,1.876759887E0,-9.532667160E0,-1.332828403E0
3.072189509E1,1.878053308E0,-9.528076172E0,-1.363477468E0
3.074208426E1,1.875708103E0,-9.524322510E0,-1.392623544E0
3.076227483E1,1.871274829E0,-9.522330284E0,-1.412068963E0
3.078246660E1,1.865825534E0,-9.523702621E0,-1.410021782E0
3.080265931E1,1.864952207E0,-9.526456833E0,-1.392463803E0
3.082285270E1,1.865514994E0,-9.529030800E0,-1.373972893E0
3.084304645E1,1.858783364E0,-9.532471657E0,-1.359147310E0
3.086324009E1,1.837254763E0,-9.538730621E0,-1.344432950E0
3.088343020E1,1.813982606E0,-9.546752930E0,-1.318854332E0
3.090361692E1,1.800749540E0,-9.553479195E0,-1.287914515E0
3.092380087E1,1.792530537E0,-9.557955742E0,-1.265976191E0
3.094398233E1,1.786438107E0,-9.560539246E0,-1.255044580E0
3.096416426E1,1.785329103E0,-9.561307907E0,-1.250750542E0
3.098434681E1,1.788676143E0,-9.560926437E0,-1.248880625E0
3.100453014E1,1.793057561E0,-9.559904099E0,-1.250427008E0
3.102471436E1,1.798873782E0,-9.557561874E0,-1.259942293E0
3.104489952E1,1.806761861E0,-9.554533958E0,-1.271566391E0
3.106508561E1,1.811581373E0,-9.552977562E0,-1.276394963E0
3.108527265E1,1.817629695E0,-9.551536560E0,-1.278576016E0
3.110546061E1,1.827903986E0,-9.549374580E0,-1.280075550E0
3.112564947E1,1.835913777E0,-9.547499657E0,-1.282595515E0
3.114583905E1,1.838850737E0,-9.546557426E0,-1.285399795E0
3.116602921E1,1.839396000E0,-9.546381950E0,-1.285928488E0
3.118621978E1,1.839030147E0,-9.546641350E0,-1.284519792E0
3.120641056E1,1.838808298E0,-9.546514511E0,-1.285778165E0
3.122660681E1,1.839006066E0,-9.545958519E0,-1.289624453E0
3.124679598E1,1.840660572E0,-9.545309067E0,-1.292069912E0
3.126697280E1,1.844527721E0,-9.544679642E0,-1.291195393E0
3.128715015E1,1.847348332E0,-9.544084549E0,-1.291565418E0
3.130732837E1,1.848945975E0,-9.543346405E0,-1.294736028E0
3.132750780E1,1.847653747E0,-9.543455124E0,-1.295771480E0
3.134768869E1,1.841341972E0,-9.545019150E0,-1.293234944E0
3.136787119E1,1.834919810E0,-9.546153069E0,-1.293996811E0
3.138805541E1,1.831954718E0,-9.546517372E0,-1.295503736E0
3.140824140E1,1.830834985E0,-9.547139168E0,-1.292500496E0
3.142842910E1,1.829411149E0,-9.548288345E0,-1.286016583E0
3.144861843E1,1.825289369E0,-9.549698830E0,-1.281390667E0
3.146880921E1,1.819429398E0,-9.550786018E0,-1.281626463E0
3.148900119E1,1.817443490E0,-9.550744057E0,-1.284741759E0
3.150919410E1,1.820293427E0,-9.549994469E0,-1.286290169E0
3.152938770E1,1.822145224E0,-9.549450874E0,-1.287697077E0
3.154958166E1,1.821345210E0,-9.549316406E0,-1.289828300E0
3.156977520E1,1.821011186E0,-9.549445152E0,-1.289338470E0
3.158996504E1,1.820818901E0,-9.549965858E0,-1.285757184E0
3.161014900E1,1.821659088E0,-9.550260544E0,-1.282367706E0
3.163033046E1,1.824725986E0,-9.550524712E0,-1.276028156E0
3.165051239E1,1.829786181E0,-9.550924301E0,-1.265744090E0
3.167069494E1,1.836696267E0,-9.551324844E0,-1.252646089E0
3.169087827E1,1.848645806E0,-9.551150322E0,-1.236300826E0
3.171106249E1,1.864883780E0,-9.551236153E0,-1.210984826E0
3.173124765E1,1.881118655E0,-9.552780151E0,-1.173096299E0
3.175143374E1,1.887524128E0,-9.556503296E0,-1.131761312E0
3.177162077E1,1.876360178E0,-9.560266495E0,-1.118473172E0
3.179180874E1,1.859440684E0,-9.560537338E0,-1.144102335E0
3.181199754E1,1.854465961E0,-9.558646202E0,-1.167752743E0
3.183218702E1,1.858121157E0,-9.558687210E0,-1.161592484E0
3.185237707E1,1.863267303E0,-9.561285973E0,-1.131557226E0
3.187256754E1,1.864842653E0,-9.563861847E0,-1.106938004E0
3.189275827E1,1.859970927E0,-9.564370155E0,-1.110730767E0
3.191295452E1,1.853731632E0,-9.563478470E0,-1.128698349E0
3.193314390E1,1.853581905E0,-9.563145638E0,-1.131757379E0
3.195332114E1,1.852090359E0,-9.565793037E0,-1.111645579E0
3.197349890E1,1.843353868E0,-9.570638657E0,-1.084121585E0
3.199367754E1,1.833740354E0,-9.574340820E0,-1.067608476E0
3.201385733E1,1.828712225E0,-9.575442314E0,-1.066354632E0
3.203403848E1,1.831227899E0,-9.574381828E0,-1.071536541E0
3.205422114E1,1.837940097E0,-9.572910309E0,-1.073197603E0
3.207440540E1,1.840772748E0,-9.573036194E0,-1.067202687E0
3.209459134E1,1.840597749E0,-9.573918343E0,-1.059557676E0
3.211477890E1,1.839968443E0,-9.574405670E0,-1.056251407E0
3.213496796E1,1.841363311E0,-9.574227333E0,-1.055426002E0
3.215515837E1,1.846281290E0,-9.573326111E0,-1.055011392E0
3.217534994E1,1.850338817E0,-9.572939873E0,-1.051413417E0
3.219554244E1,1.850180507E0,-9.573495865E0,-1.046618104E0
3.221573561E1,1.848349214E0,-9.574055672E0,-1.044725418E0
3.223592916E1,1.848442197E0,-9.573869705E0,-1.046264052E0
3.225612009E1,1.850385308E0,-9.573076248E0,-1.050078869E0
3.227630837E1,1.853097320E0,-9.572151184E0,-1.053722262E0
3.229650212E1,1.854786038E0,-9.571718216E0,-1.054691076E0
3.231669077E1,1.854927301E0,-9.571923256E0,-1.052585959E0
3.233686905E1,1.853950858E0,-9.572428703E0,-1.049690604E0
3.235704780E1,1.851534605E0,-9.573243141E0,-1.046530962E0
3.237722733E1,1.848060608E0,-9.574472427E0,-1.041416407E0
3.239740790E1,1.844237328E0,-9.575854301E0,-1.035465240E0
3.241758968E1,1.841206431E0,-9.576851845E0,-1.031634808E0
3.243777280E1,1.840898395E0,-9.577514648E0,-1.026015282E0
3.245795738E1,1.839867234E0,-9.578623772E0,-1.017474651E0
3.247814343E1,1.837776303E0,-9.579965591E0,-1.008578897E0
3.249833093E1,1.835388541E0,-9.580822945E0,-1.004766941E0
3.251851978E1,1.831413031E0,-9.581568718E0,-1.004916787E0
3.253870983E1,1.825430036E0,-9.582847595E0,-1.003606796E0
3.255890093E1,1.821001530E0,-9.583835602E0,-1.002214551E0
3.257909285E1,1.819443345E0,-9.584601402E0,-9.977200627E-1
3.259928535E1,1.817814589E0,-9.585330963E0,-9.936639071E-1
3.261947817E1,1.813890815E0,-9.585801125E0,-9.962974191E-1
3.263967087E1,1.811267376E0,-9.585458755E0,-1.004329562E0
3.265986046E1,1.811635017E0,-9.584504128E0,-1.012745976E0
3.268004442E1,1.812643647E0,-9.583993912E0,-1.015756845E0
3.270022587E1,1.814549446E0,-9.583758354E0,-1.014587283E0
3.272040780E1,1.819094062E0,-9.583024979E0,-1.013369322E0
3.274059035E1,1.823633194E0,-9.582112312E0,-1.013835669E0
3.276077369E1,1.826714516E0,-9.581181526E0,-1.017086744E0
3.278095790E1,1.828088641E0,-9.580533028E0,-1.020711422E0
3.280114306E1,1.828690052E0,-9.580121994E0,-1.023488283E0
3.282132916E1,1.829733849E0,-9.579895020E0,-1.023755789E0
3.284151619E1,1.831014156E0,-9.579731941E0,-1.022989631E0
3.286170416E1,1.832779646E0,-9.579349518E0,-1.023409605E0
3.288189296E1,1.835302591E0,-9.578535080E0,-1.026506782E0
3.290208244E1,1.837861896E0,-9.577722549E0,-1.029503107E0
3.292227249E1,1.838741899E0,-9.577342987E0,-1.031466961E0
3.294246296E1,1.836871147E0,-9.577706337E0,-1.031417847E0
3.296265369E1,1.834287167E0,-9.578358650E0,-1.029971719E0
3.298284994E1,1.831200719E0,-9.579130173E0,-1.028277516E0
3.300303931E1,1.826325059E0,-9.580432892E0,-1.024807334E0
3.302321655E1,1.821996808E0,-9.581662178E0,-1.021018744E0
3.304339431E1,1.818937182E0,-9.582632065E0,-1.017358899E0
3.306357296E1,1.817869425E0,-9.583162308E0,-1.014267564E0
3.308375275E1,1.817501187E0,-9.583426476E0,-1.012424111E0
3.310393390E1,1.818458319E0,-9.583097458E0,-1.013834119E0
3.312411655E1,1.821926117E0,-9.582020760E0,-1.017767549E0
3.314430082E1,1.826120734E0,-9.580667496E0,-1.022976518E0
3.316448676E1,1.828465462E0,-9.579732895E0,-1.027534246E0
3.318467431E1,1.827307463E0,-9.579534531E0,-1.031429172E0
3.320486337E1,1.823550463E0,-9.579971313E0,-1.034018517E0
3.322505379E1,1.819228649E0,-9.580730438E0,-1.034598112E0
3.324524535E1,1.814900875E0,-9.581459999E0,-1.035448790E0
3.326543785E1,1.813082814E0,-9.581673622E0,-1.036643863E0
3.328563103E1,1.813899755E0,-9.581364632E0,-1.038084149E0
3.330582457E1,1.817073703E0,-9.580710411E0,-1.038561344E0
3.332601551E1,1.821913004E0,-9.579861641E0,-1.037921786E0
3.334620379E1,1.826376677E0,-9.578947067E0,-1.038521647E0
3.336639754E1,1.829998851E0,-9.577974319E0,-1.041097164E0
3.338658614E1,1.833288431E0,-9.576915741E0,-1.045049548E0
3.340676431E1,1.834461808E0,-9.576184273E0,-1.049677253E0
3.342694296E1,1.833873987E0,-9.575984001E0,-1.052531838E0
3.344712238E1,1.832356572E0,-9.576202393E0,-1.053177476E0
3.346730285E1,1.831095695E0,-9.576427460E0,-1.053332567E0
3.348748457E1,1.831235886E0,-9.576327324E0,-1.054001808E0
3.350766770E1,1.832409024E0,-9.576066017E0,-1.054333210E0
3.352785228E1,1.834237695E0,-9.575592041E0,-1.055455685E0
3.354803832E1,1.836815357E0,-9.574913025E0,-1.057137728E0
3.356822582E1,1.839702964E0,-9.574141502E0,-1.059100032E0
3.358841473E1,1.840740800E0,-9.573607445E0,-1.062126875E0
3.360860489E1,1.839407444E0,-9.573246956E0,-1.067669511E0
3.362879608E1,1.837969661E0,-9.573039055E0,-1.071998358E0
3.364898811E1,1.834281325E0,-9.573872566E0,-1.070874691E0
3.366918072E1,1.827205896E0,-9.575567245E0,-1.067812920E0
3.368937364E1,1.821859598E0,-9.576533318E0,-1.068278074E0
3.370956629E1,1.821682453E0,-9.576227188E0,-1.071326375E0
3.372975577E1,1.824213266E0,-9.575393677E0,-1.074452758E0
3.374993973E1,1.827802658E0,-9.574702263E0,-1.074524522E0
3.377012119E1,1.830266237E0,-9.574326515E0,-1.073680282E0
3.379030311E1,1.829695344E0,-9.574075699E0,-1.076884747E0
3.381048567E1,1.824589014E0,-9.574405670E0,-1.082602501E0
3.383066900E1,1.819159269E0,-9.575147629E0,-1.085171223E0
3.385085322E1,1.814437270E0,-9.576215744E0,-1.083649516E0
3.387103837E1,1.811358452E0,-9.577267647E0,-1.079496026E0
3.389122447E1,1.810381770E0,-9.577679634E0,-1.077484488E0
3.391141150E1,1.810429811E0,-9.577437401E0,-1.079552531E0
3.393159947E1,1.811184525E0,-9.576718330E0,-1.084653854E0
3.395178827E1,1.812987924E0,-9.575925827E0,-1.088618875E0
3.397197775E1,1.815555334E0,-9.575047493E0,-1.092067242E0
3.399216780E1,1.818653345E0,-9.574288368E0,-1.093565345E0
3.401235827E1,1.822152019E0,-9.573593140E0,-1.093829632E0
3.403254900E1,1.825625777E0,-9.572802544E0,-1.094952703E0
3.405274525E1,1.828646302E0,-9.572022438E0,-1.096726656E0
3.407293457E1,1.829943419E0,-9.571584702E0,-1.098394156E0
3.409311171E1,1.830178142E0,-9.571509361E0,-1.098661542E0
3.411328936E1,1.830515862E0,-9.571584702E0,-1.097434878E0
3.413346790E1,1.830843925E0,-9.571646690E0,-1.096336842E0
3.415364759E1,1.831515431E0,-9.571545601E0,-1.096101284E0
3.417382864E1,1.833711147E0,-9.571005821E0,-1.097149849E0
3.419401124E1,1.836245418E0,-9.570374489E0,-1.098417401E0
3.421419551E1,1.837351680E0,-9.570237160E0,-1.097764850E0
3.423438145E1,1.837446451E0,-9.570383072E0,-1.096334815E0
3.425456905E1,1.838089347E0,-9.570348740E0,-1.095553517E0
3.427475822E1,1.837451220E0,-9.570545197E0,-1.094907999E0
3.429494874E1,1.835770011E0,-9.571144104E0,-1.092489123E0
3.431514040E1,1.834830165E0,-9.571528435E0,-1.090690374E0
3.433533301E1,1.834918618E0,-9.571642876E0,-1.089544773E0
3.435552629E1,1.836096883E0,-9.571584702E0,-1.088062882E0
3.437571994E1,1.838183165E0,-9.571387291E0,-1.086282969E0
3.439591353E1,1.840404868E0,-9.571066856E0,-1.085346341E0
3.441610358E1,1.842168927E0,-9.570859909E0,-1.084177375E0
3.443628754E1,1.842970371E0,-9.570757866E0,-1.083711386E0
3.445646900E1,1.844131112E0,-9.570377350E0,-1.085105538E0
3.447665093E1,1.845187306E0,-9.569959641E0,-1.086978316E0
3.449683348E1,1.844404817E0,-9.570153236E0,-1.086608052E0
3.451701681E1,1.843431592E0,-9.570622444E0,-1.084124923E0
3.453720103E1,1.844222188E0,-9.570858002E0,-1.080700755E0
3.455738619E1,1.845845938E0,-9.570983887E0,-1.076803207E0
3.457757228E1,1.848062634E0,-9.570882797E0,-1.073891878E0
3.459775931E1,1.850706577E0,-9.570484161E0,-1.072889924E0
3.461794728E1,1.853700042E0,-9.570122719E0,-1.070944786E0
3.463813608E1,1.856970668E0,-9.569948196E0,-1.066842198E0
3.465832556E1,1.860403538E0,-9.569955826E0,-1.060768843E0
3.467851561E1,1.861817718E0,-9.570344925E0,-1.054755926E0
3.469870608E1,1.862652421E0,-9.570756912E0,-1.049536586E0
3.471889681E1,1.864558220E0,-9.571112633E0,-1.042883754E0
3.473909306E1,1.865409255E0,-9.571741104E0,-1.035570383E0
3.475928238E1,1.865976095E0,-9.572219849E0,-1.030117869E0
3.477945952E1,1.867065668E0,-9.572440147E0,-1.026079655E0
3.479963718E1,1.867299438E0,-9.573043823E0,-1.020003080E0
3.481981572E1,1.864731312E0,-9.574192047E0,-1.013908863E0
3.483999540E1,1.862120271E0,-9.575215340E0,-1.009029627E0
3.486017645E1,1.860487938E0,-9.576091766E0,-1.003704548E0
3.488035905E1,1.858087778E0,-9.577271461E0,-9.968796968E-1
3.490054332E1,1.856357574E0,-9.578312874E0,-9.900727868E-1
3.492072926E1,1.855206966E0,-9.579392433E0,-9.817503095E-1
3.494091686E1,1.851961493E0,-9.581061363E0,-9.715362787E-1
3.496110603E1,1.846237898E0,-9.582907677E0,-9.641963840E-1
3.498129655E1,1.841072202E0,-9.584253311E0,-9.606991410E-1
3.500148822E1,1.838394761E0,-9.585165024E0,-9.567187428E-1
3.502168082E1,1.837535739E0,-9.585940361E0,-9.505680799E-1
3.504187410E1,1.832960725E0,-9.587454796E0,-9.441118836E-1
3.506206775E1,1.826481223E0,-9.588967323E0,-9.413082004E-1
3.508226134E1,1.821152568E0,-9.590079308E0,-9.403017759E-1
3.510245140E1,1.816514254E0,-9.591099739E0,-9.388673902E-1
3.512263535E1,1.812743306E0,-9.591895103E0,-9.380270839E-1
3.514281681E1,1.810981989E0,-9.592290878E0,-9.373840094E-1
3.516299874E1,1.810122967E0,-9.592378616E0,-9.381341338E-1
3.518318155E1,1.807782412E0,-9.592562675E0,-9.407769442E-1
3.520336572E1,1.804974198E0,-9.592738152E0,-9.443720579E-1
3.522355072E1,1.804661036E0,-9.592568398E0,-9.466804862E-1
3.524373655E1,1.806707263E0,-9.592129707E0,-9.472327232E-1
3.526392322E1,1.806147933E0,-9.592142105E0,-9.481664896E-1
3.528411072E1,1.803363323E0,-9.592175484E0,-9.531230330E-1
3.530429895E1,1.801819444E0,-9.591886520E0,-9.589257240E-1
3.532448780E1,1.801268101E0,-9.591580391E0,-9.630224705E-1
3.534467718E1,1.801237345E0,-9.591218948E0,-9.666650295E-1
3.536486697E1,1.803931236E0,-9.590132713E0,-9.723984599E-1
3.538505707E1,1.809496284E0,-9.588347435E0,-9.796521664E-1
3.540524728E1,1.815334797E0,-9.586493492E0,-9.869598746E-1
3.542544832E1,1.820144534E0,-9.585025787E0,-9.923418164E-1
3.544562530E1,1.823117495E0,-9.584125519E0,-9.955672026E-1
3.546580259E1,1.825972080E0,-9.583183289E0,-9.994027019E-1
3.548598061E1,1.827771306E0,-9.582341194E0,-1.004186273E0
3.550615968E1,1.828432202E0,-9.581710815E0,-1.008983254E0
3.552633999E1,1.829447865E0,-9.581223488E0,-1.011763692E0
3.554652176E1,1.831219077E0,-9.580796242E0,-1.012601376E0
3.556670520E1,1.833109021E0,-9.580237389E0,-1.014462352E0
3.558689030E1,1.836265683E0,-9.579397202E0,-1.016686440E0
3.560707707E1,1.840785503E0,-9.578342438E0,-1.018456578E0
3.562726551E1,1.843977928E0,-9.577686310E0,-1.018845797E0
3.564745540E1,1.845001698E0,-9.577401161E0,-1.019684076E0
3.566764655E1,1.844923615E0,-9.577250481E0,-1.021234155E0
3.568783874E1,1.843018770E0,-9.577422142E0,-1.023061872E0
3.570803176E1,1.840513587E0,-9.577765465E0,-1.024361253E0
3.572822530E1,1.839638233E0,-9.577673912E0,-1.026790023E0
3.574841905E1,1.840234518E0,-9.577041626E0,-1.031596422E0
3.576861249E1,1.841612816E0,-9.576212883E0,-1.036821127E0
3.578879916E1,1.842975259E0,-9.575474739E0,-1.041201711E0
3.580898040E1,1.843751669E0,-9.574859619E0,-1.045481682E0
3.582916207E1,1.846135259E0,-9.573822975E0,-1.050761342E0
3.584934426E1,1.849033713E0,-9.572773933E0,-1.055210233E0
3.586952718E1,1.849988341E0,-9.572290421E0,-1.057918787E0
3.588971093E1,1.847414017E0,-9.572420120E0,-1.061237335E0
3.590989561E1,1.844939113E0,-9.572442055E0,-1.065336823E0
3.593008124E1,1.844633818E0,-9.572191238E0,-1.068112612E0
3.595026780E1,1.846482754E0,-9.571631432E0,-1.069943547E0
3.597045530E1,1.850089908E0,-9.570749283E0,-1.071595669E0
3.599064364E1,1.853998542E0,-9.569810867E0,-1.073217392E0
3.601083280E1,1.856866360E0,-9.569129944E0,-1.074337363E0
3.603102259E1,1.858829856E0,-9.568537712E0,-1.076205850E0
3.605121290E1,1.860650063E0,-9.567830086E0,-1.079347968E0
3.607140353E1,1.863672018E0,-9.566874504E0,-1.082598925E0
3.609159436E1,1.867390633E0,-9.565839767E0,-1.085330725E0
3.611179603E1,1.869815707E0,-9.565148354E0,-1.087255597E0
3.613197301E1,1.871554017E0,-9.564603806E0,-1.089051008E0
3.615215030E1,1.873712778E0,-9.563700676E0,-1.093260407E0
3.617232832E1,1.877948165E0,-9.562314987E0,-1.098108530E0
3.619250738E1,1.882984877E0,-9.560924530E0,-1.101574659E0
3.621268770E1,1.884292603E0,-9.560520172E0,-1.102857590E0
3.623286947E1,1.882447720E0,-9.561072350E0,-1.101213336E0
3.625305291E1,1.880746365E0,-9.561408043E0,-1.101209521E0
3.627323801E1,1.880674601E0,-9.561030388E0,-1.104599357E0
3.629342478E1,1.882759929E0,-9.560235977E0,-1.107918620E0
3.631361322E1,1.886181235E0,-9.559381485E0,-1.109474540E0
3.633380311E1,1.888530493E0,-9.558933258E0,-1.109341979E0
3.635399426E1,1.888974905E0,-9.558806419E0,-1.109684944E0
3.637418645E1,1.887048960E0,-9.558990479E0,-1.111372352E0
3.639437947E1,1.883330584E0,-9.559448242E0,-1.113734245E0
3.641457301E1,1.878805041E0,-9.560120583E0,-1.115605354E0
3.643476676E1,1.874886632E0,-9.560711861E0,-1.117120385E0
3.645496020E1,1.872024655E0,-9.561285019E0,-1.117018104E0
3.647514686E1,1.867898822E0,-9.562134743E0,-1.116652131E0
3.649532811E1,1.863590717E0,-9.562669754E0,-1.119278908E0
3.651550978E1,1.862498999E0,-9.562583923E0,-1.121817231E0
3.653569197E1,1.865415931E0,-9.561918259E0,-1.122645855E0
3.655587488E1,1.867780685E0,-9.561286926E0,-1.124089956E0
3.657605864E1,1.866074681E0,-9.561479568E0,-1.125274658E0
3.659624332E1,1.862634063E0,-9.562153816E0,-1.125254154E0
3.661642895E1,1.859760046E0,-9.562741280E0,-1.125009775E0
3.663661551E1,1.859182954E0,-9.562822342E0,-1.125282288E0
3.665680301E1,1.860004067E0,-9.562532425E0,-1.126387715E0
3.667699145E1,1.862279296E0,-9.561840057E0,-1.128503799E0
3.669718061E1,1.863837957E0,-9.561431885E0,-1.129387617E0
3.671737041E1,1.863267422E0,-9.561396599E0,-1.130628109E0
3.673756072E1,1.862527370E0,-9.561342239E0,-1.132302880E0
3.675775134E1,1.862216592E0,-9.561227798E0,-1.133782625E0
3.677794218E1,1.862856627E0,-9.560825348E0,-1.136121988E0
3.679814384E1,1.864863396E0,-9.560172081E0,-1.138323784E0
3.681832082E1,1.866051674E0,-9.559906960E0,-1.138603568E0
3.683849811E1,1.867025971E0,-9.559941292E0,-1.136708021E0
3.685867614E1,1.866414905E0,-9.560467720E0,-1.133290052E0
3.687885520E1,1.864061475E0,-9.561297417E0,-1.130157948E0
3.689903551E1,1.863071561E0,-9.561372757E0,-1.131157875E0
3.691921728E1,1.862679243E0,-9.561258316E0,-1.132766008E0
3.693940072E1,1.862007260E0,-9.561595917E0,-1.131012559E0
3.695958582E1,1.860108376E0,-9.562533379E0,-1.126214266E0
3.697977259E1,1.856957436E0,-9.563611984E0,-1.122240901E0
3.699996103E1,1.854622126E0,-9.564382553E0,-1.119532704E0
3.702015093E1,1.853908420E0,-9.564589500E0,-1.118950248E0
3.704034207E1,1.854213953E0,-9.564634323E0,-1.118061185E0
3.706053426E1,1.855367303E0,-9.564908028E0,-1.113793492E0
3.708072728E1,1.857358217E0,-9.565090179E0,-1.108903646E0
3.710092082E1,1.858024478E0,-9.565311432E0,-1.105880260E0
3.712111457E1,1.855707645E0,-9.565700531E0,-1.106394172E0
3.714130801E1,1.852835774E0,-9.566164017E0,-1.107203126E0
3.716149468E1,1.850796103E0,-9.566561699E0,-1.107169509E0
3.718167593E1,1.851193428E0,-9.566668510E0,-1.105586886E0
3.720185759E1,1.852496386E0,-9.566656113E0,-1.103511095E0
3.722203978E1,1.852862954E0,-9.566982269E0,-1.100063205E0
3.724222270E1,1.850613475E0,-9.568187714E0,-1.093343019E0
3.726240645E1,1.847683311E0,-9.569682121E0,-1.085193276E0
3.728259114E1,1.846000671E0,-9.570860863E0,-1.077631593E0
3.730277676E1,1.844784260E0,-9.571623802E0,-1.072934985E0
3.732296332E1,1.841367602E0,-9.572646141E0,-1.069672823E0
3.734315082E1,1.836477876E0,-9.574094772E0,-1.065104008E0
3.736333916E1,1.831693530E0,-9.575799942E0,-1.057985425E0
3.738352832E1,1.829341412E0,-9.576804161E0,-1.052961946E0
3.740371811E1,1.828504443E0,-9.577000618E0,-1.052619457E0
3.742390843E1,1.828558922E0,-9.576769829E0,-1.054625869E0
3.744409905E1,1.828929067E0,-9.576596260E0,-1.055565476E0
3.746428988E1,1.829164267E0,-9.576663971E0,-1.054534912E0
3.748449155E1,1.827824473E0,-9.577104568E0,-1.052853823E0
3.750466853E1,1.824422002E0,-9.578026772E0,-1.050377965E0
3.752484582E1,1.821567774E0,-9.578654289E0,-1.049604535E0
3.754502384E1,1.820766687E0,-9.578807831E0,-1.049587488E0
3.756520290E1,1.822237849E0,-9.578804970E0,-1.047057033E0
3.758538322E1,1.823161125E0,-9.579003334E0,-1.043632984E0
3.760556499E1,1.821190000E0,-9.579811096E0,-1.039642692E0
3.762574843E1,1.818548799E0,-9.580677986E0,-1.036278725E0
3.764593353E1,1.815377951E0,-9.581436157E0,-1.034825563E0
3.766612030E1,1.812000632E0,-9.582104683E0,-1.034555912E0
3.768630874E1,1.810393572E0,-9.582416534E0,-1.034489632E0
3.770649864E1,1.810102463E0,-9.582545280E0,-1.033807397E0
3.772668978E1,1.810848832E0,-9.582570076E0,-1.032266855E0
3.774688197E1,1.810785890E0,-9.582846642E0,-1.029798627E0
3.776707499E1,1.810061693E0,-9.583175659E0,-1.028010011E0
3.778726853E1,1.810345888E0,-9.583064079E0,-1.028553009E0
3.780746228E1,1.811737061E0,-9.582574844E0,-1.030651569E0
3.782765582E1,1.813055515E0,-9.582173347E0,-1.032076120E0
3.784784249E1,1.813694358E0,-9.582097054E0,-1.031659961E0
3.786802374E1,1.813801765E0,-9.582198143E0,-1.030528069E0
3.788820540E1,1.814872622E0,-9.581985474E0,-1.030627251E0
3.790838759E1,1.816668868E0,-9.581624985E0,-1.030805588E0
3.792857051E1,1.818470716E0,-9.581190109E0,-1.031666517E0
3.794875426E1,1.818445206E0,-9.581110001E0,-1.032464147E0
3.796893895E1,1.817881942E0,-9.581404686E0,-1.030715227E0
3.798912457E1,1.818687677E0,-9.581504822E0,-1.028365374E0
3.800931114E1,1.821762085E0,-9.581008911E0,-1.027533174E0
3.802949864E1,1.825600266E0,-9.580233574E0,-1.027951956E0
3.804968697E1,1.828764915E0,-9.579716682E0,-1.027148247E0
3.806987614E1,1.830045700E0,-9.579716682E0,-1.024864554E0
3.809006593E1,1.830328226E0,-9.579793930E0,-1.023635626E0
3.811025624E1,1.830070496E0,-9.579832077E0,-1.023741484E0
3.813044686E1,1.828771472E0,-9.580208778E0,-1.022530675E0
3.815063770E1,1.828145504E0,-9.580425262E0,-1.021633267E0
3.817083936E1,1.826910973E0,-9.580830574E0,-1.020032883E0
3.819101645E1,1.825371385E0,-9.581347466E0,-1.017942905E0
3.821119384E1,1.825055003E0,-9.581456184E0,-1.017472506E0
3.823137197E1,1.827463388E0,-9.580997467E0,-1.017478347E0
3.825155114E1,1.831609726E0,-9.580296516E0,-1.016619802E0
3.827173155E1,1.834599137E0,-9.579718590E0,-1.016672969E0
3.829191343E1,1.834329247E0,-9.579792023E0,-1.016466856E0
3.831209686E1,1.832575083E0,-9.580057144E0,-1.017130375E0
3.833228197E1,1.832952380E0,-9.579611778E0,-1.020638585E0
3.835246874E1,1.834882379E0,-9.578703880E0,-1.025680304E0
3.837265707E1,1.837057471E0,-9.577791214E0,-1.030305982E0
3.839284686E1,1.836305261E0,-9.577690125E0,-1.032583117E0
3.841303790E1,1.835010290E0,-9.577777863E0,-1.034062624E0
3.843322999E1,1.834693670E0,-9.577651024E0,-1.035801888E0
3.845342291E1,1.835474610E0,-9.577293396E0,-1.037719011E0
3.847361634E1,1.835812926E0,-9.577080727E0,-1.039086461E0
3.849380999E1,1.833947778E0,-9.577424049E0,-1.039220333E0
3.851399822E1,1.831911564E0,-9.577754974E0,-1.039750457E0
3.853418655E1,1.831518769E0,-9.577630997E0,-1.041598082E0
3.855438572E1,1.832953453E0,-9.577043533E0,-1.044464231E0
3.857456374E1,1.835861206E0,-9.576373100E0,-1.045504093E0
3.859474207E1,1.837974191E0,-9.576211929E0,-1.043266058E0
3.861492103E1,1.837786555E0,-9.576520920E0,-1.040757298E0
3.863510093E1,1.836291432E0,-9.576841354E0,-1.040452361E0
3.865528197E1,1.834292769E0,-9.577107430E0,-1.041530132E0
3.867546436E1,1.831734896E0,-9.577598572E0,-1.041505337E0
3.869564822E1,1.828152180E0,-9.578383446E0,-1.040583253E0
3.871583353E1,1.826382399E0,-9.578592300E0,-1.041772485E0
3.873602030E1,1.826871395E0,-9.578370094E0,-1.042951822E0
3.875620853E1,1.828241467E0,-9.578081131E0,-1.043212056E0
3.877639811E1,1.830898523E0,-9.577452660E0,-1.044315577E0
3.879658884E1,1.832677364E0,-9.576938629E0,-1.045912027E0
3.881678051E1,1.832177997E0,-9.576771736E0,-1.048313260E0
3.883697290E1,1.830086350E0,-9.576887131E0,-1.050906062E0
3.885716572E1,1.829463243E0,-9.576827049E0,-1.052536011E0
3.887735874E1,1.831321478E0,-9.576265335E0,-1.054414749E0
3.889755103E1,1.835573316E0,-9.575096130E0,-1.057636142E0
3.891773780E1,1.841025710E0,-9.573882103E0,-1.059153080E0
3.893792447E1,1.844529867E0,-9.573274612E0,-1.058544040E0
3.895810572E1,1.846559763E0,-9.573104858E0,-1.056534052E0
3.897828738E1,1.846080303E0,-9.573369980E0,-1.054967165E0
3.899846957E1,1.844663382E0,-9.573544502E0,-1.055866599E0
3.901865249E1,1.842725039E0,-9.573697090E0,-1.057858109E0
3.903883624E1,1.841439486E0,-9.573925018E0,-1.058040500E0
3.905902093E1,1.840159059E0,-9.574322701E0,-1.056669950E0
3.907920655E1,1.838132858E0,-9.574687004E0,-1.056900144E0
3.909939311E1,1.838465214E0,-9.574398041E0,-1.058934569E0
3.911958061E1,1.841331959E0,-9.573631287E0,-1.060876727E0
3.913976905E1,1.844459891E0,-9.572896004E0,-1.062071085E0
3.915995822E1,1.846355796E0,-9.572470665E0,-1.062623978E0
3.918014801E1,1.843910813E0,-9.572997093E0,-1.062127948E0
3.920033832E1,1.838760972E0,-9.573950768E0,-1.062455535E0
3.922052895E1,1.834776044E0,-9.574771881E0,-1.061939359E0
3.924071978E1,1.830457330E0,-9.575837135E0,-1.059790134E0
3.926092145E1,1.826755285E0,-9.576672554E0,-1.058627009E0
3.928109853E1,1.825522065E0,-9.576675415E0,-1.060721397E0
3.930127593E1,1.827511430E0,-9.575984955E0,-1.063529372E0
3.932145405E1,1.830926061E0,-9.575135231E0,-1.065305352E0
3.934163322E1,1.832648158E0,-9.574603081E0,-1.067122936E0
3.936181364E1,1.831573725E0,-9.574549675E0,-1.069450259E0
3.938199551E1,1.831367254E0,-9.574159622E0,-1.073288918E0
3.940217895E1,1.831686974E0,-9.573817253E0,-1.075800776E0
3.942236405E1,1.831161022E0,-9.573910713E0,-1.075861216E0
3.944255082E1,1.830350280E0,-9.574119568E0,-1.075380564E0
3.946273916E1,1.830806613E0,-9.574053764E0,-1.075188398E0
3.948292895E1,1.831790686E0,-9.573943138E0,-1.074493885E0
3.950311999E1,1.831869364E0,-9.574063301E0,-1.073290944E0
3.952331207E1,1.831105351E0,-9.574173927E0,-1.073612928E0
3.954350499E1,1.831308961E0,-9.573926926E0,-1.075470090E0
3.956369843E1,1.830904245E0,-9.573890686E0,-1.076471090E0
3.958389207E1,1.828725219E0,-9.574296951E0,-1.076560736E0
3.960408030E1,1.826855302E0,-9.574634552E0,-1.076740623E0
3.962426864E1,1.826524973E0,-9.574550629E0,-1.078048468E0
3.964446780E1,1.828833580E0,-9.573795319E0,-1.080837369E0
3.966464603E1,1.831244349E0,-9.573090553E0,-1.082994223E0
3.968482457E1,1.832466841E0,-9.572740555E0,-1.084016919E0
3.970500374E1,1.833508611E0,-9.572549820E0,-1.083938003E0
3.972518374E1,1.835025907E0,-9.572299004E0,-1.083585620E0
3.974536488E1,1.836751103E0,-9.571989059E0,-1.083409548E0
3.976554728E1,1.838514090E0,-9.571658134E0,-1.083329082E0
3.978573114E1,1.838181257E0,-9.571661949E0,-1.083871841E0
3.980591645E1,1.836425066E0,-9.571987152E0,-1.083964825E0
3.982610322E1,1.833751917E0,-9.572672844E0,-1.082429886E0
3.984629145E1,1.832500339E0,-9.573499680E0,-1.077235460E0
3.986648093E1,1.832579851E0,-9.573730469E0,-1.075050354E0
3.988667155E1,1.832822680E0,-9.573225021E0,-1.079123735E0
3.990686311E1,1.835137725E0,-9.572237015E0,-1.083947778E0
3.992705541E1,1.841288686E0,-9.570918083E0,-1.085150123E0
3.994724811E1,1.846800804E0,-9.570052147E0,-1.083422184E0
3.996744103E1,1.849659920E0,-9.569464684E0,-1.083743334E0
3.998763353E1,1.851873994E0,-9.568410873E0,-1.089246035E0
4.000782020E1,1.855110884E0,-9.566444397E0,-1.100941896E0
4.002800145E1,1.861134171E0,-9.564166069E0,-1.110539913E0
4.004818311E1,1.867911577E0,-9.562476158E0,-1.113698363E0
4.006836540E1,1.874355912E0,-9.561297417E0,-1.112995744E0
4.008854843E1,1.875327229E0,-9.561481476E0,-1.109772921E0
4.010873228E1,1.868257999E0,-9.562547684E0,-1.112501860E0
4.012891707E1,1.862098217E0,-9.563001633E0,-1.118922353E0
4.014910280E1,1.856165290E0,-9.564291000E0,-1.117753983E0
4.016928947E1,1.841100216E0,-9.568432808E0,-1.107171178E0
4.018947707E1,1.814536214E0,-9.574816704E0,-1.095778942E0
4.020966551E1,1.780848742E0,-9.581532478E0,-1.092339396E0
4.022985468E1,1.745193839E0,-9.587353706E0,-1.098792434E0
4.025004447E1,1.712986946E0,-9.591958046E0,-1.109228611E0
4.027023478E1,1.687567234E0,-9.595279694E0,-1.119425654E0
4.029042540E1,1.670824409E0,-9.596994400E0,-1.129794240E0
4.031061614E1,1.663943291E0,-9.596332550E0,-1.145460486E0
4.033081770E1,1.664935827E0,-9.593460083E0,-1.167856097E0
4.035099447E1,1.672133684E0,-9.589449883E0,-1.190292716E0
4.037117155E1,1.680197239E0,-9.585741997E0,-1.208662271E0
4.039134936E1,1.687562227E0,-9.582235336E0,-1.226085663E0
4.041152822E1,1.690198660E0,-9.579224586E0,-1.245815635E0
4.043170843E1,1.685475826E0,-9.576556206E0,-1.272451878E0
4.045189020E1,1.676553607E0,-9.573374748E0,-1.307692409E0
4.047207364E1,1.665934086E0,-9.569954872E0,-1.345735788E0
4.049225884E1,1.650272131E0,-9.567213058E0,-1.383993149E0
4.051244572E1,1.630291104E0,-9.563879967E0,-1.429943085E0
4.053263426E1,1.613586426E0,-9.558073044E0,-1.486596465E0
4.055282426E1,1.605045795E0,-9.549539566E0,-1.549360394E0
4.057301561E1,1.605107188E0,-9.539549828E0,-1.609657645E0
4.059320801E1,1.605374336E0,-9.529726982E0,-1.666574121E0
4.061340124E1,1.601254463E0,-9.519612312E0,-1.727239370E0
4.063359499E1,1.596207023E0,-9.507326126E0,-1.798126817E0
4.065378895E1,1.600613952E0,-9.490266800E0,-1.882358551E0
4.067398197E1,1.607521772E0,-9.475131035E0,-1.951447129E0
4.069416874E1,1.619351506E0,-9.458725929E0,-2.020046473E0
4.071435540E1,1.632631898E0,-9.441752434E0,-2.087634087E0
4.073453666E1,1.647935033E0,-9.424705505E0,-2.151656628E0
4.075471832E1,1.660698175E0,-9.410381317E0,-2.203902721E0
4.077490061E1,1.657333493E0,-9.401809692E0,-2.242682695E0
4.079508364E1,1.648005486E0,-9.396435738E0,-2.271886587E0
4.081526749E1,1.632476211E0,-9.396374702E0,-2.283319712E0
4.083545228E1,1.611656308E0,-9.396677971E0,-2.296824217E0
4.085563801E1,1.595806360E0,-9.396472931E0,-2.308697462E0
4.087582468E1,1.579180956E0,-9.396345139E0,-2.320617676E0
4.089601228E1,1.571758986E0,-9.397263527E0,-2.321940184E0
4.091620072E1,1.575439692E0,-9.398192406E0,-2.315675974E0
4.093638989E1,1.581428289E0,-9.398423195E0,-2.310650587E0
4.095657968E1,1.597176433E0,-9.396683693E0,-2.306891918E0
4.097676999E1,1.622754574E0,-9.397141457E0,-2.287094116E0
4.099696061E1,1.649438381E0,-9.401118279E0,-2.251378536E0
4.101715134E1,1.670082211E0,-9.404688835E0,-2.221044540E0
4.103735291E1,1.680117249E0,-9.407314301E0,-2.202277184E0
4.105752968E1,1.687598825E0,-9.409277916E0,-2.188122511E0
4.107770676E1,1.700127959E0,-9.410677910E0,-2.172344685E0
4.109788457E1,1.712540507E0,-9.412464142E0,-2.154787302E0
4.111806343E1,1.699948549E0,-9.415090561E0,-2.153285027E0
4.113824364E1,1.678297639E0,-9.414438248E0,-2.173032284E0
4.115842540E1,1.673048496E0,-9.411520958E0,-2.189652443E0
4.117860884E1,1.676178932E0,-9.408314705E0,-2.201003313E0
4.119879405E1,1.672172189E0,-9.405444145E0,-2.216269732E0
4.121898103E1,1.667819738E0,-9.402532578E0,-2.231844425E0
4.123916968E1,1.665666819E0,-9.401584625E0,-2.237444162E0
4.125935978E1,1.662818551E0,-9.402955055E0,-2.233798265E0
4.127955124E1,1.658382773E0,-9.404751778E0,-2.229525566E0
4.129974374E1,1.650619268E0,-9.405959129E0,-2.230197191E0
4.131993707E1,1.640685320E0,-9.406072617E0,-2.237039328E0
4.134013093E1,1.635750175E0,-9.405773163E0,-2.241905689E0
4.136032499E1,1.630805135E0,-9.406602859E0,-2.242027044E0
