"Time (s)","Gyroscope x (rad/s)","Gyroscope y (rad/s)","Gyroscope z (rad/s)"
1.784204200E-2,1.820269227E-1,-4.356928170E-1,2.589922249E-1
3.804527200E-2,1.149153188E-1,-4.261054695E-1,2.435459048E-1
5.822287600E-2,5.193160381E-3,-2.860232890E-1,1.290300637E-1
7.840079200E-2,-2.942790836E-2,-3.675159439E-2,2.263685223E-3
9.857933400E-2,3.448791057E-2,1.608548164E-1,-7.070687413E-2
1.187588130E-1,1.000016257E-1,2.183790505E-1,-3.235738352E-2
1.389395420E-1,1.175784767E-1,1.544632316E-1,5.446160212E-2
1.591217300E-1,9.041424841E-2,6.870950758E-2,8.482161909E-2
1.793054800E-1,4.833633825E-2,2.290316857E-2,5.339634046E-2
1.994908970E-1,3.608580679E-2,9.054740891E-3,-2.010685205E-2
2.196778760E-1,5.632581562E-2,4.740423337E-2,-7.443529367E-2
2.398664170E-1,8.455529809E-2,1.342232227E-1,-6.591318548E-2
2.600564170E-1,7.603318989E-2,1.523326933E-1,-2.117211558E-2
2.802476670E-1,3.129211813E-2,6.870950758E-2,2.676474862E-2
3.004399590E-1,2.530001104E-3,-4.474107176E-2,3.262370080E-2
3.206329800E-1,2.223737910E-2,-9.108003974E-2,-6.791055668E-3
3.408264170E-1,4.034686089E-2,-1.097221524E-1,-5.046686530E-2
3.610200630E-1,3.502054140E-2,-1.565937549E-1,-5.845634267E-2
3.812126670E-1,9.986846708E-3,-2.982738316E-1,-8.934898674E-2
4.013994380E-1,-5.872265995E-2,-5.837644935E-1,-1.591237634E-1
4.215807920E-1,-1.913479865E-1,-1.037566781E0,-2.182458937E-1
4.417625630E-1,-3.964112401E-1,-1.588308096E0,-1.671132296E-1
4.619449590E-1,-6.265081763E-1,-2.256761074E0,-1.111868918E-1
4.821280840E-1,-7.926893234E-1,-2.929475069E0,-2.043974549E-1
5.023120420E-1,-8.347672224E-1,-3.190997124E0,-2.672480047E-1
5.224969380E-1,-9.514135718E-1,-2.474607468E0,-2.533995807E-1
5.426827720E-1,-1.138900042E0,-1.467933297E0,-1.637842879E-2
5.628695420E-1,-1.354083300E0,-1.100950003E0,1.348890066E-1
5.830572510E-1,-1.481382251E0,-1.465802789E0,-1.797632314E-2
6.032457920E-1,-1.587908626E0,-1.801360846E0,-2.960101366E-1
6.234350630E-1,-1.771666646E0,-1.585112333E0,-2.368880063E-1
6.436249590E-1,-1.898432970E0,-1.204813123E0,2.142511457E-1
6.638153760E-1,-1.690173984E0,-7.099981904E-1,7.617966533E-1
6.840061050E-1,-1.045156837E0,-6.194508076E-1,1.187902093E0
7.041970420E-1,-1.615206003E-1,-8.410256505E-1,1.390302181E0
7.243988130E-1,5.426186919E-1,-9.811078310E-1,1.432380080E0
7.445758970E-1,8.781766891E-1,-1.147288918E0,1.517068624E0
7.647532920E-1,9.191893935E-1,-1.212802649E0,1.531982303E0
7.849314170E-1,7.471492887E-1,-1.103613138E0,1.213468432E0
8.051105840E-1,3.924165070E-1,-9.544762373E-1,4.928175807E-1
8.252910010E-1,-1.226384789E-1,-7.297055721E-1,-6.725808382E-1
8.454728760E-1,-5.785713196E-1,-5.054675937E-1,-1.310673714E0
8.656564170E-1,-8.454198837E-1,-3.616569936E-1,-1.028378844E0
8.858416260E-1,-1.044624209E0,-5.645897239E-2,-6.800376773E-1
9.060285010E-1,-1.192695856E0,2.860232890E-1,-5.799028873E-1
9.262170420E-1,-1.229979992E0,4.564654827E-1,-5.458144546E-1
9.464070420E-1,-1.044624209E0,1.166463718E-1,-5.032039285E-1
9.665983970E-1,-5.945502520E-1,-5.086634159E-1,-4.408859909E-1
9.867907920E-1,-2.463422157E-2,-1.096688867E0,-3.940143883E-1
1.006984022E0,4.446144104E-1,-1.390701652E0,-2.858901322E-1
1.027177772E0,5.245091915E-1,-1.163267851E0,1.258342713E-1
1.047371730E0,1.250353158E-1,-8.745814562E-1,8.081356287E-1
1.067565480E0,-3.969438672E-1,-8.793751597E-1,1.372192740E0
1.087752355E0,-7.527419329E-1,-9.688572884E-1,1.779656053E0
1.107939126E0,-7.026745081E-1,-1.358211160E0,2.159955263E0
1.128120480E0,-2.776343226E-1,-2.001097679E0,2.223870993E0
1.148302251E0,3.412838280E-1,-2.386723280E0,2.312287807E0
1.168484647E0,8.733830452E-1,-2.788860321E0,2.554635286E0
1.188667772E0,1.251019001E0,-3.449856281E0,2.637725830E0
1.208851730E0,1.704288721E0,-3.283142567E0,2.743186951E0
1.229036626E0,2.069141388E0,-2.959302425E0,2.725077629E0
1.249222459E0,2.233191967E0,-3.454649925E0,2.401770115E0
1.269409230E0,2.386057377E0,-3.878624916E0,2.007622480E0
1.289596938E0,2.597512245E0,-3.371559381E0,1.622529626E0
1.309785480E0,2.681135416E0,-2.886331797E0,1.247024298E0
1.329974751E0,2.803108215E0,-2.924148798E0,7.958850861E-1
1.350164647E0,2.682733297E0,-3.473824739E0,4.257059693E-1
1.370355063E0,1.727724433E0,-3.661843777E0,1.611211337E-2
1.390545792E0,5.575323701E-1,-2.364352703E0,-1.937448233E-1
1.410736730E0,-2.925480306E-1,-8.538088202E-1,-1.149153188E-1
1.430938501E0,-5.077312589E-1,-5.368928909E-1,4.576638937E-1
1.451115480E0,-1.567269117E-1,-1.524392247E0,1.216664195E0
1.471292772E0,6.198502779E-1,-3.078611851E0,1.691239238E0
1.491470792E0,1.007073641E0,-3.837079525E0,1.652889729E0
1.511649855E0,6.858966351E-1,-3.730020523E0,1.824929833E0
1.531830272E0,3.130543530E-1,-3.282077312E0,1.895769835E0
1.552012147E0,2.150501013E-1,-2.759032726E0,1.743969679E0
1.572195688E0,1.681784987E-1,-2.138516665E0,1.654487610E0
1.592380897E0,-1.034637317E-1,-1.329449058E0,1.643834949E0
1.612567772E0,-5.886912942E-1,-4.452801943E-1,1.695500255E0
1.632756313E0,-8.571377397E-1,-2.018674612E-1,1.658216000E0
1.652946417E0,-5.817670822E-1,-7.099981904E-1,1.526655912E0
1.673137876E0,4.141212255E-2,-1.282044768E0,1.482447505E0
1.693330376E0,3.764375448E-1,-1.151017308E0,1.421727538E0
1.713523709E0,6.431528926E-2,-5.512739420E-1,1.408411741E0
1.733717563E0,-6.014744639E-1,1.326253265E-1,1.414803267E0
1.753911626E0,-9.839041233E-1,3.328948915E-1,1.563407540E0
1.774104855E0,-8.656598926E-1,-2.093243003E-1,1.867540359E0
1.794291730E0,-3.495396376E-1,-2.780338228E-1,2.083788872E0
1.814473188E0,3.572627902E-1,1.107874155E0,2.072070837E0
1.834655063E0,3.759049177E-1,1.856221914E0,1.923466682E0
1.854837459E0,9.414267540E-2,2.063948393E0,2.179662466E0
1.875020584E0,-3.209106624E-2,2.086851358E0,2.808700800E0
1.895204542E0,2.283658981E-1,1.980857730E0,3.139465094E0
1.915389438E0,7.870966792E-1,1.064198375E0,2.769818544E0
1.935575272E0,6.795050502E-1,-9.640635848E-1,2.670216560E0
1.955762042E0,-7.150582224E-2,-2.860765457E0,3.228947163E0
1.975949751E0,-3.703122735E-1,-3.620831013E0,3.770101070E0
1.996138292E0,-5.918871164E-1,-3.631483793E0,4.113116264E0
2.016327563E0,-1.038765192E0,-3.776359558E0,3.935749769E0
2.036517459E0,-7.676556110E-1,-1.430649042E0,2.991926193E0
2.056707876E0,5.053344369E-1,1.978727221E0,7.133271694E-1
2.076898605E0,7.839008570E-1,2.732401133E0,-1.589240193E0
2.097089438E0,-1.189100519E-1,1.738510251E0,-2.151699305E0
2.117291105E0,-5.263733864E-1,7.600656152E-1,-1.357545376E0
2.137467876E0,-2.275669426E-1,2.631201148E-1,-4.579302073E-1
2.157644959E0,-8.056056499E-2,-5.858949944E-2,1.817606091E-1
2.177822772E0,-1.268995255E-1,-2.295643091E-1,2.994722426E-1
2.198001626E0,5.259739235E-2,-3.462106735E-2,1.078579482E-2
2.218181834E0,2.134522051E-1,1.203747913E-1,-1.372858584E-1
2.238363605E0,7.816372067E-2,7.190529257E-2,-1.117195264E-1
2.258547042E0,-2.115879953E-1,-1.608548164E-1,-7.177213579E-2
2.278732251E0,-2.733732760E-1,-2.428801060E-1,-1.298290044E-1
2.298919230E0,-8.748477697E-2,1.363537461E-1,-1.756353378E-1
2.319107876E0,-8.375635743E-2,4.255728126E-1,-1.782985032E-1
2.339298084E0,-8.269108832E-2,4.426170290E-1,-1.308942735E-1
2.359489647E0,1.223721579E-1,3.259706795E-1,3.848264739E-2
2.379682355E0,2.310290486E-1,4.527370632E-2,4.327633604E-2
2.399875897E0,-2.143843099E-2,-2.071937770E-1,-2.916159295E-2
2.420069959E0,-4.167843983E-2,6.391581893E-2,-1.371526904E-2
2.440264230E0,7.323687430E-3,3.781685829E-1,6.138581783E-2
2.460457147E0,-8.695214242E-2,1.608548164E-1,9.720530361E-3
2.480644022E0,2.010685205E-2,1.054610983E-1,-1.051947847E-2
2.500830792E0,6.484792382E-2,1.757685095E-2,5.992108025E-3
2.521012147E0,3.502054140E-2,-1.358211190E-1,1.185105834E-2
2.541193917E0,6.058686972E-2,-1.379516423E-1,1.398158539E-2
2.561376313E0,2.223737910E-2,-1.097221524E-1,-7.323687430E-3
2.581559438E0,-3.209106624E-2,-7.829687744E-2,-7.323687430E-3
2.601743397E0,-2.889527567E-2,-7.776424289E-2,-2.117211558E-2
2.621928292E0,-2.796316985E-3,-9.534109384E-2,-2.862896025E-2
2.642114126E0,1.211737376E-2,-3.781685978E-2,-3.661843762E-2
2.662300897E0,-1.238369010E-2,9.853688627E-2,-4.141212255E-2
2.682488605E0,-5.765739456E-2,3.062632978E-1,-5.046686530E-2
2.702677147E0,-1.167795286E-1,5.384907722E-1,-4.833633825E-2
2.722866417E0,-1.881521940E-1,6.418213248E-1,-8.921583183E-3
2.743056313E0,-2.478069514E-1,6.759097576E-1,7.896266878E-2
2.763246730E0,-2.675143182E-1,7.147918940E-1,1.418132186E-1
2.783437459E0,-2.483395934E-1,7.829687595E-1,1.540637612E-1
2.803628292E0,-2.259690464E-1,8.868319988E-1,1.119858399E-1
2.823829959E0,-1.865542978E-1,1.047154188E0,8.961530030E-2
2.844006834E0,-1.162468940E-1,1.189366817E0,9.174583107E-2
2.864184022E0,-3.581948951E-2,1.042893052E0,1.717737690E-2
2.884361938E0,-8.269108832E-2,7.339666486E-1,-1.511342824E-1
2.904540897E0,-9.494162351E-2,4.894886315E-1,-5.099949613E-2
2.924721209E0,-7.576687634E-2,1.363537461E-1,5.819002539E-2
2.944903084E0,-2.410159074E-2,6.977476925E-2,5.605949834E-2
2.965086626E0,5.898897350E-2,1.198421568E-1,1.664474420E-2
2.985271938E0,1.111868918E-1,-1.384842694E-1,2.263685223E-3
3.005459022E0,1.356879622E-1,-4.793686271E-1,2.516685426E-2
3.025647772E0,1.543300748E-1,-6.796382070E-1,3.209106624E-2
3.045837980E0,1.857553422E-1,-7.515435219E-1,-2.809632942E-2
3.066029438E0,1.846900880E-1,-6.151897311E-1,-8.455529809E-2
3.086221938E0,1.255679578E-1,-3.904191256E-1,-9.467530251E-2
3.106415272E0,1.021321490E-1,-3.041327596E-1,-9.986846708E-3
3.126609126E0,1.106542572E-1,-3.515369892E-1,5.712476373E-2
3.146803188E0,1.165132076E-1,-3.275685608E-1,6.245107949E-2
3.166996105E0,1.351553202E-1,-3.126548827E-1,4.327633604E-2
3.187182876E0,1.458079666E-1,-2.902843356E-1,1.398158539E-2
3.207364230E0,1.319595277E-1,-2.812296152E-1,2.263685223E-3
3.227546001E0,8.402267098E-2,-1.880190372E-1,-4.127896391E-3
3.247728292E0,1.085237339E-1,-3.115896285E-1,1.824264042E-2
3.267911313E0,6.644582003E-2,-3.584612012E-1,7.789740711E-2
3.288095167E0,9.733846784E-2,-1.331579536E-1,6.511423737E-2
3.308279959E0,6.005423889E-2,1.805621833E-1,2.889527567E-2
3.328465688E0,1.424790081E-2,2.205095738E-1,4.061317816E-2
3.348652459E0,1.318263728E-2,8.202529699E-2,5.286370963E-2
3.368840167E0,3.022685647E-2,4.261054564E-3,2.037316747E-2
3.389028709E0,2.596580051E-2,-1.225053146E-2,-2.596580051E-2
3.409217980E0,1.957421936E-2,-1.597895520E-3,-7.816372067E-2
3.429407876E0,4.660528619E-3,1.917474531E-2,-1.111868918E-1
3.449598292E0,-2.463422157E-2,4.953476042E-2,-1.287637353E-1
3.469789022E0,-6.458161026E-2,6.551371515E-2,-1.229047924E-1
3.489979959E0,-9.068056941E-2,6.764423847E-2,-1.021321490E-1
3.510181730E0,-9.068056941E-2,8.894951642E-2,-7.550056279E-2
3.530358813E0,-1.013332009E-1,8.149266988E-2,-4.460791498E-2
3.550536209E0,-1.087900475E-1,3.888212144E-2,-4.247738793E-2
3.570714334E0,-9.707214683E-2,2.343579940E-2,-6.484792382E-2
3.590893501E0,-7.629951090E-2,2.396843210E-2,-9.680583328E-2
3.611073917E0,-6.351634115E-2,1.970737800E-2,-1.015995219E-1
3.631255792E0,-7.203845680E-2,1.757685095E-2,-8.668582886E-2
3.651439334E0,-7.044056058E-2,4.793686327E-3,-7.869634777E-2
3.671624542E0,-5.339634046E-2,-2.396843210E-2,-7.123950869E-2
3.691811417E0,-3.102580272E-2,-6.498108059E-2,-5.739107728E-2
3.711999959E0,-1.877527125E-2,-9.640636295E-2,-4.407528415E-2
3.732189959E0,-1.731053460E-3,-1.241032109E-1,-3.715106845E-2
3.752381313E0,2.649843320E-2,-1.661811322E-1,-4.886896908E-2
3.772573709E0,5.206476152E-2,-1.874863952E-1,-7.496792823E-2
3.792766938E0,4.886896908E-2,-1.230379492E-1,-8.455529809E-2
3.812960688E0,-5.459476262E-3,2.183790505E-2,-6.964161247E-2
3.833154647E0,-6.138581783E-2,1.012000442E-1,-3.075948730E-2
3.853347980E0,-1.535311192E-1,-9.906952083E-2,2.356895804E-2
3.873534751E0,-2.765690684E-1,-4.426170290E-1,2.996053919E-2
3.893716105E0,-2.648511827E-1,-3.275685608E-1,2.356895804E-2
3.913897876E0,-7.590003312E-3,5.262402296E-1,-6.218476593E-2
3.934080272E0,8.295740932E-2,8.191877604E-1,-3.608580679E-2
3.954263397E0,1.010668874E-1,4.111917615E-1,9.813741595E-2
3.974447355E0,8.029424399E-2,6.391581893E-2,1.716406047E-1
3.994632251E0,3.182475269E-2,-9.693899006E-2,1.487374306E-1
4.014818084E0,2.117211558E-2,-1.203747913E-1,6.777740270E-2
4.035004855E0,2.649843320E-2,5.326318089E-3,4.926844500E-3
4.055192563E0,8.029424399E-2,8.894951642E-2,6.657897611E-4
4.075381105E0,1.474058628E-1,2.716422267E-2,1.611211337E-2
4.095570376E0,1.713742912E-1,-6.711161137E-2,4.700475931E-2
4.115760272E0,1.575258672E-1,-9.321057051E-2,5.978792161E-2
4.135950688E0,8.562056720E-2,1.597895520E-3,5.552686751E-2
4.156141417E0,1.904158667E-2,6.870950758E-2,4.753739014E-2
4.176332251E0,-6.524739787E-3,7.616634667E-2,3.688475490E-2
4.196533917E0,-1.078579482E-2,1.225053221E-1,3.315633163E-2
4.216710688E0,-6.524739787E-3,1.177116334E-1,3.795001656E-2
4.236887772E0,6.791055668E-3,7.989477366E-2,3.155843541E-2
4.257065584E0,2.530001104E-3,1.038632020E-1,1.078579482E-2
4.277244438E0,-8.655266836E-3,1.187768951E-1,-2.063948289E-2
4.297424647E0,-1.344895363E-2,1.283642650E-1,-4.407528415E-2
4.317606417E0,-9.187898599E-3,1.198421568E-1,-5.153212696E-2
4.337789855E0,-6.524739787E-3,1.097221524E-1,-5.419528857E-2
4.357975063E0,-2.463422157E-2,1.187768951E-1,-4.780370742E-2
4.378162042E0,-4.807002097E-2,1.123853177E-1,-3.768370301E-2
4.398350688E0,-5.499423668E-2,9.693899006E-2,-4.460791498E-2
4.418540897E0,-3.102580272E-2,5.912213027E-2,-5.313002318E-2
4.438732459E0,-2.037316747E-2,2.396843210E-2,-4.727107286E-2
4.458925063E0,-5.392897129E-2,9.587372653E-3,-4.301001877E-2
4.479118501E0,-6.564687192E-2,-1.171789970E-2,-5.632581562E-2
4.499312459E0,-4.008054361E-2,-4.633896798E-2,-6.271740049E-2
4.519506626E0,-1.984053478E-2,-1.086568907E-1,-5.099949613E-2
4.539699751E0,-1.198421582E-3,-1.342232227E-1,-3.928159550E-2
4.559886522E0,1.211737376E-2,-1.225053221E-1,-2.649843320E-2
4.580067876E0,1.850895584E-2,-1.475390196E-1,-1.904158667E-2
4.600249647E0,1.531316526E-2,-1.587242782E-1,-1.691105962E-2
4.620432042E0,1.797632314E-2,-1.241032109E-1,-1.904158667E-2
4.640615167E0,2.383527346E-2,-8.522108942E-2,-1.691105962E-2
4.660799126E0,2.010685205E-2,-7.723161578E-2,-1.464737463E-3
4.680984022E0,2.330264263E-2,-8.681898564E-2,9.187898599E-3
4.701169855E0,2.649843320E-2,-7.510108501E-2,9.720530361E-3
4.721356626E0,2.649843320E-2,-8.042740822E-2,5.992108025E-3
4.741544334E0,2.916159295E-2,-9.214530140E-2,-7.323687430E-3
4.761732876E0,3.555317223E-2,-8.415582776E-2,-2.383527346E-2
4.781922147E0,3.182475269E-2,-7.616634667E-2,-2.596580051E-2
4.802112042E0,1.105211023E-2,-6.338318437E-2,-1.904158667E-2
4.822302459E0,-4.394212738E-3,-4.314317927E-2,-1.691105962E-2
4.842493188E0,-1.331579551E-4,-1.757685095E-2,-1.850895584E-2
4.862684022E0,1.464737463E-3,-1.704421826E-2,-1.584579609E-2
4.882885688E0,-1.771000773E-2,-3.195791040E-3,-1.957421936E-2
4.903062355E0,-3.315633163E-2,3.355580568E-2,-2.916159295E-2
4.923239334E0,-2.783001214E-2,4.793686420E-2,-4.407528415E-2
4.943417042E0,-6.657897611E-4,8.948214352E-2,2.796316985E-3
4.963595792E0,3.342264518E-2,2.450106293E-2,9.920267761E-2
4.983775897E0,8.082687855E-2,-1.107874215E-1,1.226384789E-1
5.003957563E0,1.378184855E-1,-1.555284858E-1,1.039963663E-1
5.024140897E0,1.452753246E-1,-1.704421788E-1,6.777740270E-2
5.044326001E0,9.840372950E-2,-1.848232448E-1,2.623211779E-2
5.064512876E0,5.952160433E-2,-1.651158631E-1,-2.117211558E-2
5.084701417E0,3.502054140E-2,-8.841688186E-2,-4.940159991E-2
5.104891522E0,5.193160381E-3,-1.225053146E-2,-3.555317223E-2
5.125082980E0,-9.187898599E-3,3.728422895E-2,6.657897611E-4
5.145275584E0,9.321057005E-4,7.190529257E-2,4.008054361E-2
5.165469022E0,1.158474199E-2,7.403582335E-2,6.937529147E-2
5.185662980E0,6.791055668E-3,7.297056168E-2,7.203845680E-2
5.205857147E0,-8.655266836E-3,9.587372839E-2,6.138581783E-2
5.226045897E0,-1.984053478E-2,1.145158410E-1,3.422159329E-2
5.246234751E0,-2.676474862E-2,1.171789989E-1,1.824264042E-2
5.266434438E0,-3.688475490E-2,9.108003974E-2,1.877527125E-2
5.286611834E0,-5.020054802E-2,8.149266988E-2,-4.660528619E-3
5.306789542E0,-3.102580272E-2,1.416800618E-1,-2.969422378E-2
5.326967876E0,-2.729738131E-2,1.368863732E-1,-2.223737910E-2
5.347147251E0,-5.339634046E-2,2.343579940E-2,-9.454214945E-3
5.367327876E0,-5.073318258E-2,-9.321057051E-2,-1.424790081E-2
5.387509959E0,-1.717737690E-2,-1.576590240E-1,-3.235738352E-2
5.407693605E0,2.490053698E-2,-1.635179669E-1,-5.259739235E-2
5.427878917E0,6.111950055E-2,-1.613874435E-1,-4.087949172E-2
5.448065897E0,5.632581562E-2,-2.258358896E-1,-1.464737463E-3
5.468254438E0,9.986846708E-3,-2.838927507E-1,2.516685426E-2
5.488444438E0,-1.824264042E-2,-3.142527640E-1,5.992108025E-3
5.508635688E0,1.211737376E-2,-2.700443268E-1,-3.075948730E-2
5.528827980E0,5.898897350E-2,-1.736379713E-1,-3.661843762E-2
5.549021001E0,7.337003201E-2,-1.075916290E-1,-2.649843320E-2
5.569214542E0,5.952160433E-2,-3.941475600E-2,-1.105211023E-2
5.589408292E0,2.436790615E-2,3.994738683E-2,1.664474420E-2
5.609600688E0,-4.807002097E-2,9.001477808E-2,4.753739014E-2
5.629787563E0,-1.087900475E-1,1.374190152E-1,5.286370963E-2
5.649974334E0,-1.087900475E-1,2.109221965E-1,3.155843541E-2
5.670155688E0,-6.724476814E-2,2.476737946E-1,1.398158539E-2
5.690337459E0,-1.984053478E-2,2.295643091E-1,1.185105834E-2
5.710519751E0,2.063948289E-2,2.194443047E-1,1.344895363E-2
5.730702772E0,3.608580679E-2,2.631201148E-1,-1.531316526E-2
5.750886626E0,2.063948289E-2,3.483411968E-1,-4.141212255E-2
5.771071417E0,1.158474199E-2,4.932170510E-1,-4.141212255E-2
5.791257147E0,-8.122635074E-3,6.061350107E-1,-9.454214945E-3
5.811443813E0,-6.458161026E-2,5.139896870E-1,5.925529078E-2
5.831631417E0,-1.476721764E-1,3.195790946E-2,8.375635743E-2
5.851819855E0,-8.908267319E-2,-8.575372398E-2,7.683213800E-2
5.872009126E0,-1.450090110E-1,-3.994738683E-2,3.581948951E-2
5.892199022E0,-1.636511236E-1,-1.012000442E-2,5.459476262E-3
5.912389438E0,-4.274370521E-2,-6.604634225E-2,-1.478053257E-2
5.932580167E0,1.105211023E-2,-4.687159881E-2,-3.555317223E-2
5.952771105E0,-3.155843541E-2,-3.568633273E-2,-1.957421936E-2
5.972972876E0,-9.387636185E-2,-3.568633273E-2,-5.099949613E-2
5.993149959E0,-1.087900475E-1,4.101264849E-2,-9.414267540E-2
6.013327355E0,-7.629951090E-2,1.070589945E-1,-8.721846342E-2
6.033505480E0,-4.008054361E-2,1.507348120E-1,-2.543316968E-2
6.053684647E0,-3.049317189E-2,2.066611499E-1,3.901528195E-2
6.073865063E0,-5.499423668E-2,1.933453530E-1,8.428898454E-2
6.094046938E0,-7.523424178E-2,8.149266988E-2,1.114532053E-1
6.114230480E0,-5.020054802E-2,-1.065263641E-3,4.380896688E-2
6.134415688E0,-2.197106183E-2,5.273054913E-2,-6.271740049E-2
6.154602563E0,-5.126581341E-2,9.321057051E-2,-9.147951752E-2
6.174791105E0,-6.458161026E-2,3.249054030E-2,-5.153212696E-2
6.194981105E0,-6.085318699E-2,3.195791040E-3,1.025316212E-2
6.215172355E0,-9.494162351E-2,-1.544632297E-2,4.807002097E-2
6.235364647E0,-1.114532053E-1,-3.355580568E-2,5.286370963E-2
6.255557772E0,-9.600688517E-2,-7.616634667E-2,6.032055244E-2
6.275751417E0,-7.363634557E-2,-9.853688627E-2,7.576687634E-2
6.295945272E0,-6.564687192E-2,-1.129179448E-1,4.061317816E-2
6.316138813E0,-7.683213800E-2,-1.118526831E-1,-3.502054140E-2
6.336325688E0,-5.925529078E-2,-7.989477366E-2,-1.037300453E-1
6.356512459E0,-5.233107507E-2,-7.882951200E-2,-1.404816359E-1
6.376693813E0,-3.049317189E-2,-5.699160323E-2,-1.282311082E-1
6.396875584E0,-9.187898599E-3,-9.374319762E-2,-8.668582886E-2
6.417057876E0,-1.185105834E-2,-1.613874435E-1,-4.886896908E-2
6.437240897E0,-4.274370521E-2,-1.784316599E-1,-4.034686089E-2
6.457424751E0,-7.523424178E-2,-2.135853618E-1,-4.620581120E-2
6.477609542E0,-9.547425061E-2,-2.221074700E-1,-9.094688296E-2
6.497795272E0,-1.023984700E-1,-1.874863952E-1,-1.484711170E-1
6.517981938E0,-9.600688517E-2,-1.443432271E-1,-1.596563905E-1
6.538169542E0,-5.126581341E-2,-9.161267430E-2,-1.191763729E-1
6.558357980E0,1.637842879E-2,-2.130527236E-2,-3.555317223E-2
6.578547251E0,-2.090579830E-2,-1.171789970E-2,4.061317816E-2
6.598737147E0,-3.741738573E-2,-4.846949503E-2,2.942790836E-2
6.618927563E0,2.809632942E-2,-4.740423337E-2,2.090579830E-2
6.639118292E0,4.194475710E-2,-6.072002649E-2,5.712476373E-2
6.659309230E0,2.530001104E-3,-1.022653133E-1,6.724476814E-2
6.679511001E0,-4.487423226E-2,-1.486042738E-1,2.836264484E-2
6.699688084E0,-6.085318699E-2,-1.869537681E-1,-4.886896908E-2
6.719865480E0,-2.037316747E-2,-1.581916511E-1,-1.010668874E-1
6.740043605E0,-1.877527125E-2,-1.464737505E-1,-7.070687413E-2
6.760222772E0,-5.073318258E-2,-1.161137372E-1,-6.697845459E-2
6.780403188E0,-3.262370080E-2,-3.675159439E-2,-1.069258377E-1
6.800585063E0,-1.025316212E-2,-1.757685095E-2,-8.135951310E-2
6.820768605E0,2.010685205E-2,-3.834949061E-2,-5.046686530E-2
6.840953813E0,4.514054582E-2,-5.113265663E-2,-2.063948289E-2
6.861140688E0,2.703106403E-2,-6.711161137E-2,4.394212738E-3
6.881329230E0,3.062632866E-3,-6.711161137E-2,-1.371526904E-2
6.901519230E0,-1.025316212E-2,-5.486107618E-2,-2.170474641E-2
6.921710480E0,-3.102580272E-2,-8.255793154E-2,-6.791055668E-3
6.941902772E0,-3.475422785E-2,-3.408843651E-2,-4.780370742E-2
6.962095897E0,-4.327633604E-2,9.587372653E-3,-1.197090000E-1
6.982289542E0,-3.848264739E-2,5.752423778E-2,-1.239700541E-1
7.002483397E0,-1.198421582E-3,8.362319320E-2,-5.313002318E-2
7.022676938E0,2.436790615E-2,4.367581010E-2,5.712476373E-2
7.042863709E0,-3.315633163E-2,2.609895915E-2,7.789740711E-2
7.063045063E0,-7.896266878E-2,3.195790946E-2,4.274370521E-2
7.083226834E0,-4.327633604E-2,3.941475600E-2,5.392897129E-2
7.103409126E0,1.637842879E-2,7.882951200E-2,7.470161468E-2
7.123592147E0,6.591318548E-2,1.502021700E-1,8.695214242E-2
7.143776001E0,8.508793265E-2,1.805621833E-1,1.237037405E-1
7.163960792E0,6.325002760E-2,1.635179669E-1,1.604553312E-1
7.184146522E0,3.661843762E-2,1.560611278E-1,1.540637612E-1
7.204333188E0,2.330264263E-2,1.539305896E-1,1.247690022E-1
7.224520792E0,1.211737376E-2,1.225053221E-1,6.884266436E-2
7.244709230E0,-8.655266836E-3,6.977476925E-2,1.131842658E-2
7.264898501E0,-3.581948951E-2,2.663159044E-3,-2.490053698E-2
7.285088397E0,-1.930790395E-2,-4.420844093E-2,-6.431528926E-2
7.305278813E0,-8.655266836E-3,-4.474107176E-2,-7.816372067E-2
7.325469542E0,-3.155843541E-2,-6.072002649E-2,-5.153212696E-2
7.345660480E0,-3.848264739E-2,-9.001477808E-2,-7.323687430E-3
7.365862251E0,-2.942790836E-2,-9.054741263E-2,-2.916159295E-2
7.386039334E0,-3.155843541E-2,-3.834949061E-2,-6.165213138E-2
7.406216730E0,-4.380896688E-2,-2.663159184E-2,-4.034686089E-2
7.426394855E0,-5.073318258E-2,-1.597895473E-2,-8.921583183E-3
7.446574022E0,-4.434159771E-2,1.970737800E-2,-4.127896391E-3
7.466754438E0,-2.090579830E-2,3.781685978E-2,1.331579551E-4
7.486936313E0,-1.398158539E-2,1.651158556E-2,-3.595264861E-3
7.507119855E0,-3.328948980E-3,-8.522109129E-3,-1.637842879E-2
7.527305063E0,1.464737463E-3,-3.142527863E-2,-2.010685205E-2
7.547491938E0,-1.771000773E-2,-5.113265663E-2,-3.608580679E-2
7.567680480E0,-5.712476373E-2,-6.231792271E-2,-4.087949172E-2
7.587870480E0,-6.724476814E-2,-5.432844535E-2,-6.697845459E-2
7.608061730E0,-4.860265180E-2,-1.597895520E-3,-8.349003643E-2
7.628254022E0,-3.901528195E-2,3.355580568E-2,-3.768370301E-2
7.648447147E0,-6.524739787E-3,6.551371515E-2,2.303632535E-2
7.668640792E0,1.371526904E-2,6.657897681E-2,6.351634115E-2
7.688834647E0,-6.524739787E-3,4.793686420E-2,6.404897571E-2
7.709028084E0,-2.996053919E-2,4.314317927E-2,1.771000773E-2
7.729214855E0,-2.569948509E-2,4.687159881E-2,-1.424790081E-2
7.749396209E0,-1.331579551E-4,5.645897239E-2,-3.595264861E-3
7.769577980E0,7.856319658E-3,6.498108059E-2,1.611211337E-2
7.789760272E0,-1.185105834E-2,5.432844535E-2,2.996053919E-2
7.809943292E0,-2.410159074E-2,3.142527863E-2,3.741738573E-2
7.830127147E0,-2.516685426E-2,2.609895915E-2,1.611211337E-2
7.850311938E0,-3.049317189E-2,3.249054030E-2,-1.464737463E-3
7.870497667E0,-4.114580899E-2,2.450106293E-2,-1.211737376E-2
7.890684334E0,-4.807002097E-2,2.822948620E-2,-5.725792143E-3
7.910871938E0,-4.008054361E-2,2.609895915E-2,2.263685223E-3
7.931060376E0,-1.877527125E-2,-6.924213842E-3,-1.051947847E-2
7.951249647E0,-1.331579551E-4,-1.384842768E-2,-2.809632942E-2
7.971439542E0,9.986846708E-3,1.597895520E-3,-2.649843320E-2
7.991629959E0,4.660528619E-3,1.544632297E-2,-6.791055668E-3
8.011820688E0,-1.025316212E-2,2.024000883E-2,9.720530361E-3
8.032011626E0,-1.344895363E-2,2.343579940E-2,1.504684892E-2
8.052213397E0,-4.394212738E-3,3.408843651E-2,3.861580743E-3
8.072390480E0,2.862896025E-2,4.580633715E-2,-9.986846708E-3
8.092567876E0,5.685844645E-2,4.527370632E-2,4.926844500E-3
8.112746001E0,4.940159991E-2,3.728422802E-3,2.090579830E-2
8.132925167E0,3.235738352E-2,-1.331579592E-2,2.250369452E-2
8.153105584E0,1.850895584E-2,7.456845604E-3,1.664474420E-2
8.173287459E0,4.660528619E-3,2.503369562E-2,1.238369010E-2
8.193471001E0,1.464737463E-3,5.805686861E-2,1.025316212E-2
8.213656209E0,6.258423906E-3,8.468846232E-2,1.238369010E-2
8.233843084E0,1.424790081E-2,6.604634225E-2,1.877527125E-2
8.254031626E0,1.105211023E-2,4.314317927E-2,1.185105834E-2
8.274221626E0,2.530001104E-3,3.195790946E-2,4.394212738E-3
8.294412876E0,9.321057005E-4,9.054740891E-3,1.344895363E-2
8.314605167E0,9.321057005E-4,-3.728422802E-3,1.824264042E-2
8.334798292E0,-5.459476262E-3,-3.728422802E-3,1.824264042E-2
8.354991938E0,1.464737463E-3,-1.278316416E-2,1.984053478E-2
8.375185792E0,5.725792143E-3,1.384842768E-2,2.250369452E-2
8.395379230E0,6.791055668E-3,3.195790946E-2,2.569948509E-2
8.415566001E0,1.211737376E-2,2.716422267E-2,2.250369452E-2
8.435747355E0,2.170474641E-2,2.396843210E-2,1.984053478E-2
8.455929126E0,4.127896391E-3,5.805686861E-2,1.771000773E-2
8.476111417E0,-8.122635074E-3,6.498108059E-2,1.824264042E-2
8.496294438E0,-9.187898599E-3,5.006739125E-2,1.504684892E-2
8.516478292E0,-1.131842658E-2,5.592634156E-2,8.122635074E-3
8.536663084E0,-4.394212738E-3,7.297056168E-2,1.238369010E-2
8.556848813E0,-3.861580743E-3,7.776424289E-2,2.197106183E-2
8.577035480E0,-4.926844500E-3,7.456845790E-2,2.996053919E-2
8.597223084E0,9.321057005E-4,8.309056610E-2,3.475422785E-2
8.617411522E0,9.986846708E-3,1.081242561E-1,4.221107066E-2
8.637600792E0,1.158474199E-2,1.123853177E-1,4.593949392E-2
8.657790688E0,2.117211558E-2,1.059937328E-1,4.966791719E-2
8.677981105E0,4.301001877E-2,1.193095297E-1,6.404897571E-2
8.698171834E0,4.247738793E-2,1.123853177E-1,6.937529147E-2
8.718362772E0,3.395527974E-2,9.480846673E-2,6.245107949E-2
8.738564542E0,4.673844203E-2,9.214530140E-2,5.659212917E-2
8.758741626E0,6.431528926E-2,6.391581893E-2,5.765739456E-2
8.778919022E0,7.550056279E-2,2.822948620E-2,5.872265995E-2
8.799097147E0,9.307741374E-2,1.065263618E-2,5.659212917E-2
8.819276313E0,1.165132076E-1,-1.331579592E-2,5.073318258E-2
8.839456730E0,1.383511126E-1,-2.290316857E-2,5.179844424E-2
8.859638605E0,1.372858584E-1,3.195791040E-3,6.138581783E-2
8.879822147E0,1.245026886E-1,2.024000883E-2,4.860265180E-2
8.900007355E0,1.218395308E-1,5.219791830E-2,2.143843099E-2
8.920194230E0,1.207742617E-1,6.391581893E-2,-7.323687430E-3
8.940382772E0,1.399490088E-1,6.178529188E-2,-3.342264518E-2
8.960572772E0,1.942774504E-1,4.101264849E-2,-2.596580051E-2
8.980764022E0,1.788311303E-1,-3.568633273E-2,2.516685426E-2
9.000956313E0,2.490053698E-2,-8.948214352E-2,7.257108390E-2
9.021149438E0,-1.061268896E-1,-6.604634225E-2,4.753739014E-2
9.041343084E0,-6.724476814E-2,-9.587372653E-3,-6.791055668E-3
9.061536938E0,6.484792382E-2,-1.012000442E-2,-5.739107728E-2
9.081730272E0,1.564605981E-1,-7.616634667E-2,-6.857634336E-2
9.101917147E0,1.383511126E-1,-1.091895252E-1,-5.366265774E-2
9.122103917E0,3.289001435E-2,-6.977476925E-2,-3.661843762E-2
9.142285272E0,-7.949529588E-2,-3.568633273E-2,-1.371526904E-2
9.162467042E0,-9.707214683E-2,2.130527282E-3,-2.383527346E-2
9.182649334E0,-2.197106183E-2,3.515370190E-2,-3.981423005E-2
9.202832355E0,6.271740049E-2,2.876211889E-2,-4.301001877E-2
9.223016209E0,1.005342528E-1,6.604634225E-2,-4.407528415E-2
9.243201001E0,9.041424841E-2,1.059937328E-1,-3.928159550E-2
9.263386730E0,5.845634267E-2,1.091895252E-1,-1.850895584E-2
9.283573397E0,1.211737376E-2,7.669898123E-2,3.328948980E-3
9.303761001E0,-2.143843099E-2,4.314317927E-2,2.516685426E-2
9.323949438E0,-4.008054361E-2,4.420844093E-2,3.315633163E-2
9.344138605E0,-3.581948951E-2,4.687159881E-2,2.356895804E-2
9.364328397E0,-9.720530361E-3,3.621896356E-2,2.410159074E-2
9.384518709E0,6.791055668E-3,-6.391582079E-3,2.889527567E-2
9.404709334E0,2.277000993E-2,-3.515370190E-2,1.930790395E-2
9.424900167E0,4.407528415E-2,-1.225053146E-2,1.185105834E-2
9.445101834E0,4.247738793E-2,1.012000442E-2,2.623211779E-2
9.465279334E0,3.182475269E-2,-3.249054030E-2,2.676474862E-2
9.485457147E0,3.981423005E-2,-9.693899006E-2,6.524739787E-3
9.505635584E0,6.111950055E-2,-1.054610983E-1,-9.321057005E-4
9.525814959E0,5.792371184E-2,-1.065263674E-1,-3.595264861E-3
9.545995584E0,3.608580679E-2,-1.225053221E-1,-1.051947847E-2
9.566177667E0,1.371526904E-2,-1.203747913E-1,-9.454214945E-3
9.586361313E0,-7.590003312E-3,-9.960214794E-2,-1.371526904E-2
9.606546626E0,-8.655266836E-3,-7.510108501E-2,-2.809632942E-2
9.626733605E0,8.921583183E-3,-5.379581451E-2,-2.916159295E-2
9.646922147E0,1.531316526E-2,-4.154528305E-2,-1.904158667E-2
9.667112147E0,4.660528619E-3,-2.556632832E-2,-7.856319658E-3
9.687303397E0,-2.796316985E-3,-6.924213842E-3,8.122635074E-3
9.707495688E0,-1.451421715E-2,3.728422802E-3,1.824264042E-2
9.727688709E0,-1.557948068E-2,5.432844535E-2,1.185105834E-2
9.747882147E0,-8.655266836E-3,1.235705838E-1,6.524739787E-3
9.768075792E0,-1.611211337E-2,1.592569202E-1,9.187898599E-3
9.788267980E0,-3.901528195E-2,1.640505940E-1,1.504684892E-2
9.808454751E0,-4.700475931E-2,1.773663908E-1,2.410159074E-2
9.828636105E0,-4.061317816E-2,1.757684946E-1,4.114580899E-2
9.848817876E0,-2.676474862E-2,1.533979625E-1,5.712476373E-2
9.869000167E0,-7.057371549E-3,1.411474347E-1,6.032055244E-2
9.889183188E0,-1.771000773E-2,1.086568907E-1,4.860265180E-2
9.909367042E0,-3.528685868E-2,7.243792713E-2,1.771000773E-2
9.929551834E0,-3.102580272E-2,7.510108501E-2,-2.063948289E-2
9.949737563E0,-3.901528195E-2,9.480846673E-2,-4.407528415E-2
9.969924230E0,-4.061317816E-2,9.640636295E-2,-3.928159550E-2
9.990111834E0,-2.410159074E-2,8.735162020E-2,-6.258423906E-3
1.001030027E1,-8.122635074E-3,5.965476483E-2,2.623211779E-2
1.003048944E1,1.464737463E-3,2.343579940E-2,3.475422785E-2
1.005067923E1,1.318263728E-2,2.503369562E-2,2.356895804E-2
1.007086954E1,3.595264861E-3,3.195790946E-2,4.394212738E-3
1.009106017E1,-1.731053460E-3,5.486107618E-2,-1.904158667E-2
1.011125100E1,-6.657897611E-4,6.924213469E-2,-1.424790081E-2
1.013145267E1,-3.328948980E-3,5.166528746E-2,-3.994738800E-4
1.015163017E1,-8.655266836E-3,5.219791830E-2,6.524739787E-3
1.017180798E1,-9.720530361E-3,5.805686861E-2,9.187898599E-3
1.019198642E1,-3.861580743E-3,4.420844093E-2,1.717737690E-2
1.021216579E1,-2.263685223E-3,3.675159439E-2,2.143843099E-2
1.023234642E1,-1.078579482E-2,3.568633273E-2,1.504684892E-2
1.025252850E1,-1.504684892E-2,2.982738242E-2,2.796316985E-3
1.027271215E1,-1.078579482E-2,2.450106293E-2,-6.258423906E-3
1.029289746E1,3.994738800E-4,1.651158556E-2,-8.921583183E-3
1.031308444E1,6.791055668E-3,7.989477366E-3,-6.258423906E-3
1.033327298E1,3.994738800E-4,-5.326318089E-3,-1.997369342E-3
1.035346298E1,-3.861580743E-3,-2.077264152E-2,-3.994738800E-4
1.037365423E1,4.127896391E-3,-2.822948620E-2,-5.193160381E-3
1.039384652E1,1.637842879E-2,-3.568633273E-2,-1.051947847E-2
1.041403954E1,2.170474641E-2,-3.781685978E-2,-1.051947847E-2
1.043423298E1,1.637842879E-2,-3.249054030E-2,-8.921583183E-3
1.045442663E1,1.211737376E-2,-1.118526794E-2,-1.105211023E-2
1.047461881E1,1.158474199E-2,1.597895473E-2,-4.127896391E-3
1.049480558E1,8.388951421E-3,3.408843651E-2,7.057371549E-3
1.051498694E1,-2.263685223E-3,4.900212586E-2,1.611211337E-2
1.053516871E1,-8.655266836E-3,5.326318368E-2,2.516685426E-2
1.055535100E1,-1.611211337E-2,4.314317927E-2,2.623211779E-2
1.057553402E1,-2.197106183E-2,5.006739125E-2,2.197106183E-2
1.059571788E1,-8.655266836E-3,8.202529699E-2,1.717737690E-2
1.061590267E1,-1.185105834E-2,1.171789989E-1,2.516685426E-2
1.063608840E1,-2.463422157E-2,1.134505793E-1,3.688475490E-2
1.065627506E1,-8.655266836E-3,1.017326787E-1,4.913528636E-2
1.067646267E1,1.158474199E-2,7.084003091E-2,4.593949392E-2
1.069665110E1,1.957421936E-2,3.781685978E-2,3.315633163E-2
1.071684027E1,1.051947847E-2,9.054740891E-3,9.187898599E-3
1.073703006E1,2.383527346E-2,-2.663159044E-3,-2.490053698E-2
1.075722038E1,6.431528926E-2,1.757685095E-2,-4.247738793E-2
1.077741100E1,7.709845901E-2,4.793686420E-2,-3.448791057E-2
1.079760183E1,4.620581120E-2,8.202529699E-2,-3.595264861E-3
1.081780350E1,-1.078579482E-2,9.747162461E-2,3.315633163E-2
1.083798079E1,-5.392897129E-2,9.800425172E-2,5.499423668E-2
1.085815840E1,-7.097318769E-2,6.764423847E-2,6.085318699E-2
1.087833673E1,-6.671213359E-2,1.544632297E-2,4.487423226E-2
1.089851610E1,-8.908267319E-2,-6.604634225E-2,3.475422785E-2
1.091869673E1,-1.205079481E-1,-3.387538493E-1,5.925529078E-2
1.093887881E1,-4.221107066E-2,-5.390233994E-1,6.085318699E-2
1.095906246E1,8.082687855E-2,-1.688442826E-1,-4.127896391E-3
1.097924777E1,1.282311082E-1,3.318296373E-1,-7.550056279E-2
1.099943475E1,9.946899116E-2,3.233075142E-1,-7.603318989E-2
1.101962329E1,3.235738352E-2,4.793686327E-3,-2.809632942E-2
1.103981329E1,5.193160381E-3,-1.123853177E-1,1.877527125E-2
1.106000454E1,1.478053257E-2,-5.858949944E-2,1.504684892E-2
1.108019683E1,3.661843762E-2,-1.864211448E-2,2.263685223E-3
1.110038986E1,5.472791940E-2,-1.384842768E-2,5.992108025E-3
1.112058329E1,5.579318479E-2,-3.089264594E-2,2.356895804E-2
1.114077694E1,4.141212255E-2,-5.166528746E-2,4.434159771E-2
1.116096933E1,2.649843320E-2,-8.309056610E-2,3.528685868E-2
1.118115611E1,2.703106403E-2,-8.735162020E-2,1.198421582E-3
1.120133746E1,3.981423005E-2,-5.219791830E-2,-2.649843320E-2
1.122151923E1,5.259739235E-2,-1.438105945E-2,-3.874896467E-2
1.124170152E1,5.259739235E-2,-6.391582079E-3,-2.543316968E-2
1.126188454E1,3.928159550E-2,-4.420844093E-2,-4.660528619E-3
1.128206840E1,2.010685205E-2,-1.166463718E-1,-1.158474199E-2
1.130225319E1,-3.368896246E-2,-2.215748429E-1,-2.277000993E-2
1.132243892E1,-1.039963663E-1,-4.207791388E-1,-4.514054582E-2
1.134262558E1,-1.407479644E-1,-5.198486447E-1,-6.058686972E-2
1.136281319E1,-1.540637612E-1,-2.769685388E-1,-8.828372508E-2
1.138300163E1,-1.130511016E-1,1.315600574E-1,-9.840372950E-2
1.140319079E1,1.691105962E-2,2.194443047E-1,-3.235738352E-2
1.142338058E1,1.383511126E-1,4.474107176E-2,4.913528636E-2
1.144357090E1,1.878858805E-1,-9.480846673E-2,6.191844866E-2
1.146376152E1,1.745700836E-1,-1.613874435E-1,2.783001214E-2
1.148395236E1,1.079910994E-1,-1.800295562E-1,-1.531316526E-2
1.150415402E1,4.673844203E-2,-1.427453309E-1,-3.022685647E-2
1.152433131E1,6.791055668E-3,-9.534109384E-2,-1.957421936E-2
1.154450892E1,-3.328948980E-3,-7.616634667E-2,-5.725792143E-3
1.156468725E1,8.921583183E-3,-5.645897239E-2,3.328948980E-3
1.158486663E1,2.277000993E-2,-4.793686420E-2,8.655266836E-3
1.160504725E1,4.660528619E-3,-3.195790946E-2,3.861580743E-3
1.162522933E1,-3.368896246E-2,-7.456845604E-3,-1.744369231E-2
1.164541298E1,-5.872265995E-2,2.396843210E-2,-3.075948730E-2
1.166559829E1,-6.831002980E-2,2.769685537E-2,-3.022685647E-2
1.168578527E1,-6.671213359E-2,-7.989477366E-3,-2.969422378E-2
1.170597381E1,-5.765739456E-2,-4.687159881E-2,-2.969422378E-2
1.172616381E1,-5.179844424E-2,-5.379581451E-2,-3.235738352E-2
1.174635506E1,-5.286370963E-2,-3.834949061E-2,-3.928159550E-2
1.176654736E1,-4.860265180E-2,-3.994738683E-2,-3.608580679E-2
1.178674038E1,-3.475422785E-2,-3.302317113E-2,-2.330264263E-2
1.180693381E1,-1.611211337E-2,-2.130527282E-3,-6.258423906E-3
1.182712746E1,3.994738800E-4,1.491369121E-2,4.394212738E-3
1.184731975E1,1.478053257E-2,2.183790505E-2,1.664474420E-2
1.186750652E1,1.531316526E-2,1.278316416E-2,2.356895804E-2
1.188768788E1,5.725792143E-3,-1.012000442E-2,1.344895363E-2
1.190786965E1,-8.122635074E-3,-1.491369121E-2,-9.454214945E-3
1.192805194E1,-1.611211337E-2,-5.858949851E-3,-2.330264263E-2
1.194823496E1,-2.143843099E-2,1.118526794E-2,-1.265000552E-2
1.196841881E1,-1.611211337E-2,6.391582079E-3,-3.595264861E-3
1.198860361E1,-8.655266836E-3,-1.704421826E-2,3.861580743E-3
1.200878933E1,9.321057005E-4,-3.142527863E-2,4.926844500E-3
1.202897600E1,2.530001104E-3,-2.450106293E-2,2.796316985E-3
1.204916360E1,-8.655266836E-3,-2.237053588E-2,1.198421582E-3
1.206935204E1,-1.664474420E-2,-4.314317927E-2,4.926844500E-3
1.208954121E1,-2.090579830E-2,-6.178529188E-2,7.057371549E-3
1.210973100E1,-1.238369010E-2,-6.338318437E-2,-3.062632866E-3
1.212992131E1,1.211737376E-2,-3.249054030E-2,1.731053460E-3
1.215011194E1,2.703106403E-2,-3.195791040E-3,2.197106183E-2
1.217030277E1,4.087949172E-2,-2.503369562E-2,2.942790836E-2
1.219050444E1,4.567318037E-2,-6.018739566E-2,3.581948951E-2
1.221068173E1,2.862896025E-2,-7.190529257E-2,3.368896246E-2
1.223085933E1,5.193160381E-3,-4.314317927E-2,1.611211337E-2
1.225103767E1,-4.926844500E-3,-1.065263618E-2,-3.062632866E-3
1.227121704E1,-2.263685223E-3,-1.597895473E-2,-1.531316526E-2
1.229139767E1,-3.328948980E-3,-3.142527863E-2,-1.531316526E-2
1.231157975E1,-1.717737690E-2,-3.515370190E-2,-9.454214945E-3
1.233176340E1,-2.356895804E-2,-3.142527863E-2,-1.051947847E-2
1.235194871E1,-1.717737690E-2,-1.597895473E-2,-1.371526904E-2
1.237213569E1,-5.459476262E-3,-9.054740891E-3,-6.258423906E-3
1.239232423E1,-9.187898599E-3,-1.384842768E-2,9.187898599E-3
1.241251423E1,-1.771000773E-2,-1.438105945E-2,1.398158539E-2
1.243270548E1,-1.611211337E-2,-1.118526794E-2,6.524739787E-3
1.245289777E1,-7.590003312E-3,4.793686327E-3,-3.595264861E-3
1.247309079E1,-5.459476262E-3,2.396843210E-2,1.331579551E-4
1.249328423E1,-1.331579551E-4,1.065263618E-2,7.590003312E-3
1.251347788E1,4.660528619E-3,-4.314317927E-2,9.187898599E-3
1.253367017E1,-1.731053460E-3,-6.338318437E-2,1.731053460E-3
1.255385694E1,-1.185105834E-2,-3.568633273E-2,-1.744369231E-2
1.257403829E1,-7.590003312E-3,6.391582079E-3,-2.703106403E-2
1.259422006E1,1.997369342E-3,4.367581010E-2,-1.904158667E-2
1.261440236E1,3.595264861E-3,6.391581893E-2,-6.791055668E-3
1.263458538E1,-1.291632187E-2,7.350318879E-2,4.394212738E-3
1.265476923E1,-3.102580272E-2,6.924213469E-2,5.459476262E-3
1.267495402E1,-2.463422157E-2,6.657897681E-2,2.263685223E-3
1.269513975E1,-1.717737690E-2,4.793686420E-2,1.731053460E-3
1.271532642E1,-2.516685426E-2,1.278316416E-2,-8.388951421E-3
1.273551402E1,-2.783001214E-2,8.522109129E-3,-2.330264263E-2
1.275570246E1,-2.410159074E-2,3.728422895E-2,-2.490053698E-2
1.277589163E1,-2.623211779E-2,3.195790946E-2,-8.921583183E-3
1.279608142E1,-1.504684892E-2,-5.326318089E-3,8.122635074E-3
1.281627173E1,-4.926844500E-3,-1.864211448E-2,9.187898599E-3
1.283646236E1,-7.590003312E-3,-1.065263641E-3,-2.530001104E-3
1.285665319E1,-1.185105834E-2,2.290316857E-2,-1.211737376E-2
1.287685486E1,-1.398158539E-2,7.989477366E-3,-8.388951421E-3
1.289703215E1,-1.131842658E-2,-1.065263618E-2,-9.321057005E-4
1.291720975E1,-1.025316212E-2,-1.065263618E-2,2.263685223E-3
1.293738808E1,-7.590003312E-3,4.793686327E-3,8.655266836E-3
1.295756746E1,-1.238369010E-2,3.728422802E-3,1.025316212E-2
1.297774808E1,-9.720530361E-3,9.054740891E-3,4.926844500E-3
1.299793017E1,-1.451421715E-2,1.651158556E-2,-3.595264861E-3
1.301811381E1,-2.410159074E-2,3.195791040E-3,-9.454214945E-3
1.303829913E1,-2.090579830E-2,1.331579592E-2,-9.986846708E-3
1.305848610E1,-8.122635074E-3,3.515370190E-2,-5.193160381E-3
1.307867465E1,9.454214945E-3,2.183790505E-2,1.198421582E-3
1.309886465E1,7.856319658E-3,1.065263641E-3,2.037316747E-2
1.311905590E1,-7.057371549E-3,-8.522109129E-3,3.262370080E-2
1.313924819E1,-8.122635074E-3,-5.858949851E-3,3.954791278E-2
1.315944121E1,1.997369342E-3,-8.522109129E-3,3.475422785E-2
1.317963465E1,5.725792143E-3,-8.522109129E-3,2.250369452E-2
1.319982829E1,3.062632866E-3,1.491369121E-2,1.078579482E-2
1.322002058E1,7.323687430E-3,3.728422895E-2,5.459476262E-3
1.324020736E1,1.105211023E-2,2.822948620E-2,8.122635074E-3
1.326038871E1,-5.992108025E-3,-1.597895520E-3,1.771000773E-2
1.328057048E1,-2.037316747E-2,-1.491369121E-2,2.623211779E-2
1.330075277E1,-1.451421715E-2,-6.391582079E-3,3.635212034E-2
1.332093579E1,1.997369342E-3,-9.587372653E-3,4.807002097E-2
1.334111965E1,1.371526904E-2,-2.663159184E-2,5.659212917E-2
1.336130444E1,8.921583183E-3,-3.408843651E-2,6.671213359E-2
1.338149017E1,9.321057005E-4,-1.597895473E-2,6.404897571E-2
1.340167683E1,5.193160381E-3,2.024000883E-2,5.712476373E-2
1.342186444E1,1.211737376E-2,2.237053588E-2,5.819002539E-2
1.344205288E1,1.371526904E-2,1.597895520E-3,6.351634115E-2
1.346224204E1,1.105211023E-2,5.326318089E-3,6.404897571E-2
1.348243183E1,-1.731053460E-3,2.077264152E-2,4.913528636E-2
1.350262215E1,-1.238369010E-2,1.864211448E-2,3.368896246E-2
1.352281277E1,2.530001104E-3,-2.663159044E-3,1.930790395E-2
1.354300361E1,2.063948289E-2,-2.769685537E-2,9.187898599E-3
1.356320527E1,2.170474641E-2,-4.154528305E-2,1.198421582E-3
1.358338267E1,3.062632866E-3,-3.834949061E-2,8.122635074E-3
1.360356038E1,-1.824264042E-2,-2.609895915E-2,1.398158539E-2
1.362373871E1,-2.090579830E-2,-1.544632297E-2,8.122635074E-3
1.364391798E1,-1.344895363E-2,-1.278316416E-2,7.590003312E-3
1.366409850E1,-2.143843099E-2,-1.171789970E-2,1.930790395E-2
1.368428048E1,-5.446160212E-2,2.663159044E-3,3.581948951E-2
1.370446402E1,-1.114532053E-1,5.326318205E-4,4.380896688E-2
1.372464923E1,-1.599227041E-1,-1.278316416E-2,4.913528636E-2
1.374483611E1,-1.945437789E-1,5.326318089E-3,4.860265180E-2
1.376502454E1,-2.099900991E-1,3.675159439E-2,4.380896688E-2
1.378521444E1,-1.972069293E-1,2.237053588E-2,4.380896688E-2
1.380540558E1,-1.695100814E-1,4.261054564E-3,2.356895804E-2
1.382559777E1,-1.119858399E-1,1.171789970E-2,-1.318263728E-2
1.384579079E1,-5.233107507E-2,-2.769685537E-2,-2.916159295E-2
1.386598433E1,-1.930790395E-2,-5.060002208E-2,-3.715106845E-2
1.388617808E1,-6.657897611E-4,-3.621896356E-2,-3.395527974E-2
1.390637121E1,6.258423906E-3,-2.982738242E-2,-2.916159295E-2
1.392655798E1,1.158474199E-2,-1.438105945E-2,-3.235738352E-2
1.394673933E1,-1.331579551E-4,-1.597895520E-3,-2.809632942E-2
1.396692110E1,-1.025316212E-2,-6.924213842E-3,-2.063948289E-2
1.398710340E1,-1.238369010E-2,7.456845604E-3,-2.277000993E-2
1.400728642E1,-1.731053460E-3,1.278316416E-2,-2.063948289E-2
1.402747027E1,4.127896391E-3,1.118526794E-2,-2.117211558E-2
1.404765506E1,-4.926844500E-3,1.384842768E-2,-3.395527974E-2
1.406784079E1,-2.569948509E-2,6.391582079E-3,-4.301001877E-2
1.408802746E1,-3.581948951E-2,3.195791040E-3,-4.886896908E-2
1.410821506E1,-4.593949392E-2,2.876211889E-2,-4.780370742E-2
1.412840350E1,-4.913528636E-2,6.391581893E-2,-4.727107286E-2
1.414859267E1,-5.020054802E-2,6.657897681E-2,-4.194475710E-2
1.416878246E1,-6.617950648E-2,5.858949944E-2,-3.502054140E-2
1.418897277E1,-7.310371846E-2,7.297056168E-2,-3.821633384E-2
1.420916340E1,-6.617950648E-2,6.444845349E-2,-4.673844203E-2
1.422935423E1,-7.257108390E-2,4.846949503E-2,-5.526055023E-2
1.424955590E1,-8.855003864E-2,4.633896798E-2,-5.685844645E-2
1.426973340E1,-1.018658355E-1,4.420844093E-2,-5.366265774E-2
1.428991121E1,-9.813741595E-2,5.006739125E-2,-5.739107728E-2
1.431008965E1,-6.724476814E-2,3.462106735E-2,-5.739107728E-2
1.433026902E1,-7.044056058E-2,3.036001325E-2,-4.354264960E-2
1.435044965E1,-7.470161468E-2,6.764423847E-2,-3.075948730E-2
1.437063173E1,-8.641951531E-2,6.764423847E-2,-2.010685205E-2
1.439081538E1,-9.920267761E-2,4.846949503E-2,-2.436790615E-2
1.441100069E1,-9.760478139E-2,3.408843651E-2,-3.981423005E-2
1.443118767E1,-8.961530030E-2,3.675159439E-2,-5.739107728E-2
1.445137621E1,-8.588688076E-2,2.130527236E-2,-6.591318548E-2
1.447156621E1,-7.629951090E-2,-6.391582079E-3,-6.964161247E-2
1.449175746E1,-5.978792161E-2,-2.929474972E-2,-7.443529367E-2
1.451194975E1,-4.753739014E-2,-4.261054471E-2,-6.964161247E-2
1.453214277E1,-2.889527567E-2,-3.941475600E-2,-6.111950055E-2
1.455233621E1,-9.720530361E-3,-2.556632832E-2,-4.301001877E-2
1.457252986E1,-8.122635074E-3,-2.290316857E-2,-2.862896025E-2
1.459272204E1,-1.131842658E-2,-1.917474531E-2,-2.436790615E-2
1.461290892E1,3.595264861E-3,2.130527282E-3,-2.330264263E-2
1.463309569E1,1.371526904E-2,-3.728422802E-3,-1.424790081E-2
1.465327704E1,-6.657897611E-4,-1.278316416E-2,-7.856319658E-3
1.467345881E1,-3.861580743E-3,-1.810948178E-2,-6.258423906E-3
1.469364111E1,1.637842879E-2,-1.597895473E-2,-5.193160381E-3
1.471382413E1,2.436790615E-2,-1.012000442E-2,-1.997369342E-3
1.473400798E1,5.725792143E-3,-1.278316416E-2,2.263685223E-3
1.475419277E1,-9.720530361E-3,-1.384842768E-2,1.344895363E-2
1.477437850E1,9.454214945E-3,1.597895520E-3,1.557948068E-2
1.479456517E1,2.969422378E-2,3.728422802E-3,1.238369010E-2
1.481475277E1,2.862896025E-2,9.054740891E-3,5.992108025E-3
1.483494121E1,3.595264861E-3,2.396843210E-2,1.238369010E-2
1.485513038E1,-1.344895363E-2,1.171789970E-2,1.717737690E-2
1.487532017E1,-1.185105834E-2,2.663159044E-3,1.185105834E-2
1.489551048E1,-1.025316212E-2,-4.261054564E-3,-9.321057005E-4
1.491570110E1,-1.717737690E-2,1.118526794E-2,-1.105211023E-2
1.493589194E1,-2.143843099E-2,2.876211889E-2,-8.388951421E-3
1.495609361E1,-2.303632535E-2,1.171789970E-2,-1.997369342E-3
1.497627110E1,-2.516685426E-2,-1.331579592E-2,-5.725792143E-3
1.499644892E1,-1.877527125E-2,-1.171789970E-2,-1.744369231E-2
1.501662736E1,-1.131842658E-2,5.326318089E-3,-2.170474641E-2
1.503680673E1,-2.796316985E-3,2.503369562E-2,-1.478053257E-2
1.505698736E1,3.994738800E-4,3.036001325E-2,2.796316985E-3
1.507716944E1,1.997369342E-3,1.970737800E-2,2.090579830E-2
1.509735308E1,-1.331579551E-4,2.130527236E-2,2.356895804E-2
1.511753840E1,-5.459476262E-3,2.077264152E-2,1.398158539E-2
1.513772538E1,-6.524739787E-3,1.970737800E-2,5.992108025E-3
1.515791392E1,3.062632866E-3,1.065263618E-2,1.344895363E-2
1.517810392E1,7.323687430E-3,-3.728422802E-3,2.463422157E-2
1.519829517E1,-3.328948980E-3,-1.438105945E-2,2.783001214E-2
1.521848746E1,-3.861580743E-3,-5.858949851E-3,1.611211337E-2
1.523868048E1,-1.331579551E-4,1.171789970E-2,1.238369010E-2
1.525887392E1,-1.198421582E-3,2.450106293E-2,1.824264042E-2
1.527906756E1,-8.122635074E-3,1.757685095E-2,2.623211779E-2
1.529925975E1,-8.655266836E-3,1.065263618E-2,2.463422157E-2
1.531944663E1,-1.131842658E-2,5.858949851E-3,1.398158539E-2
1.533963340E1,-1.504684892E-2,2.130527282E-3,3.328948980E-3
1.535981475E1,-2.143843099E-2,1.597895520E-3,2.796316985E-3
1.537999652E1,-1.238369010E-2,2.130527282E-3,9.187898599E-3
1.540017881E1,5.193160381E-3,-1.864211448E-2,1.771000773E-2
1.542036183E1,1.158474199E-2,-2.663159184E-2,1.238369010E-2
1.544054569E1,1.904158667E-2,-2.077264152E-2,1.025316212E-2
1.546073048E1,2.383527346E-2,-1.810948178E-2,2.463422157E-2
1.548091621E1,2.596580051E-2,-1.171789970E-2,3.795001656E-2
1.550110288E1,4.194475710E-2,-2.450106293E-2,3.795001656E-2
1.552129048E1,6.005423889E-2,-5.273054913E-2,3.688475490E-2
1.554147892E1,7.496792823E-2,-5.326318368E-2,4.114580899E-2
1.556166808E1,1.031974182E-1,-4.953476042E-2,4.540686309E-2
1.558185788E1,1.308942735E-1,-7.563371956E-2,5.392897129E-2
1.560204819E1,1.543300748E-1,-8.948214352E-2,5.339634046E-2
1.562223881E1,2.043974549E-1,-7.989477366E-2,2.783001214E-2
1.564242965E1,2.539322078E-1,-8.468846232E-2,-6.791055668E-3
1.566263131E1,2.667153776E-1,-1.059937328E-1,-4.940159991E-2
1.568280892E1,2.411490530E-1,-1.347558498E-1,-9.361004084E-2
1.570298683E1,1.852227151E-1,-1.704421788E-1,-1.090563685E-1
1.572316538E1,1.106542572E-1,-1.363537461E-1,-7.709845901E-2
1.574334486E1,-7.590003312E-3,-5.166528746E-2,1.877527125E-2
1.576352558E1,-5.765739456E-2,-1.970737800E-2,8.908267319E-2
1.578370777E1,-9.187898599E-3,2.663159044E-3,9.014793485E-2
1.580389152E1,8.135951310E-2,-1.544632297E-2,4.061317816E-2
1.582407683E1,1.292963773E-1,-4.207791388E-2,-1.637842879E-2
1.584426371E1,8.029424399E-2,-6.498108059E-2,-3.608580679E-2
1.586445215E1,1.371526904E-2,-6.018739566E-2,-2.862896025E-2
1.588464194E1,1.158474199E-2,-3.728422895E-2,-2.862896025E-2
1.590483298E1,8.615319431E-2,5.326318089E-3,-2.969422378E-2
1.592502506E1,1.948100924E-1,2.822948620E-2,-2.703106403E-2
1.594521788E1,2.954775095E-1,-5.326318089E-3,1.331579551E-4
1.596541121E1,2.853575051E-1,-9.374319762E-2,5.712476373E-2
1.598560475E1,9.201214463E-2,-1.033305749E-1,8.641951531E-2
1.600579756E1,-9.334372729E-2,-7.456845604E-3,5.446160212E-2
1.602598444E1,-1.146489978E-1,8.894951642E-2,7.590003312E-3
1.604617121E1,3.022685647E-2,1.038632020E-1,-3.342264518E-2
1.606635256E1,1.910816729E-1,2.290316857E-2,-3.928159550E-2
1.608653433E1,2.182458937E-1,-3.408843651E-2,-2.530001104E-3
1.610671663E1,1.143826842E-1,-5.805686861E-2,3.262370080E-2
1.612689965E1,-2.569948509E-2,-3.728422895E-2,2.090579830E-2
1.614708350E1,-1.109205782E-1,4.261054564E-3,8.122635074E-3
1.616726829E1,-1.119858399E-1,2.609895915E-2,9.187898599E-3
1.618745402E1,-3.102580272E-2,2.130527236E-2,5.459476262E-3
1.620764069E1,5.366265774E-2,-1.970737800E-2,1.331579551E-4
1.622782829E1,5.472791940E-2,-4.048001766E-2,-4.127896391E-3
1.624801673E1,-1.731053460E-3,-1.171789970E-2,-2.330264263E-2
1.626820590E1,-5.765739456E-2,2.396843210E-2,-3.874896467E-2
1.628839569E1,-5.765739456E-2,2.876211889E-2,-3.342264518E-2
1.630858600E1,-2.729738131E-2,1.757685095E-2,-1.371526904E-2
1.632877663E1,6.791055668E-3,-7.989477366E-3,-5.193160381E-3
1.634896746E1,1.904158667E-2,-3.621896356E-2,-1.584579609E-2
1.636916913E1,6.791055668E-3,-6.924213842E-3,-3.448791057E-2
1.638934673E1,-2.836264484E-2,3.036001325E-2,-6.484792382E-2
1.640952465E1,-4.540686309E-2,1.384842768E-2,-6.910897791E-2
1.642970319E1,-4.487423226E-2,-6.391582079E-3,-4.407528415E-2
1.644988267E1,-2.569948509E-2,-1.597895473E-2,2.796316985E-3
1.647006340E1,3.289001435E-2,-3.834949061E-2,4.647212476E-2
1.649024558E1,7.603318989E-2,-4.367581010E-2,7.257108390E-2
1.651042933E1,8.988162130E-2,-2.982738242E-2,6.884266436E-2
1.653061465E1,7.976161689E-2,-2.876211889E-2,4.167843983E-2
1.655080152E1,5.153212696E-2,-2.769685537E-2,8.655266836E-3
1.657098996E1,2.436790615E-2,-1.597895473E-2,-2.383527346E-2
1.659117975E1,1.850895584E-2,-3.195791040E-3,-3.555317223E-2
1.661137079E1,3.022685647E-2,-1.225053146E-2,-2.117211558E-2
1.663156288E1,3.715106845E-2,-2.130527236E-2,-5.193160381E-3
1.665175569E1,3.075948730E-2,-2.663159044E-3,4.394212738E-3
1.667194902E1,1.478053257E-2,8.522109129E-3,8.122635074E-3
1.669214256E1,1.997369342E-3,1.597895520E-3,2.796316985E-3
1.671233548E1,-1.771000773E-2,5.326318205E-4,-1.211737376E-2
1.673252225E1,-3.688475490E-2,9.054740891E-3,-3.129211813E-2
1.675270360E1,-3.475422785E-2,1.597895473E-2,-3.928159550E-2
1.677288538E1,-2.996053919E-2,1.491369121E-2,-2.596580051E-2
1.679306767E1,-2.676474862E-2,7.456845604E-3,-5.193160381E-3
1.681325069E1,-1.078579482E-2,1.118526794E-2,7.590003312E-3
1.683343454E1,1.051947847E-2,1.597895473E-2,9.720530361E-3
1.685361933E1,1.211737376E-2,2.077264152E-2,7.057371549E-3
1.687380506E1,7.323687430E-3,2.343579940E-2,1.731053460E-3
1.689399173E1,4.660528619E-3,2.024000883E-2,-2.530001104E-3
1.691417933E1,3.595264861E-3,1.384842768E-2,-4.660528619E-3
1.693436777E1,1.464737463E-3,7.989477366E-3,-5.193160381E-3
1.695455694E1,-1.331579551E-4,6.391582079E-3,1.198421582E-3
1.697474673E1,-4.394212738E-3,7.456845604E-3,7.057371549E-3
1.699493704E1,-7.590003312E-3,1.065263618E-2,3.861580743E-3
1.701512767E1,-7.590003312E-3,3.195791040E-3,-1.464737463E-3
1.703531850E1,-6.524739787E-3,-2.663159044E-3,-1.464737463E-3
1.705552017E1,-4.926844500E-3,5.326318205E-4,3.861580743E-3
1.707569767E1,1.464737463E-3,-9.054740891E-3,4.394212738E-3
1.709587548E1,5.725792143E-3,-8.522109129E-3,6.657897611E-4
1.711605392E1,7.323687430E-3,3.728422802E-3,-6.258423906E-3
1.713623329E1,1.105211023E-2,1.597895520E-3,-7.856319658E-3
1.715641392E1,9.454214945E-3,-4.793686327E-3,-6.258423906E-3
1.717659600E1,4.660528619E-3,8.522109129E-3,-5.725792143E-3
1.719677965E1,3.595264861E-3,1.544632297E-2,6.657897611E-4
1.721696496E1,2.530001104E-3,5.326318089E-3,1.025316212E-2
1.723715194E1,-6.657897611E-4,5.858949851E-3,1.131842658E-2
1.725734048E1,-6.524739787E-3,1.438105945E-2,5.459476262E-3
1.727753048E1,-8.122635074E-3,1.864211448E-2,-1.997369342E-3
1.729772173E1,-9.720530361E-3,1.438105945E-2,-3.062632866E-3
1.731791402E1,-1.557948068E-2,5.858949851E-3,-2.530001104E-3
1.733810704E1,-1.717737690E-2,-3.728422802E-3,-4.127896391E-3
1.735830048E1,-1.504684892E-2,-5.858949851E-3,-6.791055668E-3
1.737849413E1,-1.291632187E-2,-5.326318205E-4,-8.388951421E-3
1.739868631E1,-9.187898599E-3,7.989477366E-3,-6.258423906E-3
1.741887319E1,-3.861580743E-3,-2.130527282E-3,-1.997369342E-3
1.743905996E1,1.464737463E-3,-1.704421826E-2,4.394212738E-3
1.745924131E1,5.725792143E-3,-5.326318089E-3,1.291632187E-2
1.747942308E1,1.997369342E-3,2.130527282E-3,1.238369010E-2
1.749960538E1,-8.655266836E-3,-1.118526794E-2,9.720530361E-3
1.751978840E1,-1.131842658E-2,-2.503369562E-2,-3.994738800E-4
1.753997225E1,-9.187898599E-3,-2.237053588E-2,-1.265000552E-2
1.756015704E1,9.321057005E-4,-2.183790505E-2,-1.584579609E-2
1.758034277E1,6.791055668E-3,-2.130527236E-2,-7.856319658E-3
1.760052944E1,8.921583183E-3,-2.450106293E-2,1.731053460E-3
1.762071704E1,4.660528619E-3,-3.462106735E-2,7.590003312E-3
1.764090548E1,-6.657897611E-4,-2.769685537E-2,5.459476262E-3
1.766109465E1,3.062632866E-3,-1.331579592E-2,1.198421582E-3
1.768128444E1,6.258423906E-3,-1.331579592E-2,-9.321057005E-4
1.770147475E1,4.660528619E-3,-1.384842768E-2,-4.660528619E-3
1.772166538E1,3.994738800E-4,-1.438105945E-2,-7.323687430E-3
1.774185621E1,-2.263685223E-3,-1.544632297E-2,-7.323687430E-3
1.776205788E1,-1.331579551E-4,-2.024000883E-2,-4.127896391E-3
1.778223538E1,5.193160381E-3,-1.704421826E-2,1.331579551E-4
1.780241319E1,4.660528619E-3,-1.651158556E-2,3.328948980E-3
1.782259163E1,3.062632866E-3,-1.331579592E-2,2.796316985E-3
1.784277100E1,3.062632866E-3,2.130527282E-3,-3.062632866E-3
1.786295163E1,5.725792143E-3,1.597895473E-2,-9.454214945E-3
1.788313371E1,1.158474199E-2,1.757685095E-2,-5.725792143E-3
1.790331736E1,7.856319658E-3,7.989477366E-3,2.263685223E-3
1.792350267E1,1.464737463E-3,-2.130527282E-3,6.524739787E-3
1.794368965E1,3.994738800E-4,-2.130527282E-3,4.926844500E-3
1.796387819E1,1.997369342E-3,1.065263618E-2,-3.994738800E-4
1.798406819E1,9.321057005E-4,1.544632297E-2,-3.062632866E-3
1.800425944E1,-5.992108025E-3,1.704421826E-2,-1.464737463E-3
1.802445173E1,-5.992108025E-3,2.130527236E-2,-3.062632866E-3
1.804464475E1,-1.331579551E-4,2.077264152E-2,-1.464737463E-3
1.806483819E1,-1.198421582E-3,9.054740891E-3,3.861580743E-3
1.808503183E1,-6.524739787E-3,1.438105945E-2,4.394212738E-3
1.810522392E1,-3.861580743E-3,3.195790946E-2,6.657897611E-4
1.812541069E1,-7.590003312E-3,3.408843651E-2,2.796316985E-3
1.814559204E1,-9.720530361E-3,1.171789970E-2,7.590003312E-3
1.816577381E1,-5.459476262E-3,5.326318205E-4,2.263685223E-3
1.818595611E1,-1.731053460E-3,4.261054564E-3,-5.725792143E-3
1.820613913E1,-2.263685223E-3,4.793686327E-3,-7.323687430E-3
1.822632298E1,-8.122635074E-3,9.054740891E-3,-7.323687430E-3
1.824650777E1,-1.185105834E-2,6.924213842E-3,-5.725792143E-3
1.826669350E1,-1.025316212E-2,6.391582079E-3,1.331579551E-4
1.828688017E1,-1.025316212E-2,1.597895520E-3,5.459476262E-3
1.830706777E1,-1.078579482E-2,-4.793686327E-3,4.394212738E-3
1.832725621E1,-8.122635074E-3,-5.326318089E-3,-3.595264861E-3
1.834744538E1,-4.394212738E-3,-9.054740891E-3,-2.530001104E-3
1.836763517E1,-8.122635074E-3,-2.822948620E-2,1.331579551E-4
1.838782548E1,-8.122635074E-3,-3.994738683E-2,-2.530001104E-3
1.840801610E1,-4.394212738E-3,-3.515370190E-2,-6.791055668E-3
1.842820694E1,3.595264861E-3,-2.343579940E-2,-4.660528619E-3
1.844840860E1,8.388951421E-3,-2.503369562E-2,2.263685223E-3
1.846858610E1,1.265000552E-2,-2.876211889E-2,3.328948980E-3
1.848876392E1,1.371526904E-2,-2.077264152E-2,2.263685223E-3
1.850894236E1,8.921583183E-3,-1.012000442E-2,-3.062632866E-3
1.852912173E1,6.258423906E-3,-4.793686327E-3,-5.725792143E-3
1.854930236E1,-6.657897611E-4,-6.924213842E-3,-5.725792143E-3
1.856948444E1,-7.057371549E-3,-9.054740891E-3,-5.193160381E-3
1.858966808E1,-6.524739787E-3,-9.054740891E-3,-7.323687430E-3
1.860985340E1,-1.185105834E-2,-6.391582079E-3,-1.211737376E-2
1.863004038E1,-1.984053478E-2,-2.663159044E-3,-1.904158667E-2
1.865022892E1,-2.569948509E-2,-1.278316416E-2,-1.797632314E-2
1.867041892E1,-2.623211779E-2,-2.077264152E-2,-1.211737376E-2
1.869061017E1,-2.250369452E-2,-7.989477366E-3,-5.725792143E-3
1.871080246E1,-1.557948068E-2,-3.728422802E-3,1.731053460E-3
1.873099548E1,-1.344895363E-2,-1.225053146E-2,4.926844500E-3
1.875118892E1,-1.731053460E-3,6.391582079E-3,4.926844500E-3
1.877138256E1,9.454214945E-3,2.396843210E-2,7.590003312E-3
1.879157465E1,6.791055668E-3,1.810948178E-2,1.557948068E-2
1.881176142E1,6.791055668E-3,1.704421826E-2,1.131842658E-2
1.883194277E1,7.856319658E-3,1.970737800E-2,4.394212738E-3
1.885212454E1,7.856319658E-3,1.544632297E-2,3.328948980E-3
1.887230683E1,9.321057005E-4,1.384842768E-2,7.590003312E-3
1.889248986E1,-6.524739787E-3,1.171789970E-2,9.187898599E-3
1.891267371E1,-9.720530361E-3,1.012000442E-2,9.187898599E-3
1.893285850E1,-1.185105834E-2,6.391582079E-3,8.122635074E-3
1.895304423E1,-1.877527125E-2,1.225053146E-2,7.057371549E-3
1.897323090E1,-1.984053478E-2,2.396843210E-2,2.796316985E-3
1.899341850E1,-1.344895363E-2,2.343579940E-2,-9.321057005E-4
1.901360694E1,-1.731053460E-3,1.544632297E-2,-3.994738800E-4
1.903379610E1,6.791055668E-3,1.171789970E-2,3.328948980E-3
1.905398590E1,9.454214945E-3,8.522109129E-3,1.731053460E-3
1.907417621E1,2.530001104E-3,6.924213842E-3,-2.530001104E-3
1.909436683E1,-7.590003312E-3,2.663159184E-2,-1.371526904E-2
1.911455767E1,-1.331579551E-4,6.391581893E-2,-1.424790081E-2
1.913475933E1,1.584579609E-2,6.870950758E-2,1.131842658E-2
1.915493663E1,2.916159295E-2,3.036001325E-2,4.167843983E-2
1.917511423E1,2.809632942E-2,-5.326318089E-3,5.179844424E-2
1.919529256E1,1.797632314E-2,-1.171789970E-2,3.102580272E-2
1.921547194E1,4.127896391E-3,-1.012000442E-2,1.331579551E-4
1.923565256E1,-4.394212738E-3,4.261054564E-3,-1.797632314E-2
1.925583465E1,-1.731053460E-3,1.012000442E-2,-2.330264263E-2
1.927601829E1,6.791055668E-3,5.326318089E-3,-1.904158667E-2
1.929620361E1,4.660528619E-3,2.130527236E-2,-1.318263728E-2
1.931639058E1,-4.926844500E-3,3.781685978E-2,-6.258423906E-3
1.933657913E1,-1.078579482E-2,2.982738242E-2,-1.464737463E-3
1.935676913E1,-1.451421715E-2,2.343579940E-2,-7.856319658E-3
1.937696038E1,-1.877527125E-2,3.036001325E-2,-1.744369231E-2
1.939715267E1,-2.303632535E-2,2.929474972E-2,-2.277000993E-2
1.941734569E1,-1.771000773E-2,3.142527863E-2,-2.063948289E-2
1.943753913E1,-1.078579482E-2,3.408843651E-2,-1.371526904E-2
1.945773277E1,-1.717737690E-2,1.757685095E-2,-5.193160381E-3
1.947792506E1,-2.197106183E-2,7.989477366E-3,-1.105211023E-2
1.949811194E1,-2.037316747E-2,1.970737800E-2,-2.383527346E-2
1.951829871E1,-1.611211337E-2,2.556632832E-2,-1.904158667E-2
1.953848006E1,-1.504684892E-2,1.651158556E-2,-3.994738800E-4
1.955866183E1,-1.344895363E-2,9.054740891E-3,1.131842658E-2
1.957884413E1,-5.992108025E-3,1.331579592E-2,1.398158539E-2
1.959902715E1,7.856319658E-3,2.343579940E-2,1.557948068E-2
1.961921100E1,1.904158667E-2,1.331579592E-2,2.197106183E-2
1.963939579E1,2.436790615E-2,-3.195791040E-3,2.090579830E-2
1.965958152E1,2.277000993E-2,-5.858949851E-3,1.291632187E-2
1.967976819E1,2.170474641E-2,-5.326318205E-4,1.198421582E-3
1.969995579E1,1.424790081E-2,5.326318089E-3,1.731053460E-3
1.972014423E1,5.193160381E-3,6.391582079E-3,1.198421582E-3
1.974033340E1,8.388951421E-3,1.597895520E-3,-2.530001104E-3
1.976052319E1,1.371526904E-2,-1.065263618E-2,-5.725792143E-3
1.978071350E1,9.454214945E-3,-6.391582079E-3,-1.318263728E-2
1.980090413E1,-1.331579551E-4,-9.054740891E-3,-1.691105962E-2
1.982109496E1,-1.344895363E-2,-1.278316416E-2,-2.223737910E-2
1.984129663E1,-2.143843099E-2,-5.326318205E-4,-2.223737910E-2
1.986147381E1,-2.356895804E-2,3.195791040E-3,-2.010685205E-2
1.988165131E1,-1.717737690E-2,-6.924213842E-3,-2.330264263E-2
1.990182954E1,-1.078579482E-2,-1.278316416E-2,-2.862896025E-2
1.992200881E1,-1.025316212E-2,-4.793686327E-3,-2.223737910E-2
1.994218933E1,-3.328948980E-3,8.522109129E-3,-3.595264861E-3
1.996237131E1,6.258423906E-3,7.989477366E-3,1.930790395E-2
1.998255486E1,1.211737376E-2,2.130527282E-3,3.049317189E-2
2.000274006E1,1.637842879E-2,1.171789970E-2,2.676474862E-2
2.002292694E1,2.170474641E-2,1.171789970E-2,1.717737690E-2
2.004311538E1,1.904158667E-2,-2.130527282E-3,1.025316212E-2
2.006330527E1,7.856319658E-3,-1.384842768E-2,9.720530361E-3
2.008349642E1,8.388951421E-3,3.728422802E-3,9.187898599E-3
2.010368861E1,1.051947847E-2,1.597895473E-2,1.504684892E-2
2.012388163E1,1.531316526E-2,1.544632297E-2,2.090579830E-2
2.014407517E1,9.454214945E-3,1.704421826E-2,1.930790395E-2
2.016426892E1,-5.459476262E-3,-5.858949851E-3,1.557948068E-2
2.018446215E1,-1.398158539E-2,-3.142527863E-2,2.796316985E-3
2.020464892E1,-2.250369452E-2,-2.130527236E-2,-1.797632314E-2
2.022483027E1,-2.463422157E-2,-9.587372653E-3,-3.289001435E-2
2.024501204E1,-1.664474420E-2,-1.065263618E-2,-2.862896025E-2
2.026519433E1,-1.344895363E-2,-1.171789970E-2,-1.797632314E-2
2.028537736E1,-8.655266836E-3,-6.391582079E-3,-1.265000552E-2
2.030556121E1,-3.328948980E-3,-9.587372653E-3,-8.388951421E-3
2.032574600E1,-6.524739787E-3,-1.864211448E-2,-8.921583183E-3
2.034593173E1,-6.524739787E-3,-2.396843210E-2,-1.105211023E-2
2.036611840E1,9.321057005E-4,-1.704421826E-2,-1.464737463E-3
2.038630600E1,7.856319658E-3,-1.651158556E-2,1.025316212E-2
2.040649444E1,1.211737376E-2,-2.609895915E-2,1.611211337E-2
2.042668360E1,2.543316968E-2,-2.822948620E-2,1.557948068E-2
2.044687340E1,3.608580679E-2,-1.438105945E-2,2.197106183E-2
2.046706371E1,3.661843762E-2,-1.171789970E-2,2.729738131E-2
2.048725433E1,3.555317223E-2,-1.491369121E-2,2.037316747E-2
2.050744517E1,3.342264518E-2,-1.544632297E-2,1.025316212E-2
2.052764683E1,2.862896025E-2,-9.054740891E-3,6.524739787E-3
2.054782402E1,2.809632942E-2,-1.544632297E-2,7.057371549E-3
2.056800152E1,3.715106845E-2,-3.249054030E-2,8.655266836E-3
2.058817975E1,5.046686530E-2,-5.113265663E-2,2.796316985E-3
2.060835902E1,5.472791940E-2,-8.415582776E-2,-6.258423906E-3
2.062853954E1,5.419528857E-2,-8.255793154E-2,-1.371526904E-2
2.064872152E1,5.419528857E-2,-6.178529188E-2,-1.424790081E-2
2.066890506E1,6.111950055E-2,-5.645897239E-2,-1.424790081E-2
2.068909027E1,6.378266215E-2,-7.243792713E-2,-1.584579609E-2
2.070927715E1,6.697845459E-2,-1.123853177E-1,-1.957421936E-2
2.072946558E1,7.390266657E-2,-1.560611278E-1,-1.957421936E-2
2.074965548E1,9.307741374E-2,-1.677790284E-1,-2.969422378E-2
2.076984663E1,1.234374270E-1,-1.555284858E-1,-2.436790615E-2
2.079003881E1,8.615319431E-2,-1.315600574E-1,-4.034686089E-2
2.081023183E1,7.070687413E-2,-1.272990108E-1,-6.591318548E-2
2.083042538E1,5.685844645E-2,-1.725727171E-1,-7.550056279E-2
2.085061913E1,3.874896467E-2,-2.077264041E-1,-7.763108611E-2
2.087081225E1,3.289001435E-2,-2.322274745E-1,-8.135951310E-2
2.089099892E1,4.567318037E-2,-2.082590461E-1,-6.964161247E-2
2.091118017E1,6.964161247E-2,-1.986716688E-1,-5.259739235E-2
2.093136183E1,1.101216301E-1,-2.130527347E-1,-5.099949613E-2
2.095154413E1,1.218395308E-1,-2.226400971E-1,-4.620581120E-2
2.097172715E1,1.026647836E-1,-2.157158852E-1,-5.419528857E-2
2.099191100E1,1.079910994E-1,-2.279664129E-1,-6.325002760E-2
2.101209579E1,1.021321490E-1,-3.004043400E-1,-4.034686089E-2
2.103228152E1,4.301001877E-2,-3.755054474E-1,5.459476262E-3
2.105246819E1,-1.664474420E-2,-4.197138846E-1,1.717737690E-2
2.107265579E1,-2.090579830E-2,-3.898864985E-1,-2.010685205E-2
2.109284423E1,1.637842879E-2,-3.440801501E-1,-6.538055837E-2
2.111303340E1,5.632581562E-2,-3.163833022E-1,-1.005342528E-1
2.113322319E1,7.337003201E-2,-2.727074921E-1,-1.165132076E-1
2.115341350E1,6.218476593E-2,-2.306295782E-1,-1.122521535E-1
2.117360413E1,4.727107286E-2,-2.103895694E-1,-9.946899116E-2
2.119379496E1,3.395527974E-2,-1.944106072E-1,-6.378266215E-2
2.121399663E1,6.791055668E-3,-2.034653574E-1,-1.158474199E-2
2.123417392E1,-3.155843541E-2,-2.263685167E-1,2.623211779E-2
2.125435152E1,-7.576687634E-2,-2.071937770E-1,6.458161026E-2
2.127452986E1,-1.034637317E-1,-1.667137593E-1,5.925529078E-2
2.129470913E1,-7.523424178E-2,-9.747162461E-2,1.557948068E-2
2.131488965E1,-2.410159074E-2,1.544632297E-2,-4.660528619E-3
2.133507163E1,-2.090579830E-2,1.118526831E-1,9.187898599E-3
2.135525517E1,-5.552686751E-2,1.720400751E-1,1.877527125E-2
2.137544038E1,-9.920267761E-2,2.189116776E-1,3.528685868E-2
2.139562725E1,-1.253016293E-1,2.247706354E-1,7.470161468E-2
2.141581569E1,-1.391500682E-1,1.917474568E-1,1.141163707E-1
2.143600558E1,-1.450090110E-1,1.667137593E-1,1.412805915E-1
2.145619673E1,-1.631184965E-1,1.581916511E-1,1.620532274E-1
2.147638892E1,-1.961416751E-1,1.581916511E-1,1.652490199E-1
2.149658183E1,-1.966743022E-1,1.576590240E-1,1.359542757E-1
2.151677527E1,-1.519332230E-1,2.002695650E-1,1.178447902E-1
2.153696892E1,-1.050616279E-1,2.641853690E-1,1.295626909E-1
2.155716204E1,-9.494162351E-2,2.775011659E-1,1.615206003E-1
2.157734881E1,-1.071921512E-1,2.535327375E-1,1.924132407E-1
2.159753017E1,-1.268995255E-1,2.173137814E-1,2.099900991E-1
2.161771194E1,-1.556616426E-1,1.640505940E-1,2.073269337E-1
2.163789423E1,-1.774995476E-1,1.448758543E-1,1.924132407E-1
2.165807725E1,-1.902827173E-1,1.757684946E-1,1.913479865E-1
2.167826110E1,-2.211753577E-1,2.135853618E-1,2.078595608E-1
2.169844590E1,-2.280995846E-1,2.993390858E-1,1.892174482E-1
2.171863163E1,-2.259690464E-1,4.277033508E-1,1.487374306E-1
2.173881829E1,-2.094574571E-1,4.793686271E-1,1.018658355E-1
2.175900590E1,-2.014679909E-1,3.994738758E-1,7.949529588E-2
2.177919433E1,-2.147837877E-1,2.641853690E-1,3.475422785E-2
2.179938350E1,-1.599227041E-1,2.391516864E-1,-7.070687413E-2
2.181957329E1,-7.629951090E-2,3.893538713E-1,-7.337003201E-2
2.183976360E1,-1.103879437E-1,5.480781198E-1,2.942790836E-2
2.185995423E1,-2.467416972E-1,5.901560783E-1,9.440898895E-2
2.188014506E1,-3.777691126E-1,5.459476113E-1,1.045289934E-1
2.190034673E1,-4.656533599E-1,5.454149842E-1,1.173121557E-1
2.192052360E1,-5.061333776E-1,5.858950019E-1,1.055942550E-1
2.194070079E1,-5.316997170E-1,6.167876720E-1,7.363634557E-2
2.196087871E1,-5.295692086E-1,6.737792492E-1,2.783001214E-2
2.198105767E1,-4.805670679E-1,7.366297841E-1,-1.265000552E-2
2.200123798E1,-4.422175586E-1,6.732466221E-1,2.263685223E-3
2.202141986E1,-4.246407151E-1,4.165180922E-1,5.499423668E-2
2.204160340E1,-3.777691126E-1,1.001347825E-1,6.777740270E-2
2.206178860E1,-3.058638275E-1,-9.054741263E-2,2.836264484E-2
2.208197548E1,-2.217079997E-1,-1.416800618E-1,2.516685426E-2
2.210216402E1,-1.577921808E-1,-9.161267430E-2,6.032055244E-2
2.212235402E1,-1.268995255E-1,-9.587372653E-3,5.499423668E-2
2.214254538E1,-1.173121557E-1,1.454084814E-1,2.996053919E-2
2.216273777E1,-1.050616279E-1,2.370211631E-1,2.250369452E-2
2.218293100E1,-1.157142594E-1,2.615222335E-1,3.049317189E-2
2.220312475E1,-1.636511236E-1,2.918822467E-1,5.446160212E-2
2.222331871E1,-1.727058738E-1,2.370211631E-1,8.961530030E-2
2.224351163E1,-1.519332230E-1,8.735162020E-2,1.215732098E-1
2.226369840E1,-1.897500902E-1,-8.735162020E-2,1.130511016E-1
2.228387975E1,-2.163816839E-1,-1.592569202E-1,9.547425061E-2
2.230406152E1,-1.423458606E-1,-5.645897239E-2,6.564687192E-2
2.232424381E1,-1.125184745E-1,3.462106735E-2,3.795001656E-2
2.234442683E1,-1.423458606E-1,8.841688186E-2,3.209106624E-2
2.236461069E1,-1.796300858E-1,1.805621833E-1,4.913528636E-2
2.238479548E1,-2.009353489E-1,3.094590902E-1,9.014793485E-2
2.240498121E1,-2.366216928E-1,3.717769980E-1,1.258342713E-1
2.242516788E1,-2.494048476E-1,3.510043621E-1,9.973530471E-2
2.244535548E1,-1.982721984E-1,2.972085476E-1,6.138581783E-2
2.246554392E1,-1.242363751E-1,2.540653646E-1,8.655266836E-3
2.248573308E1,-4.167843983E-2,2.535327375E-1,-4.034686089E-2
2.250592288E1,4.087949172E-2,2.498043180E-1,-6.271740049E-2
2.252611319E1,1.010668874E-1,2.274337858E-1,-7.017423958E-2
2.254630381E1,1.229047924E-1,1.912148297E-1,-6.644582003E-2
2.256649465E1,1.287637353E-1,1.613874435E-1,-5.206476152E-2
2.258669631E1,1.447426975E-1,1.619200706E-1,-3.448791057E-2
2.260687308E1,1.729721874E-1,1.965411454E-1,3.861580743E-3
2.262705017E1,1.894837767E-1,1.869537681E-1,6.831002980E-2
2.264722798E1,2.043974549E-1,1.406148076E-1,1.258342713E-1
2.266740683E1,2.123869359E-1,1.267663687E-1,1.583248079E-1
2.268758704E1,1.735048145E-1,1.608548164E-1,1.455416381E-1
2.270776881E1,1.015995219E-1,1.842906028E-1,1.087900475E-1
2.272795225E1,6.591318548E-2,2.071937770E-1,8.056056499E-2
2.274813746E1,6.697845459E-2,2.194443047E-1,6.351634115E-2
2.276832444E1,6.804371625E-2,1.917474568E-1,5.499423668E-2
2.278851308E1,6.325002760E-2,1.757684946E-1,5.659212917E-2
2.280870319E1,6.271740049E-2,2.141179889E-1,6.404897571E-2
2.282889465E1,4.301001877E-2,2.881538272E-1,6.564687192E-2
2.284908715E1,3.502054140E-2,3.099917173E-1,4.327633604E-2
2.286928048E1,7.496792823E-2,9.800425172E-2,4.008054361E-2
2.288947433E1,1.239700541E-1,-1.107874215E-1,4.434159771E-2
2.290966840E1,1.287637353E-1,-6.391582079E-3,1.451421715E-2
2.292986110E1,1.735048145E-1,1.368863732E-1,1.291632187E-2
2.295004777E1,2.576606572E-1,1.427453309E-1,5.659212917E-2
2.297022902E1,2.960101366E-1,1.107874215E-1,1.050616279E-1
2.299041069E1,2.779006660E-1,9.321057051E-2,1.205079481E-1
2.301059298E1,2.544648647E-1,7.723161578E-2,8.002793044E-2
2.303077600E1,2.619217038E-1,1.187768951E-1,2.263685223E-3
2.305095986E1,3.055975139E-1,1.709748209E-1,-6.431528926E-2
2.307114465E1,3.375554085E-1,1.683116555E-1,-9.201214463E-2
2.309133038E1,3.077280223E-1,7.776424289E-2,-7.177213579E-2
2.311151704E1,2.262353599E-1,-1.757685095E-2,-1.691105962E-2
2.313170465E1,1.452753246E-1,-3.036001325E-2,-1.318263728E-2
2.315189308E1,9.680583328E-2,-2.609895915E-2,-6.538055837E-2
2.317208225E1,8.562056720E-2,-7.989477366E-3,-1.191763729E-1
2.319227204E1,9.147951752E-2,-1.012000442E-2,-1.628521830E-1
2.321246236E1,1.415469050E-1,3.728422802E-3,-1.862879843E-1
2.323265298E1,1.889511347E-1,4.793686420E-2,-1.676458716E-1
2.325284381E1,1.740374416E-1,7.669898123E-2,-1.298290044E-1
2.327304548E1,1.149153188E-1,4.420844093E-2,-1.143826842E-1
2.329322246E1,7.177213579E-2,-1.597895520E-3,-1.053279415E-1
2.331339975E1,3.768370301E-2,-2.183790505E-2,-1.000016257E-1
2.333357777E1,2.862896025E-2,5.858949851E-3,-9.467530251E-2
2.335375683E1,3.768370301E-2,2.769685537E-2,-5.845634267E-2
2.337393715E1,4.833633825E-2,1.704421826E-2,-3.555317223E-2
2.339411892E1,5.259739235E-2,-1.065263641E-3,-3.182475269E-2
2.341430236E1,3.129211813E-2,-3.195790946E-2,-4.354264960E-2
2.343448746E1,2.809632942E-2,-3.036001325E-2,-6.378266215E-2
2.345467423E1,5.526055023E-2,-4.261054564E-3,-5.526055023E-2
2.347486267E1,1.005342528E-1,-2.130527282E-3,-3.342264518E-2
2.349505256E1,1.314269006E-1,-2.822948620E-2,-1.531316526E-2
2.351524381E1,1.442100704E-1,-3.355580568E-2,5.992108025E-3
2.353543611E1,1.378184855E-1,-2.556632832E-2,2.729738131E-2
2.355562923E1,1.197090000E-1,-4.314317927E-2,3.049317189E-2
2.357582288E1,1.090563685E-1,-4.687159881E-2,1.078579482E-2
2.359601673E1,1.021321490E-1,-9.054740891E-3,-7.856319658E-3
2.361621038E1,9.361004084E-2,1.225053146E-2,-1.265000552E-2
2.363639704E1,7.656582445E-2,-1.597895520E-3,-8.921583183E-3
2.365657829E1,5.153212696E-2,-1.651158556E-2,-7.323687430E-3
2.367675996E1,3.928159550E-2,-6.391582079E-3,-1.158474199E-2
2.369694225E1,3.448791057E-2,1.065263641E-3,-1.531316526E-2
2.371712527E1,3.289001435E-2,-9.054740891E-3,-1.371526904E-2
2.373730913E1,3.342264518E-2,-1.278316416E-2,-8.921583183E-3
2.375749392E1,2.809632942E-2,1.597895520E-3,-3.595264861E-3
2.377767965E1,1.850895584E-2,1.331579592E-2,-4.127896391E-3
2.379786631E1,2.063948289E-2,1.597895473E-2,-1.158474199E-2
2.381805392E1,2.756369673E-2,-6.924213842E-3,-1.584579609E-2
2.383824236E1,3.129211813E-2,-2.822948620E-2,-2.223737910E-2
2.385843152E1,1.105211023E-2,-1.544632297E-2,-3.821633384E-2
2.387862131E1,-3.328948980E-3,2.609895915E-2,-4.301001877E-2
2.389881163E1,4.127896391E-3,3.621896356E-2,-2.649843320E-2
2.391900225E1,1.318263728E-2,-7.989477366E-3,-9.986846708E-3
2.393919308E1,1.371526904E-2,-4.101264849E-2,-6.791055668E-3
2.395939475E1,1.211737376E-2,-1.917474531E-2,-8.921583183E-3
2.397957163E1,9.321057005E-4,-1.171789970E-2,-1.318263728E-2
2.399974881E1,-4.394212738E-3,-1.864211448E-2,-1.797632314E-2
2.401992673E1,3.595264861E-3,9.054740891E-3,-2.383527346E-2
2.404010569E1,3.595264861E-3,3.089264594E-2,-3.235738352E-2
2.406028600E1,-7.590003312E-3,1.864211448E-2,-3.289001435E-2
2.408046788E1,-9.187898599E-3,2.982738242E-2,-2.596580051E-2
2.410065142E1,4.660528619E-3,5.805686861E-2,-1.531316526E-2
2.412083663E1,1.158474199E-2,4.793686420E-2,1.291632187E-2
2.414102350E1,6.791055668E-3,1.651158556E-2,4.061317816E-2
2.416121204E1,-1.078579482E-2,1.491369121E-2,5.126581341E-2
2.418140204E1,-3.741738573E-2,1.225053146E-2,4.327633604E-2
2.420159329E1,-3.635212034E-2,4.261054564E-3,2.037316747E-2
2.422178558E1,-2.356895804E-2,3.355580568E-2,1.451421715E-2
2.424197871E1,-2.676474862E-2,6.338318437E-2,3.328948980E-3
2.426217236E1,-2.037316747E-2,7.030740380E-2,-4.660528619E-3
2.428236621E1,-8.122635074E-3,6.072002649E-2,4.926844500E-3
2.430255954E1,-1.557948068E-2,4.900212586E-2,9.720530361E-3
2.432274621E1,-1.664474420E-2,4.367581010E-2,8.122635074E-3
2.434292746E1,-3.328948980E-3,4.687159881E-2,1.344895363E-2
2.436310913E1,6.258423906E-3,5.273054913E-2,1.557948068E-2
2.438329142E1,1.211737376E-2,5.645897239E-2,1.930790395E-2
2.440347444E1,9.454214945E-3,3.408843651E-2,1.930790395E-2
2.442365829E1,-5.459476262E-3,2.769685537E-2,5.459476262E-3
2.444384308E1,-1.291632187E-2,4.207791388E-2,-8.921583183E-3
2.446402881E1,-1.930790395E-2,4.793686420E-2,-1.211737376E-2
2.448421548E1,-1.398158539E-2,4.687159881E-2,-7.323687430E-3
2.450440308E1,8.921583183E-3,3.515370190E-2,9.720530361E-3
2.452459152E1,2.383527346E-2,3.142527863E-2,2.143843099E-2
2.454478069E1,1.904158667E-2,4.633896798E-2,1.451421715E-2
2.456497048E1,7.856319658E-3,5.486107618E-2,-1.265000552E-2
2.458516079E1,2.530001104E-3,7.030740380E-2,-4.886896908E-2
2.460535142E1,-1.557948068E-2,4.261054471E-2,-6.697845459E-2
2.462554225E1,-6.524739787E-3,1.544632297E-2,-7.443529367E-2
2.464574392E1,-1.331579551E-4,7.403582335E-2,-5.739107728E-2
2.466592079E1,-1.824264042E-2,1.001347825E-1,-3.075948730E-2
2.468609798E1,-2.836264484E-2,6.444845349E-2,-1.904158667E-2
2.470627590E1,-2.463422157E-2,9.374319762E-2,-1.424790081E-2
2.472645486E1,-3.795001656E-2,1.155811027E-1,-4.127896391E-3
2.474663517E1,-6.191844866E-2,7.403582335E-2,-1.051947847E-2
2.476681694E1,-8.695214242E-2,5.699160323E-2,-2.969422378E-2
2.478700038E1,-9.387636185E-2,9.534109384E-2,-3.661843762E-2
2.480718548E1,-7.363634557E-2,6.391581893E-2,-1.424790081E-2
2.482737225E1,-3.102580272E-2,-2.716422267E-2,2.569948509E-2
2.484756069E1,3.235738352E-2,-5.752423778E-2,5.286370963E-2
2.486775069E1,9.041424841E-2,-6.604634225E-2,6.085318699E-2
2.488794204E1,1.165132076E-1,-1.059937328E-1,5.126581341E-2
2.490813444E1,1.101216301E-1,-1.241032109E-1,3.475422785E-2
2.492832767E1,7.337003201E-2,-9.960214794E-2,1.185105834E-2
2.494852142E1,2.383527346E-2,-7.989477366E-2,-2.436790615E-2
2.496871538E1,-1.731053460E-3,-7.989477366E-2,-5.366265774E-2
2.498890861E1,-5.459476262E-3,-6.764423847E-2,-6.111950055E-2
2.500909527E1,-9.720530361E-3,-4.687159881E-2,-5.099949613E-2
2.502927652E1,-8.122635074E-3,-4.527370632E-2,-3.075948730E-2
2.504945819E1,3.994738800E-4,-3.781685978E-2,-1.158474199E-2
2.506964048E1,-5.992108025E-3,-1.651158556E-2,1.331579551E-4
2.508982350E1,-2.303632535E-2,-2.130527236E-2,-3.994738800E-4
2.511000736E1,-2.569948509E-2,-2.609895915E-2,-5.193160381E-3
2.513019215E1,-1.717737690E-2,-7.456845604E-3,-1.265000552E-2
2.515037788E1,-1.344895363E-2,-7.456845604E-3,-1.531316526E-2
2.517056454E1,-1.664474420E-2,-3.781685978E-2,-2.223737910E-2
2.519075215E1,-1.771000773E-2,-3.728422895E-2,-3.555317223E-2
2.521094058E1,-9.720530361E-3,-1.225053146E-2,-3.129211813E-2
2.523112975E1,2.530001104E-3,-6.391582079E-3,-1.691105962E-2
2.525131954E1,-3.861580743E-3,-2.609895915E-2,-5.193160381E-3
2.527150986E1,-1.930790395E-2,-1.970737800E-2,1.331579551E-4
2.529170048E1,-2.676474862E-2,3.568633273E-2,5.992108025E-3
2.531189131E1,-2.569948509E-2,7.669898123E-2,1.664474420E-2
2.533209298E1,-5.992108025E-3,8.362319320E-2,4.593949392E-2
2.535226986E1,1.850895584E-2,5.432844535E-2,6.777740270E-2
2.537244704E1,2.969422378E-2,1.384842768E-2,6.564687192E-2
2.539262496E1,3.289001435E-2,9.587372653E-3,4.008054361E-2
2.541280392E1,4.247738793E-2,5.965476483E-2,1.557948068E-2
2.543298423E1,4.407528415E-2,7.776424289E-2,1.930790395E-2
2.545316600E1,3.395527974E-2,5.326318368E-2,3.901528195E-2
2.547334944E1,1.691105962E-2,4.420844093E-2,3.901528195E-2
2.549353454E1,-9.187898599E-3,4.846949503E-2,5.992108025E-3
2.551372131E1,-3.795001656E-2,6.817687303E-2,-2.596580051E-2
2.553390975E1,-4.913528636E-2,8.681898564E-2,-1.850895584E-2
2.555409965E1,-4.327633604E-2,4.740423337E-2,6.524739787E-3
2.557429090E1,-2.996053919E-2,2.769685537E-2,1.344895363E-2
2.559448319E1,-2.729738131E-2,5.060002208E-2,7.590003312E-3
2.561467631E1,-2.623211779E-2,4.367581010E-2,1.198421582E-3
2.563486996E1,-2.410159074E-2,2.450106293E-2,-5.193160381E-3
2.565506381E1,-2.516685426E-2,2.450106293E-2,-1.318263728E-2
2.567525756E1,-1.877527125E-2,4.527370632E-2,-1.371526904E-2
2.569544423E1,1.997369342E-3,7.137266546E-2,1.198421582E-3
2.571562548E1,1.371526904E-2,6.444845349E-2,2.889527567E-2
2.573580715E1,2.383527346E-2,3.462106735E-2,4.593949392E-2
2.575598944E1,2.756369673E-2,1.597895473E-2,4.008054361E-2
2.577617246E1,1.478053257E-2,1.278316416E-2,1.398158539E-2
2.579635631E1,-1.185105834E-2,5.326318089E-3,-1.424790081E-2
2.581654111E1,-2.197106183E-2,1.544632297E-2,-2.330264263E-2
2.583672683E1,-1.731053460E-3,4.314317927E-2,-3.062632866E-3
2.585691350E1,3.022685647E-2,3.515370190E-2,2.942790836E-2
2.587710110E1,3.289001435E-2,-1.491369121E-2,4.114580899E-2
2.589728954E1,1.318263728E-2,-2.556632832E-2,1.504684892E-2
2.591747871E1,4.660528619E-3,1.438105945E-2,-2.010685205E-2
2.593766850E1,-2.796316985E-3,3.089264594E-2,-4.354264960E-2
2.595785881E1,-2.090579830E-2,1.225053146E-2,-4.460791498E-2
2.597804944E1,-4.380896688E-2,3.195791040E-3,-4.407528415E-2
2.599824017E1,-6.937529147E-2,1.384842768E-2,-5.153212696E-2
2.601844173E1,-8.641951531E-2,2.556632832E-2,-6.271740049E-2
2.603861860E1,-9.547425061E-2,3.941475600E-2,-6.378266215E-2
2.605879579E1,-9.653951973E-2,5.699160323E-2,-4.460791498E-2
2.607897371E1,-7.097318769E-2,4.687159881E-2,-1.997369342E-3
2.609915267E1,-1.078579482E-2,-1.065263641E-3,5.179844424E-2
2.611933298E1,5.259739235E-2,-7.776424289E-2,7.789740711E-2
2.613951475E1,9.680583328E-2,-1.171789989E-1,5.126581341E-2
2.615969819E1,1.106542572E-1,-9.800425172E-2,9.720530361E-3
2.617988329E1,8.934898674E-2,-9.693899006E-2,-7.856319658E-3
2.620007006E1,6.111950055E-2,-1.113200486E-1,-1.105211023E-2
2.622025850E1,4.620581120E-2,-8.948214352E-2,-3.994738800E-4
2.624044840E1,4.141212255E-2,-3.675159439E-2,5.459476262E-3
2.626063965E1,3.129211813E-2,4.154528305E-2,1.025316212E-2
2.628083194E1,1.424790081E-2,1.257011145E-1,2.889527567E-2
2.630102506E1,-7.057371549E-3,1.581916511E-1,5.978792161E-2
2.632121871E1,-2.623211779E-2,1.182442605E-1,8.855003864E-2
2.634141256E1,-4.860265180E-2,5.752423778E-2,7.150582224E-2
2.636160631E1,-5.179844424E-2,3.515370190E-2,1.451421715E-2
2.638179298E1,-3.635212034E-2,4.261054471E-2,-3.182475269E-2
2.640197423E1,-1.451421715E-2,1.917474531E-2,-4.034686089E-2
2.642215590E1,6.791055668E-3,-1.491369121E-2,-2.117211558E-2
2.644233819E1,1.584579609E-2,-1.704421826E-2,7.590003312E-3
2.646252121E1,1.211737376E-2,-1.384842768E-2,3.368896246E-2
2.648270506E1,8.388951421E-3,-3.249054030E-2,3.368896246E-2
2.650288986E1,1.105211023E-2,-5.379581451E-2,1.238369010E-2
2.652307558E1,9.986846708E-3,-5.219791830E-2,-2.969422378E-2
2.654326225E1,2.530001104E-3,-1.597895520E-3,-7.070687413E-2
2.656344986E1,-1.611211337E-2,6.018739566E-2,-8.082687855E-2
2.658363829E1,-3.262370080E-2,8.788424730E-2,-4.833633825E-2
2.660382746E1,-4.807002097E-2,8.522108942E-2,-5.725792143E-3
2.662401725E1,-6.245107949E-2,7.882951200E-2,6.657897611E-4
2.664420756E1,-6.511423737E-2,9.108003974E-2,-6.258423906E-3
2.666439819E1,-6.085318699E-2,1.187768951E-1,-1.051947847E-2
2.668442225E1,-4.753739014E-2,1.459411234E-1,6.657897611E-4
2.670445965E1,-3.581948951E-2,1.432779580E-1,3.262370080E-2
2.672451579E1,-2.836264484E-2,1.139832065E-1,4.008054361E-2
2.674459517E1,-1.185105834E-2,9.108003974E-2,3.209106624E-2
2.676470116E1,-2.796316985E-3,6.924213469E-2,3.795001656E-2
2.678483595E1,-5.126581341E-2,-7.882951200E-2,5.446160212E-2
2.680500043E1,-7.470161468E-2,-2.567285299E-1,5.978792161E-2
2.682519428E1,-6.990792602E-2,-3.717769980E-1,4.114580899E-2
2.684541605E1,5.725792143E-3,-2.274337858E-1,7.590003312E-3
2.686566324E1,9.467530251E-2,1.896169335E-1,-2.756369673E-2
2.688593241E1,9.680583328E-2,3.302317262E-1,-3.235738352E-2
2.690621933E1,6.910897791E-2,1.906821877E-1,-7.323687430E-3
2.692651933E1,3.661843762E-2,3.621896356E-2,5.992108025E-3
2.694682736E1,3.289001435E-2,-9.054740891E-3,-5.193160381E-3
2.696713824E1,4.727107286E-2,-2.450106293E-2,-2.543316968E-2
2.698739095E1,5.898897350E-2,-5.699160323E-2,-3.129211813E-2
2.700758152E1,5.259739235E-2,-7.243792713E-2,-3.395527974E-2
2.702776824E1,1.371526904E-2,-5.699160323E-2,-4.087949172E-2
2.704796032E1,-1.238369010E-2,-2.609895915E-2,-4.194475710E-2
2.706814704E1,-1.824264042E-2,-1.438105945E-2,-1.211737376E-2
2.708832319E1,-2.783001214E-2,-5.166528746E-2,4.926844500E-3
2.710849991E1,-3.475422785E-2,-9.054741263E-2,-2.223737910E-2
2.712867756E1,-1.238369010E-2,-7.563371956E-2,-6.271740049E-2
2.714885652E1,1.691105962E-2,-5.006739125E-2,-8.135951310E-2
2.716903704E1,3.182475269E-2,-6.657897681E-2,-5.472791940E-2
2.718921928E1,4.354264960E-2,-1.059937328E-1,-2.063948289E-2
2.720940334E1,4.727107286E-2,-1.102547869E-1,3.328948980E-3
2.722958928E1,4.141212255E-2,-9.747162461E-2,1.238369010E-2
2.724977704E1,3.289001435E-2,-8.362319320E-2,-4.660528619E-3
2.726996652E1,3.661843762E-2,-4.207791388E-2,-2.170474641E-2
2.729015756E1,4.727107286E-2,-6.924213842E-3,-1.584579609E-2
2.731034991E1,5.153212696E-2,-6.391582079E-3,1.185105834E-2
2.733054324E1,3.981423005E-2,-4.527370632E-2,2.356895804E-2
2.735073725E1,2.596580051E-2,-6.711161137E-2,7.057371549E-3
2.737093163E1,1.105211023E-2,-6.285055727E-2,1.731053460E-3
2.739112574E1,-4.926844500E-3,-6.870950758E-2,4.394212738E-3
2.741131600E1,-1.238369010E-2,-6.018739566E-2,-4.660528619E-3
2.743150272E1,-8.122635074E-3,-4.101264849E-2,-1.957421936E-2
2.745168668E1,-1.238369010E-2,-3.142527863E-2,-2.063948289E-2
2.747186814E1,-2.356895804E-2,-2.769685537E-2,-1.744369231E-2
2.749205012E1,-3.688475490E-2,-6.924213842E-3,-2.490053698E-2
2.751223277E1,-4.114580899E-2,2.876211889E-2,-3.874896467E-2
2.753241621E1,-2.676474862E-2,4.314317927E-2,-2.756369673E-2
2.755260053E1,-1.185105834E-2,3.195790946E-2,-1.997369342E-3
2.757278579E1,3.062632866E-3,4.314317927E-2,2.037316747E-2
2.759297199E1,9.986846708E-3,4.687159881E-2,3.795001656E-2
2.761315913E1,1.211737376E-2,3.408843651E-2,2.889527567E-2
2.763334715E1,1.318263728E-2,2.396843210E-2,1.291632187E-2
2.765353595E1,1.265000552E-2,9.587372653E-3,-8.388951421E-3
2.767372543E1,8.921583183E-3,1.118526794E-2,-2.010685205E-2
2.769391548E1,3.595264861E-3,6.924213842E-3,-1.691105962E-2
2.771410595E1,-1.731053460E-3,0.000000000E0,-6.791055668E-3
2.773429663E1,-1.557948068E-2,1.597895520E-3,1.198421582E-3
2.775449277E1,-2.516685426E-2,6.391582079E-3,-6.258423906E-3
2.777468194E1,-1.398158539E-2,1.864211448E-2,-1.637842879E-2
2.779485887E1,-1.131842658E-2,9.587372653E-3,-1.424790081E-2
2.781503631E1,-1.930790395E-2,-4.793686327E-3,-1.424790081E-2
2.783521465E1,-2.569948509E-2,2.663159044E-3,-1.531316526E-2
2.785539418E1,-2.090579830E-2,-1.438105945E-2,-1.744369231E-2
2.787557517E1,-8.655266836E-3,-2.396843210E-2,-2.383527346E-2
2.789575777E1,-7.590003312E-3,-1.065263618E-2,-2.436790615E-2
2.791594209E1,9.321057005E-4,9.587372653E-3,-2.010685205E-2
2.793612814E1,1.158474199E-2,1.065263618E-2,-1.464737463E-3
2.795631584E1,1.424790081E-2,-7.456845604E-3,1.717737690E-2
2.797650512E1,1.997369342E-3,-2.024000883E-2,1.504684892E-2
2.799669579E1,-1.398158539E-2,-1.651158556E-2,-7.856319658E-3
2.801688767E1,-1.877527125E-2,-6.924213842E-3,-2.649843320E-2
2.803708048E1,-2.410159074E-2,-2.130527282E-3,-2.862896025E-2
2.805727397E1,-2.197106183E-2,-1.012000442E-2,-2.490053698E-2
2.807746782E1,-1.291632187E-2,-1.012000442E-2,-9.454214945E-3
2.809766131E1,-1.877527125E-2,-1.651158556E-2,3.328948980E-3
2.811785121E1,-2.516685426E-2,-1.438105945E-2,1.731053460E-3
2.813803793E1,-1.930790395E-2,1.065263641E-3,-9.321057005E-4
2.815822189E1,-1.238369010E-2,5.858949851E-3,3.861580743E-3
2.817840334E1,-1.451421715E-2,-6.924213842E-3,3.861580743E-3
2.819858532E1,-1.717737690E-2,-1.438105945E-2,1.731053460E-3
2.821876798E1,-1.984053478E-2,4.261054564E-3,-9.321057005E-4
2.823895142E1,-1.664474420E-2,1.917474531E-2,-8.921583183E-3
2.825913574E1,-2.796316985E-3,5.858949851E-3,1.198421582E-3
2.827932100E1,6.791055668E-3,-1.810948178E-2,2.197106183E-2
2.829950720E1,6.791055668E-3,-2.024000883E-2,3.262370080E-2
2.831969433E1,1.464737463E-3,-1.651158556E-2,3.155843541E-2
2.833988236E1,5.725792143E-3,-3.302317113E-2,2.250369452E-2
2.836007116E1,1.637842879E-2,-2.396843210E-2,1.291632187E-2
2.838026064E1,1.211737376E-2,5.858949851E-3,2.796316985E-3
2.840045069E1,8.388951421E-3,2.077264152E-2,1.731053460E-3
2.842064116E1,2.330264263E-2,1.651158556E-2,2.037316747E-2
2.844083183E1,2.436790615E-2,-4.793686327E-3,3.155843541E-2
2.846102798E1,7.856319658E-3,-2.716422267E-2,1.717737690E-2
2.848121715E1,-1.731053460E-3,-2.769685537E-2,-8.388951421E-3
2.850139407E1,-1.131842658E-2,-4.261054564E-3,-2.330264263E-2
2.852157152E1,-1.557948068E-2,1.278316416E-2,-2.170474641E-2
2.854174986E1,-8.122635074E-3,-1.225053146E-2,-7.856319658E-3
2.856192939E1,-5.992108025E-3,-3.249054030E-2,-1.105211023E-2
2.858211038E1,-1.717737690E-2,-3.142527863E-2,-3.182475269E-2
2.860229298E1,-1.717737690E-2,-2.876211889E-2,-4.247738793E-2
2.862247730E1,1.997369342E-3,-1.118526794E-2,-3.874896467E-2
2.864266334E1,2.383527346E-2,-2.343579940E-2,-1.637842879E-2
2.866285105E1,5.313002318E-2,-2.503369562E-2,4.926844500E-3
2.868304032E1,5.845634267E-2,5.326318089E-3,8.122635074E-3
2.870323100E1,5.366265774E-2,9.587372653E-3,-6.258423906E-3
2.872342288E1,4.940159991E-2,-2.130527236E-2,-2.063948289E-2
2.874361569E1,4.247738793E-2,-5.219791830E-2,-3.342264518E-2
2.876380918E1,3.075948730E-2,-7.297056168E-2,-5.099949613E-2
2.878400303E1,1.957421936E-2,-7.030740380E-2,-6.591318548E-2
2.880419647E1,5.725792143E-3,-2.982738242E-2,-4.673844203E-2
2.882438631E1,-2.783001214E-2,-3.888212144E-2,-1.584579609E-2
2.884457038E1,-4.966791719E-2,-4.953476042E-2,-1.424790081E-2
2.886475194E1,-6.138581783E-2,-3.195791040E-3,-3.502054140E-2
2.888493397E1,-6.511423737E-2,1.022653133E-1,-3.821633384E-2
2.890511663E1,-6.671213359E-2,1.235705838E-1,-1.744369231E-2
2.892530006E1,-5.179844424E-2,6.391581893E-2,1.238369010E-2
2.894548439E1,-1.824264042E-2,-8.522109129E-3,3.422159329E-2
2.896566965E1,1.904158667E-2,-1.177116334E-1,4.380896688E-2
2.898585584E1,8.668582886E-2,-2.332927436E-1,4.700475931E-2
2.900604298E1,1.607216448E-1,-2.561959028E-1,3.422159329E-2
2.902623100E1,1.873532385E-1,-1.507348120E-1,1.664474420E-2
2.904641980E1,1.383511126E-1,-1.757685095E-2,8.655266836E-3
2.906660928E1,5.472791940E-2,5.113265663E-2,2.143843099E-2
2.908679933E1,-1.451421715E-2,4.474107176E-2,2.996053919E-2
2.910698980E1,-5.925529078E-2,1.597895520E-3,1.451421715E-2
2.912718048E1,-5.499423668E-2,-4.580633715E-2,-1.531316526E-2
2.914737663E1,-2.783001214E-2,-1.027979404E-1,-3.289001435E-2
2.916756564E1,-1.238369010E-2,-1.091895252E-1,-2.596580051E-2
2.918774225E1,3.062632866E-3,-8.575372398E-2,-8.388951421E-3
2.920791939E1,1.957421936E-2,-8.042740822E-2,8.655266836E-3
2.922809741E1,2.703106403E-2,-4.687159881E-2,1.717737690E-2
2.924827663E1,2.969422378E-2,1.597895520E-3,3.741738573E-2
2.926845730E1,2.063948289E-2,3.462106735E-2,5.392897129E-2
2.928863965E1,8.921583183E-3,7.403582335E-2,4.008054361E-2
2.930882376E1,-5.459476262E-3,1.107874215E-1,1.717737690E-2
2.932900965E1,-3.049317189E-2,1.065263674E-1,-1.371526904E-2
2.934919730E1,-4.913528636E-2,7.137266546E-2,-4.301001877E-2
2.936938663E1,-4.487423226E-2,3.515370190E-2,-5.259739235E-2
2.938957741E1,-2.676474862E-2,1.225053146E-2,-3.022685647E-2
2.940976944E1,-1.664474420E-2,1.704421826E-2,7.590003312E-3
2.942996246E1,-2.410159074E-2,3.994738683E-2,2.250369452E-2
2.945015616E1,-2.623211779E-2,5.166528746E-2,1.131842658E-2
2.947035022E1,-8.655266836E-3,5.912213027E-2,-1.464737463E-3
2.949054433E1,5.725792143E-3,6.444845349E-2,-1.478053257E-2
2.951073470E1,-8.655266836E-3,8.894951642E-2,-2.277000993E-2
2.953091866E1,-4.061317816E-2,1.006674170E-1,-1.531316526E-2
2.955110012E1,-5.765739456E-2,7.297056168E-2,-4.660528619E-3
2.957128209E1,-4.700475931E-2,4.261054471E-2,1.238369010E-2
2.959146475E1,-2.569948509E-2,1.118526794E-2,2.889527567E-2
2.961164819E1,-2.796316985E-3,-1.438105945E-2,3.422159329E-2
2.963183251E1,6.791055668E-3,-5.858949851E-3,3.049317189E-2
2.965201777E1,4.660528619E-3,2.024000883E-2,2.516685426E-2
2.967220397E1,-1.331579551E-4,3.355580568E-2,2.516685426E-2
2.969239111E1,4.127896391E-3,3.781685978E-2,2.996053919E-2
2.971257913E1,1.318263728E-2,4.793686420E-2,2.889527567E-2
2.973276793E1,1.797632314E-2,7.084003091E-2,2.250369452E-2
2.975295741E1,2.530001104E-3,7.723161578E-2,2.303632535E-2
2.977314746E1,-1.078579482E-2,6.444845349E-2,1.611211337E-2
2.979333793E1,-1.877527125E-2,5.060002208E-2,1.238369010E-2
2.981352861E1,-3.315633163E-2,4.527370632E-2,6.524739787E-3
2.983372475E1,-3.209106624E-2,4.101264849E-2,-9.321057005E-4
2.985391387E1,-1.984053478E-2,3.728422895E-2,-1.105211023E-2
2.987409069E1,-1.344895363E-2,3.515370190E-2,-1.957421936E-2
2.989426803E1,-1.504684892E-2,3.408843651E-2,-1.584579609E-2
2.991444626E1,-2.143843099E-2,9.587372653E-3,-1.531316526E-2
2.993462569E1,-2.356895804E-2,3.195791040E-3,-1.850895584E-2
2.995480657E1,-2.090579830E-2,2.024000883E-2,-1.531316526E-2
2.997498907E1,-1.291632187E-2,2.343579940E-2,-4.127896391E-3
2.999517228E1,-4.926844500E-3,1.491369121E-2,4.394212738E-3
3.001535827E1,1.997369342E-3,8.522109129E-3,1.451421715E-2
3.003554598E1,1.584579609E-2,1.384842768E-2,1.877527125E-2
3.005573530E1,1.850895584E-2,1.597895520E-3,1.717737690E-2
3.007592608E1,9.986846708E-3,-2.290316857E-2,1.238369010E-2
3.009611806E1,9.454214945E-3,-1.331579592E-2,9.187898599E-3
3.011631098E1,5.193160381E-3,-3.195791040E-3,1.238369010E-2
3.013650457E1,-3.861580743E-3,-1.970737800E-2,8.655266836E-3
3.015669853E1,-2.263685223E-3,-2.716422267E-2,-6.258423906E-3
3.017689212E1,9.321057005E-4,-2.024000883E-2,-1.797632314E-2
3.019708202E1,-6.524739787E-3,-1.917474531E-2,-2.117211558E-2
3.021726598E1,-9.187898599E-3,-2.929474972E-2,-1.424790081E-2
3.023744744E1,-1.185105834E-2,-4.367581010E-2,-3.994738800E-4
3.025762936E1,-1.664474420E-2,-4.154528305E-2,2.263685223E-3
3.027781192E1,-8.122635074E-3,-2.663159184E-2,5.992108025E-3
3.029799525E1,-7.057371549E-3,-4.633896798E-2,1.664474420E-2
3.031817947E1,-4.926844500E-3,-5.166528746E-2,3.368896246E-2
3.033836462E1,-4.394212738E-3,-5.326318368E-2,5.712476373E-2
3.035855077E1,2.530001104E-3,-7.403582335E-2,5.978792161E-2
3.037873790E1,8.388951421E-3,-8.096003532E-2,4.700475931E-2
3.039892593E1,1.464737463E-3,-7.137266546E-2,3.315633163E-2
3.041911473E1,-2.263685223E-3,-5.486107618E-2,1.398158539E-2
3.043930421E1,-1.331579551E-4,-3.728422895E-2,5.992108025E-3
3.045949426E1,2.530001104E-3,-1.757685095E-2,1.198421582E-3
3.047968473E1,7.323687430E-3,-9.587372653E-3,-9.321057005E-4
3.049987546E1,1.464737463E-3,-5.858949851E-3,4.926844500E-3
3.052007171E1,-2.197106183E-2,5.326318089E-3,1.664474420E-2
3.054026098E1,-5.712476373E-2,-1.597895520E-3,2.516685426E-2
3.056043801E1,-7.683213800E-2,-9.054740891E-3,1.398158539E-2
3.058061556E1,-9.068056941E-2,-2.290316857E-2,-9.454214945E-3
3.060079400E1,-1.114532053E-1,-3.941475600E-2,-2.277000993E-2
3.062097364E1,-1.402153224E-1,-4.101264849E-2,-3.448791057E-2
3.064115468E1,-1.561942846E-1,-2.716422267E-2,-5.579318479E-2
3.066133728E1,-1.561942846E-1,-1.597895473E-2,-6.218476593E-2
3.068152155E1,-2.020006180E-1,-4.953476042E-2,-4.833633825E-2
3.070170749E1,-2.328932583E-1,-3.142527863E-2,-4.940159991E-2
3.072189509E1,-1.945437789E-1,-5.326318205E-4,-4.460791498E-2
3.074208426E1,-1.759016514E-1,-2.609895915E-2,-1.584579609E-2
3.076227483E1,-1.588574350E-1,-6.977476925E-2,-5.193160381E-3
3.078246660E1,-7.416898012E-2,-8.042740822E-2,9.720530361E-3
3.080265931E1,1.637842879E-2,-7.084003091E-2,2.356895804E-2
3.082285270E1,7.177213579E-2,-7.030740380E-2,2.303632535E-2
3.084304645E1,8.828372508E-2,-4.101264849E-2,1.398158539E-2
3.086324009E1,7.550056279E-2,1.171789970E-2,3.155843541E-2
3.088343020E1,8.508793265E-2,5.912213027E-2,7.629951090E-2
3.090361692E1,1.255679578E-1,6.711161137E-2,8.748477697E-2
3.092380087E1,1.245026886E-1,6.018739566E-2,7.363634557E-2
3.094398233E1,8.349003643E-2,7.936213911E-2,6.245107949E-2
3.096416426E1,4.514054582E-2,7.882951200E-2,4.274370521E-2
3.098434681E1,1.797632314E-2,4.687159881E-2,1.930790395E-2
3.100453014E1,1.158474199E-2,4.154528305E-2,6.657897611E-4
3.102471436E1,-1.771000773E-2,5.273054913E-2,-7.323687430E-3
3.104489952E1,-5.179844424E-2,5.699160323E-2,-1.850895584E-2
3.106508561E1,-3.954791278E-2,5.592634156E-2,-1.637842879E-2
3.108527265E1,-2.197106183E-2,3.675159439E-2,-1.051947847E-2
3.110546061E1,-1.824264042E-2,4.740423337E-2,-2.596580051E-2
3.112564947E1,-1.824264042E-2,5.432844535E-2,-3.555317223E-2
3.114583905E1,-2.356895804E-2,5.219791830E-2,-2.916159295E-2
3.116602921E1,-2.623211779E-2,3.728422895E-2,-1.957421936E-2
3.118621978E1,-1.824264042E-2,3.781685978E-2,-9.454214945E-3
3.120641056E1,-1.504684892E-2,4.207791388E-2,-3.062632866E-3
3.122660681E1,-2.463422157E-2,5.060002208E-2,-5.193160381E-3
3.124679598E1,-3.368896246E-2,5.645897239E-2,-4.127896391E-3
3.126697280E1,-2.197106183E-2,4.420844093E-2,-1.997369342E-3
3.128715015E1,-1.238369010E-2,2.663159184E-2,-2.530001104E-3
3.130732837E1,-2.090579830E-2,2.450106293E-2,-3.994738800E-4
3.132750780E1,-2.463422157E-2,3.142527863E-2,-1.464737463E-3
3.134768869E1,-6.524739787E-3,3.355580568E-2,1.664474420E-2
3.136787119E1,-1.198421582E-3,1.757685095E-2,3.581948951E-2
3.138805541E1,-8.122635074E-3,3.728422802E-3,3.848264739E-2
3.140824140E1,-1.331579551E-4,1.384842768E-2,2.676474862E-2
3.142842910E1,1.691105962E-2,3.834949061E-2,2.037316747E-2
3.144861843E1,3.022685647E-2,3.515370190E-2,2.463422157E-2
3.146880921E1,2.063948289E-2,2.716422267E-2,3.954791278E-2
3.148900119E1,4.660528619E-3,1.651158556E-2,4.221107066E-2
3.150919410E1,-6.657897611E-4,2.663159044E-3,2.942790836E-2
3.152938770E1,7.856319658E-3,-2.077264152E-2,1.877527125E-2
3.154958166E1,9.986846708E-3,-3.888212144E-2,1.611211337E-2
3.156977520E1,1.371526904E-2,-3.834949061E-2,1.291632187E-2
3.158996504E1,2.969422378E-2,-2.556632832E-2,1.078579482E-2
3.161014900E1,2.703106403E-2,-7.456845604E-3,3.861580743E-3
3.163033046E1,2.330264263E-2,2.769685537E-2,-6.791055668E-3
3.165051239E1,3.129211813E-2,3.621896356E-2,-1.744369231E-2
3.167069494E1,3.768370301E-2,3.408843651E-2,-2.756369673E-2
3.169087827E1,3.928159550E-2,6.072002649E-2,-4.567318037E-2
3.171106249E1,5.526055023E-2,9.534109384E-2,-6.964161247E-2
3.173124765E1,1.053279415E-1,9.693899006E-2,-8.455529809E-2
3.175143374E1,1.777658761E-1,2.769685537E-2,-7.283740491E-2
3.177162077E1,1.910816729E-1,-8.628635854E-2,-2.223737910E-2
3.179180874E1,4.620581120E-2,-9.960214794E-2,2.516685426E-2
3.181199754E1,-9.068056941E-2,-5.326318205E-4,1.984053478E-2
3.183218702E1,-6.937529147E-2,4.101264849E-2,5.992108025E-3
3.185237707E1,3.661843762E-2,2.343579940E-2,1.198421582E-3
3.187256754E1,1.175784767E-1,-1.917474531E-2,6.657897611E-4
3.189275827E1,7.603318989E-2,-5.432844535E-2,2.796316985E-3
3.191295452E1,-2.250369452E-2,-3.195791040E-3,4.926844500E-3
3.193314390E1,-5.446160212E-2,4.048001766E-2,5.459476262E-3
3.195332114E1,5.193160381E-3,4.793686420E-2,-3.994738800E-4
3.197349890E1,8.029424399E-2,3.515370190E-2,1.984053478E-2
3.199367754E1,1.053279415E-1,7.456845604E-3,3.688475490E-2
3.201385733E1,7.070687413E-2,1.012000442E-2,4.061317816E-2
3.203403848E1,1.850895584E-2,2.982738242E-2,2.569948509E-2
3.205422114E1,-6.524739787E-3,2.237053588E-2,-9.321057005E-4
3.207440540E1,8.921583183E-3,1.012000442E-2,-7.323687430E-3
3.209459134E1,3.235738352E-2,9.054740891E-3,2.796316985E-3
3.211477890E1,3.289001435E-2,7.456845604E-3,4.926844500E-3
3.213496796E1,2.543316968E-2,3.142527863E-2,2.263685223E-3
3.215515837E1,1.105211023E-2,3.142527863E-2,-7.856319658E-3
3.217534994E1,1.158474199E-2,3.195791040E-3,-1.424790081E-2
3.219554244E1,2.330264263E-2,-1.384842768E-2,-1.051947847E-2
3.221573561E1,2.490053698E-2,-1.917474531E-2,-2.530001104E-3
3.223592916E1,1.318263728E-2,-2.876211889E-2,-1.464737463E-3
3.225612009E1,9.321057005E-4,-4.154528305E-2,-8.388951421E-3
3.227630837E1,-7.590003312E-3,-3.355580568E-2,-1.531316526E-2
3.229650212E1,-7.590003312E-3,-2.450106293E-2,-1.744369231E-2
3.231669077E1,3.062632866E-3,-1.970737800E-2,-1.158474199E-2
3.233686905E1,9.986846708E-3,-2.130527236E-2,-7.323687430E-3
3.235704780E1,1.371526904E-2,-1.278316416E-2,-1.464737463E-3
3.237722733E1,2.117211558E-2,4.261054564E-3,4.394212738E-3
3.239740790E1,2.916159295E-2,9.054740891E-3,9.187898599E-3
3.241758968E1,2.277000993E-2,-3.728422802E-3,1.824264042E-2
3.243777280E1,2.223737910E-2,5.326318089E-3,1.291632187E-2
3.245795738E1,2.969422378E-2,1.384842768E-2,1.078579482E-2
3.247814343E1,4.087949172E-2,6.391582079E-3,1.344895363E-2
3.249833093E1,3.182475269E-2,-1.225053146E-2,5.459476262E-3
3.251851978E1,8.921583183E-3,-2.396843210E-2,4.394212738E-3
3.253870983E1,5.193160381E-3,-2.396843210E-2,1.504684892E-2
3.255890093E1,3.595264861E-3,-1.491369121E-2,1.930790395E-2
3.257909285E1,9.454214945E-3,2.290316857E-2,1.611211337E-2
3.259928535E1,1.637842879E-2,1.384842768E-2,1.185105834E-2
3.261947817E1,4.660528619E-3,-4.420844093E-2,1.398158539E-2
3.263967087E1,-1.557948068E-2,-8.309056610E-2,9.720530361E-3
3.265986046E1,-2.996053919E-2,-7.989477366E-2,-2.530001104E-3
3.268004442E1,-2.410159074E-2,-5.273054913E-2,-8.388951421E-3
3.270022587E1,-4.394212738E-3,-1.917474531E-2,-5.725792143E-3
3.272040780E1,5.193160381E-3,8.522109129E-3,-1.265000552E-2
3.274059035E1,-1.331579551E-4,1.384842768E-2,-1.850895584E-2
3.276077369E1,-9.187898599E-3,-7.456845604E-3,-2.223737910E-2
3.278095790E1,-1.717737690E-2,-1.438105945E-2,-2.223737910E-2
3.280114306E1,-1.984053478E-2,-1.225053146E-2,-1.478053257E-2
3.282132916E1,-1.344895363E-2,-6.924213842E-3,-9.986846708E-3
3.284151619E1,-3.328948980E-3,5.326318205E-4,-1.105211023E-2
3.286170416E1,-1.198421582E-3,5.326318089E-3,-1.265000552E-2
3.288189296E1,-9.720530361E-3,-5.326318089E-3,-1.691105962E-2
3.290208244E1,-1.771000773E-2,-1.651158556E-2,-1.957421936E-2
3.292227249E1,-1.877527125E-2,-2.077264152E-2,-2.063948289E-2
3.294246296E1,-1.185105834E-2,-1.651158556E-2,-1.371526904E-2
3.296265369E1,-1.331579551E-4,-2.822948620E-2,-1.997369342E-3
3.298284994E1,5.725792143E-3,-3.728422895E-2,3.328948980E-3
3.300303931E1,1.478053257E-2,-7.456845604E-3,7.590003312E-3
3.302321655E1,1.850895584E-2,1.438105945E-2,1.238369010E-2
3.304339431E1,1.744369231E-2,1.012000442E-2,1.611211337E-2
3.306357296E1,1.744369231E-2,6.924213842E-3,1.238369010E-2
3.308375275E1,1.637842879E-2,8.522109129E-3,7.590003312E-3
3.310393390E1,7.856319658E-3,-6.391582079E-3,4.926844500E-3
3.312411655E1,-4.926844500E-3,-2.396843210E-2,-5.193160381E-3
3.314430082E1,-1.717737690E-2,-2.343579940E-2,-2.117211558E-2
3.316448676E1,-1.877527125E-2,-9.587372653E-3,-3.129211813E-2
3.318467431E1,-1.930790395E-2,-1.597895520E-3,-2.330264263E-2
3.320486337E1,-1.664474420E-2,-2.663159044E-3,-6.791055668E-3
3.322505379E1,-7.590003312E-3,3.195791040E-3,4.394212738E-3
3.324524535E1,-2.796316985E-3,6.924213842E-3,1.557948068E-2
3.326543785E1,-1.731053460E-3,-4.261054564E-3,1.930790395E-2
3.328563103E1,-1.331579551E-4,-1.384842768E-2,1.504684892E-2
3.330582457E1,-6.657897611E-4,-1.597895520E-3,4.394212738E-3
3.332601551E1,-2.796316985E-3,6.924213842E-3,-5.725792143E-3
3.334620379E1,-2.263685223E-3,-1.118526794E-2,-1.158474199E-2
3.336639754E1,-4.394212738E-3,-2.716422267E-2,-1.424790081E-2
3.338658614E1,-9.720530361E-3,-3.408843651E-2,-2.170474641E-2
3.340676431E1,-1.664474420E-2,-3.249054030E-2,-2.223737910E-2
3.342694296E1,-1.717737690E-2,-1.278316416E-2,-1.478053257E-2
3.344712238E1,-1.131842658E-2,2.663159044E-3,-5.725792143E-3
3.346730285E1,-6.524739787E-3,4.261054564E-3,2.263685223E-3
3.348748457E1,-5.459476262E-3,-5.326318205E-4,2.796316985E-3
3.350766770E1,-3.861580743E-3,5.326318205E-4,-9.321057005E-4
3.352785228E1,-5.459476262E-3,2.663159044E-3,-4.127896391E-3
3.354803832E1,-8.655266836E-3,4.261054564E-3,-7.323687430E-3
3.356822582E1,-1.291632187E-2,9.587372653E-3,-1.211737376E-2
3.358841473E1,-1.664474420E-2,3.728422802E-3,-1.105211023E-2
3.360860489E1,-2.729738131E-2,-1.651158556E-2,-6.258423906E-3
3.362879608E1,-3.581948951E-2,-1.384842768E-2,-5.193160381E-3
3.364898811E1,-2.143843099E-2,1.438105945E-2,-9.321057005E-4
3.366918072E1,9.321057005E-4,2.876211889E-2,1.504684892E-2
3.368937364E1,4.660528619E-3,2.077264152E-2,3.315633163E-2
3.370956629E1,-3.861580743E-3,1.597895473E-2,3.102580272E-2
3.372975577E1,-1.185105834E-2,2.822948620E-2,1.557948068E-2
3.374993973E1,-1.078579482E-2,3.834949061E-2,3.328948980E-3
3.377012119E1,-1.731053460E-3,1.757685095E-2,-1.997369342E-3
3.379030311E1,-1.198421582E-3,-1.278316416E-2,-4.127896391E-3
3.381048567E1,-1.291632187E-2,-1.171789970E-2,5.992108025E-3
3.383066900E1,-1.451421715E-2,3.195791040E-3,1.930790395E-2
3.385085322E1,-3.328948980E-3,4.261054564E-3,2.729738131E-2
3.387103837E1,1.424790081E-2,1.331579592E-2,2.729738131E-2
3.389122447E1,1.904158667E-2,2.663159184E-2,1.984053478E-2
3.391141150E1,9.986846708E-3,2.450106293E-2,1.344895363E-2
3.393159947E1,-5.459476262E-3,1.491369121E-2,1.291632187E-2
3.395178827E1,-9.720530361E-3,1.331579592E-2,1.078579482E-2
3.397197775E1,-9.720530361E-3,2.343579940E-2,7.590003312E-3
3.399216780E1,-8.655266836E-3,3.408843651E-2,1.731053460E-3
3.401235827E1,-3.328948980E-3,2.609895915E-2,-3.062632866E-3
3.403254900E1,-1.731053460E-3,1.970737800E-2,-7.323687430E-3
3.405274525E1,-3.861580743E-3,2.290316857E-2,-8.388951421E-3
3.407293457E1,-6.524739787E-3,2.183790505E-2,-5.725792143E-3
3.409311171E1,-3.328948980E-3,1.544632297E-2,1.731053460E-3
3.411328936E1,4.660528619E-3,1.118526794E-2,4.926844500E-3
3.413346790E1,6.258423906E-3,1.597895473E-2,3.861580743E-3
3.415364759E1,7.323687430E-3,9.054740891E-3,4.394212738E-3
3.417382864E1,5.193160381E-3,3.728422802E-3,-9.321057005E-4
3.419401124E1,-1.731053460E-3,4.261054564E-3,-3.595264861E-3
3.421419551E1,-6.657897611E-4,4.261054564E-3,-4.660528619E-3
3.423438145E1,5.725792143E-3,4.793686327E-3,-3.994738800E-4
3.425456905E1,3.595264861E-3,2.130527282E-3,-1.997369342E-3
3.427475822E1,-2.263685223E-3,4.793686327E-3,-3.595264861E-3
3.429494874E1,6.258423906E-3,2.982738242E-2,-3.994738800E-4
3.431514040E1,8.388951421E-3,3.675159439E-2,5.992108025E-3
3.433533301E1,7.856319658E-3,9.587372653E-3,1.185105834E-2
3.435552629E1,1.051947847E-2,-1.065263618E-2,7.057371549E-3
3.437571994E1,1.265000552E-2,-7.456845604E-3,-1.464737463E-3
3.439591353E1,1.051947847E-2,-1.118526794E-2,-5.193160381E-3
3.441610358E1,1.105211023E-2,-2.183790505E-2,-8.388951421E-3
3.443628754E1,1.158474199E-2,-3.142527863E-2,-9.454214945E-3
3.445646900E1,6.791055668E-3,-3.621896356E-2,-1.211737376E-2
3.447665093E1,-2.796316985E-3,-4.261054471E-2,-1.531316526E-2
3.449683348E1,-2.263685223E-3,-3.675159439E-2,-1.211737376E-2
3.451701681E1,4.127896391E-3,-8.522109129E-3,-8.388951421E-3
3.453720103E1,7.856319658E-3,9.587372653E-3,-6.258423906E-3
3.455738619E1,1.265000552E-2,-2.663159044E-3,-3.595264861E-3
3.457757228E1,1.797632314E-2,-3.302317113E-2,-4.127896391E-3
3.459775931E1,1.424790081E-2,-4.900212586E-2,-8.921583183E-3
3.461794728E1,1.265000552E-2,-4.527370632E-2,-1.318263728E-2
3.463813608E1,1.797632314E-2,-4.687159881E-2,-1.424790081E-2
3.465832556E1,2.916159295E-2,-5.752423778E-2,-1.637842879E-2
3.467851561E1,3.768370301E-2,-7.297056168E-2,-1.371526904E-2
3.469870608E1,3.768370301E-2,-8.468846232E-2,-7.856319658E-3
3.471889681E1,4.247738793E-2,-9.161267430E-2,-1.051947847E-2
3.473909306E1,5.206476152E-2,-9.960214794E-2,-8.388951421E-3
3.475928238E1,5.526055023E-2,-1.166463718E-1,-5.193160381E-3
3.477945952E1,4.993423447E-2,-1.395495385E-1,-7.856319658E-3
3.479963718E1,5.579318479E-2,-1.496695429E-1,-1.265000552E-2
3.481981572E1,6.325002760E-2,-1.640505940E-1,-4.660528619E-3
3.483999540E1,6.218476593E-2,-1.874863952E-1,-1.464737463E-3
3.486017645E1,6.111950055E-2,-1.821600795E-1,-4.660528619E-3
3.488035905E1,6.484792382E-2,-1.640505940E-1,-3.062632866E-3
3.490054332E1,6.325002760E-2,-1.752358675E-1,-1.464737463E-3
3.492072926E1,6.538055837E-2,-1.981390417E-1,-1.158474199E-2
3.494091686E1,7.763108611E-2,-1.736379713E-1,-1.584579609E-2
3.496110603E1,7.390266657E-2,-1.518000662E-1,-9.986846708E-3
3.498129655E1,5.472791940E-2,-1.688442826E-1,-3.994738800E-4
3.500148822E1,4.620581120E-2,-1.651158631E-1,-4.660528619E-3
3.502168082E1,4.141212255E-2,-1.203747913E-1,-2.170474641E-2
3.504187410E1,4.141212255E-2,-8.042740822E-2,-2.330264263E-2
3.506206775E1,2.969422378E-2,-7.616634667E-2,-1.051947847E-2
3.508226134E1,1.318263728E-2,-6.764423847E-2,-6.791055668E-3
3.510245140E1,6.258423906E-3,-4.900212586E-2,-3.062632866E-3
3.512263535E1,9.321057005E-4,-4.101264849E-2,-3.595264861E-3
3.514281681E1,-3.328948980E-3,-2.556632832E-2,-7.856319658E-3
3.516299874E1,-8.122635074E-3,4.261054564E-3,-1.318263728E-2
3.518318155E1,-1.717737690E-2,3.195790946E-2,-1.051947847E-2
3.520336572E1,-2.729738131E-2,4.207791388E-2,-3.994738800E-4
3.522355072E1,-2.942790836E-2,4.740423337E-2,3.328948980E-3
3.524373655E1,-2.410159074E-2,5.805686861E-2,-4.127896391E-3
3.526392322E1,-1.930790395E-2,6.817687303E-2,-7.323687430E-3
3.528411072E1,-2.836264484E-2,7.563371956E-2,1.731053460E-3
3.530429895E1,-4.114580899E-2,8.309056610E-2,7.057371549E-3
3.532448780E1,-4.061317816E-2,8.628635854E-2,1.025316212E-2
3.534467718E1,-3.368896246E-2,8.255793154E-2,1.238369010E-2
3.536486697E1,-3.581948951E-2,8.042740822E-2,8.122635074E-3
3.538505707E1,-4.274370521E-2,8.575372398E-2,-3.062632866E-3
3.540524728E1,-4.860265180E-2,8.575372398E-2,-8.388951421E-3
3.542544832E1,-4.593949392E-2,8.362319320E-2,-1.105211023E-2
3.544562530E1,-3.741738573E-2,8.735162020E-2,-8.921583183E-3
3.546580259E1,-3.475422785E-2,9.267793596E-2,-5.193160381E-3
3.548598061E1,-3.795001656E-2,8.894951642E-2,-2.530001104E-3
3.550615968E1,-3.954791278E-2,8.788424730E-2,3.861580743E-3
3.552633999E1,-3.368896246E-2,8.575372398E-2,1.185105834E-2
3.554652176E1,-2.250369452E-2,5.592634156E-2,1.824264042E-2
3.556670520E1,-1.451421715E-2,2.556632832E-2,1.771000773E-2
3.558689030E1,-8.655266836E-3,3.195790946E-2,1.185105834E-2
3.560707707E1,-8.122635074E-3,3.515370190E-2,4.394212738E-3
3.562726551E1,-4.394212738E-3,1.864211448E-2,3.328948980E-3
3.564745540E1,3.994738800E-4,1.065263618E-2,3.861580743E-3
3.566764655E1,-3.861580743E-3,1.757685095E-2,1.198421582E-3
3.568783874E1,-9.187898599E-3,1.012000442E-2,3.328948980E-3
3.570803176E1,-9.187898599E-3,0.000000000E0,4.394212738E-3
3.572822530E1,-1.078579482E-2,1.278316416E-2,1.331579551E-4
3.574841905E1,-2.143843099E-2,3.408843651E-2,-6.791055668E-3
3.576861249E1,-3.262370080E-2,6.231792271E-2,-1.158474199E-2
3.578879916E1,-3.901528195E-2,8.468846232E-2,-1.318263728E-2
3.580898040E1,-4.221107066E-2,9.480846673E-2,-7.856319658E-3
3.582916207E1,-4.966791719E-2,9.427583218E-2,-7.323687430E-3
3.584934426E1,-5.179844424E-2,9.427583218E-2,-1.211737376E-2
3.586952718E1,-4.540686309E-2,9.534109384E-2,-7.856319658E-3
3.588971093E1,-3.741738573E-2,8.096003532E-2,6.524739787E-3
3.590989561E1,-3.422159329E-2,6.285055727E-2,1.930790395E-2
3.593008124E1,-2.783001214E-2,5.486107618E-2,2.143843099E-2
3.595026780E1,-2.143843099E-2,5.379581451E-2,1.557948068E-2
3.597045530E1,-2.037316747E-2,5.805686861E-2,5.992108025E-3
3.599064364E1,-2.090579830E-2,6.125266105E-2,-9.321057005E-4
3.601083280E1,-1.771000773E-2,7.030740380E-2,-3.595264861E-3
3.603102259E1,-1.664474420E-2,6.817687303E-2,-9.321057005E-4
3.605121290E1,-1.984053478E-2,5.113265663E-2,2.263685223E-3
3.607140353E1,-2.037316747E-2,3.994738683E-2,6.657897611E-4
3.609159436E1,-1.984053478E-2,3.355580568E-2,-5.725792143E-3
3.611179603E1,-1.664474420E-2,3.142527863E-2,-7.856319658E-3
3.613197301E1,-9.720530361E-3,1.704421826E-2,-2.530001104E-3
3.615215030E1,-1.131842658E-2,0.000000000E0,1.331579551E-4
3.617232832E1,-1.877527125E-2,5.326318205E-4,-5.725792143E-3
3.619250738E1,-2.197106183E-2,-4.793686327E-3,-1.478053257E-2
3.621268770E1,-1.877527125E-2,-1.651158556E-2,-1.318263728E-2
3.623286947E1,-1.331579551E-4,-7.456845604E-3,-5.193160381E-3
3.625305291E1,8.388951421E-3,0.000000000E0,2.263685223E-3
3.627323801E1,-2.796316985E-3,-1.225053146E-2,7.057371549E-3
3.629342478E1,-1.238369010E-2,-1.491369121E-2,1.198421582E-3
3.631361322E1,-1.451421715E-2,-7.989477366E-3,-1.211737376E-2
3.633380311E1,-8.655266836E-3,-4.261054564E-3,-1.691105962E-2
3.635399426E1,-5.459476262E-3,-1.118526794E-2,-1.371526904E-2
3.637418645E1,-8.122635074E-3,-1.118526794E-2,-9.454214945E-3
3.639437947E1,-1.078579482E-2,-5.326318089E-3,1.198421582E-3
3.641457301E1,-1.131842658E-2,-1.704421826E-2,9.720530361E-3
3.643476676E1,-1.185105834E-2,-2.077264152E-2,1.185105834E-2
3.645496020E1,-7.057371549E-3,-2.130527282E-3,7.590003312E-3
3.647514686E1,-1.198421582E-3,1.651158556E-2,9.187898599E-3
3.649532811E1,-5.459476262E-3,1.438105945E-2,1.930790395E-2
3.651550978E1,-9.720530361E-3,7.456845604E-3,2.143843099E-2
3.653569197E1,-3.328948980E-3,1.171789970E-2,9.187898599E-3
3.655587488E1,-1.731053460E-3,2.609895915E-2,-4.660528619E-3
3.657605864E1,-2.796316985E-3,3.781685978E-2,6.657897611E-4
3.659624332E1,1.997369342E-3,3.568633273E-2,1.504684892E-2
3.661642895E1,8.921583183E-3,2.343579940E-2,2.516685426E-2
3.663661551E1,8.921583183E-3,2.077264152E-2,1.930790395E-2
3.665680301E1,3.062632866E-3,3.675159439E-2,9.720530361E-3
3.667699145E1,-8.655266836E-3,4.474107176E-2,-3.994738800E-4
3.669718061E1,-1.131842658E-2,4.900212586E-2,-1.997369342E-3
3.671737041E1,-8.122635074E-3,3.941475600E-2,8.655266836E-3
3.673756072E1,-5.459476262E-3,1.810948178E-2,1.664474420E-2
3.675775134E1,-1.331579551E-4,3.195791040E-3,1.451421715E-2
3.677794218E1,-2.796316985E-3,-1.065263641E-3,5.992108025E-3
3.679814384E1,-8.122635074E-3,1.491369121E-2,-3.062632866E-3
3.681832082E1,-9.187898599E-3,3.621896356E-2,-5.725792143E-3
3.683849811E1,-6.524739787E-3,4.101264849E-2,-9.321057005E-4
3.685867614E1,3.994738800E-4,4.154528305E-2,2.263685223E-3
3.687885520E1,9.454214945E-3,5.006739125E-2,7.590003312E-3
3.689903551E1,-6.657897611E-4,4.527370632E-2,1.078579482E-2
3.691921728E1,-1.185105834E-2,1.917474531E-2,1.451421715E-2
3.693940072E1,-7.057371549E-3,4.793686327E-3,1.291632187E-2
3.695958582E1,8.388951421E-3,1.544632297E-2,1.131842658E-2
3.697977259E1,1.957421936E-2,1.012000442E-2,1.611211337E-2
3.699996103E1,2.383527346E-2,1.065263641E-3,1.824264042E-2
3.702015093E1,1.691105962E-2,6.391582079E-3,1.451421715E-2
3.704034207E1,8.388951421E-3,2.024000883E-2,7.590003312E-3
3.706053426E1,1.211737376E-2,2.609895915E-2,4.394212738E-3
3.708072728E1,1.637842879E-2,8.522109129E-3,-1.464737463E-3
3.710092082E1,1.265000552E-2,2.663159044E-3,-1.105211023E-2
3.712111457E1,-1.331579551E-4,3.195791040E-3,-9.454214945E-3
3.714130801E1,-6.524739787E-3,3.728422802E-3,1.731053460E-3
3.716149468E1,-3.861580743E-3,-8.522109129E-3,1.131842658E-2
3.718167593E1,4.660528619E-3,-1.065263618E-2,4.926844500E-3
3.720185759E1,4.660528619E-3,4.261054564E-3,-3.062632866E-3
3.722203978E1,6.258423906E-3,5.326318205E-4,-4.660528619E-3
3.724222270E1,1.957421936E-2,6.924213842E-3,3.328948980E-3
3.726240645E1,3.022685647E-2,1.278316416E-2,1.504684892E-2
3.728259114E1,3.608580679E-2,8.522109129E-3,1.717737690E-2
3.730277676E1,3.129211813E-2,1.597895520E-3,9.720530361E-3
3.732296332E1,2.010685205E-2,4.261054564E-3,7.057371549E-3
3.734315082E1,1.371526904E-2,-6.391582079E-3,1.025316212E-2
3.736333916E1,2.490053698E-2,-1.331579592E-2,1.557948068E-2
3.738352832E1,3.235738352E-2,-1.278316416E-2,1.451421715E-2
3.740371811E1,2.170474641E-2,-1.970737800E-2,1.131842658E-2
3.742390843E1,6.791055668E-3,-3.036001325E-2,3.861580743E-3
3.744409905E1,-1.331579551E-4,-3.568633273E-2,-4.127896391E-3
3.746428988E1,9.321057005E-4,-4.580633715E-2,-6.791055668E-3
3.748449155E1,6.791055668E-3,-5.113265663E-2,-5.725792143E-3
3.750466853E1,1.904158667E-2,-2.663159184E-2,1.198421582E-3
3.752484582E1,1.744369231E-2,-1.438105945E-2,8.655266836E-3
3.754502384E1,8.921583183E-3,-2.609895915E-2,1.131842658E-2
3.756520290E1,1.158474199E-2,-2.450106293E-2,5.992108025E-3
3.758538322E1,1.478053257E-2,-1.651158556E-2,-2.530001104E-3
3.760556499E1,1.797632314E-2,-5.326318089E-3,-9.321057005E-4
3.762574843E1,1.744369231E-2,-9.054740891E-3,1.198421582E-3
3.764593353E1,1.371526904E-2,-1.278316416E-2,3.861580743E-3
3.766612030E1,9.454214945E-3,-8.522109129E-3,8.122635074E-3
3.768630874E1,5.193160381E-3,-1.651158556E-2,9.187898599E-3
3.770649864E1,2.530001104E-3,-2.290316857E-2,3.328948980E-3
3.772668978E1,2.530001104E-3,-1.810948178E-2,-3.062632866E-3
3.774688197E1,7.856319658E-3,-7.989477366E-3,-5.725792143E-3
3.776707499E1,1.318263728E-2,-6.924213842E-3,-3.994738800E-4
3.778726853E1,7.856319658E-3,-5.326318089E-3,2.796316985E-3
3.780746228E1,-1.731053460E-3,1.065263641E-3,-1.997369342E-3
3.782765582E1,-7.590003312E-3,7.989477366E-3,-5.193160381E-3
3.784784249E1,-5.992108025E-3,4.793686327E-3,-7.323687430E-3
3.786802374E1,3.994738800E-4,-1.597895520E-3,-5.725792143E-3
3.788820540E1,-6.657897611E-4,-1.491369121E-2,-6.258423906E-3
3.790838759E1,-6.657897611E-4,-5.858949851E-3,-1.051947847E-2
3.792857051E1,-4.926844500E-3,1.651158556E-2,-1.318263728E-2
3.794875426E1,-9.187898599E-3,2.769685537E-2,-7.323687430E-3
3.796893895E1,-2.796316985E-3,2.876211889E-2,2.796316985E-3
3.798912457E1,5.725792143E-3,1.651158556E-2,6.524739787E-3
3.800931114E1,5.725792143E-3,1.704421826E-2,2.796316985E-3
3.802949864E1,-3.328948980E-3,2.183790505E-2,-5.725792143E-3
3.804968697E1,-5.992108025E-3,2.450106293E-2,-1.211737376E-2
3.806987614E1,9.321057005E-4,3.089264594E-2,-1.265000552E-2
3.809006593E1,1.997369342E-3,1.544632297E-2,-5.725792143E-3
3.811025624E1,-3.861580743E-3,0.000000000E0,-5.193160381E-3
3.813044686E1,-4.394212738E-3,1.491369121E-2,-2.530001104E-3
3.815063770E1,-5.992108025E-3,7.456845604E-3,-1.464737463E-3
3.817083936E1,-1.731053460E-3,-1.171789970E-2,5.459476262E-3
3.819101645E1,9.454214945E-3,-1.171789970E-2,1.238369010E-2
3.821119384E1,1.211737376E-2,-7.456845604E-3,1.291632187E-2
3.823137197E1,6.791055668E-3,-2.663159044E-3,7.057371549E-3
3.825155114E1,5.193160381E-3,6.391582079E-3,-4.660528619E-3
3.827173155E1,-6.657897611E-4,2.343579940E-2,-1.371526904E-2
3.829191343E1,-1.331579551E-4,2.822948620E-2,-1.158474199E-2
3.831209686E1,3.062632866E-3,9.587372653E-3,1.198421582E-3
3.833228197E1,-1.731053460E-3,-9.054740891E-3,3.861580743E-3
3.835246874E1,-1.025316212E-2,-1.651158556E-2,-2.530001104E-3
3.837265707E1,-1.877527125E-2,-2.183790505E-2,-1.105211023E-2
3.839284686E1,-1.344895363E-2,-3.408843651E-2,-9.986846708E-3
3.841303790E1,-5.459476262E-3,-3.675159439E-2,-4.660528619E-3
3.843322999E1,-3.861580743E-3,-3.036001325E-2,-2.530001104E-3
3.845342291E1,-6.524739787E-3,-2.663159184E-2,-6.791055668E-3
3.847361634E1,-9.720530361E-3,-1.597895473E-2,-1.051947847E-2
3.849380999E1,-6.524739787E-3,-1.118526794E-2,-6.258423906E-3
3.851399822E1,-3.861580743E-3,-1.544632297E-2,1.198421582E-3
3.853418655E1,-2.263685223E-3,-2.663159184E-2,4.394212738E-3
3.855438572E1,-6.524739787E-3,-2.876211889E-2,1.331579551E-4
3.857456374E1,-8.655266836E-3,-1.491369121E-2,-7.856319658E-3
3.859474207E1,-1.198421582E-3,-1.171789970E-2,-1.371526904E-2
3.861492103E1,8.921583183E-3,-2.343579940E-2,-9.454214945E-3
3.863510093E1,8.388951421E-3,-2.450106293E-2,-5.193160381E-3
3.865528197E1,-2.263685223E-3,-1.118526794E-2,-2.530001104E-3
3.867546436E1,-6.524739787E-3,-2.663159044E-3,-1.464737463E-3
3.869564822E1,-1.331579551E-4,-4.261054564E-3,3.328948980E-3
3.871583353E1,-3.328948980E-3,-1.331579592E-2,9.720530361E-3
3.873602030E1,-7.590003312E-3,-1.012000442E-2,3.328948980E-3
3.875620853E1,-4.394212738E-3,7.989477366E-3,-2.530001104E-3
3.877639811E1,-7.590003312E-3,1.597895520E-3,-8.388951421E-3
3.879658884E1,-1.025316212E-2,-3.728422802E-3,-1.105211023E-2
3.881678051E1,-1.238369010E-2,1.118526794E-2,-6.791055668E-3
3.883697290E1,-1.238369010E-2,1.704421826E-2,5.459476262E-3
3.885716572E1,-5.992108025E-3,2.663159044E-3,1.557948068E-2
3.887735874E1,-6.657897611E-4,-1.171789970E-2,1.557948068E-2
3.889755103E1,-4.394212738E-3,-1.544632297E-2,3.328948980E-3
3.891773780E1,-3.861580743E-3,-1.118526794E-2,-9.986846708E-3
3.893792447E1,4.660528619E-3,-1.491369121E-2,-1.371526904E-2
3.895810572E1,1.318263728E-2,-1.651158556E-2,-1.265000552E-2
3.897828738E1,1.637842879E-2,-1.970737800E-2,-5.193160381E-3
3.899846957E1,1.051947847E-2,-2.769685537E-2,1.331579551E-4
3.901865249E1,3.994738800E-4,-3.142527863E-2,3.861580743E-3
3.903883624E1,3.994738800E-4,-3.462106735E-2,2.796316985E-3
3.905902093E1,8.388951421E-3,-3.941475600E-2,-3.994738800E-4
3.907920655E1,1.211737376E-2,-4.314317927E-2,3.328948980E-3
3.909939311E1,7.323687430E-3,-4.261054471E-2,3.328948980E-3
3.911958061E1,2.530001104E-3,-4.740423337E-2,-3.595264861E-3
3.913976905E1,-1.331579551E-4,-4.261054471E-2,-1.371526904E-2
3.915995822E1,-3.861580743E-3,-2.183790505E-2,-2.117211558E-2
3.918014801E1,-6.657897611E-4,-1.491369121E-2,-1.531316526E-2
3.920033832E1,-6.657897611E-4,-2.396843210E-2,3.328948980E-3
3.922052895E1,1.997369342E-3,-2.503369562E-2,7.057371549E-3
3.924071978E1,1.105211023E-2,-3.728422802E-3,1.025316212E-2
3.926092145E1,1.691105962E-2,-2.663159044E-3,1.664474420E-2
3.928109853E1,1.105211023E-2,-2.450106293E-2,1.771000773E-2
3.930127593E1,3.994738800E-4,-2.716422267E-2,7.057371549E-3
3.932145405E1,-4.394212738E-3,-2.876211889E-2,-5.193160381E-3
3.934163322E1,-6.524739787E-3,-3.621896356E-2,-1.478053257E-2
3.936181364E1,-4.926844500E-3,-2.024000883E-2,-1.318263728E-2
3.938199551E1,-1.238369010E-2,3.195791040E-3,-9.454214945E-3
3.940217895E1,-1.557948068E-2,6.924213842E-3,-4.660528619E-3
3.942236405E1,-7.057371549E-3,3.195791040E-3,2.263685223E-3
3.944255082E1,-2.263685223E-3,2.130527282E-3,5.459476262E-3
3.946273916E1,-3.861580743E-3,5.858949851E-3,1.198421582E-3
3.948292895E1,-3.328948980E-3,1.597895473E-2,-4.127896391E-3
3.950311999E1,1.464737463E-3,2.183790505E-2,-4.127896391E-3
3.952331207E1,3.595264861E-3,1.491369121E-2,1.731053460E-3
3.954350499E1,-2.796316985E-3,5.326318089E-3,4.394212738E-3
3.956369843E1,-4.394212738E-3,7.456845604E-3,6.657897611E-4
3.958389207E1,-3.861580743E-3,1.704421826E-2,1.731053460E-3
3.960408030E1,-1.198421582E-3,1.651158556E-2,7.057371549E-3
3.962426864E1,-1.331579551E-4,6.391582079E-3,1.238369010E-2
3.964446780E1,-3.861580743E-3,1.597895520E-3,7.057371549E-3
3.966464603E1,-6.524739787E-3,1.118526794E-2,-1.997369342E-3
3.968482457E1,-6.524739787E-3,1.278316416E-2,-4.127896391E-3
3.970500374E1,-3.328948980E-3,1.065263618E-2,-3.062632866E-3
3.972518374E1,-6.657897611E-4,2.130527282E-3,-3.062632866E-3
3.974536488E1,3.994738800E-4,0.000000000E0,-4.127896391E-3
3.976554728E1,-6.657897611E-4,5.326318089E-3,-7.323687430E-3
3.978573114E1,-5.992108025E-3,5.326318089E-3,-3.595264861E-3
3.980591645E1,-1.185105834E-2,5.858949851E-3,-3.994738800E-4
3.982610322E1,-1.984053478E-2,1.544632297E-2,9.187898599E-3
3.984629145E1,-1.078579482E-2,2.556632832E-2,1.824264042E-2
3.986648093E1,-7.590003312E-3,2.663159044E-3,1.930790395E-2
3.988667155E1,-2.942790836E-2,-1.864211448E-2,1.717737690E-2
3.990686311E1,-5.499423668E-2,-3.728422802E-3,1.238369010E-2
3.992705541E1,-6.511423737E-2,7.456845604E-3,5.992108025E-3
3.994724811E1,-4.913528636E-2,-2.982738242E-2,2.796316985E-3
3.996744103E1,-3.475422785E-2,-9.321057051E-2,1.731053460E-3
3.998763353E1,-3.422159329E-2,-1.214400530E-1,-1.464737463E-3
4.000782020E1,-6.085318699E-2,-1.336905807E-1,7.590003312E-3
4.002800145E1,-6.191844866E-2,-1.608548164E-1,1.664474420E-2
