"Time (s)","Gyroscope x (rad/s)","Gyroscope y (rad/s)","Gyroscope z (rad/s)"
1.636125500E-2,-2.269011587E-1,1.755021811E-1,-6.205160543E-2
3.654990100E-2,-3.259706795E-1,7.536740601E-2,8.175898343E-2
5.673313000E-2,-3.185138404E-1,4.527370445E-3,2.447443157E-1
7.691677600E-2,-2.679138184E-1,-3.701791167E-2,2.564622164E-1
9.710094200E-2,-2.215748429E-1,-1.067926809E-1,1.238368973E-1
1.172858380E-1,-1.667137593E-1,-2.431464195E-1,2.689790726E-2
1.374715670E-1,-1.049284711E-1,-2.697780132E-1,1.312937438E-1
1.576582340E-1,-1.017326787E-1,-2.516685426E-1,2.165148407E-1
1.778458380E-1,-1.821600795E-1,-2.095906287E-1,1.861548275E-1
1.980343800E-1,-2.295643091E-1,-1.392832249E-1,1.685779691E-1
2.182238590E-1,-2.652506530E-1,-2.157158963E-2,1.552621722E-1
2.384141720E-1,-3.318296373E-1,9.081372619E-2,1.659148186E-1
2.586052130E-1,-4.293012619E-1,2.149169445E-1,2.372874767E-1
2.787968800E-1,-5.214465261E-1,3.075948656E-1,3.731085956E-1
2.989890670E-1,-6.322339773E-1,5.281044245E-1,5.243760347E-1
3.191815670E-1,-9.608678222E-1,1.175252080E0,6.767086983E-1
3.393742760E-1,-1.506282806E0,1.805355549E0,1.042094111E0
3.595778170E-1,-2.122005224E0,2.423208475E0,1.903359771E0
3.797571920E-1,-3.107373953E0,2.895653009E0,2.724145412E0
3.999368800E-1,-3.556915283E0,2.550507545E0,3.081008673E0
4.201171920E-1,-2.639723301E0,2.193111420E0,3.354781628E0
4.402984420E-1,-1.528653383E0,2.549974918E0,3.112434149E0
4.604809420E-1,-2.185388327E0,2.898848772E0,3.521495342E0
4.806649010E-1,-2.392049551E0,2.904175043E0,3.470362663E0
5.008504220E-1,-1.234640598E0,3.454383612E0,2.589389563E0
5.210376090E-1,-2.380864173E-1,3.335074186E0,1.247690082E0
5.412264630E-1,-4.010717571E-1,2.045572519E0,3.970770240E-1
5.614168800E-1,-2.833601236E-1,5.824328661E-1,5.009402037E-1
5.816406300E-1,-3.142527863E-2,-5.930855274E-1,6.719150543E-1
6.018324530E-1,7.616634667E-2,-6.703171730E-1,6.623276472E-1
6.220183900E-1,2.721748650E-1,-7.909582555E-2,3.928159773E-1
6.422018280E-1,7.696529627E-1,6.894918680E-1,-3.145190775E-1
6.623857340E-1,1.481249094E0,1.148087859E0,-1.189100504E0
6.825702650E-1,1.947301984E0,6.378266215E-1,-2.225602150E0
7.027555780E-1,1.530251265E0,4.684496820E-1,-2.674610615E0
7.229417760E-1,6.285055280E-1,-3.267696202E-1,-2.703905344E0
7.431289110E-1,4.202465117E-1,-1.333976388E0,-2.896185637E0
7.633169840E-1,-2.359558940E-1,-1.676458597E0,-2.421077967E0
7.835059950E-1,-8.586025238E-1,-1.134239435E0,-1.989113569E0
8.036958900E-1,-8.852340579E-1,-2.391250610E0,-2.211220980E0
8.238865670E-1,-4.793686271E-1,-2.359825373E0,-2.061551571E0
8.440779220E-1,-1.715074480E-1,-2.026664019E-1,-2.352368355E0
8.642698490E-1,-6.498108059E-2,-1.105211005E-1,-2.568084240E0
8.844621920E-1,5.550023317E-1,-1.709481835E0,-3.624825954E0
9.046547970E-1,4.324970245E-1,-2.551572800E0,-4.250668049E0
9.248529220E-1,-1.263935328E0,-3.078345537E0,-4.334291458E0
9.450442760E-1,-2.730803251E0,-5.105542183E0,-4.191545963E0
9.652235990E-1,-3.943605900E0,-5.854422569E0,-3.860249043E0
9.854034420E-1,-4.298338890E0,-5.315931797E0,-3.418697357E0
1.005584172E0,-2.718552828E0,-2.502570629E0,-3.061301470E0
1.025766047E0,-1.351286888E0,-1.103879452E0,-2.533463240E0
1.045949276E0,6.125266105E-2,-6.415550113E-1,-7.161234617E-1
1.066134015E0,1.919605136E0,1.207210064E0,1.922534585E0
1.086320370E0,1.581383824E0,3.232808828E0,2.352368355E0
1.106508390E0,-4.250401855E-1,7.065361142E-1,1.075649977E0
1.126698026E0,-7.728487849E-1,-1.384576440E0,2.990727723E-1
1.146889172E0,1.491369158E-1,-3.462106921E-3,-2.133190483E-1
1.167081672E0,6.274402738E-1,1.720134497E0,-2.553969622E-1
1.187275317E0,4.852275848E-1,2.383793831E0,-9.933583438E-2
1.207469849E0,5.219791830E-2,1.895902991E0,-1.009337306E-1
1.227664953E0,-3.856254518E-1,8.956204057E-1,-2.245043069E-1
1.247860370E0,-7.360971570E-1,1.989379823E-1,-3.677822649E-1
1.268055161E0,-1.002945662E0,2.095906287E-1,-5.376918316E-1
1.288246515E0,-9.368993640E-1,6.202497482E-1,-5.099949837E-1
1.308432453E0,-6.103960872E-1,7.310371995E-1,-2.143843025E-1
1.328615890E0,-2.652506530E-1,2.974748611E-1,1.600558609E-1
1.348799797E0,-1.608548164E-1,-1.091895252E-2,4.274370372E-1
1.368984328E0,-2.008021921E-1,-1.382179558E-1,4.423507154E-1
1.389169640E0,-2.647180259E-1,-2.836264372E-1,2.884201407E-1
1.409355838E0,-3.680485785E-1,-3.592601717E-1,1.930790395E-1
1.429542974E0,-4.612591565E-1,-4.471444190E-1,1.328916401E-1
1.449731047E0,-5.512739420E-1,-5.701823831E-1,9.933583438E-2
1.469920057E0,-6.716487408E-1,-6.793718934E-1,7.110634446E-2
1.490109953E0,-7.297055721E-1,-7.166560888E-1,4.527370445E-3
1.510300630E0,-6.498108506E-1,-6.207823753E-1,-5.459476262E-2
1.530491984E0,-4.884233773E-1,-4.061317742E-1,-1.094558388E-1
1.550683911E0,-2.945453823E-1,-1.446095407E-1,-1.957421899E-1
1.570836672E0,-1.310274303E-1,7.590003312E-2,-2.697780132E-1
1.590953234E0,-1.182442605E-1,1.829590350E-1,-3.049317300E-1
1.611077505E0,-2.093243003E-1,1.307611167E-1,-2.990727723E-1
1.631211776E0,-3.323622644E-1,-8.282424510E-2,-2.761695981E-1
1.651357817E0,-4.420844018E-1,-2.633864284E-1,-2.580601275E-1
1.671516880E0,-4.506065249E-1,-3.225085735E-1,-2.580601275E-1
1.691689640E0,-4.127896726E-1,-3.406180441E-1,-2.857569754E-1
1.711876151E0,-4.042675495E-1,-3.214432895E-1,-3.198454082E-1
1.732075942E0,-3.568633199E-1,-3.161169887E-1,-3.928159773E-1
1.752288026E0,-1.640505940E-1,-3.608580530E-1,-4.982770681E-1
1.772510995E0,2.838927507E-1,-5.781718493E-1,-5.797697306E-1
1.792743078E0,6.934866309E-1,-9.696562290E-1,-6.021402478E-1
1.812982140E0,9.816404581E-1,-1.367532253E0,-3.075948656E-1
1.833225890E0,1.260739565E0,-1.210405827E0,1.464737486E-2
1.853471932E0,2.092177868E0,-1.659148186E-1,1.019989923E-1
1.873703182E0,3.267696142E0,6.106624007E-1,1.318263710E-1
1.893905474E0,3.606982708E0,4.343612492E-1,1.275653243E-1
1.914099536E0,3.002445459E0,3.320959508E-1,3.848264813E-1
1.934288182E0,2.101232529E0,6.708498001E-1,9.547425508E-1
1.954466203E0,1.454617500E0,1.339835286E0,1.207742691E0
1.974644797E0,1.290566921E0,1.949698806E0,1.176317334E0
1.994824328E0,1.579785943E0,1.868738770E0,1.236504793E0
2.015005161E0,1.808817625E0,4.327633679E-1,1.226384759E0
2.035187557E0,1.653821826E0,-1.749961853E0,1.166730046E0
2.055371672E0,1.399223804E0,-2.986200333E0,1.174719453E0
2.075574380E0,1.258608937E0,-3.035202503E0,1.198155284E0
2.095791776E0,1.198421597E0,-2.531332731E0,1.148620486E0
2.115980317E0,1.290566921E0,-2.229863167E0,1.006940484E0
2.136163442E0,1.557948112E0,-2.308160067E0,8.498140574E-1
2.156346984E0,1.711346030E0,-2.282593727E0,7.395592928E-1
2.176531151E0,1.483912230E0,-2.038115740E0,6.703171730E-1
2.196716047E0,8.703203797E-1,-1.681784987E0,5.387570858E-1
2.216901776E0,1.272990108E-1,-1.105477333E0,3.038664460E-1
2.237088442E0,-4.740423262E-1,-5.020055175E-1,3.755054250E-2
2.257276047E0,-8.388951421E-1,-2.948117256E-1,-1.557948142E-1
2.277464588E0,-9.725856781E-1,-4.210454524E-1,-2.314285189E-1
2.297654067E0,-9.139962196E-1,-5.877591968E-1,-1.573926955E-1
2.317844380E0,-7.360971570E-1,-6.527402997E-1,-9.241162241E-2
2.338035422E0,-4.873581231E-1,-7.491466403E-1,-8.255792782E-3
2.358227088E0,-1.997369379E-1,-3.273022473E-1,2.830938101E-1
2.378419276E0,-1.507348120E-1,4.556665123E-1,5.328981280E-1
2.398611776E0,-6.886929274E-1,7.102645040E-1,4.008054435E-1
2.418804484E0,-1.136103630E0,2.426137924E-1,6.684529036E-2
2.439008026E0,-9.811078310E-1,-8.844351172E-1,-4.980107397E-2
2.459186880E0,-6.285055280E-1,-1.343563795E0,-1.717737615E-1
2.479366047E0,-5.012065172E-1,-6.575340033E-1,-1.968074590E-1
2.499545942E0,-2.583264410E-1,3.938812315E-1,3.699128032E-1
2.519726880E0,-3.909517527E-1,1.196024776E0,5.723128915E-1
2.539909067E0,-5.901560783E-1,1.486309052E0,1.866874546E-1
2.560092713E0,-7.568697929E-1,1.785648227E0,-1.723063886E-1
2.580278026E0,-1.091362596E0,1.583248138E0,-4.226433635E-1
2.600465005E0,-1.628788114E0,1.818138719E0,-6.559360623E-1
2.620653651E0,-1.935051441E0,2.735863447E0,-7.566034794E-1
2.640843963E0,-1.961683035E0,3.384608984E0,-6.980140209E-1
2.661065942E0,-1.765674472E0,3.145457268E0,-5.440834165E-1
2.681261567E0,-1.592036486E0,2.106825113E0,-3.597927988E-1
2.701450109E0,-1.452486992E0,1.170458436E0,-1.696432382E-1
2.721633234E0,-1.065263629E0,7.571361065E-1,-6.418213248E-2
2.741816776E0,-6.838992834E-1,6.079992056E-1,-1.451421678E-1
2.762000942E0,-6.056023836E-1,4.380896688E-1,-2.649843395E-1
2.782185838E0,-7.504782081E-1,1.616537571E-1,-3.150517344E-1
2.802371567E0,-9.070720077E-1,-5.406212807E-2,-3.603254259E-1
2.822558234E0,-9.992172718E-1,-1.275653243E-1,-3.651190996E-1
2.842745838E0,-1.043958426E0,-1.946769357E-1,-2.548643351E-1
2.862934380E0,-1.146223664E0,-2.607232630E-1,-2.370211668E-2
2.883123859E0,-1.132375240E0,-1.291632205E-1,8.921582997E-2
2.903314172E0,-9.640635848E-1,2.857569754E-1,1.518000662E-2
2.923505213E0,-8.138614297E-1,7.235803008E-1,-1.936116666E-1
2.943696880E0,-7.808382511E-1,8.578035235E-1,-3.752391040E-1
2.963889067E0,-8.399603963E-1,7.912245989E-1,-5.483444333E-1
2.984081567E0,-8.442214131E-1,7.555382252E-1,-6.868287325E-1
3.004274172E0,-7.137266397E-1,5.904223919E-1,-7.731150985E-1
3.024477609E0,-7.600656152E-1,1.019989923E-1,-8.141277432E-1
3.044656359E0,-1.122787833E0,-1.435442716E-1,-7.720498443E-1
3.064835422E0,-9.869667888E-1,3.427485824E-1,-5.009402037E-1
3.085015213E0,-4.878907502E-1,9.845699072E-1,-1.334242672E-1
3.105196047E0,-3.414169848E-1,9.392961860E-1,4.127896577E-2
3.125378234E0,-3.323622644E-1,5.787044764E-1,-1.997369342E-2
3.145561880E0,3.936149180E-1,1.131842583E-1,-1.547295451E-1
3.165779588E0,1.129179478E0,-3.043990731E-1,-1.792306006E-1
3.185976515E0,1.690040708E0,-7.081339955E-1,-7.643266767E-2
3.206165109E0,2.206693649E0,-8.205193281E-1,4.460791349E-1
3.226350942E0,2.860765457E0,9.614004195E-2,8.940225244E-1
3.246534276E0,3.521761656E0,9.009467363E-1,9.904288650E-1
3.266718130E0,3.480216265E0,1.221591115E0,1.102281570E0
3.286902661E0,2.755304337E0,1.690307140E0,1.043159366E0
3.307087974E0,1.947301984E0,1.930523992E0,7.076013684E-1
3.327274172E0,1.603754401E0,1.542235494E0,4.055991173E-1
3.347461307E0,1.769402862E0,5.009402037E-1,3.858917654E-1
3.367649380E0,2.201367378E0,-8.546077609E-1,5.414202213E-1
3.387838390E0,2.430398941E0,-1.854890347E0,5.850960612E-1
3.408028286E0,2.168344259E0,-2.423741102E0,4.876244366E-1
3.428218963E0,1.822133422E0,-2.757701159E0,3.368896246E-1
3.448410317E0,1.689508080E0,-2.518016815E0,2.735064328E-1
3.468602245E0,1.776859760E0,-1.816540837E0,3.965443969E-1
3.488794588E0,1.984586120E0,-1.843172431E0,6.601971388E-1
3.508987140E0,2.085786104E0,-2.518016815E0,8.711193204E-1
3.529185161E0,1.755021811E0,-2.514288425E0,8.301066756E-1
3.549376151E0,8.500803709E-1,-1.503885984E0,5.637907982E-1
3.569554849E0,-2.625874877E-1,-4.029359818E-1,1.962748319E-1
3.589734067E0,-1.222390056E0,2.378201038E-1,-8.495477587E-2
3.609914172E0,-1.690573454E0,1.009337306E-1,-2.743053809E-2
3.630095474E0,-1.419463754E0,-5.579318404E-1,1.781653464E-1
3.650278234E0,-1.035436273E0,-8.178561330E-1,4.146538675E-1
3.670462609E0,-2.290316820E-1,2.724411786E-1,6.282392144E-1
3.690648703E0,5.464802384E-1,1.001081467E0,6.799045205E-1
3.710836567E0,2.593916953E-1,-2.050632425E-2,7.667235136E-1
3.731026151E0,-2.652506530E-1,-8.764456511E-1,4.700475931E-1
3.751217349E0,-2.514022291E-1,-1.725993395E0,8.069372177E-2
3.771410005E0,-4.969455004E-1,-1.645033360E0,-3.922833502E-1
3.791603859E0,-6.034718752E-1,5.592633970E-3,-5.211802125E-1
3.811798651E0,-3.137201369E-1,1.806953430E0,-2.271674722E-1
3.831994120E0,-1.496695429E-1,1.313736439E0,-2.101232558E-1
3.852189953E0,-3.968107104E-1,-2.090579867E-1,-5.467465520E-1
3.872385317E0,-1.360341668E0,-5.126581192E-1,-8.652604222E-1
3.892577036E0,-2.547045469E0,8.008119464E-1,-9.115993381E-1
3.912765630E0,-3.169692039E0,2.286854744E0,-6.165213585E-1
3.932951463E0,-2.864493847E0,2.849846601E0,-2.468748540E-1
3.953134797E0,-1.791773438E0,2.292713642E0,-9.720530361E-2
3.973318599E0,-7.574024200E-1,1.279647946E0,-2.271674722E-1
3.993503026E0,-8.111982346E-1,1.361140609E0,-5.435507894E-1
4.013688234E0,-1.776327133E0,1.806953430E0,-6.431529522E-1
4.033874328E0,-1.187236309E0,5.840308070E-1,-2.820285559E-1
4.054061359E0,-2.284990549E-1,-1.127315283E0,-2.143843025E-1
4.074249328E0,-1.533979625E-1,-2.124402046E0,-4.295675755E-1
4.094438234E0,-5.779055357E-1,-2.304431677E0,-3.848264813E-1
4.114628026E0,-8.788425326E-1,-2.036517859E0,-3.352917433E-1
4.134818651E0,-1.099352121E0,-1.352085829E0,-3.054643571E-1
4.155035995E0,-1.147288918E0,-5.446160436E-1,-2.303632647E-1
4.175217036E0,-9.624657035E-1,-5.725792050E-2,-1.600558609E-1
4.195398286E0,-7.664572001E-1,-3.808317333E-2,-1.648495495E-1
4.215580057E0,-8.218508959E-1,-2.580601275E-1,-2.372874767E-1
4.235762661E0,-1.061535239E0,-5.179844499E-1,-3.278348744E-1
4.255946307E0,-1.133973122E0,-7.427550554E-1,-3.885549009E-1
4.276131099E0,-8.596677780E-1,-8.705866933E-1,-4.119907022E-1
4.296317140E0,-3.190464675E-1,-7.928224802E-1,-5.344960093E-1
4.316504536E0,1.491369158E-1,-8.934898973E-1,-6.522076726E-1
4.336693182E0,3.781685978E-2,-1.110803604E0,-6.575340033E-1
4.356883078E0,-2.609896064E-1,-1.115064740E0,-5.749760270E-1
4.377074120E0,-5.006739125E-2,-1.033039451E0,-3.534012139E-1
4.397266203E0,5.182507634E-1,-9.265130758E-1,-6.418213248E-2
4.417459120E0,1.381646991E0,-1.296692133E0,3.720433414E-1
4.437652661E0,1.955824018E0,-1.154479504E0,7.869635224E-1
4.457846620E0,2.687127590E0,-2.170474678E-1,9.115993381E-1
4.478040682E0,3.444530010E0,5.467465520E-1,9.174582958E-1
4.498234120E0,3.418431044E0,1.265799522E0,1.202948928E0
4.518422661E0,2.739325523E0,2.073269367E0,1.387239575E0
4.538622036E0,1.753956556E0,2.669816971E0,1.168327928E0
4.558799745E0,1.143560529E0,2.170208454E0,8.418245912E-1
4.578977870E0,1.270859480E0,5.984118581E-1,6.570013762E-1
4.599156828E0,1.742238641E0,-7.384940386E-1,4.945486486E-1
4.619336932E0,2.164083004E0,-1.345694304E0,4.215780795E-1
4.639518495E0,2.208291531E0,-1.396826982E0,4.620580971E-1
4.659701724E0,1.980857730E0,-1.390967965E0,3.784348965E-1
4.679886724E0,1.812546134E0,-1.395761728E0,2.053295672E-1
4.700073599E0,1.747565031E0,-1.566203833E0,3.222422674E-2
4.720262349E0,1.806154490E0,-1.895370364E0,-1.677790284E-2
4.740452870E0,1.786979795E0,-2.340117931E0,1.392832249E-1
4.760645057E0,1.447693229E0,-2.562225342E0,2.239716798E-1
4.780838703E0,7.084003091E-1,-2.112684011E0,1.525990218E-1
4.801033495E0,-1.901495606E-1,-1.366999626E0,4.074633494E-2
4.821229120E0,-1.049284697E0,-6.708498001E-1,-5.246423557E-2
4.841425265E0,-1.429051161E0,-4.524707198E-1,-4.021370411E-2
4.861621620E0,-6.812360883E-1,-9.446225166E-1,9.560741484E-2
4.881816724E0,-3.195790946E-1,-2.202432603E-1,1.312937438E-1
4.902005265E0,2.769685388E-1,1.069258332E0,-6.471476704E-2
4.922188390E0,5.789707899E-1,1.030642539E-1,3.009369783E-2
4.942371932E0,5.539370775E-1,-9.350351691E-1,1.824263930E-1
4.962555995E0,1.629853398E-1,-9.616667628E-1,7.723161485E-3
4.982740786E0,-1.826927215E-1,-8.370308876E-1,-4.024033546E-1
5.002926411E0,1.725727171E-1,-7.597993016E-1,-1.254348010E-1
5.023112974E0,8.420909047E-1,-2.026664019E-1,5.217128396E-1
5.043300474E0,-5.102612972E-1,4.908202291E-1,2.335590571E-1
5.063488911E0,-1.650093436E0,7.805719376E-1,-1.755021811E-1
5.083678286E0,-1.654354453E0,1.286572218E0,-3.129211962E-1
5.103868495E0,-2.155560970E0,2.230928421E0,-4.098601937E-1
5.124059432E0,-3.057306767E0,3.200318336E0,-4.860265255E-1
5.144250995E0,-3.304447889E0,3.511907816E0,-3.374222517E-1
5.164463026E0,-2.852243423E0,3.111368895E0,-1.190432087E-1
5.184638599E0,-1.999499798E0,2.217079878E0,-1.174453199E-1
5.204814901E0,-1.241032124E0,1.536909103E0,-2.756369710E-1
5.224992349E0,-1.032773137E0,7.395592928E-1,-2.537990510E-1
5.245171359E0,-1.143027902E0,-8.495477587E-2,9.614004195E-2
5.265352297E0,-1.110537291E0,-2.921485603E-1,2.239716798E-1
5.285535370E0,-1.015196204E0,-1.904158741E-1,2.103895694E-2
5.305720682E0,-9.896299243E-1,-1.328916401E-1,-2.202432603E-1
5.325908286E0,-1.047154188E0,-1.994706094E-1,-4.077296555E-1
5.346098130E0,-1.149419427E0,-2.069274634E-1,-5.062665343E-1
5.366290057E0,-1.184040546E0,-9.454214573E-2,-5.110602379E-1
5.386483859E0,-1.097754240E0,2.583264373E-2,-3.640538454E-1
5.406679276E0,-9.859014750E-1,3.462106921E-3,-1.744369268E-1
5.426875942E0,-9.922930598E-1,-1.653821766E-1,-1.584579647E-1
5.447073495E0,-1.162735224E0,-2.974748611E-1,-2.378201038E-1
5.467271567E0,-1.336373210E0,-2.303632647E-1,-3.544664681E-1
5.487469015E0,-1.257011056E0,-1.331579522E-3,-4.759065211E-1
5.507661620E0,-8.143940568E-1,3.374222517E-1,-6.053360701E-1
5.527855578E0,-2.146506310E-1,5.020055175E-1,-6.804371476E-1
5.548044120E0,1.677790284E-1,2.037316710E-1,-7.337003350E-1
5.568222036E0,5.273054913E-2,-3.443464637E-1,-6.889592409E-1
5.588400578E0,-3.818970025E-1,-8.103992939E-1,-3.741738498E-1
5.608580109E0,-4.277033508E-1,-8.327698708E-1,8.548741043E-2
5.628760942E0,1.043958366E-1,-2.245043069E-1,5.339633822E-1
5.648943338E0,1.128114223E0,2.074600905E-1,8.892288208E-1
5.669127453E0,2.013880968E0,4.791023135E-1,9.984183311E-1
5.689313390E0,2.833068609E0,8.056056499E-1,9.478183389E-1
5.709501203E0,3.349721432E0,8.748477697E-1,1.006940484E0
5.729690838E0,3.240531921E0,1.154479504E0,1.161936283E0
5.749882192E0,2.410691738E0,2.275669336E0,1.108673096E0
5.770075057E0,1.186171055E0,3.639206886E0,9.568730593E-1
5.790269172E0,4.372907281E-1,3.667968988E0,8.977509141E-1
5.810464276E0,6.657897830E-1,2.396576881E0,8.306393027E-1
5.830660057E0,1.334775329E0,6.905571818E-1,5.595297217E-1
5.850856203E0,1.777925014E0,-5.281044245E-1,2.527337968E-1
5.871051932E0,1.903093457E0,-8.428898454E-1,1.142495275E-1
5.891243807E0,1.958487153E0,-3.043990731E-1,1.243695319E-1
5.911429640E0,1.945171356E0,4.394212365E-2,2.583264373E-2
5.931612974E0,1.711346030E0,-4.253064990E-1,-5.779055133E-2
5.951796776E0,1.368331194E0,-1.064464688E0,-1.997369342E-2
5.971981203E0,1.047686815E0,-1.511342764E0,-6.950845569E-2
5.992166411E0,5.336970687E-1,-1.625858665E0,-1.856221855E-1
6.012352505E0,-1.960085034E-1,-1.300420642E0,-2.516685426E-1
6.032539536E0,-9.092025161E-1,-7.006771564E-1,-2.410158962E-1
6.052727505E0,-1.522794366E0,9.187898785E-2,-1.350221634E-1
6.072916411E0,-1.757152319E0,7.635276914E-1,1.145158429E-2
6.093106203E0,-1.319861650E0,8.876309395E-1,1.414137483E-1
6.113296776E0,-8.617982864E-1,6.356960535E-1,2.308958918E-1
6.133488026E0,-1.507348120E-1,5.605949759E-1,1.616537571E-1
6.153710474E0,3.621896505E-1,1.206411049E-1,-5.060002208E-3
6.173883182E0,7.542066574E-1,-2.263685316E-2,-5.352949724E-2
6.194056515E0,7.131940126E-1,-2.261022031E-1,-2.239716798E-1
6.214230995E0,2.822948694E-1,-6.926876903E-1,-5.291697383E-1
6.234407140E0,-6.285055727E-2,-5.925529003E-1,-8.237150908E-1
6.254585370E0,2.604569495E-1,-2.117211521E-1,-3.885549009E-1
6.274765995E0,1.901495606E-1,2.063948363E-1,3.480748832E-1
6.294949328E0,-1.188834190E0,-1.334242672E-1,2.783001363E-1
6.315135370E0,-1.925464034E0,1.057540536E0,-2.186453640E-1
6.335324120E0,-2.011750460E0,2.007755756E0,-5.829655528E-1
6.355515474E0,-1.998434544E0,2.458362103E0,-5.669865608E-1
6.375709224E0,-2.230129480E0,2.633065462E0,-3.581948876E-1
6.395905057E0,-2.405897856E0,2.497776985E0,-2.468748540E-1
6.416102661E0,-2.258358955E0,2.107890368E0,-2.229064107E-1
6.436301515E0,-1.860482931E0,1.598694444E0,-1.573926955E-1
6.456501203E0,-1.507348061E0,1.176317334E0,-7.376950979E-2
6.476701203E0,-1.544099689E0,6.319676638E-1,2.583264373E-2
6.496899536E0,-1.579785943E0,4.050664902E-1,1.877527237E-1
6.517087974E0,-1.274055362E0,7.651256323E-1,2.170474678E-1
6.537287245E0,-9.795098901E-1,1.122521520E0,7.989477599E-4
6.557465057E0,-8.878972530E-1,1.090031028E0,-2.697780132E-1
6.577643286E0,-9.523456693E-1,8.141277432E-1,-4.897549450E-1
6.597822245E0,-1.090297341E0,6.016076207E-1,-6.271739602E-1
6.618002349E0,-1.061002612E0,5.866939425E-1,-5.366265774E-1
6.638183911E0,-7.872298360E-1,5.712476373E-1,-2.969422340E-1
6.658367140E0,-6.663224101E-1,3.363569975E-1,-2.159821987E-1
6.678552140E0,-8.229161501E-1,-5.060002208E-3,-2.740390599E-1
6.698739015E0,-8.074698448E-1,-1.712411344E-1,-3.352917433E-1
6.718927765E0,-5.720465779E-1,-2.021337748E-1,-4.301002026E-1
6.739118286E0,-3.121222556E-1,-1.648495495E-1,-5.414202213E-1
6.759310370E0,-6.764423847E-2,-1.233042628E-1,-5.621928573E-1
6.779503807E0,-5.219791830E-2,-1.408811212E-1,-3.901528120E-1
6.799698390E0,-1.715074480E-1,-1.802958697E-1,-1.467400640E-1
6.819893807E0,-2.423474789E-1,-2.511359155E-1,-7.376950979E-2
6.840089745E0,-3.957454562E-1,-2.085253596E-1,-1.105211005E-1
6.860285890E0,-3.126548827E-1,3.009369783E-2,-1.707084924E-1
6.880481307E0,1.235705838E-1,1.557948142E-1,-2.223737836E-1
6.900669849E0,5.310339332E-1,2.463422120E-1,-1.531316489E-1
6.920858286E0,1.246358514E0,3.454117477E-1,1.472726911E-1
6.941041307E0,2.107091427E0,6.708498001E-1,5.558013320E-1
6.961224745E0,3.120157242E0,1.157142639E0,7.241129875E-1
6.981408807E0,3.746532202E0,7.901592851E-1,7.949529886E-1
7.001593599E0,3.446127892E0,3.382211924E-2,8.594014645E-1
7.021779224E0,2.565154791E0,-1.462074369E-1,7.230476737E-1
7.041965786E0,1.630918622E0,2.756369710E-1,4.567317963E-1
7.062153286E0,1.235173225E0,9.739173055E-1,3.438138366E-1
7.082341724E0,1.438638568E0,1.264201641E0,5.819002390E-1
7.102531099E0,1.720933437E0,3.736412227E-1,8.418245912E-1
7.122721307E0,1.842373490E0,-1.220525861E0,9.936246872E-1
7.142912245E0,1.872733474E0,-2.210155725E0,9.510141015E-1
7.162906515E0,1.738510251E0,-2.537724257E0,6.687192321E-1
7.182917036E0,1.551556468E0,-2.481265306E0,3.736412227E-1
7.202950265E0,1.445030093E0,-2.310290575E0,2.633864284E-1
7.223011515E0,1.482314348E0,-2.345976830E0,2.612559199E-1
7.243104745E0,1.441834331E0,-2.532930613E0,3.667170107E-1
7.263232557E0,1.011467814E0,-2.531865358E0,5.036033988E-1
7.283395995E0,1.539305896E-1,-2.141978979E0,4.524707198E-1
7.303594640E0,-7.728487849E-1,-1.396294355E0,2.537990510E-1
7.323826620E0,-1.463672280E0,-7.837677002E-1,1.169126853E-1
7.344088911E0,-1.442366958E0,-8.103992939E-1,2.063948363E-1
7.364377349E0,-5.773729086E-1,-1.426654339E0,3.555317521E-1
7.384686828E0,4.207791388E-2,-8.727172613E-1,4.759065211E-1
7.405011724E0,8.378298283E-1,4.908202291E-1,3.629885912E-1
7.425345995E0,6.162550449E-1,2.585927546E-1,4.492749274E-1
7.445683390E0,-1.704421826E-2,-4.157191217E-1,4.881570637E-1
7.465948286E0,-6.711161137E-2,-1.357412219E0,3.768370152E-1
7.486136724E0,-3.142527863E-2,-2.132924080E0,-6.471476704E-2
7.506335995E0,6.338318437E-2,-1.525191188E0,-2.530001104E-2
7.526513807E0,1.826927215E-1,-3.411506712E-1,3.028011918E-1
7.546692036E0,-2.514022291E-1,-3.544664681E-1,-1.051947847E-1
7.566870995E0,-6.812360883E-1,6.418213248E-2,-5.334307551E-1
7.587051099E0,-1.458878517E0,5.494097471E-1,-3.464770019E-1
7.607232661E0,-2.328133583E0,9.787109494E-1,-2.575274706E-1
7.627415890E0,-2.588057995E0,1.981656671E0,-4.189149141E-1
7.647600890E0,-2.027196646E0,2.580334902E0,-5.616602302E-1
7.667819172E0,-1.021055222E0,1.929991364E0,-5.904223919E-1
7.688021880E0,-3.787012100E-1,7.613971829E-1,-5.755086541E-1
7.708207713E0,-6.476802826E-1,-3.896201849E-1,-3.858917654E-1
7.728391047E0,-1.252750039E0,-1.011734128E0,8.335687965E-2
7.748574849E0,-1.182975292E0,-7.954856157E-1,5.861613154E-1
7.768759276E0,-8.293077350E-1,-3.757717609E-1,6.138581634E-1
7.788944484E0,-7.323687673E-1,-2.596580088E-1,3.661843836E-1
7.809130578E0,-9.108003974E-1,-4.002728164E-1,1.589905918E-1
7.829317609E0,-1.221324801E0,-5.249086618E-1,-3.808317333E-2
7.849505578E0,-1.385908008E0,-5.270391703E-1,-2.580601275E-1
7.869694484E0,-1.269261599E0,-3.283675313E-1,-4.721781015E-1
7.889884276E0,-1.085503697E0,-8.229161799E-2,-5.840308070E-1
7.910074849E0,-9.459540844E-1,-5.193160102E-2,-5.771065950E-1
7.930266099E0,-8.064045906E-1,-3.235738277E-1,-5.046686530E-1
7.950457922E0,-8.351666927E-1,-7.289066315E-1,-4.476770461E-1
7.970650161E0,-1.075916290E0,-1.037833095E0,-4.013380706E-1
7.990842609E0,-1.193095326E0,-1.043159366E0,-3.693801761E-1
8.011040526E0,-9.044088125E-1,-6.159886718E-1,-4.061317742E-1
8.031231567E0,-4.271707237E-1,-1.488705873E-1,-4.364917874E-1
8.051410474E0,-2.183790505E-2,-7.803056389E-2,-4.705802202E-1
8.071589901E0,1.597895473E-1,-3.826959729E-1,-4.902876019E-1
8.091770213E0,4.580633715E-2,-7.928224802E-1,-4.380896688E-1
8.111951672E0,1.171789970E-2,-1.049551010E0,-3.118559420E-1
8.132134484E0,1.257011145E-1,-9.616667628E-1,-8.974846452E-2
8.152318859E0,7.787077427E-1,-6.815024018E-1,1.920137703E-1
8.172504901E0,1.628255486E0,-4.492749274E-1,4.460791349E-1
8.192692609E0,2.345177889E0,1.525990218E-1,5.829655528E-1
8.212881984E0,3.161169767E0,4.514054656E-1,5.408875942E-1
8.233072922E0,3.585677385E0,4.231759906E-1,6.079992056E-1
8.253265265E0,3.247456312E0,6.367613673E-1,7.518098354E-1
8.273458807E0,2.287121058E0,1.272191048E0,7.986814380E-1
8.293653286E0,1.277783751E0,2.106292486E0,7.954856157E-1
8.313848442E0,9.363667369E-1,2.250103235E0,7.800393105E-1
8.334043963E0,1.245293140E0,1.135837317E0,7.550055981E-1
8.354239484E0,1.680986047E0,-4.135886133E-1,8.183888197E-1
8.374431463E0,1.972868204E0,-1.406946898E0,8.823046088E-1
8.394617297E0,1.948899865E0,-1.634380698E0,8.359656334E-1
8.414800630E0,1.743836522E0,-1.610944986E0,6.900244951E-1
8.434984432E0,1.559545994E0,-1.909218788E0,4.551338851E-1
8.455168859E0,1.558480740E0,-2.445579052E0,2.404832691E-1
8.475354067E0,1.679388165E0,-2.815758228E0,1.515337527E-1
8.495540161E0,1.639973402E0,-2.804572821E0,2.436790615E-1
8.515727192E0,1.255413175E0,-2.546779156E0,4.577970505E-1
8.535915161E0,4.335623085E-1,-1.892174602E0,5.078644156E-1
8.556104067E0,-6.231792569E-1,-8.444877267E-1,3.358243704E-1
8.576293859E0,-1.504684925E0,9.400951862E-2,1.344895363E-1
8.596484432E0,-1.617602825E0,6.205160543E-2,1.163800508E-1
8.616675682E0,-7.366297841E-1,-7.885614038E-1,1.978727281E-1
8.636867505E0,-2.940127552E-1,-9.323719740E-1,3.400854170E-1
8.657080057E0,6.332992315E-1,3.704454303E-1,2.042642981E-1
8.677259328E0,9.619330764E-1,5.036033988E-1,1.728390306E-1
8.697438911E0,2.833601236E-1,-2.689790726E-2,2.351569533E-1
8.717619120E0,-5.054675937E-1,-2.980075181E-1,-9.614004195E-2
8.737800265E0,-5.528718233E-1,-7.315698266E-1,-5.185170770E-1
8.757982661E0,7.861645818E-1,-8.242477179E-1,-7.004108280E-2
8.778166515E0,1.316133261E0,-5.222455263E-1,4.093275666E-1
8.798351932E0,-4.703139067E-1,-6.570013762E-1,4.820318148E-2
8.818539015E0,-1.654354453E0,4.561991692E-1,-2.484727502E-1
8.838727661E0,-1.804023981E0,1.451155424E0,-2.127864063E-1
8.858917870E0,-2.153963089E0,2.400305271E0,-2.431464195E-1
8.879109536E0,-2.584329605E0,3.050648689E0,-3.491401672E-1
8.899302453E0,-2.557698011E0,3.235471964E0,-3.001380265E-1
8.919496411E0,-2.128929377E0,2.704970598E0,-2.356895804E-1
8.939691099E0,-1.598428130E0,1.633848071E0,-3.059969842E-1
8.959886203E0,-1.209074259E0,6.261087060E-1,-2.916159332E-1
8.980081515E0,-1.073253155E0,-1.099884734E-1,-1.552621722E-1
9.000275682E0,-1.096688867E0,-3.299654126E-1,4.127896577E-2
9.020464224E0,-1.071122646E0,-3.488738462E-2,2.069274634E-1
9.040663599E0,-1.051947832E0,3.267696202E-1,1.499358565E-1
9.060841307E0,-1.115331054E0,4.370244145E-1,-5.299686641E-2
9.081019432E0,-1.183507919E0,3.523359597E-1,-2.655169666E-1
9.101198390E0,-1.172322631E0,2.090579867E-1,-4.412854612E-1
9.121378495E0,-1.112667918E0,8.708529919E-2,-5.494097471E-1
9.141560057E0,-1.114265800E0,8.016108721E-2,-4.945486486E-1
9.161743286E0,-1.105743647E0,1.238368973E-1,-3.225085735E-1
9.181928286E0,-1.032773137E0,1.169126853E-1,-2.245043069E-1
9.202115161E0,-1.023185730E0,2.370211668E-2,-2.878875136E-1
9.222303911E0,-1.175518394E0,-1.589905918E-1,-3.821633458E-1
9.242494432E0,-1.329981685E0,-3.592601717E-1,-4.769718051E-1
9.262686515E0,-1.070057273E0,-1.781653464E-1,-6.287718415E-1
9.282880057E0,-4.394212663E-1,2.708432674E-1,-7.640603185E-1
9.303074745E0,-6.924213842E-3,3.709780574E-1,-7.321024537E-1
9.323270265E0,-6.711161137E-2,-6.844318658E-2,-5.435507894E-1
9.343466307E0,-4.346275628E-1,-7.107971907E-1,-2.788327634E-1
9.363662557E0,-6.450171471E-1,-9.968204498E-1,-7.749792933E-2
9.383857661E0,-4.767054915E-1,-7.150582075E-1,4.181159660E-2
9.404046203E0,1.656484902E-1,-1.898832470E-1,1.877527237E-1
9.424229328E0,1.165398479E0,-1.850895584E-1,3.747064769E-1
9.444412870E0,1.719335556E0,-3.565970063E-1,5.749760270E-1
9.464596932E0,2.180594683E0,5.193160102E-2,7.693866491E-1
9.484781724E0,3.021087646E0,7.177214026E-1,8.226498365E-1
9.504967349E0,3.506847858E0,1.162468910E0,7.640603185E-1
9.525153911E0,3.126548767E0,1.900164008E0,7.848330140E-1
9.545341411E0,2.070872545E0,2.864760160E0,7.113298178E-1
9.565529849E0,9.970867634E-1,3.095389843E0,5.712476373E-1
9.585719224E0,7.419561148E-1,2.035985231E0,5.153213143E-1
9.605909432E0,1.246358514E0,5.360939503E-1,4.631233811E-1
9.626100370E0,1.831720829E0,-4.929507375E-1,3.773696423E-1
9.646291932E0,2.100699902E0,-1.049551010E0,3.629885912E-1
9.666501099E0,1.699628115E0,-3.246390820E-1,3.608580530E-1
9.686681567E0,1.755554438E0,-6.069339514E-1,3.512706757E-1
9.706862505E0,1.888712406E0,-1.441035390E0,3.062633052E-2
9.727044172E0,1.773663998E0,-1.820269227E0,-1.664474458E-1
9.747226776E0,1.598960757E0,-2.048235655E0,-2.743053809E-2
9.767410526E0,1.277783751E0,-2.081258774E0,2.452769578E-1
9.787595578E0,6.540718675E-1,-1.773397684E0,3.177148700E-1
9.807782036E0,-1.938779801E-1,-1.192296386E0,1.568600684E-1
9.827969953E0,-1.032773137E0,-4.636560082E-1,6.125265732E-3
9.848159276E0,-1.707085013E0,3.443464637E-1,1.731053367E-2
9.868349901E0,-1.691638708E0,7.273087502E-1,1.504684836E-1
9.888541672E0,-7.440866828E-1,-1.997369342E-2,2.793653905E-1
9.908734432E0,1.384842768E-2,-3.049317300E-1,3.763043880E-1
9.928927974E0,7.302381992E-1,-8.788425475E-3,1.552621722E-1
9.949122036E0,9.560741186E-1,-4.812328517E-1,6.045371294E-2
9.969316411E0,6.135918498E-1,-9.606015086E-1,7.163897902E-2
9.989510682E0,1.789642870E-1,-1.049551010E0,3.462106921E-3
1.000970198E1,-9.054741263E-2,-1.166730046E0,-2.442116886E-1
1.002989047E1,-1.800295562E-1,-1.425056458E0,-4.540686309E-1
1.005008433E1,4.394212663E-1,-7.102645040E-1,1.909485012E-1
1.007027287E1,3.259706795E-1,2.868222296E-1,5.472791791E-1
1.009045089E1,-8.250467181E-1,2.996053994E-1,3.169159219E-2
1.011062948E1,-1.507348061E0,9.978857040E-1,-3.928159773E-1
1.013080902E1,-1.857819796E0,1.670067072E0,-3.944138587E-1
1.015098985E1,-2.495380163E0,2.220275640E0,-3.347590864E-1
1.017117225E1,-2.876211882E0,2.691122293E0,-3.187801540E-1
1.019135636E1,-2.532131672E0,2.980874062E0,-2.495380044E-1
1.021154230E1,-1.838112354E0,2.666088581E0,-2.261022031E-1
1.023173011E1,-1.291099548E0,1.729721785E0,-3.182475269E-1
1.025191974E1,-1.030109882E0,5.046686530E-1,-2.894853950E-1
1.027211105E1,-9.448888302E-1,-4.487423003E-1,-7.190529723E-3
1.029230381E1,-8.836361766E-1,-4.902876019E-1,2.617885470E-1
1.031249782E1,-9.038761854E-1,-1.518000662E-2,2.958769798E-1
1.033269282E1,-1.029044628E0,2.671148479E-1,1.403484792E-1
1.035288850E1,-1.181910038E0,2.500706315E-1,-8.761793375E-2
1.037308454E1,-1.267131090E0,1.904158741E-1,-2.825611830E-1
1.039328037E1,-1.196823716E0,2.223737836E-1,-4.295675755E-1
1.041347240E1,-1.081775188E0,3.091927767E-1,-5.211802125E-1
1.043365823E1,-1.033305764E0,3.352917433E-1,-4.876244366E-1
1.045384157E1,-9.965541363E-1,1.781653464E-1,-3.374222517E-1
1.047402537E1,-9.550088644E-1,-1.211737394E-1,-2.596580088E-1
1.049420980E1,-9.731183648E-1,-3.704454303E-1,-3.017359376E-1
1.051439500E1,-1.064731002E0,-5.398223400E-1,-3.486075401E-1
1.053458110E1,-1.162202597E0,-6.032055616E-1,-3.922833502E-1
1.055476813E1,-1.017326832E0,-3.470096290E-1,-4.727107286E-1
1.057495610E1,-5.102612972E-1,1.685779691E-1,-5.238434076E-1
1.059514501E1,-6.711161137E-2,4.114580750E-1,-4.764391780E-1
1.061533480E1,6.391582079E-3,1.621863842E-1,-3.358243704E-1
1.063552537E1,-2.375537902E-1,-2.580601275E-1,-1.739042848E-1
1.065574292E1,-4.063980877E-1,-3.720433414E-1,-9.081372619E-2
1.067592323E1,-2.822948694E-1,-2.628538013E-1,-5.033370852E-2
1.069610386E1,-7.989477366E-2,-3.435475379E-2,-2.796317078E-2
1.071628511E1,7.089329362E-1,4.554001987E-2,1.142495275E-1
1.073646719E1,1.515337586E0,-1.414137483E-1,4.498075843E-1
1.075665032E1,2.009087324E0,1.041295230E-1,8.109319210E-1
1.077683469E1,2.804839134E0,5.036033988E-1,9.323719740E-1
1.079702042E1,3.531348944E0,6.820350289E-1,7.928224802E-1
1.081720761E1,3.394462585E0,1.217329979E0,7.592666745E-1
1.083739626E1,2.488455772E0,2.257560015E0,7.203845382E-1
1.085758626E1,1.311339498E0,3.191263437E0,6.149234176E-1
1.087777751E1,6.972150803E-1,2.627206564E0,4.657865167E-1
1.089796980E1,9.150614738E-1,8.338351250E-1,3.736412227E-1
1.091816303E1,1.512674332E0,-4.157191217E-1,3.166496158E-1
1.093835688E1,2.129994631E0,-1.039963603E0,3.406180441E-1
1.095855115E1,2.227466345E0,-1.224786878E0,3.145190775E-1
1.097874563E1,1.987249374E0,-1.039430976E0,2.197106332E-1
1.099893969E1,1.773131371E0,-9.430246353E-1,9.933583438E-2
1.101912823E1,1.663941860E0,-1.280180573E0,1.464737486E-2
1.103932761E1,1.601623893E0,-1.899098754E0,9.347688407E-2
1.105950532E1,1.406680584E0,-2.393381119E0,2.942790687E-1
1.107968344E1,8.894951344E-1,-2.437589645E0,4.396875799E-1
1.109986240E1,1.086568907E-1,-1.955557704E0,4.412854612E-1
1.112004250E1,-7.510108948E-1,-1.151283622E0,3.470096290E-1
1.114022407E1,-1.549958587E0,-2.314285189E-1,2.788327634E-1
1.116040730E1,-1.578188062E0,1.446095407E-1,2.367548496E-1
1.118059230E1,-4.868254960E-1,-5.323655009E-1,2.026664019E-1
1.120077917E1,1.619200706E-1,-3.555317521E-1,2.346243113E-1
1.122096792E1,7.574024200E-1,3.470096290E-1,4.340949282E-2
1.124115844E1,8.692551255E-1,-4.013380706E-1,1.701758653E-1
1.126135063E1,3.249054253E-1,-8.167908788E-1,2.159821987E-1
1.128154417E1,-7.350318879E-2,-6.053360701E-1,4.820318148E-2
1.130173886E1,2.450106293E-2,-7.933551073E-1,-3.480748832E-1
1.132193438E1,3.499391079E-1,-8.178561330E-1,-3.454117477E-1
1.134213042E1,5.970802903E-1,-6.101297736E-1,2.495380044E-1
1.136232667E1,-9.374319762E-2,-6.404897571E-1,2.601906359E-1
1.138252188E1,-1.294827938E0,2.378201038E-1,-4.021370411E-2
1.140271042E1,-2.240249395E0,6.095971465E-1,4.660528526E-2
1.142289355E1,-2.651441097E0,1.312671065E0,1.784316637E-2
1.144307709E1,-2.690323353E0,2.599509716E0,-2.894853950E-1
1.146326115E1,-2.437323093E0,3.534278393E0,-5.014728308E-1
1.148344594E1,-2.288186312E0,3.421360493E0,-5.083971024E-1
1.150363157E1,-2.092710495E0,2.499907494E0,-5.259739161E-1
1.152381813E1,-1.672996521E0,1.350487947E0,-4.801675975E-1
1.154400563E1,-1.202149987E0,2.537990510E-1,-3.246390820E-1
1.156419407E1,-9.741836190E-1,-4.466117918E-1,-1.595232338E-1
1.158438344E1,-9.491499066E-1,-4.551338851E-1,3.169159219E-2
1.160457365E1,-9.795098901E-1,-5.592633970E-3,1.717737615E-1
1.162476459E1,-1.035968900E0,4.727107286E-1,9.241162241E-2
1.164495615E1,-1.108406782E0,6.346307993E-1,-9.614004195E-2
1.166516860E1,-1.174985766E0,5.723128915E-1,-2.628538013E-1
1.168534313E1,-1.208009005E0,4.189149141E-1,-4.327633679E-1
1.170551844E1,-1.198954225E0,3.289001584E-1,-5.227781534E-1
1.172569506E1,-1.027446747E0,2.708432674E-1,-3.741738498E-1
1.174587339E1,-7.914909124E-1,8.255792782E-3,-2.564622164E-1
1.176605376E1,-7.909582257E-1,-4.450138807E-1,-3.491401672E-1
1.178623641E1,-9.864341021E-1,-8.647277355E-1,-4.423507154E-1
1.180642152E1,-1.062067866E0,-8.934898973E-1,-5.078644156E-1
1.182660912E1,-9.166593552E-1,-5.462139249E-1,-5.669865608E-1
1.184679917E1,-6.348971128E-1,-1.376853287E-1,-5.872265697E-1
1.186699152E1,-3.414169848E-1,2.210422046E-2,-5.222455263E-1
1.188718589E1,-1.454084814E-1,-4.181159660E-2,-3.949464858E-1
1.190738198E1,-4.101264849E-2,-2.000032514E-1,-2.186453640E-1
1.192757943E1,-1.310274303E-1,-3.273022473E-1,-1.494032294E-1
1.194777782E1,-1.075916290E-1,-3.581948876E-1,-1.494032294E-1
1.196797672E1,6.285055727E-2,-3.502054214E-1,-1.595232338E-1
1.198817433E1,5.539370775E-1,-2.218411565E-1,-1.163800508E-1
1.200836667E1,1.351286888E0,-5.142560005E-1,1.952095628E-1
1.202856063E1,1.817339778E0,-7.177214026E-1,6.314350367E-1
1.204874917E1,2.298838854E0,-1.589905918E-1,9.563404322E-1
1.206892698E1,3.242662430E0,6.878939867E-1,8.583361506E-1
1.208910553E1,3.607515335E0,1.433578491E0,7.193192840E-1
1.210928500E1,2.916159153E0,2.361423254E0,7.315698266E-1
1.212946573E1,1.681518674E0,2.903109789E0,5.792371035E-1
1.214964803E1,8.889625072E-1,2.524408579E0,4.151864946E-1
1.216985912E1,1.032773137E0,1.333976388E0,3.262369931E-1
1.219006126E1,1.630918622E0,1.997369342E-2,2.010685056E-1
1.221025214E1,2.169409513E0,-9.275783300E-1,1.531316489E-1
1.223044073E1,2.238651514E0,-1.156610012E0,2.127864063E-1
1.225062657E1,1.957421899E0,-8.657930493E-1,2.772348523E-1
1.227080990E1,1.744369268E0,-9.701888561E-1,2.681801319E-1
1.229099370E1,1.694834471E0,-1.413871169E0,9.241162241E-2
1.231117813E1,1.595232248E0,-1.699894428E0,8.388951421E-2
1.233136334E1,1.399756432E0,-2.078063011E0,3.075948656E-1
1.235154943E1,1.121722579E0,-2.524408579E0,5.462139249E-1
1.237173646E1,6.242445111E-1,-2.485526323E0,6.415550113E-1
1.239192443E1,-1.486042738E-1,-1.883119822E0,6.218476295E-1
1.241211334E1,-1.030642629E0,-1.009603620E0,5.147886276E-1
1.243230313E1,-1.488705993E0,-3.235738277E-1,3.496727943E-1
1.245249370E1,-5.853623748E-1,-5.765739679E-1,2.442116886E-1
1.247268495E1,2.130527236E-2,-5.856286883E-1,3.161169887E-1
1.249287678E1,3.462106884E-1,1.004010960E-1,3.145190775E-1
1.251306902E1,5.161202550E-1,1.067926809E-1,4.066644013E-1
1.253326152E1,2.748380303E-1,-6.791055948E-2,5.707150102E-1
1.255345954E1,-4.101264849E-2,-4.327633679E-1,6.085318327E-1
1.257365084E1,-4.154528305E-2,-1.319062710E0,2.522011697E-1
1.259383016E1,-2.822948620E-2,-1.851694465E0,-5.566002429E-2
1.261400995E1,3.771033287E-1,-1.147555232E0,5.126581192E-1
1.263419053E1,4.277033508E-1,-1.376853287E-1,7.086666226E-1
1.265426157E1,-4.293012619E-1,-3.810980618E-1,1.944106072E-2
1.267423219E1,-8.862993717E-1,3.651190996E-1,-1.909485012E-1
1.269422579E1,-1.441834331E0,5.643234253E-1,-2.378201038E-1
1.271424922E1,-2.366483212E0,1.133174181E0,-4.189149141E-1
1.273430787E1,-2.925214052E0,2.588856936E0,-5.270391703E-1
1.275440553E1,-2.837329626E0,3.305779457E0,-5.174518228E-1
1.277454428E1,-2.228531599E0,2.558496952E0,-5.046686530E-1
1.279472443E1,-1.432779551E0,1.250353217E0,-5.850960612E-1
1.281494469E1,-8.527435660E-1,3.368896246E-1,-5.371592045E-1
1.283520219E1,-7.153245211E-1,-3.906854391E-1,-1.579253376E-1
1.285549266E1,-7.078676820E-1,-6.719150543E-1,3.214432895E-1
1.287581073E1,-7.536740303E-1,-3.113232851E-1,4.482096732E-1
1.289615016E1,-9.054740667E-1,5.033370852E-2,3.033338189E-1
1.291650402E1,-1.086568952E0,6.737792492E-2,7.483477145E-2
1.293686511E1,-1.210139513E0,-3.648528084E-2,-1.962748319E-1
1.295718475E1,-1.169126868E0,-1.411474310E-2,-4.109254479E-1
1.297741719E1,-1.028512001E0,1.233042628E-1,-5.350286365E-1
1.299760303E1,-9.033435583E-1,2.149169445E-1,-5.472791791E-1
1.301778636E1,-8.202530146E-1,8.815056831E-2,-4.071970284E-1
1.303797016E1,-7.488803267E-1,-2.101232558E-1,-2.884201407E-1
1.305815459E1,-8.117309213E-1,-5.302349925E-1,-3.033338189E-1
1.307833980E1,-1.027446747E0,-7.352982163E-1,-3.496727943E-1
1.309852589E1,-1.132907867E0,-6.996119022E-1,-4.263717830E-1
1.311871292E1,-8.916256428E-1,-3.752391040E-1,-5.531381369E-1
1.313890089E1,-4.394212663E-1,3.462106921E-3,-6.346307993E-1
1.315910672E1,-2.093243003E-1,2.370211668E-2,-5.062665343E-1
1.317930277E1,-2.530001104E-1,-2.170474678E-1,-2.500706315E-1
1.319949131E1,-2.039979845E-1,-2.617885470E-1,-2.239716798E-1
1.321969068E1,9.534109384E-2,-2.697780132E-1,-3.763043880E-1
1.323986850E1,3.078611791E-1,-6.426202655E-1,-4.833633900E-1
1.326004672E1,4.367581010E-1,-1.274854302E0,-3.667170107E-1
1.328022568E1,8.516782522E-1,-1.825595617E0,6.897582114E-2
1.330040579E1,1.208009005E0,-1.321725845E0,5.313002467E-1
1.332058735E1,1.958487153E0,3.054643571E-1,7.432876825E-1
1.334077058E1,3.218161345E0,1.466601729E0,5.914876461E-1
1.336095558E1,3.806719542E0,1.446361661E0,4.599275887E-1
1.338114245E1,3.311372042E0,9.819067717E-1,4.940160215E-1
1.340133120E1,2.456497908E0,4.008054435E-1,4.865591824E-1
1.342152172E1,1.776859760E0,-2.191779912E-1,3.970770240E-1
1.344171391E1,1.502554417E0,-7.102645040E-1,3.400854170E-1
1.346190756E1,1.642636538E0,-5.856286883E-1,4.444812536E-1
1.348210235E1,2.046371460E0,-7.989477599E-4,7.145255804E-1
1.350229797E1,2.264750481E0,-1.435442716E-1,9.382309318E-1
1.352249412E1,2.020272493E0,-9.462204576E-1,8.902940750E-1
1.354269047E1,1.699628115E0,-1.696166039E0,6.271739602E-1
1.356288537E1,1.507348061E0,-1.857553482E0,4.247738719E-1
1.358307391E1,1.454617500E0,-1.631184936E0,5.398223400E-1
1.360325704E1,1.434377551E0,-1.797898769E0,7.640603185E-1
1.362344058E1,1.425322771E0,-2.309225321E0,7.555382252E-1
1.364362464E1,1.246358514E0,-2.435991526E0,5.771065950E-1
1.366380943E1,7.302381992E-1,-1.943839788E0,4.071970284E-1
1.368399506E1,-6.018739566E-2,-1.263136387E0,2.463422120E-1
1.370418162E1,-8.894951344E-1,-7.843003273E-1,6.045371294E-2
1.372436912E1,-1.285240531E0,-9.265130758E-1,-1.145158429E-2
1.374455756E1,-8.154593110E-1,-1.657816529E0,2.191779912E-1
1.376474693E1,-5.603286624E-1,-1.713210225E0,5.281044245E-1
1.378493714E1,2.396843210E-2,-1.265000552E-1,5.520728827E-1
1.380512808E1,5.017392039E-1,8.386288285E-1,5.131907463E-1
1.382531964E1,2.391516864E-1,6.538055539E-1,6.064013243E-1
1.384551172E1,-5.326318368E-2,-8.708529919E-2,5.829655528E-1
1.386570412E1,-7.616634667E-2,-1.295094252E0,2.644517124E-1
1.388589672E1,-1.608548164E-1,-1.805888176E0,-9.827057272E-2
1.390610016E1,5.012065172E-1,-1.110270977E0,3.209106624E-1
1.392627954E1,9.241161942E-1,-3.997401893E-1,3.406180441E-1
1.394645922E1,-1.235705838E-1,-7.555382252E-1,-1.845569313E-1
1.396663954E1,-1.059404731E0,-8.069372177E-2,-1.115863696E-1
1.398682079E1,-1.739042878E0,3.328948840E-2,-3.542001545E-2
1.400700329E1,-2.288718939E0,5.046686530E-1,-2.671148479E-1
1.402718724E1,-2.319611549E0,1.813345075E0,-5.126581192E-1
1.404737276E1,-1.723063946E0,2.348639965E0,-6.612623930E-1
1.406755985E1,-8.889625072E-1,1.384576440E0,-7.827024460E-1
1.408774850E1,-3.195790946E-1,-3.752391040E-1,-8.769782782E-1
1.410793870E1,-2.769685388E-1,-1.721199751E0,-6.154560447E-1
1.412813027E1,-4.468781054E-1,-1.779789209E0,3.382211924E-2
1.414832308E1,-5.928192139E-1,-9.898962379E-1,4.130559862E-1
1.416853782E1,-7.558045387E-1,-3.187801540E-1,3.826959729E-1
1.418873084E1,-8.815056682E-1,-3.062633052E-2,2.559295893E-1
1.420891667E1,-1.045556307E0,-2.103895694E-2,1.227716357E-1
1.422910001E1,-1.258076310E0,-2.474074811E-1,-7.696529478E-2
1.424928381E1,-1.317731142E0,-4.854938984E-1,-2.980075181E-1
1.426946823E1,-1.105211020E0,-5.723128915E-1,-4.183822870E-1
1.428965344E1,-8.325035572E-1,-6.724476814E-1,-4.061317742E-1
1.430983954E1,-7.355645299E-1,-8.833698630E-1,-2.809632719E-1
1.433002657E1,-7.329013944E-1,-9.808415174E-1,-2.266348451E-1
1.435021454E1,-7.062698007E-1,-7.970834970E-1,-2.719085515E-1
1.437040344E1,-6.412886977E-1,-5.408875942E-1,-3.661843836E-1
1.439059323E1,-5.566002727E-1,-4.215780795E-1,-4.727107286E-1
1.441078381E1,-5.320991874E-1,-5.249086618E-1,-5.318328738E-1
1.443097506E1,-4.862928391E-1,-8.253130317E-1,-4.807002246E-1
1.445116688E1,-4.452801943E-1,-1.317997456E0,-2.580601275E-1
1.447135912E1,-3.089264631E-1,-1.537974358E0,-1.414137483E-1
1.449155162E1,1.965411454E-1,-9.723193645E-1,-2.394180000E-1
1.451174964E1,5.970802903E-1,-2.500706315E-1,-3.475422561E-1
1.453194105E1,5.747097135E-1,1.358211134E-2,-3.619233072E-1
1.455212058E1,3.179811835E-1,-2.974748611E-1,-3.363569975E-1
1.457230058E1,-5.645897239E-2,-1.104412079E0,-3.123885691E-1
1.459248136E1,-1.459411234E-1,-2.144109488E0,-3.741738498E-1
1.461266323E1,1.150484756E-1,-2.620814800E0,-4.519380927E-1
1.463284646E1,1.022120476E0,-1.841041923E0,-3.565970063E-1
1.465303120E1,2.245043039E0,-9.398288727E-1,-7.643266767E-2
1.467321750E1,3.048784494E0,-9.776456952E-1,1.723063886E-1
1.469340537E1,3.528153181E0,-1.271658421E0,2.969422340E-1
1.471359480E1,3.848797560E0,-1.611477613E0,3.475422561E-1
1.473378568E1,3.833351135E0,-1.702557564E0,4.908202291E-1
1.475397787E1,3.319894075E0,-1.117727876E0,7.257108688E-1
1.477417120E1,2.423474789E0,3.789675534E-1,8.056056499E-1
1.479436542E1,1.671931267E0,2.072736740E0,7.885614038E-1
1.481456026E1,1.520131230E0,1.942241907E0,9.158604145E-1
1.483475547E1,1.636245012E0,2.660495937E-1,1.126250029E0
1.485495047E1,1.963280916E0,-1.430915356E0,1.278582692E0
1.487514209E1,2.325470448E0,-2.672480106E0,1.261005878E0
1.489532792E1,2.404832602E0,-3.168893099E0,9.989509583E-1
1.491551126E1,2.244510412E0,-3.038930893E0,6.293044686E-1
1.493569506E1,2.071937799E0,-2.731069565E0,4.908202291E-1
1.495587948E1,2.062350512E0,-2.730536938E0,5.307676196E-1
1.497606469E1,1.985118747E0,-2.952111959E0,7.310371995E-1
1.499625079E1,1.390169024E0,-3.021353960E0,9.350351691E-1
1.501643782E1,2.082590461E-1,-2.363021135E0,8.817719817E-1
1.503662579E1,-9.006804228E-1,-1.129445791E0,6.474139690E-1
1.505681469E1,-1.732651353E0,-6.897582114E-2,3.800328076E-1
1.507700454E1,-2.263152599E0,2.958769798E-1,2.761695981E-1
1.509719521E1,-1.853026152E0,-2.636527456E-2,2.937464416E-1
1.511738657E1,-8.559393287E-1,-7.113298178E-1,3.731085956E-1
1.513757850E1,-2.386190593E-1,1.158474237E-1,3.603254259E-1
1.515779245E1,6.508761048E-1,1.672730207E0,3.155843616E-1
1.517797079E1,4.255728126E-1,7.832350731E-1,4.599275887E-1
1.519814943E1,-2.247706354E-1,-5.904223919E-1,2.783001363E-1
1.521832881E1,-3.499391079E-1,-1.542235494E0,-2.127864063E-1
1.523850922E1,3.195791040E-3,-1.659947038E0,-3.704454303E-1
1.525869100E1,9.693899155E-1,-6.197171211E-1,3.118559420E-1
1.527887433E1,8.767119646E-1,-8.761793375E-2,5.083971024E-1
1.529905943E1,-5.028044581E-1,-4.641886353E-1,5.033370852E-2
1.531924631E1,-1.167528987E0,6.186518669E-1,4.500738904E-2
1.533943495E1,-1.645832300E0,6.085318327E-1,1.211737394E-1
1.535962537E1,-2.367015839E0,1.170458436E0,-2.085253596E-1
1.537981735E1,-2.576872826E0,2.742254972E0,-4.929507375E-1
1.540001068E1,-2.235455751E0,3.742537498E0,-5.462139249E-1
1.542020516E1,-1.651158690E0,3.218960524E0,-5.036033988E-1
1.544040047E1,-1.125451088E0,1.535843849E0,-4.391549230E-1
1.546059631E1,-8.660593629E-1,-3.880222738E-1,-3.145190775E-1
1.548079235E1,-8.372972012E-1,-1.596031308E0,-1.504684836E-1
1.550098829E1,-7.590003610E-1,-1.274321675E0,5.060002208E-3
1.552117683E1,-6.902908683E-1,-3.459443748E-1,9.134636074E-2
1.554137620E1,-8.154593110E-1,1.834916621E-1,2.849580161E-2
1.556155402E1,-1.114265800E0,1.419463754E-1,-8.708529919E-2
1.558173225E1,-1.317731142E0,-9.720530361E-2,-2.159821987E-1
1.560191120E1,-1.245293140E0,-1.387505829E-1,-3.336938322E-1
1.562209131E1,-1.062600493E0,-8.788425475E-3,-4.194475710E-1
1.564227287E1,-1.012000442E0,4.873581231E-2,-4.093275666E-1
1.566245610E1,-1.031175256E0,-4.820318148E-2,-2.548643351E-1
1.568264110E1,-1.040762544E0,-2.111885101E-1,-1.648495495E-1
1.570282797E1,-1.035968900E0,-3.384875357E-1,-1.611211300E-1
1.572301672E1,-9.065393806E-1,-3.001380265E-1,-2.202432603E-1
1.574320724E1,-5.922865868E-1,-5.672528967E-2,-3.390201628E-1
1.576339943E1,-2.540653646E-1,2.362222075E-1,-4.514054656E-1
1.578359308E1,-1.033305749E-1,3.246390820E-1,-4.285022914E-1
1.580378787E1,-1.379516423E-1,1.472726911E-1,-3.336938322E-1
1.582398350E1,-2.205095738E-1,-1.691105962E-1,-2.511359155E-1
1.584417964E1,-2.844253778E-1,-4.093275666E-1,-2.404832691E-1
1.586437600E1,-2.620548606E-1,-4.929507375E-1,-3.336938322E-1
1.588457162E1,-9.587372839E-2,-4.636560082E-1,-3.954791129E-1
1.590476026E1,1.912148297E-1,-3.954791129E-1,-3.581948876E-1
1.592494881E1,7.568697929E-1,-3.997401893E-1,-2.633864284E-1
1.594513193E1,1.478585958E0,-4.546012580E-1,4.767054692E-2
1.596531547E1,2.222672701E0,-2.687127590E-1,3.768370152E-1
1.598549964E1,3.105243444E0,-3.275685757E-2,5.360939503E-1
1.600568454E1,3.895669222E0,-3.821633458E-1,5.813676119E-1
1.602587027E1,3.856254339E0,-1.091628909E0,7.278413773E-1
1.604605693E1,2.916159153E0,-1.082574129E0,7.416898012E-1
1.606624454E1,1.767272353E0,-6.479465961E-1,5.787044764E-1
1.608643308E1,1.034371018E0,-4.034686089E-1,6.239781976E-1
1.610662256E1,1.017326832E0,2.175800949E-1,1.031441569E0
1.612681287E1,1.450356483E0,4.125233591E-1,1.502288103E0
1.614700391E1,1.890310287E0,-7.432876825E-1,1.776060820E0
1.616721495E1,1.997369289E0,-2.891924381E0,1.643968105E0
1.618739797E1,1.867939830E0,-4.249070168E0,1.276452184E0
1.620758131E1,1.701225996E0,-4.161718845E0,9.968204498E-1
1.622776516E1,1.713476539E0,-3.606716394E0,8.322372437E-1
1.624794969E1,1.978727221E0,-3.295126677E0,5.829655528E-1
1.626813500E1,2.186453581E0,-3.075682402E0,5.163865685E-1
1.628832120E1,1.910017729E0,-2.736396074E0,6.335655451E-1
1.630850834E1,1.084438443E0,-2.268212557E0,5.733781457E-1
1.632869641E1,1.400821656E-1,-1.507081747E0,3.688475490E-1
1.634888542E1,-4.937497079E-1,-8.572708964E-1,1.680453420E-1
1.636907532E1,-8.064045906E-1,-6.926876903E-1,4.926844314E-2
1.638926600E1,-9.544762373E-1,-7.235803008E-1,3.648528084E-2
1.640945735E1,-9.012130499E-1,-8.002793193E-1,1.025316268E-1
1.642964928E1,-5.358276367E-1,-8.663256764E-1,1.494032294E-1
1.644984162E1,-8.309056610E-2,-8.897614479E-1,2.271674722E-1
1.647003422E1,3.488738537E-1,-5.430181623E-1,2.133190483E-1
1.649023235E1,4.916191697E-1,-1.206411049E-1,1.632516533E-1
1.651042350E1,2.455432713E-1,-6.950845569E-2,1.382179558E-1
1.653060240E1,1.917474531E-2,-4.114580750E-1,2.085253596E-1
1.655078183E1,1.272990108E-1,-1.152881622E0,3.257043660E-1
1.657096214E1,3.637875319E-1,-1.823464990E0,1.962748319E-1
1.659114365E1,2.141179889E-1,-1.419730067E0,-7.270424068E-2
1.661132657E1,-4.298338890E-1,-2.426137924E-1,1.888179779E-1
1.663151105E1,-7.084003091E-1,8.301066756E-1,4.162517786E-1
1.665169719E1,-5.123918056E-1,1.683915496E0,1.089232042E-1
1.667188500E1,-6.231792569E-1,1.514005899E0,-1.563274413E-1
1.669207448E1,-1.569133401E0,1.238102674E0,-4.077296555E-1
1.671226558E1,-2.704171658E0,1.345161676E0,-5.233107805E-1
1.673245813E1,-3.450388908E0,1.626923919E0,-2.900180221E-1
1.675265188E1,-3.215498209E0,1.836248159E0,-3.994738683E-3
1.677284657E1,-1.822133422E0,2.632000208E0,7.590003312E-2
1.679304193E1,-2.391516864E-1,3.294061422E0,6.311687082E-2
1.681323766E1,-3.153180480E-1,1.095357299E0,-7.989477599E-4
1.683343313E1,-1.092960477E0,-1.198155284E0,4.527370445E-3
1.685362500E1,-1.155811071E0,-1.100683689E0,-4.074633494E-2
1.687381094E1,-8.037413955E-1,-7.217161357E-2,-1.211737394E-1
1.689399438E1,-5.289034247E-1,4.428833723E-1,-2.905506492E-1
1.691417829E1,-5.528718233E-1,1.723063886E-1,-4.428833723E-1
1.693436282E1,-7.323687673E-1,-3.944138587E-1,-4.865591824E-1
1.695454813E1,-8.697877526E-1,-8.199867010E-1,-4.002728164E-1
1.697473433E1,-8.399603963E-1,-9.227846265E-1,-1.914811432E-1
1.699492146E1,-7.536740303E-1,-7.709845304E-1,-2.796317078E-2
1.701510954E1,-7.563371658E-1,-4.956139028E-1,-2.663159103E-4
1.703529855E1,-7.755119205E-1,-2.000032514E-1,-4.500738904E-2
1.705548844E1,-7.680550814E-1,1.275653243E-1,-1.584579647E-1
1.707567912E1,-7.957519293E-1,3.518033028E-1,-3.310306668E-1
1.709587047E1,-8.165245652E-1,3.613906801E-1,-5.238434076E-1
1.711606240E1,-7.302381992E-1,2.793653905E-1,-6.612623930E-1
1.713625475E1,-6.066676378E-1,2.777675092E-1,-6.825676560E-1
1.715647355E1,-4.293012619E-1,1.909485012E-1,-6.202497482E-1
1.717664292E1,-1.736379713E-1,-3.017359376E-1,-5.589970946E-1
1.719681303E1,-2.295643091E-1,-9.451551437E-1,-5.589970946E-1
1.721698459E1,-6.546044946E-1,-1.101216316E0,-1.882853508E-1
1.723715823E1,-4.367581010E-1,-4.167844057E-1,5.041360259E-1
1.725733448E1,4.729770422E-1,7.827024460E-1,8.002793193E-1
1.727751365E1,1.491901755E0,1.542768121E0,8.024098277E-1
1.729769605E1,2.434127331E0,1.432513237E0,8.817719817E-1
1.731788178E1,2.824546576E0,9.062730670E-1,1.229047894E0
1.733807084E1,2.791523457E0,8.897614479E-1,1.470862746E0
1.735826303E1,2.459161043E0,1.800561905E0,1.410675406E0
1.737845813E1,1.561676502E0,3.268495083E0,1.209340572E0
1.739865573E1,4.319643974E-1,3.940143824E0,9.392961860E-1
1.741885542E1,1.145158410E-1,2.798713923E0,7.656582594E-1
1.743905667E1,6.546044946E-1,1.197090030E0,6.186518669E-1
1.745925886E1,1.384310126E0,4.918854833E-1,3.763043880E-1
1.747946146E1,1.805089235E0,1.749695539E-1,1.808284968E-1
1.749966094E1,1.907887220E0,-4.447475821E-2,2.316948399E-2
1.751984959E1,1.816807151E0,-1.067926809E-1,-1.978727281E-1
1.754004907E1,1.596297622E0,-2.388853729E-1,-2.846917212E-1
1.756022678E1,1.423192263E0,-4.316980839E-1,-1.589905918E-1
1.758040490E1,1.276185870E0,-5.403549671E-1,-5.512739345E-2
1.760058386E1,1.024783611E0,-8.151929975E-1,-8.815056831E-2
1.762076396E1,6.162550449E-1,-1.030376315E0,-2.420811653E-1
1.764094553E1,-1.331579592E-2,-8.535425067E-1,-3.880222738E-1
1.766112876E1,-7.728487849E-1,-3.715106845E-1,-4.290349185E-1
1.768131376E1,-1.437040687E0,1.765674502E-1,-3.326285779E-1
1.770150063E1,-1.675659657E0,5.355613232E-1,-1.579253376E-1
1.772168938E1,-1.300686955E0,6.415550113E-1,2.530001104E-2
1.774187990E1,-6.929540038E-1,1.840242893E-1,-2.396843163E-3
1.776207209E1,5.805686861E-2,-2.308958918E-1,-2.157158963E-2
1.778226573E1,8.048067093E-1,-4.897549450E-1,2.210422046E-2
1.780246053E1,1.307611108E0,-6.564686894E-1,1.547295451E-1
1.782265626E1,1.214933157E0,-1.054877281E0,1.760348231E-1
1.784286157E1,6.396908164E-1,-1.452753305E0,-1.254348010E-1
1.786305631E1,-1.065263641E-3,-1.036767840E0,-6.697844863E-1
1.788324224E1,-1.821600795E-1,-6.665887237E-1,-4.727107286E-1
1.790342568E1,5.219792128E-1,3.028011918E-1,1.190432087E-1
1.792360959E1,4.735096991E-1,9.089362025E-1,-7.803056389E-2
1.794379412E1,-1.090829968E0,2.575274706E-1,-7.885614038E-1
1.796397943E1,-1.938247204E0,4.055991173E-1,-9.579383135E-1
1.798416563E1,-2.429333687E0,1.459144831E0,-5.158539414E-1
1.800435276E1,-3.086068869E0,2.741722345E0,-4.021370411E-2
1.802454084E1,-3.213367701E0,3.288202524E0,-5.885581672E-2
1.804472985E1,-2.550241232E0,3.247189999E0,-1.675127149E-1
1.806491974E1,-1.593101740E0,2.828541279E0,-1.952095628E-1
1.808511042E1,-1.093493104E0,1.550224900E0,-3.331612051E-1
1.810532797E1,-1.042360425E0,-9.614004195E-2,-2.884201407E-1
1.812550860E1,-9.203878045E-1,-8.061382771E-1,-6.098634377E-2
1.814570558E1,-7.382277250E-1,-4.652538896E-1,1.251684781E-2
1.816587776E1,-6.940192580E-1,-2.103895694E-2,-1.307611167E-1
1.818605089E1,-7.888277173E-1,-1.411474310E-2,-2.889527678E-1
1.820622553E1,-9.470193982E-1,-3.374222517E-1,-4.135886133E-1
1.822640219E1,-1.101482630E0,-5.728455186E-1,-5.190497041E-1
1.824658131E1,-1.151550055E0,-5.004075766E-1,-5.573992133E-1
1.826676313E1,-1.102547884E0,-2.729738057E-1,-4.817654788E-1
1.828694782E1,-1.059404731E0,-6.631266326E-2,-3.976096511E-1
1.830713542E1,-1.016794205E0,-5.060002208E-3,-3.512706757E-1
1.832732589E1,-1.033838391E0,-1.520663798E-1,-3.667170107E-1
1.834751902E1,-1.168594241E0,-5.147886276E-1,-4.775044322E-1
1.836771448E1,-1.312937379E0,-9.989509583E-1,-6.079992056E-1
1.838791193E1,-1.076448917E0,-1.122521520E0,-7.502118945E-1
1.840811094E1,-4.426170290E-1,-5.749760270E-1,-8.274435401E-1
1.842831105E1,5.592634156E-2,-3.222422674E-2,-6.633929610E-1
1.844851172E1,2.775011659E-1,4.394212365E-2,-2.617885470E-1
1.846871100E1,4.383559823E-1,-1.675127149E-1,-4.554001987E-2
1.848890417E1,4.878907502E-1,-5.158539414E-1,-8.655267209E-2
1.850909823E1,5.289034247E-1,-7.896266580E-1,-1.456748098E-1
1.852928688E1,5.890907645E-1,-9.392961860E-1,-2.324937880E-1
1.854946490E1,8.325035572E-1,-1.012799382E0,-2.282327414E-1
1.856964355E1,1.467933297E0,-1.125184774E0,9.667267650E-2
1.858982318E1,2.106026173E0,-7.022750378E-1,5.121254921E-1
1.861001110E1,2.965693951E0,2.452769578E-1,6.804371476E-1
1.863020735E1,3.911648035E0,5.755086541E-1,6.820350289E-1
1.865040391E1,4.073568344E0,1.472726911E-1,8.093340397E-1
1.867059506E1,3.281012058E0,4.926844314E-2,7.896266580E-1
1.869078631E1,2.219476700E0,2.415485233E-1,5.840308070E-1
1.871098839E1,1.514272213E0,-1.126516312E-1,3.518033028E-1
1.873116787E1,1.393897533E0,-8.135951161E-1,4.050664902E-1
1.875134766E1,1.828525066E0,-8.998814821E-1,7.235803008E-1
1.877152808E1,2.131059885E0,-8.972182870E-1,1.098553181E0
1.879170943E1,1.940377712E0,-1.287104845E0,1.368064880E0
1.881189204E1,1.510011196E0,-2.038648367E0,1.300953269E0
1.883207610E1,1.182975292E0,-2.647446394E0,9.962878227E-1
1.885226172E1,1.081242561E0,-2.828541279E0,8.226498365E-1
1.887244891E1,1.183507919E0,-2.908968687E0,8.311719298E-1
1.889263766E1,1.353950143E0,-3.036800385E0,8.301066756E-1
1.891282797E1,1.255945802E0,-2.906305552E0,7.379614115E-1
1.893301964E1,7.446193099E-1,-2.283658981E0,6.154560447E-1
1.895321256E1,-7.989477366E-3,-1.512408018E0,4.966791868E-1
1.897340652E1,-7.185203433E-1,-8.769782782E-1,3.683148921E-1
1.899360120E1,-1.308143735E0,-5.419528484E-1,2.671148479E-1
1.901379641E1,-1.593634367E0,-8.641951084E-1,2.447443157E-1
1.903399183E1,-1.013598323E0,-1.480982780E0,2.639190555E-1
1.905418631E1,-2.162485123E-1,-1.139033198E0,5.472791791E-1
1.907437495E1,8.767119646E-1,4.287686199E-2,8.839024901E-1
1.909455818E1,9.843035936E-1,-3.491401672E-1,9.121319652E-1
1.911476126E1,8.857667446E-1,-1.468199611E0,7.534077168E-1
1.913493219E1,1.137168884E0,-2.833867550E0,6.159886718E-1
1.915510412E1,1.166463733E0,-3.677023888E0,6.090644598E-1
1.917527771E1,4.511391521E-1,-3.158240318E0,3.629885912E-1
1.919545350E1,-3.866907060E-1,-1.852227211E0,2.207758874E-1
1.921563188E1,1.736379713E-1,1.864211401E-3,6.117276549E-1
1.923581318E1,1.590438604E0,-1.531316489E-1,3.059969842E-1
1.925599756E1,5.619265437E-1,-1.669534445E0,-3.507380486E-1
1.927618506E1,-1.162202597E0,-5.994771123E-1,-5.078644156E-1
1.929637563E1,-2.337721109E0,3.901528120E-1,-4.647212625E-1
1.931656907E1,-2.715357065E0,7.667235136E-1,-4.945486486E-1
1.933676506E1,-2.066078901E0,2.213085145E-1,-5.680518150E-1
1.935696323E1,-7.819035053E-1,-8.380961418E-1,-6.229129434E-1
1.937716313E1,2.727074921E-1,-1.818937659E-1,-4.567317963E-1
1.939736422E1,-2.524674833E-1,1.637842804E-1,3.275685757E-2
1.941756594E1,-9.661940932E-1,-1.316399574E0,7.672561407E-1
1.943776600E1,-7.579351068E-1,-1.935317755E0,1.062866807E0
1.945795943E1,-5.475454926E-1,-1.730787158E0,8.604667187E-1
1.947815350E1,-6.908234954E-1,-1.134239435E0,6.570013762E-1
1.949834214E1,-9.416930676E-1,-5.701823831E-1,5.190497041E-1
1.951852016E1,-1.143027902E0,-6.127929091E-1,3.459443748E-1
1.953869881E1,-1.239434242E0,-1.106009960E0,2.050632425E-2
1.955887844E1,-1.152082682E0,-1.297224760E0,-3.241064548E-1
1.957905938E1,-9.422256947E-1,-9.957551956E-1,-5.520728827E-1
1.959924188E1,-7.840340137E-1,-4.711128473E-1,-6.362286806E-1
1.961942610E1,-7.717835307E-1,-9.187898785E-2,-6.261087060E-1
1.963961214E1,-8.522109389E-1,-2.537990510E-1,-5.376918316E-1
1.965980006E1,-1.048219442E0,-1.035702586E0,-4.535360038E-1
1.967998980E1,-1.070589900E0,-1.695633411E0,-4.183822870E-1
1.970018126E1,-6.402234435E-1,-1.410675406E0,-3.896201849E-1
1.972037428E1,-1.347558498E-1,-5.893571377E-1,-2.506032586E-1
1.974056860E1,1.906821877E-1,5.938844755E-2,-1.771000773E-1
1.976076391E1,4.420844018E-1,3.901528120E-1,-2.159821987E-1
1.978095990E1,6.114613414E-1,5.057339072E-1,-2.703106403E-1
1.980115626E1,5.656549931E-1,4.050664902E-1,-3.267696202E-1
1.982135204E1,3.760380745E-1,4.527370445E-3,-3.885549009E-1
1.984154391E1,3.898864985E-1,-6.282392144E-1,-4.103928208E-1
1.986172985E1,5.155876279E-1,-1.317997456E0,-4.402202070E-1
1.988191329E1,6.625939608E-1,-1.802692413E0,-3.166496158E-1
1.990209719E1,1.002413034E0,-1.877260804E0,3.968106955E-2
1.992228172E1,1.714009166E0,-1.145424724E0,3.289001584E-1
1.994246704E1,2.870352983E0,-2.396843163E-3,4.077296555E-1
1.996265323E1,3.771033287E0,2.905506492E-1,3.358243704E-1
1.998284037E1,3.875961781E0,-2.862896025E-1,4.242412448E-1
2.000302844E1,3.303915262E0,-7.885614038E-1,6.660560966E-1
2.002321745E1,2.445845366E0,-1.019723654E0,7.789740562E-1
2.004340735E1,1.553154349E0,-9.542099237E-1,7.134603262E-1
2.006359803E1,9.725856781E-1,-4.423507154E-1,8.412919641E-1
2.008378938E1,9.976193905E-1,2.527337968E-1,1.209340572E0
2.010400969E1,1.441301703E0,1.984053552E-1,1.482580662E0
2.012418500E1,1.859417677E0,-9.371656775E-1,1.525191188E0
2.014436084E1,2.051697731E0,-2.880739212E0,1.332378507E0
2.016453761E1,2.000032425E0,-4.123369217E0,1.086835265E0
2.018471584E1,1.765141845E0,-3.981689215E0,1.000548840E0
2.020489584E1,1.540371180E0,-3.106042385E0,9.531446695E-1
2.022507792E1,1.412539601E0,-2.507896900E0,9.052077532E-1
2.024526219E1,1.352352142E0,-2.377402067E0,9.680583477E-1
2.026544876E1,1.054078341E0,-2.047170401E0,8.961530328E-1
2.028563761E1,4.484759867E-1,-1.586976528E0,6.340981722E-1
2.030582865E1,-1.288969070E-1,-9.744499326E-1,3.560643792E-1
2.032602167E1,-4.655202031E-1,-5.009402037E-1,1.872200817E-1
2.034621646E1,-8.138614297E-1,-4.167844057E-1,1.579253376E-1
2.036641271E1,-1.095090985E0,-6.367613673E-1,2.836264372E-1
2.038661000E1,-6.982803345E-1,-1.218395233E0,4.737760127E-1
2.040680803E1,1.539305896E-1,-1.506016493E0,6.799045205E-1
2.042700636E1,8.452867270E-1,-1.329715371E0,8.290414214E-1
2.044720355E1,9.592698812E-1,-1.042626739E0,8.759130239E-1
2.046739219E1,6.407560706E-1,-1.374989033E0,5.371592045E-1
2.048759167E1,3.526022732E-1,-2.425338984E0,1.312937438E-1
2.050776948E1,3.403517306E-1,-2.494581223E0,7.856319100E-2
2.052794771E1,9.539436102E-1,-1.365401626E0,5.456812978E-1
2.054812678E1,1.603221774E0,-9.400951862E-2,6.745781898E-1
2.056830698E1,3.787012100E-1,-1.436774373E0,6.737792492E-2
2.058848865E1,-8.410256505E-1,-1.570464969E0,-3.555317521E-1
2.060867198E1,-1.818405032E0,-4.258391261E-1,-2.239716798E-1
2.062885709E1,-2.716422319E0,9.430246353E-1,-8.708529919E-2
2.064904407E1,-2.913496017E0,1.749961853E0,-2.378201038E-1
2.066923292E1,-2.030392408E0,2.023201942E0,-4.119907022E-1
2.068942355E1,-5.597960353E-1,2.033854723E0,-5.158539414E-1
2.070961584E1,-8.149266988E-2,-1.392832249E-1,-7.416898012E-1
2.072980959E1,-2.551306486E-1,-2.756103277E0,-4.769718051E-1
2.075000448E1,-1.001347825E-1,-3.229613066E0,2.159821987E-1
2.077020021E1,2.929474972E-2,-2.155294657E0,5.169191957E-1
2.079039646E1,-1.832253486E-1,-1.178980589E0,5.882918239E-1
2.081059292E1,-5.960150361E-1,-9.946899414E-1,5.392897129E-1
2.083078792E1,-8.378298283E-1,-1.281778455E0,3.182475269E-1
2.085097657E1,-8.080024719E-1,-1.413871169E0,5.299686641E-2
2.087115980E1,-7.360971570E-1,-1.216264725E0,-1.350221634E-1
2.089134344E1,-7.563371658E-1,-1.023452044E0,-2.644517124E-1
2.091152761E1,-8.175898194E-1,-1.059138417E0,-3.496727943E-1
2.093171250E1,-8.687224984E-1,-1.216264725E0,-3.858917654E-1
2.095189823E1,-8.948214650E-1,-1.322791100E0,-3.475422561E-1
2.097208490E1,-9.624657035E-1,-1.243428946E0,-2.138516754E-1
2.099227251E1,-1.144093156E0,-1.031441569E0,-7.536740601E-2
2.101246105E1,-1.371526957E0,-7.475487590E-1,-1.518000662E-2
2.103265053E1,-1.467400670E0,-4.972118139E-1,-3.968106955E-2
2.105284084E1,-1.260739565E0,-4.444812536E-1,-9.720530361E-2
2.107303188E1,-8.655267358E-1,-6.809697747E-1,-7.376950979E-2
2.109322355E1,-5.603286624E-1,-1.123054147E0,-1.355548054E-1
2.111343678E1,-1.262337416E-1,-9.472857118E-1,-3.789675534E-1
2.113361016E1,3.078611791E-1,1.456748098E-1,-5.249086618E-1
2.115378438E1,4.037349224E-1,1.187502623E0,-5.126581192E-1
2.117396000E1,4.404865205E-1,1.348357439E0,-5.323655009E-1
2.119413750E1,7.084003091E-1,3.656517565E-1,-4.902876019E-1
2.121431724E1,8.617982864E-1,-9.408941269E-1,-3.390201628E-1
2.123449948E1,7.211834788E-1,-1.652490258E0,1.094558388E-1
2.125468438E1,1.118526816E0,-9.494162202E-1,5.637907982E-1
2.127487198E1,2.660495996E0,3.081275225E-1,7.970834970E-1
2.129506224E1,3.731086016E0,4.620580971E-1,9.131972790E-1
2.131525500E1,3.507380486E0,5.744433999E-1,9.350351691E-1
2.133545001E1,2.632799149E0,1.351020575E0,8.018772006E-1
2.135564688E1,1.687910199E0,2.136652470E0,6.500771642E-1
2.137584521E1,1.153680563E0,1.952894568E0,5.941507816E-1
2.139604454E1,1.241032124E0,9.440898895E-1,5.579318404E-1
2.141624438E1,1.636777639E0,-1.930790395E-1,4.301002026E-1
2.143644303E1,1.931322932E0,-5.941507816E-1,4.205128253E-1
2.145663600E1,1.978727221E0,-4.269044101E-1,4.838960171E-1
2.147683006E1,1.789110303E0,-6.644582152E-1,4.492749274E-1
2.149701870E1,1.437040687E0,-9.163930416E-1,3.810980618E-1
2.151719672E1,1.142495275E0,-9.419593811E-1,3.736412227E-1
2.153737537E1,9.997498989E-1,-9.355677962E-1,5.121254921E-1
2.155755500E1,1.016261458E0,-1.185904741E0,6.974813938E-1
2.157773594E1,9.661940932E-1,-1.558747053E0,6.958834529E-1
2.159791844E1,6.609960794E-1,-1.716405988E0,5.739107728E-1
2.161810266E1,5.166528746E-2,-1.412805915E0,3.890875578E-1
2.163828870E1,-7.004108429E-1,-8.333024979E-1,2.362222075E-1
2.165847662E1,-1.455150127E0,-2.298306376E-1,1.233042628E-1
2.167866636E1,-1.714541793E0,-7.163897902E-2,5.352949724E-2
2.169885782E1,-1.009869933E0,-4.700475931E-1,1.483379602E-1
2.171905084E1,-6.711161137E-2,7.217161357E-2,2.111885101E-1
2.173924516E1,3.744401634E-1,1.717737615E-1,1.211737394E-1
2.175944047E1,1.150484756E-1,-5.813676119E-1,2.117211521E-1
2.177963646E1,-5.539371073E-2,-8.530098796E-1,2.636527456E-2
2.179983282E1,5.326318089E-3,-1.068725705E0,-3.043990731E-1
2.182002850E1,8.948214352E-2,-5.627255440E-1,-5.547360182E-1
2.184022027E1,3.659180701E-1,-3.435475379E-2,-1.142495275E-1
2.186040620E1,3.371559381E-1,-4.607265070E-2,1.099884734E-1
2.188058964E1,-3.829622865E-1,5.033370852E-2,-5.992107838E-2
2.190077355E1,-1.564339638E0,1.326519608E0,-1.818937659E-1
2.192095808E1,-2.358493805E0,2.141978979E0,-7.856319100E-2
2.194114339E1,-2.785131693E0,2.549974918E0,-3.382211924E-2
2.196132959E1,-2.863428593E0,2.785930634E0,-3.198454082E-1
2.198151672E1,-2.349971533E0,2.720417023E0,-5.637907982E-1
2.200170480E1,-1.417333245E0,1.880989313E0,-5.978792310E-1
2.202189381E1,-7.648593187E-1,4.301002026E-1,-5.025381446E-1
2.204208370E1,-8.277098536E-1,-1.078313112E0,-3.763043880E-1
2.206227438E1,-1.276718497E0,-1.673795462E0,-2.181127369E-1
2.208246573E1,-1.423192263E0,-8.540751338E-1,6.471476704E-2
2.210256084E1,-1.211204767E0,3.534012139E-1,3.928159773E-1
2.212256730E1,-1.078046799E0,9.771130681E-1,4.444812536E-1
2.214259276E1,-1.079112053E0,9.217193723E-1,2.788327634E-1
2.216264303E1,-9.933583736E-1,5.744433999E-1,5.885581672E-2
2.218272261E1,-8.479498625E-1,2.490053773E-1,-1.563274413E-1
2.220283469E1,-7.265098095E-1,6.897582114E-2,-3.193127811E-1
2.222298105E1,-6.317013502E-1,-7.536740601E-2,-3.976096511E-1
2.224316198E1,-6.743118763E-1,-2.436790615E-1,-3.869570196E-1
2.226337641E1,-9.251814485E-1,-3.102580309E-1,-3.688475490E-1
2.228362193E1,-1.257543683E0,-2.090579867E-1,-3.475422561E-1
2.230389506E1,-1.499891162E0,-9.986846894E-2,-3.448790908E-1
2.232419131E1,-1.587242842E0,-1.190432087E-1,-3.741738498E-1
2.234450542E1,-1.373124838E0,-4.607265070E-2,-4.455465078E-1
2.236483167E1,-8.250467181E-1,3.118559420E-1,-4.860265255E-1
2.238516407E1,-3.275685608E-1,6.277065873E-1,-4.689823091E-1
2.240546376E1,-9.214530140E-2,7.683213949E-1,-4.269044101E-1
2.242569079E1,-2.450106293E-2,6.575340033E-1,-3.203780353E-1
2.244588485E1,-5.736444592E-1,1.419197440E0,-1.579253376E-1
2.246607344E1,-2.495380163E0,5.687708855E0,1.371526867E-1
2.248625136E1,-6.753771305E-1,1.931056619E0,2.026664019E-1
2.250642990E1,1.481249094E0,-2.535593748E0,4.767054692E-2
2.252660943E1,2.328133583E0,-3.673827887E0,1.158474237E-1
2.254679027E1,1.937181950E0,-2.242113590E0,7.677887678E-1
2.256697266E1,1.906289339E0,1.462074369E-1,1.256212115E0
2.258715678E1,2.641321182E0,1.673262835E0,1.285506845E0
2.260735928E1,2.991792917E0,2.296442032E0,1.335574269E0
2.262757709E1,2.499641180E0,2.949448824E0,1.347292185E0
2.264776573E1,1.467400670E0,3.423491001E0,1.156610012E0
2.266794896E1,6.279729009E-1,2.628271818E0,9.275783300E-1
2.268813261E1,7.227813601E-1,9.600688815E-1,7.752456069E-1
2.270831678E1,1.546762824E0,-6.524740160E-2,6.346307993E-1
2.272850167E1,2.240782022E0,5.033370852E-2,4.151864946E-1
2.274868740E1,2.341982126E0,3.976096511E-1,2.308958918E-1
2.276887407E1,2.003228188E0,5.313002467E-1,1.025316268E-1
2.278906167E1,1.680453420E0,2.980075181E-1,7.803056389E-2
2.280925021E1,1.620265961E0,-2.697780132E-1,1.110537350E-1
2.282943969E1,1.662343860E0,-7.928224802E-1,1.004010960E-1
2.284963000E1,1.652223945E0,-1.261005878E0,8.442214131E-2
2.286982105E1,1.429051161E0,-1.695633411E0,8.548741043E-2
2.289001271E1,9.603351951E-1,-1.850629210E0,6.364950538E-2
2.291020490E1,3.094590902E-1,-1.593368053E0,-1.677790284E-2
2.293039740E1,-5.139896870E-1,-1.058073163E0,-7.696529478E-2
2.295059011E1,-1.392832160E0,-4.221107066E-1,-9.507478029E-2
2.297079365E1,-1.701225996E0,-3.480748832E-1,-3.009369783E-2
2.299097251E1,-8.277098536E-1,-8.796414733E-1,2.316948399E-2
2.301115167E1,1.970737725E-1,-9.542099237E-1,1.073253155E-1
2.303133157E1,9.629983306E-1,-2.042642981E-1,6.151897460E-2
2.305151250E1,1.086568952E0,-2.751043439E-1,1.163800508E-1
2.307169469E1,5.214465261E-1,-6.207823753E-1,7.163897902E-2
2.309187834E1,-1.065263674E-1,-9.046751261E-1,-7.696529478E-2
2.311206365E1,-2.641853690E-1,-1.119325757E0,-4.162517786E-1
2.313225063E1,-3.195790946E-1,-9.435572624E-1,-7.347655892E-1
2.315243928E1,1.320926845E-1,-5.579318404E-1,-1.968074590E-1
2.317262959E1,9.432909489E-1,5.973466039E-1,2.884201407E-1
2.319282136E1,-5.257076025E-1,2.101232558E-1,1.605884880E-1
2.321301448E1,-1.986184001E0,3.592601717E-1,-7.430213690E-2
2.323320865E1,-2.449573755E0,8.673909307E-1,-9.187898785E-2
2.325340365E1,-2.417615891E0,2.022136688E0,-1.765674502E-1
2.327359917E1,-2.110287189E0,3.067692995E0,-5.158539414E-1
2.329379490E1,-1.955291390E0,3.140130997E0,-6.740455627E-1
2.331399053E1,-1.988847256E0,2.221873522E0,-5.973466039E-1
2.333417917E1,-1.903093457E0,1.119325757E0,-3.187801540E-1
2.335436240E1,-1.596297622E0,3.427485824E-1,-2.103895694E-2
2.337454605E1,-1.176583648E0,-1.414137483E-1,5.885581672E-2
2.339473021E1,-9.086698890E-1,-3.954791129E-1,-4.021370411E-2
2.341491511E1,-8.985498548E-1,-2.612559199E-1,-8.335687965E-2
2.343510084E1,-1.008272052E0,4.980107397E-2,-1.323590130E-1
2.345528750E1,-1.143560529E0,1.850895584E-1,-3.043990731E-1
2.347547511E1,-1.318263769E0,8.069372177E-2,-4.854938984E-1
2.349566365E1,-1.446627975E0,-5.459476262E-2,-6.064013243E-1
2.351585313E1,-1.372059584E0,-5.592633970E-3,-6.463487148E-1
2.353604344E1,-1.166463733E0,2.743053809E-2,-5.270391703E-1
2.355623448E1,-1.018924713E0,-2.101232558E-1,-3.629885912E-1
2.357642615E1,-1.054610968E0,-4.892223179E-1,-3.081275225E-1
2.359661834E1,-1.113200545E0,-6.527402997E-1,-3.033338189E-1
2.361682407E1,-1.107874155E0,-8.269109130E-1,-2.878875136E-1
2.363700443E1,-1.065796256E0,-8.940225244E-1,-3.012032807E-1
2.365718527E1,-7.632613778E-1,-4.775044322E-1,-3.289001584E-1
2.367736683E1,-1.699095517E-1,3.139864504E-1,-3.576622605E-1
2.369754938E1,3.707117438E-1,7.198519111E-1,-4.130559862E-1
2.371773313E1,4.511391521E-1,3.576622605E-1,-4.370244145E-1
2.373791818E1,2.237053588E-2,-4.785696864E-1,-3.896201849E-1
2.375810464E1,-1.720400751E-1,-1.156610012E0,-3.038664460E-1
2.377829256E1,-1.118526831E-1,-1.238102674E0,-1.531316489E-1
2.379848188E1,4.772381186E-1,-6.969487667E-1,2.316948399E-2
2.381867251E1,1.357145905E0,-4.066644013E-1,3.571296334E-1
2.383886433E1,1.956356645E0,1.571263932E-2,8.482161760E-1
2.385905719E1,2.573144436E0,6.410223842E-1,1.215199471E0
2.387925089E1,3.271957159E0,9.499488473E-1,1.233309031E0
2.389944516E1,3.356113195E0,1.541702747E0,1.185904741E0
2.391963974E1,2.571546316E0,2.565421104E0,1.041561484E0
2.393983985E1,1.439171195E0,2.758766413E0,6.585992575E-1
2.396003167E1,8.788425326E-1,1.576856494E0,3.273022473E-1
2.398021000E1,1.195758462E0,4.418180883E-1,2.031990439E-1
2.400038891E1,1.839710355E0,-3.970770240E-1,7.856319100E-2
2.402056876E1,2.183257818E0,-1.077780485E0,9.241162241E-2
2.404074985E1,2.092177868E0,-1.268995285E0,3.912180662E-1
2.406093240E1,1.858885050E0,-1.008005738E0,5.904223919E-1
2.408111662E1,1.623994470E0,-8.040077090E-1,4.807002246E-1
2.410130261E1,1.481781721E0,-1.135304689E0,2.596580088E-1
2.412149037E1,1.518533349E0,-1.869271398E0,1.968074590E-1
2.414167990E1,1.484977484E0,-2.347042084E0,3.129211962E-1
2.416187110E1,1.147821546E0,-2.211220980E0,4.428833723E-1
2.418206381E1,4.367581010E-1,-1.598694444E0,3.976096511E-1
2.420225782E1,-4.878907502E-1,-7.145255804E-1,2.506032586E-1
2.422245282E1,-1.308143735E0,7.430213690E-2,1.185105816E-1
2.424264850E1,-1.446095347E0,1.685779691E-1,3.382211924E-2
2.426284454E1,-7.302381992E-1,-4.103928208E-1,5.033370852E-2
2.428304063E1,-1.214400530E-1,2.777675092E-1,2.058621943E-1
2.430323292E1,4.889560044E-1,9.355677962E-1,9.294424951E-2
2.432341876E1,6.077328920E-1,-8.868319541E-2,2.367548496E-1
2.434360209E1,2.524674833E-1,-9.558078051E-1,3.592601717E-1
2.436378594E1,4.420844093E-2,-1.483645916E0,2.649843395E-1
2.438397047E1,1.022653133E-1,-2.170208454E0,-2.005358785E-1
2.440415579E1,7.403582335E-2,-2.288985252E0,-1.387505829E-1
2.442434198E1,4.708465338E-1,-3.874896467E-1,8.194540739E-1
2.444452912E1,2.237053588E-2,6.554034352E-1,9.243825078E-1
2.446471719E1,-9.257140756E-1,1.051947847E-1,2.319611609E-1
2.448490620E1,-1.117994189E0,3.725759685E-1,-2.000032514E-1
2.450509610E1,-1.564339638E0,6.037381887E-1,-5.169191957E-1
2.452528678E1,-2.504434824E0,1.917740822E0,-8.594014645E-1
2.454547813E1,-3.129744530E0,3.555051088E0,-8.285087943E-1
2.456567006E1,-3.183007717E0,3.757983923E0,-5.819002390E-1
2.458586240E1,-2.720683336E0,2.589389563E0,-4.711128473E-1
2.460607662E1,-1.924398780E0,1.325986862E0,-5.542033911E-1
2.462625068E1,-1.291632175E0,1.172056317E0,-6.064013243E-1
2.464642526E1,-1.009869933E0,8.679235578E-1,-4.103928208E-1
2.466660089E1,-6.253097653E-1,-6.737792492E-2,4.926844314E-2
2.468677808E1,-4.021370113E-1,-5.850960612E-1,1.291632205E-1
2.470695724E1,-6.258423924E-1,-8.785761595E-1,-4.340949282E-2
2.472713870E1,-1.035436273E0,-9.904288650E-1,-1.691105962E-1
2.474732256E1,-1.318796396E0,-9.323719740E-1,-3.667170107E-1
2.476750891E1,-1.326253176E0,-6.181192398E-1,-5.052012801E-1
2.478769776E1,-1.112667918E0,-1.946769357E-1,-5.243760347E-1
2.480788902E1,-8.921582699E-1,-1.837579720E-2,-4.466117918E-1
2.482808245E1,-8.016108871E-1,-9.773793817E-2,-3.118559420E-1
2.484827787E1,-7.989477515E-1,-2.101232558E-1,-2.346243113E-1
2.486847485E1,-8.985498548E-1,-2.857569754E-1,-2.399506420E-1
2.488867297E1,-1.119059443E0,-2.777675092E-1,-2.862896025E-1
2.490887183E1,-1.138766885E0,-9.507478029E-2,-3.773696423E-1
2.492907100E1,-7.073350549E-1,1.462074369E-1,-5.392897129E-1
2.494926839E1,-1.645832360E-1,1.664474458E-1,-6.207823753E-1
2.496945704E1,4.846949503E-2,-5.139897019E-2,-6.106624007E-1
2.498965652E1,-2.412822098E-1,-5.004075766E-1,-5.297023654E-1
2.500983422E1,-6.865624189E-1,-8.705866933E-1,-4.135886133E-1
2.503001235E1,-5.858950019E-1,-7.012097836E-1,-2.809632719E-1
2.505019131E1,-4.101264849E-2,-1.712411344E-1,-9.614004195E-2
2.507037141E1,8.889625072E-1,-1.169126853E-1,2.186453640E-1
2.509055297E1,1.552089095E0,-4.998749495E-1,6.229129434E-1
2.511073620E1,1.868472457E0,-3.059969842E-1,9.249151349E-1
2.513092120E1,2.563024282E0,5.685844421E-1,9.829720259E-1
2.515110808E1,3.336405754E0,1.419730067E0,9.334372878E-1
2.517129683E1,3.398723602E0,2.051964045E0,1.157142639E0
2.519148735E1,2.699378014E0,2.724145412E0,1.234906912E0
2.521167954E1,1.672996521E0,2.882337093E0,9.797762632E-1
2.523187318E1,9.427583218E-1,1.952894568E0,7.315698266E-1
2.525206797E1,1.048752069E0,6.729803085E-1,5.866939425E-1
2.527226360E1,1.791773438E0,8.175898343E-2,4.514054656E-1
2.529245975E1,2.325470448E0,-2.159821987E-1,2.852243483E-1
2.531265610E1,2.243977785E0,-6.372939944E-1,2.356895804E-1
2.533285183E1,1.905223966E0,-9.004141092E-1,2.271674722E-1
2.535304047E1,1.752358675E0,-7.752456069E-1,2.516685426E-1
2.537322902E1,1.679920793E0,-8.599340916E-1,2.543317080E-1
2.539341214E1,1.620798588E0,-1.544898629E0,2.117211521E-1
2.541359568E1,1.463672280E0,-2.087117672E0,2.681801319E-1
2.543377985E1,1.049284697E0,-2.166479826E0,3.597927988E-1
2.545396474E1,3.888212144E-1,-1.737711310E0,3.656517565E-1
2.547415047E1,-4.506065249E-1,-1.045289993E0,3.075948656E-1
2.549433714E1,-1.344362736E0,-3.805654347E-1,2.367548496E-1
2.551452475E1,-1.623994470E0,-3.810980618E-1,1.510011256E-1
2.553471329E1,-6.535392404E-1,-1.272191048E0,8.016108721E-2
2.555490276E1,2.556632757E-1,-5.211802125E-1,2.394180000E-1
2.557509308E1,1.128114223E0,5.696497560E-1,9.187898785E-2
2.559528412E1,1.281512141E0,-2.862896025E-1,1.414137483E-1
2.561549506E1,7.611308694E-1,-1.035702586E0,2.415485233E-1
2.563567808E1,2.141179889E-1,-1.077780485E0,1.776327193E-1
2.565586141E1,2.929474972E-2,-1.118793130E0,-2.463422120E-1
2.567604527E1,1.502021700E-1,-1.682850242E0,-4.008054435E-1
2.569622980E1,8.868319988E-1,-1.362738490E0,2.900180221E-1
2.571641511E1,8.474172354E-1,2.399506420E-1,5.057339072E-1
2.573660131E1,-1.033305764E0,3.134538233E-1,9.294424951E-2
2.575678844E1,-2.245575666E0,-2.021337748E-1,4.554001987E-2
2.577697652E1,-2.460226297E0,4.865591824E-1,-6.684529036E-2
2.579716553E1,-2.364885330E0,2.530800104E0,-5.382244587E-1
2.581735542E1,-2.325470448E0,3.755853176E0,-7.645930052E-1
2.583754610E1,-2.426670551E0,3.249320507E0,-6.905571818E-1
2.585773745E1,-2.492717028E0,1.961949348E0,-5.233107805E-1
2.587792938E1,-2.305230618E0,8.226498365E-1,-3.539338410E-1
2.589812172E1,-1.852493525E0,2.639190555E-1,-2.719085515E-1
2.591831428E1,-1.290566921E0,2.649843395E-1,-2.500706315E-1
2.593851230E1,-9.230509400E-1,-1.890842989E-2,-7.803056389E-2
2.595870334E1,-7.893603444E-1,-2.948117256E-1,7.643266767E-2
2.597888214E1,-8.884298801E-1,-2.862896025E-1,-4.021370411E-2
2.599908073E1,-1.055676222E0,-3.230412006E-1,-1.984053552E-1
2.601928152E1,-1.207476377E0,-4.439486265E-1,-3.544664681E-1
2.603943594E1,-1.275653243E0,-4.498075843E-1,-4.615254700E-1
2.605959235E1,-1.235173225E0,-2.271674722E-1,-5.291697383E-1
2.607975193E1,-1.119059443E0,7.483477145E-2,-5.147886276E-1
2.609991573E1,-1.000815153E0,1.664474458E-1,-3.800328076E-1
2.612008459E1,-9.890972972E-1,6.125265732E-3,-3.214432895E-1
2.614025907E1,-1.031707883E0,-3.081275225E-1,-4.029359818E-1
2.616043948E1,-1.100950003E0,-6.958834529E-1,-4.940160215E-1
2.618062594E1,-1.141430020E0,-9.611341357E-1,-5.195823312E-1
2.620081829E1,-9.246488214E-1,-7.763108611E-1,-5.536707640E-1
2.622101615E1,-4.538023174E-1,-2.191779912E-1,-5.392897129E-1
2.624121896E1,-1.528653353E-1,9.241162241E-2,-3.890875578E-1
2.626142594E1,-2.705769539E-1,-2.956106514E-2,-1.802958697E-1
2.628163620E1,-4.431496859E-1,-1.318263710E-1,-1.456748098E-1
2.630184876E1,-1.880190372E-1,1.233042628E-1,-2.596580088E-1
2.632206256E1,2.300969511E-1,2.681801319E-1,-3.832286000E-1
2.634227271E1,6.018739343E-1,1.062600464E-1,-3.805654347E-1
2.636247006E1,1.161669970E0,-5.270391703E-1,-8.016108721E-2
2.638265589E1,1.571263909E0,-9.158604145E-1,4.807002246E-1
2.640283922E1,2.077796698E0,-4.082622826E-1,1.004809976E0
2.642302303E1,2.847449780E0,3.539338410E-1,1.238102674E0
2.644320745E1,3.401386738E0,7.832350731E-1,1.217862606E0
2.646339266E1,3.201649904E0,1.312138438E0,1.107607841E0
2.648357876E1,2.410158873E0,1.955557704E0,8.684561849E-1
2.650376964E1,1.651158690E0,1.834650278E0,6.319676638E-1
2.652396537E1,1.259141564E0,8.695214391E-1,5.451486707E-1
2.654416131E1,1.466868043E0,-1.371526867E-1,5.632581711E-1
2.656435589E1,2.029859781E0,-7.305045128E-1,6.399571300E-1
2.658454443E1,2.331329584E0,-1.242363691E0,8.082687855E-1
2.660474381E1,2.087916851E0,-1.457546949E0,9.946899414E-1
2.662492162E1,1.778990269E0,-1.430915356E0,9.361004233E-1
2.664509985E1,1.629320741E0,-1.387239575E0,6.857634783E-1
2.666527881E1,1.718270302E0,-1.767538667E0,5.222455263E-1
2.668545891E1,2.020272493E0,-2.621880054E0,5.105276108E-1
2.670564047E1,2.194442987E0,-3.394728899E0,5.334307551E-1
2.672582370E1,1.812013507E0,-3.317497253E0,5.563339591E-1
2.674600870E1,7.893603444E-1,-2.273538828E0,5.147886276E-1
2.676619558E1,-3.824296594E-1,-1.044757366E0,3.257043660E-1
2.678638433E1,-1.304415345E0,-3.917506933E-1,1.909485012E-1
2.680657485E1,-1.106276274E0,-7.448856235E-1,3.635212183E-1
2.682676704E1,-5.811012983E-1,-1.489504933E0,5.701823831E-1
2.684696068E1,-3.073285520E-1,3.411506712E-1,5.701823831E-1
2.686715547E1,1.789642870E-1,1.482048035E0,5.046686530E-1
2.688735110E1,1.752358675E-1,2.644517124E-1,5.201149583E-1
2.690754724E1,4.479433596E-1,-1.525723815E0,4.514054656E-1
2.692774360E1,5.012065172E-1,-2.739591837E0,3.382211924E-2
2.694793881E1,-3.888212144E-2,-1.805888176E0,-4.439486265E-1
2.696812745E1,2.663159184E-2,-2.687127590E-1,4.926844314E-2
2.698831600E1,3.925496638E-1,-4.588623047E-1,1.882853508E-1
2.700851579E1,4.740423337E-2,-6.937529445E-1,-3.198454082E-1
2.702868225E1,-1.590438604E0,-1.968074590E-1,-2.516685426E-1
2.704884995E1,-3.146788836E0,1.387505829E-1,1.464737486E-2
2.706901969E1,-3.684746981E0,1.374456406E0,-5.672528967E-2
2.708919214E1,-3.207508802E0,3.008570910E0,-2.340916842E-1
2.710936787E1,-2.021337748E0,4.079160690E0,-3.928159773E-1
2.712954724E1,-1.096688867E0,3.410175323E0,-6.026729345E-1
2.714973047E1,-1.042360425E0,1.155544758E0,-8.343677521E-1
2.716991766E1,-1.332644820E0,-8.226498365E-1,-6.229129434E-1
2.719010870E1,-1.375787973E0,-1.313203812E0,-9.347688407E-2
2.721030334E1,-1.157941580E0,-6.836329699E-1,2.127864063E-1
2.723050115E1,-8.948214650E-1,2.663159103E-4,2.623211741E-1
2.725070162E1,-8.383625150E-1,1.824263930E-1,1.893506050E-1
2.727090417E1,-9.928256869E-1,4.660528526E-2,2.796317078E-2
2.729110818E1,-1.139299512E0,5.060002208E-3,-1.563274413E-1
2.731131297E1,-1.175518394E0,8.495477587E-2,-3.320959508E-1
2.733151568E1,-1.144093156E0,1.755021811E-1,-4.807002246E-1
2.735171021E1,-1.075383663E0,2.031990439E-1,-4.791023135E-1
2.737189881E1,-8.793751597E-1,-1.864211401E-3,-3.587275445E-1
2.739208464E1,-7.323687673E-1,-4.098601937E-1,-3.241064548E-1
2.741226797E1,-8.234487772E-1,-7.896266580E-1,-3.800328076E-1
2.743245178E1,-9.885646701E-1,-9.637972713E-1,-3.725759685E-1
2.745263620E1,-9.278446436E-1,-7.326350808E-1,-3.523359597E-1
2.747282141E1,-5.773729086E-1,-1.286305785E-1,-3.954791129E-1
2.749300750E1,-1.081242561E-1,3.097254038E-1,-4.551338851E-1
2.751319454E1,1.864211410E-1,2.111885101E-1,-4.247738719E-1
2.753338251E1,1.118526831E-1,-1.856221855E-1,-3.331612051E-1
2.755357141E1,-2.455432713E-1,-5.962813497E-1,-2.404832691E-1
2.757376120E1,-5.326318145E-1,-6.740455627E-1,-2.537990510E-1
2.759395178E1,-4.543349445E-1,-2.202432603E-1,-2.532664239E-1
2.761414303E1,3.355580568E-2,3.906854391E-1,-2.250369489E-1
2.763433485E1,8.751140833E-1,4.822981060E-1,-7.270424068E-2
2.765452709E1,1.794436574E0,-1.451421678E-1,3.347590864E-1
2.767471959E1,2.417083263E0,-2.159821987E-1,7.811045647E-1
2.769491761E1,3.205378294E0,2.633864284E-1,1.061268926E0
2.771510896E1,3.797132254E0,3.454117477E-1,1.242896318E0
2.773528839E1,3.473824739E0,7.539403439E-1,1.343031168E0
2.775546829E1,2.317481041E0,1.920936704E0,1.105477333E0
2.777564896E1,1.086036325E0,2.720949650E0,7.720498443E-1
2.779583073E1,6.391581893E-1,1.909751415E0,6.953508258E-1
2.781601386E1,1.201084733E0,3.198454082E-1,6.868287325E-1
2.783619850E1,2.075133562E0,-9.131972790E-1,6.452834606E-1
2.785638475E1,2.390451670E0,-1.458079576E0,6.346307993E-1
2.787657266E1,2.117211580E0,-1.784050226E0,6.330329180E-1
2.789676219E1,1.753956556E0,-1.763810277E0,5.291697383E-1
2.791695323E1,1.538773298E0,-1.666871309E0,2.868222296E-1
2.793714563E1,1.505750179E0,-1.633848071E0,1.456748098E-1
2.795733917E1,1.508413315E0,-1.835182905E0,2.537990510E-1
2.797753360E1,1.353417397E0,-2.188317776E0,4.316980839E-1
2.799775303E1,8.383625150E-1,-2.106292486E0,4.759065211E-1
2.801793261E1,3.568633273E-2,-1.479384899E0,3.427485824E-1
2.803811250E1,-8.000130057E-1,-6.538055539E-1,1.802958697E-1
2.805829303E1,-1.532381773E0,-4.447475821E-2,1.110537350E-1
2.807847448E1,-1.592036486E0,-2.330264151E-1,1.707084924E-1
2.809865709E1,-1.070057273E0,-1.882853508E-1,4.290349185E-1
2.811884105E1,-4.729770422E-1,1.400022745E0,6.761760712E-1
2.813902646E1,3.717769980E-1,1.640772343E0,7.150582075E-1
2.815921344E1,5.001412630E-1,-3.595264629E-2,7.752456069E-1
2.817940198E1,1.102547869E-1,-8.354330063E-1,3.635212183E-1
2.819959209E1,-1.613874435E-1,-1.278050065E0,-1.035968885E-1
2.821978355E1,-8.415582776E-2,-2.052496672E0,-3.166496158E-1
2.823997626E1,-4.042675495E-1,-1.965145111E0,-5.014728308E-1
2.826017001E1,-4.490086138E-1,-7.049382329E-1,1.115863696E-1
2.828036448E1,7.243792713E-2,8.247803450E-1,1.233841658E0
2.830055948E1,-4.042675495E-1,-1.744369268E-1,1.107075214E0
2.832075469E1,-9.901625514E-1,-3.062633052E-2,2.170474678E-1
2.834094938E1,-1.320926905E0,4.476770461E-1,-3.342264593E-1
2.836113803E1,-1.974998832E0,1.113466859E0,-4.966791868E-1
2.838132657E1,-2.604569674E0,2.785398006E0,-6.287718415E-1
2.840150969E1,-2.825079203E0,3.897000790E0,-6.612623930E-1
2.842169323E1,-2.664224386E0,3.575291157E0,-6.447508335E-1
2.844187730E1,-2.177931547E0,2.386989594E0,-6.394245028E-1
2.846206209E1,-1.612809181E0,7.076013684E-1,-5.472791791E-1
2.848224771E1,-1.163267851E0,-5.403549671E-1,-3.954791129E-1
2.850243428E1,-8.644614220E-1,-7.177214026E-1,-3.203780353E-1
2.852262178E1,-7.084003091E-1,-2.974748611E-1,-2.261022031E-1
2.854281021E1,-7.771098018E-1,9.400951862E-2,-1.280979514E-1
2.856299959E1,-9.353014827E-1,1.430116445E-1,-1.877527237E-1
2.858318980E1,-9.970867634E-1,6.151897460E-2,-3.198454082E-1
2.860338073E1,-9.757815003E-1,6.045371294E-2,-4.237086177E-1
2.862357230E1,-9.635309577E-1,1.041295230E-1,-4.364917874E-1
2.864376782E1,-9.305077791E-1,6.151897460E-2,-3.028011918E-1
2.866396297E1,-8.500803709E-1,-1.898832470E-1,-2.740390599E-1
2.868415459E1,-8.841688037E-1,-5.515402555E-1,-3.134538233E-1
2.870434855E1,-1.172322631E0,-7.054708600E-1,-3.123885691E-1
2.872453709E1,-1.301752210E0,-3.528685868E-1,-4.002728164E-1
2.874471501E1,-8.543414474E-1,3.826959729E-1,-6.000097394E-1
2.876489355E1,-2.199769467E-1,7.161234617E-1,-6.719150543E-1
2.878507308E1,-1.438105945E-2,5.179844499E-1,-5.755086541E-1
2.880525391E1,-2.556632757E-1,1.126516312E-1,-4.242412448E-1
2.882543631E1,-5.273054838E-1,-1.834916621E-1,-1.920137703E-1
2.884562042E1,-5.225118399E-1,-1.115863696E-1,-2.423474751E-2
2.886580636E1,-3.557980657E-1,2.175800949E-1,9.773793817E-2
2.888599417E1,5.858949851E-3,6.372939944E-1,1.824263930E-1
2.890618381E1,9.028109312E-1,5.824328661E-1,3.230412006E-1
2.892637516E1,1.541969061E0,2.559295893E-1,6.404897571E-1
2.894656803E1,1.921203017E0,5.845634341E-1,9.046751261E-1
2.896676214E1,2.768620253E0,1.260473251E0,1.009070992E0
2.898695725E1,3.513772011E0,1.481515408E0,1.019723654E0
2.900715303E1,3.317230940E0,1.647163868E0,1.124119401E0
2.902734917E1,2.267946243E0,1.984319806E0,1.055942535E0
2.904754485E1,9.789772630E-1,2.366749525E0,8.775109053E-1
2.906773667E1,4.383559823E-1,2.473275900E0,7.368960977E-1
2.908792250E1,8.745814562E-1,2.069008350E0,7.054708600E-1
2.910810584E1,1.592036486E0,1.122521520E0,5.834981799E-1
2.912828964E1,2.001097679E0,1.616537571E-1,4.652538896E-1
2.914847407E1,2.040512562E0,-4.071970284E-1,3.848264813E-1
2.916865928E1,1.832253456E0,-5.025381446E-1,2.106558830E-1
2.918884537E1,1.535044909E0,-4.455465078E-1,2.476738021E-2
2.920903240E1,1.256478429E0,-5.259739161E-1,-1.331579522E-3
2.922922037E1,1.070057273E0,-1.009070992E0,3.994738683E-3
2.924940928E1,8.532761931E-1,-1.541170120E0,-1.185105816E-1
2.926959907E1,4.644549489E-1,-1.588574409E0,-2.591253817E-1
2.928978964E1,-9.480846673E-2,-1.110803604E0,-3.390201628E-1
2.930998089E1,-7.685877085E-1,-4.157191217E-1,-4.258391261E-1
2.933017271E1,-1.427985907E0,4.492749274E-1,-4.455465078E-1
2.935036495E1,-1.815209270E0,1.396294355E0,-3.166496158E-1
2.937055745E1,-1.508413315E0,1.990178823E0,-1.739042848E-1
2.939075547E1,-5.677855015E-1,2.393913746E0,-3.462106921E-3
2.941094657E1,-3.041327596E-1,1.713210225E0,-3.595264629E-2
2.943112547E1,-5.773729086E-1,9.621993899E-1,-1.552621722E-1
2.945130490E1,-6.599308252E-1,9.259804487E-1,-1.755021811E-1
2.947148521E1,-4.117243886E-1,7.928224802E-1,-4.055991173E-1
2.949166667E1,-6.045371294E-1,-2.692453861E-1,-6.777740121E-1
2.951184948E1,-9.017456770E-1,-1.041561484E0,-7.643266767E-2
2.953203386E1,-3.249054253E-1,-3.597927988E-1,7.784414291E-1
2.955221990E1,-4.905539155E-1,2.910832763E-1,5.920202732E-1
2.957240761E1,-8.985498548E-1,1.315334320E0,-1.731053367E-2
2.959259698E1,-1.066328883E0,1.626391292E0,-1.323590130E-1
2.961278792E1,-2.066611528E0,8.391614556E-1,-2.103895694E-2
2.963298026E1,-2.834133863E0,1.453285933E0,-2.852243483E-1
2.965317381E1,-2.582731724E0,2.842922449E0,-4.194475710E-1
2.967336829E1,-1.866341949E0,3.934817553E0,-4.226433635E-1
2.969356344E1,-1.147821546E0,3.875695467E0,-6.372939944E-1
2.971375896E1,-6.535392404E-1,2.623477936E0,-8.476835489E-1
2.973395448E1,-5.677855015E-1,1.135304689E0,-7.523424625E-1
2.975414641E1,-6.913561225E-1,4.588623047E-1,-5.137233734E-1
2.977433214E1,-6.796382070E-1,9.904288650E-1,-3.150517344E-1
2.979451537E1,-5.864276290E-1,1.969406128E0,-2.127864063E-1
2.981469912E1,-6.705834866E-1,2.361955881E0,-1.845569313E-1
2.983488355E1,-8.229161501E-1,2.252766371E0,-2.122537792E-1
2.985506876E1,-8.570045829E-1,2.024267197E0,-3.017359376E-1
2.987525485E1,-8.117309213E-1,1.850096583E0,-3.800328076E-1
2.989544188E1,-7.483476996E-1,1.728123903E0,-4.178496599E-1
2.991562985E1,-6.498108506E-1,1.669001818E0,-4.130559862E-1
2.993581876E1,-5.837644935E-1,1.618401766E0,-4.130559862E-1
2.995600855E1,-5.944170952E-1,1.547029138E0,-4.380896688E-1
2.997619912E1,-5.752423406E-1,1.474591136E0,-4.492749274E-1
2.999642047E1,-5.246423483E-1,1.435176492E0,-4.679170549E-1
3.001659704E1,-5.603286624E-1,1.628521800E0,-5.036033988E-1
3.003677402E1,-5.651223660E-1,2.164349318E0,-5.408875942E-1
3.005695183E1,-2.434127480E-1,2.430665255E0,-5.728455186E-1
3.007713089E1,7.456845790E-2,2.242646217E0,-4.577970505E-1
3.009731152E1,-5.273054913E-2,2.236787319E0,-2.585927546E-1
3.011749402E1,-2.359558940E-1,3.125217199E0,7.430213690E-2
3.013767850E1,-6.711161137E-2,4.053594589E0,3.171822429E-1
3.015786506E1,1.496695429E-1,4.309790611E0,3.033338189E-1
3.017805370E1,1.709748209E-1,3.894337654E0,2.639190555E-1
3.019824433E1,2.173137814E-1,2.733200073E0,2.255695760E-1
3.021843683E1,3.973433375E-1,1.414936423E0,-1.467400640E-1
3.023863089E1,4.415517747E-1,1.259940624E0,-5.334307551E-1
3.025882631E1,4.362254739E-1,2.176067352E0,-9.163930416E-1
3.027902266E1,2.620548606E-1,2.301235676E0,-1.348890066E0
3.029921964E1,-5.273054913E-2,2.856238127E0,-1.408544898E0
3.031941693E1,-4.388886094E-1,3.539072037E0,-1.088433146E0
3.033961318E1,-8.383625150E-1,3.464503765E0,-7.725824714E-1
3.035980162E1,-7.664572001E-1,2.522278070E0,-6.548708081E-1
3.038000089E1,-3.392864764E-1,1.286039472E0,-7.086666226E-1
3.040017860E1,2.130527282E-3,6.580666304E-1,-6.415550113E-1
3.042035672E1,4.016043842E-1,6.074665785E-1,-5.238434076E-1
3.044053568E1,5.789707899E-1,7.592666745E-1,-5.265065432E-1
3.046071579E1,3.994738758E-1,1.107075214E0,-5.733781457E-1
3.048089735E1,1.288969070E-1,1.614140749E0,-7.022750378E-1
3.050108058E1,-1.512674391E-1,1.859151363E0,-7.827024460E-1
3.052126558E1,-3.147853911E-1,1.915077686E0,-6.628602743E-1
3.054145245E1,-3.302317262E-1,1.784050226E0,-5.004075766E-1
3.056164120E1,-3.014696240E-1,1.434111118E0,-3.715106845E-1
3.058183172E1,-3.121222556E-1,1.129445791E0,-3.123885691E-1
3.060202381E1,-3.802991211E-1,9.286435843E-1,-3.486075401E-1
3.062221724E1,-4.751075804E-1,8.801741004E-1,-2.740390599E-1
3.064241183E1,-4.868254960E-1,8.428898454E-1,-1.312937438E-1
3.066260724E1,-3.542001545E-1,7.837677002E-1,-4.767054692E-2
3.068280318E1,-1.565937549E-1,6.799045205E-1,-8.255792782E-3
3.070299933E1,3.089264594E-2,5.041360259E-1,6.657897960E-3
3.072319474E1,1.826927215E-1,2.404832691E-1,3.648528084E-2
3.074338318E1,1.677790284E-1,3.462106921E-3,8.495477587E-2
3.076356620E1,6.444845349E-2,5.193160102E-2,8.388951421E-2
3.078374964E1,-1.155811027E-1,-3.565970063E-1,-1.238368973E-1
3.080393370E1,-8.878972530E-1,-8.359656334E-1,-6.053360701E-1
3.082411850E1,-4.324970245E-1,4.785696864E-1,-4.301002026E-1
3.084430412E1,2.284990549E-1,4.530033767E-1,1.318263710E-1
3.086449068E1,-8.090677261E-1,-2.743053809E-2,-5.456812978E-1
3.088467818E1,-1.786447167E0,-6.418213248E-2,-8.380961418E-1
3.090486662E1,-2.312687397E0,1.308942676E0,-1.845569313E-1
3.092505600E1,-2.683399200E0,2.902577162E0,4.231759906E-1
3.094524620E1,-2.875146627E0,3.264766693E0,4.583296776E-1
3.096543714E1,-2.768620253E0,3.114032030E0,4.274370372E-1
3.098562870E1,-2.533729553E0,2.726808548E0,5.866939425E-1
3.100584256E1,-2.347841024E0,2.129728317E0,5.989444852E-1
3.102601370E1,-2.106026173E0,1.692437649E0,3.795001805E-1
3.104618584E1,-1.835981846E0,1.209873199E0,1.531316489E-1
3.106635959E1,-1.586710215E0,6.745781898E-1,7.270424068E-2
3.108653547E1,-1.321992159E0,3.033338189E-1,9.880319983E-2
3.110671391E1,-1.118526816E0,3.808317333E-2,4.926844314E-2
3.112689516E1,-1.082307816E0,-2.277000993E-1,-7.163897902E-2
3.114707943E1,-1.159006834E0,-4.050664902E-1,-1.472726911E-1
3.116726678E1,-1.194160581E0,-3.267696202E-1,-1.984053552E-1
3.118745709E1,-1.173920512E0,9.560741484E-2,-2.580601275E-1
3.120765021E1,-1.213335276E0,6.900244951E-1,-3.587275445E-1
3.122784584E1,-1.258076310E0,1.058073163E0,-4.162517786E-1
3.124804355E1,-1.270326853E0,1.042626739E0,-4.215780795E-1
3.126824292E1,-1.258076310E0,6.665887237E-1,-4.615254700E-1
3.128844350E1,-1.248489022E0,6.045371294E-2,-5.435507894E-1
3.130864475E1,-1.281512141E0,-5.041360259E-1,-5.904223919E-1
3.132884474E1,-1.311872125E0,-4.865591824E-1,-5.808349848E-1
3.134903823E1,-1.031175256E0,2.159821987E-1,-5.286371112E-1
3.136923209E1,-4.607265294E-1,8.274435401E-1,-3.885549009E-1
3.138942058E1,4.048001766E-2,7.118624449E-1,-2.474074811E-1
3.140959850E1,1.810948253E-1,-9.321057238E-3,-1.962748319E-1
3.142977704E1,-2.402169555E-1,-6.905571818E-1,-1.856221855E-1
3.144995657E1,-6.865624189E-1,-6.740455627E-1,-1.691105962E-1
3.147013740E1,-4.655202031E-1,-7.270424068E-2,-2.000032514E-1
3.149031980E1,3.137201369E-1,2.442116886E-1,-9.667267650E-2
3.151050391E1,1.380581737E0,-3.289001584E-1,2.537990510E-1
3.153068985E1,1.996836662E0,-3.203780353E-1,6.271739602E-1
3.155087766E1,2.751043320E0,9.616667628E-1,8.870983124E-1
3.157106730E1,3.655452251E0,1.881521940E0,1.171523690E0
3.159128818E1,3.653854370E0,2.372075796E0,1.577389121E0
3.161148870E1,2.826144457E0,2.808301210E0,1.740907073E0
3.163167725E1,1.532914400E0,2.965960264E0,1.588574409E0
3.165186568E1,5.560676455E-1,2.520147562E0,1.322791100E0
3.167204870E1,8.884298801E-1,1.718536615E0,1.090031028E0
3.169223214E1,1.961683035E0,8.695214391E-1,8.386288285E-1
3.171241620E1,2.304697990E0,-2.761695981E-1,5.632581711E-1
3.173260100E1,2.056491375E0,-1.110270977E0,5.563339591E-1
3.175278662E1,1.838645101E0,-8.322372437E-1,8.077361584E-1
3.177297318E1,1.877527118E0,-7.267761230E-1,8.950877786E-1
3.179316068E1,2.081525087E0,-1.523060679E0,6.234455705E-1
3.181334912E1,2.180594683E0,-2.152098894E0,3.358243704E-1
3.183353850E1,1.972335577E0,-2.397109509E0,2.862896025E-1
3.185372870E1,1.468998551E0,-2.345976830E0,3.432812095E-1
3.187391964E1,6.625939608E-1,-1.953959823E0,3.113232851E-1
3.189411120E1,-3.025348783E-1,-1.436241746E0,1.573926955E-1
3.191430329E1,-1.174453139E0,-1.036767840E0,3.009369783E-2
3.193449568E1,-1.144093156E0,-1.144892097E0,-9.187898785E-2
3.195468818E1,-5.331644416E-1,-1.465536475E0,-1.312937438E-1
3.197489152E1,2.663159184E-2,-5.619265884E-2,9.667267650E-2
3.199507016E1,7.717835307E-1,6.926876903E-1,1.004010960E-1
3.201525230E1,1.011467814E0,-4.524707198E-1,1.557948142E-1
3.203543490E1,7.424887419E-1,-1.261538506E0,2.703106403E-1
3.205561818E1,2.966759205E-1,-1.273789048E0,7.163897902E-2
3.207580230E1,-1.150484756E-1,-1.237037420E0,-5.052012801E-1
3.209598740E1,-4.399538934E-1,-1.275919557E0,-6.032055616E-1
3.211617360E1,5.028044581E-1,-9.294424951E-2,3.603254259E-1
3.213636094E1,-1.688442826E-1,4.444812536E-1,5.131907463E-1
3.215654943E1,-1.452486992E0,3.542001545E-2,8.255792782E-3
3.217673902E1,-1.922268271E0,3.448790908E-1,-1.371526867E-1
3.219692959E1,-2.591253757E0,1.772865057E0,-2.665822208E-1
3.221712105E1,-3.202182531E0,3.135337114E0,-5.675191879E-1
3.223731323E1,-3.345460415E0,3.471427917E0,-6.815024018E-1
3.225750594E1,-3.112700462E0,2.856770754E0,-6.388918757E-1
3.227769902E1,-2.676474810E0,1.743570209E0,-5.968139768E-1
3.229789230E1,-2.166213512E0,9.637972713E-1,-4.822981060E-1
3.231808469E1,-1.757152319E0,8.215845823E-1,-3.672496378E-1
3.233827464E1,-1.489771247E0,3.411506712E-1,-1.755021811E-1
3.235846037E1,-1.317731142E0,-2.037316710E-1,6.684529036E-2
3.237864360E1,-1.287371159E0,-2.181127369E-1,-4.181159660E-2
3.239882735E1,-1.337971091E0,1.739042848E-1,-2.783001363E-1
3.241901178E1,-1.374722719E0,4.945486486E-1,-4.748412669E-1
3.243919698E1,-1.327851176E0,5.968139768E-1,-6.703171730E-1
3.245938308E1,-1.320926905E0,2.814959288E-1,-8.588688374E-1
3.247957011E1,-1.644234419E0,-7.496792674E-1,-8.487488031E-1
3.249975808E1,-1.708682895E0,-1.672730207E0,-6.639255881E-1
3.251994698E1,-1.215465784E0,-1.490037560E0,-6.591318846E-1
3.254013678E1,-1.085503697E0,-6.159886718E-1,-6.122602820E-1
3.256032735E1,-1.243162632E0,2.553969622E-1,-4.929507375E-1
3.258046313E1,-9.645962119E-1,8.274435401E-1,-5.478118062E-1
3.260054844E1,-3.984085917E-1,9.190561771E-1,-6.005423665E-1
3.262064490E1,-1.294295341E-1,6.527402997E-1,-5.430181623E-1
3.264075573E1,-1.805621833E-1,2.617885470E-1,-3.390201628E-1
3.266088350E1,-2.886864543E-1,-1.198421605E-2,-9.933583438E-2
3.268102995E1,-2.663159072E-1,-2.101232558E-1,-6.471476704E-2
3.270119605E1,1.118526794E-2,-5.440834165E-1,-5.779055133E-2
3.272138188E1,7.424887419E-1,-7.832350731E-1,6.471476704E-2
3.274158678E1,1.703356504E0,-9.115993381E-1,3.779022694E-1
3.276180933E1,2.324937820E0,-1.675127149E-1,8.918919563E-1
3.278204745E1,3.141995192E0,1.172588944E0,1.355814338E0
3.280229855E1,3.829090118E0,1.898566127E0,1.618934393E0
3.282255959E1,3.654919624E0,1.971536636E0,1.677523971E0
3.284282724E1,2.699910641E0,1.989646196E0,1.503353357E0
3.286309808E1,1.467933297E0,1.898566127E0,1.071388960E0
3.288334626E1,8.005456328E-1,1.190698385E0,6.836329699E-1
3.290355292E1,1.417865872E0,9.574056864E-1,5.510076284E-1
3.292374141E1,2.512424231E0,1.904158741E-1,3.725759685E-1
3.294393526E1,2.742521286E0,-1.122521520E0,3.059969842E-1
3.296412381E1,2.258891582E0,-1.614140749E0,6.447508335E-1
3.298430183E1,1.888179779E0,-1.589107037E0,9.387635589E-1
3.300450011E1,1.800295591E0,-1.381380677E0,8.306393027E-1
3.302468407E1,1.971270323E0,-1.514005899E0,5.403549671E-1
3.304486813E1,2.182725191E0,-2.040246248E0,3.805654347E-1
3.306505251E1,2.157691479E0,-2.726275921E0,3.581948876E-1
3.308523730E1,1.647430182E0,-2.772614956E0,3.677822649E-1
3.310542271E1,7.664572001E-1,-2.280995846E0,3.400854170E-1
3.312560886E1,-2.434127480E-1,-1.614140749E0,2.340916842E-1
3.314579573E1,-1.071655273E0,-1.216797352E0,1.731053367E-2
3.316598344E1,-6.183855534E-1,-1.299355268E0,-7.057371736E-2
3.318617198E1,-5.566002727E-1,-1.349422693E0,1.648495495E-1
3.320636126E1,-3.834949136E-1,3.805654347E-1,5.099949837E-1
3.322655126E1,8.096003532E-2,1.560344934E0,4.412854612E-1
3.324674188E1,-1.012000442E-2,6.079992056E-1,4.482096732E-1
3.326693303E1,-3.424822688E-1,-1.749695539E-1,4.226433635E-1
3.328712459E1,-3.776359558E-1,-7.065361142E-1,-1.547295451E-1
3.330731636E1,-1.597895473E-1,-1.157675266E0,-8.183888197E-1
3.332750823E1,1.224520564E0,-3.949464858E-1,1.691105962E-1
3.334769469E1,5.134570599E-1,-6.889592409E-1,8.029424548E-1
3.336788146E1,-1.068459392E0,-6.388918757E-1,3.968106955E-2
3.338806855E1,-1.516935468E0,3.683148921E-1,-3.709780574E-1
3.340825605E1,-2.002162933E0,1.561410189E0,-2.703106403E-1
3.342844396E1,-2.862895966E0,2.988863468E0,-5.078644156E-1
3.344863230E1,-3.229346752E0,3.634945869E0,-6.554034352E-1
3.346882105E1,-3.079144478E0,3.379815102E0,-6.234455705E-1
3.348901021E1,-2.690323353E0,2.298572540E0,-6.202497482E-1
3.350919969E1,-2.191779852E0,1.074052095E0,-5.744433999E-1
3.352938948E1,-1.647962809E0,3.736412227E-1,-4.540686309E-1
3.354957948E1,-1.188301563E0,-1.552621722E-1,-3.161169887E-1
3.356976969E1,-9.353014827E-1,-6.282392144E-1,-9.294424951E-2
3.358996000E1,-9.315730333E-1,-6.836329699E-1,-1.019989923E-1
3.361016115E1,-1.076448917E0,-5.334307551E-1,-2.868222296E-1
3.363034084E1,-1.185638428E0,-4.609928429E-1,-4.540686309E-1
3.365052084E1,-1.229846835E0,-4.519380927E-1,-5.744433999E-1
3.367070146E1,-1.222390056E0,-3.656517565E-1,-6.820350289E-1
3.369088303E1,-1.135571003E0,-2.047969401E-1,-7.171887755E-1
3.371106573E1,-1.065263629E0,-1.328916401E-1,-6.713824272E-1
3.373124980E1,-1.202682614E0,-3.725759685E-1,-6.106624007E-1
3.375143532E1,-1.556882858E0,-8.727172613E-1,-5.856286883E-1
3.377162240E1,-1.559545994E0,-1.186969995E0,-5.733781457E-1
3.379181105E1,-1.101482630E0,-9.382309318E-1,-5.984118581E-1
3.381200115E1,-4.846949577E-1,-3.241064548E-1,-5.989444852E-1
3.383219261E1,-1.267663687E-1,6.311687082E-2,-5.584644675E-1
3.385238532E1,-1.107874215E-1,1.270326823E-1,-4.886896908E-1
3.387257907E1,-2.386190593E-1,-1.605884880E-1,-3.986749053E-1
3.389277355E1,-3.185138404E-1,-6.831002831E-1,-2.591253817E-1
3.391296855E1,-8.149266988E-2,-8.759130239E-1,-4.820318148E-2
3.393316376E1,6.258423924E-1,-5.009402037E-1,2.596580088E-1
3.395335844E1,1.621331215E0,-2.580601275E-1,6.255760789E-1
3.397354709E1,2.259424210E0,1.198421605E-2,1.038898349E0
3.399373032E1,2.898049831E0,6.889592409E-1,1.381380677E0
3.401391396E1,3.617635250E0,1.328650117E0,1.416001678E0
3.403409813E1,3.628288031E0,1.823464990E0,1.426121712E0
3.405428303E1,2.886864424E0,2.332128525E0,1.330247998E0
3.407446876E1,1.815741897E0,2.457296848E0,9.504814744E-1
3.409465542E1,1.110537291E0,1.332378507E0,5.978792310E-1
3.411484303E1,1.285773158E0,4.045338631E-1,4.423507154E-1
3.413503157E1,2.047436714E0,-7.989477599E-4,3.480748832E-1
3.415522105E1,2.513489485E0,-9.163930416E-1,2.255695760E-1
3.417541136E1,2.445312738E0,-1.635445952E0,3.619233072E-1
3.419560240E1,2.188584089E0,-1.294561625E0,5.813676119E-1
3.421579407E1,2.114015579E0,-8.018772006E-1,5.962813497E-1
3.423598626E1,2.049034595E0,-1.069258332E0,4.828307331E-1
3.425617876E1,1.954226136E0,-1.847966075E0,4.652538896E-1
3.427637146E1,1.760880828E0,-2.580867529E0,5.392897129E-1
3.429657500E1,1.360341668E0,-2.863162279E0,6.191844940E-1
3.431675386E1,6.434192657E-1,-2.502570629E0,6.287718415E-1
3.433693303E1,-2.913496196E-1,-1.708416581E0,4.695149362E-1
3.435711292E1,-1.169659495E0,-8.673909307E-1,2.303632647E-1
3.437729386E1,-1.117994189E0,-9.664604664E-1,-7.217161357E-2
3.439747605E1,-2.977411747E-1,-1.899098754E0,-2.229064107E-1
3.441765969E1,2.540653646E-1,-1.019723654E0,-9.827057272E-2
3.443784500E1,8.479498625E-1,4.886896908E-1,-6.098634377E-2
3.445803198E1,8.426235318E-1,4.162517786E-1,5.246423557E-2
3.447822063E1,4.830970466E-1,4.287686199E-2,7.536740601E-2
3.449841094E1,5.912213027E-2,8.708529919E-2,6.098634377E-2
3.451860282E1,-1.933453530E-1,-3.656517565E-1,-4.151864946E-1
3.453879605E1,4.261054695E-1,-1.254081607E0,-4.737760127E-1
3.455899032E1,1.057806849E0,-1.009070992E0,3.222422674E-2
3.457918542E1,-5.289034247E-1,-7.110634446E-2,-2.415485233E-1
3.459938105E1,-1.791240811E0,5.265065432E-1,-5.307676196E-1
3.461957688E1,-2.340916872E0,1.224254251E0,-2.239716798E-1
3.463977219E1,-2.920952797E0,2.521212816E0,-7.989477599E-4
3.465996084E1,-3.075416088E0,3.354781628E0,-1.131842583E-1
3.468014407E1,-2.555034876E0,3.784615517E0,-2.245043069E-1
3.470032771E1,-2.134255648E0,2.903642416E0,-4.561991692E-1
3.472051188E1,-2.041577816E0,1.304149032E0,-5.904223919E-1
3.474069678E1,-1.935051441E0,1.083905771E-1,-4.269044101E-1
3.476088251E1,-1.565937519E0,-3.203780353E-1,-1.557948142E-1
3.478106917E1,-1.214400530E0,-3.464770019E-1,3.542001545E-2
3.480125678E1,-1.224520564E0,-3.097254038E-1,1.355548054E-1
3.482144532E1,-1.475390196E0,-2.026664019E-1,7.270424068E-2
3.484163480E1,-1.703889251E0,5.060002208E-3,-9.933583438E-2
3.486182511E1,-1.824263930E0,1.978727281E-1,-2.687127590E-1
3.488201615E1,-1.849830270E0,4.024033546E-1,-4.146538675E-1
3.490220782E1,-1.704421878E0,6.175866127E-1,-5.648560524E-1
3.492240000E1,-1.409876466E0,7.017424107E-1,-7.001445293E-1
3.494259250E1,-1.200552106E0,4.498075843E-1,-8.178561330E-1
3.496278521E1,-1.193095326E0,-2.410158962E-1,-8.759130239E-1
3.498298876E1,-1.347025871E0,-1.058605790E0,-8.727172613E-1
3.500316803E1,-1.339568973E0,-1.357412219E0,-8.423572183E-1
3.502334761E1,-1.005076289E0,-8.913593292E-1,-8.253130317E-1
3.504352792E1,-6.348971128E-1,-2.969422340E-1,-7.017424107E-1
3.506370917E1,-4.665854871E-1,-1.914811432E-1,-4.258391261E-1
3.508389167E1,-4.516717792E-1,-3.912180662E-1,-2.463422120E-1
3.510407563E1,-3.515369892E-1,-1.930790395E-1,-1.888179779E-1
3.512426115E1,-6.391581893E-2,2.990727723E-1,-1.973400861E-1
3.514444834E1,3.904191256E-1,4.173170328E-1,-3.448790908E-1
3.516463719E1,1.065263629E0,1.280979514E-1,-4.466117918E-1
3.518482761E1,1.580851197E0,-3.470096290E-1,-2.639190555E-1
3.520501948E1,2.167278767E0,-1.078845739E0,2.388853729E-1
3.522521261E1,2.837862253E0,-1.273256421E0,8.151929975E-1
3.524540678E1,3.814709187E0,-6.079992056E-1,1.192829013E0
3.526560167E1,4.445345402E0,-3.914843872E-2,1.545963883E0
3.528579698E1,4.140147209E0,9.297088385E-1,1.874597669E0
3.530599250E1,2.886864424E0,2.232526302E0,1.618401766E0
3.532618678E1,1.260206938E0,2.356629372E0,1.003744721E0
3.534637542E1,8.351666927E-1,8.913593292E-1,6.687192321E-1
3.536655865E1,1.690040708E0,-1.178980589E0,5.446160436E-1
3.538674230E1,2.643451691E0,-2.964362383E0,4.338286221E-1
3.540692646E1,3.081274986E0,-3.535343647E0,6.937529445E-1
3.542711136E1,2.917224407E0,-2.498842239E0,1.379250050E0
3.544729709E1,2.362754822E0,-1.254614234E0,1.819203973E0
3.546748376E1,1.742771268E0,-1.469264865E0,1.389370084E0
3.548767136E1,1.380048990E0,-2.250635862E0,8.114646077E-1
3.550785990E1,1.429583788E0,-3.092194080E0,6.356960535E-1
3.552804938E1,1.580851197E0,-3.524691105E0,6.601971388E-1
3.554823969E1,1.319861650E0,-2.989928722E0,6.516750455E-1
3.556843084E1,5.805686712E-1,-2.082324028E0,4.316980839E-1
3.558862261E1,-2.082590461E-1,-1.359542727E0,2.157158963E-2
3.560881490E1,-6.556697488E-1,-1.797898769E0,-2.314285189E-1
3.562900751E1,2.918822467E-1,-3.496994257E0,-1.563274413E-1
3.564920032E1,3.813643754E-1,-3.909783840E0,2.165148407E-1
3.566940396E1,2.194443047E-1,-9.387635589E-1,3.587275445E-1
3.568958282E1,6.258423924E-1,1.294561625E0,7.749792933E-2
3.570976198E1,5.534044504E-1,9.078709483E-1,2.633864284E-1
3.572994188E1,2.338253707E-1,4.767054692E-2,6.149234176E-1
3.575012282E1,2.130527347E-1,-9.611341357E-1,5.904223919E-1
3.577030501E1,2.689790726E-1,-2.242113590E0,2.202432603E-1
3.579048876E1,3.206443489E-1,-1.888446093E0,4.221107066E-1
3.581067417E1,-1.118526831E-1,-3.491401672E-1,6.234455705E-1
3.583086126E1,-4.980107546E-1,1.749695539E-1,-1.813611388E-1
3.585105001E1,-5.928192139E-1,1.430116445E-1,-4.604602158E-1
3.587124042E1,-1.618135452E0,-2.948117256E-1,3.222422674E-2
3.589143230E1,-2.830405474E0,4.183822870E-1,-1.728390306E-1
3.591162553E1,-3.089797258E0,1.810149193E0,-6.149234176E-1
3.593181980E1,-2.404299974E0,1.958220840E0,-6.772413850E-1
3.595201490E1,-1.408811212E0,1.173654199E0,-5.419528484E-1
3.597221053E1,-8.900277615E-1,5.558013320E-1,-4.391549230E-1
3.599240636E1,-1.200019479E0,-1.653821766E-1,-1.201084778E-1
3.601260167E1,-1.512674332E0,-1.036767840E0,5.009402037E-1
3.603279032E1,-1.387505889E0,-1.186437368E0,6.346307993E-1
3.605297355E1,-1.288436413E0,-9.206541181E-1,4.561991692E-1
3.607315719E1,-1.225585818E0,-5.739107728E-1,2.117211521E-1
3.609334136E1,-1.156343699E0,-3.938812315E-1,-4.926844314E-2
3.611352626E1,-1.198954225E0,-6.106624007E-1,-2.511359155E-1
3.613371198E1,-1.299088955E0,-1.061268926E0,-3.502054214E-1
3.615389865E1,-1.295360565E0,-1.248755336E0,-3.470096290E-1
3.617408626E1,-1.230912089E0,-9.637972713E-1,-3.113232851E-1
3.619427480E1,-1.070057273E0,-4.828307331E-1,-2.580601275E-1
3.621446428E1,-9.182572365E-1,-2.143843025E-1,-2.378201038E-1
3.623465459E1,-9.757815003E-1,-2.788327634E-1,-2.942790687E-1
3.625484573E1,-1.164865732E0,-6.383592486E-1,-3.518033028E-1
3.627503750E1,-1.259141564E0,-1.083639383E0,-3.784348965E-1
3.629522980E1,-1.078579426E0,-1.274321675E0,-3.502054214E-1
3.631542240E1,-5.502086878E-1,-7.731150985E-1,-3.938812315E-1
3.633561521E1,1.443432271E-1,3.331612051E-1,-6.522076726E-1
3.635581886E1,4.937497079E-1,9.510141015E-1,-8.327698708E-1
3.637599782E1,5.683181286E-1,5.866939425E-1,-8.897614479E-1
3.639617709E1,5.837644935E-1,-6.522076726E-1,-8.040077090E-1
3.641635709E1,9.123983383E-1,-1.782452345E0,-3.853591084E-1
3.643653813E1,1.519065976E0,-1.871401906E0,2.719085515E-1
3.645672042E1,2.352634668E0,-6.261087060E-1,8.103992939E-1
3.647690417E1,3.557980537E0,4.066644013E-1,1.039963603E0
3.649708959E1,3.998999596E0,7.443529963E-1,1.313736439E0
3.651727667E1,3.402984619E0,1.351553202E0,1.654088140E0
3.653746542E1,2.196041107E0,2.330530643E0,1.567269087E0
3.655765584E1,9.454214573E-1,2.614423275E0,1.213601589E0
3.657784771E1,5.102612972E-1,1.621597528E0,1.076182604E0
3.659804084E1,1.178181529E0,-1.605884880E-1,9.371656775E-1
3.661823500E1,2.122537851E0,-1.552888036E0,6.133255363E-1
3.663843001E1,2.545980215E0,-2.080726147E0,4.412854612E-1
3.665862553E1,2.322807312E0,-2.158490419E0,7.832350731E-1
3.667882126E1,1.832786083E0,-1.542768121E0,1.402685881E0
3.669901657E1,1.334242702E0,-8.535425067E-1,1.563540697E0
3.671920532E1,1.086036325E0,-1.096955180E0,1.128380537E0
3.673939396E1,1.298556328E0,-2.096172571E0,6.788392663E-1
3.675957719E1,1.688442826E0,-2.923882484E0,5.589970946E-1
3.677976084E1,1.742238641E0,-3.042126656E0,5.350286365E-1
3.679994501E1,1.335307956E0,-2.710297108E0,4.657865167E-1
3.682012990E1,5.539370775E-1,-2.060486317E0,2.516685426E-1
3.684031563E1,-4.186486006E-1,-1.373391151E0,-2.476738021E-2
3.686050230E1,-8.825709224E-1,-1.254081607E0,-2.157158963E-2
3.688068990E1,-6.391582079E-3,-1.992309332E0,2.900180221E-1
3.690087844E1,-1.518000662E-1,-1.815475583E0,6.074665785E-1
3.692106792E1,1.976063997E-1,8.253130317E-1,6.831002831E-1
3.694125834E1,3.371559381E-1,1.144892097E0,6.420876384E-1
3.696144948E1,-1.810948253E-1,1.366200596E-1,6.154560447E-1
3.698164126E1,-3.265033066E-1,-5.941507816E-1,3.997401893E-1
3.700183355E1,2.077264152E-2,-1.840509295E0,-1.864211401E-3
3.702202615E1,8.202529699E-2,-2.214949369E0,-3.480748832E-1
3.704221896E1,4.426170290E-1,-9.291762114E-1,4.066644013E-1
3.706242261E1,3.675159439E-2,1.254348010E-1,6.101297736E-1
3.708260157E1,-4.538023174E-1,5.030707717E-1,-1.571263932E-2
3.710278084E1,-4.713791609E-1,5.925529003E-1,-2.372874767E-1
3.712296084E1,-1.612809181E0,3.603254259E-1,-4.013380706E-1
3.714314188E1,-2.928942442E0,1.452753305E0,-7.677887678E-1
3.716332417E1,-3.390734196E0,2.737993956E0,-8.247803450E-1
3.718350792E1,-3.091927767E0,2.809899092E0,-5.488771200E-1
3.720369334E1,-2.406430483E0,2.031723976E0,-3.571296334E-1
3.722388042E1,-1.666604996E0,1.369662762E0,-3.773696423E-1
3.724406917E1,-1.328916430E0,1.464471221E0,-4.700475931E-1
3.726425959E1,-1.514804840E0,7.997466922E-1,-4.109254479E-1
3.728445146E1,-1.240499496E0,-1.307611167E-1,-1.062600464E-1
3.730464459E1,-9.395625591E-1,-5.089297295E-1,-1.179779470E-1
3.732483876E1,-9.906951785E-1,-6.223802567E-1,-3.470096290E-1
3.734503376E1,-1.182442665E0,-5.994771123E-1,-4.807002246E-1
3.736522928E1,-1.299621701E0,-5.126581192E-1,-5.515402555E-1
3.738542500E1,-1.335307956E0,-2.985401452E-1,-5.856286883E-1
3.740562053E1,-1.245825887E0,1.944106072E-2,-5.563339591E-1
3.742580928E1,-1.081775188E0,8.016108721E-2,-4.876244366E-1
3.744599792E1,-1.083373070E0,-1.243695319E-1,-4.838960171E-1
3.746618115E1,-1.220259547E0,-4.295675755E-1,-5.776392221E-1
3.748636480E1,-1.247956395E0,-6.500771642E-1,-6.218476295E-1
3.750654896E1,-1.138234258E0,-6.538055539E-1,-5.797697306E-1
3.752673386E1,-8.665919900E-1,-4.040012360E-1,-5.446160436E-1
3.754691959E1,-3.755054474E-1,-9.347688407E-2,-5.829655528E-1
3.756710626E1,2.130527282E-3,-9.560741484E-2,-5.962813497E-1
3.758729386E1,-1.363537461E-1,-3.592601717E-1,-5.147886276E-1
3.760748250E1,-4.378233552E-1,-6.729803085E-1,-3.613906801E-1
3.762767209E1,-2.210422009E-1,-6.133255363E-1,-2.633864284E-1
3.764786250E1,4.346275628E-1,-1.840242893E-1,-2.476738021E-2
3.766805365E1,1.234640598E0,3.595264629E-2,4.897549450E-1
3.768824542E1,2.028261900E0,-2.476738021E-2,9.499488473E-1
3.770843771E1,2.835731745E0,4.045338631E-1,1.155544758E0
3.772863032E1,3.667170048E0,9.488835931E-1,1.353683829E0
3.774882313E1,3.800860643E0,1.128913164E0,1.711079717E0
3.776902678E1,3.098319292E0,1.569932342E0,1.905490279E0
3.778920573E1,1.826394558E0,2.296974659E0,1.459144831E0
3.780938500E1,7.291729450E-1,2.463155746E0,9.835046530E-1
3.782956500E1,7.472824454E-1,1.696166039E0,9.440898895E-1
3.784974605E1,1.504152298E0,7.054708600E-1,8.434224725E-1
3.786992834E1,2.185388327E0,-9.392961860E-1,6.303697824E-1
3.789011209E1,2.291914701E0,-2.055692434E0,6.644582152E-1
3.791029750E1,2.042643070E0,-1.784050226E0,8.892288208E-1
3.793048459E1,1.829057693E0,-1.067660451E0,1.001081467E0
3.795067334E1,1.656484962E0,-1.028245687E0,7.725824714E-1
3.797086376E1,1.614939690E0,-1.686578631E0,4.375570416E-1
3.799105563E1,1.616004944E0,-2.495646477E0,3.267696202E-1
3.801124886E1,1.347025871E0,-2.779539108E0,3.656517565E-1
3.803144313E1,7.259771824E-1,-2.409359932E0,4.274370372E-1
3.805163823E1,-1.257011145E-1,-1.598694444E0,3.480748832E-1
3.807183386E1,-1.092427850E0,-7.619298100E-1,1.195758432E-1
3.809202969E1,-1.854624033E0,-3.086601496E-1,-1.062600464E-1
3.811222511E1,-9.544762373E-1,-9.238498807E-1,-1.115863696E-1
3.813241376E1,-3.968107104E-1,-8.759130239E-1,2.207758874E-1
3.815259698E1,2.940127552E-1,1.417066932E0,3.576622605E-1
3.817278063E1,3.179811835E-1,1.206677437E0,3.214432895E-1
3.819296490E1,-3.781685829E-1,1.217063740E-1,4.002728164E-1
3.821314990E1,-7.653919458E-1,-8.498140574E-1,1.930790395E-1
3.823333573E1,-7.946866751E-1,-1.779256582E0,-6.751108170E-1
3.825352250E1,-1.085503697E0,-1.527854323E0,-1.286572218E0
3.827371021E1,-4.543349445E-1,3.278348744E-1,-1.494032294E-1
3.829389886E1,5.448823571E-1,2.419480085E0,1.049551010E0
3.831408844E1,-9.693899155E-1,6.245108247E-1,5.914876461E-1
3.833427886E1,-2.198171616E0,-3.107906580E-1,7.696529478E-2
3.835447000E1,-2.715357065E0,-1.515337527E-1,-9.986846894E-2
3.837466178E1,-2.714291811E0,1.793637633E0,-4.301002026E-1
3.839485407E1,-2.370744228E0,3.814442873E0,-7.065361142E-1
3.841504667E1,-1.848232388E0,4.258125305E0,-7.518098354E-1
3.843523948E1,-1.467400670E0,3.353183508E0,-7.321024537E-1
3.845544313E1,-1.665007114E0,1.051681519E0,-8.519446254E-1
3.847562198E1,-2.271674633E0,-1.801094532E0,-8.812393546E-1
3.849580115E1,-1.799230337E0,-1.773930311E0,-4.950812757E-1
3.851598105E1,-7.387603521E-1,1.446095407E-1,-2.990727723E-1
3.853616198E1,-2.322274745E-1,1.318530083E0,-3.475422561E-1
3.855634428E1,-3.328948915E-1,1.284974217E0,-3.954791129E-1
3.857652803E1,-7.414234877E-1,5.898897648E-1,-4.801675975E-1
3.859671344E1,-1.056208849E0,-4.040012360E-1,-5.733781457E-1
3.861690053E1,-1.301219583E0,-1.332911134E0,-5.781718493E-1
3.863708928E1,-1.474324822E0,-1.615206003E0,-5.115928650E-1
3.865727969E1,-1.309741616E0,-8.721846342E-1,-3.885549009E-1
3.867747167E1,-9.992172718E-1,2.261022031E-1,-2.724411786E-1
3.869766501E1,-8.500803709E-1,8.588688374E-1,-2.783001363E-1
3.871785938E1,-6.657897830E-1,9.552751780E-1,-4.306328297E-1
3.873805459E1,-2.066611499E-1,5.281044245E-1,-6.261087060E-1
3.875825032E1,1.853558719E-1,-2.101232558E-1,-7.491466403E-1
3.877844626E1,6.018739566E-2,-6.900244951E-1,-6.996119022E-1
3.879864146E1,-4.293012619E-1,-8.215845823E-1,-4.087949097E-1
3.881883021E1,-6.881603003E-1,-7.688540220E-1,-1.334242672E-1
3.883901886E1,-3.728422821E-1,-3.565970063E-1,-1.864211401E-3
3.885920209E1,4.442149401E-1,1.115863696E-1,2.106558830E-1
3.887938573E1,1.485510111E0,-3.701791167E-2,5.643234253E-1
3.889957000E1,2.240249395E0,-8.175898343E-2,9.068056941E-1
3.891975500E1,2.947051764E0,8.322372437E-1,1.179513216E0
3.893994084E1,3.657582760E0,1.559812307E0,1.376054287E0
3.896012761E1,3.591536283E0,1.841041923E0,1.659414411E0
3.898031532E1,2.645582199E0,2.178197861E0,1.556616545E0
3.900050396E1,1.348091125E0,2.350770473E0,1.021854162E0
3.902069355E1,6.402234435E-1,1.944372416E0,6.926876903E-1
3.904088396E1,1.046621561E0,1.274854302E0,6.836329699E-1
3.906107511E1,1.910550356E0,-1.675127149E-1,6.261087060E-1
3.908126688E1,2.416018009E0,-1.704155564E0,6.149234176E-1
3.910145917E1,2.416018009E0,-2.092976809E0,7.070687413E-1
3.912165178E1,2.272739887E0,-1.583248138E0,6.815024018E-1
3.914184459E1,2.083122969E0,-1.019191027E0,5.179844499E-1
3.916204823E1,1.973933578E0,-1.208275318E0,3.198454082E-1
3.918222719E1,1.892440915E0,-1.834650278E0,2.953443527E-1
3.920240646E1,1.634114385E0,-2.342248440E0,3.917506933E-1
3.922258646E1,1.098286867E0,-2.497244358E0,4.359591305E-1
3.924276750E1,2.870885432E-1,-2.064214706E0,3.853591084E-1
3.926294980E1,-7.281076908E-1,-1.308942676E0,2.846917212E-1
3.928313355E1,-1.612276554E0,-6.538055539E-1,6.737792492E-2
3.930331896E1,-1.163267851E0,-9.281109571E-1,-8.016108721E-2
3.932350605E1,-6.492781639E-1,-1.570997596E0,7.962846011E-2
3.934369480E1,-6.604634225E-2,5.110602379E-1,3.800328076E-1
3.936388521E1,4.767054915E-1,1.415469050E0,2.452769578E-1
3.938407709E1,3.872233331E-1,1.163800508E-1,2.942790687E-1
3.940427032E1,-3.249054030E-2,-7.416898012E-1,2.687127590E-1
3.942446459E1,-2.753706574E-1,-9.930920005E-1,-3.315632939E-1
3.944465969E1,-1.225053221E-1,-1.131043673E0,-6.857634783E-1
3.946485532E1,6.141244769E-1,-6.048034430E-1,2.921485603E-1
3.948505115E1,3.834949061E-2,-6.356960535E-1,5.589970946E-1
3.950524678E1,-8.436887860E-1,2.282327414E-1,-1.222390011E-1
3.952543553E1,-1.290566921E0,1.248222709E0,-3.219759464E-1
3.954561886E1,-2.190714598E0,1.576323867E0,-2.825611830E-1
3.956580261E1,-3.016294003E0,2.110553503E0,-5.083971024E-1
3.958598688E1,-3.214965582E0,2.709231853E0,-6.825676560E-1
3.960617188E1,-2.817089796E0,3.081541300E0,-5.637907982E-1
3.962635771E1,-2.226933718E0,2.655436039E0,-4.029359818E-1
3.964654448E1,-1.768337607E0,1.718536615E0,-3.965443969E-1
3.966673219E1,-1.603754401E0,6.245108247E-1,-4.833633900E-1
3.968692084E1,-1.551023841E0,-1.595232338E-1,-3.795001805E-1
3.970711042E1,-1.296425819E0,-1.691105962E-1,-6.258423626E-2
3.972730084E1,-1.074318409E0,6.205160543E-2,-6.471476704E-2
3.974749198E1,-1.063665748E0,1.552621722E-1,-3.097254038E-1
3.976768376E1,-1.238901615E0,1.174453199E-1,-5.057339072E-1
3.978787605E1,-1.370461702E0,6.684529036E-2,-6.633929610E-1
3.980806865E1,-1.330514312E0,2.849580161E-2,-8.056056499E-1
3.982826136E1,-1.295893192E0,1.091895252E-2,-8.066709042E-1
3.984846490E1,-1.298556328E0,-9.827057272E-2,-6.607297659E-1
3.986864386E1,-1.249021649E0,-3.123885691E-1,-5.350286365E-1
3.988882313E1,-1.309741616E0,-5.552686453E-1,-4.998749495E-1
3.990900313E1,-1.294827938E0,-5.952160358E-1,-5.270391703E-1
3.992918417E1,-7.648593187E-1,1.784316637E-2,-6.926876903E-1
3.994936646E1,-2.343579940E-2,6.261087060E-1,-7.885614038E-1
3.996955021E1,1.997369379E-1,5.824328661E-1,-5.307676196E-1
3.998973563E1,-5.645897239E-2,2.663159103E-4,-1.872200817E-1
4.000992271E1,-2.519348562E-1,-5.238434076E-1,-3.861580789E-2
4.003011146E1,-2.242379934E-1,-6.570013762E-1,-3.994738683E-3
4.005030188E1,2.609895915E-2,-4.908202291E-1,3.968106955E-2
4.007049376E1,7.462171912E-1,-1.030642539E-1,1.227716357E-1
4.009068698E1,1.839710355E0,-9.187898785E-2,3.555317521E-1
4.011088126E1,2.616287470E0,3.289001584E-1,7.161234617E-1
4.013107636E1,3.330014229E0,1.008005738E0,1.112934232E0
4.015127198E1,3.890875340E0,1.162468910E0,1.373391151E0
4.017146782E1,3.622961760E0,1.214134216E0,1.530517578E0
4.019166334E1,2.484727383E0,1.640772343E0,1.413871169E0
4.021185209E1,1.190432072E0,1.707883954E0,1.005342603E0
4.023203542E1,7.105308771E-1,1.198155284E0,6.607297659E-1
4.025221917E1,1.347025871E0,3.667170107E-1,6.064013243E-1
4.027240344E1,2.165680885E0,-8.295740485E-1,5.691171288E-1
4.029258844E1,2.439986467E0,-1.903359771E0,7.321024537E-1
4.031277428E1,2.229064226E0,-2.348107338E0,1.009603620E0
4.033296105E1,1.954758763E0,-1.972601891E0,1.071921587E0
4.035314876E1,1.773131371E0,-1.634380698E0,7.187866569E-1
4.037333740E1,1.815209270E0,-1.922534585E0,3.528685868E-1
4.039352698E1,1.933986187E0,-2.479667425E0,3.225085735E-1
4.041371740E1,1.763011336E0,-2.810964346E0,5.350286365E-1
4.043390855E1,1.073253155E0,-2.654903412E0,6.969487667E-1
4.045410032E1,-2.024000883E-2,-2.046637774E0,5.334307551E-1
4.047429261E1,-1.024250984E0,-1.130511045E0,1.563274413E-1
4.049448521E1,-1.488705993E0,-5.584644675E-1,-1.632516533E-1
4.051467792E1,-6.093307734E-1,-8.647277355E-1,-9.614004195E-2
4.053488146E1,-4.921517968E-1,-7.422224283E-1,2.665822208E-1
4.055506032E1,-1.944106072E-1,9.020119905E-1,5.243760347E-1
4.057523948E1,2.982738316E-1,1.453818560E0,5.414202213E-1
