"Time (s)","Acceleration x (m/s^2)","Acceleration y (m/s^2)","Acceleration z (m/s^2)"
3.289214400E-2,-9.026923180E-1,4.613361835E0,9.140582085E0
5.302547700E-2,-1.517647743E0,4.287938118E0,9.880562782E0
7.342943500E-2,-1.901097536E0,4.232903481E0,8.930013657E0
9.363308100E-2,-2.121237278E0,4.433900356E0,7.744968891E0
1.138220390E-1,-2.078166485E0,4.584648132E0,7.656434059E0
1.340893310E-1,-1.829312921E0,4.682754040E0,7.668398380E0
1.543565710E-1,-1.713859200E0,4.893322468E0,7.740182877E0
1.746231850E-1,-1.532004714E0,4.596612453E0,7.950751305E0
1.950236540E-1,-1.486541033E0,4.244867325E0,8.199604988E0
2.151572480E-1,-1.185045362E0,3.459423304E0,8.230711937E0
2.354242270E-1,-1.122832060E0,3.409173965E0,8.752944946E0
2.556911020E-1,-6.675975323E-1,3.933202267E0,8.867800713E0
2.759577690E-1,-2.057827413E-1,4.211368084E0,8.492127419E0
2.963579770E-1,-4.067798555E-1,4.323830605E0,8.024929047E0
3.164914140E-1,-6.963114142E-1,3.818346739E0,7.498507977E0
3.367581330E-1,-1.074975610E0,3.049652576E0,7.520043373E0
3.570248000E-1,-1.218544960E0,2.372483730E0,8.389236450E0
3.772915190E-1,-1.503290772E0,2.063211441E0,8.908478737E0
3.976916230E-1,-1.591825247E0,1.953141451E0,9.923633575E0
4.178249560E-1,-1.596610904E0,2.226521492E0,1.014616585E1
4.380915710E-1,-7.830511928E-1,2.343769789E0,1.066122150E1
4.583583410E-1,-7.034898400E-1,2.147558212E0,9.882955551E0
4.786250080E-1,-4.354937077E-1,2.204986095E0,9.524032593E0
4.988916750E-1,-1.060618639E0,2.276770830E0,9.205188751E0
5.191583410E-1,-1.074975610E0,2.315055847E0,9.279366493E0
5.394250080E-1,-5.599204898E-1,1.194616675E0,9.209974289E0
5.596916750E-1,-1.718644857E0,6.269195080E-1,1.019641590E1
5.799582890E-1,-2.434697151E0,1.158724308E0,1.046500969E1
6.002249560E-1,-1.563111424E0,7.082754970E-1,1.123549843E1
6.204915710E-1,-1.698904037E-1,5.407779217E-1,1.142453194E1
6.407582370E-1,-5.024927482E-2,6.723831892E-1,1.068275642E1
6.610248520E-1,-1.199402332E0,5.934200287E-1,1.008395290E1
6.812914660E-1,-8.620143533E-1,2.703889608E-1,1.041954613E1
7.015581850E-1,-7.130611539E-1,4.785645381E-2,1.039801121E1
7.218248000E-1,-5.024927258E-1,6.795616150E-1,1.074497032E1
7.420914660E-1,2.392822690E-2,7.872386575E-1,1.075454140E1
7.623580810E-1,-5.216353536E-1,7.944171429E-1,1.086461163E1
7.826247480E-1,-4.474578202E-1,7.250252366E-1,1.092682457E1
8.028913620E-1,-3.230310678E-1,6.460621357E-1,1.051047325E1
8.231579770E-1,-2.775674164E-1,5.886343718E-1,1.033759212E1
8.434246440E-1,3.589234129E-2,8.709874153E-1,1.041236782E1
8.636912580E-1,-3.804588020E-1,1.570289850E0,1.085025406E1
8.839578730E-1,-7.998009920E-1,1.345364571E0,8.772088051E0
9.042245390E-1,1.435693651E-1,1.115653515E0,9.421140671E0
9.244911540E-1,-3.661018610E-1,1.086939692E0,9.945169449E0
9.447578210E-1,-9.242277741E-1,8.231309652E-1,9.914062500E0
9.650244350E-1,-8.907282352E-1,3.708875179E-1,9.195617676E0
9.852910500E-1,-9.553344250E-1,3.326023519E-1,8.944371223E0
1.005691050E0,-9.242277741E-1,1.002592683E0,9.583852768E0
1.025824331E0,-8.811569214E-1,9.834501147E-1,1.060140038E1
1.046090998E0,-1.472184181E0,1.733001828E0,1.007677460E1
1.066357612E0,-1.400399446E0,1.620539188E0,9.949954987E0
1.086624227E0,-1.292722464E0,1.113260746E0,9.576674461E0
1.106890894E0,-1.407577872E0,9.882357717E-1,8.453842163E0
1.127157508E0,-9.314061999E-1,-2.757728100E-1,7.658827305E0
1.147424123E0,-8.668000102E-1,-6.658028960E-1,8.017750740E0
1.167690789E0,-2.626122952E0,-4.456632137E-1,8.877371788E0
1.187957404E0,-3.938585997E0,-5.054838061E-1,1.128335476E1
1.208224019E0,-3.291925669E0,-1.089930773E0,1.086461163E1
1.228490685E0,-1.560718536E0,-1.802991867E0,9.863813400E0
1.248699591E0,-9.888339639E-1,-2.107478619E0,9.066405296E0
1.268379591E0,-5.527420044E-1,-2.722434044E0,8.221140862E0
1.288779591E0,-1.173081279E0,-3.050250769E0,8.353343964E0
1.309179591E0,-3.602992773E0,-3.780659676E0,9.145368576E0
1.329579591E0,-4.790431023E0,-3.574877024E0,1.080239773E1
1.349979591E0,-3.703491211E0,-3.838087559E0,1.118524933E1
1.370324644E0,-4.043870449E0,-3.613162279E0,9.512067795E0
1.390597091E0,-5.690730572E0,-3.668197155E0,8.685946465E0
1.410869071E0,-5.762515068E0,-3.613162279E0,7.867002487E0
1.431139956E0,-4.963312149E0,-3.388236761E0,6.528816700E0
1.451409956E0,-3.617349625E0,-3.172882795E0,5.640480995E0
1.471679279E0,-3.504886866E0,-2.791825771E0,4.761716843E0
1.491948029E0,-3.873381615E0,-2.274976015E0,4.143770695E0
1.512216414E0,-3.265604734E0,-2.351546526E0,4.095914364E0
1.532484383E0,-2.539981127E0,-2.093121529E0,4.043272018E0
1.552752144E0,-2.082952023E0,-2.093121529E0,4.143770695E0
1.573019644E0,-2.482553482E0,-2.068595171E0,4.319045067E0
1.593286987E0,-3.784847260E0,-1.779063582E0,4.527220249E0
1.613554175E0,-3.744169235E0,-1.982453585E0,4.792823792E0
1.633821206E0,-3.136392355E0,-2.552543640E0,5.283950806E0
1.654088237E0,-3.950550079E0,-2.944966555E0,5.870192051E0
1.674354852E0,-6.246463299E0,-2.877967358E0,6.842276573E0
1.694755164E0,-8.161917686E0,-2.863610506E0,7.716254711E0
1.714888602E0,-8.496912956E0,-2.511865616E0,8.618947029E0
1.735155425E0,-8.662017822E0,-2.483151674E0,9.336793900E0
1.755422196E0,-1.129352474E1,-4.084548473E0,1.455434418E1
1.775688758E0,-1.077129078E1,-1.319641709E0,1.560778427E1
1.796088914E0,-8.389236450E0,1.746760458E-1,9.339186668E0
1.816222196E0,-8.508877754E0,-1.125823021E0,6.085546017E0
1.836488862E0,-1.025444126E1,-3.354737282E0,7.290332317E0
1.856755581E0,-1.067318535E1,-2.184048891E0,6.863811970E0
1.877022144E0,-1.057986546E1,-1.733600020E0,5.044070244E0
1.897422196E0,-1.039083195E1,-1.798206210E0,3.684348583E0
1.917555477E0,-1.013659477E1,-1.429711580E0,3.792025566E0
1.937822144E0,-9.413962364E0,-2.495115757E0,4.876572609E0
1.958088758E0,-9.124430656E0,-2.554936409E0,4.474578381E0
1.978355373E0,-9.866206169E0,-1.960918188E0,3.564707518E0
1.998761362E0,-9.653244972E0,-2.566900492E0,4.821537495E0
2.019000008E0,-8.221738815E0,-2.404188633E0,7.560721397E0
2.039150060E0,-6.679564476E0,-2.337189436E0,9.339186668E0
2.059417769E0,-6.184250355E0,-2.528615236E0,6.279963017E0
2.079685216E0,-5.530411243E0,-3.206382275E0,2.324627161E0
2.099952508E0,-8.044071198E0,-2.954537868E0,1.706680775E0
2.120219644E0,-7.857431412E0,-1.977667928E0,3.765704632E0
2.140486623E0,-7.323832035E0,-2.330011129E0,4.331008911E0
2.160753550E0,-7.034300327E0,-1.594816327E0,3.643670797E0
2.181020477E0,-7.249654293E0,-2.126621008E0,3.073580742E0
2.201287248E0,-8.843872070E0,-2.741576433E0,2.549552441E0
2.221554071E0,-9.514460564E0,-3.687339783E0,2.243271112E0
2.241820841E0,-8.472985268E0,-3.519842148E0,1.465005636E0
2.262087456E0,-7.596613884E0,-4.127619267E0,5.407779217E-1
2.282354175E0,-7.106084824E0,-4.034298897E0,1.933998942E0
2.302620841E0,-6.064609051E0,-4.652245522E0,1.838286042E0
2.322887560E0,-5.425127029E0,-6.570092678E0,6.843472719E-1
2.343154175E0,-5.757729530E0,-8.717651367E0,3.828516304E-1
2.363420789E0,-5.652445316E0,-9.785448074E0,2.871387079E-2
2.383687456E0,-5.772086620E0,-1.082453156E1,7.130611539E-1
2.403954071E0,-6.583851337E0,-9.881160736E0,3.174677372E0
2.424220737E0,-6.315855503E0,-8.344370842E0,3.411566973E0
2.444487300E0,-6.282355785E0,-8.552546501E0,3.054438114E0
2.464753914E0,-6.122036934E0,-7.055835724E0,2.257628202E0
2.485020581E0,-4.515256405E0,-7.901100159E0,2.403590441E0
2.505287196E0,-3.806382656E0,-8.269595146E0,3.583850145E0
2.525553810E0,-3.102892876E0,-8.035098076E0,3.272783279E0
2.545820373E0,-2.461018085E0,-7.877171993E0,2.707478762E0
2.566086987E0,-1.994417667E0,-8.269595146E0,1.816750646E0
2.586486987E0,-1.474576950E0,-7.814958572E0,3.158525825E-1
2.606620216E0,-9.960124493E-1,-7.759923935E0,1.347757339E0
2.626886779E0,-7.106683254E-1,-7.994420528E0,3.087937593E0
2.647153394E0,-5.192425251E-1,-6.047859192E0,2.410768747E0
2.667420008E0,-3.828516304E-1,-5.442475319E0,-7.956135273E-2
2.687820008E0,-5.335994363E-1,-4.549354076E0,-1.819741607E0
2.707953237E0,-1.118046403E0,-6.222535133E0,-2.047059774E0
2.728219852E0,-2.216950178E0,-1.572084522E1,-7.280163169E-1
2.748486466E0,-1.493719578E0,-2.910150909E1,-1.609173268E-1
2.768753081E0,-1.520040631E0,-2.111725807E1,-6.873382926E-1
2.789153081E0,-2.843869686E0,-1.046082211E1,9.643075466E-1
2.809286310E0,-2.362912416E0,-1.047757244E1,3.641277790E0
2.829552925E0,-1.292124242E-1,-8.411369324E0,5.144568682E-1
2.849819539E0,2.346760750E0,-8.899505615E0,-2.784647465E0
2.870086154E0,3.720839262E0,-1.014915752E1,-2.660220623E0
2.890352716E0,3.363710403E0,-1.028554821E1,2.488535494E-1
2.910619383E0,2.104487419E0,-1.066181946E1,1.204187989E0
2.930885998E0,2.116451740E0,-1.161954689E1,5.144568682E-1
2.951152612E0,2.173879385E0,-1.092502975E1,-5.509474277E-1
2.971419227E0,1.389033556E0,-8.523832321E0,-1.410568953E0
2.991685841E0,3.547359705E-1,-7.503891945E0,-1.704886079E0
3.011952456E0,-1.512862086E0,-7.807780266E0,-1.901097536E0
3.032219123E0,-3.145963669E0,-9.469595909E0,-2.404188633E0
3.052485737E0,-3.502494097E0,-1.050867844E1,-2.492722988E0
3.072752352E0,-3.057429075E0,-9.826126099E0,-2.289333105E0
3.093018966E0,-2.748156786E0,-9.157930374E0,-2.097907305E0
3.113285633E0,-2.396411896E0,-9.071788788E0,-1.494317770E0
3.133552248E0,-1.673181176E0,-9.663414001E0,-6.083751321E-1
3.153818862E0,-7.633104324E-1,-1.039561844E1,2.799602449E-1
3.174085529E0,-7.178468257E-2,-1.139163017E1,1.974676847E0
3.194352144E0,4.408775866E-1,-1.259402370E1,5.961119175E0
3.214618758E0,3.619144261E-1,-1.242592812E1,8.575876236E0
3.234885425E0,-5.048855543E-1,-1.122652531E1,8.398807526E0
3.255152039E0,-1.357328653E0,-9.773484230E0,7.759325504E0
3.275418706E0,-9.457631707E-1,-1.152144146E1,6.221937180E0
3.295685321E0,1.201795220E0,-1.826800537E1,4.335794449E0
3.315951935E0,1.963310957E0,-2.041077805E1,3.052045345E0
3.336218654E0,-1.987239242E0,-1.539243031E1,1.108475089E0
3.356485269E0,-5.633302689E0,-1.302951717E1,-1.551745534E0
3.376751935E0,-6.165107727E0,-1.274716473E1,-6.876374245E0
3.397018550E0,-8.482556343E0,-1.127438164E1,-7.520641804E0
3.417285216E0,-6.157928944E0,-8.940183640E0,1.185045362E0
3.437551883E0,-3.148356438E0,-8.385048866E0,6.844669342E0
3.457818446E0,-1.443470240E0,-8.609973907E0,3.741776466E0
3.478085164E0,-2.154736757E0,-8.406583786E0,3.637090325E-1
3.498351831E0,-2.976073265E0,-7.403393269E0,-1.063609719E0
3.518618498E0,-2.006381750E0,-6.155536175E0,-5.868397355E-1
3.538885112E0,-4.546363056E-1,-5.234299660E0,9.308080077E-1
3.559151779E0,9.553344250E-1,-4.685744762E0,2.286342144E0
3.579418446E0,2.183450699E0,-4.771886349E0,2.697907448E0
3.599685112E0,1.944168448E0,-4.805386066E0,2.484946251E0
3.619951779E0,1.307677627E0,-4.735994339E0,2.456232548E0
3.640218446E0,1.530210137E0,-4.992026329E0,2.803191662E0
3.660485060E0,2.130808592E0,-5.289334297E0,3.289532900E0
3.680751727E0,2.003988981E0,-5.109274387E0,3.741776466E0
3.701018394E0,6.059823632E-1,-4.819743156E0,3.911666870E0
3.721285060E0,-6.460621357E-1,-5.066203594E0,4.182653904E0
3.741551727E0,-1.319043517E0,-6.050251961E0,4.831109047E0
3.761818394E0,-1.601396561E0,-7.532605648E0,5.729015827E0
3.782085112E0,-1.455434322E0,-9.026325226E0,7.179664135E0
3.802351727E0,-1.412363529E0,-1.026879883E1,8.731410027E0
3.822618446E0,-2.073380709E0,-1.106620693E1,9.054440498E0
3.842885112E0,-2.504088879E0,-9.838089943E0,9.279366493E0
3.863151779E0,-1.814357758E0,-7.070192814E0,7.689933777E0
3.883551779E0,7.974081635E-1,-8.782257080E0,4.156332970E0
3.903843029E0,4.556532383E0,-1.561795330E1,2.970689297E0
3.923952404E0,5.681757450E0,-2.459103775E1,1.446281815E1
3.944218914E0,-2.257628202E0,-2.241476631E1,3.294318676E0
3.964485529E0,-1.027119160E0,-3.766302824E0,-6.790232658E0
3.984885529E0,1.405783296E0,2.236092806E0,5.264209956E-2
4.005166362E0,2.166700840E0,-1.044467092E0,-5.820540786E-1
4.025281675E0,1.678565025E0,-8.351549149E0,-3.299702406E0
4.045549019E0,7.064808607E-1,-1.596251965E1,-2.609971285E0
4.065816258E0,-1.862812400E0,-1.791625977E1,-7.160521746E-1
4.086083394E0,-1.553540111E0,-1.162672520E1,1.522433400E0
4.106350425E0,3.714857101E-1,-8.428119659E0,2.666800737E0
4.126617404E0,9.529415965E-1,-9.086145401E0,1.431506157E0
4.146884279E0,3.786641955E-1,-1.022812080E1,-5.653043389E-1
4.167151206E0,-3.852444589E-1,-1.100877857E1,-1.874776483E0
4.187418029E0,-1.137188911E0,-1.071685410E1,-1.712064624E0
4.207684748E0,-1.898704767E0,-9.797411919E0,-7.710871100E-1
4.227951571E0,-2.516052961E0,-9.215357780E0,1.268195957E-1
4.248214383E0,-2.743371248E0,-9.184251785E0,6.532405615E-1
4.268446623E0,-3.040679455E0,-9.639486313E0,4.354937077E-1
4.288752456E0,-2.702693224E0,-9.909874916E0,-4.025924206E-1
4.309019071E0,-3.449851990E0,-9.047860146E0,-3.332005441E-1
4.329285685E0,-3.361317635E0,-8.293522835E0,-6.059823632E-1
4.349552300E0,-2.494517565E0,-7.903493404E0,-7.495517135E-1
4.369818966E0,-9.960124493E-1,-8.499904633E0,-1.590030670E0
4.390085581E0,1.795813441E0,-1.032383347E1,-2.598007202E0
4.410352248E0,3.720839262E0,-1.130788136E1,-4.528416991E-1
4.430618914E0,5.159523964E0,-1.192582798E1,4.761716843E0
4.450885633E0,2.416152716E0,-1.266341591E1,4.076771736E0
4.471152248E0,-1.448255897E0,-1.236132145E1,6.915257573E-1
4.491418966E0,-3.854238987E0,-1.093699455E1,-4.336991012E-1
4.511685581E0,-5.496912003E0,-9.275178909E0,-8.500502706E-1
4.531952300E0,-5.901299000E0,-7.877171993E0,1.297508121E0
4.552218966E0,-3.866203070E0,-9.349356651E0,2.539981127E0
4.572485685E0,-4.938786030E0,-1.483011627E1,9.810572863E-2
4.592752352E0,-6.002395630E0,-1.568734550E1,7.202396393E-1
4.613019019E0,-5.748157978E0,-9.248857498E0,2.188236237E0
4.633285737E0,-6.272784710E0,-9.629914284E0,-5.413761139E-1
4.653552404E0,-5.437091351E0,-1.352782249E1,-2.344367981E0
4.673819123E0,-3.303889751E0,-1.628315735E1,-2.698505640E0
4.694085789E0,-1.127617717E0,-1.934776497E1,-3.220739365E0
4.714352508E0,5.102694035E-1,-1.949372864E1,-2.961716175E0
4.734619175E0,2.042274237E0,-1.497129345E1,-2.808575630E0
4.754885894E0,2.942573547E0,-1.209332561E1,-1.702493310E0
4.775152560E0,3.483949661E0,-1.069053364E1,-1.633101463E0
4.795419279E0,3.189034462E0,-9.759127617E0,-1.599601984E0
4.815685946E0,2.720041037E0,-8.758329391E0,-2.267797709E0
4.835952664E0,9.242277741E-1,-6.854838848E0,-2.662613392E0
4.856219331E0,-1.405185103E0,-4.666602135E0,-1.204786181E0
4.876486050E0,-1.800000787E0,-3.711267948E0,-1.372283816E0
4.896752716E0,-7.902296782E-1,-3.723232031E0,-2.059023857E0
4.917019435E0,1.362712502E0,-4.432105541E0,-2.382653236E0
4.937286102E0,3.586841106E0,-4.704887390E0,-2.179263115E0
4.957552821E0,5.102096081E0,-3.938585997E0,-1.195214868E0
4.977819487E0,4.189832687E0,-3.517449379E0,3.828516230E-2
4.998086206E0,8.644071817E-1,-6.579664230E0,6.870990276E0
5.018352873E0,-9.284749985E0,-1.554317760E1,1.639502335E1
5.038619591E0,-1.755913162E1,-1.881416702E1,1.967498422E0
5.058886258E0,-1.192283726E1,-1.060678482E1,1.098903775E0
5.079152977E0,-8.362915039E0,-6.637091637E0,2.604587555E0
5.099419644E0,2.755933523E0,-1.916830444E1,3.643670797E0
5.119686362E0,1.646022606E1,-2.655674171E1,2.508635330E1
5.139953029E0,1.149930763E1,-1.040818024E1,2.592623234E0
5.160353029E0,5.181059361E0,-6.885945320E0,-7.235297680E0
5.180486414E0,1.728814363E0,-5.037489891E0,-9.026325226E0
5.200753081E0,5.742774159E-2,-8.509475708E0,-9.474381447E0
5.221019800E0,-2.281556368E0,-1.189472103E1,-9.840482712E0
5.241286466E0,-4.956133842E0,-1.187318611E1,-1.015155029E1
5.261686466E0,-5.341378212E0,-1.006540871E1,-7.091728210E0
5.281819852E0,-4.716253281E0,-1.005105114E1,-4.209573269E0
5.302086571E0,-4.620540619E0,-1.148076344E1,-4.241278172E-1
5.322353237E0,-4.730610371E0,-9.943374634E0,1.460219979E0
5.342619956E0,-2.793620348E0,-8.985647202E0,1.969891191E0
5.362886623E0,-9.337990284E-1,-1.023051357E1,5.623731613E0
5.383153289E0,-1.666002750E0,-9.730413437E0,7.575078487E0
5.403553289E0,-2.597409010E0,-9.313464165E0,1.795215130E0
5.423844591E0,-2.338984251E0,-9.181859016E0,-7.615157962E-1
5.444111362E0,-2.530410051E0,-8.741579056E0,-1.525424480E0
5.464220789E0,-2.262413740E0,-8.595617294E0,-1.771885157E0
5.484620789E0,-1.709073544E0,-8.842078209E0,-2.485544443E0
5.504893133E0,-9.768698215E-1,-9.565308571E0,-3.122035265E0
5.525013914E0,-9.864411354E-1,-1.019940662E1,-2.485544443E0
5.545281779E0,-9.290133715E-1,-1.075753212E1,-9.553344250E-1
5.565549487E0,-1.213759303E0,-1.188993549E1,3.756731451E-1
5.585816987E0,-2.719442844E0,-1.336211967E1,3.949951887E0
5.606084279E0,-5.623731613E0,-1.262513065E1,5.944369793E0
5.626351414E0,-6.591030121E0,-1.155972576E1,1.790429592E0
5.646618602E0,-6.837490559E0,-1.131984615E1,1.295115232E0
5.666885581E0,-7.319046497E0,-1.491625786E1,4.429114819E0
5.687152508E0,-6.198606968E0,-1.325683594E1,5.831906796E0
5.707419435E0,-5.898906231E0,-8.990432739E0,1.431506157E0
5.727686258E0,-6.796812534E0,-1.078863907E1,-2.887538671E0
5.747953081E0,-6.514459610E0,-1.299841118E1,-5.432903767E0
5.768219800E0,-4.984847546E0,-1.541396523E1,-5.681757450E0
5.788486623E0,-3.055036306E0,-1.930948067E1,-4.460819721E0
5.808753341E0,-1.674975902E-1,-2.103590202E1,-5.239085197E0
5.829020112E0,1.338784218E0,-1.514596939E1,-6.371488571E0
5.849286831E0,9.529415965E-1,-9.847661972E0,-5.274977684E0
5.869553550E0,1.096511006E0,-7.211369038E0,-3.957728624E0
5.889820269E0,1.965703845E0,-6.361917019E0,-2.569293261E0
5.910086935E0,2.586043119E0,-5.490331650E0,-1.920240223E-1
5.930353706E0,2.361117840E0,-5.667400360E0,3.689134359E0
5.950620373E0,2.245664120E0,-6.314060688E0,1.354935765E0
5.970887039E0,2.224128723E0,-6.249454498E0,-3.284149170E-1
5.991220425E0,2.497508526E0,-6.129215240E0,-1.161715388E0
6.011619019E0,3.284747362E0,-6.189035892E0,-1.434497118E0
6.031687144E0,4.414757729E0,-5.655436516E0,-1.817348838E0
6.051953810E0,4.625924587E0,-4.764708042E0,-1.549352646E0
6.072220477E0,4.192225456E0,-6.804589272E0,1.175474167E0
6.092487144E0,-3.114856958E0,-1.767937088E1,2.135354996E1
6.112753810E0,-1.374497128E1,-1.846900177E1,7.297510624E0
6.133020477E0,-1.397229004E1,-1.383889008E1,1.680359721E0
6.153287144E0,-1.077129078E1,-8.027919769E0,3.902095556E0
6.173553862E0,-1.668395638E0,-1.398245907E1,7.848458290E-1
6.193820529E0,5.638686657E0,-1.709013748E1,4.821537495E0
6.214087196E0,1.062054348E1,-1.044407272E1,1.333520031E1
6.234353862E0,3.771088600E0,-1.022333431E1,-4.513461590E0
6.254620529E0,2.243271112E0,-1.101595688E1,-4.929812908E0
6.274887196E0,7.399803996E-1,-1.044646549E1,-5.964110374E0
6.295153862E0,-1.395613790E0,-9.649057388E0,-7.714460373E0
6.315420529E0,-2.673979282E0,-8.844470978E0,-8.621937752E0
6.335687196E0,-1.996810555E0,-8.911469460E0,-6.193821430E0
6.355953862E0,-2.121237278E0,-9.253643036E0,-3.620340586E0
6.376220529E0,-1.579861164E0,-1.006540871E1,-2.322832584E0
6.396620529E0,-1.043868899E0,-1.014197922E1,-1.051047325E0
6.416753862E0,-1.369292736E0,-1.007737255E1,-9.870393574E-2
6.437020529E0,-9.266205430E-1,-9.491130829E0,1.674975902E-1
6.457287196E0,-6.532405615E-1,-9.337391853E0,6.675975323E-1
6.477553862E0,-7.274180651E-1,-9.701699257E0,1.194616675E0
6.497820529E0,-5.551348329E-1,-9.653842926E0,1.206580877E0
6.518087144E0,-5.216353536E-1,-8.937790871E0,7.585247755E-1
6.538353862E0,-7.585247755E-1,-8.312665939E0,2.153540403E-2
6.558620529E0,-1.086939692E0,-8.758329391E0,-7.782655358E-1
6.578887196E0,-1.130010486E0,-9.902696609E0,-1.759921074E0
6.599153862E0,-8.093722463E-1,-1.033340454E1,-2.487937450E0
6.619420477E0,-5.718846321E-1,-1.024487019E1,-2.710469961E0
6.639687144E0,-1.058225870E0,-1.046321487E1,-2.294118643E0
6.659953810E0,-2.532802820E0,-1.115234852E1,-1.551745534E0
6.680220477E0,-4.228117466E0,-1.227039433E1,-1.501496196E0
6.700487144E0,-5.702694416E0,-1.319701481E1,-1.511067510E0
6.720753810E0,-6.710670948E0,-1.245942783E1,-5.605186820E-1
6.741020477E0,-8.066205025E0,-1.266341591E1,7.657032609E-1
6.761287091E0,-7.869395256E0,-1.256770229E1,3.555136204E0
6.781553758E0,-3.600599766E0,-1.262513065E1,1.307916832E1
6.801820425E0,-3.569493294E0,-1.275434303E1,8.180462837E0
6.822087091E0,-3.531208038E0,-1.048475075E1,6.723831892E-1
6.842353706E0,-3.669991732E0,-1.014915752E1,-1.927418590E0
6.862620373E0,-3.528815269E0,-1.131984615E1,-5.325226784E0
6.882887039E0,-3.016751051E0,-1.452802277E1,-6.536593437E0
6.903153654E0,-1.460219979E0,-1.859103584E1,-4.453640938E0
6.923553654E0,9.960124493E-1,-1.870828438E1,-4.700101852E0
6.943844904E0,2.526222467E0,-1.318265820E1,-4.365106583E0
6.963954227E0,1.405783296E0,-9.064610481E0,-2.736790895E0
6.984354227E0,1.000798106E0,-7.298109055E0,-2.008774519E0
7.004628914E0,1.965703845E0,-7.000801086E0,-8.189435601E-1
7.024748081E0,2.087737799E0,-7.079763889E0,4.881358147E-1
7.045015841E0,1.220937729E0,-7.029514790E0,3.661018610E-1
7.065283341E0,7.208378315E-1,-6.558128834E0,-6.634100676E-1
7.085550685E0,4.863412082E-1,-6.369095802E0,-1.594816327E0
7.105817925E0,1.194616675E0,-6.469594002E0,-1.558923960E0
7.126085008E0,3.500699520E0,-6.145965099E0,-1.475175142E0
7.146351987E0,5.815755367E0,-5.674578667E0,-1.135394335E0
7.166618966E0,5.502295494E0,-6.067001820E0,-4.839483798E-1
7.186885789E0,2.273181528E-1,-1.321376514E1,2.001057816E1
7.207152612E0,-1.493719578E1,-2.059980965E1,1.474098396E1
7.227419383E0,-1.676650810E1,-1.491865063E1,3.182454109E-1
7.247686154E0,-1.291167068E1,-8.947361946E0,1.507478207E-1
7.267952873E0,-5.449055195E0,-1.299123192E1,-1.556531072E0
7.288219591E0,5.054239750E0,-1.683649826E1,6.154938221E0
7.308486310E0,1.033101177E1,-1.303190994E1,8.910871506E0
7.328753029E0,5.346164227E0,-6.483951092E0,-3.553341627E0
7.349019748E0,4.594817638E0,-6.196214199E0,-2.660220623E0
7.369286362E0,3.448057413E0,-9.217751503E0,-4.379463673E0
7.389553029E0,2.338984251E0,-1.185882950E1,-5.727221012E0
7.409819696E0,3.068794906E-1,-1.052064323E1,-7.067800045E0
7.430219696E0,-6.340979934E-1,-8.968897820E0,-6.369095802E0
7.450353029E0,-1.584646821E0,-9.141180992E0,-4.178466320E0
7.470619696E0,-2.236092806E0,-1.028076267E1,-2.825325251E0
7.490886310E0,-2.700300455E0,-1.029272652E1,-7.064808607E-1
7.511152977E0,-2.358126640E0,-9.735198975E0,2.584248483E-1
7.531552977E0,-1.419542074E0,-8.968897820E0,4.019941986E-1
7.551686258E0,-1.448255897E0,-9.129216194E0,1.283151150E0
7.571952873E0,-1.465005636E0,-9.428917885E0,2.063211441E0
7.592219539E0,-8.213363886E-1,-9.356534958E0,1.395613790E0
7.612486206E0,-1.022333503E0,-8.830113411E0,1.076770201E-1
7.632752873E0,-4.450650215E-1,-8.375477791E0,-4.600201547E-1
7.653019487E0,-5.982056633E-2,-8.710473061E0,-4.145565331E-1
7.673286154E0,7.178467698E-3,-9.023932457E0,-1.240678549E0
7.693694071E0,4.504488707E-1,-9.728020668E0,-2.258226395E0
7.713983706E0,5.461617708E-1,-1.104227829E1,-2.361117840E0
7.734249123E0,2.153540403E-1,-1.142752266E1,-1.597209096E0
7.754499123E0,-1.053440213E0,-1.273998642E1,-4.145565331E-1
7.774608498E0,-2.528017044E0,-1.251027489E1,8.135596663E-2
7.795010841E0,-4.235296249E0,-1.146401310E1,-5.270192027E-1
7.815145841E0,-5.812764645E0,-1.128156090E1,-1.556531072E0
7.835413810E0,-7.106084824E0,-1.260120201E1,-1.657029629E0
7.855681623E0,-6.665207386E0,-1.285244846E1,-6.897311211E-1
7.875948133E0,-3.830310822E0,-1.141555882E1,3.294318676E0
7.896349123E0,-2.003988981E0,-1.440359592E1,1.260778236E1
7.916482352E0,-2.271985054E0,-1.197368431E1,4.419543266E0
7.936752769E0,-2.925823927E0,-9.809376717E0,-2.205584288E0
7.957019383E0,-2.990430117E0,-1.089870930E1,-4.005585194E0
7.977285998E0,-2.638087034E0,-1.227757263E1,-4.575675011E0
7.997552664E0,-1.390828133E0,-1.470808220E1,-4.161118507E0
8.017819227E0,2.273181528E-1,-1.689631844E1,-3.548556089E0
8.038085894E0,1.855633974E0,-1.504786301E1,-4.058227062E0
8.058352560E0,1.515853167E0,-1.060917759E1,-3.412165165E0
8.078619175E0,9.720842242E-1,-8.471190453E0,-3.696911097E0
8.098885841E0,9.984052777E-1,-7.613961697E0,-3.448057413E0
8.119152456E0,1.278365493E0,-6.378666878E0,-1.266999602E0
8.139419123E0,1.507478207E-1,-5.487938881E0,-2.452643216E-2
8.159685789E0,-5.479564071E-1,-5.803791523E0,-7.615157962E-1
8.179952456E0,2.153540403E-2,-6.591628075E0,-1.601994753E0
8.200219123E0,1.534995675E0,-6.974479675E0,-1.592423439E0
8.220485789E0,3.515056372E0,-7.134799004E0,-1.922633052E0
8.240752404E0,5.983253002E0,-6.821339130E0,-1.898704767E0
8.261152404E0,6.766304016E0,-6.761518478E0,-1.164108157E0
8.281285737E0,5.334199905E0,-8.715258598E0,3.854238987E0
8.301552404E0,-8.078168869E0,-2.050409698E1,3.404268646E1
8.321819071E0,-1.706800461E1,-1.890987968E1,1.507478207E-1
8.342085737E0,-1.465484238E1,-1.102074242E1,-8.883354068E-1
8.362352352E0,-9.763314247E0,-4.996811867E0,1.268195957E-1
8.382619019E0,-3.172284603E0,-1.512682629E1,-1.034297585E0
8.402885685E0,5.437091351E0,-1.720499229E1,6.032904148E0
8.423218966E0,1.242592812E1,-1.211964703E1,1.804248047E1
8.443619019E0,4.762315273E0,-8.013563156E0,-4.434498787E0
8.463685685E0,2.763111830E0,-9.529416084E0,-5.473581791E0
8.483952352E0,4.073780477E-1,-9.356534958E0,-6.661019802E0
8.504219019E0,5.461617708E-1,-1.020897770E1,-8.315058708E0
8.524485685E0,-2.632105052E-1,-8.995218277E0,-8.504690170E0
8.544752352E0,-9.553344250E-1,-8.243273735E0,-5.729613781E0
8.565019019E0,-1.304686546E0,-9.385847092E0,-3.247060299E0
8.585419019E0,-1.891526341E0,-1.069771194E1,-1.994417667E0
8.605552352E0,-1.860419631E0,-1.034297562E1,-1.795813441E0
8.625819019E0,-2.379662037E0,-9.701699257E0,-1.704886109E-1
8.646085685E0,-2.709871531E0,-9.629914284E0,8.159525394E-1
8.666352352E0,-2.195414782E0,-9.023932457E0,1.532004714E0
8.686619019E0,-1.498505235E0,-9.126823425E0,2.260020971E0
8.706885685E0,-9.122636318E-1,-9.503094673E0,2.377269268E0
8.727152352E0,-8.476574421E-1,-9.282357216E0,7.537391186E-1
8.747419019E0,-6.675975323E-1,-8.727222443E0,-1.130608693E-1
8.767685685E0,-6.364908218E-1,-8.420941353E0,-6.107679605E-1
8.787952352E0,-4.450650215E-1,-8.358727455E0,-1.750349760E0
8.808219019E0,-4.307080805E-1,-8.715258598E0,-2.648256540E0
8.828485633E0,-1.196411327E-1,-9.090931892E0,-3.471985579E0
8.848752300E0,9.571290761E-2,-1.006540871E1,-3.263810158E0
8.869018966E0,-1.579262912E-1,-1.171286678E1,-2.013560295E0
8.889285633E0,-7.752745152E-1,-1.265384388E1,-1.233500123E0
8.909552300E0,-2.025524378E0,-1.202393341E1,-1.180858016E0
8.929818966E0,-3.643670797E0,-1.180857944E1,-1.123430252E0
8.950085633E0,-5.286343575E0,-1.193779182E1,-3.690928817E-1
8.970352300E0,-6.579065800E0,-1.306301689E1,9.260223508E-1
8.990618966E0,-6.277570248E0,-1.337647724E1,2.053640127E0
9.010885633E0,-4.084548473E0,-1.280698490E1,5.987440586E0
9.031152300E0,-3.277568817E0,-1.462433338E1,9.150154114E0
9.051418966E0,-2.666800737E0,-1.181097221E1,2.362912416E0
9.071685633E0,-3.059821844E0,-9.028717995E0,-1.977667928E0
9.091952300E0,-2.995215654E0,-1.025204849E1,-3.766302824E0
9.112218914E0,-2.283949137E0,-1.291226959E1,-4.578067780E0
9.132485633E0,-1.017547846E0,-1.570170212E1,-3.957728624E0
9.152752300E0,1.890329868E-1,-1.798086548E1,-2.889931440E0
9.173018966E0,1.740778446E0,-1.664985847E1,-3.055036306E0
9.193285633E0,1.578066587E0,-1.117388344E1,-2.897109985E0
9.213693602E0,1.012762189E0,-8.794221878E0,-2.913859844E0
9.233983185E0,7.591229677E-1,-7.970492363E0,-2.990430117E0
9.254232925E0,1.244866014E0,-6.890730858E0,-1.834098577E0
9.274342352E0,5.605186820E-1,-5.313262463E0,-1.872383654E-1
9.294744487E0,-2.871387303E-1,-4.908277512E0,-7.639086246E-1
9.314879331E0,9.571290761E-2,-5.782256126E0,-2.003988981E0
9.335147248E0,1.783849239E0,-6.424130440E0,-1.762313843E0
9.355414904E0,3.448057413E0,-6.445665836E0,-1.453639746E0
9.375681519E0,4.731208801E0,-5.799005508E0,-1.764706731E0
9.396082404E0,6.522236347E0,-5.075775146E0,-1.613958836E0
9.416215633E0,5.901896954E0,-5.629115105E0,-1.190429211E0
9.436485737E0,4.530211449E0,-9.811769485E0,9.672387123E0
9.456752404E0,-1.140838051E1,-2.325763702E1,2.465504646E1
9.477019019E0,-1.863410568E1,-1.781336784E1,-9.218349457E-1
9.497285685E0,-1.361575890E1,-1.022812080E1,4.809573591E-1
9.517552300E0,-9.612566948E0,-5.657829285E0,1.175474167E0
9.537818966E0,-3.421138287E0,-1.581655788E1,-5.270192027E-1
9.558085633E0,7.041478634E0,-2.010928154E1,1.229372501E1
9.578352196E0,9.783055305E0,-1.224885941E1,9.445069313E0
9.598618862E0,5.322235584E0,-8.276773453E0,-5.001597404E0
9.618885529E0,3.838087559E0,-8.082955360E0,-4.958526611E0
9.639152196E0,2.882753134E0,-8.968897820E0,-5.952146530E0
9.659552196E0,2.001596212E0,-1.088435173E1,-7.661818027E0
9.679685529E0,5.700899959E-1,-1.098245811E1,-7.441678524E0
9.699952196E0,1.196411345E-2,-9.694520950E0,-5.626722336E0
9.720218862E0,-7.878368497E-1,-1.063549805E1,-3.905086517E0
9.740485477E0,-1.285543919E0,-1.099681473E1,-2.655434847E0
9.760752144E0,-1.491326690E0,-9.996016502E0,-2.186441660E0
9.781018810E0,-2.635694027E0,-9.538987160E0,-4.121637046E-1
9.801285477E0,-2.976073265E0,-9.615557671E0,3.565305769E-1
9.821552144E0,-2.257628202E0,-9.155537605E0,-1.495514158E-2
9.841818810E0,-2.394019127E0,-9.299106598E0,-2.781656384E-1
9.862085477E0,-2.547159672E0,-9.649057388E0,2.321037948E-1
9.882352144E0,-2.657229662E0,-9.570094109E0,3.302095234E-1
9.902618758E0,-2.638087034E0,-9.047860146E0,-4.169493318E-1
9.922952091E0,-3.076571703E0,-8.760722160E0,-1.599601984E0
9.943352091E0,-2.709871531E0,-8.775078773E0,-1.848455548E0
9.963418758E0,-1.290329576E0,-8.787042618E0,-7.136593461E-1
9.983685425E0,-3.373879790E-1,-9.325428009E0,1.746760458E-1
1.000408543E1,4.719842672E-1,-1.001276588E1,2.297109663E-1
1.002421871E1,-3.493520916E-1,-9.440881729E0,-7.519445419E-1
1.004448537E1,-9.218349457E-1,-8.882756233E0,-3.110071182E0
1.006475204E1,-2.081755698E-1,-9.517452240E0,-5.296513081E0
1.008501871E1,-3.062812984E-1,-1.090588760E1,-4.262215137E0
1.010528537E1,-1.884347796E0,-1.118345451E1,-1.762313843E0
1.012555194E1,-2.964108944E0,-1.112124157E1,-9.720842242E-1
1.014581865E1,-4.125226021E0,-1.120977592E1,2.703889608E-1
1.016608532E1,-5.417948723E0,-1.126720333E1,1.259222865E0
1.018635199E1,-5.130809784E0,-1.096810055E1,9.882357717E-1
1.020661865E1,-4.350151539E0,-1.128873920E1,1.285543919E0
1.022688527E1,-3.907479286E0,-1.357567883E1,4.357329845E0
1.024715194E1,-3.289532900E0,-1.500239944E1,6.246463299E0
1.026741860E1,-2.178664923E0,-1.169611740E1,1.953141451E0
1.028768527E1,-1.958525300E0,-8.375477791E0,-9.314061999E-1
1.030795188E1,-1.704287887E0,-9.067003250E0,-2.863610506E0
1.032821855E1,-9.481559992E-1,-1.229910851E1,-3.421736479E0
1.034848522E1,-7.178467698E-3,-1.496172142E1,-2.988037348E0
1.036875183E1,7.304090858E-1,-1.692024803E1,-2.770290375E0
1.038901850E1,1.103689432E0,-1.609412575E1,-4.031906128E0
1.040928516E1,2.147558212E0,-1.199043465E1,-3.067000389E0
1.042955178E1,1.295115232E0,-9.203393936E0,1.522433400E0
1.044981845E1,-3.504886866E0,-7.089335442E0,9.195617676E0
1.047008511E1,-2.317448616E0,-7.661818027E0,4.565505505E0
1.049035173E1,-4.067798555E-1,-7.391428947E0,1.039083242E0
1.051061839E1,5.246263742E-1,-6.682555676E0,-7.686942816E-1
1.053088506E1,5.437689424E-1,-6.160321712E0,-1.963310957E0
1.055115168E1,6.466603279E-1,-5.676971912E0,-1.798206210E0
1.057155168E1,1.609173179E0,-5.334797859E0,-1.063609719E0
1.059168501E1,2.094916344E0,-4.731208801E0,-4.606183618E-2
1.061195162E1,2.667398930E0,-4.240679741E0,4.929214716E-1
1.063221829E1,2.578864574E0,-4.240679741E0,2.297109663E-1
1.065248490E1,1.367498159E0,-5.284548759E0,2.225325108E-1
1.067275157E1,-2.812762976E0,-1.026640511E1,3.516851187E0
1.069301819E1,-1.311027527E1,-1.930948067E1,1.007677460E1
1.071328485E1,-1.720439529E1,-1.449213028E1,7.323832035E0
1.073369277E1,-1.455912971E1,-9.716055870E0,5.024927616E0
1.075398240E1,-8.982656479E0,-1.397528076E1,8.039883971E-1
1.077424777E1,2.949153781E-1,-2.235494614E1,-1.250249892E-1
1.079449782E1,1.066899776E1,-1.704706764E1,1.403689575E1
1.081460954E1,6.454638958E0,-8.810971260E0,3.404388428E0
1.083487787E1,3.356531858E0,-7.302894592E0,-3.007179976E0
1.085514579E1,2.571686029E0,-6.713662148E0,-2.545365095E0
1.087541240E1,2.173879385E0,-9.737591743E0,-3.996013880E0
1.089581360E1,7.830511928E-1,-1.122891808E1,-6.167500496E0
1.091594683E1,-6.699903607E-1,-1.006301594E1,-7.814958572E0
1.093621813E1,-1.577468276E0,-8.921041489E0,-6.366703033E0
1.095648475E1,-2.343769789E0,-9.433703423E0,-4.865206718E0
1.097675131E1,-2.810370207E0,-9.711270332E0,-3.878765583E0
1.099701787E1,-2.894717216E0,-9.680164337E0,-2.959323406E0
1.101728454E1,-2.401197433E0,-1.001037312E1,-1.058823988E-1
1.103755110E1,-1.795215130E0,-9.737591743E0,2.705085993E0
1.105781772E1,3.810569942E-1,-9.725627899E0,7.965108395E0
1.107808438E1,-3.637090325E-1,-9.534201622E0,7.129415035E0
1.109835095E1,-1.730608940E0,-8.956933022E0,1.991426587E0
1.111861761E1,-1.606182218E0,-8.973683357E0,-4.528416991E-1
1.113888423E1,-1.240080357E0,-8.552546501E0,-1.707278967E0
1.115915084E1,-7.561319470E-1,-8.547760963E0,-2.356332064E0
1.117941751E1,-3.589234054E-1,-8.901898384E0,-2.703291416E0
1.119968412E1,-4.307080805E-2,-9.220144272E0,-2.724826813E0
1.121995074E1,6.699903309E-2,-9.974481583E0,-2.320439816E0
1.124021735E1,8.135596663E-2,-1.124088287E1,-1.305284739E0
1.126061735E1,-1.721037745E0,-1.248395348E1,2.057827413E-1
1.128075063E1,-3.425923824E0,-1.286919880E1,1.603789330E0
1.130101725E1,-4.924428940E0,-1.280459213E1,3.018545866E0
1.132128386E1,-7.230511665E0,-1.301994610E1,2.642872572E0
1.134155048E1,-9.040083885E0,-1.455195045E1,1.881356835E0
1.136181714E1,-8.396414757E0,-1.259402370E1,3.916452408E0
1.138208376E1,-7.278368473E0,-1.363789272E1,5.982655048E0
1.140235037E1,-5.719444275E0,-1.030708313E1,-1.734796353E-2
1.142268365E1,-4.886143684E0,-9.912267685E0,-5.882754326E0
1.144308365E1,-4.228117466E0,-1.394656658E1,-8.044670105E0
1.146315022E1,-3.732205153E0,-1.856949997E1,-6.445665836E0
1.148341683E1,-1.642074585E0,-1.979103661E1,-5.502295494E0
1.150368345E1,-2.057827413E-1,-1.628315735E1,-5.928217888E0
1.152395006E1,1.627119333E-1,-1.203589821E1,-6.052644730E0
1.154421668E1,6.634100676E-1,-9.957731247E0,-5.645864964E0
1.156448329E1,1.843669891E0,-9.419346809E0,-5.301298618E0
1.158474990E1,1.834098577E0,-8.571688652E0,-5.289334297E0
1.160501652E1,1.968096614E0,-7.585247993E0,-5.734399319E0
1.162528313E1,2.269592285E0,-6.495915413E0,-4.506283283E0
1.164554975E1,1.999203324E0,-6.527021885E0,-3.105285645E0
1.166581636E1,8.955138922E-1,-7.913064480E0,-4.145565331E-1
1.168608298E1,2.846860647E0,-8.121239662E0,-4.785645287E-3
1.170634959E1,4.896313190E0,-7.441678524E0,3.158525825E-1
1.172661621E1,4.929812908E0,-6.244668961E0,-7.716853172E-2
1.174688282E1,4.127619267E0,-6.373881340E0,-1.992024779E-1
1.176714938E1,3.929014683E0,-9.763913155E0,6.662814617E0
1.178741610E1,-2.678765059E0,-1.846182251E1,2.468136787E1
1.180768272E1,-1.019462109E1,-1.525364590E1,3.155534744E0
1.182794933E1,-1.072582722E1,-9.649057388E0,-3.182454109E0
1.184821595E1,-9.808777809E0,-7.077371120E0,-2.502294302E0
1.186848256E1,-7.065407276E0,-6.244668961E0,-4.168296814E0
1.188874912E1,-1.201795220E0,-1.434138298E1,-2.399402857E0
1.190901568E1,2.056631088E0,-2.029831505E1,9.397212982E0
1.192928230E1,-1.711466432E0,-1.479901028E1,5.618945599E0
1.194954891E1,1.578066587E0,-7.302894592E0,1.572682738E0
1.196981553E1,2.633899450E0,-6.224927902E0,-1.762313843E0
1.199008214E1,6.241677761E0,-7.982456207E0,-3.383451223E0
1.201034876E1,6.229713917E0,-9.778269768E0,-7.855636597E0
1.203061532E1,4.542175770E0,-1.064028454E1,-8.173882484E0
1.205088194E1,2.760719061E0,-9.787840843E0,-5.109274387E0
1.207114855E1,2.334198475E0,-9.436096191E0,-3.632304668E0
1.209141516E1,9.696913958E-1,-1.033819008E1,-2.806182861E0
1.211168178E1,-1.698904037E-1,-1.122173977E1,-3.156133175E0
1.213194834E1,-1.582253933E0,-1.144487095E1,-2.775076151E0
1.215221496E1,-2.475374937E0,-1.085324574E1,1.268794179E0
1.217248157E1,-1.965703845E0,-9.320642471E0,7.716254711E0
1.219274819E1,-1.982453585E0,-8.423334122E0,5.046463013E0
1.221301475E1,-2.173879385E0,-8.617152214E0,8.590233326E-1
1.223328136E1,-1.015154958E0,-8.710473061E0,-6.155536175E-1
1.225368933E1,-1.172483116E-1,-8.667402267E0,-1.604387641E0
1.227397881E1,3.978067636E-1,-8.794221878E0,-2.545365095E0
1.229422855E1,2.033899277E-1,-9.495916367E0,-1.135394335E0
1.231434001E1,9.146564603E-1,-1.042732334E1,-2.829512656E-1
1.233460813E1,9.960124493E-1,-1.177747345E1,-4.289134443E-1
1.235487595E1,-7.878368497E-1,-1.247378445E1,1.986042857E-1
1.237514251E1,-1.414756417E0,-1.293141174E1,2.005783558E0
1.239554360E1,-2.338984251E0,-1.306780243E1,4.778466702E0
1.241567668E1,-4.737788677E0,-1.310608768E1,3.035295486E0
1.243594761E1,-7.555935860E0,-1.635733604E1,7.728816867E-1
1.245621418E1,-8.997013092E0,-1.542114353E1,6.101697683E-1
1.247648068E1,-9.478569031E0,-1.293380451E1,6.234499454E0
1.249674725E1,-8.396414757E0,-1.043689442E1,6.940382004E0
1.251701381E1,-7.783253670E0,-8.528617859E0,-1.908276081E0
1.253728037E1,-7.948358536E0,-1.347697544E1,-7.256833076E0
1.255754699E1,-5.413163185E0,-1.710927963E1,-6.162714481E0
1.257781355E1,-3.215355396E0,-1.872563171E1,-5.373083115E0
1.259808011E1,-1.029511929E0,-1.992981911E1,-6.421737671E0
1.261834668E1,6.323033571E-1,-1.887398720E1,-8.461619377E0
1.263861329E1,1.446461320E0,-1.417149258E1,-7.377072334E0
1.265887985E1,2.030309916E0,-1.094417286E1,-5.363512039E0
1.267914647E1,2.078166485E0,-9.067003250E0,-3.799802303E0
1.269941303E1,1.865205288E0,-7.314858913E0,-3.093321562E0
1.271967964E1,2.166700840E0,-4.855635166E0,2.298306227E0
1.273994621E1,1.908276081E0,-4.793421745E0,2.350948334E0
1.276021277E1,2.397010088E0,-6.126822472E0,-1.802991867E0
1.278047938E1,2.435295343E0,-6.601199627E0,-3.675375462E0
1.280074595E1,2.863610506E0,-5.899504185E0,-4.367499352E0
1.282101256E1,3.582055569E0,-4.922634602E0,-3.579662561E0
1.284127912E1,5.396413326E0,-3.787838221E0,-1.200000525E0
1.286154569E1,6.914659023E0,-3.512663603E0,3.134597540E-1
1.288181230E1,5.954539299E0,-5.554937840E0,4.943571568E0
1.290207886E1,3.543770313E0,-1.391067410E1,2.551945305E1
1.292247886E1,-1.509751415E1,-2.168675041E1,1.615813255E1
1.294261204E1,-1.872264099E1,-1.567298794E1,-2.942573547E0
1.296287860E1,-8.958727837E0,-1.185404301E1,2.391626120E0
1.298314516E1,-2.592623234E0,-7.692924976E0,5.209773064E0
1.300354516E1,2.861217737E0,-1.519143295E1,9.524032593E0
1.302383626E1,2.820539713E0,-1.746581078E1,1.153938770E0
1.304410287E1,5.231308460E0,-1.673360634E1,1.962114573E-1
1.306421214E1,4.079762459E0,-6.744768620E0,-3.538984776E0
1.308461214E1,2.514258385E0,-4.134797573E0,-5.215157032E0
1.310474522E1,2.236092806E0,-7.194619656E0,-5.959324837E0
1.312501157E1,3.368496180E0,-1.206939697E1,-6.534200668E0
1.314541157E1,2.519043922E0,-1.450887966E1,-6.814160824E0
1.316554475E1,1.807777524E0,-1.157169056E1,-5.499902725E0
1.318594475E1,8.787640929E-1,-1.004387283E1,-3.830909014E0
1.320607782E1,-1.766501307E0,-1.151426220E1,-1.147358418E0
1.322634433E1,-2.997608662E0,-1.247139168E1,4.100699902E0
1.324661084E1,-2.219342947E0,-1.070728302E1,4.529613495E0
1.326687740E1,-1.028913707E-1,-9.479166985E0,7.345965505E-1
1.328727740E1,1.280758262E0,-9.265607834E0,5.000999570E-1
1.330741048E1,2.121237278E0,-8.638688087E0,2.058425665E0
1.332767704E1,2.154736757E0,-7.999206066E0,2.207378864E0
1.334794355E1,6.993024349E-1,-7.563712597E0,7.058826685E-1
1.336821011E1,-7.561319470E-1,-7.561319351E0,-6.586244106E-1
1.338861011E1,-1.362114310E0,-8.020741463E0,-2.303689957E0
1.340874324E1,-1.287936807E0,-8.459226608E0,-3.395415306E0
1.342900850E1,-1.419542074E0,-8.643473625E0,-2.392224550E0
1.344927584E1,-1.290329576E0,-8.992825508E0,-2.212762833E0
1.346954256E1,-1.141974568E0,-9.663414001E0,-2.210369825E0
1.348980912E1,-9.050851464E-1,-1.001994514E1,-1.735992789E0
1.351007579E1,-2.392822690E-2,-1.133420277E1,6.245267391E-1
1.353034235E1,4.528416991E-1,-1.342433357E1,4.143770695E0
1.355060897E1,-2.262413740E0,-1.286441231E1,2.214557409E0
1.357087558E1,-5.044668198E0,-1.196650600E1,-1.781456470E0
1.359114214E1,-6.830312252E0,-1.221057415E1,-2.789433002E0
1.361140876E1,-7.218547821E0,-1.401356602E1,-2.215155602E0
1.363167532E1,-5.090131760E0,-1.186122227E1,-1.082752272E-1
1.365194188E1,-2.726621389E0,-1.285723400E1,7.802396297E0
1.367220845E1,-1.656431437E0,-1.492343616E1,9.990633011E0
1.369247501E1,-1.285543919E0,-1.055892849E1,-1.147358418E0
1.371274157E1,-1.723430514E0,-1.012522888E1,-4.829314232E0
1.373300813E1,-2.458625317E0,-1.365464211E1,-4.719244480E0
1.375327459E1,-1.596610904E0,-1.615873146E1,-4.616353035E0
1.377368256E1,3.762713671E-1,-1.658704567E1,-3.543770313E0
1.379397209E1,2.013560295E0,-1.507179165E1,-3.028715372E0
1.381422173E1,2.336591244E0,-1.195932770E1,-3.081357241E0
1.383433313E1,2.073380709E0,-9.553344727E0,-2.425724030E0
1.385460121E1,2.571686029E0,-8.545368195E0,-1.628315806E0
1.387486761E1,2.240878344E0,-7.721638680E0,-1.625923038E0
1.389526897E1,1.922633052E0,-7.046264648E0,-1.017547846E0
1.391540199E1,1.597209096E0,-5.988038540E0,2.512463629E-1
1.393567397E1,9.672985673E-1,-5.602794170E0,1.914258115E-2
1.395594043E1,1.019940615E0,-5.648257732E0,-1.331605792E0
1.397620694E1,1.549352646E0,-5.753541946E0,-2.133799553E0
1.399647345E1,2.487937450E0,-5.978467464E0,-2.152942181E0
1.401673990E1,3.486342669E0,-6.275775433E0,-2.176870346E0
1.403700647E1,4.520640373E0,-6.038288116E0,-1.427318692E0
1.405727293E1,4.556532383E0,-6.404987812E0,5.575276613E-1
1.407753949E1,2.001596212E0,-1.233739376E1,1.320120239E1
1.409780605E1,-1.528654766E1,-2.180878448E1,2.283769798E1
1.411807251E1,-1.868674850E1,-1.590748501E1,-1.271785259E0
1.413833902E1,-1.310788250E1,-1.062592697E1,9.427721500E-1
1.415860558E1,-7.797610760E0,-4.259822369E0,2.312663078E0
1.417887214E1,-2.032702923E0,-1.345065403E1,1.223330617E0
1.419913865E1,3.830909014E0,-1.992503357E1,3.430709362E0
1.421940522E1,1.109970570E1,-1.097288609E1,1.936870384E1
1.423967173E1,6.622735023E0,-6.412166595E0,-5.437689424E-1
1.426005704E1,3.200998545E0,-9.917053223E0,-7.010372162E0
1.428020480E1,1.077368379E0,-1.135334492E1,-6.155536175E0
1.430047136E1,6.107679605E-1,-1.180140114E1,-6.885945320E0
1.432073787E1,-3.756731451E-1,-1.039083195E1,-7.767102242E0
1.434100438E1,-6.771687865E-1,-8.322834969E0,-6.376274109E0
1.436127095E1,-1.316650629E0,-8.030312538E0,-3.988835335E0
1.438153746E1,-2.439482689E0,-9.842875481E0,-2.511865616E0
1.440180397E1,-2.870789051E0,-1.090349483E1,-2.037488461E0
1.442220397E1,-2.882753134E0,-1.017787075E1,-6.059823632E-1
1.444233704E1,-2.906681299E0,-9.507881165E0,5.647061467E-1
1.446260360E1,-1.994417667E0,-8.617152214E0,1.132403374E0
1.448287011E1,-6.819544435E-1,-8.921041489E0,2.748156786E0
1.450313662E1,-1.244267747E-1,-9.419346809E0,4.254438877E0
1.452353662E1,-1.249651670E0,-9.457631111E0,7.513462901E-1
1.454382761E1,-9.505487680E-1,-8.727222443E0,-7.112665176E-1
1.456409418E1,-3.613162339E-1,-8.070990562E0,-1.683350682E0
1.458436079E1,-2.440679073E-1,-8.111668587E0,-2.973680258E0
1.460462735E1,-1.435693651E-1,-8.887541771E0,-3.871587038E0
1.462473657E1,-1.339980662E-1,-1.044646549E1,-2.492722988E0
1.464500298E1,-8.614161611E-2,-1.099442196E1,-3.403790295E-1
1.466526933E1,-1.041476011E0,-1.274955750E1,4.809573591E-1
1.468566933E1,-3.150749207E0,-1.353978729E1,1.144367456E0
1.470580230E1,-5.039882660E0,-1.263230896E1,1.326221943E0
1.472606871E1,-6.368497372E0,-1.190190029E1,2.823530734E-1
1.474633511E1,-7.967501163E0,-1.231825066E1,-4.504488707E-1
1.476660157E1,-9.519247055E0,-1.404706573E1,-1.633101404E-1
1.478700157E1,-6.466603279E0,-1.178943729E1,4.558327198E0
1.480713454E1,-3.464209080E0,-1.323051453E1,1.226261806E1
1.482740105E1,-3.811168194E0,-1.141077328E1,2.281556368E0
1.484766751E1,-3.244069338E0,-1.099920750E1,-3.684946775E0
1.486793402E1,-2.678765059E0,-1.247916794E1,-7.287939548E0
1.488820048E1,-2.334198475E0,-1.596251965E1,-6.661019802E0
1.490846699E1,-6.317051649E-1,-2.042274094E1,-4.086941242E0
1.492873194E1,2.365903378E0,-2.141875458E1,-4.257429600E0
1.494899944E1,4.869992256E0,-1.582134342E1,-5.533402443E0
1.496926600E1,3.625126362E0,-9.895518303E0,-3.414557934E0
1.498953261E1,2.605185747E0,-6.627520561E0,-1.173679471E0
1.500979918E1,2.858824968E0,-4.920241356E0,1.051047325E0
1.503006568E1,2.791825771E0,-4.041477680E0,9.762716293E-1
1.505033220E1,2.159522533E0,-4.398606300E0,-1.140179992E0
1.507073225E1,1.391426325E0,-4.719244480E0,-2.186441660E0
1.509086532E1,7.423732281E-1,-5.289334297E0,-2.152942181E0
1.511113183E1,1.544566989E0,-6.440880299E0,-1.755135417E0
1.513139839E1,4.180261135E0,-6.186643124E0,-1.007976532E0
1.515166490E1,6.490531445E0,-5.099703312E0,-3.834498227E-1
1.517193136E1,6.011966705E0,-6.107679844E0,-6.969096065E-1
1.519219792E1,-8.596215248E-1,-1.605344772E1,2.848834801E1
1.521246444E1,-1.524108410E1,-1.983650017E1,1.589432478E0
1.523273089E1,-1.602174187E1,-1.496890068E1,-2.129014015E0
1.525299740E1,-1.153041458E1,-1.613958931E1,-1.590030670E0
1.527340537E1,2.081755698E-1,-2.081576157E1,8.851051331E0
1.529369470E1,9.296713829E0,-1.133898830E1,1.328495121E1
1.531396001E1,4.333401680E0,-6.419344902E0,-2.866003275E0
1.533420980E1,5.978467464E0,-5.291727066E0,-4.156332970E0
1.535432131E1,6.866802692E0,-8.755936623E0,-6.143572330E0
1.537458761E1,6.589235306E0,-1.285723400E1,-9.067003250E0
1.539498949E1,3.381058455E0,-1.145204926E1,-9.284749985E0
1.541512230E1,2.216950178E0,-9.107681274E0,-5.679364681E0
1.543539621E1,8.404789567E-1,-9.385847092E0,-3.893122435E0
1.545566256E1,5.264209956E-2,-1.058764172E1,-2.925823927E0
1.547592902E1,-1.412363529E0,-1.178704453E1,-1.913061738E0
1.549619543E1,-3.069393158E0,-1.204307652E1,-9.026923180E-1
1.551646188E1,-5.023132801E0,-1.067378330E1,-1.762313843E0
1.553672829E1,-6.215356827E0,-9.023932457E0,-2.937788010E0
1.555699480E1,-7.084549427E0,-8.605188370E0,-3.019144058E0
1.557726121E1,-6.246463299E0,-7.917850018E0,-2.980858803E0
1.559752766E1,-4.807180882E0,-8.643473625E0,-1.051047325E0
1.561779418E1,-3.703491211E0,-8.863613129E0,-7.956135273E-2
1.563806063E1,-2.348555326E0,-8.044670105E0,-9.571290575E-3
1.565832704E1,-7.513462901E-1,-8.480761528E0,1.208973646E0
1.567859355E1,2.685943544E-1,-9.991230965E0,2.824727058E0
1.569886001E1,1.424925923E0,-1.052782154E1,2.870190859E0
1.571912647E1,5.988038778E-1,-1.091306591E1,1.156331539E0
1.573939292E1,-2.520838737E0,-1.188514996E1,-1.012762189E0
1.575965944E1,-4.398007870E0,-1.206939697E1,-2.198405743E0
1.577992589E1,-5.094917774E0,-1.117866898E1,-2.784647465E0
1.580019235E1,-5.384449005E0,-1.043450165E1,-2.832503796E0
1.582045881E1,-6.334998131E0,-1.345543957E1,-2.454437733E0
1.584072527E1,-5.985645771E0,-1.443709564E1,-4.791627228E-1
1.586099178E1,-2.947359324E0,-1.178943729E1,5.341378212E0
1.588125824E1,-3.497708559E0,-1.324008560E1,7.778468132E0
1.590152470E1,-3.758526087E0,-1.106381416E1,1.522433400E0
1.592192470E1,-3.519243956E0,-1.153579807E1,-2.191227436E0
1.594205761E1,-3.191427231E0,-1.304626751E1,-2.813361168E0
1.596245761E1,-2.188236237E0,-1.471047497E1,-3.071786165E0
1.598259053E1,-2.775674164E-1,-1.775115395E1,-3.840480328E0
1.600285699E1,1.527817249E0,-1.979582214E1,-4.307679176E0
1.602312350E1,3.515056372E0,-1.771526337E1,-4.989633560E0
1.604352350E1,3.708875179E0,-1.275195026E1,-4.103690624E0
1.606381433E1,2.911466837E0,-9.814162254E0,-4.709673405E0
1.608408084E1,3.481556892E0,-7.264011383E0,-3.189632654E0
1.610419006E1,3.157927752E0,-4.704887390E0,1.411765367E-1
1.612445631E1,1.822134495E0,-3.759124279E0,3.117249727E0
1.614472266E1,2.655434847E0,-5.571687698E0,3.182454109E-1
1.616498902E1,3.177070379E0,-6.510272026E0,-1.113858938E0
1.618538902E1,4.249652863E0,-5.770291805E0,-1.752742529E0
1.620552183E1,5.593223095E0,-4.238286972E0,-6.610172391E-1
1.622578829E1,5.715256691E0,-3.929014683E0,5.120640397E-1
1.624605470E1,4.444069862E0,-6.200999737E0,6.622136593E0
1.626632110E1,-8.571090698E0,-1.711406517E1,2.357767868E1
1.628672110E1,-1.780559158E1,-1.789950943E1,-8.519046783E0
1.630685397E1,-1.476491165E1,-1.330229950E1,-3.503092289E0
1.632712042E1,-8.676374435E0,-1.032622623E1,-4.528416991E-1
1.634738678E1,1.331605792E0,-1.895294952E1,7.021738052E0
1.636765324E1,5.032704353E0,-1.333819199E1,1.196351528E1
1.638805324E1,4.388436794E0,-7.086942673E0,1.819143414E0
1.640834412E1,2.449652195E0,-7.007979393E0,-2.631506681E0
1.642861303E1,3.385843992E0,-1.056610680E1,-4.031906128E0
1.644871548E1,2.586043119E0,-1.325922871E1,-6.153143406E0
1.646898266E1,1.028913707E-1,-1.075274658E1,-8.418548584E0
1.648924964E1,4.307080805E-2,-8.899505615E0,-6.723233223E0
1.650951652E1,-8.141579032E-1,-9.471988678E0,-4.367499352E0
1.652978329E1,-1.151545882E0,-9.878767967E0,-2.806182861E0
1.655005006E1,-1.000798106E0,-9.814162254E0,-2.207977057E0
1.657031652E1,-8.739784956E-1,-9.900303841E0,-1.257428288E0
1.659064850E1,-1.500898004E0,-9.217751503E0,9.571290575E-3
1.661104876E1,-1.520040631E0,-8.042277336E0,2.009970993E-1
1.663111621E1,-1.010369420E0,-7.232904434E0,-2.691925503E-2
1.665138277E1,-7.585247755E-1,-7.781459332E0,-7.238288224E-2
1.667164938E1,-4.905286431E-1,-8.621937752E0,1.674975902E-1
1.669191584E1,4.785645287E-3,-8.834898949E0,-5.629115105E-1
1.671218240E1,7.417750359E-2,-9.364311218E0,-2.411366940E0
1.673244891E1,6.993024349E-1,-1.113559818E1,-2.061416626E0
1.675271537E1,2.584248483E-1,-1.172722340E1,4.211367965E-1
1.677298188E1,-1.486541033E0,-1.125523949E1,9.547362328E-1
1.679324829E1,-3.981656790E0,-1.182054424E1,1.555334777E-1
1.681365626E1,-5.726622581E0,-1.239482117E1,-4.839483798E-1
1.683394553E1,-6.095715523E0,-1.196172047E1,-1.649851203E0
1.685419506E1,-5.884549141E0,-1.079821014E1,-2.739183664E0
1.687430423E1,-6.641279221E0,-1.062592697E1,-1.216750264E0
1.689470636E1,-7.235297680E0,-1.396570969E1,9.882357717E-1
1.691484079E1,-3.098107100E0,-1.360200024E1,1.019880867E1
1.693510845E1,-3.433102369E0,-1.162433243E1,6.147759438E0
1.695537595E1,-4.319045067E0,-1.141795158E1,-1.649851203E0
1.697564235E1,-3.507279873E0,-1.167218876E1,-5.370690346E0
1.699604318E1,-3.878167391E0,-1.379581928E1,-5.609972477E0
1.701617668E1,-2.952144861E0,-1.719063568E1,-3.818944931E0
1.703644365E1,-7.752745152E-1,-2.121775627E1,-2.688934565E0
1.705671043E1,2.468794823E0,-2.061895180E1,-2.837289333E0
1.707697688E1,4.420141697E0,-1.472004700E1,-2.581257343E0
1.709724506E1,4.362115860E0,-1.070967579E1,-1.807777524E0
1.711751141E1,3.952943087E0,-8.382656097E0,-9.481559992E-1
1.713777787E1,4.285545349E0,-7.365108013E0,-1.051047325E0
1.715804428E1,4.342973232E0,-5.868397713E0,-1.216750264E0
1.717831068E1,3.284747362E0,-4.637888432E0,-6.227321029E-1
1.719857709E1,2.480758905E0,-4.463212490E0,-8.835497499E-1
1.721884345E1,1.886740685E0,-4.800600529E0,-1.544566989E0
1.723918865E1,1.465603828E0,-4.927420139E0,-2.217548370E0
1.725918027E1,2.442473650E0,-4.886742115E0,-2.205584288E0
1.727958027E1,4.970490932E0,-3.816552162E0,-1.384247899E0
1.729990970E1,5.458626747E0,-3.555734396E0,-2.267797709E0
1.732017605E1,2.966501951E0,-1.001276588E1,1.430249882E1
1.734044235E1,-1.578246021E1,-2.344667053E1,1.962712860E1
1.736070871E1,-2.070748711E1,-1.878306007E1,-2.437688112E0
1.738097511E1,-1.496112347E1,-1.155015469E1,3.421736360E-1
1.740124147E1,-1.076171970E1,-6.090929985E0,-1.927418590E0
1.742164147E1,-1.445863128E0,-1.683889198E1,1.543968797E0
1.744177428E1,1.746581078E1,-2.144028854E1,3.041337395E1
1.746204068E1,7.936992645E0,-1.204307652E1,-3.057429075E0
1.748230709E1,5.252843857E0,-9.095717430E0,-6.266204357E0
1.750257350E1,4.896313190E0,-7.838887215E0,-7.960920811E0
1.752283996E1,4.970490932E0,-9.967302322E0,-8.461619377E0
1.754310636E1,3.823730469E0,-9.881160736E0,-9.289535522E0
1.756349147E1,3.117249727E0,-8.665008545E0,-7.551748276E0
1.758375683E1,1.355534077E0,-8.937790871E0,-5.420939922E0
1.760390522E1,-1.435693540E-2,-1.117149067E1,-3.778266907E0
1.762417173E1,-9.361918569E-1,-1.208854008E1,-2.490330219E0
1.764443824E1,-1.846062660E0,-1.153579807E1,-2.504687071E0
1.766470470E1,-3.619742393E0,-1.133420277E1,-6.825526357E-1
1.768497121E1,-4.462614059E0,-1.061874866E1,7.968099117E-1
1.770523766E1,-4.242474556E0,-9.081359863E0,1.026520967E0
1.772550412E1,-4.503292084E0,-8.720044136E0,1.172483116E-1
1.774577058E1,-5.350949764E0,-8.983254433E0,3.038884699E-1
1.776603704E1,-4.412364960E0,-8.583653450E0,6.604190469E-1
1.778630350E1,-2.824727058E0,-7.992027760E0,1.124626622E-1
1.780656996E1,-1.915454507E0,-7.527820110E0,-5.581258535E-1
1.782683636E1,-9.505487680E-1,-7.767102242E0,-8.117650747E-1
1.784710282E1,-3.254238665E-1,-8.588438988E0,-5.653043389E-1
1.786736928E1,-3.445664644E-1,-1.021615601E1,-6.466603279E-1
1.788763574E1,-1.503290772E0,-1.224168110E1,-1.207179070E0
1.790790225E1,-2.738585472E0,-1.325922871E1,-1.688136339E0
1.792816871E1,-3.784847260E0,-1.204307652E1,-1.695314884E0
1.794843511E1,-4.110869408E0,-1.105184937E1,-6.801598072E-1
1.796870157E1,-5.195415974E0,-1.223928738E1,6.293123364E-1
1.798896803E1,-6.380461693E0,-1.543550110E1,3.873381615E0
1.800923449E1,-4.029513359E0,-1.388913918E1,1.128335476E1
1.802950095E1,-5.207380295E0,-1.275195026E1,4.228117466E0
1.804976740E1,-4.914857864E0,-1.015155029E1,1.268195957E-1
1.807003386E1,-5.023132801E0,-1.083410263E1,-3.009572744E0
1.809030032E1,-4.802394867E0,-1.382931805E1,-6.292525291E0
1.811056678E1,-3.617349625E0,-1.673600006E1,-4.637888432E0
1.813083324E1,-1.740180254E0,-1.838525200E1,-3.522234917E0
1.815109970E1,1.531406492E-1,-1.769372749E1,-4.024727821E0
1.817136615E1,1.556531072E0,-1.428874016E1,-5.459224701E0
1.819163266E1,2.645863533E0,-1.117149067E1,-4.867599487E0
1.821189912E1,2.346760750E0,-9.361918449E0,-4.893920422E0
1.823216558E1,3.325425386E0,-8.023134232E0,-3.479164124E0
1.825243209E1,3.893122435E0,-6.608377934E0,-2.162513494E0
1.827269855E1,4.094119549E0,-5.080560684E0,1.247258782E0
1.829296501E1,3.224926710E0,-6.503093719E0,4.697110653E0
1.831323152E1,3.260818958E0,-7.427321434E0,1.175474167E0
1.833349798E1,3.385843992E0,-7.386643410E0,-1.487139225E0
1.835376449E1,5.044668198E0,-5.722435474E0,-1.814955950E0
1.837403095E1,5.015954494E0,-3.917050600E0,-3.667000830E-1
1.839429746E1,4.511068821E0,-4.067798615E0,3.110669553E-1
1.841456397E1,3.823730469E0,-6.852446079E0,3.418745279E0
1.843483048E1,-6.717849731E0,-1.683889198E1,1.682872200E1
1.845509694E1,-1.325922871E1,-1.708056641E1,-1.353141189E0
1.847536345E1,-1.414935875E1,-1.443231010E1,-4.331607342E0
1.849562996E1,-1.031904793E1,-1.576152229E1,4.546363056E-1
1.851589641E1,2.243271112E0,-1.825604057E1,9.866206169E0
1.853616293E1,4.182653904E0,-1.081496048E1,9.233902931E0
1.855642944E1,9.672985673E-1,-7.630711555E0,2.321037948E-1
1.857669595E1,1.051047325E0,-6.069394588E0,-1.432104349E0
1.859696246E1,2.449652195E0,-9.023932457E0,-3.519842148E0
1.861722897E1,1.326820135E0,-1.231107235E1,-5.868397713E0
1.863749548E1,4.624129832E-1,-1.186361504E1,-8.092526436E0
1.865776199E1,7.256234884E-1,-9.893125534E0,-6.900302410E0
1.867802850E1,4.552344978E-1,-8.550153732E0,-4.534996986E0
1.869829501E1,2.368894368E-1,-8.492725372E0,-3.299702406E0
1.871856152E1,4.785645287E-3,-9.658628464E0,-2.449652195E0
1.873882803E1,-7.178468257E-2,-1.054935646E1,-1.874776483E0
1.875909454E1,-9.571290761E-2,-1.024726295E1,-1.305284739E0
1.877936105E1,-5.551348329E-1,-9.692128181E0,-5.509474277E-1
1.879962761E1,-1.304686546E0,-9.031110764E0,-3.212364316E-1
1.882002761E1,-2.003988981E0,-8.581260681E0,2.632104978E-2
1.884016058E1,-2.231307030E0,-8.767900467E0,6.221339107E-1
1.886042714E1,-2.027917147E0,-8.806185722E0,9.475577474E-1
1.888069365E1,-2.094916344E0,-8.535796165E0,1.053440213E0
1.890096022E1,-2.142772675E0,-8.933005333E0,9.260223508E-1
1.892122673E1,-1.627717614E0,-9.907482147E0,7.848458290E-1
1.894149324E1,-9.074779749E-1,-9.945767403E0,5.647061467E-1
1.896175980E1,-1.247258782E0,-1.099681473E1,5.742774159E-2
1.898202631E1,-3.279961586E0,-1.226321602E1,-2.518445849E-1
1.900229282E1,-5.193023205E0,-1.107817078E1,3.373879790E-1
1.902255938E1,-6.256034851E0,-1.051585770E1,1.902892232E0
1.904282589E1,-6.387639999E0,-1.226082325E1,5.396413326E0
1.906309246E1,-6.679564476E0,-1.709492302E1,7.203592777E0
1.908335902E1,-6.713063717E0,-1.486122322E1,7.625327587E0
1.910362553E1,-7.972286701E0,-1.282373428E1,8.015955687E-1
1.912389204E1,-8.599804878E0,-1.289791203E1,-3.309273720E0
1.914415860E1,-7.998608112E0,-1.467936897E1,-6.677769661E0
1.916442516E1,-6.248856544E0,-1.801915169E1,-6.893123627E0
1.918469168E1,-3.710669756E0,-2.226401901E1,-8.219346046E0
1.920495824E1,-2.169093609E0,-2.102154541E1,-1.065703392E1
1.922522480E1,-4.594219327E-1,-1.496411419E1,-9.558130264E0
1.924549131E1,-5.742774159E-2,-1.112841988E1,-7.633104324E0
1.926575787E1,1.314856052E0,-9.639486313E0,-6.991229534E0
1.928602433E1,3.256033421E0,-8.305487633E0,-5.145166874E0
1.930629095E1,3.311068296E0,-6.804589272E0,-3.871587038E0
1.932655751E1,3.436093330E0,-5.980860233E0,-2.464009047E0
1.934682402E1,3.974478483E0,-6.689733982E0,-1.800599098E-1
1.936709058E1,4.889134884E0,-8.035098076E0,2.575873613E0
1.938735714E1,5.827719688E0,-8.252845764E0,1.945963025E0
1.940762365E1,5.559723377E0,-8.452047348E0,6.891329288E-1
1.942789022E1,3.986442566E0,-7.913064480E0,-2.638086975E-1
1.944815678E1,2.873181820E0,-8.080561638E0,1.674975827E-2
1.946842334E1,5.246263742E-1,-9.404989243E0,2.717050076E0
1.948868990E1,-4.070191383E0,-1.151665497E1,7.862216949E0
1.950895641E1,-4.811966419E0,-1.156451225E1,5.017749310E0
1.952922298E1,-4.508078098E0,-8.791828156E0,1.141974568E0
1.954948954E1,-1.999203324E0,-6.711269379E0,-2.849253654E0
1.956991444E1,-6.580262184E-1,-5.420939922E0,-2.806182861E0
1.959002266E1,-9.864411354E-1,-8.516654015E0,-1.728814363E0
1.961028923E1,-2.685943365E0,-1.689871216E1,-1.207179070E0
1.963055574E1,-4.579862595E0,-2.052323914E1,-1.788634896E0
1.965082230E1,-5.142774105E0,-1.276391411E1,1.687538147E0
1.967108886E1,-2.633301258E0,-9.050253868E0,3.765704632E0
1.969135542E1,1.161117196E0,-7.189833641E0,6.246463299E0
1.971162199E1,1.659422517E0,-8.638688087E0,3.595814228E0
1.973188855E1,1.256830096E0,-9.802198410E0,-2.757728100E-1
1.975215511E1,1.680957913E0,-1.048475075E1,-2.018345833E0
1.977242168E1,1.225723386E0,-1.071924686E1,-2.940180779E0
1.979268824E1,9.529415965E-1,-1.016590691E1,-3.582055569E0
1.981295480E1,5.581258535E-1,-9.455238342E0,-4.429712772E0
1.983322136E1,9.810572863E-2,-9.162715912E0,-4.391427994E0
1.985348792E1,-5.144568682E-1,-9.160323143E0,-2.672184706E0
1.987375449E1,-6.556333899E-1,-8.832506180E0,-1.312463164E0
1.989402105E1,-2.536391914E-1,-9.512666702E0,2.341377020E0
1.991428761E1,1.268195957E-1,-9.936196327E0,7.033702374E0
1.993455418E1,3.020938635E-1,-9.524630547E0,2.477767944E0
1.995482074E1,9.571290575E-3,-9.174679756E0,-1.286142230E0
1.997508730E1,-4.187439680E-1,-9.256035805E0,-2.899502754E0
1.999535381E1,-3.924229145E-1,-9.632308006E0,-2.576471806E0
2.001562042E1,-9.026923180E-1,-9.165108681E0,-1.843669891E0
2.003588699E1,-1.101296663E0,-9.023932457E0,-1.453639746E0
2.005615355E1,-2.727817893E-1,-9.792626381E0,-4.983053207E-1
2.007642011E1,9.601200819E-1,-1.086042404E1,2.874976397E0
2.009668668E1,1.585245013E0,-1.226082325E1,3.212962627E0
2.011695324E1,9.601200819E-1,-1.250070381E1,-1.400997639E0
2.013721985E1,-1.438684583E0,-1.226082325E1,-3.215953588E0
2.015748641E1,-4.792823792E0,-1.382931805E1,-4.338785648E0
2.017775298E1,-5.303092957E0,-1.112602711E1,-3.297309637E0
2.019801954E1,-2.992822886E0,-1.183250809E1,3.025724173E0
2.021828610E1,-1.520040631E0,-1.446580887E1,1.546361685E0
2.023855266E1,-1.890329868E-1,-1.392503166E1,-1.286142230E0
2.025877996E1,-1.431506157E0,-1.081496048E1,2.871387303E-1
2.027908574E1,-3.648456335E0,-7.295716286E0,-4.265206456E-1
2.029935235E1,-3.588635683E0,-7.436892986E0,-1.231107235E0
2.031961891E1,-3.684348583E0,-1.182293701E1,-6.083751321E-1
2.033988548E1,-2.164308071E0,-1.422891998E1,-7.854440212E-1
2.036015204E1,-2.967100143E-1,-1.385803223E1,-1.298106313E0
2.038041865E1,6.131607890E-1,-1.331187057E1,-1.824527264E0
2.040068522E1,1.501496196E0,-1.157647610E1,-2.598007202E0
2.042095178E1,2.377867460E0,-1.044646549E1,-2.997608662E0
2.044121834E1,3.177070379E0,-1.035972595E1,-2.174477577E0
2.046161834E1,3.711267948E0,-9.818947792E0,-9.146564603E-1
2.048175147E1,3.284747362E0,-8.588438988E0,1.124626622E-1
2.050201803E1,2.408974171E0,-7.898707390E0,4.307080805E-2
2.052228464E1,4.719842672E-1,-7.867600918E0,-9.152546525E-2
2.054255121E1,-1.992024899E0,-8.097311974E0,1.674975827E-2
2.056281777E1,-3.653241873E0,-8.164310455E0,-2.446661144E-1
2.058308444E1,-3.669991732E0,-7.520641804E0,-5.605186820E-1
2.060335095E1,-1.232901812E0,-6.866802692E0,-1.036690354E0
2.062361746E1,9.074779749E-1,-6.742375851E0,-1.341177106E0
2.064388402E1,2.011167526E0,-6.462415695E0,-6.155536175E-1
2.066415058E1,2.063809633E0,-6.302096844E0,-1.513460279E-1
2.068441714E1,2.435295343E0,-6.897909641E0,2.464607358E-1
2.070468371E1,2.475973129E0,-7.635497093E0,8.901300430E-1
2.072495027E1,1.872383714E0,-8.755936623E0,2.036890268E0
2.074521683E1,8.931210637E-1,-1.108774185E1,4.493721008E0
2.076548339E1,-2.243271112E0,-1.395853043E1,1.201137161E1
2.078574996E1,-1.093400288E1,-1.442513084E1,1.255274773E1
2.080601657E1,-1.296431351E1,-1.194257736E1,4.632504463E0
2.082628313E1,-1.022333431E1,-9.730413437E0,1.163509965E0
2.084654970E1,-3.701098442E0,-7.673782349E0,1.618146300E0
2.086681626E1,1.100698411E-1,-7.929814339E0,1.699502230E0
2.088708282E1,2.495115757E0,-1.524168205E1,-9.146564603E-1
2.090734938E1,4.436891556E0,-1.759741592E1,1.666002750E0
2.092761595E1,2.430509567E0,-1.873520279E1,1.398425388E1
2.094788251E1,3.598805189E0,-8.281558990E0,-5.102096081E0
2.096814907E1,3.476771355E0,-4.719244480E0,-4.621138573E0
2.098841563E1,1.989632010E0,-6.335596085E0,-5.662614822E0
2.100868220E1,1.266401410E0,-1.016829967E1,-7.740781307E0
2.102894876E1,7.280163169E-1,-1.279980659E1,-9.373882294E0
2.104921532E1,-2.632104978E-2,-1.163629627E1,-7.936992645E0
2.106954860E1,-1.890329868E-1,-9.388239861E0,-4.539782524E0
2.108994860E1,-8.596215248E-1,-9.613164902E0,-2.447259426E0
2.111001501E1,-1.429113269E0,-1.046800041E1,-2.082952023E0
2.113028162E1,-2.863610506E0,-1.082453156E1,2.105683982E-1
2.115054818E1,-4.074976921E0,-1.065703392E1,2.022533417E0
2.117081475E1,-4.084548473E0,-1.033579731E1,5.697908878E0
2.119108131E1,-3.763311863E0,-9.404989243E0,6.947560310E0
2.121134787E1,-3.021536827E0,-8.940183640E0,2.252842426E0
2.123161444E1,-2.382055044E0,-9.155537605E0,-1.082752272E-1
2.125188100E1,-2.408375978E0,-9.279964447E0,-1.219143152E0
2.127214756E1,-2.609373093E0,-9.436096191E0,-1.389033556E0
2.129241412E1,-2.736192703E0,-8.954540253E0,-5.700899959E-1
2.131268074E1,-2.434697151E0,-8.236095428E0,2.024926186E0
2.133294730E1,-1.273579836E0,-7.408178806E0,5.386841774E0
2.135321386E1,-1.326221943E0,-7.637889862E0,1.651645780E0
2.137348042E1,-5.359922647E-1,-7.745566845E0,-7.543373108E-1
2.139374699E1,-6.317051649E-1,-8.035098076E0,-1.934597135E0
2.141401355E1,-1.180259824E0,-8.614759445E0,-2.588435888E0
2.143428011E1,-1.711466432E0,-9.620343208E0,-2.866003275E0
2.145454668E1,-1.927418590E0,-1.169611740E1,-2.851646423E0
2.147481324E1,-9.146564603E-1,-1.489711571E1,-1.283749342E0
2.149507980E1,3.083750248E0,-1.999921227E1,7.105486870E0
2.151534636E1,7.268796921E0,-1.864846420E1,1.254796219E1
2.153561293E1,5.295914650E0,-1.457169151E1,4.488935471E0
2.155587949E1,4.546961308E0,-1.441555977E1,8.446664214E-1
2.157614605E1,3.555734396E0,-1.480618858E1,-1.831705689E0
2.159641261E1,2.720041037E0,-1.449691582E1,-2.722434044E0
2.161667918E1,2.221735716E0,-1.290987682E1,-9.870393574E-2
2.163694568E1,1.024726272E0,-1.063071251E1,1.323829174E0
2.165721225E1,-3.182454109E-1,-9.291928291E0,1.746760458E-1
2.167747881E1,-8.213363886E-1,-8.411369324E0,-1.491924882E0
2.169774537E1,-6.029912829E-1,-7.812565804E0,-1.793420553E0
2.171801194E1,-3.589234129E-2,-7.745566845E0,-1.266999602E0
2.173827850E1,3.332005441E-1,-7.515855789E0,-8.285148144E-1
2.175854506E1,7.639086246E-1,-6.883552551E0,-5.748756528E-1
2.177881162E1,1.256830096E0,-6.062216282E0,-2.757728100E-1
2.179907819E1,1.499103427E0,-5.535795212E0,1.674975902E-1
2.181934470E1,1.343569875E0,-5.739185333E0,1.029511929E0
2.183961126E1,1.096511006E0,-6.371488571E0,2.542374134E0
2.185987782E1,1.237687469E0,-7.185048103E0,4.744967461E0
2.188014438E1,1.417747378E0,-7.805387497E0,4.919643402E0
2.190041095E1,1.369890928E0,-7.984848976E0,3.887738705E0
2.192067751E1,1.027119160E0,-8.037490845E0,3.315854073E0
2.194094402E1,8.763712645E-1,-8.054241180E0,3.629313707E0
2.196121058E1,1.120439172E0,-7.558926582E0,3.756133318E0
2.198147714E1,7.016952634E-1,-7.077371120E0,4.242474556E0
2.200174371E1,-3.445664644E-1,-6.495915413E0,5.082355499E0
2.202201027E1,-1.429113269E0,-6.672984123E0,5.370092392E0
2.204227683E1,-2.310270309E0,-8.406583786E0,4.433900356E0
2.206254334E1,-2.001596212E0,-1.038843918E1,3.693919897E0
2.208280990E1,-1.436291814E0,-1.087956619E1,4.295116425E0
2.210307647E1,-1.577468276E0,-9.119645119E0,4.950749874E0
2.212334303E1,-1.180259824E0,-7.712067604E0,4.756931305E0
2.214360959E1,-1.120439172E0,-7.118049145E0,4.587040901E0
2.216387610E1,-1.149153113E0,-6.857231617E0,4.395615101E0
2.218414266E1,-1.354935765E0,-7.261618614E0,4.359723091E0
2.220440923E1,-1.606182218E0,-7.728816986E0,4.445864677E0
2.222467579E1,-1.407577872E0,-7.791030407E0,4.606183529E0
2.224494230E1,-7.728816867E-1,-1.460040569E1,7.186842918E0
2.226520886E1,2.593221426E0,-2.746422005E1,1.929452515E1
2.228547542E1,-3.531208038E0,-1.491865063E1,1.044826031E1
2.230587542E1,4.402793884E0,-5.270191669E0,-4.642673969E0
2.232600850E1,5.425127029E0,-2.909074068E0,-3.747160196E0
2.234627506E1,3.945764542E0,-2.741576433E0,-4.163511276E0
2.236654157E1,2.624328136E0,-8.688937187E0,-4.146761417E0
2.238680813E1,5.318048596E-1,-1.658465385E1,-3.381058455E0
2.240707470E1,-2.995215654E0,-1.566820240E1,-2.964108944E0
2.242734121E1,-4.249652863E0,-1.133898830E1,-3.011965513E0
2.244760777E1,-3.917050600E0,-8.971290588E0,-2.193620205E0
2.246787433E1,-3.672384501E0,-9.011968613E0,-1.195214868E0
2.248814084E1,-3.588635683E0,-9.993623734E0,-7.208378315E-1
2.250840740E1,-3.866203070E0,-1.039561844E1,-2.614158690E-1
2.252867397E1,-2.597409010E0,-9.806983948E0,1.208973646E0
2.254894048E1,-5.455635786E-1,-9.122037888E0,2.551945448E0
2.256920704E1,6.466603279E-1,-9.672985077E0,2.226521492E0
2.258947355E1,1.098903775E0,-1.025683403E1,1.309472203E0
2.260974011E1,8.428717852E-1,-1.042732334E1,2.344966233E-1
2.263000668E1,-2.392822690E-2,-1.024008465E1,-3.858426511E-1
2.265027318E1,-9.337990284E-1,-9.579665184E0,-7.830511928E-1
2.267053975E1,-1.673181176E0,-8.724829674E0,-9.696913958E-1
2.269080631E1,-1.575075507E0,-7.958528042E0,-1.688136339E0
2.271107282E1,-2.047059774E0,-8.085348129E0,-2.150549412E0
2.273133938E1,-2.894717216E0,-9.136395454E0,-2.971287489E0
2.275160595E1,-3.691527128E0,-9.582057953E0,-1.927418590E0
2.277187246E1,-2.678765059E0,-9.778269768E0,8.614161611E-2
2.279213902E1,-3.158525825E-1,-1.081974602E1,2.094916344E0
2.281240553E1,1.362712502E0,-1.139880848E1,3.478565931E0
2.283280553E1,1.051047325E0,-1.092024422E1,1.051047325E0
2.285293865E1,4.935196638E-1,-1.079103184E1,-1.800599098E0
2.287320511E1,4.785645381E-2,-1.119541931E1,-2.420938253E0
2.289359839E1,-1.584646821E0,-1.145444202E1,-8.835497499E-1
2.291390256E1,-3.543172121E0,-1.100160027E1,-1.734796353E-2
2.293415220E1,-5.161916733E0,-1.101117134E1,6.173482537E-1
2.295426360E1,-6.186643124E0,-1.315155125E1,1.395613790E0
2.297452996E1,-6.736992359E0,-1.758305931E1,1.599003673E0
2.299493162E1,-7.146762848E0,-1.651526260E1,1.663609982E0
2.301506589E1,-5.898906231E0,-1.275195026E1,6.959524632E0
2.303533240E1,-6.198606968E0,-1.008933640E1,4.900500774E0
2.305573350E1,-7.240083218E0,-1.119063377E1,-1.867598057E0
2.307586652E1,-7.168298244E0,-1.515554047E1,-4.611567497E0
2.309626740E1,-4.960919380E0,-1.598644829E1,-5.318048477E0
2.311640110E1,-2.976073265E0,-1.865564156E1,-6.438487530E0
2.313666818E1,-2.128415823E0,-2.064288139E1,-1.161236858E1
2.315693511E1,-3.107678413E0,-1.691306877E1,-1.275195026E1
2.317720162E1,-3.337389469E0,-1.181815147E1,-9.862018585E0
2.319760194E1,-1.551147223E0,-8.820542336E0,-5.464010715E0
2.321773532E1,-3.095714331E0,-7.901100159E0,2.609373093E0
2.323800199E1,-2.334198475E0,-8.212167740E0,7.661220074E0
2.325826876E1,9.649057388E-1,-8.708079338E0,4.555934429E0
2.327853522E1,4.241278172E-1,-8.648259163E0,-1.348355532E0
2.329880246E1,3.164508045E-1,-8.449654579E0,-6.026323795E0
2.331906902E1,2.382653236E0,-7.917850018E0,-8.626724243E0
2.333933553E1,4.721637249E0,-5.609972477E0,-7.601997375E0
2.335960209E1,7.048657417E0,-3.242274761E0,-2.100300074E0
2.337986860E1,8.317451477E0,-2.418545485E0,5.766702294E-1
2.340013516E1,7.999206066E0,-3.232703447E0,8.327022791E-1
2.342040168E1,4.738387108E0,-4.834099770E0,1.831107497E0
2.344066824E1,-1.716252089E0,-8.408976555E0,5.592624664E0
2.346093475E1,-5.587839127E0,-1.374078369E1,1.137189007E1
2.348120131E1,-1.084307575E1,-1.526561069E1,6.926024914E0
2.350146782E1,-1.186301613E1,-1.253181076E1,-1.029511929E0
2.352173433E1,-8.429914474E0,-1.091545868E1,1.273579836E0
2.354200089E1,-7.228118896E0,-1.268495083E1,4.398007870E0
2.356226740E1,-3.339782238E0,-1.307976723E1,2.727817893E-1
2.358253391E1,3.258426189E0,-1.779422569E1,3.442673683E0
2.360280048E1,9.433703423E-1,-2.151446724E1,6.567101955E0
2.362302766E1,-1.048654556E0,-9.275178909E0,1.304686546E0
2.364341292E1,1.333998680E0,-7.781459332E0,-1.671386600E0
2.366375803E1,9.720842242E-1,-9.289535522E0,-1.898704767E0
2.368402459E1,1.774278045E0,-1.024487019E1,-2.191227436E0
2.370413391E1,2.193022013E0,-1.159322548E1,-4.022335052E0
2.372440027E1,2.003988981E0,-1.036211872E1,-4.460819721E0
2.374466668E1,2.099701881E0,-9.107681274E0,-4.065405846E0
2.376493313E1,1.532602906E0,-8.882756233E0,-3.088535786E0
2.378526058E1,1.043868899E0,-9.086145401E0,-2.337189436E0
2.380566074E1,5.198407173E-1,-9.658628464E0,-1.621137381E0
2.382572886E1,-1.156331539E0,-1.020897770E1,-2.111666054E-1
2.384599605E1,-3.153141975E0,-9.969695091E0,1.689931035E0
2.386626318E1,-4.228117466E0,-9.134002686E0,2.707478762E0
2.388653011E1,-3.856631994E0,-8.523832321E0,1.493719578E0
2.390679694E1,-3.787240028E0,-8.240880966E0,2.823530734E-1
2.392706376E1,-3.473780155E0,-7.874779224E0,-1.073180914E0
2.394733053E1,-1.953739643E0,-8.209774017E0,-2.691327333E0
2.396759725E1,1.261615753E0,-9.416953087E0,-3.043072224E0
2.398786386E1,3.704089403E0,-1.050628567E1,-1.389033556E0
2.400813053E1,4.477569580E0,-1.059482002E1,1.185045362E0
2.402839714E1,2.930609465E0,-1.147119141E1,1.185045362E0
2.404866365E1,-9.170492887E-1,-1.225603771E1,-5.084748194E-2
2.406906371E1,-3.141177893E0,-1.200239849E1,-1.240678549E0
2.408919683E1,-4.374079704E0,-1.142752266E1,-2.502294302E0
2.410946345E1,-5.374877930E0,-1.092263699E1,-3.266202927E0
2.412973001E1,-6.086144447E0,-1.045603657E1,-2.988037348E0
2.414999652E1,-5.047060966E0,-9.986445427E0,-1.384247899E0
2.417026308E1,-4.845465660E0,-1.188275719E1,2.512463629E-1
2.419052964E1,-4.912465096E0,-1.510529137E1,9.379864931E-1
2.421079615E1,-2.123630047E0,-1.160997581E1,3.708276987E0
2.423106272E1,-2.933002472E0,-1.116431236E1,6.150152206E0
2.425132923E1,-4.479363918E0,-1.029751205E1,1.962114573E-1
2.427172923E1,-5.487340450E0,-1.257009602E1,-4.575675011E0
2.429186230E1,-4.737788677E0,-1.410449314E1,-5.351547718E0
2.431212881E1,-3.404388428E0,-1.541875076E1,-4.180859566E0
2.433239532E1,-1.424327731E0,-1.771047592E1,-3.692125320E0
2.435266183E1,4.265206456E-1,-1.836132431E1,-5.085346222E0
2.437292834E1,2.729612350E0,-1.450887966E1,-7.312466145E0
2.439320282E1,1.791027784E0,-1.154536915E1,-4.034298897E0
2.441355438E1,2.909074068E0,-1.029990482E1,-2.255833626E0
2.443389704E1,3.167499065E0,-8.882756233E0,-1.456032634E0
2.445414568E1,2.444866419E0,-6.888338089E0,1.794617027E-1
2.447425490E1,1.348355532E0,-5.385047436E0,1.508076429E0
2.449466412E1,1.432104349E0,-5.318048477E0,-2.015953064E-1
2.451493865E1,1.432104349E0,-5.653043270E0,-2.126621008E0
2.453505053E1,1.573280931E0,-5.459224701E0,-3.098107100E0
2.455531907E1,2.715255499E0,-5.137988567E0,-2.708076954E0
2.457558542E1,4.661816597E0,-4.963312149E0,-2.246262312E0
2.459598714E1,6.816553593E0,-4.245465755E0,-2.685943544E-1
2.461612147E1,7.688138962E0,-4.372285366E0,3.667598963E0
2.463638902E1,6.775875568E0,-7.685746193E0,1.394357586E1
2.465665636E1,-9.270393372E0,-1.901037788E1,1.996511459E1
2.467692282E1,-2.217249298E1,-2.050649071E1,-5.473581791E0
2.469732355E1,-1.461894989E1,-1.423370552E1,1.589432478E0
2.471745709E1,-1.227517986E1,-7.338787079E0,2.070987940E0
2.473772402E1,-7.725826263E0,-1.841635895E1,6.771687865E-1
2.475799084E1,3.852444410E0,-1.973300934E1,1.639502335E1
2.477825730E1,6.577271461E0,-8.444869041E0,8.221140862E0
2.479852522E1,5.909075737E0,-6.215356827E0,-6.119643688E0
2.481879173E1,4.285545349E0,-7.362715244E0,-5.531009674E0
2.483905824E1,4.127619267E0,-9.562915802E0,-7.058228493E0
2.485932470E1,3.308675528E0,-1.163390350E1,-9.062217712E0
2.487959121E1,1.661815286E0,-1.015394306E1,-8.547760963E0
2.489985772E1,1.216152072E0,-7.980063438E0,-5.526223660E0
2.492012423E1,5.389832854E-1,-8.550153732E0,-3.187239647E0
2.494039074E1,-4.833501875E-1,-1.116431236E1,-1.936989903E0
2.496079074E1,-7.704889178E-1,-1.211246777E1,-2.035095692E0
2.498092376E1,-1.706680775E0,-1.059482002E1,-1.633101404E-1
2.500119022E1,-2.909074068E0,-1.043450165E1,1.275972724E0
2.502145673E1,-2.547159672E0,-8.791828156E0,1.685145378E0
2.504172324E1,-2.243271112E0,-7.798209190E0,9.236295223E-1
2.506198970E1,-2.384447813E0,-8.787042618E0,3.924229145E-1
2.508225626E1,-2.157129526E0,-8.899505615E0,-1.734796353E-2
2.510252277E1,-1.735394597E0,-8.416155815E0,-6.394818425E-1
2.512278928E1,-1.041476011E0,-8.564510345E0,-2.325225353E0
2.514305574E1,-4.067798555E-1,-9.675378799E0,-3.895515203E0
2.516340095E1,-5.264210105E-1,-1.087717342E1,-3.180061340E0
2.518374641E1,-6.388836503E-1,-1.025922680E1,-1.223928809E0
2.520401303E1,-1.048654556E0,-1.097767162E1,-7.902296782E-1
2.522412225E1,-3.019144058E0,-1.285962677E1,-2.374876440E-1
2.524438865E1,-4.599005222E0,-1.290509033E1,6.891329288E-1
2.526465511E1,-5.920441628E0,-1.146879864E1,6.580262184E-1
2.528505511E1,-7.165905476E0,-1.123370457E1,2.105683982E-1
2.530534589E1,-8.319844246E0,-1.410210037E1,5.838487148E-1
2.532545511E1,-5.240880013E0,-1.235892868E1,3.713062525E0
2.534572141E1,-2.688336134E0,-1.322094345E1,9.066405296E0
2.536598782E1,-2.868396044E0,-1.285962677E1,3.574278831E0
2.538638782E1,-2.394019127E0,-1.174875927E1,-1.283749342E0
2.540667860E1,-1.795215130E0,-1.219861031E1,-4.324428558E0
2.542678777E1,-8.500502706E-1,-1.475833225E1,-5.085346222E0
2.544705412E1,5.030909777E-1,-1.840200233E1,-3.247060299E0
2.546732042E1,3.393022537E0,-1.918266106E1,-3.114856958E0
2.548772043E1,5.343770981E0,-1.408774376E1,-3.023929596E0
2.550785334E1,3.653840065E0,-8.959325790E0,-1.231107235E0
2.552811980E1,1.692921996E0,-6.208178520E0,-1.245464206E0
2.554838615E1,1.989632010E0,-5.337191105E0,-1.805384636E0
2.556865266E1,2.193022013E0,-5.015954494E0,-1.690529227E0
2.558905266E1,1.113260746E0,-4.601995945E0,-2.196012974E0
2.560918563E1,-1.914258152E-1,-4.783850670E0,-2.349153519E0
2.562945209E1,-5.790630579E-1,-5.207978249E0,-1.869990945E0
2.564971855E1,6.538388133E-1,-5.717649937E0,-1.290927768E0
2.566998511E1,3.227319479E0,-5.813362598E0,-1.276570916E0
2.569025157E1,5.159523964E0,-5.717649937E0,-2.020738840E0
2.571051808E1,4.956133842E0,-8.691329956E0,2.736192703E0
2.573078464E1,-9.885348320E0,-1.928076744E1,2.418366051E1
2.575105110E1,-1.975693893E1,-1.882134438E1,2.291127682E0
2.577131766E1,-1.550489235E1,-1.113799095E1,1.759322882E0
2.579158329E1,-9.212965012E0,-3.759124279E0,-1.305284739E0
2.581185043E1,-1.483550072E-1,-1.149272728E1,-6.466603279E-1
2.583211704E1,1.210528946E1,-2.540758896E1,2.218924332E1
2.585238360E1,7.673782349E0,-1.561556053E1,5.024927258E-1
2.587278365E1,6.062216282E0,-8.600402832E0,-5.399404526E0
2.589291678E1,4.132404804E0,-6.840481758E0,-6.381059647E0
2.591319131E1,3.035893679E0,-8.933005333E0,-6.957729816E0
2.593354298E1,2.614757061E0,-9.594022751E0,-7.759923935E0
2.595388563E1,1.523031592E0,-8.631509781E0,-7.403393269E0
2.597415001E1,3.954139352E-1,-9.052646637E0,-5.341976643E0
2.599439918E1,-5.910272002E-1,-1.019222832E1,-3.766302824E0
2.601451016E1,-1.065404296E0,-1.042014408E1,-2.787040234E0
2.603477792E1,-1.704287887E0,-1.034536839E1,-2.540579557E0
2.605504558E1,-3.416352510E0,-1.071206856E1,-1.458425403E0
2.607531209E1,-4.273581028E0,-1.044646549E1,1.435693540E-2
2.609571298E1,-3.442673683E0,-9.232108116E0,3.254238665E-1
2.611584678E1,-2.819941521E0,-9.057432175E0,-2.279163599E-1
2.613611391E1,-3.131606579E0,-9.672985077E0,-2.039881349E-1
2.615638095E1,-3.177070379E0,-9.586843491E0,1.603191197E-1
2.617664746E1,-2.513660192E0,-8.928219795E0,-7.477571070E-2
2.619704782E1,-1.610967875E0,-8.387441635E0,-9.170492887E-1
2.621718141E1,-9.481559992E-1,-8.923434258E0,-1.121037364E0
2.623744824E1,-7.154539824E-1,-1.019701385E1,-3.667000830E-1
2.625771506E1,-1.328614831E0,-1.145683479E1,8.135596663E-2
2.627798162E1,-3.375674486E0,-1.224168110E1,2.632104978E-2
2.629824902E1,-5.523232937E0,-1.234457207E1,-3.649054468E-2
2.631851568E1,-6.387639999E0,-1.177986622E1,7.489534616E-1
2.633878235E1,-6.339783669E0,-1.089392376E1,1.721037745E0
2.635904902E1,-6.997809887E0,-1.344108295E1,2.903690338E0
2.637931568E1,-3.449851990E0,-1.420259857E1,1.054875851E1
2.639958235E1,-3.447459221E0,-1.285962677E1,7.649255753E0
2.641984907E1,-4.335794449E0,-1.199282742E1,1.718644857E0
2.644011574E1,-4.438685894E0,-1.184207916E1,-1.805384636E0
2.646038240E1,-4.589433670E0,-1.344826126E1,-5.732006550E0
2.648064912E1,-4.419543266E0,-1.686999702E1,-6.644270420E0
2.650091584E1,-2.181057930E0,-2.081336975E1,-4.781457901E0
2.652118256E1,1.515853167E0,-2.134696960E1,-5.808577061E0
2.654144928E1,3.658625841E0,-1.529193115E1,-6.337988853E0
2.656171600E1,2.499901533E0,-8.870791435E0,-3.282952785E0
2.658198272E1,2.758326292E0,-5.318048477E0,-1.118644595E0
2.660224944E1,4.268795490E0,-4.176073551E0,2.012962103E0
2.662251621E1,4.422534466E0,-4.381856441E0,1.840678811E0
2.664278293E1,3.759124279E0,-5.353940487E0,-1.031904817E0
2.666304970E1,2.571686029E0,-5.619544029E0,-3.002394199E0
2.668339511E1,1.733600020E0,-5.566901684E0,-2.801397085E0
2.670374079E1,1.728814363E0,-5.392225742E0,-2.119442701E0
2.672400766E1,2.681756020E0,-4.652245522E0,-1.453639746E0
2.674411720E1,3.260818958E0,-4.872385025E0,2.536391914E-1
2.676438386E1,1.647458434E0,-1.038843918E1,6.428318024E0
2.678478386E1,-9.509675026E0,-2.134696960E1,2.322353935E1
2.680507527E1,-1.586860180E1,-1.714517212E1,1.969891191E0
2.682518475E1,-1.277288723E1,-1.302951717E1,1.201795220E0
2.684545131E1,-9.234500885E0,-6.550950050E0,2.434697151E0
2.686571798E1,-5.503492355E-1,-3.527020693E0,9.403793216E-1
2.688611798E1,3.589233875E0,-1.272323608E1,6.101697683E-1
2.690625157E1,1.179661560E1,-1.773679733E1,1.713261032E1
2.692651829E1,5.236093998E0,-1.477268887E1,5.479564071E-1
2.694678501E1,1.532602906E0,-1.290509033E1,-4.216751575E0
2.696705178E1,1.698904037E-1,-8.444869041E0,-4.412963390E0
2.698745178E1,-1.603191197E-1,-6.680162430E0,-4.374678135E0
2.700758543E1,-1.865205288E0,-7.338787079E0,-4.712066174E0
2.702785220E1,-3.476173162E0,-9.093324661E0,-5.066203594E0
2.704811907E1,-4.192225456E0,-1.009890842E1,-4.255036831E0
2.706838584E1,-3.940979004E0,-9.414560318E0,-3.349951744E0
2.708865272E1,-2.188236237E0,-9.129216194E0,-2.710469961E0
2.710891959E1,-1.213759303E0,-9.138788223E0,-1.781456470E0
2.712918641E1,-4.067798555E-1,-8.454441071E0,-1.137787223E0
2.714945329E1,1.027119160E0,-8.109275818E0,-4.001995921E-1
2.716972022E1,4.817350388E0,-9.711270332E0,5.374877930E0
2.718998709E1,6.028716564E0,-1.024247742E1,7.551149845E0
2.721025397E1,1.747956991E0,-9.761520386E0,3.589234054E-1
2.723052089E1,8.117650747E-1,-9.926624298E0,-3.177668571E0
2.725078777E1,2.853440940E-1,-9.641879082E0,-3.668197155E0
2.727105470E1,-6.340979934E-1,-9.287142754E0,-1.795813441E0
2.729132136E1,-1.110867858E0,-9.098110199E0,-1.048654556E0
2.731158845E1,-7.752745152E-1,-1.012522888E1,-1.290927768E0
2.733198850E1,-5.024927258E-1,-1.242353535E1,-7.423732281E-1
2.735212235E1,-7.322037220E-1,-1.432463264E1,6.029912829E-1
2.737238928E1,-2.640479803E0,-1.389153194E1,1.424327731E0
2.739265621E1,-4.802394867E0,-1.215314579E1,4.474578202E-1
2.741292324E1,-6.818347931E0,-1.170329571E1,-6.993024349E-1
2.743319813E1,-8.853444099E0,-1.308455276E1,-1.130608678E0
2.745355016E1,-9.129216194E0,-1.249831104E1,-4.480560422E-1
2.747389318E1,-6.076572895E0,-1.132941723E1,4.206582069E0
2.749414230E1,-2.705085993E0,-1.338365555E1,1.043390274E1
2.751425329E1,-1.788036704E0,-1.131027412E1,2.640479803E0
2.753452022E1,-1.249651670E0,-1.106620693E1,-3.584448338E0
2.755492126E1,-1.247258782E0,-1.316830158E1,-4.812564373E0
2.757505511E1,-8.135596663E-2,-1.642433548E1,-4.606781960E0
2.759545595E1,2.394617319E0,-1.830389595E1,-3.670589924E0
2.761559058E1,4.853242397E0,-1.622333717E1,-4.156332970E0
2.763585808E1,5.102096081E0,-1.128156090E1,-3.548556089E0
2.765612548E1,3.277568817E0,-7.805387497E0,-1.031904817E0
2.767639251E1,1.901097536E0,-6.083751678E0,-3.499503136E-1
2.769679287E1,1.412961721E0,-5.619544029E0,-8.452646136E-1
2.771692709E1,4.289134443E-1,-5.332405090E0,-1.003190875E0
2.773719438E1,-1.240080357E0,-4.836492538E0,-1.625923038E0
2.775746162E1,-2.681157827E0,-4.657031059E0,-2.339582443E0
2.777772865E1,-2.453839540E0,-5.190630436E0,-2.511865616E0
2.779799636E1,-4.426721931E-1,-5.928217888E0,-1.781456470E0
2.781826339E1,2.013560295E0,-6.924230576E0,-1.690529227E0
2.783853048E1,5.051846981E0,-7.096513748E0,-1.968096614E0
2.785879756E1,5.035097122E0,-7.592426300E0,-1.204786181E0
2.787906459E1,-3.512065411E0,-1.655115509E1,2.048674965E1
2.789933168E1,-1.754477310E1,-2.009731674E1,8.829515457E0
2.791959876E1,-1.532961845E1,-1.231107235E1,3.263211966E0
2.793986584E1,-1.144187927E1,-6.766304016E0,2.685943365E0
2.796013293E1,-1.860419631E0,-1.690588951E1,-7.782655358E-1
2.798040006E1,1.016112137E1,-1.864367676E1,1.185344505E1
2.800066714E1,1.466441345E1,-1.048714352E1,1.254078388E1
2.802093423E1,7.891529083E0,-7.561319351E0,-6.720840454E0
2.804120131E1,4.690530777E0,-7.994420528E0,-6.996015072E0
2.806146845E1,3.771088600E0,-9.799804688E0,-7.141977310E0
2.808173558E1,2.385046005E0,-1.117149067E1,-9.009575844E0
2.810200272E1,-1.028913707E-1,-1.035972595E1,-8.614759445E0
2.812226980E1,-1.694716692E0,-9.450452805E0,-6.510272026E0
2.814253694E1,-2.441875458E0,-1.017069244E1,-4.389034748E0
2.816280407E1,-3.516851187E0,-1.150469112E1,-3.885943890E0
2.818303188E1,-3.622135162E0,-1.099920750E1,-1.664208174E0
2.820343188E1,-3.648456335E0,-1.012283611E1,5.479564071E-1
2.822376350E1,-2.925823927E0,-9.407382011E0,1.034297585E0
2.824403074E1,-1.716252089E0,-8.480761528E0,7.992027402E-1
2.826414058E1,-1.017547846E0,-8.925827026E0,1.247258782E0
2.828452636E1,-3.565305769E-1,-9.337391853E0,1.204187989E0
2.830483251E1,4.432703853E-1,-8.968897820E0,9.020941257E-1
2.832494246E1,2.129612118E-1,-8.114061356E0,4.618147612E-1
2.834520944E1,-2.153540403E-1,-8.126026154E0,-7.280163169E-1
2.836547641E1,-3.804588020E-1,-9.541379929E0,-2.416152716E0
2.838587641E1,-3.589234129E-2,-1.099442196E1,-3.404986620E0
2.840601063E1,-3.110669553E-1,-1.098963642E1,-2.236690998E0
2.842627777E1,-1.216152072E0,-1.126720333E1,-2.087737769E-1
2.844654490E1,-2.807977438E0,-1.248873997E1,1.842473447E-1
2.846681199E1,-4.536791801E0,-1.211007500E1,4.953143001E-1
2.848721199E1,-5.743372440E0,-1.097767162E1,4.570291340E-1
2.850734636E1,-6.837490559E0,-1.083170986E1,2.392822644E-3
2.852761355E1,-8.109275818E0,-1.361157131E1,-1.322034448E-1
2.854788074E1,-6.547959328E0,-1.251506042E1,1.914856315E0
2.856814792E1,-2.836691141E0,-1.419063473E1,1.116371441E1
2.858854792E1,-2.980858803E0,-1.242353535E1,4.910071850E0
2.860868240E1,-3.562314749E0,-1.098963642E1,-2.416152716E0
2.862894964E1,-3.198605776E0,-1.230389404E1,-6.376274109E0
2.864921683E1,-2.875574589E0,-1.456929874E1,-5.399404526E0
2.866948407E1,-8.093722463E-1,-1.860299873E1,-4.077369690E0
2.868975136E1,2.243271112E0,-2.122014999E1,-4.630710125E0
2.871001860E1,4.525425911E0,-1.714278030E1,-6.704091072E0
2.873028589E1,3.045464993E0,-1.015155029E1,-4.597210407E0
2.875055313E1,1.585245013E0,-6.570092678E0,-2.614757061E0
2.877082042E1,1.972882271E0,-5.519045353E0,-1.616351724E0
2.879108725E1,2.281556368E0,-4.403391838E0,4.737788737E-1
2.881135485E1,1.501496196E0,-4.264608383E0,1.151545882E0
2.883162220E1,1.189831018E0,-5.183452129E0,-9.218349457E-1
2.885188949E1,1.106082320E0,-6.021538258E0,-2.131406784E0
2.887215678E1,2.147558212E0,-7.103692055E0,-1.953739643E0
2.889242412E1,4.745565414E0,-7.144370079E0,-1.223928809E0
2.891269141E1,7.161119938E0,-6.191428661E0,-3.690928817E-1
2.893295871E1,6.236892223E0,-5.956932068E0,-1.046261668E0
2.895322605E1,4.369294167E0,-1.005105114E1,2.064946175E1
2.897362006E1,-1.542592907E1,-2.033899307E1,1.287338543E1
2.899392501E1,-1.895235252E1,-1.661336708E1,-4.144368649E0
2.901417537E1,-1.188215923E1,-7.879564762E0,-4.400999069E0
2.903428756E1,-3.559921980E0,-6.412166595E0,-1.680957913E0
2.905455475E1,1.201795220E0,-2.170349884E1,5.482554913E0
2.907496438E1,-1.082154036E0,-1.969472504E1,1.823929071E0
2.909524089E1,4.264009953E0,-7.953742504E0,3.421138287E0
2.911535386E1,4.709673405E0,-8.471190453E0,-1.721635938E0
2.913562339E1,6.057430744E0,-8.854042053E0,-2.516651154E0
2.915589251E1,6.610770702E0,-1.003430176E1,-5.980860233E0
2.917615975E1,5.374877930E0,-1.008933640E1,-6.661019802E0
2.919656126E1,4.414757729E0,-8.262416840E0,-4.649852753E0
2.921669714E1,3.383451223E0,-9.759127617E0,-3.242274761E0
2.923696537E1,2.042274237E0,-1.094656563E1,-2.741576433E0
2.925723350E1,6.155536175E-1,-1.079103184E1,-2.688934565E0
2.927750079E1,-1.125224829E0,-1.044885826E1,-2.203191519E0
2.929777126E1,-2.451446772E0,-1.084845924E1,-2.148156643E0
2.931803860E1,-2.805584431E0,-1.053021431E1,-1.716850281E0
2.933830595E1,-3.792025566E0,-1.006540871E1,-1.647458434E0
2.935857334E1,-5.391627789E0,-1.006780148E1,-1.791027784E0
2.937884068E1,-6.476174355E0,-9.768698692E0,-1.719243050E0
2.939910808E1,-6.969096184E0,-8.636295319E0,-2.332403898E0
2.941937548E1,-6.875775814E0,-8.337192535E0,-1.860419631E0
2.943964287E1,-5.499304771E0,-8.322834969E0,2.464607358E-1
2.946004287E1,-4.036691666E0,-9.248857498E0,2.367697954E0
2.948017772E1,-2.169093609E0,-1.050867844E1,3.480958700E0
2.950044516E1,-9.625129104E-1,-1.048235798E1,1.118046403E0
2.952071261E1,-1.024726272E0,-1.101356411E1,-2.155334949E0
2.954098001E1,-1.405185103E0,-1.160519028E1,-4.127619267E0
2.956124746E1,-2.015953064E0,-1.148554897E1,-2.027917147E0
2.958151490E1,-2.384447813E0,-1.080538845E1,-3.260220885E-1
2.960178235E1,-4.388436794E0,-1.230150127E1,9.667003751E-1
2.962204980E1,-6.547959328E0,-1.542592907E1,5.592624664E0
2.964231725E1,-3.725026608E0,-1.211964703E1,1.273699474E1
2.966258470E1,-5.159523964E0,-1.038126087E1,4.783252239E0
2.968285220E1,-6.466603279E0,-9.129216194E0,-1.872383654E-1
2.970311964E1,-6.356533527E0,-9.586843491E0,-3.055036306E0
2.972351964E1,-5.310271740E0,-1.075753212E1,-5.006382942E0
2.974381251E1,-3.363710403E0,-1.945783615E1,-5.394618511E0
2.976408011E1,1.800599098E0,-3.103610611E1,-8.149953842E0
2.978430824E1,2.882753134E0,-2.426082802E1,-7.082156658E0
2.980461511E1,2.519043922E0,-1.163629627E1,-3.534198999E0
2.982472532E1,2.020738840E0,-4.805386066E0,3.933202267E0
2.984499256E1,2.703291416E0,-2.557329178E0,1.163330555E1
2.986526001E1,4.213760853E0,-5.423332691E0,3.097508907E0
2.988566001E1,4.022335052E0,-6.818946362E0,-1.271785259E0
2.990595282E1,3.236890793E0,-6.160321712E0,-2.866003275E0
2.992606298E1,1.989632010E0,-5.389832973E0,-3.062214851E0
2.994633037E1,5.006981492E-1,-5.380261898E0,-3.208775282E0
2.996659772E1,-4.331009090E-1,-6.150750637E0,-1.939382792E0
2.998699772E1,5.246263742E-1,-6.016752720E0,-1.680957973E-1
3.000713261E1,1.287936807E0,-4.738387108E0,-2.327020019E-1
3.002740011E1,1.996810555E0,-5.188237667E0,-2.213360928E-2
3.004766761E1,3.667000830E-1,-1.016112137E1,2.937189817E0
3.006793506E1,-8.417949677E0,-1.788515282E1,1.740060616E1
3.008820256E1,-1.279920864E1,-1.435095406E1,6.866204739E0
3.010847006E1,-1.083589745E1,-1.255573845E1,3.447459221E0
3.012873756E1,-8.640482903E0,-1.527039623E1,1.395613790E0
3.014900516E1,6.939185411E-2,-2.274736786E1,3.993022680E0
3.016927272E1,8.315058708E0,-1.347936821E1,1.418046474E1
3.018954027E1,4.000799656E0,-6.309275150E0,4.666004181E-1
3.020980782E1,1.939382792E0,-7.396214962E0,-2.487937450E0
3.023007543E1,7.040880919E-1,-8.209774017E0,-3.589233875E0
3.025034303E1,-5.503492057E-2,-1.175833035E1,-5.562116146E0
3.027061063E1,-1.235294700E0,-1.172961617E1,-8.054241180E0
3.029087751E1,-2.705085993E0,-1.011087227E1,-7.771887779E0
3.031114558E1,-2.933002472E0,-8.075776100E0,-5.949753284E0
3.033141324E1,-2.942573547E0,-7.312466145E0,-4.625924587E0
3.035168084E1,-2.470589399E0,-8.432905197E0,-3.811766386E0
3.037208089E1,-1.295115232E0,-9.337391853E0,-3.196810961E0
3.039221615E1,4.121637046E-1,-1.027597713E1,-1.039083242E0
3.041248381E1,1.161117196E0,-1.024965572E1,1.800000787E0
3.043275147E1,3.976871252E0,-1.022094154E1,6.969096184E0
3.045301912E1,4.206582069E0,-9.795019150E0,5.331807137E0
3.047328678E1,1.444068432E0,-9.184251785E0,1.304686546E0
3.049369475E1,-8.835497499E-1,-9.134002686E0,-1.243071318E0
3.051396292E1,-1.807179332E0,-9.603593826E0,-1.913061738E0
3.053400610E1,-2.877967358E0,-9.763913155E0,-9.002995491E-1
3.055435324E1,-3.677170277E0,-9.929018021E0,-2.685943544E-1
3.057462079E1,-3.490530014E0,-9.189037323E0,-1.231107235E0
3.059502168E1,-2.695514679E0,-9.479166985E0,-1.613958836E0
3.061515777E1,-1.079761267E0,-1.110688496E1,-7.160521746E-1
3.063542600E1,3.571287692E-1,-1.239721394E1,4.809573591E-1
3.065569407E1,5.772684813E-1,-1.227996540E1,1.902892232E0
3.067596173E1,-1.934597135E0,-1.144487095E1,1.740180254E0
3.069636214E1,-5.609374523E0,-1.401835155E1,4.067798555E-1
3.071649777E1,-7.240083218E0,-1.392024612E1,-2.638086975E-1
3.073676574E1,-8.116454124E0,-1.178465176E1,6.699903309E-2
3.075703360E1,-8.834300995E0,-1.147358418E1,3.097508907E0
3.077730131E1,-7.347760201E0,-1.029751205E1,5.336592674E0
3.079756980E1,-5.932405472E0,-9.929018021E0,1.579262912E-1
3.081783756E1,-3.550350666E0,-1.298405361E1,-3.235096216E0
3.083810527E1,-7.878368497E-1,-1.658465385E1,-5.942574978E0
3.085837298E1,1.630708575E0,-1.930948067E1,-7.017550468E0
3.087864074E1,2.006381750E0,-1.703031731E1,-8.236095428E0
3.089890845E1,7.639086246E-1,-1.193539906E1,-8.066205025E0
3.091917621E1,-6.460621208E-2,-8.612366676E0,-5.705685616E0
3.093944391E1,8.404789567E-1,-7.436892986E0,-4.036691666E0
3.095971168E1,8.135596663E-2,-7.389036179E0,-3.964907169E0
3.097997944E1,-1.785643935E0,-8.557332039E0,-2.485544443E0
3.100024720E1,-2.049452543E0,-1.049432182E1,-2.590230405E-1
3.102051490E1,5.294120312E-1,-1.058764172E1,8.135596663E-2
3.104078266E1,2.018345833E0,-8.911469460E0,-1.901097536E0
3.106105042E1,3.763910055E0,-7.494320393E0,-2.849253654E0
3.108131818E1,5.209773064E0,-6.210571289E0,-2.526222467E0
3.110158595E1,6.224927902E0,-5.070989609E0,-5.461617708E-1
3.112185376E1,6.713662148E0,-5.253442287E0,9.667003751E-1
3.114212152E1,6.189035892E0,-7.774280548E0,4.565505505E0
3.116238928E1,2.368894368E-1,-1.303669643E1,1.946920204E1
3.118265704E1,-9.643673897E0,-1.857667923E1,1.544686699E1
3.120292480E1,-1.479362583E1,-1.388435364E1,-1.233500123E0
3.122319261E1,-1.300259781E1,-9.929018021E0,-3.330809116E0
3.124359261E1,-9.803992271E0,-6.105287075E0,-1.714457393E0
3.126388610E1,-4.395615101E0,-4.389034748E0,-4.606781960E0
3.128411454E1,4.648058116E-1,-1.244746304E1,-2.466402054E0
3.130442178E1,2.475973129E0,-2.070988083E1,9.243474007E0
3.132453225E1,-2.937788010E0,-2.305424881E1,8.288139343E0
3.134479985E1,5.653043389E-1,-8.061419487E0,-2.059023857E0
3.136506761E1,3.651447296E0,-6.045466423E0,-2.854039192E0
3.138546761E1,6.546164513E0,-6.617949009E0,-5.241477966E0
3.140560308E1,7.762316704E0,-8.224131584E0,-7.244868755E0
3.142587079E1,5.653043270E0,-8.794221878E0,-6.035895348E0
3.144613855E1,3.684946775E0,-8.478368759E0,-4.396213531E0
3.146640631E1,3.850051641E0,-9.373882294E0,-3.124428272E0
3.148680631E1,2.404188633E0,-1.025204849E1,-2.296511650E0
3.150694188E1,9.816554785E-1,-1.091306591E1,-2.126621008E0
3.152720964E1,-2.895315289E-1,-1.109252739E1,-1.996810555E0
3.154747746E1,-1.622931957E0,-1.118584728E1,-1.838884234E0
3.156774522E1,-3.344567776E0,-1.109252739E1,1.459621787E-1
3.158814522E1,-5.054239750E0,-1.019701385E1,5.800800323E0
3.160828089E1,-4.115654945E0,-8.447261810E0,7.362117290E0
3.162854871E1,-2.350948334E0,-8.703293800E0,1.711466432E0
3.164881652E1,-1.493719578E0,-9.421739578E0,-3.427718580E-1
3.166908438E1,-1.146760225E0,-9.835697174E0,-1.312463164E0
3.168935220E1,-1.527219057E0,-9.265607834E0,-1.676172256E0
3.170962001E1,-1.661217093E0,-9.260822296E0,-1.814955950E0
3.172988787E1,-1.331007600E0,-9.393025398E0,-2.562114954E0
3.175015563E1,-9.888339639E-1,-9.279964447E0,-3.067000389E0
3.177042350E1,-1.387837082E-1,-1.104467106E1,-2.270190477E0
3.179069105E1,4.241278172E-1,-1.234457207E1,3.254238665E-1
3.181095912E1,-1.220339537E-1,-1.133898830E1,2.616551638E0
3.183122699E1,-3.014358282E0,-1.183729362E1,1.615753531E0
3.185149485E1,-6.002395630E0,-1.433420372E1,-5.413761139E-1
3.187176266E1,-7.541578770E0,-1.419302750E1,-1.867598057E0
3.189203058E1,-7.807182312E0,-1.272323608E1,-6.203392744E-1
3.191229845E1,-5.915655613E0,-1.197846985E1,5.175675392E0
3.193256631E1,-3.921836376E0,-1.016351414E1,7.646862984E0
3.195283407E1,-4.029513359E0,-9.334999084E0,-1.585244983E-1
3.197310199E1,-3.442673683E0,-1.134138107E1,-5.106881618E0
3.199336985E1,-2.537588358E0,-1.347218990E1,-6.273382664E0
3.201377782E1,-1.156331539E0,-1.569691658E1,-4.716851711E0
3.203406985E1,1.124626622E-1,-1.737009811E1,-4.578067780E0
3.205432084E1,1.017547846E0,-1.585245037E1,-5.516652584E0
3.207443136E1,1.568495274E0,-1.187557888E1,-4.709673405E0
3.209483350E1,1.819741607E0,-9.672985077E0,-3.421736479E0
3.211497079E1,1.616351724E0,-8.619544983E0,-3.069393158E0
3.213523990E1,2.059023857E0,-8.288737297E0,-3.512663603E0
3.215550876E1,2.030309916E0,-7.389036179E0,-1.757528186E0
3.217577657E1,9.361918569E-1,-6.792625427E0,1.529611826E0
3.219617746E1,1.818545163E-1,-6.696912289E0,1.096511006E0
3.221631386E1,7.734799385E-1,-7.697710514E0,-1.495514158E-2
3.223658225E1,1.975275040E0,-6.816553593E0,-3.140579760E-1
3.225685048E1,3.816552162E0,-5.779862881E0,-1.752742529E-1
3.227711829E1,4.848456860E0,-5.636293888E0,1.929213285E0
3.229738798E1,4.834099770E0,-6.268597126E0,4.591826439E0
3.231765584E1,2.420938253E0,-7.389036179E0,5.362913609E0
3.233792371E1,-7.322037220E-1,-9.747162819E0,6.502495766E0
3.235819157E1,-4.682754040E0,-1.397049522E1,6.641279221E0
3.237845949E1,-8.078168869E0,-1.459562016E1,5.163711071E0
3.239872735E1,-9.272786140E0,-1.126720333E1,4.338187218E0
3.241899527E1,-5.427519798E0,-8.877969742E0,5.015356064E0
3.243926318E1,-9.984052777E-1,-7.046264648E0,3.559921980E0
3.245953105E1,-4.163511395E-1,-4.817350388E0,1.036690354E0
3.247979897E1,-1.261615753E0,-4.724030018E0,-1.465603858E-1
3.250006688E1,-2.238485575E0,-8.947361946E0,-1.714457393E0
3.252033475E1,-1.484148264E0,-1.378864002E1,-1.671386600E0
3.254060266E1,-1.531406492E-1,-2.059502411E1,-3.835694790E0
3.256087058E1,2.753540754E0,-1.989392662E1,-2.499901533E0
3.258113850E1,3.203391314E0,-1.261316681E1,-3.792623997E0
3.260140636E1,2.770290375E0,-8.128418922E0,-6.744768620E0
3.262167428E1,1.874776483E0,-6.625127792E0,-6.816553593E0
3.264194220E1,1.322034478E0,-9.016754150E0,-6.448058605E0
3.266221011E1,2.085345030E0,-1.233021545E1,-7.326822758E0
3.268247803E1,1.714457393E0,-1.520339680E1,-6.692126751E0
3.270274595E1,1.244866014E0,-1.464347649E1,-5.346762180E0
3.272314595E1,2.870789051E0,-1.167218876E1,-2.988037348E0
3.274332126E1,7.433901787E0,-1.057328510E1,1.424507141E1
3.276370798E1,5.427519798E0,-9.148359299E0,1.090289593E1
3.278397558E1,1.525424480E0,-8.566903114E0,-2.306082726E0
3.280424365E1,-1.722832322E-1,-7.206583500E0,-6.126822472E0
3.282435423E1,-1.500898004E0,-5.267798901E0,-3.495913982E0
3.284462204E1,-3.991228104E0,-6.656234264E0,-4.983053207E-1
3.286488990E1,-3.150749207E0,-8.909076691E0,-3.888336942E-2
3.288528990E1,-9.888339639E-1,-9.565308571E0,-5.365904570E-1
3.290542574E1,7.471588850E-1,-1.120977592E1,4.666004181E-1
3.292569355E1,2.488535494E-1,-1.309412384E1,2.733799934E0
3.294609355E1,-2.956930637E0,-1.371924877E1,2.530410051E0
3.296622944E1,-5.879763603E0,-1.335494137E1,6.915257573E-1
3.298662944E1,-8.061419487E0,-1.385085392E1,-2.638086975E-1
3.300676532E1,-8.336593628E0,-1.522014618E1,-1.154536903E-1
3.302703324E1,-5.027918816E0,-1.696092606E1,2.420340061E0
3.304730115E1,8.931210637E-1,-1.730070686E1,5.879763603E0
3.306756912E1,1.992024899E0,-1.307019520E1,4.237689018E0
3.308796912E1,-1.505683661E0,-1.281177044E1,-1.245464206E0
3.310810506E1,-5.106881618E0,-1.178943729E1,-3.302095175E0
3.312837303E1,-4.716253281E0,-1.023529911E1,-4.518247128E0
3.314864105E1,-3.282354355E0,-1.024247742E1,-3.701696634E0
3.316890902E1,-1.654038668E0,-1.145204926E1,-2.497508526E0
3.318930902E1,2.488535494E-1,-1.500957870E1,-2.497508526E0
3.320944501E1,2.705684185E0,-1.798565102E1,-3.498306751E0
3.322971303E1,3.859622955E0,-1.519143295E1,-3.144168854E0
3.324998105E1,3.725624800E0,-1.022094154E1,-1.491924882E0
3.327024907E1,3.512663603E0,-8.001599312E0,2.008176327E0
3.329051662E1,3.534198999E0,-7.652246952E0,2.082952023E0
3.331078490E1,2.700898647E0,-6.940980434E0,-5.341976285E-1
3.333105287E1,1.621137381E0,-5.533402443E0,-2.054238319E0
3.335132100E1,6.490531564E-1,-4.331607342E0,-2.172084808E0
3.337158902E1,3.427718580E-1,-4.200001717E0,-2.129014015E0
3.339185709E1,2.757728100E-1,-4.881956577E0,-1.953739643E0
3.341212516E1,-1.483550072E-1,-5.528616905E0,-1.216750264E0
3.343239318E1,-6.460621208E-2,-6.064609051E0,-5.820540786E-1
3.345266126E1,1.079761267E0,-6.031109333E0,-1.537388563E-1
3.347292933E1,2.777468920E0,-5.507081509E0,1.196411327E-1
3.349320527E1,4.398007870E0,-4.568496704E0,5.982056633E-2
3.351355839E1,4.249652863E0,-4.235894203E0,-1.058823988E-1
3.353390251E1,1.172483116E-1,-1.102792168E1,1.628016663E1
3.355415266E1,-1.636630821E1,-2.404308128E1,1.383829117E1
3.357426339E1,-1.643869209E1,-1.839003754E1,-6.155536175E-1
3.359466470E1,-1.215972614E1,-9.826126099E0,1.532004714E0
3.361480183E1,-5.161916733E0,-1.164347458E1,1.783251047E0
3.363507063E1,6.933801651E0,-2.121057892E1,1.423789310E1
3.365533933E1,1.183011532E1,-1.150229836E1,1.479601860E1
3.367560735E1,5.877968788E0,-6.644270420E0,-6.333203316E0
3.369600787E1,4.252045631E0,-7.408178806E0,-5.722435474E0
3.371614438E1,2.815753937E0,-1.012044334E1,-5.837290764E0
3.373641282E1,1.570888042E0,-1.256770229E1,-7.175477028E0
3.375668110E1,-1.890329868E-1,-1.089392376E1,-9.031110764E0
3.377694923E1,-6.221339107E-1,-8.485547066E0,-6.416952133E0
3.379721839E1,-1.481755376E0,-8.216953278E0,-4.125226021E0
3.381748647E1,-2.334198475E0,-1.023051357E1,-2.775076151E0
3.383775454E1,-2.111665964E0,-1.118584728E1,-2.514258385E0
3.385802266E1,-2.382055044E0,-1.015633583E1,-1.130608693E-1
3.387829074E1,-2.630908489E0,-9.725627899E0,9.619147182E-1
3.389855886E1,-2.152343988E0,-8.755936623E0,2.262413740E0
3.391882694E1,-9.026923180E-1,-8.746364594E0,4.295116425E0
3.393909506E1,-7.489534616E-1,-9.263215065E0,3.382853031E0
3.395949506E1,-1.201795220E0,-9.038289070E0,2.488535494E-1
3.397963126E1,-7.441678643E-1,-8.257631302E0,-1.389033556E0
3.399989933E1,3.349951655E-2,-8.015955925E0,-3.247060299E0
3.402016746E1,3.571287692E-1,-8.387441635E0,-4.338785648E0
3.404043558E1,5.557330847E-1,-9.761520386E0,-3.347558975E0
3.406070365E1,8.333004713E-1,-1.057567787E1,-7.878368497E-1
3.408097178E1,8.374879509E-2,-1.192104244E1,6.580262184E-1
3.410123990E1,-1.994417667E0,-1.275673580E1,9.164510965E-1
3.412150803E1,-3.567100286E0,-1.184686470E1,1.866401732E-1
3.414177615E1,-4.589433670E0,-1.135573769E1,-1.496710539E0
3.416204423E1,-5.953940868E0,-1.134616661E1,-2.440080881E0
3.418231235E1,-7.668398380E0,-1.272802162E1,-1.860419631E0
3.420258048E1,-7.711469173E0,-1.278066349E1,5.024927482E-2
3.422284860E1,-4.034298897E0,-1.221057415E1,8.077570915E0
3.424311673E1,-3.354139090E0,-1.409252930E1,9.796813965E0
3.426351673E1,-3.102892876E0,-1.053499985E1,-3.403790295E-1
3.428381095E1,-2.614158630E0,-1.050150013E1,-4.826921463E0
3.430407918E1,-2.916252613E0,-1.298644638E1,-6.174678802E0
3.432419001E1,-1.800000787E0,-1.697288895E1,-4.551746845E0
3.434445792E1,5.868397355E-1,-2.006860352E1,-2.810968399E0
3.436472600E1,3.301496983E0,-1.898166466E1,-3.393022537E0
3.438512600E1,4.499104977E0,-1.324008560E1,-4.360321045E0
3.440542006E1,2.839682341E0,-9.064610481E0,-2.155334949E0
3.442553089E1,2.020738840E0,-7.353144169E0,-2.901297510E-1
3.444579886E1,3.263211966E0,-5.370690346E0,1.254437327E0
3.446606683E1,3.167499065E0,-4.771886349E0,4.953143001E-1
3.448646683E1,6.011967063E-1,-4.726422787E0,-6.681957245E-1
3.450660303E1,-9.816554785E-1,-5.241477966E0,-1.776670814E0
3.452687110E1,-6.628118753E-1,-5.734399319E0,-2.044667006E0
3.454713918E1,1.381855130E0,-7.000801086E0,-1.683350682E0
3.456740730E1,3.981656790E0,-6.670591354E0,-8.380861282E-1
3.458780730E1,5.870790482E0,-4.666602135E0,-1.609173268E-1
3.460794355E1,6.704091072E0,-4.637888432E0,-3.284149170E-1
3.462821168E1,2.598007202E0,-1.206461143E1,1.615574074E1
3.464847975E1,-1.551924992E1,-2.111007881E1,1.507597923E1
3.466874793E1,-1.766680717E1,-1.689392662E1,-3.474378586E0
3.468908053E1,-1.465005684E1,-1.265863037E1,-2.853440940E-1
3.470948626E1,-8.690732002E0,-1.849771500E1,-7.399803996E-1
3.472969881E1,6.411568165E0,-1.630469322E1,1.235593796E1
3.474981204E1,1.073360443E1,-8.693722725E0,1.446042538E1
3.477008188E1,3.548556089E0,-5.231906891E0,-5.655436516E0
3.479035141E1,4.513461590E0,-6.603592396E0,-5.612365723E0
3.481062063E1,3.873979807E0,-1.186840057E1,-6.244070530E0
3.483088970E1,2.746362209E0,-1.340997601E1,-9.282357216E0
3.485115855E1,2.336591244E0,-1.067139053E1,-8.887541771E0
3.487142730E1,1.757528186E0,-8.325227737E0,-6.172286034E0
3.489169584E1,4.911268353E-1,-8.770293236E0,-4.487140656E0
3.491196438E1,-1.866401732E-1,-1.058524895E1,-3.043072224E0
3.493223287E1,-1.338186026E0,-1.257727432E1,-1.568495274E0
3.495250121E1,-1.963310957E0,-1.314437294E1,-9.529415965E-1
3.497276959E1,-2.918645382E0,-1.044167995E1,-1.034895778E-1
3.499303792E1,-3.428316593E0,-8.492725372E0,8.135596663E-2
3.501330621E1,-3.184248686E0,-7.398607731E0,-1.094716311E0
3.503357449E1,-3.483351469E0,-7.465606689E0,-2.401795626E0
3.505384272E1,-3.729812384E0,-7.697710514E0,-1.439282775E0
3.507411089E1,-2.714657307E0,-7.824530125E0,-6.610172391E-1
3.509451095E1,-1.843669891E0,-7.558926582E0,-9.553344250E-1
3.511464735E1,-8.333004713E-1,-7.384250641E0,-1.164108157E0
3.513491558E1,-1.555334777E-1,-8.574081421E0,-2.303091735E-1
3.515518381E1,4.145565331E-1,-1.082692432E1,7.010970116E-1
3.517545199E1,3.828516230E-2,-1.290748310E1,6.915257573E-1
3.519585199E1,-1.809572101E0,-1.325922871E1,3.828516304E-1
3.521598839E1,-3.550350666E0,-1.142752266E1,-9.391828626E-2
3.523625657E1,-3.885345697E0,-1.134616661E1,-9.242277741E-1
3.525652475E1,-4.139583111E0,-1.098485088E1,-2.181656122E0
3.527679292E1,-4.553541660E0,-1.035254669E1,-3.333201885E0
3.529719298E1,-5.611767292E0,-1.070489025E1,-3.565305710E0
3.531732928E1,-7.134799004E0,-1.410688591E1,-3.083750248E0
3.533759746E1,-6.320641041E0,-1.234935760E1,-9.816554785E-1
3.535786558E1,-4.999204636E0,-9.964909554E0,2.039283037E0
3.537813376E1,-5.894120216E0,-1.035972595E1,2.501696110E0
3.539853376E1,-4.692325115E0,-1.077906799E1,-2.829512656E-1
3.541867011E1,-3.483351469E0,-1.220818138E1,-2.222334146E0
3.543893829E1,-2.597409010E0,-1.395135212E1,-2.648256540E0
3.545920647E1,-1.776072621E0,-1.702313805E1,-2.564507723E0
3.547947464E1,2.662015259E-1,-2.053998947E1,-2.858824968E0
3.549974282E1,2.894717216E0,-2.207019997E1,-3.450450182E0
3.552001100E1,5.032704353E0,-1.907976913E1,-3.955335855E0
3.554027918E1,5.791827202E0,-1.408535004E1,-4.161118507E0
3.556054735E1,5.286343575E0,-9.155537605E0,-3.974478483E0
3.558081553E1,4.527818680E0,-5.554937840E0,-6.849454641E-1
3.560108371E1,3.452843189E0,-4.106083870E0,2.451446772E0
3.562135188E1,3.388236761E0,-4.515854359E0,5.527420044E-1
3.564162006E1,2.779861689E0,-4.690530777E0,-1.570888042E0
3.566188824E1,1.812563181E0,-4.587639332E0,-2.564507723E0
3.568215641E1,1.951346874E0,-4.357928276E0,-2.339582443E0
3.570242459E1,4.163511276E0,-3.854837179E0,-7.830511928E-1
3.572269277E1,5.355735302E0,-3.440878868E0,-3.355933726E-1
3.574296095E1,4.432105541E0,-4.812564373E0,6.364908218E-1
3.576322912E1,-1.316650629E0,-1.396092415E1,2.513899422E1
3.578349730E1,-1.812383652E1,-2.113400841E1,4.594219685E0
3.580376553E1,-1.763091469E1,-1.633340645E1,-6.696912289E0
3.582403371E1,-1.137966633E1,-8.298309326E0,-1.283749342E0
3.584430188E1,-7.639684677E0,-3.254238844E0,-2.514258385E0
3.586457011E1,-1.721037745E0,-1.219382381E1,1.342971683E0
3.588483829E1,1.151844978E1,-2.643470764E1,2.943650436E1
3.590510647E1,3.148356438E0,-1.221296692E1,1.524826288E0
3.592537464E1,2.741576433E0,-8.906683922E0,-6.488736629E0
3.594564282E1,2.947359324E0,-9.126823425E0,-6.124429703E0
3.596591100E1,3.023929596E0,-1.110209846E1,-6.833303452E0
3.598617918E1,1.487139225E0,-9.960124016E0,-9.122037888E0
3.600644735E1,1.070189953E0,-9.174679756E0,-8.066205025E0
3.602671553E1,5.150550604E-1,-9.811769485E0,-4.913063049E0
3.604698371E1,-5.288137794E-1,-1.111406326E1,-3.656233072E0
3.606725188E1,-7.585247755E-1,-1.111167049E1,-2.440080881E0
3.608752006E1,-3.397808075E-1,-9.160323143E0,-2.282154560E0
3.610778824E1,-1.108475089E0,-9.692128181E0,-9.571290575E-3
3.612805641E1,-1.742573142E0,-9.234500885E0,1.009771109E0
3.614832459E1,-2.032702923E0,-8.703293800E0,1.297508121E0
3.616859277E1,-2.855833769E0,-8.968897820E0,1.101296663E0
3.618886095E1,-3.311068296E0,-9.045467377E0,9.786644578E-1
3.620912811E1,-2.606980324E0,-8.619544983E0,1.483550072E-1
3.622939634E1,-1.766501307E0,-7.977670670E0,-1.061216831E0
3.624966447E1,-9.002995491E-1,-8.195417404E0,-2.892324448E0
3.627005150E1,-4.594219327E-1,-8.743971825E0,-4.733601570E0
3.629020087E1,-3.493520916E-1,-9.579665184E0,-2.708076954E0
3.631046905E1,-6.532405615E-1,-1.052542877E1,-5.246263742E-1
3.633073723E1,-2.137987137E0,-1.086520958E1,-6.729813814E-1
3.635100540E1,-4.027120590E0,-1.134616661E1,-1.420140266E0
3.637127358E1,-4.982454777E0,-1.191864967E1,-8.069794178E-1
3.639154176E1,-4.919643402E0,-1.143470097E1,-4.121637046E-1
3.641180999E1,-4.273581028E0,-1.093460083E1,-5.485545993E-1
3.643207816E1,-4.982454777E0,-1.420977688E1,-1.633101404E-1
3.645234634E1,-3.672384501E0,-1.388913918E1,1.977069736E0
3.647261452E1,-9.984052777E-1,-1.281416321E1,9.253045082E0
3.649288270E1,-3.303889751E0,-1.411167145E1,4.532006264E0
3.651315092E1,-4.115654945E0,-1.054935646E1,-3.361915827E0
3.653341910E1,-3.557528973E0,-1.017069244E1,-5.873183250E0
3.655368728E1,-3.337389469E0,-1.257009602E1,-4.814957142E0
3.657395546E1,-2.142772675E0,-1.485883045E1,-3.235096216E0
3.659435546E1,-3.302095234E-1,-1.709492302E1,-2.313261271E0
3.661449186E1,9.601200819E-1,-1.823929024E1,-2.133799553E0
3.663476004E1,2.322234392E0,-1.518186188E1,-2.897109985E0
3.665502827E1,2.875574589E0,-1.171047401E1,-2.121835470E0
3.667529639E1,2.789433002E0,-1.080299568E1,-2.581257343E0
3.669569639E1,2.983251572E0,-9.086145401E0,-2.842075109E0
3.671583285E1,2.952144861E0,-6.457630157E0,-4.791627228E-1
3.673610108E1,1.872383714E0,-5.197809219E0,2.679961324E-1
3.675636921E1,1.451246977E0,-5.889933109E0,-1.226321578E0
3.677663744E1,1.458425403E0,-6.716054916E0,-1.386640668E0
3.679703744E1,2.464009047E0,-6.536593437E0,-1.872383714E0
3.681717384E1,4.101297855E0,-5.748756409E0,-1.479960799E0
3.683744207E1,5.988038540E0,-4.053441525E0,-8.434699476E-2
3.685771030E1,6.747161865E0,-3.713660717E0,-3.427718580E-1
3.687797848E1,5.523830891E0,-4.901099205E0,1.007378340E0
3.689824671E1,-1.797608018E0,-1.642912102E1,3.035355377E1
3.691851488E1,-2.017329025E1,-2.128236198E1,-3.547359705E-1
3.693878311E1,-1.830090523E1,-1.692024803E1,-6.321238995E0
3.695905129E1,-1.157109165E1,-8.171489716E0,-2.418545485E0
3.697931952E1,-8.599804878E0,-1.078385353E1,-1.776670814E0
3.699958770E1,3.145963669E0,-1.766202164E1,9.085547447E0
3.701985592E1,9.988838196E0,-1.410688591E1,2.075235176E1
3.704012415E1,3.069393158E0,-8.068597794E0,-4.094119549E0
3.706039233E1,2.312663078E0,-8.061419487E0,-5.562116146E0
3.708066056E1,2.126022816E0,-1.023051357E1,-6.177071571E0
3.710092879E1,2.382653236E0,-1.120738316E1,-7.618747234E0
3.712119697E1,1.810170293E0,-9.852447510E0,-8.169096947E0
3.714146520E1,9.098708034E-1,-8.157132149E0,-6.323632240E0
3.716173337E1,-1.435693651E-1,-8.882756233E0,-3.924229145E0
3.718200160E1,-6.580262184E-1,-1.002233791E1,-2.282154560E0
3.720226973E1,-7.561319470E-1,-9.713663101E0,-1.398604870E0
3.722253801E1,-1.120439172E0,-9.797411919E0,-1.511067510E0
3.724280624E1,-2.427518606E0,-9.850054741E0,-7.543373108E-1
3.726307441E1,-3.418745279E0,-9.969695091E0,3.972085714E-1
3.728334264E1,-3.074178934E0,-9.469595909E0,2.895315289E-1
3.730361082E1,-2.645265341E0,-8.978468895E0,1.483550072E-1
3.732387905E1,-2.386840582E0,-8.657830238E0,3.900300860E-1
3.734427905E1,-1.752144337E0,-8.423334122E0,1.531406492E-1
3.736441546E1,-8.237292171E-1,-8.188239098E0,-5.246263742E-1
3.738468363E1,-9.332008660E-2,-8.988039970E0,-1.405783296E0
3.740495186E1,1.818545163E-1,-1.011087227E1,-1.417747378E0
3.742522004E1,1.722832322E-1,-1.066660500E1,-4.815555513E-1
3.744548822E1,-2.344966233E-1,-1.181815147E1,4.307080805E-2
3.746575645E1,-2.453839540E0,-1.236371422E1,-1.513460279E-1
3.748602467E1,-4.654039860E0,-1.203111267E1,-5.126622319E-1
3.750629285E1,-5.985645771E0,-1.160758305E1,-3.643072546E-1
3.752656103E1,-7.012166977E0,-1.075753212E1,-2.392822644E-3
3.754682926E1,-8.585447311E0,-1.252223873E1,2.392822644E-3
3.756709749E1,-8.056035995E0,-1.314915848E1,1.347757339E0
3.758736566E1,-3.562314749E0,-1.421216965E1,5.635695457E0
3.760763389E1,-1.944168448E0,-1.295534039E1,5.231308460E0
3.762790207E1,-2.439482689E0,-1.152383423E1,3.780659735E-1
3.764817025E1,-1.673181176E0,-1.336690521E1,-2.674577475E0
3.766843848E1,-5.551348329E-1,-1.627358627E1,-5.234299660E0
3.768870665E1,7.974081635E-1,-1.838286018E1,-4.343571186E0
3.770897483E1,2.818146944E0,-1.822732735E1,-3.699303865E0
3.772924306E1,4.326223373E0,-1.491386509E1,-4.467998028E0
3.774951124E1,3.878765583E0,-1.081496048E1,-3.637090445E0
3.776977941E1,3.102892876E0,-8.106883049E0,-2.633899450E0
3.779004759E1,2.894717216E0,-6.668198586E0,-2.193620205E0
3.781031582E1,2.983251572E0,-5.767899036E0,-1.142572761E0
3.783058400E1,2.782254457E0,-4.939383984E0,1.818545163E-1
3.785085217E1,1.776670814E0,-4.477569580E0,2.183450699E0
3.787112035E1,7.423732281E-1,-5.368297577E0,1.151545882E0
3.789138853E1,1.363908947E-1,-6.663413048E0,-1.685743570E0
3.791165671E1,6.203392744E-1,-6.905087948E0,-3.028715372E0
3.793192488E1,2.461616278E0,-5.851647854E0,-2.162513494E0
3.795219301E1,3.672982693E0,-4.403391838E0,-1.322034478E0
3.797246118E1,4.810171604E0,-4.180859566E0,-2.454437733E0
3.799272941E1,1.982453585E0,-1.243789196E1,8.870193481E0
3.801299759E1,-1.310309696E1,-2.356870461E1,2.127697945E1
3.803326577E1,-1.682393646E1,-1.812682724E1,-1.422533035E0
3.805353395E1,-1.455673695E1,-1.289073372E1,2.616551638E0
3.807380212E1,-8.597412109E0,-1.192582798E1,6.987041831E-1
3.809420212E1,1.441675663E0,-1.591944885E1,2.102094650E0
3.811433848E1,1.449213028E1,-1.066421223E1,2.277309036E1
3.813460665E1,7.340581894E0,-9.186644554E0,-7.256234884E-1
3.815487478E1,2.598007202E0,-7.731209755E0,-6.737590313E0
3.817514290E1,2.894717216E0,-9.404989243E0,-7.345965385E0
3.819554290E1,1.628315806E0,-1.179183006E1,-7.948956966E0
3.821567926E1,-4.019941986E-1,-1.096331501E1,-9.498309135E0
3.823594738E1,-1.342971683E0,-9.854840279E0,-7.415357590E0
3.825621556E1,-1.520040631E0,-9.215357780E0,-4.731208801E0
3.827648374E1,-1.216152072E0,-9.629914284E0,-3.023929596E0
3.829688374E1,-9.888339639E-1,-1.009651470E1,-2.708076954E0
3.831702004E1,-1.149153113E0,-1.085803127E1,-6.418746710E-1
3.833728816E1,-1.850848317E0,-1.074796104E1,8.709874153E-1
3.835755634E1,-1.551147223E0,-8.806185722E0,1.419542074E0
3.837782447E1,-1.256830096E0,-8.032705307E0,1.965105653E0
3.839822447E1,-1.560718536E0,-8.236095428E0,1.907677889E0
3.841836077E1,-1.539183140E0,-8.440083504E0,1.012163997E0
3.843862895E1,-1.412363529E0,-8.703293800E0,-6.759724021E-2
3.845889707E1,-9.074779749E-1,-9.186644554E0,-8.668000102E-1
3.847916514E1,-3.876372576E-1,-9.713663101E0,-1.427318692E0
3.849943337E1,-4.067798555E-1,-9.821340561E0,-1.343569875E0
3.851970150E1,-3.924229145E-1,-9.854840279E0,-7.686942816E-1
3.853996962E1,-1.435693651E-1,-1.003908730E1,2.033899277E-1
3.856023775E1,-1.175474167E0,-1.142991543E1,8.422735929E-1
3.858050587E1,-3.074178934E0,-1.190907860E1,1.555334777E-1
3.860077400E1,-4.520041943E0,-1.131984615E1,-3.499503136E-1
3.862104217E1,-5.750551224E0,-1.133420277E1,-5.802594870E-2
3.864131030E1,-6.681957245E0,-1.184925747E1,5.120640397E-1
3.866157842E1,-7.479365349E0,-1.352064419E1,1.185045362E0
3.868184655E1,-7.630113125E0,-1.502393532E1,2.322234392E0
3.870211467E1,-6.287141323E0,-1.393220997E1,5.642873764E0
3.872238280E1,-6.169893265E0,-1.312044430E1,2.733799934E0
3.874265092E1,-5.863013744E0,-1.224646664E1,-2.093121529E0
3.876291900E1,-5.752943993E0,-1.462672615E1,-6.675376892E0
3.878318712E1,-4.302295208E0,-1.767637825E1,-7.549355507E0
3.880345525E1,-2.121237278E0,-1.970429611E1,-8.183453560E0
3.882372337E1,-7.633104324E-1,-1.922094536E1,-8.231309891E0
3.884399144E1,1.890329868E-1,-1.585723591E1,-8.392227173E0
3.886425957E1,7.758727670E-1,-1.172004509E1,-7.941778183E0
3.888452770E1,1.017547846E0,-9.452845573E0,-8.226524353E0
3.890479577E1,2.535793781E0,-8.257631302E0,-7.031907558E0
3.892506389E1,3.323032379E0,-7.750352383E0,-6.011966705E0
3.894533197E1,3.577269793E0,-6.948158741E0,-5.061418056E0
3.896560009E1,4.091726780E0,-6.095715523E0,-3.859622955E0
3.898586816E1,4.551746845E0,-6.122036934E0,-1.726421595E0
3.900613629E1,4.984847546E0,-7.278966427E0,5.144568682E-1
3.902640436E1,5.195415974E0,-7.379465103E0,1.419542074E0
3.904667249E1,4.724030018E0,-7.391428947E0,1.182652593E0
3.906694056E1,4.400400639E0,-8.909076691E0,3.600599766E0
3.908720863E1,-6.843472719E-1,-1.261316681E1,1.641416550E1
3.910747676E1,-5.807978630E0,-1.281177044E1,7.646862984E0
3.912774483E1,-7.409973621E0,-1.034058285E1,-2.470589429E-1
3.914801290E1,-6.746563435E0,-7.197012424E0,-1.960918188E0
3.916828098E1,-2.724228621E0,-4.319643021E0,-2.717648268E0
3.918854905E1,-2.632104978E-2,-4.862813950E0,-1.700100541E0
3.920881712E1,-1.027119160E0,-1.357567883E1,-1.204786181E0
3.922908520E1,-1.718644857E0,-2.457428932E1,-1.664208174E0
3.924934535E1,-2.327019930E0,-1.767159271E1,-1.104287624E0
3.926954436E1,-2.075773716E0,-9.536594391E0,3.392424345E0
3.928989092E1,-8.979067206E-1,-6.369095802E0,1.414756417E0
3.931029061E1,1.424925923E0,-5.801398277E0,1.674975827E-2
3.933042650E1,1.987239242E0,-8.310273170E0,-5.365904570E-1
3.935069436E1,2.097309113E0,-1.062831974E1,-2.626721144E0
3.937096217E1,2.200200319E0,-1.140359497E1,-3.244667530E0
3.939123020E1,1.960918188E0,-1.037168980E1,-3.057429075E0
3.941149811E1,1.948953986E0,-9.246464729E0,-3.232703447E0
3.943176608E1,4.336991012E-1,-9.021539688E0,-3.771088600E0
3.945203410E1,-2.608176768E-1,-9.428917885E0,-2.964108944E0
3.947230207E1,-4.570291340E-1,-9.131608963E0,-1.747956991E0
3.949257009E1,-5.407779217E-1,-8.882756233E0,5.288137794E-1
3.951283806E1,-4.067798331E-2,-9.613164902E0,5.212165833E0
3.953310603E1,2.638086975E-1,-9.799804688E0,3.571886063E0
3.955337410E1,4.336991012E-1,-9.895518303E0,-7.064808607E-1
3.957364212E1,-2.368894368E-1,-9.385847092E0,-2.200798512E0
3.959404212E1,-7.226324677E-1,-9.112466812E0,-2.507079840E0
3.961417811E1,-8.380861282E-1,-8.909076691E0,-2.404188633E0
3.963444613E1,-6.317051649E-1,-9.179466248E0,-2.003988981E0
3.965471415E1,1.339980662E-1,-1.024008465E1,-1.298106313E0
3.967498217E1,5.772684813E-1,-1.069053364E1,-6.705885530E-1
3.969538217E1,3.547359705E-1,-1.061635590E1,-1.130608678E0
3.971551822E1,2.781656384E-1,-1.123609734E1,-1.996810555E0
3.973578618E1,-6.005984545E-1,-1.172004509E1,-2.629113913E0
3.975605426E1,-2.238485575E0,-1.131984615E1,-3.373879910E0
3.977632228E1,-3.184248686E0,-1.090588760E1,-4.130012035E0
3.979672228E1,-4.036691666E0,-1.235892868E1,-4.125226021E0
3.981685827E1,-3.023929596E0,-1.094895840E1,-4.290929317E0
3.983712629E1,-8.021938205E-1,-1.202871990E1,-6.227321029E-1
3.985739431E1,1.999203324E0,-1.512682629E1,6.662814617E0
3.987766228E1,1.566102386E0,-1.474397469E1,3.605385542E0
3.989793030E1,-1.582253933E0,-1.170568848E1,-6.251249313E-1
3.991819827E1,-3.334996462E0,-8.657830238E0,-7.926225066E-1
3.993846629E1,-3.435495138E0,-7.082156658E0,-1.322034448E-1
3.995873426E1,-3.258426189E0,-9.905089378E0,-4.911268353E-1
3.997900228E1,-2.681157827E0,-1.311565876E1,-1.195214868E0
3.999940228E1,-1.005583763E0,-1.377189064E1,-1.451246977E0
4.001953822E1,3.068794906E-1,-1.560359669E1,-1.515853167E0
4.003980624E1,2.319841623E0,-1.607019615E1,-1.764706731E0
4.006007420E1,3.900300980E0,-1.260120201E1,-2.495115757E0
4.008034217E1,4.249652863E0,-9.424132347E0,-2.184048891E0
4.010061014E1,3.742374659E0,-8.269595146E0,-1.036690354E0
4.012087811E1,3.349353552E0,-8.082955360E0,1.522433400E0
4.014114608E1,2.238485575E0,-8.097311974E0,1.670788407E0
4.016141405E1,1.024726272E0,-7.975277901E0,2.656033039E-1
4.018168202E1,-6.317051649E-1,-7.530212879E0,3.110669367E-2
4.020194994E1,-2.193022013E0,-6.921837807E0,-1.537388563E-1
4.022221785E1,-1.642074585E0,-6.402595043E0,-6.538388133E-1
4.024248582E1,1.310070395E0,-6.200999737E0,-5.653043389E-1
4.026275379E1,3.787838221E0,-5.997610092E0,-5.102694035E-1
4.028302176E1,4.448855400E0,-5.650650501E0,4.067798331E-2
4.030328967E1,3.826123476E0,-4.798207760E0,4.378865361E-1
4.032355764E1,2.214557409E0,-4.558925152E0,1.266401410E0
4.034382561E1,-3.230310678E-1,-7.146762848E0,4.747360229E0
4.036409353E1,-6.799205780E0,-1.553839207E1,1.090528965E1
4.038436150E1,-1.513819218E1,-1.958944130E1,3.579064369E0
4.040462941E1,-1.420678616E1,-1.107817078E1,2.817548752E0
4.042489738E1,-1.199222851E1,-8.459226608E0,3.971487284E0
4.044516530E1,-4.041477680E0,-1.937169456E1,-4.217349887E-1
4.046543322E1,7.901100159E0,-2.059502411E1,1.160937691E1
4.048570118E1,8.410771370E0,-7.185048103E0,1.016770172E1
4.050596910E1,5.523830891E0,-3.742374659E0,-4.518247128E0
4.052623702E1,3.265604734E0,-6.126822472E0,-5.791827202E0
4.054650494E1,2.006381750E0,-9.967302322E0,-7.685746193E0
4.056677290E1,9.649057388E-1,-1.337169075E1,-7.867600918E0
4.058704082E1,-8.835497499E-1,-1.227278709E1,-8.394619942E0
4.060730874E1,-1.086939692E0,-9.570094109E0,-6.476772785E0
4.062757665E1,-2.219342947E0,-9.282357216E0,-4.065405846E0
4.064784457E1,-3.282354355E0,-1.041296577E1,-2.499901533E0
4.066811249E1,-4.405186653E0,-1.124566841E1,-2.368296146E0
4.068838040E1,-4.975276470E0,-9.905089378E0,5.551348329E-1
4.070864827E1,-4.436293125E0,-9.270393372E0,1.677966833E0
4.072891613E1,-3.033500910E0,-8.353941917E0,1.984248161E0
4.074918410E1,-2.181057930E0,-9.196215630E0,2.542374134E0
4.076945202E1,-1.829312921E0,-9.773484230E0,2.202593327E0
4.078971988E1,-1.718644857E0,-9.620343208E0,8.542376757E-1
4.080998780E1,-1.493719578E0,-9.043074608E0,-2.638086975E-1
4.083025566E1,-1.017547846E0,-8.830113411E0,-1.039083242E0
4.085052358E1,-7.178468108E-1,-8.882756233E0,-1.635494232E0
4.087079144E1,-2.919243574E-1,-8.916254997E0,-2.779861689E0
4.089105936E1,8.374879509E-2,-8.808578491E0,-4.024727821E0
4.091132723E1,3.451646566E-1,-8.681758881E0,-4.041477680E0
4.093159509E1,2.757728100E-1,-8.866005898E0,-2.152942181E0
4.095186296E1,2.584248483E-1,-1.063549805E1,-1.121037364E0
4.097213087E1,-1.024726272E0,-1.228953743E1,-1.243071318E0
4.099239874E1,-2.554338217E0,-1.237567902E1,-1.019940615E0
4.101266660E1,-3.710669756E0,-1.157169056E1,5.838487148E-1
4.103293447E1,-5.207380295E0,-1.189950657E1,2.492124796E0
4.105320233E1,-5.879763603E0,-1.409492207E1,2.429911375E0
4.107347020E1,-3.672384501E0,-1.403270817E1,2.673979282E0
4.109387020E1,-9.505487680E-1,-1.474876022E1,7.654041290E0
4.111400592E1,-1.390828133E0,-1.360917854E1,5.142175674E0
4.113427379E1,-3.251247883E0,-1.027597713E1,-6.203392744E-1
4.115454165E1,-4.199403763E0,-9.201001167E0,-4.108476639E0
4.117480952E1,-4.694717884E0,-1.152144146E1,-6.224927902E0
4.119520947E1,-3.524029493E0,-1.373121262E1,-4.122833252E0
4.121534514E1,-1.543968797E0,-1.517707539E1,-2.796611547E0
4.123561301E1,5.264209956E-2,-1.564906025E1,-2.583650351E0
4.125588087E1,1.353141189E0,-1.364028549E1,-3.885943890E0
4.127614868E1,1.242473125E0,-9.998409271E0,-3.203989506E0
4.129654869E1,1.010369420E0,-8.641080856E0,-2.846860647E0
4.131668436E1,1.456032634E0,-8.300702095E0,-2.447259426E0
4.133695223E1,1.692921996E0,-7.357929707E0,-2.068595171E0
4.135722009E1,1.156331539E0,-6.500700951E0,-1.412961721E0
4.137748790E1,-1.435693540E-2,-6.871588230E0,-2.733799815E-1
4.139788790E1,1.794617027E-1,-7.489534855E0,-9.194421172E-1
4.141802358E1,1.578066587E0,-7.836493969E0,-1.549352646E0
4.143829139E1,2.997608662E0,-7.286144733E0,-1.740778446E0
