"Time (s)","Gyroscope x (rad/s)","Gyroscope y (rad/s)","Gyroscope z (rad/s)"
4.289214400E-2,-8.988161683E-1,1.039963663E-1,1.314269006E-1
6.329214400E-2,-4.611259997E-1,2.211753577E-1,-6.338318437E-2
8.350443500E-2,-1.207742617E-1,1.982721984E-1,2.383527346E-2
1.036924560E-1,-1.809616536E-1,5.233107507E-2,1.761679798E-1
1.239590190E-1,-2.763027549E-1,-1.442100704E-1,2.081258893E-1
1.442256330E-1,-3.008038104E-1,-3.624559641E-1,5.046686530E-2
1.644922480E-1,-3.300985694E-1,-5.265065432E-1,-2.237053663E-1
1.848922480E-1,-2.938795984E-1,-6.703171730E-1,-5.219792128E-1
2.050254770E-1,-2.059953511E-1,-7.490134835E-1,-7.689871788E-1
2.252921440E-1,-1.916143000E-1,-8.134619594E-1,-7.961513996E-1
2.455587580E-1,-1.495363861E-1,-8.235819340E-1,-5.665870905E-1
2.658254250E-1,-1.047953144E-1,-6.904240251E-1,-4.777707458E-1
2.862254250E-1,-1.756353378E-1,-4.791023135E-1,-8.685893416E-1
3.063587060E-1,-4.115912318E-1,-2.532664239E-1,-1.553420663E0
3.266253210E-1,-8.082687855E-1,-9.094688296E-2,-2.253565311E0
3.468918830E-1,-1.085104227E0,2.463422157E-2,-2.866491318E0
3.671586020E-1,-1.079777837E0,-6.277065873E-1,-3.123752356E0
3.875586020E-1,-9.488835931E-1,-9.833714962E-1,-2.934668064E0
4.076918830E-1,-7.209171653E-1,-1.056342006E0,-2.539588451E0
4.279584460E-1,-4.259723127E-1,-8.443545699E-1,-2.074734211E0
4.482251640E-1,-1.580584943E-1,-6.245108247E-1,-1.911748767E0
4.684918310E-1,-1.468732208E-1,-4.258391261E-1,-2.058755159E0
4.887584460E-1,-3.380880356E-1,-4.407528341E-1,-2.191247225E0
5.090251120E-1,-6.964160800E-1,-4.556665123E-1,-2.091778278E0
5.292917270E-1,-9.984183311E-1,-2.969422340E-1,-1.824397087E0
5.495583940E-1,-1.168727398E0,-2.500706315E-1,-1.724794984E0
5.698250080E-1,-1.066462040E0,-7.447524667E-1,-1.702424407E0
5.900916750E-1,-7.736477256E-1,-9.732515216E-1,-1.456481695E0
6.103582890E-1,-3.791007102E-1,-9.993504286E-1,-1.194959521E0
6.306249560E-1,-3.768370301E-2,-6.628602743E-1,-1.136902571E0
6.508915710E-1,8.149266988E-2,-4.029359818E-1,-1.117195249E0
6.711581850E-1,1.832253486E-1,-5.249086618E-1,-9.479514956E-1
6.914248520E-1,2.354232669E-1,-7.229145169E-1,-8.233156204E-1
7.116914660E-1,1.049284711E-1,-5.334307551E-1,-6.496776342E-1
7.319581330E-1,-1.340900660E-1,-3.949464858E-1,-4.340949357E-1
7.522247480E-1,-2.118543088E-1,-2.170474641E-2,-4.836297035E-1
7.724914140E-1,-2.703106403E-2,-3.981423005E-2,-4.644549489E-1
7.927580290E-1,2.290316820E-1,-2.596580088E-1,-4.953475893E-1
8.130246440E-1,2.087916732E-1,-2.830938101E-1,-4.468781054E-1
8.332913100E-1,-5.845634267E-2,5.339634046E-2,-3.206443489E-1
8.535579250E-1,-5.526055023E-2,9.500820041E-1,-3.685812056E-1
8.738245390E-1,2.370211631E-1,2.547311783E-1,-3.557980657E-1
8.940912060E-1,1.038632020E-1,-7.230477035E-2,-3.323622644E-1
9.143578210E-1,-3.928159550E-2,1.050616279E-1,-2.950780392E-1
9.346244870E-1,-6.111950055E-2,6.045371294E-1,-2.801643312E-1
9.548911020E-1,-6.751108170E-2,6.221139431E-1,-3.020022511E-1
9.751577160E-1,-2.736395895E-1,1.998700947E-1,-3.664506972E-1
9.955577160E-1,-5.723128915E-1,2.382195890E-1,-2.796317041E-1
1.015690998E0,-6.671213508E-1,6.743118763E-1,-5.326318205E-4
1.035957664E0,-4.680502117E-1,3.047985733E-1,2.809632942E-2
1.056224279E0,-8.242477477E-2,5.640571117E-1,-7.989477366E-3
1.076490894E0,5.339634046E-2,6.338318586E-1,-7.616634667E-2
1.096757560E0,1.336905807E-1,6.077328920E-1,-1.043958366E-1
1.117024175E0,-2.869553864E-1,9.751157165E-1,-1.001347825E-1
1.137290789E0,-9.520793557E-1,1.427852750E0,-2.146506310E-1
1.157557456E0,-1.210272670E0,8.564719558E-1,-8.270440698E-1
1.177824071E0,-1.330647469E0,5.299686790E-1,-1.104412079E0
1.198090685E0,-1.099485278E0,8.695214242E-2,-7.929556370E-1
1.218357352E0,-9.898962379E-1,-1.611211300E-1,-3.408843577E-1
1.238623966E0,-1.159672618E0,-7.064029574E-1,-2.657832801E-1
1.258303966E0,-1.348224282E0,-7.974829674E-1,-4.527370334E-1
1.278703966E0,-1.514937997E0,-2.000032514E-1,-8.238482475E-1
1.299103966E0,-1.529319167E0,5.448823571E-1,-1.141163707E0
1.319503966E0,-1.180445313E0,1.017193675E0,-1.222656369E0
1.339903966E0,-9.643298984E-1,4.319643974E-1,-6.805703044E-1
1.360227560E0,-4.249070287E-1,-1.525990218E-1,-3.153180480E-1
1.380492716E0,1.930790395E-2,1.055942550E-1,-3.020022511E-1
1.400758914E0,4.213117659E-1,6.535392404E-1,-1.012000442E-1
1.421025164E0,8.675240874E-1,1.485776424E0,6.697845459E-2
1.441291466E0,1.125317931E0,2.259557247E0,1.324921697E-1
1.461557821E0,1.134772062E0,2.553969622E0,2.530001104E-3
1.481824227E0,9.111998677E-1,2.505633354E0,-2.455432713E-1
1.502090685E0,5.134570599E-1,2.255828857E0,-3.430148959E-1
1.522357144E0,1.752358675E-1,1.945437670E0,-4.527370334E-1
1.542623706E0,-8.082687855E-2,1.791507125E0,-6.571345329E-1
1.562890216E0,-1.873532385E-1,1.899098754E0,-9.420925379E-1
1.583156779E0,-1.484711170E-1,2.070472956E0,-1.206144810E0
1.603423341E0,-1.703090221E-1,1.950231433E0,-1.173654199E0
1.623689904E0,-2.656501234E-1,1.841041923E0,-1.108140469E0
1.643956519E0,-3.370227814E-1,1.886848211E0,-1.288702726E0
1.664223133E0,-3.892207146E-1,2.092843533E0,-1.526256442E0
1.684623133E0,-3.982754350E-1,2.156226873E0,-1.545431256E0
1.704756310E0,-3.844270110E-1,2.111485720E0,-1.303616405E0
1.725022925E0,-3.391533196E-1,2.111485720E0,-1.076715231E0
1.745289539E0,-1.820269227E-1,2.157824755E0,-9.239830375E-1
1.765556102E0,8.435556293E-1,2.665289640E0,-4.623244107E-1
1.785956102E0,2.290849447E0,2.509361744E0,6.258423906E-3
1.806089331E0,1.689641237E0,1.882587194E0,-1.565937549E-1
1.826355894E0,7.865640521E-1,1.612010241E0,-4.074633420E-1
1.846622560E0,6.704503298E-1,1.482048035E0,-1.997369379E-1
1.866889123E0,6.576671600E-1,8.942888379E-1,1.990711391E-1
1.887289123E0,2.737727463E-1,3.783017397E-1,5.446160436E-1
1.907422352E0,-3.476754129E-1,1.290300637E-1,7.699192762E-1
1.927688966E0,-9.632646441E-1,3.475422785E-2,9.158604145E-1
1.947955581E0,-1.021321535E0,1.322258562E-1,9.558078051E-1
1.968222196E0,-8.791088462E-1,3.957454562E-1,9.057404399E-1
1.988622196E0,-1.060603142E0,4.474107325E-1,9.451551437E-1
2.008873810E0,-1.119192600E0,3.735080659E-1,1.029843569E0
2.029022456E0,-7.880287766E-1,4.426170290E-1,9.840372801E-1
2.049289019E0,-1.399490088E-1,5.267728567E-1,8.530098796E-1
2.069555529E0,2.135853618E-1,7.313035131E-1,5.776392221E-1
2.089822091E0,3.861580743E-3,9.262467623E-1,3.289001435E-2
2.110088654E0,-4.637891650E-1,6.609960794E-1,-1.901495606E-1
2.130355164E0,-4.137217700E-1,6.082655191E-1,-3.802991211E-1
2.150621727E0,-1.324921697E-1,8.298403621E-1,-6.363618970E-1
2.170888341E0,7.590003312E-3,1.205745339E0,-1.084704757E0
2.191154904E0,2.247706354E-1,1.858618736E0,-1.718936086E0
2.211421519E0,4.628570378E-1,2.132791042E0,-2.082190990E0
2.231688133E0,3.771033287E-1,1.500157475E0,-1.894171953E0
2.251954644E0,-1.239700541E-1,7.835013866E-1,-1.806820273E0
2.272221258E0,-6.356960535E-1,1.384709597E0,-2.257293701E0
2.292487873E0,-8.807067275E-1,1.126383185E0,-2.695516586E0
2.312754487E0,-7.337003350E-1,3.633880615E-1,-2.926678658E0
2.333021050E0,-6.293044686E-1,-1.829590350E-1,-3.140264034E0
2.353287664E0,-2.358227372E-1,-6.570013762E-1,-3.246657372E0
2.373554279E0,6.231792271E-2,-1.100550532E0,-3.179146290E0
2.393820894E0,3.137201369E-1,-1.464737535E0,-3.655718565E0
2.414087508E0,9.053409100E-1,-1.507348061E0,-3.842006445E0
2.434354071E0,1.077913642E0,-6.692518592E-1,-3.164232492E0
2.454620685E0,-4.993423447E-2,5.336970687E-1,-1.192296386E0
2.474887300E0,-6.159886718E-1,1.468732238E0,-1.123054147E0
2.495153914E0,-5.217128396E-1,1.688709140E0,-2.274337769E0
2.515420477E0,-1.744369231E-2,8.165245652E-1,-2.744518518E0
2.535687091E0,2.194443047E-1,-1.431448013E-1,-2.756236553E0
2.555953654E0,1.102547869E-1,-5.249086618E-1,-2.484194756E0
2.576220269E0,5.020054802E-2,-2.404832691E-1,-1.856355071E0
2.596620269E0,-4.781702161E-1,9.729851484E-1,-1.324921608E0
2.616753498E0,-8.631298542E-1,1.210538983E0,-1.159805775E0
2.637020060E0,-7.912245989E-1,5.805686712E-1,-1.404816389E0
2.657286675E0,-3.764375448E-1,-2.229064107E-1,-1.594965935E0
2.677553289E0,2.303632535E-2,-8.954872489E-1,-2.094441414E0
2.697953289E0,-5.036033988E-1,-7.831019163E-1,-2.959701777E0
2.718086519E0,-8.306393027E-1,3.989412189E-1,-3.016693592E0
2.738353133E0,-5.925529003E-1,6.791055799E-1,-1.837180257E0
2.758619748E0,-5.558013320E-1,-7.772429585E-1,9.321057005E-4
2.778886362E0,-1.132508397E0,-9.013462067E-1,-4.511391521E-1
2.799286362E0,-1.310940027E0,-2.905506492E-1,-1.721066594E0
2.819419591E0,-7.502118945E-1,-1.947168827E0,-8.398272395E-1
2.839686206E0,-9.520793706E-2,-2.625075817E0,1.181111038E-1
2.859952821E0,-1.303616315E-1,-1.147422075E0,5.845634341E-1
2.880219435E0,-5.573992133E-1,4.186486006E-1,5.755086541E-1
2.900485998E0,-6.309024096E-1,1.977395564E-1,4.195807278E-1
2.920752716E0,-1.079910994E-1,-3.512706757E-1,5.994771123E-1
2.941019331E0,3.083938360E-1,-1.744369268E-1,8.285087943E-1
2.961285946E0,-1.436774284E-1,-3.821633384E-2,6.340981722E-1
2.981552560E0,-3.247722387E-1,1.109205782E-1,1.479384899E-1
3.001819175E0,-1.447426975E-1,2.526006401E-1,-3.861580789E-1
3.022085789E0,3.155843541E-2,6.045371294E-1,-5.113265514E-1
3.042352456E0,-6.964161247E-2,1.317597985E0,-2.508696020E-1
3.062619071E0,-4.169175625E-1,1.658349156E0,-6.977476925E-2
3.082885685E0,-6.282392144E-1,1.398558021E0,-8.894951642E-2
3.103152300E0,-7.853656411E-1,9.404946566E-1,-1.203747913E-1
3.123418966E0,-9.669930935E-1,5.576655269E-1,-9.427583218E-2
3.143685581E0,-1.047287345E0,2.392848432E-1,-5.965476483E-2
3.163952196E0,-1.002679348E0,4.327633604E-2,-7.137266546E-2
3.184218862E0,-8.077361584E-1,1.611211337E-2,-5.486107618E-2
3.204485477E0,-1.053279415E-1,1.945437789E-1,-1.065263641E-3
3.224752091E0,9.580714703E-1,1.551290154E-1,1.372858584E-1
3.245018758E0,1.676858187E0,-1.573926955E-1,3.269027770E-1
3.265285373E0,2.171140432E0,-6.330329180E-1,5.755086541E-1
3.285552039E0,2.436257839E0,-1.329449058E0,7.582014203E-1
3.305818654E0,2.872350216E0,-1.400289059E0,7.107971907E-1
3.326085269E0,3.539072037E0,-1.904158741E-1,3.316964805E-1
3.346351987E0,3.430415154E0,1.215732098E-1,3.146522343E-1
3.366618602E0,3.257975578E0,-9.167925119E-1,7.784414291E-1
3.386885269E0,2.858501911E0,-3.864243925E-1,1.263003230E0
3.407151883E0,1.609879732E0,8.633961678E-1,1.717737675E0
3.427418550E0,1.483645916E0,2.357028961E0,1.640506029E0
3.447685216E0,1.734915018E0,-1.362205893E-1,1.742238641E0
3.467951779E0,1.417599559E0,-2.916292429E0,1.651158690E0
3.488218498E0,1.376586914E0,-2.582998037E0,1.311472654E0
3.508485164E0,1.275919557E0,-1.777259231E0,1.290167451E0
3.528751831E0,9.191893935E-1,-1.471129060E0,1.294428468E0
3.549018446E0,6.773745418E-1,-1.329981685E0,1.201750517E0
3.569285112E0,4.490086138E-1,-1.518533349E0,1.094158888E0
3.589551779E0,1.683116555E-1,-2.012682438E0,8.668583035E-1
3.609818446E0,-2.649843320E-2,-2.057423592E0,6.111950278E-1
3.630085112E0,-1.910816729E-1,-1.471129060E0,4.131891429E-1
3.650351779E0,-3.274354041E-1,-9.274451733E-1,3.109238148E-1
3.670618394E0,-4.153196514E-1,-6.740455627E-1,2.193111479E-1
3.690885060E0,-5.147886276E-1,-6.914892793E-1,9.733846784E-2
3.711151727E0,-6.974813938E-1,-8.289082646E-1,4.127896391E-3
3.731418394E0,-8.524772525E-1,-9.386304021E-1,-5.592634156E-2
3.751685060E0,-9.520793557E-1,-1.017459989E0,-1.081242561E-1
3.771951727E0,-9.749825597E-1,-1.122920990E0,-1.171789989E-1
3.792218446E0,-8.364982605E-1,-1.263402700E0,-1.304948032E-1
3.812485060E0,-5.025381446E-1,-1.095224142E0,-1.597895473E-1
3.832751779E0,-3.721764982E-1,-7.090660930E-1,-9.001477808E-2
3.853018446E0,-4.929507375E-1,-6.431529522E-1,7.976161689E-2
3.873285112E0,-8.194540739E-1,-6.287718415E-1,7.230477035E-2
3.893693081E0,-1.018125772E0,-1.202283144E0,1.777658761E-1
3.913966987E0,-9.243825078E-1,-1.228248954E0,4.408859909E-1
3.934078237E0,-2.747048736E-1,7.163897753E-1,8.870983124E-1
3.954346258E0,-1.022253633E0,8.367645741E-1,1.061801553E0
3.974612873E0,-5.392897129E-1,7.174550891E-1,-4.484759867E-1
3.995037821E0,-1.637310266E0,-3.342264518E-2,8.721846342E-2
4.015152144E0,-1.687377572E0,-4.205128253E-1,-4.740423337E-2
4.035418758E0,-1.443032742E0,7.526087761E-1,-4.857602119E-1
4.055685373E0,-1.388704300E0,2.350104809E0,-5.857618451E-1
4.075952039E0,-1.593101740E0,3.347990513E0,-4.660528302E-1
4.096218654E0,-1.342898011E0,2.776609659E0,-2.524674833E-1
4.116485321E0,-1.128780007E0,1.134372592E0,-5.617933869E-1
4.136751935E0,-1.115464211E0,-6.111950278E-1,-8.350335360E-1
4.157018654E0,-1.314668536E0,-1.376320601E0,-8.637956381E-1
4.177285321E0,-1.643701792E0,-1.189499974E0,-8.147935271E-1
4.197551935E0,-1.814144015E0,-3.549990952E-1,-8.238482475E-1
4.217818654E0,-1.669268131E0,8.554067016E-1,-8.680567145E-1
4.238085321E0,-1.362605333E0,1.865543008E0,-7.668566704E-1
4.258312716E0,-1.055809379E0,2.472077370E0,-6.677871346E-1
4.278618706E0,-8.540751338E-1,2.489121675E0,-6.795050502E-1
4.298885373E0,-8.375635147E-1,1.980058789E0,-7.988145947E-1
4.319152039E0,-1.152215838E0,7.203845680E-2,-7.476819158E-1
4.339418758E0,-1.596830249E0,-1.520663857E0,-5.495429039E-1
4.359685425E0,-1.679388165E0,-1.239966869E0,-3.062632978E-1
4.379952091E0,-1.344495893E0,4.985433817E-1,2.223737910E-2
4.400218810E0,-1.285906315E0,2.015611887E0,1.846900880E-1
4.420485477E0,-1.347159028E0,2.280862570E0,-1.416800618E-1
4.440752196E0,-8.817719817E-1,1.254214764E0,-5.633913279E-1
4.461018862E0,5.539371073E-2,8.207856417E-1,-8.957535625E-1
4.481285581E0,4.793686271E-1,1.060869455E0,-8.813725114E-1
4.501552352E0,5.395560265E-1,5.938844681E-1,-7.828356028E-1
4.521818966E0,4.165180922E-1,2.557964325E-1,-6.075997353E-1
4.542085685E0,5.560676455E-1,1.132774711E0,-3.238401413E-1
4.562352352E0,1.046488404E0,8.367645741E-1,1.997369342E-3
4.582619071E0,1.414936423E0,-6.649908423E-1,4.973449707E-1
4.602885685E0,1.751959205E0,-1.080310464E0,1.012266755E0
4.623152352E0,2.251434803E0,-8.603335619E-1,1.590571761E0
4.643419071E0,2.357428551E0,-2.377402067E0,2.180994034E0
4.663685737E0,2.179662466E0,-3.267829418E0,2.457430124E0
4.683952456E0,2.344112635E0,-3.029742956E0,2.433994293E0
4.704219123E0,2.312154770E0,-1.766606569E0,2.267280579E0
4.724485841E0,2.200967789E0,-1.367532164E-1,2.240648985E0
4.744752508E0,2.187652111E0,1.507614374E0,2.234257221E0
4.765019227E0,1.495896459E0,1.344762206E0,2.156493187E0
4.785285894E0,9.612672925E-1,8.287751079E-1,1.969139814E0
4.805552612E0,6.842987537E-1,1.535311192E-1,1.727857590E0
4.825819279E0,4.916191697E-1,5.925529078E-2,1.484578013E0
4.846085998E0,3.102580272E-2,-6.490118504E-1,1.354083300E0
4.866352664E0,-7.283740491E-2,-1.419996381E0,1.359942198E0
4.886619383E0,1.344895363E-2,-1.414137483E0,1.224121094E0
4.906886050E0,-3.235738352E-2,-1.190032601E0,9.552751780E-1
4.927152769E0,-2.597911656E-1,-1.335307956E0,5.893571377E-1
4.947419435E0,-5.680518150E-1,-1.350221634E0,1.607216448E-1
4.967686154E0,-9.888309836E-1,-1.243695259E0,-3.371559381E-1
4.987952821E0,-1.569133401E0,-1.097887397E0,-7.258440256E-1
5.008219539E0,-1.457413793E0,-9.652619958E-1,-7.956187725E-1
5.028486206E0,-3.593933284E-1,-2.061151981E0,-1.810948178E-2
5.048752925E0,-1.678322911E0,-2.665023327E0,6.713824272E-1
5.069019591E0,-1.336506367E0,-1.930790395E-1,-2.540653646E-1
5.089286310E0,-2.102564126E-1,2.692453861E0,-2.535327375E-1
5.109552977E0,8.696545959E-1,3.944937468E0,9.787109494E-2
5.129819696E0,1.122654676E0,1.220659018E0,-2.284990549E-1
5.150086362E0,-1.569932252E-1,-2.487656832E0,-3.126548827E-1
5.170486362E0,5.038697124E-1,-9.194557071E-1,-1.225852132E0
5.190619748E0,1.480716467E-1,-4.050664902E-1,-1.709881306E0
5.210886414E0,-8.247803450E-1,-6.532729268E-1,-1.804157138E0
5.231153133E0,-1.334908485E0,-1.643701792E0,-1.789776087E0
5.251419800E0,-1.898832440E0,-3.207109451E0,-1.406946898E0
5.271819800E0,-2.075133562E0,-3.392864704E0,-8.851009011E-1
5.291953185E0,-2.322674274E0,1.261671662E0,-4.282359779E-1
5.312219904E0,-2.755038023E0,9.482444763E0,-1.747032404E-1
5.332486571E0,-1.805089235E0,8.546210289E0,-5.219791830E-2
5.352753289E0,-1.175118923E0,6.959367275E0,-7.510108501E-2
5.373019956E0,-1.747032404E0,4.401802540E0,-6.752439737E-1
5.393286623E0,-9.217193723E-1,-2.671148479E-1,-1.186969995E0
5.413694591E0,-2.187785208E-1,-2.349172592E0,-1.043292522E0
5.433984279E0,-6.697845459E-2,-1.984452963E0,-9.655283093E-1
5.454234071E0,-6.165213138E-2,-1.070190430E0,-7.567366362E-1
5.474343498E0,-1.458079666E-1,-1.898832470E-1,-5.980123878E-1
5.494768289E0,-3.018690944E-1,5.576655269E-1,-5.166528821E-1
5.514887352E0,-7.107971907E-1,1.513473272E0,-5.495429039E-1
5.535153862E0,-9.419593811E-1,2.047037363E0,-5.209138989E-1
5.555420477E0,-8.487488031E-1,1.394297004E0,-4.900212884E-1
5.575687144E0,-9.238498807E-1,9.399620295E-1,-3.760380745E-1
5.595953706E0,-2.853575051E-1,1.516669154E0,-3.664506972E-1
5.616220321E0,1.274854302E0,9.028109312E-1,-1.928127259E-1
5.636487039E0,1.621064901E0,-6.767086983E-1,-9.374319762E-2
5.656753654E0,1.462340713E0,-4.956139028E-1,8.455529809E-2
5.677020321E0,2.152498245E0,4.729770422E-1,7.187866569E-1
5.697286987E0,3.265965223E0,8.482161909E-2,1.476588607E0
5.717553654E0,3.487939358E0,-1.649560690E0,2.067676783E0
5.737820321E0,2.897383928E0,-3.704987049E0,2.703905344E0
5.758086935E0,2.223737955E0,-4.630967140E0,3.009636164E0
5.778353654E0,1.892041326E0,-4.293944359E0,2.849313974E0
5.798620321E0,1.940510869E0,-3.635212183E0,2.452103853E0
5.818886987E0,1.944771886E0,-1.514272213E0,1.884984016E0
5.839153654E0,1.351553202E0,9.788441062E-1,1.458479047E0
5.859420373E0,2.109221965E-1,1.568334341E0,1.333843231E0
5.879687039E0,-6.916224360E-1,1.099751592E0,1.478719115E0
5.899953706E0,-1.159139991E0,8.293077350E-1,1.606018066E0
5.920220425E0,-1.359409571E0,6.311687231E-1,1.558613896E0
5.940487091E0,-8.460856676E-1,-5.382244587E-1,1.267264247E0
5.960753758E0,-5.707150102E-1,-2.327334642E0,8.103992939E-1
5.981020425E0,-7.688540220E-1,-3.003643990E0,4.334291518E-1
6.001353706E0,-1.010136247E0,-2.575541258E0,1.942774504E-1
6.021752300E0,-1.012266755E0,-1.490836501E0,-1.171789970E-2
6.041820477E0,-1.002679348E0,-7.335671782E-1,-3.957454562E-1
6.062087144E0,-1.431314826E0,-7.271755934E-1,-8.142609000E-1
6.082353810E0,-1.895104051E0,-6.266413331E-1,-1.085237384E0
6.102620477E0,-2.530001104E-3,-2.255562544E0,-9.154609442E-1
6.122887144E0,-2.177132517E-1,-3.457313061E0,-3.083938360E-1
6.143153810E0,-5.137233734E-1,-6.761760712E-1,6.538055837E-2
6.163420477E0,1.363537461E-1,4.318711758E0,3.924165070E-1
6.183687196E0,5.459476262E-3,6.281593323E0,8.263782859E-1
6.203953862E0,6.683197618E-1,4.846416950E0,6.873613596E-1
6.224220529E0,1.479384899E0,3.037332892E-1,-2.982738242E-2
6.244487196E0,-8.189214021E-2,-3.247589350E0,-3.904191256E-1
6.264753862E0,-5.206476152E-2,-3.811513424E0,-1.102281570E0
6.285020529E0,-1.633848101E-1,-3.206044197E0,-1.729056001E0
6.305287196E0,-9.222519994E-1,-3.090995550E0,-1.853691936E0
6.325553862E0,-1.822666049E0,-2.277400494E0,-1.301485896E0
6.345820529E0,-1.944638729E0,-9.002809525E-1,-8.819051385E-1
6.366087196E0,-1.603221774E0,2.898848653E-1,-4.708465338E-1
6.386353862E0,-1.481382251E0,2.540786982E0,-2.604569495E-1
6.406753862E0,-1.690573454E0,5.649492741E0,-2.535327375E-1
6.426887196E0,-1.468599081E0,5.795833111E0,-2.657832801E-1
6.447153862E0,-1.278449535E0,4.409259319E0,-3.962780833E-1
6.467420529E0,-1.679388165E0,2.502437353E0,-6.246439815E-1
6.487687196E0,-1.777925014E0,8.378298283E-1,-8.179892898E-1
6.507953862E0,-1.289102197E0,2.755038142E-1,-9.026777744E-1
6.528220477E0,-6.101297736E-1,2.174469382E-1,-1.039564133E0
6.548487196E0,-1.378184855E-1,6.617950648E-2,-1.068858862E0
6.568753862E0,4.434159771E-2,2.516685426E-2,-1.003345251E0
6.589020529E0,-4.660528619E-3,4.511391521E-1,-8.499472141E-1
6.609287196E0,-5.632581562E-2,1.485776424E0,-6.406229138E-1
6.629553810E0,-8.921583183E-3,2.475273132E0,-5.878923535E-1
6.649820477E0,1.043958366E-1,2.559828520E0,-6.629934311E-1
6.670087144E0,2.503369451E-1,1.569932342E0,-6.693850160E-1
6.690353810E0,8.362319320E-2,3.703122735E-1,-7.737808824E-1
6.710620477E0,-4.611259997E-1,6.617950648E-2,-9.729851484E-1
6.730887144E0,-5.195823312E-1,1.018658355E-1,-1.006008387E0
6.751153810E0,-1.186437383E-1,6.764423847E-1,-5.926860571E-1
6.771420425E0,4.884233773E-1,1.724395514E0,3.791007102E-1
6.791687091E0,2.330264330E0,1.843172431E0,1.378584266E0
6.811953758E0,3.455448866E0,-1.205479026E0,2.180994034E0
6.832220425E0,3.331345797E0,-2.750244379E0,2.538922787E0
6.852487039E0,2.955973387E0,-2.786463261E0,2.734798193E0
6.872753706E0,2.352634668E0,-3.274753571E0,2.757168531E0
6.893020373E0,1.937847733E0,-3.446660519E0,2.669950247E0
6.913286987E0,2.144508839E0,-2.760897160E0,2.334392071E0
6.933694904E0,2.238651514E0,2.494048476E-1,1.996836662E0
6.953968862E0,1.336106896E0,3.634945869E0,1.756619692E0
6.974078185E0,2.769685388E-1,3.646131039E0,1.618668079E0
6.994503081E0,-5.281044245E-1,1.923599839E0,1.720400810E0
7.014620737E0,-7.699192762E-1,2.110553533E-1,1.630385995E0
7.034887300E0,-5.675191879E-1,-8.912261724E-1,1.211337924E0
7.055153862E0,-4.323638678E-1,-1.639440775E0,8.066709042E-1
7.075420425E0,-5.254412889E-1,-1.940777183E0,5.866939425E-1
7.095687039E0,-9.190561771E-1,-1.908819318E0,4.547344148E-1
7.115953654E0,-1.200685263E0,-1.437573314E0,2.901511788E-1
7.136220216E0,-1.218262076E0,-1.200685263E0,-9.214530140E-2
7.156486883E0,-1.319462180E0,-1.507880688E0,-8.286419511E-1
7.176753446E0,-1.589905977E0,-1.375787973E0,-1.352085829E0
7.197020112E0,3.478085697E-1,-3.086201906E0,-1.133706808E0
7.217286727E0,4.452801943E-1,-5.467066288E0,-6.715155840E-1
7.237553341E0,-9.776456952E-1,-2.213484764E0,-2.924148738E-1
7.257819956E0,-3.183806837E-1,9.958883524E-1,-2.396843210E-2
7.278086623E0,1.043958366E-1,2.336788893E0,7.171887755E-1
7.298353237E0,1.359010100E0,4.360257149E0,1.042094111E0
7.318619904E0,1.352618456E0,4.390617371E0,6.687192321E-1
7.338886571E0,-6.420876384E-1,5.747097135E-1,-1.997369379E-1
7.359153185E0,-3.077280223E-1,-1.731053472E0,-1.150218368E0
7.379419800E0,-2.502037883E-1,-3.651723862E0,-1.477787018E0
7.399686466E0,-5.062665343E-1,-5.213533401E0,-1.814809799E0
7.420086466E0,-9.701888561E-1,-5.044689178E0,-1.738110781E0
7.440219748E0,-1.567002773E0,-3.540936232E0,-1.336106896E0
7.460486414E0,-1.758217692E0,-1.618135452E0,-9.309072495E-1
7.480753029E0,-2.158091068E0,2.095506668E0,-7.679219246E-1
7.501019696E0,-2.151699305E0,4.740423203E0,-6.294376254E-1
7.521419696E0,-1.481914878E0,4.293145657E0,-4.079959691E-1
7.541552977E0,-1.192163229E0,3.248920918E0,-5.209138989E-1
7.561819591E0,-1.639440775E0,1.451288581E0,-8.206524849E-1
7.582086258E0,-1.565937519E0,-3.091927767E-1,-9.420925379E-1
7.602352873E0,-1.086702108E0,-9.253146052E-1,-1.086302638E0
7.622619539E0,-8.210519552E-1,-1.013731480E0,-1.073652625E0
7.642886154E0,-8.258456588E-1,-9.061399102E-1,-9.463536143E-1
7.663152821E0,-6.079992056E-1,-5.190497041E-1,-9.271788597E-1
7.683552821E0,-3.748396337E-1,2.392848432E-1,-7.636608481E-1
7.703844019E0,-3.577954173E-1,1.073652625E0,-5.868270993E-1
7.724110737E0,-2.757701278E-1,1.514538527E0,-4.974781275E-1
7.744377456E0,-2.848248780E-1,1.224387407E0,-5.214465261E-1
7.764486831E0,-2.155827284E-1,6.593981981E-1,-6.049365997E-1
7.784886831E0,3.281011879E-1,7.949529588E-2,-7.450187802E-1
7.805019956E0,8.142609000E-1,-7.127945423E-1,-9.080041051E-1
7.825286466E0,7.274419069E-1,-1.180977941E0,-8.584693074E-1
7.845553081E0,3.307643533E-1,-9.594030380E-1,-4.809665382E-1
7.865819591E0,1.954758763E-1,-4.093275666E-1,2.320943177E-1
7.886219591E0,6.842987537E-1,7.712509036E-1,9.419593811E-1
7.906352873E0,2.863828182E0,1.322391629E0,1.575125456E0
7.926612612E0,3.752124786E0,-8.448871970E-1,2.026131392E0
7.946883654E0,2.787661791E0,-1.732651353E0,2.339718342E0
7.967150737E0,1.971936107E0,-1.750228167E0,2.481931210E0
7.987417769E0,1.869670868E0,-2.456764221E0,2.615089178E0
8.007684748E0,2.143443584E0,-2.642120123E0,2.537324905E0
8.027951571E0,2.250902176E0,-1.513739586E0,2.220941544E0
8.048218446E0,1.613608122E0,1.396427512E0,1.967541933E0
8.068485269E0,6.411555409E-1,2.407096386E0,1.730520844E0
8.088751987E0,-2.368880063E-1,1.412406445E0,1.653821826E0
8.109018758E0,-8.311719298E-1,-3.241064548E-1,1.636777639E0
8.129285477E0,-7.805719376E-1,-1.004144192E0,1.367399096E0
8.149552196E0,-5.419528484E-1,-1.082973599E0,1.100550532E0
8.169818914E0,-6.442182064E-1,-1.384310126E0,9.504814744E-1
8.190085633E0,-9.462204576E-1,-1.532914400E0,8.109319210E-1
8.210352300E0,-1.180977941E0,-1.549425960E0,5.978792310E-1
8.230619019E0,-1.314668536E0,-1.425322771E0,2.949448824E-1
8.250885633E0,-1.397759080E0,-1.226118445E0,-1.294295341E-1
8.271285633E0,-1.576590180E0,-9.173251390E-1,-6.848313808E-1
8.291419019E0,-1.383910656E0,-1.723596573E0,-9.596694112E-1
8.311685685E0,1.482048035E0,-6.794517994E0,-6.443513632E-1
8.331952352E0,-8.061382771E-1,-3.614972115E0,-2.844253778E-1
8.352219019E0,-1.119192600E0,1.406547427E0,-2.141179889E-1
8.372485633E0,-5.850960612E-1,4.428966522E0,-7.989477366E-3
8.392752300E0,-2.251701057E-1,4.067975521E0,1.291765332E0
8.413085685E0,1.394163847E0,2.809632778E0,1.334375858E0
8.433485685E0,1.988447785E0,-8.528767228E-1,-1.592569202E-1
8.453552352E0,-3.961449265E-1,-2.811496973E0,-8.733830452E-1
8.473819019E0,-1.868206114E-1,-2.468482256E0,-1.493233323E0
8.494085685E0,-2.704437971E-1,-3.005241871E0,-1.550224900E0
8.514352352E0,-9.078709483E-1,-3.006307125E0,-1.673129678E0
8.534619019E0,-1.555418015E0,-1.617070198E0,-1.415469050E0
8.554885685E0,-1.612809181E0,-1.069258377E-1,-9.564735889E-1
8.575285685E0,-1.243295789E0,5.107939243E-1,-7.311703563E-1
8.595419019E0,-1.070723176E0,1.094957829E0,-7.333008647E-1
8.615685685E0,-1.867939830E0,4.107923031E0,-9.133304358E-1
8.635952352E0,-2.217745781E0,4.924180984E0,-8.877640963E-1
8.656219019E0,-1.897767186E0,3.125350475E0,-6.981471777E-1
8.676485685E0,-1.751826048E0,9.001477957E-1,-6.970819235E-1
8.696752352E0,-1.561676502E0,-4.660528619E-3,-6.981471777E-1
8.717019019E0,-9.243825078E-1,1.291632187E-2,-6.773745418E-1
8.737285685E0,-3.332943618E-1,1.593900770E-1,-6.171871424E-1
8.757552352E0,1.771000773E-2,1.482048035E-1,-5.932186842E-1
8.777819019E0,2.125200927E-1,1.025316212E-2,-6.566019058E-1
8.798085685E0,7.297056168E-2,5.605949834E-2,-7.620629668E-1
8.818352300E0,-1.468732208E-1,6.375603080E-1,-7.178545594E-1
8.838618966E0,-2.810964286E-1,1.544898629E0,-6.246439815E-1
8.858885633E0,-4.568649530E-1,1.972601891E0,-5.596628785E-1
8.879152300E0,-6.085318327E-1,1.270726323E0,-5.665870905E-1
8.899418966E0,-4.281028211E-1,1.327584833E-1,-6.763092279E-1
8.919685633E0,-1.031974182E-1,-6.058686972E-1,-8.089345694E-1
8.939952300E0,-2.560627460E-1,-6.957502961E-1,-9.793767333E-1
8.960218966E0,-4.142543972E-1,-1.362205893E-1,-9.447556734E-1
8.980485633E0,3.635212034E-2,2.526006401E-1,-4.681833684E-1
9.000752300E0,4.852275848E-1,1.860216707E-1,2.155827284E-1
9.021018966E0,1.228515267E0,3.422159329E-2,9.115993381E-1
9.041285633E0,2.798846960E0,-2.314285189E-1,1.548493862E0
9.061552300E0,3.413903713E0,-7.495461106E-1,1.906821966E0
9.081818966E0,2.829207182E0,-8.949546218E-1,2.263552189E0
9.102085581E0,2.035851955E0,-9.902957082E-1,2.666221619E0
9.122352300E0,1.714674950E0,-1.580318570E0,2.855705500E0
9.142618966E0,1.923999310E0,-1.799097180E0,2.824812889E0
9.162885633E0,2.078995228E0,-1.193761110E0,2.541585922E0
9.183152300E0,1.502288103E0,8.463519812E-1,2.090579987E0
9.203552300E0,5.470128655E-1,1.428385377E0,1.553287506E0
9.223843498E0,-1.649827063E-1,7.222487330E-1,1.358344316E0
9.244110216E0,-6.436855793E-1,-5.403549671E-1,1.458479047E0
9.264219644E0,-6.495444775E-1,-1.227183700E0,1.386573792E0
9.284619644E0,-2.661827505E-1,-1.418931127E0,1.160737872E0
9.304752821E0,-1.809616536E-1,-1.522794366E0,9.856351614E-1
9.325019331E0,-5.616602302E-1,-1.440769076E0,9.376983047E-1
9.345285946E0,-8.625972271E-1,-1.310274243E0,7.257108688E-1
9.365552560E0,-9.755151868E-1,-1.435442805E0,3.721764982E-1
9.385952560E0,-9.259804487E-1,-1.105876803E0,1.265000552E-2
9.406085789E0,-9.680583477E-1,-6.866955757E-1,-5.420860648E-1
9.426346206E0,-1.297091603E0,-2.617885470E-1,-1.014530420E0
9.446616831E0,-5.605949759E-1,-1.460476398E0,-1.089498401E0
9.466883966E0,1.420795441E0,-4.612857819E0,-3.941475451E-1
9.487150946E0,-9.084035754E-1,-1.419463754E0,3.263701499E-1
9.507417873E0,-7.986814380E-1,2.756902218E0,-2.609895915E-2
9.527684696E0,-2.544648647E-1,5.643633842E0,-7.882951200E-2
9.547951571E0,-5.739107728E-2,4.673977375E0,1.170857906E0
9.568218394E0,1.944771886E0,3.133872509E0,1.232110500E0
9.588485060E0,1.411208034E0,-6.506097913E-1,3.087933064E-1
9.608751831E0,-7.070687413E-2,-1.798564553E0,-6.299703121E-1
9.629018550E0,9.800425172E-2,-1.392299533E0,-1.167262673E0
9.649285216E0,-1.458079666E-1,-1.694834471E0,-1.523060679E0
9.669685269E0,-7.470161319E-1,-2.056358337E0,-1.577921748E0
9.689818654E0,-1.013332009E0,-1.150085211E0,-1.119325757E0
9.710085373E0,-1.138900042E0,-6.724476814E-1,-8.898946047E-1
9.730352091E0,-1.164466262E0,-3.384875357E-1,-7.865640521E-1
9.750618706E0,-1.310940027E0,6.791055799E-1,-8.211851120E-1
9.770885373E0,-2.049034595E0,3.699394226E0,-1.029976726E0
9.791152091E0,-2.002695560E0,4.619116306E0,-8.685893416E-1
9.811418758E0,-1.243295789E0,3.352251530E0,-6.075997353E-1
9.831685425E0,-8.567382693E-1,2.613091707E0,-5.633913279E-1
9.851952091E0,-1.207076907E0,2.605634928E0,-7.274419069E-1
9.872218758E0,-1.170325279E0,2.127997398E0,-7.317029834E-1
9.892485477E0,-6.601971388E-1,1.462473869E0,-6.118608117E-1
9.912818758E0,-2.619217038E-1,1.514538527E0,-6.384924054E-1
9.933218758E0,-4.664523304E-1,1.861281872E0,-6.528734565E-1
9.953285425E0,-8.966856599E-1,1.801094532E0,-4.905539155E-1
9.973552091E0,-9.376983047E-1,1.343164325E0,-3.664506972E-1
9.993952091E0,-6.122602820E-1,1.082174659E0,-1.512674391E-1
1.001408537E1,-3.661843762E-2,1.597096562E0,-1.715074480E-1
1.003435204E1,4.239749312E-1,2.065146685E0,-1.880190372E-1
1.005461871E1,6.182523966E-1,2.372475386E0,-5.645897239E-2
1.007488537E1,5.645897388E-1,3.160504103E0,9.986846708E-3
1.009515204E1,2.806969583E-1,2.631733894E0,-2.386190593E-1
1.011541860E1,2.034653574E-1,6.338318586E-1,-5.740439296E-1
1.013568532E1,1.161137372E-1,-1.362205893E-1,-8.424903750E-1
1.015595199E1,1.741705984E-1,2.978743315E-1,-9.458209276E-1
1.017621865E1,7.066692710E-1,2.435459048E-1,-7.114629745E-1
1.019648532E1,1.102947354E0,-7.570029497E-1,-2.279664129E-1
1.021675194E1,1.084837914E0,-1.306013227E0,4.536691606E-1
1.023701860E1,1.302551150E0,-6.495444775E-1,1.257144213E0
1.025728527E1,2.251434803E0,-4.791023135E-1,1.881255627E0
1.027755194E1,2.566752672E0,-7.644598484E-1,2.271541595E0
1.029781855E1,2.423474789E0,-8.017440438E-1,2.502703667E0
1.031808522E1,2.112550974E0,-5.558013320E-1,2.734265566E0
1.033835188E1,1.895769835E0,-4.375570416E-1,2.723612785E0
1.035861850E1,1.771666646E0,2.105227262E-1,2.465419531E0
1.037888516E1,1.422925949E0,1.504418612E0,2.221474171E0
1.039915183E1,1.645832360E-1,2.334658384E0,2.140647173E0
1.041941845E1,-1.241697907E0,9.937578440E-1,1.559679151E0
1.043968511E1,-1.297091603E0,1.689774394E-1,1.002146721E0
1.045995178E1,3.845601678E-1,-3.432812095E-1,1.498959064E0
1.048021839E1,9.026777744E-1,-1.490836501E0,1.822666049E0
1.050048506E1,5.241097212E-1,-2.145307779E0,1.395628572E0
1.052075173E1,1.251684725E-1,-2.136253119E0,7.390266657E-1
1.054101834E1,-1.543300748E-1,-1.337438464E0,4.557996690E-1
1.056141834E1,-3.876228034E-1,-4.631233811E-1,5.117260218E-1
1.058155168E1,-6.570013762E-1,7.683213800E-2,2.970753908E-1
1.060181829E1,-9.307740927E-1,8.855003864E-2,-7.350318879E-2
1.062208496E1,-1.004809976E0,-1.829590350E-1,-5.012065172E-1
1.064235157E1,-1.105344176E0,-4.673844278E-1,-9.985514879E-1
1.066261824E1,-1.414270639E0,-5.787044764E-1,-1.331313252E0
1.068288485E1,-1.431314826E0,-8.448871970E-1,-1.371793270E0
1.070315152E1,-6.644582152E-1,-1.143161058E0,-1.382978559E0
1.072355152E1,-1.553953290E-1,-2.401370525E0,-1.091096282E0
1.074384272E1,1.608548164E-1,-2.399772644E0,-5.299686790E-1
1.076410938E1,1.587242782E-1,-4.998749495E-1,3.348922431E-1
1.078437615E1,4.484759867E-1,1.765408158E0,8.034750819E-1
1.080448553E1,1.803091884E0,5.286237717E0,3.205111921E-1
1.082475199E1,7.061366439E-1,1.637576580E0,2.406164259E-1
1.084501845E1,2.988064587E-1,-1.207742617E-1,-4.814991653E-1
1.086528506E1,5.257076025E-1,-8.198535442E-1,-1.090031028E0
1.088568506E1,5.283707380E-1,-1.921602488E0,-1.641704440E0
1.090581824E1,1.763011366E-1,-3.012698650E0,-1.852094054E0
1.092607636E1,-6.000097394E-1,-3.826426983E0,-1.657150745E0
1.094634839E1,-1.070190430E0,-3.730020523E0,-1.414936423E0
1.096661563E1,-1.287504315E0,-2.942924023E0,-1.227450013E0
1.098688266E1,-1.581383824E0,-1.530251265E0,-1.072587371E0
1.100714964E1,-2.350903749E0,1.508147001E0,-7.998798490E-1
1.102741662E1,-2.785398006E0,4.651607037E0,-6.890923977E-1
1.104768339E1,-1.990977764E0,4.924180984E0,-7.732482553E-1
1.106795022E1,-1.117594719E0,2.812828541E0,-9.745830894E-1
1.108821704E1,-5.456812978E-1,-1.488173366E0,-1.189100504E0
1.110848376E1,-3.359575272E-1,-3.619233131E0,-1.280180573E0
1.112875053E1,-2.741722167E-1,-3.429616213E0,-1.257809997E0
1.114901720E1,-2.347574681E-1,-2.141046762E0,-1.017193675E0
1.116928391E1,-2.533995807E-1,-3.448790908E-1,-7.743135095E-1
1.118955063E1,-2.997385561E-1,7.584677339E-1,-7.178545594E-1
1.120981725E1,-3.716438413E-1,8.143940568E-1,-7.306377292E-1
1.123008391E1,-4.371575713E-1,7.121287584E-1,-6.054692268E-1
1.125035053E1,-3.455449045E-1,8.159919381E-1,-5.713807940E-1
1.127075058E1,-1.037300453E-1,7.574024200E-1,-5.985450149E-1
1.129088386E1,2.743053734E-1,5.326318145E-1,-5.267728567E-1
1.131115048E1,9.287767410E-1,2.836264484E-2,-4.772381186E-1
1.133141714E1,1.515071273E0,-1.043026209E0,-2.689790726E-1
1.135168376E1,1.860083461E0,-1.720933437E0,2.406164259E-1
1.137195043E1,2.336655855E0,-8.709861636E-1,1.117594719E0
1.139221704E1,3.530017376E0,-8.768451214E-1,1.987782001E0
1.141255037E1,3.694067955E0,-2.360358000E0,2.615621805E0
1.143295037E1,2.525207520E0,-3.542534351E0,3.069290876E0
1.145301694E1,1.569399714E0,-3.917906523E0,2.947850704E0
1.147328355E1,1.543833375E0,-4.130959034E0,2.691122293E0
1.149355016E1,1.783917069E0,-3.508445740E0,2.308293104E0
1.151381678E1,1.660479665E0,-2.139981508E0,1.976596713E0
1.153408339E1,1.150218368E0,-1.245825887E0,1.888712406E0
1.155435001E1,5.017392039E-1,-1.094158888E0,1.816274524E0
1.157461662E1,9.001477808E-2,-6.186518669E-1,1.612942338E0
1.159488324E1,-4.318312407E-1,-3.832286000E-1,1.532514930E0
1.161514985E1,-1.228382111E0,-9.258472323E-1,1.626124978E0
1.163541647E1,-1.556483388E0,-1.285773158E0,1.523992777E0
1.165568308E1,-1.631451249E0,-1.117062092E0,1.196424246E0
1.167594970E1,-1.792838693E0,-7.969503403E-1,9.100014567E-1
1.169621631E1,-1.645832300E0,-1.581916451E0,5.245091915E-1
1.171648293E1,-1.352485299E0,-2.353433609E0,5.526055023E-2
1.173674954E1,-1.267264247E0,-2.832802296E0,-3.882885873E-1
1.175701610E1,-1.419596910E0,-2.577671766E0,-6.965492368E-1
1.177728277E1,-1.074984193E0,-3.340800047E0,-8.952209353E-1
1.179754938E1,1.016660929E0,-6.403699398E0,-6.001428962E-1
1.181781600E1,-7.491466403E-1,-3.366366148E0,2.890859246E-1
1.183808261E1,-1.671931267E0,-1.733716577E-1,3.727091253E-1
1.185834923E1,-7.555382252E-1,1.242496848E0,5.259739235E-2
1.187861584E1,1.025316212E-2,-1.520663798E-1,5.728455186E-1
1.189888240E1,1.110936761E0,-1.635179639E0,7.587340474E-1
1.191914902E1,2.456497908E0,4.210054874E0,7.603319287E-1
1.193941563E1,-6.788392663E-1,4.857602119E0,3.066627681E-1
1.195968225E1,-8.823046088E-1,-1.312937379E0,-2.109221965E-1
1.197994886E1,-1.138500497E-1,-3.822165966E0,-7.776424289E-2
1.200021548E1,2.066611499E-1,-4.949481010E0,-9.458209276E-1
1.202048204E1,-4.046670198E-1,-4.436689854E0,-1.755154967E0
1.204074865E1,-1.090963125E0,-2.760897160E0,-1.373391151E0
1.206101527E1,-9.020119905E-1,-1.699095488E0,-7.721830010E-1
1.208128188E1,-8.657930493E-1,-1.409876466E0,-6.965492368E-1
1.210154850E1,-9.930920005E-1,-1.715607047E0,-8.190546036E-1
1.212181506E1,-1.651158690E0,-1.301752210E0,-8.632630110E-1
1.214208168E1,-3.226816654E0,1.794702888E0,-1.068858862E0
1.216234829E1,-3.000581264E0,3.353316784E0,-1.079910994E0
1.218261490E1,-1.169792652E0,2.994456053E0,-1.130511045E0
1.220288147E1,-3.535343707E-1,6.439518929E-1,-1.140631080E0
1.222314808E1,-7.970834970E-1,-1.907221437E0,-1.110803604E0
1.224354808E1,-1.040895700E0,-2.968490362E0,-1.051282048E0
1.226383918E1,-9.856351614E-1,-2.108556271E0,-9.309072495E-1
1.228410589E1,-9.957551956E-1,-1.797632426E-1,-9.431577921E-1
1.230421522E1,-9.041424990E-1,4.820317924E-1,-9.207872748E-1
1.232448162E1,-7.155908346E-1,2.334259003E-1,-8.568714261E-1
1.234474808E1,-5.387570858E-1,4.245075583E-1,-8.403598666E-1
1.236501464E1,-3.370227814E-1,6.652571559E-1,-7.551387548E-1
1.238541464E1,-7.550056279E-2,8.612656593E-1,-5.495429039E-1
1.240554777E1,6.656566262E-1,9.884315133E-1,-4.793686271E-1
1.242580652E1,1.421860695E0,5.446160212E-2,-3.941475451E-1
1.244607813E1,1.804157138E0,-1.016927361E0,-1.166463718E-1
1.246634527E1,2.106692076E0,-7.149250507E-1,2.592585385E-1
1.248661220E1,2.779672384E0,6.402234435E-1,9.957551956E-1
1.250687912E1,4.047069550E0,-6.159886718E-1,1.900962949E0
1.252714595E1,3.307909966E0,-3.075016737E0,2.543716431E0
1.254741277E1,1.811081290E0,-3.678888083E0,3.015495062E0
1.256767954E1,1.743969679E0,-4.431896210E0,3.221091032E0
1.258794626E1,2.398973703E0,-4.504733562E0,2.984069824E0
1.260821292E1,2.716954947E0,-3.179945230E0,2.436124802E0
1.262847959E1,2.247173548E0,-8.251798749E-1,1.974466205E0
1.264874631E1,9.532778263E-1,3.303648829E-1,1.726792336E0
1.266901292E1,-1.106542572E-1,9.383640885E-1,1.688975453E0
1.268927959E1,-7.880287766E-1,1.407080054E0,1.915876627E0
1.270954615E1,-1.669800758E0,1.309608459E0,2.229463577E0
1.272981282E1,-1.688442826E0,-7.603318989E-2,2.063948393E0
1.275007938E1,-5.760413408E-1,-2.000964642E0,1.555950761E0
1.277034600E1,-3.689807057E-1,-3.120822906E0,1.100017905E0
1.279061261E1,-5.004075766E-1,-3.586742640E0,7.550055981E-1
1.281087918E1,-7.704519033E-1,-2.954641819E0,3.838943839E-1
1.283114579E1,-1.006407857E0,-1.853958249E0,1.511342824E-1
1.285141240E1,-1.039830446E0,-1.717205048E0,-1.736379713E-1
1.287167897E1,-1.021321535E0,-2.019073963E0,-7.327682376E-1
1.289194558E1,-8.333024979E-1,-3.281145096E0,-1.163534164E0
1.291221214E1,1.332378507E0,-6.369610786E0,-1.354216456E0
1.293261214E1,7.562040091E-1,-4.829638958E0,6.058686972E-2
1.295274532E1,-1.603221774E0,-1.194293737E0,1.869005084E0
1.297301188E1,-4.355596602E-1,2.053961515E0,8.380961418E-1
1.299327845E1,3.344927728E-1,2.605634928E0,2.651174963E-1
1.301368641E1,5.097286701E-1,2.172738314E0,9.451551437E-1
1.303397589E1,1.725727171E-1,3.458112180E-1,7.342329621E-1
1.305422553E1,-1.948100924E-1,-1.411474347E0,3.502054140E-2
1.307433480E1,-6.218476593E-2,-1.246358514E0,-8.877640963E-1
1.309473694E1,-2.725743353E-1,-8.257125020E-1,-1.231711030E0
1.311487168E1,-5.243760347E-1,-1.125584245E0,-1.282843709E0
1.313513803E1,-6.277065873E-1,-1.539838552E0,-1.527321696E0
1.315553944E1,-8.205193281E-1,-8.853672147E-1,-1.115064740E0
1.317567261E1,-1.247024298E0,-8.267777562E-1,-6.986798048E-1
1.319607365E1,-1.974466205E0,-7.106640339E-1,-9.468862414E-1
1.321620761E1,-2.863694906E0,8.665919900E-1,-1.279115319E0
1.323647485E1,-2.139448881E0,2.148769855E0,-1.059804201E0
1.325674188E1,-8.599340916E-1,1.850096583E0,-5.118591785E-1
1.327700845E1,-1.170857906E0,8.271772265E-1,-3.041327596E-1
1.329740891E1,-1.642103910E0,1.615206003E-1,-5.793702602E-1
1.331754235E1,-1.498426437E0,-3.869570196E-1,-8.584693074E-1
1.333780918E1,-1.090430498E0,-6.261087060E-1,-1.070456743E0
1.335807595E1,-7.827024460E-1,-8.134619594E-1,-1.155544758E0
1.337834251E1,-6.069339514E-1,-8.752472401E-1,-1.039564133E0
1.339874266E1,-6.410223842E-1,-8.251798749E-1,-8.137282729E-1
1.341887579E1,-9.627320170E-1,-3.331612051E-1,-7.183871865E-1
1.343914303E1,-1.209207416E0,1.588574350E-1,-7.727156281E-1
1.345940964E1,-1.130910516E0,4.426170290E-1,-7.141261101E-1
1.347967615E1,-1.027047276E0,4.990760088E-1,-5.815007687E-1
1.349994277E1,-1.359409571E0,8.458193541E-1,-4.191812575E-1
1.352020928E1,-1.594166994E0,1.299488425E0,-2.364885211E-1
1.354047584E1,-4.115912318E-1,1.563540697E0,-4.474107325E-1
1.356074240E1,1.199220538E0,3.628554344E-1,-7.210503221E-1
1.358100897E1,1.209873199E0,-8.438219428E-1,-7.167892456E-1
1.360127553E1,4.117243886E-1,-1.457813263E0,-4.037349224E-1
1.362154209E1,1.608548164E-1,-1.383244872E0,1.229047924E-1
1.364180865E1,3.898864985E-1,-9.840372950E-2,6.735129356E-1
1.366207522E1,1.479384899E0,1.060336828E0,1.216664195E0
1.368234178E1,3.294061422E0,-2.671148479E-1,1.634647012E0
1.370260829E1,3.047586203E0,-1.653289199E0,1.938247204E0
1.372287490E1,2.061950922E0,-1.565937519E0,2.195907831E0
1.374314136E1,1.684847593E0,-1.723596573E0,2.464886904E0
1.376354136E1,1.761546612E0,-1.470596433E0,2.755570650E0
1.378383246E1,2.036917210E0,-8.038745522E-1,2.677407026E0
1.380409907E1,2.095506668E0,4.314317703E-1,2.375937462E0
1.382420834E1,1.528386950E0,1.292031646E0,2.002162933E0
1.384447475E1,5.848297477E-1,8.314382434E-1,1.735314488E0
1.386474115E1,6.977476925E-2,1.141163707E-1,1.485110641E0
1.388514115E1,-1.665806025E-1,-3.688475490E-1,1.333843231E0
1.390527412E1,-3.625891209E-1,-7.468829751E-1,1.260340095E0
1.392553089E1,-2.150501013E-1,-1.144226313E0,1.113866329E0
1.394580376E1,-3.448791057E-2,-1.279381633E0,9.179909229E-1
1.396607089E1,-2.267680019E-1,-1.269794226E0,7.368960977E-1
1.398633798E1,-5.739107728E-1,-1.044091582E0,5.255744457E-1
1.400660496E1,-8.375635147E-1,-5.052012801E-1,3.077280223E-1
1.402687173E1,-1.013332009E0,4.434159771E-2,-3.568633273E-2
1.404713860E1,-1.242763162E0,1.332911104E-1,-5.857618451E-1
1.406740527E1,-1.628255486E0,-3.976096511E-1,-1.052347302E0
1.408767204E1,-7.182540298E-1,-1.866741419E0,-1.212003708E0
1.410793876E1,1.355281711E0,-4.747613907E0,-5.320991874E-1
1.412820532E1,-6.681866050E-1,-3.233741045E0,4.542017877E-1
1.414847194E1,-6.362286806E-1,7.499455810E-1,-8.468846232E-2
1.416873855E1,-5.083971024E-1,3.804322720E0,-6.924213469E-2
1.418900516E1,-5.733781457E-1,5.267595768E0,7.874961495E-1
1.420927173E1,3.941475451E-1,4.392747879E0,1.268329501E0
1.422953834E1,2.274870396E0,5.773729086E-1,1.788311303E-1
1.424980485E1,6.970819235E-1,-3.218827248E0,-5.953491926E-1
1.427019016E1,-1.703090221E-1,-1.744369268E0,-1.397892237E0
1.429033798E1,8.575372398E-2,-1.180977941E0,-1.823864460E0
1.431060454E1,-2.502037883E-1,-1.613341808E0,-1.941043496E0
1.433087110E1,-1.224653721E0,-1.811347723E0,-1.583248138E0
1.435113761E1,-1.753956556E0,-1.536110163E0,-1.221058488E0
1.437140418E1,-1.577122808E0,-1.012666225E0,-1.108673096E0
1.439167069E1,-1.229979992E0,-2.916159332E-1,-9.527451396E-1
1.441193720E1,-1.582981825E0,2.280862570E0,-9.175914526E-1
1.443233720E1,-2.240116358E0,4.912995815E0,-9.309072495E-1
1.445247027E1,-2.168210983E0,4.196739197E0,-6.763092279E-1
1.447273683E1,-2.043708324E0,2.130127907E0,-5.399554968E-1
1.449300334E1,-1.792838693E0,5.203812718E-1,-6.464818716E-1
1.451326985E1,-8.439550996E-1,2.174469382E-1,-8.653935790E-1
1.453367782E1,-3.854922652E-1,-1.813611388E-1,-8.717851043E-1
1.455396725E1,-2.587259114E-1,-3.241064548E-1,-8.462188244E-1
1.457423251E1,-1.719069183E-1,-2.431464195E-1,-9.191893935E-1
1.459449813E1,-2.502037883E-1,4.159854650E-1,-9.298419952E-1
1.461474813E1,-6.133255363E-1,1.525191188E0,-7.412903309E-1
1.463485985E1,-9.819067717E-1,1.816008210E0,-5.294360518E-1
1.465512829E1,-9.701888561E-1,1.071522117E0,-4.644549489E-1
1.467539464E1,-6.607297659E-1,7.142592669E-1,-5.761744976E-1
1.469579621E1,-5.099949613E-2,1.035303116E0,-6.763092279E-1
1.471593048E1,8.680567145E-1,5.336970687E-1,-7.471492887E-1
1.473619787E1,1.228515267E0,-5.717802644E-1,-8.211851120E-1
1.475646511E1,9.325051308E-1,-1.300686955E0,-6.603302956E-1
1.477673157E1,6.608629227E-1,-1.096822023E0,6.591318548E-2
1.479713220E1,1.034770489E0,5.992107987E-1,1.226251602E0
1.481726568E1,3.279813528E0,9.506146312E-1,2.182592154E0
1.483753261E1,3.791007042E0,-1.349689007E0,2.897250891E0
1.485779944E1,2.788194418E0,-2.155960560E0,3.129478216E0
1.487806621E1,1.685380220E0,-2.260356188E0,2.980341434E0
1.489833287E1,1.305746913E0,-2.621347427E0,3.001113892E0
1.491859938E1,1.925597191E0,-2.309225321E0,2.973949671E0
1.493886673E1,2.531599045E0,-1.755021811E-1,2.554901600E0
1.495913318E1,1.506016493E0,3.403384209E0,1.935584068E0
1.497939970E1,-4.472775757E-1,4.108988285E0,1.594832778E0
1.499966621E1,-1.476055980E0,2.014014006E0,1.567135930E0
1.501993266E1,-1.222523212E0,-4.695149362E-1,1.473392725E0
1.504019918E1,-2.661827505E-1,-2.317214727E0,1.203348398E0
1.506059918E1,1.771000773E-2,-2.787528515E0,7.619298100E-1
1.508073220E1,-4.902876019E-1,-2.628804445E0,3.876228034E-1
1.510099871E1,-1.095756769E0,-2.090446711E0,2.379532605E-1
1.512126522E1,-1.333310604E0,-1.232510090E0,1.394163817E-1
1.514153173E1,-1.242230535E0,-1.064331532E0,-2.311622053E-1
1.516179818E1,-1.252883196E0,-8.752472401E-1,-8.829703927E-1
1.518206470E1,-1.784849286E0,-5.451486707E-1,-1.327584863E0
1.520233121E1,4.793686271E-1,-4.222039223E0,-1.379782677E0
1.522259766E1,-8.141277432E-1,-4.228430748E0,-6.811029315E-1
1.524286418E1,-1.188434720E0,2.147171974E0,-2.604569495E-1
1.526326418E1,5.699160323E-2,4.542950153E0,2.086585164E-1
1.528355511E1,1.859018207E0,7.461505890E0,1.270992637E0
1.530382168E1,4.830970466E-1,2.698312759E0,1.142095804E0
1.532408818E1,1.933453530E-1,-6.175866127E-1,2.731069624E-1
1.534419740E1,3.584612012E-1,-1.755021811E-1,-6.736460924E-1
1.536446371E1,2.087916732E-1,-2.969422340E-1,-1.658216000E0
1.538486371E1,-3.050648868E-1,-5.877591968E-1,-2.094974041E0
1.540499652E1,-8.407593369E-1,-3.693801761E-1,-1.539572239E0
1.542524959E1,-8.615319729E-1,-9.641967416E-1,-1.395229101E0
1.544552470E1,-7.076013684E-1,-4.439486265E-1,-1.444763780E0
1.546579199E1,-7.582014203E-1,1.221724272E0,-1.420795441E0
1.548605923E1,-7.864308953E-1,2.846384525E0,-1.440502763E0
1.550632621E1,-6.090644598E-1,3.204179764E0,-1.657150745E0
1.552659319E1,-6.905571818E-1,2.219609976E0,-1.883519292E0
1.554685996E1,-1.146356821E0,1.731053460E-3,-1.925597191E0
1.556712678E1,-1.642636538E0,-1.536642790E0,-1.832919240E0
1.558739345E1,-2.463821650E0,-6.570013762E-1,-1.418132186E0
1.560766011E1,-2.528802633E0,9.772462249E-1,-7.711177468E-1
1.562792678E1,-1.775794506E0,2.187119484E0,-3.621896505E-1
1.564819334E1,-1.268329501E0,3.744668007E0,2.059953511E-1
1.566845985E1,-1.203881025E0,4.452935219E0,3.673827946E-1
1.568872647E1,-1.112268448E0,2.895386457E0,1.399490088E-1
1.570899298E1,-4.371575713E-1,5.736444592E-1,-3.536675274E-1
1.572925949E1,4.783033729E-1,-6.761760712E-1,-9.937578440E-1
1.574952600E1,8.552735448E-1,-7.575356364E-1,-1.261005878E0
1.576979256E1,8.419577479E-1,-4.109254479E-1,-1.074717879E0
1.579005902E1,7.343661189E-1,-4.833633900E-1,-8.281093240E-1
1.581032548E1,5.422192216E-1,-9.823062420E-1,-5.900229216E-1
1.583059199E1,2.343579978E-1,-1.842240334E0,-2.471411675E-1
1.585085845E1,9.534109384E-2,-1.367798567E0,5.314334035E-1
1.587112496E1,1.167262673E0,1.194426864E-1,1.229447365E0
1.589139141E1,2.932004929E0,-3.507380486E-1,1.922268271E0
1.591165787E1,3.163699865E0,-1.335840583E0,2.682200670E0
1.593205792E1,2.375537872E0,-1.182575822E0,3.030941486E0
1.595219084E1,2.061418295E0,-1.741706014E0,3.250252485E0
1.597259084E1,2.296708345E0,-2.961033344E0,3.266764164E0
1.599272376E1,2.521479130E0,-2.886997700E0,3.000581264E0
1.601299022E1,2.412289619E0,-1.503619671E0,2.490985870E0
1.603325673E1,1.701359153E0,1.378850579E0,2.122005224E0
1.605366464E1,6.134586930E-1,3.072220325E0,1.876461864E0
1.607395391E1,-6.649908423E-1,2.018275023E0,1.741173387E0
1.609420345E1,-1.330114841E0,6.801708341E-1,1.541569591E0
1.611431480E1,-1.092561007E0,-5.787044764E-1,1.286971688E0
1.613458272E1,-3.817638457E-1,-1.787911892E0,1.106409431E0
1.615485042E1,-1.436774284E-1,-2.335856915E0,7.267761230E-1
1.617511678E1,-3.482080400E-1,-1.979659319E0,3.402185738E-1
1.619551787E1,-6.468813419E-1,-1.095224142E0,-8.096003532E-2
1.621565157E1,-9.329046607E-1,-7.042724490E-1,-7.295724154E-1
1.623591876E1,-1.075516820E0,-3.315632939E-1,-1.363271117E0
1.625618569E1,-6.388918757E-1,-1.246891141E0,-1.877127647E0
1.627645209E1,1.186437368E0,-4.994621754E0,-1.479917526E0
1.629685256E1,-1.508013844E0,-3.743869066E0,-5.038697124E-1
1.631698579E1,-1.104811549E0,1.145025253E0,-2.913496196E-1
1.633725251E1,3.334275186E-1,3.852792263E0,-3.462106735E-2
1.635751907E1,1.702957034E0,8.854604721E0,6.894918680E-1
1.637778553E1,-3.125217259E-1,4.007255554E0,6.884266138E-1
1.639819371E1,1.193095297E-1,-8.054724932E-1,-3.962780833E-1
1.641848454E1,4.937497079E-1,-1.328916430E0,-8.510124683E-1
1.643858605E1,4.772381186E-1,-1.649028063E0,-1.438904881E0
1.645885246E1,2.263685223E-3,-2.828008652E0,-1.834517121E0
1.647911886E1,-8.972182870E-1,-3.622961760E0,-1.557681799E0
1.649938522E1,-1.380182147E0,-3.137867212E0,-1.492168069E0
1.651965162E1,-1.380182147E0,-2.009486675E0,-1.394696474E0
1.653991808E1,-1.451022267E0,-3.257043660E-1,-1.053412557E0
1.656018449E1,-1.701758623E0,2.139182568E0,-7.370292544E-1
1.658051652E1,-2.132524729E0,4.416183472E0,-7.839008570E-1
1.660091652E1,-1.943040848E0,4.378366947E0,-9.980188608E-1
1.662098376E1,-1.389236927E0,3.033338308E0,-1.080976248E0
1.664125016E1,-1.257676840E0,1.358610630E0,-1.115064740E0
1.666151668E1,-1.628255486E0,1.002679393E-1,-1.175252080E0
1.668178303E1,-1.544765472E0,-5.334307551E-1,-1.141696334E0
1.670204949E1,-9.462204576E-1,-8.189214021E-2,-1.074717879E0
1.672231595E1,-7.294392586E-1,1.542235494E0,-8.558061719E-1
1.674258235E1,-1.054744124E0,2.471012115E0,-8.089345694E-1
1.676284881E1,-8.066709042E-1,1.547561765E0,-9.202546477E-1
1.678311522E1,-1.948100924E-1,5.709813237E-1,-1.016128302E0
1.680351522E1,1.560611278E-1,6.913561225E-1,-1.082574129E0
1.682380605E1,5.906887054E-1,9.108003974E-1,-8.664588332E-1
1.684407256E1,9.799094200E-1,2.430132627E-1,-5.777723789E-1
1.686418173E1,7.503450513E-1,-3.012032807E-1,-5.633913279E-1
1.688458173E1,2.705769539E-1,-6.920219064E-1,-3.067959249E-1
1.690471444E1,1.102547869E-1,-2.186453640E-1,4.126565158E-1
1.692498068E1,1.843039274E0,1.336772680E0,1.277384281E0
1.694524709E1,3.504983664E0,-5.121254921E-1,2.161286831E0
1.696551350E1,3.032139778E0,-2.076065779E0,2.962764502E0
1.698591350E1,2.157824755E0,-1.783118129E0,3.024549723E0
1.700604626E1,1.490570188E0,-1.696432352E0,3.167295218E0
1.702631266E1,1.558214426E0,-2.284324646E0,3.430282116E0
1.704657902E1,2.092843533E0,-1.895503521E0,3.476621151E0
1.706684542E1,2.118942499E0,5.816339254E-1,3.213101387E0
1.708710865E1,1.413338542E0,3.137068272E0,2.631067991E0
1.710737714E1,3.840275407E-1,2.748380184E0,1.961683035E0
1.712764371E1,-1.996037811E-1,1.426787496E0,1.652756572E0
1.714791037E1,-5.254412889E-1,2.836264484E-2,1.473925352E0
1.716817688E1,-5.797697306E-1,-1.121323109E0,1.200152636E0
1.718844345E1,-3.274354041E-1,-2.095772982E0,9.057404399E-1
1.720870990E1,-3.199785650E-1,-2.654903412E0,5.739107728E-1
1.722898433E1,-6.559360623E-1,-2.488189459E0,2.571280003E-1
1.724930063E1,-9.888309836E-1,-1.636777639E0,9.041424841E-2
1.726929225E1,-1.093093634E0,-8.102661371E-1,-2.503369451E-1
1.728970647E1,-1.309874773E0,-7.554050684E-1,-9.953557253E-1
1.731003730E1,-1.839177728E0,-5.270391703E-1,-1.593368053E0
1.733030475E1,-4.547344148E-1,-1.885383487E0,-1.599227071E0
1.735057199E1,6.741787195E-1,-5.034036636E0,-7.492797971E-1
1.737083902E1,-1.365268469E0,-2.060619354E0,3.588607013E-1
1.739110600E1,-2.347574681E-1,2.104028940E0,-2.652506530E-1
1.741137235E1,2.844253778E-1,3.738809109E0,-9.001477808E-2
1.743177282E1,3.845601678E-1,4.588223457E0,1.000016212E0
1.745190600E1,1.593368053E0,3.322424173E0,8.977509141E-1
1.747217272E1,6.848313808E-1,-1.057940006E0,2.709764242E-1
1.749243938E1,6.736460924E-1,-7.894935012E-1,-6.901576519E-1
1.751270595E1,3.201117218E-1,2.904174924E-1,-1.174186826E0
1.753297256E1,-2.912164330E-1,-3.001380265E-1,-1.582715511E0
1.755323897E1,-8.657930493E-1,-3.826959729E-1,-1.434643865E0
1.757362412E1,-9.440898895E-1,-4.061317742E-1,-1.274321675E0
1.759377240E1,-9.595362544E-1,-4.913528562E-1,-1.218927979E0
1.761403881E1,-1.013332009E0,-5.387570858E-1,-1.208807945E0
1.763430527E1,-1.175651550E0,-3.022685647E-2,-1.340900660E0
1.765457168E1,-2.119208813E0,2.354365826E0,-1.589639664E0
1.767483813E1,-2.901511908E0,4.769185543E0,-1.675260186E0
1.769510459E1,-2.077796698E0,3.916175365E0,-1.383511186E0
1.771537100E1,-1.010668874E0,1.862347126E0,-1.257809997E0
1.773563746E1,-9.046751261E-1,1.109871507E0,-1.307877421E0
1.775590386E1,-1.099485278E0,1.119458914E0,-1.160871029E0
1.777617032E1,-7.145255804E-1,4.862928391E-1,-6.683197618E-1
1.779643678E1,-2.443448454E-1,3.585943878E-1,-4.420844018E-1
1.781670318E1,-1.276984811E-1,1.097088337E0,-2.668485343E-1
1.783696964E1,-2.890859246E-1,2.156226873E0,-9.853688627E-2
1.785723610E1,-2.384859025E-1,2.481664896E0,-1.709748209E-1
1.787750251E1,1.635179669E-1,1.964612484E0,-4.958802164E-1
1.789776902E1,4.964128435E-1,9.357009530E-1,-7.311703563E-1
1.791803548E1,3.318296373E-1,-1.813611388E-1,-8.542082906E-1
1.793830188E1,-7.816372067E-2,-8.251798749E-1,-7.924230099E-1
1.795856834E1,-1.548627019E-1,-7.367629409E-1,-6.209155321E-1
1.797883480E1,-1.553953290E-1,1.700427085E-1,-3.760380745E-1
1.799910126E1,3.440801501E-1,1.586443901E0,3.348922431E-1
1.801936772E1,2.492717028E0,2.037982464E0,1.347159028E0
1.803963418E1,3.314301491E0,-9.407609701E-1,2.119342089E0
1.805990063E1,3.241996765E0,-2.610162258E0,2.541053295E0
1.808016709E1,2.847316504E0,-2.678871632E0,2.923882484E0
1.810043355E1,2.088582516E0,-2.103762627E0,3.144392014E0
1.812070001E1,1.727458119E0,-1.892840385E0,3.120956182E0
1.814096647E1,1.773797154E0,-1.893905640E0,2.940926552E0
1.816123292E1,1.625858665E0,-1.547828078E0,2.495779514E0
1.818149938E1,1.118926287E0,-3.933486044E-1,2.020805120E0
1.820176589E1,4.585959911E-1,1.131176829E0,1.598028660E0
1.822203235E1,-5.781718493E-1,1.035303116E0,1.530917048E0
1.824229881E1,-1.261405349E0,3.978759646E-1,1.457946420E0
1.826256532E1,-1.505350709E0,-4.306328297E-1,1.326919079E0
1.828283178E1,-1.858352423E0,-1.653289199E0,1.251285315E0
1.830309824E1,-1.127182126E0,-2.145840406E0,9.914941192E-1
1.832336475E1,-4.988096952E-1,-2.209756374E0,4.973449707E-1
1.834363121E1,-3.828291297E-1,-1.892307758E0,1.426121742E-1
1.836389772E1,-6.846982241E-1,-1.369929075E0,-4.793686271E-1
1.838416418E1,-1.137302041E0,-1.147954702E0,-9.820399284E-1
1.840443068E1,-1.464338064E0,-7.932219505E-1,-1.274854302E0
1.842469720E1,-1.434510708E0,-4.322307110E-1,-1.617203355E0
1.844496371E1,6.657897681E-2,-1.435975432E0,-1.501755476E0
1.846523016E1,-6.266413331E-1,-3.657050133E0,-1.151816368E0
1.848549668E1,-7.587340474E-1,-1.370994329E0,-5.241097212E-1
1.850576319E1,5.901560783E-1,2.697247505E0,4.403533638E-1
1.852602964E1,1.184839487E0,9.510141373E0,8.418245912E-1
1.854629615E1,-6.133255363E-1,2.705769539E0,4.776375890E-1
1.856656266E1,4.942823350E-1,-1.790575027E0,-2.050632536E-1
1.858682918E1,1.097621083E0,-2.180994034E0,-5.219792128E-1
1.860709568E1,1.002812505E0,-2.110686779E0,-1.143294215E0
1.862736220E1,3.137201369E-1,-2.694318056E0,-1.554485917E0
1.864762871E1,-6.735129356E-1,-2.635195971E0,-1.345694304E0
1.866789527E1,-1.096289396E0,-1.819869757E0,-1.233841658E0
1.868816178E1,-1.050483108E0,-6.809697747E-1,-9.958883524E-1
1.870842829E1,-1.085636854E0,6.364950538E-1,-7.194524407E-1
1.872869480E1,-1.176716805E0,1.771799803E0,-4.916191697E-1
1.874896131E1,-1.243828416E0,2.594449520E0,-4.628570378E-1
1.876922782E1,-1.226784229E0,2.911365509E0,-7.125282288E-1
1.878949433E1,-1.077114701E0,2.373008013E0,-1.080443621E0
1.880976089E1,-1.290167451E0,1.214800000E0,-1.313736439E0
1.883016089E1,-1.799230337E0,8.002793044E-2,-1.395761728E0
1.885029386E1,-1.729455471E0,-6.692518592E-1,-1.239700556E0
1.887056042E1,-1.178847432E0,-4.844286442E-1,-1.091628909E0
1.889082694E1,-6.026729345E-1,4.186486006E-1,-8.941556811E-1
1.891109350E1,-3.316964805E-1,9.948230982E-1,-6.534060836E-1
1.893136001E1,-1.857553422E-1,1.052879930E0,-4.628570378E-1
1.895162652E1,7.456845790E-2,9.804420471E-1,-3.925496638E-1
1.897189308E1,3.595264852E-1,7.206508517E-1,-5.745765567E-1
1.899215959E1,4.804339111E-1,3.767038584E-1,-7.008103132E-1
1.901242610E1,4.932170510E-1,2.648511827E-1,-6.390250325E-1
1.903269266E1,6.981471777E-1,7.835013866E-1,-3.414169848E-1
1.905295918E1,1.642370224E0,1.984852433E0,2.597911656E-1
1.907322574E1,2.653571844E0,7.414234877E-1,8.972182870E-1
1.909349225E1,3.440002680E0,-1.209207416E0,1.728922844E0
1.911375876E1,3.877160072E0,-3.040395498E0,2.408427954E0
1.913402532E1,3.720166922E0,-4.557996750E0,3.070356131E0
1.915429188E1,2.908569098E0,-5.287569046E0,3.505915880E0
1.917455839E1,2.327600956E0,-5.165063858E0,3.345593691E0
1.919482496E1,1.858485579E0,-4.093142509E0,2.655036449E0
1.921509152E1,1.067793608E0,-1.865676165E0,2.035186291E0
1.923535803E1,3.201117218E-1,4.191812575E-1,1.865809321E0
1.925562459E1,-3.130543530E-1,6.364950538E-1,1.970737696E0
1.927589105E1,-1.040895700E0,-1.372858584E-1,2.052762985E0
1.929615766E1,-1.212403178E0,-3.257043660E-1,1.666072369E0
1.931642423E1,-1.248089552E0,-4.577970505E-1,1.347159028E0
1.933669074E1,-1.358344316E0,-7.852324843E-1,1.241697907E0
1.935695730E1,-1.728390217E0,-1.895503521E0,1.141030550E0
1.937722386E1,-1.843971372E0,-3.051048279E0,8.918919563E-1
1.939749037E1,-1.182575822E0,-3.756119490E0,3.194459379E-1
1.941775694E1,-7.166560888E-1,-3.929091692E0,-2.545980215E-1
1.943802350E1,-8.056056499E-1,-3.473292112E0,-5.862944722E-1
1.945829006E1,-1.137302041E0,-2.450372696E0,-7.530082464E-1
1.947855662E1,-1.180445313E0,-1.377385855E0,-7.977492809E-1
1.949882313E1,-5.797697306E-1,-1.068059921E0,-3.483411968E-1
1.951908970E1,-5.781718493E-1,-1.005209446E0,4.886896908E-2
1.953935626E1,-4.350270331E-1,9.707214683E-2,3.167827725E-1
1.955975626E1,-1.356879622E-1,2.463422157E-2,1.122521535E-1
1.958004772E1,-2.170474641E-2,-4.599275887E-1,-2.119874656E-1
1.960015595E1,2.194443047E-1,-7.511440516E-1,-3.030675054E-1
1.962042251E1,6.443513632E-1,-1.284707904E0,-2.508696020E-1
1.964068902E1,-1.921469271E-1,-9.088030457E-1,-5.399554968E-1
1.966095558E1,-2.123469830E0,4.597811222E0,-1.176849961E0
1.968122214E1,-1.142095804E0,3.539205313E0,-8.291745782E-1
1.970148871E1,2.037316747E-2,-4.631233811E-1,-2.743053734E-1
1.972175527E1,7.428882122E-1,-2.973284006E0,-1.704421826E-2
1.974202183E1,6.736460924E-1,-4.022834778E0,2.649843320E-2
1.976228839E1,4.079959691E-1,-3.579285860E0,-3.025348783E-1
1.978255496E1,-1.543300748E-1,-2.686861277E0,-4.894886315E-1
1.980282152E1,-7.123950720E-1,-1.901895046E0,-5.857618451E-1
1.982308808E1,-1.151150465E0,-1.236238480E0,-7.002776861E-1
1.984335464E1,-1.350887418E0,-8.214514256E-1,-7.253113985E-1
1.986362121E1,-1.340767503E0,-8.496809006E-1,-6.534060836E-1
1.988388777E1,-1.725194454E0,1.386174262E-1,-6.896250248E-1
1.990415433E1,-1.897234559E0,2.025199413E0,-9.058735967E-1
1.992442089E1,-7.283740044E-1,1.236637950E0,-9.804420471E-1
1.994468746E1,-3.609912097E-1,-1.368863821E0,-1.011334658E0
1.996495402E1,-7.257108688E-1,-2.211354256E0,-1.084704757E0
1.998522058E1,-9.105340838E-1,-9.860346317E-1,-9.958883524E-1
2.000548709E1,-9.685909748E-1,1.972069293E-1,-9.926925302E-1
2.002575371E1,-9.408941269E-1,7.736477256E-2,-9.255809188E-1
2.004602027E1,-1.020256281E0,-5.771065950E-1,-7.269092798E-1
2.006628683E1,-1.208674788E0,-5.387570858E-1,-5.543365479E-1
2.008655339E1,-7.731150985E-1,5.475454926E-1,-5.017392039E-1
2.010681996E1,3.057306707E-1,1.118393660E0,-4.777707458E-1
2.012708652E1,6.161218882E-1,6.247771382E-1,-7.114629745E-1
2.014735313E1,5.912213326E-1,1.769669205E-1,-9.596694112E-1
2.016761970E1,4.921517968E-1,1.870869249E-1,-8.355661631E-1
2.018788626E1,4.005391300E-1,4.700475931E-2,-4.223770201E-1
2.020815282E1,7.396924496E-1,-4.791023135E-1,-9.321057051E-2
2.022841938E1,1.147022605E0,-1.288436413E0,5.952160433E-2
2.024868199E1,1.160871029E0,-9.583377838E-1,1.388837546E-1
2.026891407E1,1.512940645E0,-1.723063886E-1,5.765739679E-1
2.028921964E1,1.417066932E0,-5.462139249E-1,1.363137960E0
2.030948615E1,1.057140946E0,-6.904240251E-1,1.925464034E0
2.032975261E1,8.803072572E-1,-8.411588073E-1,2.409493208E0
2.035001907E1,9.617999196E-1,-1.098952651E0,2.582065821E0
2.037028558E1,1.067793608E0,-7.543398142E-1,2.330663681E0
2.039055214E1,9.783114791E-1,-4.332959950E-1,2.079927206E0
2.041081865E1,7.103977203E-1,-5.435507894E-1,2.039447308E0
2.043108522E1,3.233075142E-1,-8.496809006E-1,1.990977764E0
2.045135178E1,9.187898599E-3,-8.464851379E-1,1.805621862E0
2.047175173E1,-1.958753467E-1,-5.643234253E-1,1.541569591E0
2.049188485E1,-3.545996249E-1,-5.243760347E-1,1.349822164E0
2.051215136E1,-4.584628344E-1,-6.058686972E-1,1.138367414E0
2.053241798E1,-4.982770681E-1,-1.208142161E0,9.606015086E-1
2.055268454E1,-4.020038545E-1,-1.872067690E0,8.945551515E-1
2.057295110E1,-2.603237927E-1,-2.008421421E0,8.737825155E-1
2.059321761E1,-1.122521535E-1,-2.021737337E0,8.151929975E-1
2.061348418E1,-8.349003643E-2,-1.675127029E0,6.559360623E-1
2.063375074E1,-2.661827505E-1,-1.364070058E0,3.961449265E-1
2.065401730E1,-5.185170770E-1,-1.343830109E0,1.511342824E-1
2.067428386E1,-6.223802567E-1,-1.084038854E0,4.194475710E-2
2.069455043E1,-6.484792233E-1,-8.502135277E-1,-1.012000442E-1
2.071481699E1,-7.017424107E-1,-8.699209094E-1,-3.451454341E-1
2.073508355E1,-7.038729787E-1,-9.631314874E-1,-5.601955056E-1
2.075535011E1,-6.197171211E-1,-1.414137483E0,-7.056040168E-1
2.077561668E1,1.930790395E-2,-2.466351748E0,-7.929556370E-1
2.079588329E1,6.321008205E-1,-2.323606253E0,-2.151832581E-1
2.081614985E1,2.295643091E-1,-1.178847432E0,3.146522343E-1
2.083641641E1,-2.703106403E-2,1.870869249E-1,3.711112142E-1
2.085668298E1,1.565937549E-1,1.448092818E0,4.632565379E-1
2.087694954E1,1.949432492E-1,1.559279680E0,5.282375813E-1
2.089721610E1,4.063980877E-1,1.003877878E0,4.344944060E-1
2.091748266E1,7.977492809E-1,1.790441871E0,1.026647836E-1
2.093774923E1,2.068342447E0,2.868222237E0,4.057323039E-1
2.095801579E1,-5.739107728E-2,-4.732433856E-1,-2.098569423E-1
2.097828235E1,-2.704437971E-1,-1.588840723E0,-1.216797352E0
2.099854891E1,9.001477808E-2,-1.971137166E0,-1.414936423E0
2.101881548E1,1.294295341E-1,-1.340634346E0,-1.382978559E0
2.103908204E1,-3.514038324E-1,-9.588704109E-1,-1.335041642E0
2.105934860E1,-9.851025343E-1,-1.100017905E0,-1.159273148E0
2.107968188E1,-1.154878974E0,-6.687192321E-1,-1.011867285E0
2.110008188E1,-1.082440972E0,3.795001656E-2,-9.303746223E-1
2.112014829E1,-1.821068168E0,3.145590305E0,-9.490167499E-1
2.114041490E1,-2.383926868E0,5.652688503E0,-1.093759418E0
2.116068147E1,-2.019207239E0,4.521644592E0,-8.723177910E-1
2.118094803E1,-1.397226453E0,1.813877702E0,-9.005472660E-1
2.120121459E1,-3.625891209E-1,-9.183903933E-1,-9.655283093E-1
2.122148115E1,-8.402267098E-2,-2.072869778E0,-8.249135613E-1
2.124174772E1,-6.431528926E-2,-2.082457304E0,-7.615303397E-1
2.126201428E1,-1.996037811E-1,-1.795368671E0,-7.040061355E-1
2.128228084E1,-7.118624449E-1,-1.318796396E0,-6.443513632E-1
2.130254740E1,-1.306679010E0,-6.090644598E-1,-5.852292180E-1
2.132281402E1,-1.151683211E0,4.404865205E-1,-4.101265073E-1
2.134308058E1,-1.127847880E-1,8.804404140E-1,-9.161267430E-2
2.136334714E1,2.418148518E-1,-3.304980397E-1,2.523343265E-1
2.138361371E1,3.281011879E-1,-4.071970284E-1,1.559279710E-1
2.140388027E1,4.585959911E-1,2.813627720E-1,-6.924213469E-2
2.142414683E1,6.496776342E-1,5.651223660E-1,-2.130527347E-1
2.144441339E1,7.679219246E-1,-2.404832691E-1,-2.263685167E-1
2.146467996E1,5.619265437E-1,-1.631983876E0,6.538055837E-2
2.148494652E1,-7.323687430E-3,-1.812945604E0,8.274435401E-1
2.150521308E1,6.187850237E-1,1.079511523E0,1.592702270E0
2.152547964E1,2.809499741E0,1.888446093E0,1.430249572E0
2.154574621E1,2.708432913E0,-3.028011918E-1,1.354083300E0
2.156601277E1,2.324937820E0,-1.913612962E0,8.322372437E-1
2.158627933E1,2.169009924E0,-1.795901299E0,3.024017215E-1
2.160654589E1,1.822799206E0,-1.265533209E0,6.005423889E-2
2.162681246E1,1.573660731E0,-1.200685263E0,9.321057005E-4
2.164707897E1,1.598161817E0,-1.365667939E0,-1.241032109E-1
2.166734553E1,1.619999647E0,-1.610146046E0,-2.476737946E-1
2.168761209E1,1.415469050E0,-1.618135452E0,-2.034653574E-1
2.170787865E1,1.191231012E0,-1.267131090E0,-4.261054471E-2
2.172814522E1,1.061402082E0,-9.673925638E-1,5.685844645E-2
2.174841178E1,9.085367322E-1,-7.889608741E-1,1.127847880E-1
2.176867834E1,6.555365920E-1,-4.854938984E-1,1.388837546E-1
2.178894490E1,3.254380524E-1,-1.749695539E-1,3.821633384E-2
2.180921147E1,-7.856319658E-3,3.861580743E-3,-1.555284858E-1
2.182947798E1,-2.241048366E-1,5.339634046E-2,-3.014696240E-1
2.184974454E1,-2.480732650E-1,-1.122521535E-1,-3.190464675E-1
2.187001110E1,-3.555317223E-2,-5.350286365E-1,-2.657832801E-1
2.189027766E1,4.860265180E-2,-9.295756817E-1,-1.864211410E-1
2.191054423E1,-1.015995219E-1,-5.904223919E-1,-9.161267430E-2
2.193081079E1,-2.443448454E-1,3.410175145E-1,4.301001877E-2
2.195107730E1,-2.965427637E-1,1.054477811E0,1.607216448E-1
2.197134386E1,-2.997385561E-1,1.239833713E0,2.257027328E-1
2.199161042E1,-2.145174593E-1,1.280313730E0,2.592585385E-1
2.201187699E1,-2.063948289E-2,1.129046321E0,2.613890767E-1
2.203214355E1,1.581916511E-1,8.586025238E-1,2.555301189E-1
2.205241011E1,1.619200706E-1,6.354297400E-1,4.259723127E-1
2.207267662E1,-6.591318548E-2,5.768402815E-1,6.511424184E-1
2.209294319E1,-2.464753687E-1,6.034718752E-1,6.564686894E-1
2.211320975E1,-2.203764170E-1,5.832318664E-1,5.605949759E-1
2.213347631E1,-1.484711170E-1,4.932170510E-1,4.222438633E-1
2.215374282E1,-1.181111038E-1,3.884217441E-1,3.966775537E-1
2.217400938E1,-1.170458421E-1,3.138532937E-1,3.870901763E-1
2.219427595E1,-1.740374416E-1,1.593900770E-1,3.700459599E-1
2.221454251E1,-2.193111479E-1,5.765739456E-2,3.274354041E-1
2.223480902E1,-3.545996249E-1,4.234423041E-1,2.624543309E-1
2.225507558E1,-8.343677521E-1,3.936149180E-1,4.435491562E-1
2.227534214E1,6.657897681E-2,9.281109273E-2,8.173235059E-1
2.229574214E1,7.242461443E-1,2.936132848E-1,5.478118062E-1
2.231587522E1,-3.551322520E-1,5.358276367E-1,-6.113281846E-1
2.233614178E1,-3.253048956E-1,-2.154495716E-1,-8.366314173E-1
2.235640829E1,-4.190480709E-1,9.707214683E-2,-8.845682740E-1
2.237667485E1,-1.147954702E0,9.319725037E-1,-7.934882641E-1
2.239694141E1,-1.572861791E0,1.498026967E0,-8.398272395E-1
2.241720793E1,-9.590035677E-1,1.130644202E0,-1.205612183E0
2.243747449E1,-1.004809976E0,9.543430805E-1,-1.077247858E0
2.245774105E1,-1.376986384E0,1.390035868E0,-8.169240355E-1
2.247800756E1,-1.345028520E0,1.137035728E0,-5.383576155E-1
2.249827412E1,-1.206011653E0,1.075783134E0,-4.724444151E-1
2.251854068E1,-1.264601111E0,1.635978580E0,-6.028060913E-1
2.253880720E1,-1.222523212E0,2.165281534E0,-5.660544634E-1
2.255907376E1,-1.009070992E0,2.150367737E0,-3.105243444E-1
2.257934027E1,-9.494162202E-1,1.320261121E0,-2.514022291E-1
2.259960683E1,-9.755151868E-1,3.708449006E-1,-4.687159956E-1
2.261987339E1,-8.977509141E-1,-3.768370301E-2,-7.886945605E-1
2.264013990E1,-8.711193204E-1,-1.372858584E-1,-1.041162014E0
2.266040647E1,-8.631298542E-1,-2.820285559E-1,-1.172056317E0
2.268067303E1,-8.753803968E-1,-6.079992056E-1,-1.112934232E0
2.270093954E1,-9.723193645E-1,-7.953524590E-1,-9.767135978E-1
2.272120610E1,-1.061668396E0,-8.880304098E-1,-8.973514438E-1
2.274147266E1,-1.096289396E0,1.877527125E-2,-8.259788156E-1
2.276173918E1,-1.313603282E0,1.051282048E0,-6.347639561E-1
2.278200574E1,-1.493632793E0,1.249953747E0,-2.982738316E-1
2.280227225E1,-1.120257854E0,8.767119646E-1,-1.688442826E-1
2.282267225E1,-2.661827505E-1,6.029392481E-1,-2.796317041E-1
2.284280537E1,3.589938581E-1,5.310339332E-1,-3.952127993E-1
2.286307183E1,3.962780833E-1,7.787077427E-1,-4.282359779E-1
2.288345720E1,2.593916953E-1,8.623309135E-1,-5.363602638E-1
2.290376293E1,2.902843356E-1,4.913528636E-2,-7.103977203E-1
2.292402954E1,3.925496638E-1,-4.689823091E-1,-8.057388067E-1
2.294413881E1,4.910865426E-1,-3.017359376E-1,-6.954839826E-1
2.296440516E1,9.958883524E-1,-3.049317300E-1,-3.270359337E-1
2.298480516E1,1.991110921E0,-1.088832617E0,1.042626798E-1
2.300493808E1,2.382994652E0,-1.153813720E0,7.091992497E-1
2.302520459E1,3.276085138E0,-9.680583328E-2,1.382845402E0
2.304560459E1,4.264915943E0,-9.183903933E-1,1.931322932E0
2.306573761E1,3.596063852E0,-2.858235598E0,2.667287111E0
2.308613761E1,2.637060165E0,-4.154927731E0,3.339734554E0
2.310627063E1,2.576340199E0,-5.236436367E0,3.230545044E0
2.312653714E1,2.898449183E0,-4.867455959E0,2.628937483E0
2.314680360E1,2.706834793E0,-1.954625607E0,2.049034595E0
2.316707011E1,1.199753165E0,2.531332672E-1,2.182059526E0
2.318747011E1,-3.892207146E-1,7.254445553E-1,2.714025497E0
2.320760318E1,-1.147422075E0,2.573677063E0,2.719884396E0
2.322786964E1,-9.313067198E-1,6.225134373E0,2.832269669E0
2.324813621E1,-3.870901763E-1,2.292580605E0,2.967558146E0
2.326840272E1,-1.159805804E-1,-4.530300140E0,2.331728935E0
2.328866793E1,1.438105851E-1,-6.484659195E0,1.889777660E0
2.330893527E1,1.901495606E-1,-5.436706066E0,1.883918762E0
2.332920194E1,-8.775109053E-2,-2.856105089E0,1.667670250E0
2.334946850E1,-7.645930052E-1,-3.864243925E-1,1.272590518E0
2.336973511E1,-1.485110641E0,-2.016011477E-1,7.635276914E-1
2.339000168E1,-1.850895524E0,-1.075516820E0,1.495363861E-1
2.341026829E1,-1.962748289E0,-1.163401008E0,-6.305029392E-1
2.343053480E1,-2.051697731E0,-1.186304212E0,-1.213601589E0
2.345080141E1,-1.845569253E0,-1.814010859E0,-1.121988893E0
2.347106792E1,-9.989509583E-1,-2.489254713E0,-1.015595675E0
2.349133454E1,-1.037699938E0,-2.639456987E0,-1.039031506E0
2.351160105E1,-1.882853508E0,-2.276335239E0,-8.313050866E-1
2.353186756E1,-1.345561147E0,2.836264484E-2,-4.639223218E-1
2.355213412E1,-2.768353820E-1,3.987015486E0,2.464753687E-1
2.357240063E1,1.022653133E-1,4.426303387E0,5.351617932E-1
2.359266714E1,-8.993488550E-1,2.248904705E0,6.791055668E-3
2.361292980E1,-3.700459599E-1,-1.026514649E0,-4.048001766E-2
2.363315699E1,3.062632978E-1,-2.106425762E0,-5.198486447E-1
2.365355298E1,5.592634156E-2,-1.249554276E0,-1.245559454E0
2.367389673E1,-1.015995219E-1,-1.820935011E0,-1.397359610E0
2.369414647E1,-1.175784767E-1,-2.532930613E0,-1.370195389E0
2.371425808E1,-3.455449045E-1,-2.889128208E0,-1.261538506E0
2.373452626E1,-7.954856157E-1,-2.529202223E0,-1.017726302E0
2.375479412E1,-1.214001060E0,-1.338503718E0,-9.708546400E-1
2.377513313E1,-1.493632793E0,2.783001214E-2,-8.728504181E-1
2.379553214E1,-1.577122808E0,1.102414727E0,-8.020103574E-1
2.381559933E1,-1.547961235E0,1.759016633E0,-1.034237862E0
2.383586579E1,-1.671931267E0,2.276068926E0,-1.457014322E0
2.385613230E1,-1.701225996E0,1.669534445E0,-1.749296069E0
2.387639876E1,-1.261405349E0,-2.143843025E-1,-1.702957034E0
2.389666522E1,-9.265130758E-1,-2.268878460E0,-1.621996999E0
2.391693173E1,-7.832350731E-1,-3.110702991E0,-1.460742712E0
2.393719824E1,-6.964160800E-1,-2.233724594E0,-1.081508875E0
2.395746475E1,-7.262434959E-1,-2.553969622E-1,-4.218443930E-1
2.397773121E1,-1.007473111E0,1.206277966E0,-2.311622053E-1
2.399799777E1,-1.234241128E0,1.070456743E0,-6.299703121E-1
2.401826428E1,-8.412919641E-1,-4.660528619E-3,-9.149283171E-1
2.403853079E1,-1.649827063E-1,-3.097254038E-1,-9.708546400E-1
2.405893079E1,1.720400751E-1,-4.354264960E-2,-9.346356988E-1
2.407906381E1,4.207791388E-1,-2.442116886E-1,-8.558061719E-1
2.409933037E1,6.651239991E-1,-4.428833723E-1,-7.583345771E-1
2.411959688E1,7.103977203E-1,-7.692534924E-1,-7.029408216E-1
2.413986339E1,4.671181142E-1,-9.625988603E-1,-5.655218363E-1
2.416012990E1,4.756402075E-1,-8.741819859E-1,-3.739075363E-1
2.418039647E1,7.024081945E-1,-9.295756817E-1,-1.267663687E-1
2.420066298E1,1.268462658E0,-1.033438921E0,4.648544192E-1
2.422092949E1,1.874464512E0,-1.212403178E0,1.119192600E0
2.424119600E1,2.815358639E0,-1.945570827E0,1.561277032E0
2.426159600E1,3.093924999E0,-2.554235935E0,1.996836662E0
2.428172907E1,2.359026432E0,-2.666621208E0,2.490985870E0
2.430199558E1,1.849963427E0,-2.777408600E0,2.716156006E0
2.432226209E1,1.942641377E0,-2.987132311E0,2.812029600E0
2.434252860E1,2.255695820E0,-2.698046446E0,2.656101704E0
2.436279511E1,2.396310568E0,-6.898913383E-1,2.420678377E0
2.438306162E1,2.172205687E0,3.237203121E0,2.272606850E0
2.440340683E1,-1.495363861E-1,1.339435816E0,1.973933578E0
2.442375235E1,-1.045689464E0,-1.229047924E-1,1.714009166E0
2.444401897E1,-1.124518991E0,-5.185170770E-1,1.595365405E0
2.446412818E1,-1.037699938E0,-7.969503403E-1,1.657550216E0
2.448452819E1,-5.653886795E-1,-1.871535063E0,1.627190232E0
2.450481897E1,-1.628521830E-1,-2.738526583E0,1.285906315E0
2.452492813E1,-2.262353599E-1,-2.650109529E0,9.696562290E-1
2.454519449E1,-4.918854833E-1,-2.106425762E0,7.289066315E-1
2.456546084E1,-7.033402920E-1,-1.326785922E0,4.749744236E-1
2.458586084E1,-8.870983124E-1,-5.387570858E-1,1.394163817E-1
2.460599376E1,-1.003744721E0,-4.061317742E-1,-4.532696903E-1
2.462626022E1,-9.419593811E-1,-1.158074737E0,-1.015595675E0
2.464652668E1,2.783001214E-2,-3.126149416E0,-1.211471081E0
2.466679313E1,7.727156281E-1,-3.186336756E0,-3.249054030E-2
2.468719313E1,-1.829057693E0,1.668469161E-1,1.796034455E0
2.470732610E1,-9.994835854E-1,3.869836569E0,4.712460041E-1
2.472759256E1,-9.840372950E-2,5.629785061E0,-6.448839903E-1
2.474785902E1,-7.443529367E-2,3.443331480E0,2.129195631E-1
2.476812553E1,1.963414073E0,1.978460908E0,4.877575934E-1
2.478838938E1,5.326318145E-1,-3.106441975E0,2.789659202E-1
2.480865756E1,-7.912245989E-1,-3.045722008E0,-5.538039207E-1
2.482892423E1,-2.288985252E-1,-2.291781664E0,-1.492168069E0
2.484919089E1,-1.047953144E-1,-1.688975453E0,-2.084321499E0
2.486945746E1,-7.225150466E-1,-8.033419251E-1,-2.094441414E0
2.488972407E1,-1.460609555E0,-1.127847880E-1,-1.371793270E0
2.490999068E1,-1.754489183E0,-6.165213138E-2,-9.404946566E-1
2.493025725E1,-1.661811233E0,-2.106558830E-1,-9.032104015E-1
2.495052376E1,-1.533047557E0,-6.751108170E-2,-8.446208835E-1
2.497092381E1,-2.390851021E0,2.785664320E0,-1.075250506E0
2.499105683E1,-2.959568739E0,5.298488140E0,-1.315334320E0
2.501132334E1,-2.111219406E0,4.221240520E0,-1.093226790E0
2.503158990E1,-1.270460010E0,1.575258613E0,-1.078313112E0
2.505185641E1,-1.078179955E0,-1.095889956E-1,-1.104412079E0
2.507212287E1,-8.530098796E-1,-4.737760127E-1,-9.554083347E-1
2.509238949E1,-4.392880797E-1,-3.874896467E-2,-8.270440698E-1
2.511265600E1,2.783001214E-2,4.026696682E-1,-6.816355586E-1
2.513292251E1,5.592634156E-2,9.665936232E-1,-5.257076025E-1
2.515319694E1,-4.865591824E-1,2.159422636E0,-5.203812718E-1
2.517354850E1,-8.530098796E-1,2.574209690E0,-5.113265514E-1
2.519389110E1,-6.655234694E-1,1.690839767E0,-4.048001766E-1
2.521413970E1,-5.893571377E-1,1.156210542E0,-4.170507193E-1
2.523425027E1,-4.462123215E-1,1.374056935E0,-4.996086359E-1
2.525451772E1,1.933453530E-1,1.187103152E0,-5.745765567E-1
2.527478418E1,6.933534741E-1,2.094574571E-1,-6.528734565E-1
2.529519293E1,6.086649895E-1,-8.187882900E-1,-4.985433817E-1
2.531546709E1,4.708465338E-1,-9.455546141E-1,2.171806246E-1
2.533557876E1,1.152881622E0,-1.701758653E-1,1.298689485E0
2.535584699E1,2.977278709E0,6.748445034E-1,2.067676783E0
2.537611339E1,3.716971159E0,-3.805654347E-1,2.672613382E0
2.539652287E1,3.025215626E0,-9.833714962E-1,2.926012993E0
2.541679756E1,2.098702431E0,-1.309741616E0,2.936665535E0
2.543690959E1,1.669401288E0,-2.299637794E0,2.994722366E0
2.545717824E1,2.059287786E0,-2.278998375E0,2.875945568E0
2.547744454E1,2.116279364E0,2.792322338E-1,2.576739550E0
2.549784636E1,1.339302659E0,3.909783840E0,2.142777920E0
2.551798074E1,5.139896870E-1,3.977428198E0,1.531982303E0
2.553824839E1,-1.691105962E-2,1.270193696E0,1.366866350E0
2.555851569E1,-1.527321786E-1,-1.288436413E0,1.268862128E0
2.557878220E1,-9.454214945E-3,-1.897101402E0,9.222519994E-1
2.559918292E1,-2.507364154E-1,-1.768204451E0,5.909550190E-1
2.561931652E1,-7.187866569E-1,-1.319329023E0,4.776375890E-1
2.563958345E1,-1.100550532E0,-6.495444775E-1,4.158523083E-1
2.565985027E1,-1.353550673E0,-2.878875136E-1,1.495363861E-1
2.568011714E1,-1.626657605E0,-7.388935089E-1,-2.977411747E-1
2.570038386E1,-1.988847256E0,-1.250619531E0,-8.163914084E-1
2.572065058E1,-1.789642930E0,-1.032373667E0,-1.158207893E0
2.574091730E1,2.402169555E-1,-3.493532181E0,-4.878907502E-1
2.576118386E1,-1.116529465E0,-2.614955902E0,2.336922139E-1
2.578145043E1,-4.297007322E-1,2.568350554E0,6.538055837E-2
2.580171746E1,2.945453823E-1,4.832568645E0,2.528669536E-1
2.582198402E1,2.356895804E-2,4.144674301E0,6.559360623E-1
2.584225058E1,7.886945605E-1,1.282976866E0,8.663256764E-1
2.586265058E1,1.123187304E0,-1.311872125E0,-6.178529188E-2
2.588278365E1,5.230444670E-1,-1.803890824E0,-1.300420642E0
2.590305022E1,-8.402267098E-2,-1.149019957E0,-1.816940308E0
2.592339548E1,-6.548708081E-1,-1.171390533E0,-1.783384442E0
2.594374100E1,-1.070190430E0,-1.088299990E0,-1.551290154E0
2.596400766E1,-1.078712583E0,-7.420892715E-1,-1.205079436E0
2.598427433E1,-8.918919563E-1,-4.127896391E-3,-9.383640885E-1
2.600438365E1,-8.146603703E-1,2.222406268E-1,-9.090693593E-1
2.602465006E1,-9.313067198E-1,6.061350107E-1,-1.094292045E0
2.604491662E1,-1.531982303E0,2.113616228E0,-1.308942676E0
2.606518313E1,-2.126132965E0,3.787811279E0,-1.300420642E0
2.608558313E1,-1.682051301E0,3.528552771E0,-1.014530420E0
2.610571626E1,-9.781783223E-1,2.404433250E0,-7.913577557E-1
2.612598282E1,-7.922898531E-1,1.970471382E0,-7.775092721E-1
2.614624944E1,-9.068056941E-1,1.984852433E0,-7.817703485E-1
2.616651595E1,-6.799045205E-1,1.485776424E0,-6.342313290E-1
2.618691595E1,-3.668501675E-1,1.088566303E0,-4.783033729E-1
2.620704923E1,-4.339617789E-1,1.428918004E0,-3.179811835E-1
2.622731584E1,-7.006771564E-1,2.171673059E0,-2.008021921E-1
2.624758246E1,-6.111950278E-1,2.265416384E0,-3.909517527E-1
2.626784907E1,-1.937448233E-1,1.518267035E0,-7.764440179E-1
2.628811433E1,2.463422157E-2,4.202465117E-1,-1.154479504E0
2.630838188E1,-1.740374416E-1,-1.117195264E-1,-1.098553181E0
2.632864865E1,3.315633163E-2,4.913528636E-2,-6.448839903E-1
2.634891537E1,5.858950019E-1,2.643185556E-1,-1.800295562E-1
2.636918209E1,9.362335801E-1,8.500803709E-1,5.510076284E-1
2.638944881E1,2.386190653E0,2.513622761E0,1.364203215E0
2.640971553E1,3.525223732E0,5.981455445E-1,2.171939373E0
2.642998230E1,3.506048918E0,-2.081924677E0,2.834400177E0
2.645024897E1,3.261171579E0,-2.943989277E0,3.000581264E0
2.647051569E1,2.649843216E0,-3.393397331E0,2.934002399E0
2.649078240E1,2.167412043E0,-3.507380486E0,2.936665535E0
2.651104912E1,2.310024261E0,-2.982338667E0,2.651840687E0
2.653131589E1,2.223205328E0,2.105227262E-1,2.128929377E0
2.655158261E1,1.340900660E0,4.446543694E0,1.710813403E0
2.657184933E1,1.374190152E-1,4.718052864E0,1.485643268E0
2.659211605E1,-9.185235500E-1,2.124268770E0,1.505883336E0
2.661238277E1,-8.769782782E-1,-4.988096952E-1,1.348224282E0
2.663264954E1,-2.118543088E-1,-2.210821629E0,1.015995145E0
2.665291626E1,4.700475931E-2,-2.556899071E0,5.643234253E-1
2.667319100E1,-3.593933284E-1,-2.464753866E0,2.874880135E-1
2.669354277E1,-9.174582958E-1,-1.916808724E0,1.852227151E-1
2.671388558E1,-1.307744265E0,-1.143693686E0,7.656582445E-2
2.673413449E1,-1.536243320E0,-9.881651998E-1,-2.679138184E-1
2.675424532E1,-1.543700218E0,-1.587242842E0,-9.751157165E-1
2.677451199E1,-1.151150465E0,-3.211903095E0,-1.479384899E0
2.679492100E1,8.030756116E-1,-7.043256760E0,-1.446361661E0
2.681519595E1,-3.775027990E-1,-4.750809669E0,-6.326334476E-1
2.683530798E1,-8.508793265E-2,1.743037701E-1,-1.139832065E-1
2.685557657E1,3.312969804E-1,3.190331459E0,4.137217700E-1
2.687584324E1,3.195790946E-1,5.221922398E0,3.828291297E-1
2.689624485E1,-1.078179955E0,4.171173096E0,7.736477256E-1
2.691637975E1,3.528685868E-2,-3.395527974E-2,5.099949613E-2
2.693664751E1,8.637956381E-1,-1.456748009E0,-9.191893935E-1
2.695691506E1,5.432844758E-1,-2.994589329E0,-1.398957491E0
2.697718183E1,-1.809616536E-1,-4.263051987E0,-1.610944986E0
2.699758251E1,-8.764456511E-1,-4.990360737E0,-1.889910817E0
2.701771668E1,-1.469664335E0,-5.205543995E0,-1.857420325E0
2.703798391E1,-1.738510251E0,-4.526571751E0,-1.359542727E0
2.705825110E1,-1.696964979E0,-3.168759823E0,-9.399620295E-1
2.707851818E1,-1.627190232E0,-1.292697430E0,-5.022718310E-1
2.709878527E1,-1.947834611E0,1.400688529E0,-3.089264594E-2
2.711905230E1,-2.022935629E0,3.050382376E0,2.363553643E-1
2.713931928E1,-1.842373490E0,3.188733578E0,3.466101587E-1
2.715958626E1,-1.823198676E0,3.071687698E0,3.695133328E-1
2.717985329E1,-1.731053472E0,2.200967789E0,-1.145158410E-1
2.720012022E1,-7.049382329E-1,-7.623292804E-1,-1.020922065E0
2.722038720E1,-4.350270331E-1,-2.698579073E0,-1.316932201E0
2.724065418E1,-7.395592928E-1,-2.357694864E0,-1.198687911E0
2.726092105E1,-1.117062092E0,-2.916159332E-1,-1.031042099E0
2.728118803E1,-9.685909748E-1,9.006804228E-1,-8.659262061E-1
2.730145511E1,-6.095971465E-1,9.431577921E-1,-6.741787195E-1
2.732185511E1,-6.053360701E-1,1.097621083E0,-3.930822909E-1
2.734198897E1,-6.511424184E-1,1.650359750E0,-2.024000883E-1
2.736225589E1,-2.565953732E-1,1.933719873E0,-2.625874877E-1
2.738252277E1,5.752423406E-1,1.358078003E0,-5.921534300E-1
2.740278980E1,1.097621083E0,2.137185186E-1,-8.824377656E-1
2.742305673E1,8.898946047E-1,-8.198535442E-1,-9.484841228E-1
2.744340240E1,5.779055357E-1,-1.397625923E0,-4.985433817E-1
2.746374829E1,5.262402296E-1,-1.023851514E0,2.704437971E-1
2.748401537E1,1.114665270E0,3.719101548E-1,1.210805297E0
2.750412506E1,3.028411388E0,4.245075583E-1,1.950497746E0
2.752439199E1,3.389935255E0,-9.934915304E-1,2.428135395E0
2.754479199E1,2.259424210E0,-1.186836839E0,2.575674295E0
2.756492584E1,1.651425004E0,-1.698562860E0,2.618284941E0
2.758532584E1,1.930923462E0,-1.902427673E0,2.737993956E0
2.760545980E1,2.583796978E0,-7.484808564E-1,2.447842598E0
2.762572673E1,2.321209431E0,2.198304653E0,2.119342089E0
2.764599371E1,5.784381628E-1,3.757983923E0,1.794436574E0
2.766626074E1,-5.691171288E-1,2.353300571E0,1.393497944E0
2.768666074E1,-7.006771564E-1,-1.997369342E-3,1.232643247E0
2.770679470E1,-3.471427858E-1,-1.465270162E0,1.058605790E0
2.772706178E1,-2.543316968E-2,-1.989779353E0,8.684561849E-1
2.774732881E1,-1.532648057E-1,-2.071804523E0,8.130624890E-1
2.776759579E1,-5.771065950E-1,-1.731586099E0,9.153277874E-1
2.778786162E1,-1.017593145E0,-8.912261724E-1,8.194540739E-1
2.780812944E1,-1.317331672E0,-6.346307993E-1,5.127912760E-1
2.782839657E1,-1.494165421E0,-1.359809041E0,1.729721874E-1
2.784866371E1,-1.560078621E0,-1.696432352E0,-3.275685608E-1
2.786893084E1,-1.838645101E0,-1.435975432E0,-7.498124242E-1
2.788919792E1,-1.798963994E-1,-3.225751400E0,-6.864292622E-1
2.790946506E1,-3.892207146E-1,-3.681018591E0,-1.251684725E-1
2.792973220E1,-3.812312186E-1,2.291648388E-1,2.530001104E-3
2.794999928E1,-3.235738352E-2,4.086084843E0,4.456796646E-1
2.797026641E1,-1.042626798E-1,4.459326744E0,1.376986384E0
2.799053355E1,1.371260643E0,1.575258613E0,1.169792652E0
2.801080063E1,1.868072987E0,-3.318962097E0,-2.274337858E-1
2.803106772E1,9.480846673E-2,-1.679388165E0,-9.548757076E-1
2.805133485E1,-1.809616536E-1,-1.643169224E-1,-1.577921748E0
2.807160199E1,-5.366265774E-1,-8.060051203E-1,-1.884584546E0
2.809186912E1,-1.192695856E0,-1.874198198E0,-1.976197243E0
2.811213626E1,-1.498426437E0,-2.615488529E0,-1.658216000E0
2.813240334E1,-1.374323249E0,-2.942391396E0,-1.385641694E0
2.815267048E1,-1.183108449E0,-2.511092663E0,-1.264734268E0
2.817293365E1,-1.798697710E0,7.712509036E-1,-1.102281570E0
2.819316147E1,-2.846650839E0,5.752290726E0,-9.745830894E-1
2.821357225E1,-2.324804783E0,5.841106892E0,-6.954839826E-1
2.823390251E1,-1.421194911E0,4.177031994E0,-4.809665382E-1
2.825415293E1,-1.385508537E0,2.834666491E0,-4.671181142E-1
2.827426277E1,-1.696432352E0,1.434244394E0,-4.362254739E-1
2.829465881E1,-1.358344316E0,5.097286701E-1,-4.186486006E-1
2.831494944E1,-6.740455627E-1,2.765690684E-1,-6.273071170E-1
2.833506272E1,-1.585911214E-1,2.197106183E-2,-8.041408658E-1
2.835533235E1,8.948214352E-2,-1.691105962E-2,-7.982819676E-1
2.837559933E1,8.415582776E-2,5.885581374E-1,-7.194524407E-1
2.839600147E1,-2.326269448E-1,1.490570188E0,-7.205176950E-1
2.841613740E1,-5.808349848E-1,1.606683850E0,-6.976145506E-1
2.843640589E1,-6.074665785E-1,7.014760971E-1,-7.503450513E-1
2.845667412E1,-3.231743574E-1,2.004027218E-1,-9.207872748E-1
2.847694121E1,2.439453751E-1,2.185122073E-1,-9.138630629E-1
2.849734209E1,7.615303397E-1,-2.436790615E-2,-7.791072130E-1
2.851747720E1,8.968188167E-1,-5.382244587E-1,-4.575307369E-1
2.853774490E1,7.476819158E-1,-7.815040350E-1,1.575258672E-1
2.855801256E1,7.530082464E-1,2.105227262E-1,1.230512619E0
2.857827975E1,2.673811674E0,1.592302799E0,2.049034595E0
2.859868011E1,4.066244602E0,-4.833633900E-1,2.578337431E0
2.861881485E1,3.242529392E0,-2.130926847E0,2.899381399E0
2.863908235E1,2.057689905E0,-2.242779493E0,2.871684551E0
2.865934970E1,1.638109207E0,-3.003111362E0,3.004309893E0
2.867961709E1,2.154096127E0,-2.822149754E0,2.953709841E0
2.869988454E1,2.641853809E0,-6.676539779E-1,2.402036428E0
2.872015183E1,1.882454038E0,2.825079203E0,1.671931267E0
2.874041923E1,1.470063776E-1,3.663175344E0,1.293363214E0
2.876068652E1,-1.081375718E0,2.079527855E0,1.372192740E0
2.878095381E1,-1.563807011E0,1.386174262E-1,1.441967487E0
2.880122136E1,-1.115996838E0,-1.284707904E0,1.258742094E0
2.882148865E1,-3.838943839E-1,-2.032389879E0,9.387635589E-1
2.884175595E1,-3.982754350E-1,-2.073402405E0,6.724476814E-1
2.886202324E1,-9.504814744E-1,-1.967941403E0,5.298355222E-1
2.888229053E1,-1.263535857E0,-1.401354313E0,2.986733019E-1
2.890255782E1,-1.141563177E0,-8.065377474E-1,-1.272990108E-1
2.892282511E1,-1.046754718E0,-5.089297295E-1,-7.002776861E-1
2.894309246E1,-1.564339638E0,-3.821633384E-2,-9.932252169E-1
2.896347850E1,-1.367532164E-1,-2.586726427E0,-1.113466859E0
2.898378501E1,-5.792371184E-2,-4.774777889E0,-6.125266105E-2
2.900405235E1,-1.635179639E0,1.406547427E0,7.257108688E-1
2.902416240E1,-5.558013320E-1,3.854922771E0,7.763108611E-2
2.904442959E1,6.715155840E-1,1.978460908E0,-2.237053663E-1
2.906482959E1,1.974599361E0,5.247888088E0,5.637907982E-1
2.908512204E1,4.697812796E-1,5.849096298E0,1.201217890E0
2.910523204E1,-7.917572260E-1,-8.508793265E-2,-2.130527347E-1
2.912549923E1,-1.292963773E-1,-1.391766906E0,-6.720482111E-1
2.914576641E1,3.653854430E-1,-1.718270302E0,-1.218395233E0
2.916603365E1,-6.804371625E-2,-1.561676502E0,-1.720001340E0
2.918643365E1,-6.239781976E-1,-3.832286000E-1,-1.285506845E0
2.920656834E1,-8.109319210E-1,4.793686271E-1,-8.925577998E-1
2.922683558E1,-8.972182870E-1,5.129244328E-1,-1.035303116E0
2.924710292E1,-9.760478139E-1,3.346259296E-1,-1.272191048E0
2.926737016E1,-1.142095804E0,5.640571117E-1,-1.446894288E0
2.928763199E1,-1.127714753E0,8.767119646E-1,-1.391500592E0
2.930790298E1,-8.572708964E-1,1.385774851E0,-1.307877421E0
2.932817069E1,-8.018772006E-1,2.309092045E0,-1.430915356E0
2.934843834E1,-1.124518991E0,3.348523140E0,-1.787112951E0
2.936870600E1,-1.135171533E0,3.611643314E0,-1.844104528E0
2.938897355E1,-8.849677444E-1,2.907637119E0,-1.512408018E0
2.940924110E1,-1.210805297E0,1.579519629E0,-1.311605811E0
2.942950865E1,-1.946236730E0,1.071522117E0,-1.034237862E0
2.944977605E1,-1.856221914E0,1.316532731E0,-5.017392039E-1
2.947017615E1,-9.755151868E-1,1.602422833E0,-6.444845349E-2
2.949031110E1,1.486042738E-1,1.493233323E0,2.539322078E-1
2.951057860E1,8.840356469E-1,1.407612801E0,3.780354261E-1
2.953084610E1,1.205079436E0,2.025199413E0,4.147870243E-1
2.955111355E1,1.139565825E0,2.499774218E0,3.423491120E-1
2.957138105E1,8.510124683E-1,1.029976726E0,1.841574460E-1
2.959164850E1,4.580633640E-1,-5.792371035E-1,-6.870950758E-2
2.961191600E1,2.673811615E-1,-1.021321490E-1,-2.189116776E-1
2.963218345E1,1.086435795E0,1.439038038E0,3.716438413E-1
2.965245089E1,3.139198780E0,1.409210682E0,1.338104248E0
2.967271839E1,3.433610916E0,-1.221990585E0,2.170874119E0
2.969298589E1,3.022552490E0,-2.574476004E0,2.680070162E0
2.971325334E1,2.592851639E0,-2.381663084E0,3.549591541E0
2.973366131E1,2.259956837E0,-2.713492870E0,4.318978310E0
2.975395256E1,2.160487890E0,-2.062217236E0,4.213650227E0
2.977421496E1,1.930923462E0,1.694035530E0,2.598044872E0
2.979444683E1,6.267744899E-1,4.977444172E0,1.536775947E0
2.981473704E1,-1.500556946E0,3.728688955E0,1.267264247E0
2.983484959E1,-2.676741123E0,-4.034686089E-2,1.498959064E0
2.985511876E1,-5.691171288E-1,-3.736944914E0,1.732118726E0
2.987538621E1,5.980123878E-1,-3.543066978E0,1.389236927E0
2.989579563E1,3.424822688E-1,-2.650109529E0,1.008005738E0
2.991607235E1,-3.135869801E-1,-2.126665592E0,7.864308953E-1
2.993618537E1,-7.560708523E-1,-1.571263909E0,5.170523524E-1
2.995645506E1,-1.045156837E0,-6.101297736E-1,2.368880063E-1
2.997672240E1,-1.199620008E0,5.765739456E-2,-3.355580568E-2
2.999712423E1,-1.119725227E0,-9.946899116E-2,-4.937497079E-1
3.001726058E1,-1.209740043E0,-6.239781976E-1,-1.010802031E0
3.003752923E1,-1.598428130E0,-8.241145611E-1,-1.497494340E0
3.005779766E1,-1.912680864E0,-1.148487329E0,-1.745035052E0
3.007806584E1,-2.027995586E-1,-3.421626806E0,-1.616670728E0
3.009833397E1,3.392864764E-1,-3.985018015E0,-1.009204149E0
3.011860194E1,-1.458079666E-1,-5.936181545E-1,-7.056040168E-1
3.013886980E1,-5.611276031E-1,2.714824438E0,8.189214021E-2
3.015913772E1,6.736460924E-1,4.435891151E0,4.840291739E-1
3.017940553E1,2.503369570E0,5.539770603E0,2.352901101E-1
3.019967329E1,5.805686712E-1,6.796382070E-1,5.032039285E-1
3.021994100E1,4.846949577E-1,-1.564339638E0,-3.755054474E-1
3.024020871E1,5.289034247E-1,-2.585128546E0,-1.026780963E0
3.026047641E1,3.462106884E-1,-3.139997721E0,-1.597629189E0
3.028074402E1,-3.231743574E-1,-3.501521587E0,-1.914411902E0
3.030101204E1,-9.888309836E-1,-4.044140339E0,-1.620931745E0
3.032127964E1,-1.169792652E0,-3.954125404E0,-1.232243776E0
3.034154725E1,-1.289102197E0,-2.967957735E0,-7.753787637E-1
3.036194725E1,-1.557548642E0,-1.401886940E0,-2.988064587E-1
3.038208251E1,-2.137851000E0,8.143940568E-1,7.123950869E-2
3.040235011E1,-2.697513819E0,3.696198463E0,1.516669095E-1
3.042261777E1,-2.156493187E0,4.487023830E0,-1.576590240E-1
3.044288537E1,-1.117062092E0,3.012565613E0,-5.527386665E-1
3.046315303E1,-5.712476373E-1,-6.989461184E-1,-1.099085808E0
3.048355303E1,-3.487406969E-1,-3.007905006E0,-1.661411762E0
3.050384626E1,-4.860265255E-1,-3.265698910E0,-1.575791240E0
3.052387808E1,-7.539403439E-1,-1.698562860E0,-1.384576440E0
3.054422402E1,-8.359656334E-1,3.581948951E-2,-1.250885844E0
3.056449157E1,-4.467449486E-1,8.588688076E-2,-1.055010438E0
3.058489157E1,-7.763108611E-2,-3.486075401E-1,-7.364966273E-1
3.060502688E1,-1.691105962E-2,2.526006401E-1,-4.261054695E-1
3.062529454E1,3.528685868E-2,1.245159984E0,-1.480716467E-1
3.064556214E1,2.322274745E-1,1.646631241E0,-1.395495385E-1
3.066582980E1,6.486123800E-1,9.894967675E-1,-3.643201590E-1
3.068622980E1,1.218395233E0,-3.757717609E-1,-5.479449630E-1
3.070636516E1,1.551290154E0,-1.607482791E0,-4.692486227E-1
3.072663287E1,1.669401288E0,-1.975398302E0,-3.243727684E-1
3.074690053E1,1.648761749E0,-1.163933635E0,1.953427196E-1
3.076716824E1,2.337188482E0,1.535311192E-1,1.025049925E0
3.078743454E1,3.502320528E0,-8.349003643E-2,2.082057714E0
3.080770313E1,3.051847219E0,-2.228930950E0,3.190730810E0
3.082797100E1,2.388853788E0,-3.266764164E0,3.826959610E0
3.084823881E1,2.427203178E0,-2.962631226E0,3.573559999E0
3.086850657E1,2.304697990E0,-1.560078621E0,2.540520668E0
3.088877438E1,1.550224900E0,-6.591318846E-1,1.745967150E0
3.090904214E1,3.102580272E-2,-1.295893192E0,1.468066454E0
3.092930996E1,-8.950877786E-1,-2.926412344E0,1.554885387E0
3.094957766E1,-8.008119464E-1,-2.785398006E0,1.566603303E0
3.096984548E1,-9.265130758E-1,-1.190565228E0,1.627190232E0
3.099011324E1,-1.285373688E0,4.788360000E-1,1.924931407E0
3.101038100E1,-1.250752687E0,8.269108832E-2,1.990445137E0
3.103064871E1,-1.127714753E0,-2.028128862E0,1.482980132E0
3.105091652E1,-1.056342006E0,-2.757701159E0,1.160737872E0
3.107118428E1,-1.021854162E0,-2.267813206E0,8.492814302E-1
3.109145204E1,-1.178314686E0,-1.569666028E0,3.689807057E-1
3.111171980E1,-1.488839149E0,-1.612276554E0,-1.837579757E-1
3.113198761E1,-1.724129200E0,-1.779389739E0,-7.902924418E-1
3.115225537E1,-1.547961235E0,-2.170341492E0,-1.271125793E0
3.117252313E1,2.806969583E-1,-4.211386681E0,-1.127315283E0
3.119279089E1,7.306377292E-1,-4.509527206E0,-2.934801280E-1
3.121305871E1,-1.136769414E0,-1.011600971E0,3.221091032E-1
3.123332652E1,-1.492034912E0,9.932252169E-1,1.761679798E-1
3.125373444E1,-5.014728308E-1,1.957155585E0,2.187785208E-1
3.127402240E1,-2.102564126E-1,-6.964161247E-2,6.777740121E-1
3.129425433E1,6.869618893E-1,-1.626657605E0,6.138581634E-1
3.131454470E1,1.490570188E0,1.531582832E0,4.291680753E-1
3.133465735E1,-2.906838059E-1,3.161036730E0,1.207742617E-1
3.135492673E1,-3.828291297E-1,-2.477536917E0,-2.087916732E-1
3.137519449E1,-9.201214463E-2,-3.492999554E0,-3.659180701E-1
3.139559589E1,-1.458079666E-1,-2.829606533E0,-1.140098453E0
3.141573246E1,-8.604667187E-1,-1.924265623E0,-1.762079239E0
3.143600110E1,-1.047819972E0,-1.276718497E0,-1.404816389E0
3.145626959E1,-7.518098354E-1,-4.934833944E-1,-5.548691750E-1
3.147653735E1,-6.617950201E-1,-5.360939503E-1,-7.338334918E-1
3.149693792E1,-7.954856157E-1,-9.647293687E-1,-1.019856811E0
3.151707397E1,-1.072321057E0,-1.168194771E0,-1.073652625E0
3.153734209E1,-1.535178065E0,-8.954872489E-1,-1.026248336E0
3.155761016E1,-2.579402685E0,6.072002649E-1,-1.324921608E0
3.157787793E1,-3.009103537E0,2.142378330E0,-1.605618596E0
3.159827818E1,-1.883386135E0,2.810698032E0,-1.411740661E0
3.161841407E1,-3.466101587E-1,1.148221016E0,-9.522125125E-1
3.163868199E1,-2.331595868E-1,-1.200152636E0,-6.603302956E-1
3.165894996E1,-2.725743353E-1,-1.558480740E0,-6.571345329E-1
3.167921793E1,-1.266332120E-1,-9.013462067E-1,-7.870966792E-1
3.169948579E1,-1.490037590E-1,-4.881570637E-1,-8.052061796E-1
3.171975365E1,-2.273006290E-1,-4.130559862E-1,-6.134586930E-1
3.174002157E1,-2.597911656E-1,-1.898832470E-1,-4.058654606E-1
3.176028938E1,-3.327617347E-1,4.671181142E-1,-1.549958587E-1
3.178055725E1,-5.302349925E-1,1.066195726E0,-2.876211889E-2
3.180082532E1,-4.797681272E-1,1.207343221E0,-2.029327303E-1
3.182109313E1,3.675159514E-1,7.643266916E-1,-4.894886315E-1
3.184136100E1,1.183241606E0,-5.105276108E-1,-6.667218804E-1
3.186162881E1,1.279115319E0,-1.569666028E0,-6.528734565E-1
3.188189668E1,1.143826842E0,-1.755021811E0,-2.508696020E-1
3.190216454E1,1.093892574E0,-1.149552584E0,5.298355222E-1
3.192243240E1,1.906422496E0,2.403501123E-1,1.140497923E0
3.194270016E1,3.439470053E0,-2.958769798E-1,1.728922844E0
3.196296808E1,3.139198780E0,-2.402435780E0,2.421743631E0
3.198323595E1,1.923999310E0,-3.243328333E0,2.853574991E0
3.200363595E1,1.303083777E0,-3.413637400E0,2.859966516E0
3.202392959E1,1.590704918E0,-3.081940889E0,2.585261583E0
3.204419756E1,1.964479327E0,-1.898166656E0,2.198038340E0
3.206430808E1,1.675792813E0,-4.061317742E-1,1.942508221E0
3.208470808E1,8.691219687E-1,4.623244107E-1,1.649560690E0
3.210484365E1,2.412822098E-1,7.701855898E-1,1.422260165E0
3.212511141E1,-3.828291297E-1,5.065328479E-1,1.431314826E0
3.214537918E1,-1.219860077E0,-1.781653464E-1,1.471262217E0
3.216564699E1,-1.758217692E0,-9.828388691E-1,1.301352739E0
3.218604699E1,-1.450489640E0,-1.341699600E0,9.749825597E-1
3.220618272E1,-9.169256687E-1,-2.067543507E0,7.342329621E-1
3.222645053E1,-6.570013762E-1,-2.287520409E0,4.909533858E-1
3.224671834E1,-4.897549450E-1,-1.785248756E0,1.751027107E-1
3.226698615E1,-4.929507375E-1,-1.706019759E0,-1.954758763E-1
3.228725079E1,-4.924181104E-1,-2.196973085E0,-6.049365997E-1
3.230752079E1,-2.549974918E-1,-2.699644327E0,-1.133706808E0
3.232778886E1,-1.388837546E-1,-3.337604046E0,-1.412273288E0
3.234805694E1,-2.475406379E-1,-4.361588955E0,-1.254614234E0
3.236832490E1,-6.053360701E-1,-3.748130083E0,-8.712524772E-1
3.238859298E1,-9.052077532E-1,-1.022253633E0,-4.900212884E-1
3.240886095E1,-6.585992575E-1,1.229713678E0,8.881635964E-2
3.242912891E1,-2.363553643E-1,1.374589562E0,5.063996911E-1
3.244939688E1,3.528685868E-2,6.396908164E-1,3.407512009E-1
3.246966480E1,9.800425172E-2,-3.342264518E-2,-4.154528305E-2
3.248993277E1,4.114580899E-2,-7.713840604E-1,-3.728422821E-1
3.251020068E1,4.061317816E-2,-2.319877863E0,-4.372907281E-1
3.253046860E1,7.546061277E-1,-3.764641762E0,-2.881538272E-1
3.255073652E1,-1.904158667E-2,-1.481249094E0,4.424838722E-1
3.257100449E1,-3.934817612E-1,1.178581119E0,3.668501675E-1
3.259127240E1,-2.969422378E-2,4.804339111E-1,-6.384924054E-1
3.261154027E1,-8.657930493E-1,-2.037716150E0,-1.210938454E0
3.263180819E1,-1.456881166E0,-4.119773865E0,-1.156077385E0
3.265207610E1,-1.101083159E0,-4.235887527E0,-6.885597706E-1
3.267234407E1,-9.361004233E-1,-2.545713902E0,-3.952127993E-1
3.269261199E1,-1.329582214E0,-7.266429663E-1,-2.700443268E-1
3.271287990E1,-2.130926847E0,2.382195890E-1,-6.657897681E-2
3.273328188E1,-3.383943081E0,1.956090331E0,9.733846784E-2
3.275345720E1,-2.535194397E0,3.104577780E0,-4.452801943E-1
3.277384949E1,2.439453751E-1,8.117309213E-1,-1.091628909E0
3.279411558E1,-1.211737376E-2,1.476721764E-1,-1.073652625E0
3.281436673E1,-1.036634684E0,-1.483379602E-1,-1.128913164E0
3.283447949E1,-1.416933775E0,-1.265000552E-2,-1.047021031E0
3.285474902E1,-1.258209467E0,1.320793748E0,-5.777723789E-1
3.287501688E1,-1.019191027E0,1.539039612E0,-3.334275186E-1
3.289541829E1,-9.749825597E-1,9.884315133E-1,-4.314317703E-1
3.291555527E1,-9.685909748E-1,3.857586086E-1,-6.038713455E-1
3.293582308E1,-6.554034352E-1,5.800360441E-1,-6.890923977E-1
3.295622397E1,-1.468732208E-1,1.027313590E0,-6.656566262E-1
3.297635985E1,3.227748871E-1,6.295707822E-1,-7.024081945E-1
3.299676053E1,6.102629304E-1,-7.323687430E-3,-7.242461443E-1
3.301689699E1,7.929556370E-1,-2.111885101E-1,-3.318296373E-1
3.303716537E1,1.160871029E0,-6.633929610E-1,3.508712053E-1
3.305743365E1,2.026797295E0,-8.768451214E-1,6.420876384E-1
3.307770162E1,2.852642775E0,-8.881635964E-2,7.640603185E-1
3.309810194E1,2.643984318E0,4.777707458E-1,1.043691993E0
3.311823813E1,2.163683653E0,1.482048035E-1,1.745967150E0
3.313850626E1,1.788178205E0,-3.491401672E-1,2.174602509E0
3.315877444E1,1.602955461E0,-1.012133598E0,2.429733276E0
3.317904240E1,1.627456546E0,-1.766073942E0,2.693785429E0
3.319944251E1,1.861148715E0,-1.878459215E0,2.723612785E0
3.321957860E1,1.961283565E0,-9.844367504E-1,2.385524750E0
3.323984673E1,1.185372114E0,1.151816323E-1,1.982455611E0
3.326011480E1,3.581948951E-2,6.412886977E-1,1.874331355E0
3.328038282E1,-3.556649089E-1,3.994738758E-1,1.911082983E0
3.330065105E1,1.272990108E-1,-2.213085145E-1,1.590039134E0
3.332091902E1,3.296990991E-1,-3.427485824E-1,1.216664195E0
3.334118709E1,1.049284711E-1,-3.049317300E-1,1.089897871E0
3.336145511E1,-1.820269227E-1,-5.552686453E-1,1.098420024E0
3.338172313E1,-3.455449045E-1,-6.506097913E-1,1.052214146E0
3.340199121E1,-5.190497041E-1,-5.536707640E-1,8.482161760E-1
3.342225923E1,-6.671213508E-1,-6.175866127E-1,6.703171730E-1
3.344252725E1,-8.578035235E-1,-6.697844863E-1,4.994754791E-1
3.346279532E1,-1.050483108E0,-8.502135277E-1,2.288985252E-1
3.348306334E1,-1.172988415E0,-8.555398583E-1,-1.640505940E-1
3.350341006E1,-1.358344316E0,-9.205209613E-1,-7.162566185E-1
3.352375704E1,-1.814676642E0,-1.470063806E0,-1.078313112E0
3.354402522E1,-3.950796425E-1,-2.280063629E0,-8.755135536E-1
3.356413595E1,3.227748871E-1,-4.787028313E0,9.840372950E-2
3.358453595E1,-8.466182947E-1,-2.466351748E0,3.242396116E-1
3.360467199E1,-1.186437383E-1,3.163699865E0,-5.006739125E-2
3.362493996E1,2.942790836E-2,6.318212032E0,8.562056720E-2
3.364520798E1,5.305013061E-1,4.787294865E0,7.986814380E-1
3.366547600E1,1.263669014E0,-1.003611565E0,4.014712274E-1
3.368587600E1,3.328948915E-1,-1.329449058E0,-4.958802164E-1
3.370601209E1,1.480716467E-1,-4.844286442E-1,-1.323856354E0
3.372628016E1,-9.733846784E-2,-1.168727398E0,-1.794037104E0
3.374654818E1,-4.536691606E-1,-2.244377375E0,-1.897900343E0
3.376681626E1,-1.300820112E0,-2.759831667E0,-1.509744883E0
3.378708240E1,-1.650626063E0,-2.790191889E0,-1.329715371E0
3.380735173E1,-1.593634367E0,-2.168210983E0,-1.170991063E0
3.382761996E1,-1.549026489E0,-8.592683077E-1,-9.506146312E-1
3.384788813E1,-2.400438547E0,3.482746363E0,-8.387619853E-1
3.386815636E1,-2.574076414E0,5.890641689E0,-6.906903386E-1
3.388842449E1,-2.063415766E0,5.060534954E0,-6.065344810E-1
3.390869266E1,-2.017076731E0,2.357028961E0,-6.539387107E-1
3.392896079E1,-1.584047079E0,-1.643169224E-1,-8.691219687E-1
3.394922891E1,-6.431529522E-1,-1.031841040E0,-1.030509472E0
3.396962897E1,-1.777658761E-1,-9.135967493E-1,-9.500820041E-1
3.398976516E1,-6.378266215E-2,-5.563339591E-1,-8.185219765E-1
3.401003329E1,-2.576606572E-1,3.697796464E-1,-8.030756116E-1
3.403030141E1,-6.213150024E-1,1.663142800E0,-7.103977203E-1
3.405056959E1,-1.055809379E0,1.981656671E0,-5.060002208E-1
3.407083766E1,-1.069657803E0,1.142362118E0,-3.984085917E-1
3.409110579E1,-6.229129434E-1,8.186551332E-1,-4.319643974E-1
3.411137391E1,1.054610983E-1,1.469264865E0,-3.861580789E-1
3.413164204E1,9.165261984E-1,1.138101101E0,-3.302317262E-1
3.415191022E1,1.125317931E0,-1.436774284E-1,-5.012065172E-1
3.417217829E1,7.178545594E-1,-1.104278922E0,-6.352965832E-1
3.419244641E1,2.902843356E-1,-1.190032601E0,-4.016043842E-1
3.421271454E1,1.502021700E-1,-1.474058628E-1,5.058670640E-1
3.423298266E1,1.390967965E0,1.211604238E0,1.457946420E0
3.425325079E1,3.474091053E0,2.478069514E-1,2.227333069E0
3.427365871E1,3.291930914E0,-1.678855538E0,2.709231853E0
3.429395136E1,2.255163193E0,-1.642103910E0,2.854640245E0
3.431420261E1,1.417066932E0,-1.432779551E0,3.038930893E0
3.433431558E1,1.503353357E0,-1.588840723E0,3.232675791E0
3.435458516E1,2.192445755E0,-1.195358992E0,2.962764502E0
3.437485324E1,2.197239399E0,9.538104534E-1,2.416417360E0
3.439526256E1,6.203829050E-1,3.382611513E0,1.851428151E0
3.441554042E1,-8.823046088E-1,2.472609997E0,1.388704300E0
3.443565402E1,-1.127714753E0,5.925529078E-2,1.683649182E0
3.445592418E1,-3.343596160E-1,-1.804423451E0,1.881255627E0
3.447619214E1,4.274370521E-2,-2.279531002E0,9.163930416E-1
3.449659386E1,-3.029343486E-1,-2.289651155E0,3.077280223E-1
3.451673147E1,-8.285087943E-1,-1.807086587E0,2.864227593E-1
3.453700068E1,-1.081908345E0,-8.347672224E-1,3.908185959E-1
3.455726964E1,-1.087767363E0,-6.964161247E-2,2.001364082E-1
3.457753777E1,-1.004277349E0,8.122635074E-3,-2.135853618E-1
3.459793850E1,-1.139965296E0,-3.086601496E-1,-7.966840267E-1
3.461807532E1,-1.580851197E0,-4.476770461E-1,-1.326519608E0
3.463834391E1,-2.448774725E-1,-1.770867586E0,-1.451155424E0
3.465861235E1,7.854987979E-1,-4.699144363E0,-1.031574726E0
3.467894792E1,-6.058686972E-1,-1.908286691E0,-6.129260659E-1
3.469934699E1,-4.886896908E-2,2.967824459E0,-2.407495826E-1
3.471957631E1,1.539305896E-1,5.915675163E0,1.049018383E0
3.473968720E1,1.058738947E0,7.545661926E0,1.188967347E0
3.475995522E1,1.217329979E0,6.199834347E-1,3.599259555E-1
3.478022324E1,8.281093240E-1,-1.450889111E0,-3.802991211E-1
3.480049131E1,3.675159514E-1,-1.386973262E0,-1.237037420E0
3.482075938E1,7.510108501E-2,-1.627190232E0,-1.904824495E0
3.484102751E1,-5.584644675E-1,-1.494032264E0,-1.920803547E0
3.486129563E1,-8.546077609E-1,-1.067527294E0,-1.292963743E0
3.488156371E1,-7.395592928E-1,-4.226433635E-1,-1.235439539E0
3.490183183E1,-7.773761153E-1,4.010717571E-1,-1.131576300E0
3.492210001E1,-9.467530847E-1,1.735048175E0,-9.809746742E-1
3.494236813E1,-9.787109494E-1,2.930540323E0,-8.552735448E-1
3.496263631E1,-1.182575822E0,4.131891251E0,-1.199753165E0
3.498290449E1,-1.125051618E0,3.883152246E0,-1.546496511E0
3.500317261E1,-7.129276991E-1,2.139715195E0,-1.511875391E0
3.502344079E1,-7.843003273E-1,5.286370963E-2,-1.464471221E0
3.504370897E1,-1.391367435E0,-5.163865685E-1,-1.389902711E0
3.506397714E1,-1.682051301E0,-1.415469050E-1,-1.102281570E0
3.508437714E1,-1.385508537E0,4.186486006E-1,-7.833682299E-1
3.510451350E1,-1.118659973E0,1.570997596E0,-5.431513190E-1
3.512478168E1,-1.217196822E0,2.778207541E0,-3.414169848E-1
3.514504985E1,-1.244893670E0,2.515220642E0,-4.101265073E-1
3.516531803E1,-8.247803450E-1,1.021454692E0,-6.470144987E-1
3.518571803E1,-3.018690944E-1,2.254364192E-1,-7.908250690E-1
3.520585438E1,1.326253265E-1,3.559312224E-1,-9.751157165E-1
3.522612256E1,5.576655269E-1,5.954823494E-1,-8.089345694E-1
3.524639074E1,8.691219687E-1,3.873564899E-1,-6.816355586E-1
3.526665891E1,9.468862414E-1,-3.235738277E-1,-7.173219323E-1
3.528705891E1,7.711177468E-1,-1.059537888E0,-7.897598147E-1
3.530719522E1,4.969455004E-1,-1.616004944E0,-7.434208393E-1
3.532746339E1,3.824296594E-1,-1.611743927E0,-2.822948694E-1
3.534773152E1,4.255728126E-1,-1.185771585E0,7.155908346E-1
3.536799970E1,9.442230463E-1,-1.115996838E0,1.513872743E0
3.538839970E1,1.842506647E0,-1.657550216E0,2.182059526E0
3.540853605E1,2.052896261E0,-1.801227689E0,2.874347687E0
3.542880423E1,1.828125596E0,-2.122404575E0,3.298189402E0
3.544907240E1,1.802026629E0,-2.689524412E0,3.391932487E0
3.546934058E1,1.900030851E0,-3.100050449E0,3.430814743E0
3.548960876E1,2.041710854E0,-2.630402327E0,3.416966200E0
3.550987694E1,2.014546633E0,-1.334242702E0,3.026680231E0
3.553014511E1,1.692837119E0,6.412886977E-1,2.339718342E0
3.555041329E1,9.293093681E-1,2.382595301E0,1.741706014E0
3.557068147E1,-2.502037883E-1,2.326668978E0,1.462740183E0
3.559094964E1,-8.125298619E-1,6.061350107E-1,1.367931724E0
3.561121782E1,-3.482080400E-1,-1.366733193E0,1.164999008E0
3.563148600E1,3.030675054E-1,-2.212419510E0,7.470161319E-1
3.565175418E1,1.976063997E-1,-2.404566288E0,2.842922211E-1
3.567202235E1,-2.794985473E-1,-2.394446373E0,2.969422378E-2
3.569229053E1,-6.926876903E-1,-1.508413315E0,-1.768337637E-1
3.571255871E1,-7.512772083E-1,-5.020055175E-1,-6.086649895E-1
3.573282688E1,-9.584709406E-1,-3.352917433E-1,-1.185372114E0
3.575309506E1,-1.248622179E0,-4.993423223E-1,-1.621996999E0
3.577336324E1,1.105610490E0,-2.562757969E0,-1.417066932E0
3.579363141E1,4.394212738E-3,-6.442581177E0,-5.038697124E-1
3.581389964E1,-1.817872405E0,-3.139997721E0,-2.290316857E-2
3.583416777E1,-6.074665785E-1,2.985934019E0,-6.592650414E-1
3.585443600E1,-3.636543751E-1,6.683597088E0,-1.731053442E-1
3.587470418E1,-8.881635964E-2,6.695315361E0,1.053279400E0
3.589497235E1,9.942904711E-1,3.216963053E0,8.088014126E-1
3.591524053E1,8.787093163E-1,-3.078745127E0,-2.737727463E-1
3.593550871E1,5.411539078E-1,-2.443981171E0,-7.343661189E-1
3.595577688E1,2.790990770E-1,-1.186304212E0,-1.171523690E0
3.597604506E1,-1.367532164E-1,-1.039830446E0,-1.617203355E0
3.599631324E1,-9.105340838E-1,-3.283675313E-1,-1.345694304E0
3.601658141E1,-1.274188519E0,-1.218395308E-1,-1.113999486E0
3.603684959E1,-9.840372801E-1,-4.013380706E-1,-1.278582692E0
3.605711777E1,-9.062730670E-1,-3.677822649E-1,-1.191763639E0
3.607738595E1,-1.199620008E0,5.965476632E-1,-1.044890523E0
3.609765412E1,-2.372741699E0,3.512041092E0,-9.745830894E-1
3.611792230E1,-2.790724516E0,5.067459106E0,-1.030509472E0
3.613819048E1,-1.883918762E0,4.099933624E0,-1.188567877E0
3.615845865E1,-1.112268448E0,1.941709280E0,-1.380315304E0
3.617872683E1,-1.061668396E0,3.475422785E-2,-1.530517578E0
3.619899501E1,-9.131972790E-1,-8.837693334E-1,-1.409077525E0
3.621926228E1,-5.020055175E-1,-9.354346395E-1,-1.164599419E0
3.623953035E1,-1.127847880E-1,-1.904158741E-1,-9.266462326E-1
3.625991738E1,-4.620581120E-2,1.317065358E0,-7.290397882E-1
3.628006676E1,-5.792371035E-1,3.057306767E0,-6.193176508E-1
3.630033494E1,-8.732498884E-1,2.771283388E0,-7.013429403E-1
3.632060311E1,-5.073317885E-1,1.088566303E0,-7.705850601E-1
3.634087129E1,-1.809616536E-1,-9.094688296E-2,-9.500820041E-1
3.636113947E1,-2.049300969E-1,5.286370963E-2,-8.478167057E-1
3.638140764E1,2.250369452E-2,6.838992834E-1,-5.921534300E-1
3.640167587E1,3.888212144E-1,4.671181142E-1,-4.692486227E-1
3.642194405E1,4.170507193E-1,-2.037316710E-1,-3.797664940E-1
3.644221223E1,3.802991211E-1,-8.486156464E-1,-6.498108059E-2
3.646248040E1,5.773729086E-1,-7.729819417E-1,6.538055539E-1
3.648274858E1,2.060353041E0,-1.319595277E-1,1.323190570E0
3.650301681E1,3.339867830E0,-1.110137820E0,1.995238781E0
3.652328499E1,2.883535624E0,-1.556350231E0,2.554368973E0
3.654355316E1,1.957022429E0,-9.578051567E-1,2.926545620E0
3.656382134E1,1.494831204E0,-1.299621701E0,3.249187231E0
3.658422134E1,1.636511326E0,-1.614939690E0,3.407911539E0
3.660435775E1,1.918672919E0,-1.218794823E0,3.219493151E0
3.662462592E1,1.749828696E0,-7.230477035E-2,2.788594007E0
3.664489415E1,7.125282288E-1,9.273120165E-1,2.304564714E0
3.666516228E1,-1.090563685E-1,9.543430805E-1,1.821068168E0
3.668556228E1,-5.227781534E-1,5.448823571E-1,1.684181809E0
3.670569874E1,-8.274435401E-1,-6.692518592E-1,1.622929215E0
3.672596697E1,-5.589970946E-1,-1.525990129E0,1.338636875E0
3.674623509E1,-2.842922211E-1,-1.739575505E0,1.031441569E0
3.676650332E1,-4.616586268E-1,-1.742238641E0,8.604667187E-1
3.678690332E1,-6.878939867E-1,-1.719335556E0,7.672561407E-1
3.680703973E1,-7.837677002E-1,-1.343830109E0,4.882902205E-1
3.682730796E1,-8.109319210E-1,-9.279778004E-1,2.756369673E-2
3.684757618E1,-8.098666668E-1,-8.832367063E-1,-5.241097212E-1
3.686784436E1,-9.648625255E-1,-6.165213585E-1,-1.177915215E0
3.688811259E1,-1.169792652E0,-6.181192398E-1,-1.703489661E0
3.690838077E1,1.249820590E0,-4.263584614E0,-1.519864917E0
3.692864900E1,-3.114564717E-1,-4.248138428E0,-2.428801060E-1
3.694891717E1,-1.649560690E0,-2.601906359E-1,1.037300453E-1
3.696918540E1,-5.845634341E-1,3.849063873E0,-7.354313731E-1
3.698945358E1,1.504684892E-2,4.304863453E0,2.597911656E-1
3.700972181E1,1.441568017E0,6.213949203E0,1.118127346E0
3.702999004E1,8.371640444E-1,1.562475443E0,4.637891650E-1
3.705025822E1,4.884233773E-1,-3.145856619E0,-6.044039726E-1
3.707052645E1,4.729770422E-1,-2.325736761E0,-1.039564133E0
3.709079467E1,2.615222335E-1,-1.724661827E0,-1.396826982E0
3.711106285E1,-3.306311965E-1,-1.388571143E0,-1.649693847E0
3.713133108E1,-1.027579904E0,-1.474058628E-1,-1.436241746E0
3.715159926E1,-1.381247520E0,6.412886977E-1,-1.120923638E0
3.717186749E1,-1.347159028E0,6.727139950E-1,-9.165261984E-1
3.719213561E1,-1.174053669E0,6.423539519E-1,-8.520777822E-1
3.721240389E1,-1.155944228E0,9.282441139E-1,-9.863009453E-1
3.723267212E1,-1.622396469E0,2.025199413E0,-1.194959521E0
3.725294030E1,-2.038914680E0,2.964628696E0,-1.296159506E0
3.727320853E1,-1.599493384E0,2.181260347E0,-1.095889926E0
3.729347670E1,-1.227849483E0,1.256877899E0,-9.266462326E-1
3.731374494E1,-1.225186348E0,1.020922065E0,-9.287767410E-1
3.733414494E1,-9.904288650E-1,6.902908683E-1,-7.860314250E-1
3.735428134E1,-5.536707640E-1,4.468781054E-1,-6.129260659E-1
3.737454952E1,-3.071953952E-1,7.419561148E-1,-5.225118399E-1
3.739481775E1,-5.185170770E-1,1.555551291E0,-4.751075804E-1
3.741508592E1,-8.679235578E-1,2.222273111E0,-5.033370852E-1
3.743535410E1,-7.683213949E-1,2.055559397E0,-6.081323624E-1
3.745562233E1,-2.480732650E-1,1.121056795E0,-9.213199019E-1
3.747589056E1,1.320926845E-1,-1.424790081E-2,-1.328650117E0
3.749615874E1,1.198421568E-1,-7.309040427E-1,-1.397892237E0
3.751642691E1,1.965411454E-1,-8.267777562E-1,-1.163534164E0
3.753669514E1,5.299686790E-1,-8.816388249E-1,-7.993472219E-1
3.755696337E1,6.267744899E-1,-7.910913825E-1,-2.199769467E-1
3.757723155E1,7.290397882E-1,-2.026664019E-1,1.094158888E0
3.759749978E1,2.032656193E0,7.563371658E-1,1.974466205E0
3.761776796E1,3.449589968E0,1.103879437E-1,2.452636480E0
3.763803613E1,3.351052999E0,-9.705883265E-1,3.095922470E0
3.765830436E1,2.894188166E0,-1.413604856E0,3.260372639E0
3.767857254E1,2.231194735E0,-1.330514312E0,3.163566589E0
3.769884072E1,1.819070816E0,-8.502135277E-1,2.961699247E0
3.771910894E1,1.724794984E0,7.416898012E-2,2.521878481E0
3.773937712E1,1.485243797E0,1.286172748E0,1.870070338E0
3.775964530E1,9.831051826E-1,1.270193696E0,1.407879114E0
3.777991348E1,4.436823130E-1,8.436887860E-1,1.255546331E0
3.780018170E1,-3.599259555E-1,5.126581341E-2,1.326386333E0
3.782044988E1,-9.606015086E-1,-7.271755934E-1,1.292297959E0
3.784071806E1,-1.094158888E0,-1.597895503E0,9.552751780E-1
3.786098624E1,-6.980140209E-1,-1.739575505E0,5.414202213E-1
3.788125441E1,-2.832269669E-1,-1.593101740E0,3.609912097E-1
3.790152259E1,-3.982754350E-1,-1.596297622E0,2.896185517E-1
3.792179077E1,-6.836329699E-1,-1.049417853E0,-6.924213842E-3
3.794205894E1,-8.093340397E-1,-5.297023654E-1,-5.235770941E-1
3.796232707E1,-1.130377889E0,-7.969503403E-1,-1.049151540E0
3.798259530E1,-1.794436574E0,-8.843019605E-1,-1.565138578E0
3.800286348E1,-1.057940006E0,-1.202283144E0,-1.674194932E0
3.802313165E1,8.243808746E-1,-4.233224392E0,-1.339835286E0
3.804339983E1,-7.305045128E-1,-4.175167561E0,-6.214481592E-1
3.806366801E1,-1.521995366E-1,1.437440157E0,-2.833601236E-1
3.808406801E1,3.808317482E-1,5.267595768E0,7.741803527E-1
3.810420436E1,4.974781275E-1,5.999831200E0,1.813078761E0
3.812447254E1,1.093892574E0,1.620532274E0,1.022386789E0
3.814474072E1,1.715207577E0,-1.417333245E0,-2.966759205E-1
3.816500884E1,7.130608559E-1,-2.111752033E0,-7.194524407E-1
3.818540884E1,-5.952160433E-2,-1.877926588E0,-1.210405827E0
3.820554520E1,-5.158539414E-1,-2.521745443E0,-1.653422356E0
3.822581332E1,-1.044624209E0,-2.532397985E0,-1.601890206E0
3.824608150E1,-1.231577873E0,-2.644250631E0,-1.345161676E0
3.826634967E1,-1.098952651E0,-2.097903490E0,-1.173121572E0
3.828674967E1,-1.142095804E0,-6.548708081E-1,-9.319725037E-1
3.830688598E1,-2.000032425E0,2.685529709E0,-6.187850237E-1
3.832715410E1,-2.547977448E0,5.536042213E0,-5.001412630E-1
3.834742228E1,-1.906821966E0,5.112200260E0,-6.299703121E-1
3.836769040E1,-1.368996978E0,3.069557190E0,-7.839008570E-1
3.838809040E1,-1.393497944E0,5.406212807E-1,-9.697893858E-1
3.840822671E1,-1.133041024E0,-1.127182126E0,-1.108140469E0
3.842849488E1,-6.394245028E-1,-1.484977484E0,-1.129445791E0
3.844876301E1,-2.635195851E-1,-1.034504175E0,-9.942904711E-1
3.846903108E1,-1.420795321E-1,-3.848264813E-1,-8.329030275E-1
3.848929931E1,-3.609912097E-1,2.153164148E-1,-8.020103574E-1
3.850956744E1,-5.739107728E-1,7.137266397E-1,-7.780419588E-1
3.852983556E1,-5.941507816E-1,9.378314614E-1,-6.187850237E-1
3.855010368E1,-5.142560005E-1,8.085350990E-1,-5.113265514E-1
3.857037181E1,-9.787109494E-2,5.550023317E-1,-6.395576596E-1
3.859063994E1,5.171855092E-1,2.643185556E-1,-7.588672042E-1
3.861090811E1,7.700524330E-1,-1.010668874E-1,-7.705850601E-1
3.863117624E1,6.768419147E-1,-5.936181545E-1,-7.333008647E-1
3.865144436E1,6.954839826E-1,-9.902957082E-1,-5.161202550E-1
3.867171249E1,1.196557403E0,-1.236238480E0,5.579318479E-2
3.869198061E1,1.704022408E0,-4.865591824E-1,7.880287766E-1
3.871224874E1,2.910167217E0,1.897500902E-1,1.602289677E0
3.873251686E1,3.902193785E0,-1.871002436E0,2.233191967E0
3.875278494E1,3.722297430E0,-3.862645864E0,2.888728619E0
3.877305306E1,2.890992403E0,-4.476504326E0,3.258774519E0
3.879332118E1,2.148237228E0,-4.206593037E0,3.177947760E0
3.881358931E1,1.600824952E0,-3.781685829E0,2.634796381E0
3.883385738E1,1.298290014E0,-3.147454500E0,2.031990290E0
3.885412551E1,1.245026827E0,-1.715607047E0,1.819470286E0
3.887439363E1,8.808398843E-1,-6.936197877E-1,1.807752371E0
3.889466171E1,-2.530001104E-3,-9.301083088E-1,1.952628255E0
3.891492983E1,-6.394245028E-1,-1.027579904E0,1.873798728E0
3.893519790E1,-8.519446254E-1,-6.676539779E-1,1.684714437E0
3.895546603E1,-9.845699072E-1,-7.932219505E-1,1.545298100E0
3.897573410E1,-1.340234876E0,-1.167662144E0,1.288036942E0
3.899600223E1,-2.002162933E0,-1.491369128E0,9.989509583E-1
3.901627030E1,-2.337587833E0,-2.072337151E0,7.017424107E-1
3.903653842E1,-1.633581758E0,-2.672480106E0,1.900164038E-1
3.905680650E1,-1.118659973E0,-2.768886566E0,-3.946801722E-1
3.907707457E1,-9.930920005E-1,-2.838528156E0,-1.131576300E0
3.909734270E1,5.942839384E-1,-3.793936491E0,-1.365401626E0
3.911761077E1,4.037349224E-1,-5.025514603E0,-7.796398401E-1
3.913787884E1,-1.078712583E0,-2.660762310E0,9.321057005E-4
3.915814691E1,-9.707214832E-1,5.880255103E-1,3.902859688E-1
3.917841499E1,-4.605933726E-1,1.467134356E0,2.304964215E-1
3.919868306E1,3.901528195E-2,8.649940491E-1,-3.994738683E-2
3.921895113E1,8.057388067E-1,-1.388837546E-1,9.454214945E-3
3.923921921E1,9.378314614E-1,-5.605949759E-1,2.010685205E-2
3.925940869E1,-1.516003370E0,2.271275282E0,-7.151913643E-1
3.927975525E1,-1.753423929E0,2.417216301E0,-1.014530420E0
3.930015525E1,-7.747129798E-1,-9.466199279E-1,-6.901576519E-1
3.932029139E1,-2.352901101E-1,-2.941858768E0,-5.575323701E-1
3.934055947E1,-3.022685647E-2,-3.623494387E0,-5.873597264E-1
3.936082749E1,-2.922817171E-1,-3.272090435E0,-6.395576596E-1
3.938109561E1,-7.571361065E-1,-2.350237846E0,-6.427534223E-1
3.940136363E1,-1.138900042E0,-1.536642790E0,-6.347639561E-1
3.942163170E1,-1.425455928E0,-1.231444716E0,-8.211851120E-1
3.944189978E1,-1.555418015E0,-9.753820300E-1,-7.492797971E-1
3.946216780E1,-1.477653861E0,-5.936181545E-1,-5.246423483E-1
3.948243587E1,-1.672996521E0,-3.038664460E-1,-6.235787272E-1
3.950270389E1,-2.242779493E0,5.049349666E-1,-8.925577998E-1
3.952297191E1,-1.542102337E0,3.484743834E-1,-9.836378098E-1
3.954323999E1,-5.632581711E-1,-8.555398583E-1,-9.186567068E-1
3.956350801E1,-5.813676119E-1,-1.202283144E0,-1.039031506E0
3.958390801E1,-7.731150985E-1,-8.571377397E-1,-1.105477333E0
3.960404405E1,-7.970834970E-1,-6.607297659E-1,-1.024117827E0
3.962431207E1,-8.093340397E-1,-5.797697306E-1,-8.472840786E-1
3.964458009E1,-8.737825155E-1,-2.223737836E-1,-6.400902867E-1
3.966484811E1,-8.306393027E-1,3.553985953E-1,-4.841623306E-1
3.968524811E1,-5.850960612E-1,5.597960353E-1,-4.516717792E-1
3.970538415E1,-3.045322299E-1,3.719101548E-1,-4.410191476E-1
3.972565217E1,-1.362205893E-1,2.680469751E-1,-5.017392039E-1
3.974592025E1,-1.371526904E-2,2.760364413E-1,-6.795050502E-1
3.976618827E1,1.129179448E-1,4.966791719E-2,-8.174566627E-1
3.978658827E1,9.054741263E-2,-7.283740491E-2,-8.307724595E-1
3.980672426E1,8.096003532E-2,-2.809632719E-1,-6.635261178E-1
3.982699228E1,-4.407528415E-2,-5.291697383E-1,-3.099917173E-1
3.984726030E1,-2.326269448E-1,-4.407528341E-1,7.390266657E-2
3.986752827E1,6.672545075E-1,-3.597927988E-1,2.155827284E-1
3.988779629E1,1.447426915E0,-3.917506933E-1,1.665806025E-1
3.990806426E1,1.789776087E0,2.872217000E-1,3.045322299E-1
3.992833228E1,2.141845703E0,1.876195520E-1,8.482161760E-1
3.994860025E1,2.030525684E0,-4.993423447E-2,1.592702270E0
3.996886827E1,1.630119681E0,-5.856286883E-1,2.160221577E0
3.998926827E1,1.417066932E0,-1.236238480E0,2.635861635E0
4.000940420E1,1.469264865E0,-1.199620008E0,2.771017075E0
4.002967223E1,1.442100644E0,-5.206476152E-2,2.760897160E0
4.004994020E1,1.394163847E0,1.318130612E0,2.631067991E0
4.007020816E1,1.143826842E0,2.045439243E0,2.402036428E0
4.009047613E1,5.475454926E-1,1.559279680E0,2.080459833E0
4.011074410E1,4.221107066E-2,2.616553903E-1,1.806154490E0
4.013101207E1,2.002695650E-1,-3.336938322E-1,1.518666506E0
4.015128004E1,4.607265294E-1,-6.239781976E-1,1.337571621E0
4.017154801E1,3.680485785E-1,-1.163401008E0,1.195891619E0
4.019181598E1,3.185138404E-1,-1.436508060E0,1.101083159E0
4.021208389E1,3.605917394E-1,-1.017992616E0,1.123453617E0
4.023235186E1,3.403517306E-1,-5.153212696E-2,1.166596889E0
4.025261983E1,1.475390196E-1,4.143875539E-1,1.010668874E0
4.027288780E1,-1.788311303E-1,3.484743834E-1,5.728455186E-1
4.029315572E1,-4.179828167E-1,1.412805915E-1,1.053279415E-1
4.031342369E1,-6.293044686E-1,-1.499358565E-1,-4.255728126E-1
4.033369165E1,-9.270457029E-1,-3.565970063E-1,-8.174566627E-1
4.035395957E1,-8.689888120E-1,-3.795001805E-1,-7.258440256E-1
4.037422754E1,-1.692437679E-1,-1.012666225E0,-4.724444151E-1
4.039449546E1,-4.834965467E-1,-4.561991692E-1,-4.649875760E-1
4.041476342E1,-5.403549671E-1,1.440635920E0,-4.809665382E-1
4.043503134E1,5.539371073E-2,3.855988026E0,5.579318479E-2
4.045529926E1,1.821600795E-1,4.287819386E0,6.026729345E-1
4.047556723E1,1.509212255E0,3.156775713E0,3.556649089E-1
4.049583514E1,1.599227071E0,-1.159672618E0,-2.631201148E-1
4.051610306E1,-1.000016257E-1,-1.926396132E0,-9.330378175E-1
4.053637098E1,-6.697845459E-2,-3.842938542E-1,-1.482580662E0
4.055663894E1,-2.432795912E-1,3.410175145E-1,-1.797232866E0
4.057690686E1,-5.137233734E-1,6.870950460E-1,-1.742371798E0
4.059717478E1,-1.043558836E0,2.169143111E-1,-1.375521660E0
4.061744270E1,-1.421727538E0,-8.715187907E-1,-1.405349016E0
4.063771061E1,-1.316799045E0,-1.590438604E0,-1.518799663E0
4.065797853E1,-1.296558976E0,-8.629966974E-1,-1.462340713E0
4.067824644E1,-2.504834175E0,4.503002644E0,-1.372325897E0
4.069851431E1,-2.430265903E0,5.910348892E0,-1.024650455E0
4.071878217E1,-1.419596910E0,4.169042587E0,-5.676523447E-1
4.073905014E1,-1.026514649E0,2.327734232E0,-4.830970466E-1
4.075931806E1,-8.924246430E-1,7.989477515E-1,-4.580633640E-1
4.077958592E1,-3.386206925E-1,8.482161909E-2,-3.776359558E-1
4.079985384E1,2.407495826E-1,1.877527125E-2,-2.961432934E-1
4.082012171E1,5.715139508E-1,1.039963663E-1,-1.992042959E-1
4.084038962E1,7.130608559E-1,3.681817353E-1,-1.523326933E-1
4.086065749E1,6.368945241E-1,6.934866309E-1,-2.183790505E-1
4.088092540E1,2.263685167E-1,1.086435795E0,-4.170507193E-1
4.090119327E1,-3.924165070E-1,1.761679769E0,-5.980123878E-1
4.092146113E1,-8.444877267E-1,2.238252163E0,-6.757766008E-1
4.094172900E1,-8.466182947E-1,1.511875391E0,-7.119956017E-1
