"Time (s)","Acceleration x (m/s^2)","Acceleration y (m/s^2)","Acceleration z (m/s^2)"
4.047480700E-2,-2.542374134E0,5.992226124E0,6.464210510E0
6.077308900E-2,-2.281556368E0,5.772086620E0,6.559923172E0
8.104308900E-2,-2.216950178E0,5.906084538E0,6.555137634E0
1.013130370E-1,-2.123630047E0,6.107081413E0,6.945167542E0
1.215830370E-1,-2.142772675E0,6.306283951E0,7.115057945E0
1.416956410E-1,-2.087737799E0,6.092724800E0,6.995417118E0
1.619654320E-1,-1.968096614E0,5.812764645E0,7.045666218E0
1.822352240E-1,-1.807179332E0,5.587839127E0,7.062416077E0
2.025051200E-1,-1.740180254E0,5.475376606E0,6.921239376E0
2.229051200E-1,-1.539183140E0,5.468197823E0,7.783253670E0
2.430449120E-1,-1.237687469E0,5.125426292E0,8.264211655E0
2.633148070E-1,-1.259222865E0,4.785645485E0,8.927620888E0
2.835847550E-1,-1.338186026E0,4.855037212E0,9.375677109E0
3.038546510E-1,-1.187438250E0,4.788038254E0,9.174081802E0
3.242546510E-1,-1.223330617E0,4.630111694E0,8.384450912E0
3.443945990E-1,-1.106082320E0,4.393222332E0,7.618149281E0
3.646644950E-1,-8.620143533E-1,4.079164505E0,7.215556622E0
3.849344950E-1,-5.838487148E-1,3.739383698E0,7.119843960E0
4.052044950E-1,-5.910272002E-1,3.131606579E0,6.507281303E0
4.254744430E-1,-7.806583643E-1,2.178664923E0,6.217151642E0
4.457443910E-1,5.318048596E-1,2.087737799E0,6.758527756E0
4.660143910E-1,2.805584669E-1,1.986641049E0,9.385248184E0
4.862843910E-1,1.360319614E0,2.420340061E0,1.134556866E1
5.065543390E-1,2.617149830E0,2.067996979E0,1.291406345E1
5.269543390E-1,3.462414265E0,1.400399446E0,1.386221981E1
5.470943390E-1,3.641875982E0,-4.606183618E-2,1.492762375E1
5.673643390E-1,2.480758905E0,-5.940182209E-1,1.414935875E1
5.876342350E-1,1.216152072E0,8.374879509E-2,1.294756317E1
6.079042350E-1,1.254437327E0,-1.495514158E-2,1.209033489E1
6.281742350E-1,1.110867858E0,-8.715856671E-1,1.056790161E1
6.484442350E-1,1.225723386E0,-1.707278967E0,8.089534760E0
6.687142350E-1,2.925225794E-1,-2.674577475E0,6.820741177E0
6.889841820E-1,4.193421602E-1,-3.040679455E0,7.852645874E0
7.092541820E-1,3.619144261E-1,-3.481556892E0,8.805587769E0
7.295241820E-1,1.322034478E0,-4.019941807E0,9.703494072E0
7.497941820E-1,4.549354076E0,-1.824527264E0,7.421937466E0
7.700641300E-1,5.578866005E0,3.278166950E-1,5.283950806E0
7.903341300E-1,5.403591633E0,8.566305041E-1,2.317448616E0
8.106041300E-1,5.810969830E0,1.302293777E0,2.781656265E0
8.308741300E-1,6.337390900E0,1.033699393E0,5.127819061E0
8.511440780E-1,6.435496330E0,8.973084688E-1,5.729015827E0
8.714140780E-1,6.387639999E0,7.657032460E-2,6.327819347E0
8.916840780E-1,6.057430744E0,-1.171286702E0,6.607779503E0
9.119540780E-1,7.247261524E0,-3.095714331E0,7.845467091E0
9.322240780E-1,1.009172916E1,-3.806980848E0,8.482556343E0
9.524940260E-1,1.015633583E1,-4.372285366E0,7.780860901E0
9.727640260E-1,8.437092781E0,-3.974478483E0,7.917252064E0
9.930340260E-1,6.692126751E0,-4.267001152E0,7.718647480E0
1.013304026E0,6.572485447E0,-4.834099770E0,7.316653252E0
1.033573974E0,7.005586624E0,-5.389832973E0,6.186044693E0
1.053843974E0,7.029514790E0,-5.432903767E0,5.752943993E0
1.074113974E0,6.411568165E0,-5.322834015E0,6.095117569E0
1.094383974E0,6.459424496E0,-5.586044312E0,5.930012703E0
1.114653974E0,8.140382767E0,-7.072585583E0,6.296712875E0
1.134923922E0,7.460222721E0,-4.688137531E0,6.899703979E0
1.155193922E0,6.804589272E0,-2.650649309E0,6.188437462E0
1.175463922E0,7.120441914E0,-3.718446493E0,3.681955814E0
1.195733870E0,8.494520187E0,-3.696911097E0,3.186641455E0
1.216003870E0,9.464211464E0,-3.304488182E0,4.352544308E0
1.236273870E0,1.009412193E1,-3.426522017E0,4.749752998E0
1.256543818E0,1.067378330E1,-2.827718258E0,3.430709362E0
1.276813818E0,9.639486313E0,-2.013560295E0,1.340578914E0
1.297083818E0,8.267202377E0,-1.769492388E0,3.493520916E-1
1.317483818E0,7.587640762E0,-1.597209096E0,-5.892325640E-1
1.337623766E0,5.171487808E0,-1.128215909E0,-2.531008244E0
1.357893766E0,9.301499367E0,-5.294120312E-1,-1.144965649E0
1.378163714E0,9.749555588E0,-1.104287624E0,-5.084748194E-2
1.398433714E0,8.791828156E0,-7.591229677E-1,-8.955138922E-1
1.418703714E0,7.903493404E0,-5.198407173E-1,-2.346760750E0
1.438973714E0,8.212167740E0,-2.087737769E-1,-2.679363251E0
1.459243662E0,8.260024071E0,4.307080805E-1,-4.223930359E0
1.479513662E0,8.839685440E0,-7.477571070E-2,-4.829314232E0
1.499783610E0,9.370891571E0,2.584248483E-1,-5.334797859E0
1.520053610E0,8.966505051E0,5.024927258E-1,-5.473581791E0
1.540402307E0,8.784649849E0,4.953143001E-1,-7.161119938E0
1.560593714E0,8.035098076E0,2.392822690E-2,-7.420143127E0
1.580863662E0,7.084549427E0,2.249253243E-1,-7.170691490E0
1.601133662E0,6.440282345E0,1.172483116E-1,-6.464808464E0
1.621533662E0,6.895516872E0,8.853443712E-2,-7.326822758E0
1.641673557E0,6.141179085E0,-2.135594189E-1,-7.752745152E0
1.661943557E0,5.844469070E0,-1.015154958E0,-6.464808464E0
1.682213557E0,5.195415974E0,-7.238288224E-2,-7.285546780E0
1.702483505E0,4.633102894E0,-1.513460279E-1,-8.149953842E0
1.722883505E0,3.952943087E0,-7.974081635E-1,-7.362715244E0
1.743023505E0,2.940180779E0,-1.209571838E0,-7.616354465E0
1.763293453E0,3.993621111E0,-1.240678549E0,-8.487939835E0
1.783563453E0,8.362915039E0,-6.155536175E-1,-1.052542877E1
1.803833453E0,5.746363640E0,-7.304090858E-1,-9.186644554E0
1.824233453E0,4.127619267E0,-1.046859860E0,-8.966505051E0
1.844373401E0,5.109274387E0,-7.016952634E-1,-8.621937752E0
1.864643401E0,4.094119549E0,6.388836503E-1,-7.872386456E0
1.884913401E0,4.141975880E0,-2.638086975E-1,-9.330213547E0
1.905183401E0,3.890729666E0,-1.336391449E0,-1.027836990E1
1.925583401E0,6.387639999E0,-7.328019142E-1,-7.187440872E0
1.945723401E0,5.755934715E0,1.459621787E-1,-6.541378975E0
1.965993401E0,4.599603176E0,5.335994363E-1,-9.361320496E0
1.986263401E0,3.696911097E0,2.464607358E-1,-1.103270721E1
2.006533401E0,4.616353035E0,2.775674164E-1,-1.020179939E1
2.026803401E0,5.360520840E0,-6.490531564E-1,-7.106084824E0
2.047073401E0,7.609176159E0,-2.018345833E0,-6.826124668E0
2.067343401E0,7.177869797E0,-3.428914785E0,-5.846862316E0
2.087613401E0,5.571687698E0,-3.546163082E0,-6.723233223E0
2.107883401E0,7.130013466E0,-3.845266104E0,-7.177869797E0
2.128153401E0,7.661818027E0,-3.964907169E0,-6.505486488E0
2.148423401E0,7.292725086E0,-4.039084435E0,-6.124429703E0
2.168693453E0,6.263213158E0,-5.485546112E0,-7.225726128E0
2.188963453E0,5.806184292E0,-5.341976643E0,-6.852446079E0
2.209233453E0,5.238486767E0,-3.926621914E0,-6.000002861E0
2.229503453E0,4.113262177E0,-2.712862730E0,-5.188237667E0
2.249773453E0,2.473580360E0,-3.332005441E-1,-5.315655708E0
2.270043505E0,5.318048596E-1,-1.042074203E0,-5.554937840E0
2.290313505E0,-1.520040631E0,-2.605185747E0,-1.130548859E1
2.310583505E0,-3.169891834E0,-5.810969830E0,-1.469611835E1
2.330853505E0,-1.920240164E0,-5.674578667E0,-1.397767353E1
2.351123557E0,-2.338984251E0,-4.166502476E0,-1.004865837E1
2.371393557E0,-3.996013880E0,-1.795813441E0,-8.868398666E0
2.391663557E0,-5.628517151E0,-4.552344978E-1,-9.236893654E0
2.411933610E0,-6.153143406E0,1.890329868E-1,-7.970492363E0
2.432203610E0,-5.867799282E0,-8.195417374E-2,-6.196214199E0
2.452473662E0,-6.363711834E0,-1.680957973E-1,-7.621140003E0
2.472743662E0,-4.146761417E0,1.759322882E0,-1.045603657E1
2.493013662E0,-5.094917774E0,-3.409772366E-2,-8.784649849E0
2.513283714E0,-6.433103561E0,-1.714457393E0,-7.599604607E0
2.533553714E0,-6.143572330E0,-5.676971674E-1,-8.240880966E0
2.553823714E0,-6.799205780E0,-6.041877344E-2,-7.843672752E0
2.574093766E0,-6.323033810E0,7.274180651E-1,-6.122036934E0
2.594363766E0,-6.610172749E0,1.663609982E0,-7.185048103E0
2.614633818E0,-6.937989235E0,1.886142492E0,-8.600402832E0
2.634903818E0,-7.063014030E0,8.829515576E-1,-8.980861664E0
2.655173870E0,-7.280761242E0,5.240281820E-1,-7.506284714E0
2.675443818E0,-6.574280262E0,1.290329576E0,-6.366703033E0
2.695713870E0,-6.370890141E0,1.187438250E0,-6.052644730E0
2.715983922E0,-6.971488953E0,2.392822653E-1,-6.239284992E0
2.736253922E0,-7.412366390E0,2.225325108E-1,-6.165107727E0
2.756523974E0,-7.673183918E0,8.781659007E-1,-6.095715523E0
2.776793974E0,-6.856633186E0,5.029713154E0,-5.495117188E0
2.797064026E0,-8.264809608E0,2.930011272E0,-6.940980434E0
2.817334026E0,-8.635697365E0,2.201396823E-1,-7.134799004E0
2.837604026E0,-8.080561638E0,4.546362907E-2,-6.728019238E0
2.857874078E0,-7.797610760E0,1.859821439E0,-5.375475883E0
2.878144078E0,-8.231309891E0,1.888535261E0,-4.252644062E0
2.898414130E0,-8.370093346E0,-9.152546525E-2,-4.012763500E0
2.918684130E0,-9.169894218E0,-6.466603279E-1,-4.757529736E0
2.938954182E0,-9.227322578E0,-1.137787223E0,-5.270191669E0
2.959224182E0,-8.274380684E0,-1.905883193E0,-4.903491974E0
2.979494182E0,-8.106883049E0,-3.067000389E0,-4.987240791E0
2.999764235E0,-7.984251022E0,-3.254238844E0,-4.580460548E0
3.020034235E0,-8.219346046E0,-3.105285645E0,-4.791028976E0
3.040304287E0,-8.255238533E0,-3.059821844E0,-4.594817638E0
3.060574287E0,-8.048856735E0,-2.018345833E0,-4.609174728E0
3.080844287E0,-8.798408508E0,2.177468538E-1,-4.731208801E0
3.101114339E0,-1.032144070E1,-1.271785259E0,-4.384249210E0
3.121514339E0,-9.535996437E0,-2.976073265E0,-3.943371773E0
3.141654339E0,-7.491329670E0,-3.040679455E0,-4.683351994E0
3.161924339E0,-6.837490559E0,-2.100300074E0,-4.800600529E0
3.182194391E0,-7.541578770E0,-3.357130051E0,-4.420141697E0
3.202464391E0,-8.764909744E0,-4.238286972E0,-4.654638290E0
3.222864391E0,-8.683553696E0,-3.522234917E0,-4.137190342E0
3.243004443E0,-8.609375954E0,-4.228715897E0,-3.153740168E0
3.263274443E0,-8.630910873E0,-4.846064091E0,-3.165704250E0
3.283544443E0,-7.709076405E0,-4.451248169E0,-3.299702406E0
3.303814443E0,-7.433901787E0,-5.185844898E0,-3.000001431E0
3.324214443E0,-7.675576687E0,-5.181059361E0,-2.779861689E0
3.344354495E0,-7.101299286E0,-4.086941242E0,-3.083750248E0
3.364624495E0,-6.988238335E0,-4.953741074E0,-3.835694790E0
3.384894495E0,-6.689135551E0,-4.869992256E0,-4.410570145E0
3.405164495E0,-7.048657417E0,-3.893122435E0,-5.344369411E0
3.425434495E0,-7.120441914E0,-3.132204771E0,-6.402595043E0
3.445704495E0,-7.108478069E0,-3.180061340E0,-7.237690449E0
3.465974495E0,-7.204190731E0,-3.510270834E0,-7.295716286E0
3.486244495E0,-7.120441914E0,-3.541377544E0,-6.720840454E0
3.506514495E0,-7.086942673E0,-3.457628727E0,-6.759125710E0
3.526745172E0,-6.993024349E0,-3.376272678E0,-6.687341213E0
3.547054495E0,-6.531209469E0,-3.189632654E0,-6.625127792E0
3.567324495E0,-6.098108292E0,-4.055834293E0,-6.385845661E0
3.587594495E0,-6.134000778E0,-3.488735437E0,-6.160321712E0
3.607864495E0,-6.117250919E0,-3.639483213E0,-5.459224701E0
3.628134495E0,-7.101299286E0,-3.110071182E0,-5.140381336E0
3.648404495E0,-7.855038643E0,-7.974081635E-1,-5.906682491E0
3.668674495E0,-7.855038643E0,6.221339107E-1,-7.053442955E0
3.688944495E0,-7.376473904E0,-1.417747438E-1,-8.054241180E0
3.709214495E0,-6.849454880E0,-1.633101404E-1,-8.008777618E0
3.729484495E0,-6.854240417E0,4.067798555E-1,-8.049455643E0
3.749754495E0,-6.684350014E0,3.780659735E-1,-6.330810547E0
3.770024443E0,-6.650850773E0,-5.102694035E-1,-6.531807423E0
3.790373141E0,-6.507281303E0,-2.487937450E0,-7.953742504E0
3.810564547E0,-5.535196781E0,-2.784647465E0,-9.366106033E0
3.830834547E0,-4.213760853E0,-1.642672777E0,-9.062217712E0
3.851104443E0,-3.200998545E0,-2.861217737E0,-9.976874352E0
3.871374443E0,-1.879562140E0,-1.948953986E0,-9.388239861E0
3.891644443E0,-1.180259824E0,-8.691928387E-1,-9.842875481E0
3.911914391E0,-9.361918569E-1,-1.645065546E0,-1.115474129E1
3.932184391E0,-3.062812984E-1,-2.229512453E0,-1.094895840E1
3.952454391E0,8.853443712E-2,-2.679363251E0,-1.041057301E1
3.972724287E0,8.452646136E-1,-3.062214851E0,-9.047860146E0
3.992994287E0,1.384247899E0,-3.723232031E0,-6.993622303E0
4.013264287E0,1.422533035E0,-4.314857483E0,-7.489534855E0
4.033534287E0,2.221735716E0,-2.210369825E0,-9.448060036E0
4.053804235E0,3.279961586E0,-1.661815286E0,-1.027836990E1
4.074074235E0,3.023929596E0,-1.745564103E0,-1.050628567E1
4.094344235E0,3.476771355E0,-3.074178934E0,-1.105902767E1
4.114614182E0,2.483151674E0,-2.420938253E0,-9.361320496E0
4.134884182E0,3.534198999E0,-2.901297510E-1,-7.625925541E0
4.155154130E0,3.967299938E0,-2.370688915E0,-6.862017155E0
4.175424130E0,5.114060402E0,-3.297309637E0,-7.158727169E0
4.195694130E0,3.330210924E0,-4.139583111E0,-7.791030407E0
4.215964078E0,5.149952412E0,-1.846062660E0,-8.380263329E0
4.236234078E0,4.048655987E0,-4.738387108E0,-9.153144836E0
4.256504026E0,2.772683144E0,-3.598805189E0,-8.669795036E0
4.276773974E0,5.317450047E0,-1.046859860E0,-8.487939835E0
4.297043974E0,5.586044312E0,-3.457628727E0,-8.097311974E0
4.317313974E0,3.732803345E0,-2.243869543E0,-7.360322475E0
4.337583922E0,3.390629768E0,-2.834896564E0,-8.873184204E0
4.357853922E0,5.415555954E0,-4.767100811E0,-9.474381447E0
4.378123870E0,4.929812908E0,-2.717648268E0,-7.975277901E0
4.398393870E0,3.107678413E0,-7.122834682E0,-7.247261524E0
4.418663818E0,2.829512656E-1,-3.110071182E0,-8.638688087E0
4.438933818E0,3.368496180E0,-6.729813814E-1,-1.072881889E1
4.459203818E0,7.585247993E0,-4.122833252E0,-9.105288506E0
4.479473766E0,5.978467464E0,-4.910670280E0,-8.598010063E0
4.499743766E0,4.223331928E0,8.733802438E-1,-7.470392227E0
4.520013714E0,6.680162430E0,-2.715255499E0,-5.239085197E0
4.540283714E0,4.113262177E0,-3.756731510E0,-8.681758881E0
4.560553662E0,4.053441525E0,-3.917050600E0,-1.033101177E1
4.580823662E0,3.155534744E0,-3.062214851E0,-1.056849957E1
4.601093610E0,2.621935368E0,-2.121835470E0,-8.954540253E0
4.621493610E0,3.236890793E0,-2.679363251E0,-7.237690449E0
4.641633557E0,3.236890793E0,-3.491128206E0,-7.680960655E0
4.661903557E0,2.700898647E0,-4.989633560E0,-7.369893551E0
4.682173505E0,3.811766386E0,-3.433700562E0,-9.011968613E0
4.702443505E0,4.812564373E0,-1.039083242E0,-1.151186943E1
4.722843505E0,7.235297680E0,-3.945764542E0,-1.308933830E1
4.742983453E0,1.017787075E1,-5.164309502E0,-8.990432739E0
4.763253401E0,7.402794838E0,-3.259024382E0,-5.015954494E0
4.783523401E0,7.232306600E-1,-2.514258385E0,-4.556532383E0
4.803793349E0,-3.230310678E-1,-2.676970243E0,-5.222335339E0
4.824193349E0,2.602792740E0,-2.724826813E0,-7.170691490E0
4.844333297E0,4.439284325E0,-1.003190875E0,-8.921041489E0
4.864733297E0,2.449652195E0,-6.801598072E-1,-9.153144836E0
4.884873245E0,7.273582458E0,-1.429711580E0,-1.016590691E1
4.905143245E0,6.620342255E0,5.335994363E-1,-9.117252350E0
4.925543245E0,3.366103172E0,-1.384247899E0,-7.704888821E0
4.945683193E0,4.769493580E0,-3.440878868E0,-6.476772785E0
4.965953141E0,5.976074696E0,-5.023132801E0,-5.976074696E0
4.986223089E0,4.989633560E0,-3.885943890E0,-6.457630157E0
5.006493089E0,4.563711166E0,-2.830111027E0,-7.350750923E0
5.026893089E0,5.226522923E0,-2.081157446E0,-8.784649849E0
5.047033037E0,6.033502102E0,-2.423331022E0,-1.013719273E1
5.067303037E0,5.236093998E0,-4.554139614E0,-9.548559189E0
5.087572985E0,4.597210407E0,-3.464807272E0,-6.637091637E0
5.107842985E0,3.838087559E0,-3.613162279E0,-5.985645771E0
5.128112932E0,3.500699520E0,-2.003988981E0,-7.365108013E0
5.148382880E0,3.167499065E0,-1.168893814E0,-1.024965572E1
5.168652880E0,2.925823927E0,-5.313262463E0,-1.106620693E1
5.188922828E0,5.985645771E0,-8.181060791E0,-7.204190731E0
5.209192828E0,5.621936798E0,-7.654639721E0,-7.685746193E0
5.229462776E0,3.725624800E0,-5.861218929E0,-7.098906517E0
5.249732776E0,4.527818680E0,-4.360321045E0,-6.809374809E0
5.270002724E0,5.657829285E0,-3.481556892E0,-7.082156658E0
5.290272724E0,2.837289333E0,-2.117049932E0,-9.940981865E0
5.310542672E0,2.291127682E0,-4.738387108E0,-9.248857498E0
5.330812620E0,2.593221426E0,-6.488736629E0,-7.685746193E0
5.351212620E0,3.028715372E0,-4.515854359E0,-9.327820778E0
5.371352568E0,3.460021496E0,-4.582853794E0,-9.318249702E0
5.391622516E0,3.119642496E0,-5.358726501E0,-8.648259163E0
5.411892516E0,3.122035265E0,-4.511068821E0,-8.106883049E0
5.432162464E0,2.830111027E0,-4.915455818E0,-8.219346046E0
5.452432412E0,2.535793781E0,-4.149154663E0,-8.190631866E0
5.472702360E0,2.552543640E0,-1.671386600E0,-8.250452042E0
5.492972360E0,2.834896564E0,-3.771088600E0,-8.576474190E0
5.513242307E0,3.138785124E0,-4.017549038E0,-7.860422611E0
5.533512255E0,2.856431961E0,-6.378666878E0,-9.241679192E0
5.553782203E0,3.469592810E0,-7.134799004E0,-7.810173035E0
5.574052203E0,1.728814363E0,-7.968099594E0,-6.330810547E0
5.594322151E0,-9.314061999E-1,-9.960124493E-1,-5.708078384E0
5.614592099E0,3.534198999E0,1.651645780E0,-1.047996521E1
5.634862047E0,5.657829285E0,-3.558127165E0,-1.265145111E1
5.655131995E0,3.838087559E0,-5.318048477E0,-9.503094673E0
5.675401995E0,2.849253654E0,-5.294120312E0,-7.225726128E0
5.695671891E0,2.545365095E0,-2.188834429E0,-6.191428661E0
5.715941891E0,3.119642496E0,-3.409772366E-2,-9.002396584E0
5.736211839E0,4.412364960E0,-7.716853172E-2,-1.095613670E1
5.756481787E0,4.941776752E0,-1.355534077E0,-1.081017494E1
5.776751735E0,4.838885784E0,-2.085943222E0,-9.522237778E0
5.797021682E0,4.692923546E0,-2.602792740E0,-8.832506180E0
5.817421682E0,4.005585194E0,-2.978466034E0,-8.621937752E0
5.837561578E0,3.893122435E0,-2.466402054E0,-7.939385414E0
5.857831526E0,4.261617184E0,-2.578864574E0,-9.296713829E0
5.878101474E0,2.679363251E0,-3.144168854E0,-9.244071960E0
5.898371422E0,2.782254457E0,-2.686541557E0,-8.703293800E0
5.918641370E0,3.105285645E0,-2.533401012E0,-9.021539688E0
5.938911318E0,3.260818958E0,-3.168097258E0,-9.177073479E0
5.959181266E0,3.548556089E0,-2.873181820E0,-9.136395454E0
5.979451214E0,3.840480328E0,-2.806182861E0,-8.770293236E0
5.999721162E0,4.499104977E0,-2.432902336E0,-8.765507698E0
6.019991057E0,4.745565414E0,-1.386640668E0,-8.904291153E0
6.040300328E0,4.197010994E0,-1.877169371E0,-9.649057388E0
6.060531005E0,3.840480328E0,-2.983251572E0,-1.002473068E1
6.080800953E0,4.920241356E0,-2.200798512E0,-1.014915752E1
6.101070901E0,6.464210510E0,-1.721635938E0,-9.881160736E0
6.121470901E0,5.923432350E0,-3.577269793E0,-9.957731247E0
6.141610745E0,3.361317635E0,-5.854040623E0,-8.063812256E0
6.161880693E0,3.786641955E-1,-5.545366287E0,-4.226323128E0
6.182150641E0,-1.599003673E0,-3.016751051E0,-3.603590965E0
6.202420485E0,-2.614158630E0,-4.771886349E0,-4.637888432E0
6.222820485E0,1.173081279E0,-4.745565414E0,-7.000801086E0
6.242960380E0,4.084548473E0,-6.412166595E0,-1.216750336E1
6.263230276E0,2.444866419E0,-6.280561447E0,-1.219861031E1
6.283500224E0,1.206580877E0,-4.441677094E0,-9.289535522E0
6.303770172E0,3.954139352E-1,-4.944169998E0,-8.116454124E0
6.324170172E0,7.710871100E-1,-4.546961308E0,-7.932207108E0
6.344310016E0,1.156331539E0,-5.078167915E0,-8.121239662E0
6.364579964E0,3.643072546E-1,-5.449653625E0,-8.566903114E0
6.384849860E0,5.844469070E-1,-4.070191383E0,-8.760722160E0
6.405119807E0,3.667000830E-1,-4.745565414E0,-8.710473061E0
6.425389703E0,1.196411345E-2,-5.035097122E0,-8.444869041E0
6.445659651E0,7.417750359E-2,-4.633102894E0,-8.464012146E0
6.465929599E0,-4.857429862E-1,-5.173880577E0,-8.157132149E0
6.486199495E0,-1.046261668E0,-4.975276470E0,-8.209774017E0
6.506469391E0,-3.062812984E-1,-4.982454777E0,-8.346763611E0
6.526700016E0,-4.594219327E-1,-6.354738712E0,-8.609973907E0
6.547009182E0,1.060618639E0,-4.446462631E0,-8.959325790E0
6.567279078E0,3.116651475E-1,-5.159523964E0,-8.729615211E0
6.587549026E0,8.213363886E-1,-5.473581791E0,-9.229715347E0
6.607819026E0,1.587637782E0,-5.018347263E0,-9.390632629E0
6.628088922E0,9.505487680E-1,-5.789434433E0,-9.129216194E0
6.648358818E0,8.285148144E-1,-6.761518478E0,-9.818947792E0
6.668628714E0,1.043868899E0,-7.329215527E0,-1.034536839E1
6.688898662E0,-5.503492355E-1,-5.380261898E0,-8.715258598E0
6.709168557E0,-9.074779749E-1,-2.825325251E0,-6.900302410E0
6.729438453E0,-3.794418573E0,-3.873979807E0,-1.980060697E0
6.749708349E0,-4.271188259E0,-3.594019651E0,-1.685743570E0
6.769978297E0,-2.386840582E0,-3.649054527E0,-8.935398102E0
6.790248193E0,4.289134443E-1,-4.141975880E0,-1.589791393E1
6.810518089E0,1.503889084E0,-4.649852753E0,-1.131266689E1
6.830787985E0,1.690529227E0,-4.925027370E0,-9.014361382E0
6.851057880E0,3.395415306E0,-4.405784607E0,-7.747959614E0
6.871327776E0,2.667398930E0,-4.781457901E0,-7.661818027E0
6.891597620E0,2.068595171E0,-5.315655708E0,-8.930612564E0
6.911867620E0,2.787040234E0,-4.747958183E0,-9.515059471E0
6.932137516E0,3.924229145E0,-4.267001152E0,-9.565308571E0
6.952407412E0,2.995215654E0,-4.334000111E0,-8.564510345E0
6.972677307E0,3.751945972E0,-2.889931440E0,-7.757531166E0
6.992947203E0,5.059025288E0,-3.180061340E0,-8.528617859E0
7.013217099E0,5.410770416E0,-3.268595695E0,-8.279166222E0
7.033486995E0,4.963312149E0,-2.382653236E0,-6.378666878E0
7.053756891E0,5.310271740E0,-2.710469961E0,-5.624329567E0
7.074026787E0,5.822933674E0,-3.500699520E0,-7.204190731E0
7.094296682E0,6.787839413E0,-3.735196114E0,-8.001599312E0
7.114566526E0,7.500900745E0,-3.890729666E0,-7.194619656E0
7.134836422E0,6.141179085E0,-2.985644341E0,-5.310869694E0
7.155106318E0,6.157928944E0,-2.569293261E0,-7.724031448E0
7.175376214E0,6.468996048E0,-2.337189436E0,-7.331608772E0
7.195646110E0,6.031109333E0,-2.607578516E0,-7.791030407E0
7.215915953E0,5.782256126E0,-3.016751051E0,-6.567699909E0
7.236185849E0,5.897111416E0,-3.340380430E0,-6.579664230E0
7.256455745E0,5.870790482E0,-3.266202927E0,-6.917052269E0
7.276725641E0,5.739185333E0,-3.074178934E0,-7.369893551E0
7.296995485E0,5.691328526E0,-3.218346357E0,-7.534998417E0
7.317265380E0,5.741578102E0,-3.376272678E0,-7.539783955E0
7.337535224E0,5.499902725E0,-3.500699520E0,-7.628318787E0
7.357805120E0,4.977669239E0,-3.749552965E0,-7.556533813E0
7.378074964E0,4.984847546E0,-3.888336897E0,-7.310073376E0
7.398344860E0,5.260022163E0,-3.613162279E0,-7.573283672E0
7.418614703E0,5.281557560E0,-3.582055569E0,-7.769495010E0
7.438884599E0,5.161916733E0,-3.617947817E0,-7.953742504E0
7.459154443E0,5.204987526E0,-3.577269793E0,-7.881958008E0
7.479424287E0,5.264808178E0,-3.125026464E0,-7.948956966E0
7.499694130E0,5.274379253E0,-3.196810961E0,-7.920242786E0
7.519964026E0,4.984847546E0,-3.605983734E0,-7.707281590E0
7.540233870E0,4.881956577E0,-3.594019651E0,-7.712067604E0
7.560503714E0,4.917848587E0,-3.560520172E0,-7.836493969E0
7.580773610E0,4.886742115E0,-3.562912941E0,-7.884350777E0
7.601043453E0,4.886742115E0,-3.546163082E0,-7.836493969E0
7.621443453E0,4.910670280E0,-3.522234917E0,-7.774280548E0
7.641741057E0,4.934598446E0,-3.479164124E0,-7.731209755E0
7.661853610E0,4.963312149E0,-3.476771355E0,-7.812565804E0
7.682123349E0,4.965705395E0,-3.486342669E0,-7.862815380E0
7.702393089E0,4.982454777E0,-3.531806231E0,-7.860422611E0
7.722793089E0,4.972883701E0,-3.558127165E0,-7.824530125E0
7.742932724E0,4.953741074E0,-3.572484255E0,-7.791030407E0
7.763202464E0,4.939383984E0,-3.572484255E0,-7.824530125E0
7.783472255E0,4.939383984E0,-3.574877024E0,-7.824530125E0
7.803742047E0,4.956133842E0,-3.584448338E0,-7.822137356E0
7.824142047E0,4.939383984E0,-3.625126362E0,-7.750352383E0
7.844281682E0,4.915455818E0,-3.627519131E0,-7.764709473E0
7.864551526E0,4.920241356E0,-3.555734396E0,-7.779066563E0
7.884821370E0,4.934598446E0,-3.548556089E0,-7.793423176E0
7.905091162E0,4.975276470E0,-3.548556089E0,-7.834101200E0
7.925491162E0,4.965705395E0,-3.558127165E0,-7.831708431E0
7.945630797E0,4.927420139E0,-3.582055569E0,-7.843672752E0
7.965900589E0,4.910670280E0,-3.586841106E0,-7.829315662E0
7.986170432E0,4.881956577E0,-3.579662561E0,-7.826922894E0
8.006440276E0,4.889134884E0,-3.550948858E0,-7.781459332E0
8.026710068E0,4.941776752E0,-3.543770313E0,-7.745566845E0
8.046979912E0,4.951348305E0,-3.541377544E0,-7.783852100E0
8.067249703E0,4.977669239E0,-3.555734396E0,-7.819744587E0
8.087519495E0,4.984847546E0,-3.538984776E0,-7.846065521E0
8.107789287E0,4.968098164E0,-3.541377544E0,-7.855636597E0
8.128059130E0,4.939383984E0,-3.538984776E0,-7.858029366E0
8.148328922E0,4.903491974E0,-3.512663603E0,-7.843672752E0
8.168598714E0,4.901099205E0,-3.522234917E0,-7.836493969E0
8.188868505E0,4.893920422E0,-3.531806231E0,-7.834101200E0
8.209138297E0,4.884349346E0,-3.536591768E0,-7.836493969E0
8.229408089E0,4.889134884E0,-3.529413462E0,-7.853243828E0
8.249677932E0,4.881956577E0,-3.519842148E0,-7.855636597E0
8.269947724E0,4.934598446E0,-3.529413462E0,-7.841279984E0
8.290217516E0,4.922634602E0,-3.536591768E0,-7.838887215E0
8.310487307E0,4.917848587E0,-3.529413462E0,-7.831708431E0
8.330757099E0,4.891527653E0,-3.510270834E0,-7.862815380E0
8.351026891E0,4.865206718E0,-3.500699520E0,-7.879564762E0
8.371296630E0,4.905884743E0,-3.512663603E0,-7.896314621E0
8.391566422E0,4.901099205E0,-3.517449379E0,-7.855636597E0
8.411836214E0,4.925027370E0,-3.500699520E0,-7.826922894E0
8.432106005E0,4.965705395E0,-3.500699520E0,-7.824530125E0
8.452375745E0,4.915455818E0,-3.512663603E0,-7.858029366E0
8.472645537E0,4.917848587E0,-3.500699520E0,-7.889136314E0
8.492915328E0,4.896313190E0,-3.462414265E0,-7.891529083E0
8.513185120E0,4.867599487E0,-3.397808075E0,-7.846065521E0
8.533454860E0,4.896313190E0,-3.381058455E0,-7.846065521E0
8.553724651E0,4.901099205E0,-3.448057413E0,-7.889136314E0
8.573994391E0,4.877170563E0,-3.476771355E0,-7.908278942E0
8.594264182E0,4.862813950E0,-3.486342669E0,-7.915457249E0
8.614533922E0,4.865206718E0,-3.469592810E0,-7.901100159E0
8.634803714E0,4.884349346E0,-3.462414265E0,-7.891529083E0
8.655073453E0,4.922634602E0,-3.450450182E0,-7.896314621E0
8.675343193E0,4.908277512E0,-3.440878868E0,-7.893921852E0
8.695612985E0,4.956133842E0,-3.419343472E0,-7.893921852E0
8.715882724E0,4.972883701E0,-3.438486099E0,-7.889136314E0
8.736152464E0,4.956133842E0,-3.462414265E0,-7.898707390E0
8.756422203E0,4.898705959E0,-3.479164124E0,-7.886743546E0
8.776691943E0,4.846064091E0,-3.488735437E0,-7.867600918E0
8.797091943E0,4.807778835E0,-3.445664644E0,-7.850851059E0
8.817231422E0,4.829314232E0,-3.414557934E0,-7.877171993E0
8.837501214E0,4.862813950E0,-3.431307554E0,-7.879564762E0
8.857770953E0,4.889134884E0,-3.469592810E0,-7.877171993E0
8.878040641E0,4.903491974E0,-3.471985579E0,-7.901100159E0
8.898310380E0,4.908277512E0,-3.467200041E0,-7.915457249E0
8.918580120E0,4.920241356E0,-3.474378586E0,-7.910671711E0
8.938849860E0,4.898705959E0,-3.440878868E0,-7.908278942E0
8.959119599E0,4.898705959E0,-3.436093330E0,-7.853243828E0
8.979389235E0,4.932205677E0,-3.383451223E0,-7.905886173E0
8.999659026E0,4.922634602E0,-3.376272678E0,-7.891529083E0
9.019928714E0,4.915455818E0,-3.354737282E0,-7.896314621E0
9.040198453E0,4.877170563E0,-3.371487141E0,-7.929814339E0
9.060468193E0,4.867599487E0,-3.381058455E0,-7.951349735E0
9.080737880E0,4.848456860E0,-3.366701365E0,-7.915457249E0
9.101007620E0,4.824528694E0,-3.357130051E0,-7.884350777E0
9.121407620E0,4.783850670E0,-3.371487141E0,-7.874779224E0
9.141547047E0,4.783850670E0,-3.397808075E0,-7.922635555E0
9.161816735E0,4.769493580E0,-3.436093330E0,-8.011170387E0
9.182086422E0,4.697709084E0,-3.476771355E0,-8.044670105E0
9.202356162E0,4.721637249E0,-3.479164124E0,-8.032705307E0
9.222756162E0,4.752744198E0,-3.433700562E0,-8.037490845E0
9.242895537E0,4.798207760E0,-3.400201082E0,-8.015955925E0
9.263165276E0,4.841278553E0,-3.335594654E0,-8.001599312E0
9.283434964E0,4.941776752E0,-3.290131092E0,-7.932207108E0
9.303704651E0,4.984847546E0,-3.263810158E0,-7.862815380E0
9.324104651E0,5.013561726E0,-3.280559778E0,-7.819744587E0
9.344244026E0,5.023132801E0,-3.299702406E0,-7.814958572E0
9.364513714E0,4.992026329E0,-3.352344513E0,-7.834101200E0
9.384783401E0,4.972883701E0,-3.383451223E0,-7.874779224E0
9.405053089E0,4.948955536E0,-3.407379389E0,-7.915457249E0
9.425322776E0,4.975276470E0,-3.409772158E0,-7.948956966E0
9.445592464E0,4.980062008E0,-3.390629768E0,-7.963313580E0
9.465862151E0,4.963312149E0,-3.381058455E0,-7.910671711E0
9.486131839E0,4.953741074E0,-3.378665686E0,-7.874779224E0
9.506401474E0,4.881956577E0,-3.381058455E0,-7.872386456E0
9.526801474E0,4.831707001E0,-3.414557934E0,-7.884350777E0
9.546940849E0,4.824528694E0,-3.467200041E0,-7.936992645E0
9.567210485E0,4.810171604E0,-3.510270834E0,-7.917850018E0
9.587480172E0,4.769493580E0,-3.527020693E0,-7.884350777E0
9.607749860E0,4.709673405E0,-3.517449379E0,-7.898707390E0
9.628019495E0,4.707280159E0,-3.500699520E0,-7.932207108E0
9.648289182E0,4.779065132E0,-3.479164124E0,-7.992027760E0
9.668558818E0,4.812564373E0,-3.421736479E0,-7.939385414E0
9.688828505E0,4.869992256E0,-3.412165165E0,-7.874779224E0
9.709098141E0,4.874777794E0,-3.443271875E0,-7.853243828E0
9.729367776E0,4.879563808E0,-3.483949661E0,-7.872386456E0
9.749637464E0,4.908277512E0,-3.474378586E0,-7.891529083E0
9.769907099E0,4.946562767E0,-3.440878868E0,-7.884350777E0
9.790176735E0,4.968098164E0,-3.455235958E0,-7.903493404E0
9.810446370E0,4.982454777E0,-3.445664644E0,-7.872386456E0
9.830716057E0,4.975276470E0,-3.436093330E0,-7.853243828E0
9.850985693E0,4.960919380E0,-3.426522017E0,-7.829315662E0
9.871255328E0,4.965705395E0,-3.438486099E0,-7.850851059E0
9.891524964E0,4.970490932E0,-3.476771355E0,-7.824530125E0
9.911794599E0,4.970490932E0,-3.500699520E0,-7.836493969E0
9.932064235E0,4.944169998E0,-3.500699520E0,-7.834101200E0
9.952333922E0,4.925027370E0,-3.488735437E0,-7.841279984E0
9.972603505E0,4.891527653E0,-3.474378586E0,-7.836493969E0
9.992873141E0,4.884349346E0,-3.462414265E0,-7.881958008E0
1.001314278E1,4.862813950E0,-3.488735437E0,-7.903493404E0
1.003341241E1,4.877170563E0,-3.519842148E0,-7.884350777E0
1.005368205E1,4.850849628E0,-3.531806231E0,-7.874779224E0
1.007395168E1,4.822135925E0,-3.522234917E0,-7.848458290E0
1.009422132E1,4.805386066E0,-3.524627686E0,-7.872386456E0
1.011449090E1,4.841278553E0,-3.531806231E0,-7.860422611E0
1.013476054E1,4.881956577E0,-3.543770313E0,-7.869993687E0
1.015503017E1,4.896313190E0,-3.555734396E0,-7.853243828E0
1.017543017E1,4.908277512E0,-3.507878065E0,-7.881958008E0
1.019556939E1,4.915455818E0,-3.471985579E0,-7.860422611E0
1.021583903E1,4.948955536E0,-3.433700562E0,-7.884350777E0
1.023610861E1,4.994419098E0,-3.419343472E0,-7.922635555E0
1.025650861E1,5.006382942E0,-3.397808075E0,-7.860422611E0
1.027664783E1,4.992026329E0,-3.397808075E0,-7.822137356E0
1.029691746E1,4.963312149E0,-3.381058455E0,-7.841279984E0
1.031731746E1,4.953741074E0,-3.419343472E0,-7.826922894E0
1.033745668E1,4.939383984E0,-3.467200041E0,-7.822137356E0
1.035772627E1,4.925027370E0,-3.488735437E0,-7.848458290E0
1.037799585E1,4.886742115E0,-3.512663603E0,-7.908278942E0
1.039826538E1,4.829314232E0,-3.498306751E0,-7.936992645E0
1.041853507E1,4.791028976E0,-3.471985579E0,-7.901100159E0
1.043880465E1,4.776672363E0,-3.498306751E0,-7.853243828E0
1.045907424E1,4.735994339E0,-3.481556892E0,-7.862815380E0
1.047934382E1,4.791028976E0,-3.476771355E0,-7.838887215E0
1.049961345E1,4.788636208E0,-3.469592810E0,-7.879564762E0
1.051988304E1,4.795814991E0,-3.469592810E0,-7.910671711E0
1.054015262E1,4.846064091E0,-3.464807272E0,-7.963313580E0
1.056042220E1,4.843671322E0,-3.443271875E0,-7.984848976E0
1.058069179E1,4.881956577E0,-3.397808075E0,-8.015955925E0
1.060096137E1,4.893920422E0,-3.364308596E0,-8.001599312E0
1.062136137E1,4.865206718E0,-3.361915827E0,-7.958528042E0
1.064150048E1,4.865206718E0,-3.361915827E0,-7.898707390E0
1.066177007E1,4.867599487E0,-3.404986620E0,-7.872386456E0
1.068203965E1,4.896313190E0,-3.426522017E0,-7.858029366E0
1.070230918E1,4.920241356E0,-3.428914785E0,-7.886743546E0
1.072270918E1,4.956133842E0,-3.428914785E0,-7.872386456E0
1.074284835E1,4.960919380E0,-3.426522017E0,-7.893921852E0
1.076311793E1,4.908277512E0,-3.409772158E0,-7.898707390E0
1.078338746E1,4.903491974E0,-3.409772158E0,-7.936992645E0
1.080365705E1,4.908277512E0,-3.381058455E0,-7.963313580E0
1.082405705E1,4.891527653E0,-3.330809116E0,-7.939385414E0
1.084419616E1,4.898705959E0,-3.318845034E0,-7.932207108E0
1.086446569E1,4.879563808E0,-3.340380430E0,-7.913064480E0
1.088473528E1,4.862813950E0,-3.390629768E0,-7.927421570E0
1.090500481E1,4.838885784E0,-3.409772158E0,-7.901100159E0
1.092540481E1,4.817350388E0,-3.407379389E0,-7.901100159E0
1.094554392E1,4.810171604E0,-3.414557934E0,-7.920242786E0
1.096581345E1,4.793421745E0,-3.407379389E0,-7.922635555E0
1.098608304E1,4.817350388E0,-3.385843992E0,-7.965706348E0
1.100635257E1,4.836492538E0,-3.376272678E0,-7.989634991E0
1.102662210E1,4.865206718E0,-3.371487141E0,-7.965706348E0
1.104689163E1,4.860421181E0,-3.373879910E0,-7.968099594E0
1.106716116E1,4.869992256E0,-3.352344513E0,-7.960920811E0
1.108743069E1,4.860421181E0,-3.342773199E0,-7.946564198E0
1.110770028E1,4.881956577E0,-3.349951744E0,-7.934599876E0
1.112796981E1,4.877170563E0,-3.359523058E0,-7.932207108E0
1.114823934E1,4.884349346E0,-3.376272678E0,-7.920242786E0
1.116850887E1,4.879563808E0,-3.402593851E0,-7.920242786E0
1.118877840E1,4.879563808E0,-3.416950703E0,-7.920242786E0
1.120904793E1,4.836492538E0,-3.390629768E0,-7.908278942E0
1.122931741E1,4.860421181E0,-3.390629768E0,-7.922635555E0
1.124958694E1,4.848456860E0,-3.378665686E0,-7.910671711E0
1.126985647E1,4.843671322E0,-3.371487141E0,-7.939385414E0
1.129012601E1,4.853242397E0,-3.361915827E0,-7.953742504E0
1.131039554E1,4.879563808E0,-3.371487141E0,-7.920242786E0
1.133066507E1,4.886742115E0,-3.381058455E0,-7.920242786E0
1.135093455E1,4.860421181E0,-3.409772158E0,-7.936992645E0
1.137120408E1,4.869992256E0,-3.385843992E0,-7.968099594E0
1.139147361E1,4.889134884E0,-3.330809116E0,-7.984848976E0
1.141174309E1,4.877170563E0,-3.261417150E0,-7.958528042E0
1.143201262E1,4.865206718E0,-3.270988464E0,-7.831708431E0
1.145228210E1,4.901099205E0,-3.278167009E0,-7.891529083E0
1.147255163E1,4.879563808E0,-3.306880951E0,-7.968099594E0
1.149282111E1,4.843671322E0,-3.342773199E0,-8.015955925E0
1.151309064E1,4.812564373E0,-3.407379389E0,-7.977670670E0
1.153336012E1,4.774279594E0,-3.443271875E0,-7.951349735E0
1.155362965E1,4.795814991E0,-3.455235958E0,-7.932207108E0
1.157389913E1,4.824528694E0,-3.503092289E0,-7.886743546E0
1.159416861E1,4.862813950E0,-3.591626883E0,-7.862815380E0
1.161443814E1,4.893920422E0,-3.608376503E0,-7.855636597E0
1.163470762E1,4.898705959E0,-3.577269793E0,-7.826922894E0
1.165497710E1,4.889134884E0,-3.527020693E0,-7.862815380E0
1.167524658E1,4.879563808E0,-3.445664644E0,-7.886743546E0
1.169551611E1,4.829314232E0,-3.376272678E0,-7.891529083E0
1.171578559E1,4.802993298E0,-3.311666489E0,-7.917850018E0
1.173605507E1,4.771886349E0,-3.316452265E0,-7.958528042E0
1.175632455E1,4.831707001E0,-3.354737282E0,-7.963313580E0
1.177659403E1,4.884349346E0,-3.409772158E0,-7.932207108E0
1.179699403E1,4.929812908E0,-3.452843189E0,-7.889136314E0
1.181713298E1,4.925027370E0,-3.474378586E0,-7.886743546E0
1.183740246E1,4.925027370E0,-3.486342669E0,-7.881958008E0
1.185767194E1,4.889134884E0,-3.460021496E0,-7.884350777E0
1.187794142E1,4.867599487E0,-3.385843992E0,-7.915457249E0
1.189821090E1,4.881956577E0,-3.349951744E0,-7.913064480E0
1.191848038E1,4.893920422E0,-3.318845034E0,-7.932207108E0
1.193874986E1,4.865206718E0,-3.306880951E0,-7.925028801E0
1.195901934E1,4.874777794E0,-3.326023579E0,-7.975277901E0
1.197928877E1,4.869992256E0,-3.297309637E0,-7.977670670E0
1.199955825E1,4.889134884E0,-3.297309637E0,-7.965706348E0
1.201982772E1,4.913063049E0,-3.371487141E0,-7.936992645E0
1.204009720E1,4.898705959E0,-3.455235958E0,-7.925028801E0
1.206036668E1,4.829314232E0,-3.460021496E0,-7.932207108E0
1.208063616E1,4.805386066E0,-3.414557934E0,-7.917850018E0
1.210090559E1,4.774279594E0,-3.385843992E0,-7.922635555E0
1.212130559E1,4.788636208E0,-3.349951744E0,-7.929814339E0
1.214144455E1,4.817350388E0,-3.328416348E0,-7.958528042E0
1.216171397E1,4.848456860E0,-3.321237803E0,-7.980063438E0
1.218198345E1,4.881956577E0,-3.321237803E0,-7.970492363E0
1.220225288E1,4.925027370E0,-3.352344513E0,-7.970492363E0
1.222265288E1,4.936991215E0,-3.393022537E0,-7.972885132E0
1.224279184E1,4.939383984E0,-3.404986620E0,-7.946564198E0
1.226306127E1,4.915455818E0,-3.371487141E0,-7.929814339E0
1.228333069E1,4.862813950E0,-3.366701365E0,-7.917850018E0
1.230360017E1,4.812564373E0,-3.361915827E0,-7.927421570E0
1.232400017E1,4.810171604E0,-3.373879910E0,-7.936992645E0
1.234413908E1,4.812564373E0,-3.345165968E0,-7.948956966E0
1.236440850E1,4.807778835E0,-3.335594654E0,-7.951349735E0
1.238467793E1,4.812564373E0,-3.323630571E0,-7.932207108E0
1.240494741E1,4.843671322E0,-3.340380430E0,-7.951349735E0
1.242534741E1,4.872385025E0,-3.361915827E0,-7.948956966E0
1.244548632E1,4.889134884E0,-3.347558975E0,-7.977670670E0
1.246575575E1,4.925027370E0,-3.364308596E0,-7.970492363E0
1.248602512E1,4.941776752E0,-3.388236761E0,-7.960920811E0
1.250629460E1,4.877170563E0,-3.400201082E0,-7.925028801E0
1.252669460E1,4.841278553E0,-3.395415306E0,-7.925028801E0
1.254683350E1,4.800600529E0,-3.352344513E0,-7.951349735E0
1.256710293E1,4.783850670E0,-3.261417150E0,-7.975277901E0
1.258737236E1,4.822135925E0,-3.230310678E0,-7.960920811E0
1.260764184E1,4.891527653E0,-3.309273720E0,-7.946564198E0
1.262791127E1,4.901099205E0,-3.400201082E0,-7.932207108E0
1.264818069E1,4.884349346E0,-3.440878868E0,-7.939385414E0
1.266845012E1,4.848456860E0,-3.424129248E0,-7.946564198E0
1.268871955E1,4.846064091E0,-3.400201082E0,-7.972885132E0
1.270898897E1,4.865206718E0,-3.381058455E0,-7.968099594E0
1.272925840E1,4.872385025E0,-3.364308596E0,-7.936992645E0
1.274952783E1,4.872385025E0,-3.359523058E0,-7.917850018E0
1.276979731E1,4.862813950E0,-3.345165968E0,-7.908278942E0
1.279006674E1,4.867599487E0,-3.357130051E0,-7.917850018E0
1.281033611E1,4.869992256E0,-3.361915827E0,-7.932207108E0
1.283073611E1,4.893920422E0,-3.378665686E0,-7.913064480E0
1.285087496E1,4.879563808E0,-3.369094372E0,-7.893921852E0
1.287114439E1,4.881956577E0,-3.364308596E0,-7.922635555E0
1.289141382E1,4.879563808E0,-3.373879910E0,-7.944170952E0
1.291168324E1,4.893920422E0,-3.397808075E0,-7.944170952E0
1.293195267E1,4.886742115E0,-3.412165165E0,-7.920242786E0
1.295222210E1,4.865206718E0,-3.426522017E0,-7.925028801E0
1.297249153E1,4.867599487E0,-3.448057413E0,-7.901100159E0
1.299276095E1,4.843671322E0,-3.457628727E0,-7.884350777E0
1.301303038E1,4.838885784E0,-3.431307554E0,-7.896314621E0
1.303329976E1,4.829314232E0,-3.426522017E0,-7.915457249E0
1.305356918E1,4.848456860E0,-3.433700562E0,-7.922635555E0
1.307383861E1,4.886742115E0,-3.419343472E0,-7.941778183E0
1.309410804E1,4.908277512E0,-3.400201082E0,-7.901100159E0
1.311437741E1,4.932205677E0,-3.412165165E0,-7.884350777E0
1.313464684E1,4.901099205E0,-3.426522017E0,-7.867600918E0
1.315491627E1,4.901099205E0,-3.407379389E0,-7.893921852E0
1.317518559E1,4.893920422E0,-3.400201082E0,-7.896314621E0
1.319545507E1,4.869992256E0,-3.424129248E0,-7.910671711E0
1.321572444E1,4.879563808E0,-3.431307554E0,-7.889136314E0
1.323599387E1,4.893920422E0,-3.448057413E0,-7.884350777E0
1.325626325E1,4.901099205E0,-3.474378586E0,-7.879564762E0
1.327653262E1,4.903491974E0,-3.471985579E0,-7.898707390E0
1.329680205E1,4.889134884E0,-3.476771355E0,-7.901100159E0
1.331707147E1,4.905884743E0,-3.460021496E0,-7.889136314E0
1.333734085E1,4.879563808E0,-3.464807272E0,-7.867600918E0
1.335761028E1,4.891527653E0,-3.431307554E0,-7.860422611E0
1.337787970E1,4.881956577E0,-3.424129248E0,-7.858029366E0
1.339814908E1,4.893920422E0,-3.450450182E0,-7.881958008E0
1.341841850E1,4.889134884E0,-3.462414265E0,-7.893921852E0
1.343868788E1,4.891527653E0,-3.469592810E0,-7.881958008E0
1.345895726E1,4.901099205E0,-3.474378586E0,-7.901100159E0
1.347922668E1,4.889134884E0,-3.471985579E0,-7.872386456E0
1.349962668E1,4.872385025E0,-3.479164124E0,-7.862815380E0
1.351976548E1,4.869992256E0,-3.495913982E0,-7.877171993E0
1.354003486E1,4.867599487E0,-3.469592810E0,-7.862815380E0
1.356030424E1,4.891527653E0,-3.455235958E0,-7.855636597E0
1.358057361E1,4.896313190E0,-3.455235958E0,-7.879564762E0
1.360084304E1,4.898705959E0,-3.433700562E0,-7.884350777E0
1.362124304E1,4.929812908E0,-3.426522017E0,-7.905886173E0
1.364138278E1,4.951348305E0,-3.431307554E0,-7.881958008E0
1.366165194E1,4.932205677E0,-3.445664644E0,-7.896314621E0
1.368192116E1,4.917848587E0,-3.462414265E0,-7.905886173E0
1.370219043E1,4.879563808E0,-3.460021496E0,-7.884350777E0
1.372259043E1,4.865206718E0,-3.443271875E0,-7.905886173E0
1.374272913E1,4.855635166E0,-3.397808075E0,-7.910671711E0
1.376299840E1,4.860421181E0,-3.390629768E0,-7.865208149E0
1.378326767E1,4.879563808E0,-3.445664644E0,-7.874779224E0
1.380353705E1,4.891527653E0,-3.486342669E0,-7.872386456E0
1.382393705E1,4.838885784E0,-3.464807272E0,-7.862815380E0
1.384407575E1,4.843671322E0,-3.438486099E0,-7.884350777E0
1.386434512E1,4.879563808E0,-3.424129248E0,-7.896314621E0
1.388461444E1,4.901099205E0,-3.428914785E0,-7.905886173E0
1.390488382E1,4.891527653E0,-3.416950703E0,-7.901100159E0
1.392528382E1,4.903491974E0,-3.421736479E0,-7.944170952E0
1.394542257E1,4.908277512E0,-3.416950703E0,-7.941778183E0
1.396569194E1,4.901099205E0,-3.412165165E0,-7.910671711E0
1.398596127E1,4.869992256E0,-3.421736479E0,-7.877171993E0
1.400623059E1,4.877170563E0,-3.431307554E0,-7.867600918E0
1.402663059E1,4.872385025E0,-3.426522017E0,-7.908278942E0
1.404676934E1,4.891527653E0,-3.416950703E0,-7.901100159E0
1.406703871E1,4.893920422E0,-3.424129248E0,-7.886743546E0
1.408730809E1,4.901099205E0,-3.409772158E0,-7.908278942E0
1.410757746E1,4.891527653E0,-3.416950703E0,-7.917850018E0
1.412784679E1,4.884349346E0,-3.433700562E0,-7.917850018E0
1.414811616E1,4.884349346E0,-3.409772158E0,-7.908278942E0
1.416838554E1,4.874777794E0,-3.397808075E0,-7.896314621E0
1.418865491E1,4.850849628E0,-3.400201082E0,-7.905886173E0
1.420888491E1,4.841278553E0,-3.407379389E0,-7.922635555E0
1.422919356E1,4.860421181E0,-3.428914785E0,-7.932207108E0
1.424946293E1,4.877170563E0,-3.443271875E0,-7.913064480E0
1.426973226E1,4.898705959E0,-3.452843189E0,-7.910671711E0
1.429000163E1,4.889134884E0,-3.428914785E0,-7.910671711E0
1.431027100E1,4.877170563E0,-3.428914785E0,-7.893921852E0
1.433054033E1,4.891527653E0,-3.395415306E0,-7.920242786E0
1.435080970E1,4.898705959E0,-3.352344513E0,-7.905886173E0
1.437107908E1,4.881956577E0,-3.337987661E0,-7.889136314E0
1.439134840E1,4.891527653E0,-3.369094372E0,-7.917850018E0
1.441161778E1,4.869992256E0,-3.416950703E0,-7.929814339E0
1.443188710E1,4.860421181E0,-3.428914785E0,-7.953742504E0
1.445215647E1,4.831707001E0,-3.412165165E0,-7.920242786E0
1.447242590E1,4.850849628E0,-3.409772158E0,-7.889136314E0
1.449269522E1,4.874777794E0,-3.402593851E0,-7.908278942E0
1.451296460E1,4.903491974E0,-3.407379389E0,-7.929814339E0
1.453323392E1,4.908277512E0,-3.395415306E0,-7.920242786E0
1.455350330E1,4.908277512E0,-3.381058455E0,-7.913064480E0
1.457377262E1,4.879563808E0,-3.369094372E0,-7.910671711E0
1.459404200E1,4.865206718E0,-3.376272678E0,-7.917850018E0
1.461431132E1,4.872385025E0,-3.383451223E0,-7.939385414E0
1.463458069E1,4.869992256E0,-3.402593851E0,-7.932207108E0
1.465485002E1,4.865206718E0,-3.433700562E0,-7.898707390E0
1.467511934E1,4.867599487E0,-3.428914785E0,-7.905886173E0
1.469538871E1,4.913063049E0,-3.409772158E0,-7.910671711E0
1.471565804E1,4.908277512E0,-3.390629768E0,-7.905886173E0
1.473592736E1,4.898705959E0,-3.390629768E0,-7.903493404E0
1.475619674E1,4.881956577E0,-3.402593851E0,-7.905886173E0
1.477646606E1,4.865206718E0,-3.414557934E0,-7.922635555E0
1.479673543E1,4.872385025E0,-3.426522017E0,-7.915457249E0
1.481713543E1,4.884349346E0,-3.457628727E0,-7.929814339E0
1.483727408E1,4.862813950E0,-3.474378586E0,-7.865208149E0
1.485754340E1,4.891527653E0,-3.479164124E0,-7.862815380E0
1.487781278E1,4.901099205E0,-3.479164124E0,-7.872386456E0
1.489808210E1,4.915455818E0,-3.457628727E0,-7.879564762E0
1.491835142E1,4.932205677E0,-3.416950703E0,-7.891529083E0
1.493862075E1,4.917848587E0,-3.404986620E0,-7.874779224E0
1.495889007E1,4.917848587E0,-3.433700562E0,-7.867600918E0
1.497915944E1,4.891527653E0,-3.467200041E0,-7.896314621E0
1.499942877E1,4.879563808E0,-3.483949661E0,-7.869993687E0
1.501969809E1,4.860421181E0,-3.462414265E0,-7.858029366E0
1.503996741E1,4.881956577E0,-3.471985579E0,-7.858029366E0
1.506023674E1,4.910670280E0,-3.486342669E0,-7.879564762E0
1.508050611E1,4.932205677E0,-3.488735437E0,-7.881958008E0
1.510090611E1,4.929812908E0,-3.488735437E0,-7.860422611E0
1.512120267E1,4.915455818E0,-3.481556892E0,-7.860422611E0
1.514131465E1,4.905884743E0,-3.474378586E0,-7.867600918E0
1.516158387E1,4.881956577E0,-3.481556892E0,-7.877171993E0
1.518185309E1,4.889134884E0,-3.479164124E0,-7.872386456E0
1.520212231E1,4.891527653E0,-3.498306751E0,-7.850851059E0
1.522252231E1,4.901099205E0,-3.474378586E0,-7.841279984E0
1.524266095E1,4.893920422E0,-3.464807272E0,-7.838887215E0
1.526293022E1,4.908277512E0,-3.498306751E0,-7.848458290E0
1.528319950E1,4.913063049E0,-3.519842148E0,-7.872386456E0
1.530346877E1,4.927420139E0,-3.538984776E0,-7.862815380E0
1.532386877E1,4.903491974E0,-3.522234917E0,-7.853243828E0
1.534400741E1,4.903491974E0,-3.507878065E0,-7.846065521E0
1.536427674E1,4.884349346E0,-3.500699520E0,-7.853243828E0
1.538454606E1,4.898705959E0,-3.500699520E0,-7.867600918E0
1.540481538E1,4.903491974E0,-3.515056372E0,-7.846065521E0
1.542521538E1,4.927420139E0,-3.536591768E0,-7.843672752E0
1.544535403E1,4.922634602E0,-3.524627686E0,-7.869993687E0
1.546562330E1,4.903491974E0,-3.493520975E0,-7.850851059E0
1.548589262E1,4.920241356E0,-3.486342669E0,-7.853243828E0
1.568345116E1,4.936991215E0,-3.524627686E0,-7.855636597E0
1.570372049E1,4.927420139E0,-3.505485058E0,-7.850851059E0
1.572398970E1,4.898705959E0,-3.491128206E0,-7.841279984E0
1.574425908E1,4.879563808E0,-3.495913982E0,-7.841279984E0
1.576452840E1,4.889134884E0,-3.491128206E0,-7.850851059E0
1.578479772E1,4.889134884E0,-3.500699520E0,-7.855636597E0
1.580506700E1,4.889134884E0,-3.519842148E0,-7.855636597E0
1.582533632E1,4.884349346E0,-3.510270834E0,-7.846065521E0
1.584560564E1,4.908277512E0,-3.500699520E0,-7.850851059E0
1.586587496E1,4.936991215E0,-3.524627686E0,-7.860422611E0
1.588614429E1,4.951348305E0,-3.534198999E0,-7.855636597E0
1.590641356E1,4.941776752E0,-3.529413462E0,-7.865208149E0
1.592681356E1,4.903491974E0,-3.515056372E0,-7.865208149E0
1.594695215E1,4.884349346E0,-3.500699520E0,-7.879564762E0
1.596722147E1,4.869992256E0,-3.419343472E0,-7.884350777E0
1.598749080E1,4.898705959E0,-3.404986620E0,-7.836493969E0
1.600776007E1,4.980062008E0,-3.424129248E0,-7.841279984E0
1.602816007E1,5.003990173E0,-3.462414265E0,-7.913064480E0
1.604829871E1,4.975276470E0,-3.495913982E0,-7.893921852E0
1.606856804E1,4.903491974E0,-3.491128206E0,-7.889136314E0
1.608883731E1,4.860421181E0,-3.500699520E0,-7.893921852E0
1.610910658E1,4.822135925E0,-3.519842148E0,-7.812565804E0
1.612950658E1,4.807778835E0,-3.567698479E0,-7.764709473E0
1.614964517E1,4.802993298E0,-3.591626883E0,-7.793423176E0
1.616991450E1,4.802993298E0,-3.601198196E0,-7.817351341E0
1.619018382E1,4.807778835E0,-3.567698479E0,-7.855636597E0
1.621058382E1,4.855635166E0,-3.529413462E0,-7.913064480E0
1.623072236E1,4.869992256E0,-3.495913982E0,-7.951349735E0
1.625099168E1,4.884349346E0,-3.481556892E0,-7.941778183E0
1.627126095E1,4.884349346E0,-3.448057413E0,-7.893921852E0
1.629153028E1,4.884349346E0,-3.428914785E0,-7.865208149E0
1.631179955E1,4.908277512E0,-3.409772158E0,-7.846065521E0
1.633206882E1,4.922634602E0,-3.419343472E0,-7.855636597E0
1.635233814E1,4.932205677E0,-3.428914785E0,-7.874779224E0
1.637260741E1,4.936991215E0,-3.448057413E0,-7.869993687E0
1.639287668E1,4.932205677E0,-3.471985579E0,-7.865208149E0
1.641314600E1,4.936991215E0,-3.481556892E0,-7.865208149E0
1.643341528E1,4.941776752E0,-3.462414265E0,-7.865208149E0
1.645368455E1,4.941776752E0,-3.452843189E0,-7.869993687E0
1.647395387E1,4.932205677E0,-3.428914785E0,-7.869993687E0
1.649422314E1,4.922634602E0,-3.424129248E0,-7.874779224E0
1.651449241E1,4.908277512E0,-3.452843189E0,-7.879564762E0
1.653476168E1,4.879563808E0,-3.491128206E0,-7.908278942E0
1.655503095E1,4.860421181E0,-3.500699520E0,-7.908278942E0
1.657530028E1,4.841278553E0,-3.486342669E0,-7.898707390E0
1.659556955E1,4.841278553E0,-3.462414265E0,-7.879564762E0
1.661583882E1,4.869992256E0,-3.467200041E0,-7.893921852E0
1.663610809E1,4.874777794E0,-3.462414265E0,-7.884350777E0
1.665637736E1,4.869992256E0,-3.419343472E0,-7.903493404E0
1.667664663E1,4.884349346E0,-3.357130051E0,-7.917850018E0
1.669691590E1,4.893920422E0,-3.347558975E0,-7.884350777E0
1.671718517E1,4.917848587E0,-3.424129248E0,-7.865208149E0
1.673745444E1,4.913063049E0,-3.510270834E0,-7.855636597E0
1.675772371E1,4.865206718E0,-3.534198999E0,-7.874779224E0
1.677799298E1,4.846064091E0,-3.510270834E0,-7.874779224E0
1.679826226E1,4.850849628E0,-3.443271875E0,-7.908278942E0
1.681853153E1,4.889134884E0,-3.433700562E0,-7.932207108E0
1.683880080E1,4.927420139E0,-3.395415306E0,-7.917850018E0
1.685907007E1,4.941776752E0,-3.366701365E0,-7.903493404E0
1.687933934E1,4.946562767E0,-3.361915827E0,-7.898707390E0
1.689960861E1,4.913063049E0,-3.361915827E0,-7.898707390E0
1.691987783E1,4.865206718E0,-3.366701365E0,-7.908278942E0
1.694014710E1,4.846064091E0,-3.385843992E0,-7.922635555E0
1.696041637E1,4.836492538E0,-3.395415306E0,-7.922635555E0
1.698068564E1,4.836492538E0,-3.395415306E0,-7.932207108E0
1.700108564E1,4.855635166E0,-3.409772158E0,-7.936992645E0
1.702122413E1,4.879563808E0,-3.428914785E0,-7.922635555E0
1.704149335E1,4.874777794E0,-3.433700562E0,-7.913064480E0
1.706176267E1,4.865206718E0,-3.433700562E0,-7.927421570E0
1.708203194E1,4.850849628E0,-3.385843992E0,-7.932207108E0
1.710230121E1,4.850849628E0,-3.366701365E0,-7.936992645E0
1.712257043E1,4.846064091E0,-3.371487141E0,-7.932207108E0
1.714283970E1,4.841278553E0,-3.376272678E0,-7.927421570E0
1.716310897E1,4.865206718E0,-3.400201082E0,-7.956135273E0
1.718337819E1,4.936991215E0,-3.414557934E0,-7.951349735E0
1.720364741E1,4.917848587E0,-3.428914785E0,-7.893921852E0
1.722391668E1,4.879563808E0,-3.385843992E0,-7.860422611E0
1.724418595E1,4.836492538E0,-3.337987661E0,-7.874779224E0
1.726445522E1,4.826921463E0,-3.285345554E0,-7.893921852E0
1.728472444E1,4.826921463E0,-3.251846075E0,-7.908278942E0
1.730499371E1,4.869992256E0,-3.318845034E0,-7.913064480E0
1.732526293E1,4.893920422E0,-3.404986620E0,-7.936992645E0
1.734553215E1,4.889134884E0,-3.443271875E0,-7.956135273E0
1.736580142E1,4.879563808E0,-3.486342669E0,-7.956135273E0
1.738607064E1,4.874777794E0,-3.471985579E0,-7.951349735E0
1.740633991E1,4.855635166E0,-3.448057413E0,-7.922635555E0
1.742673991E1,4.841278553E0,-3.395415306E0,-7.922635555E0
1.744687835E1,4.841278553E0,-3.361915827E0,-7.922635555E0
1.746714762E1,4.855635166E0,-3.337987661E0,-7.922635555E0
1.748741684E1,4.860421181E0,-3.366701365E0,-7.917850018E0
1.750768606E1,4.860421181E0,-3.376272678E0,-7.903493404E0
1.752808606E1,4.855635166E0,-3.366701365E0,-7.913064480E0
1.754822455E1,4.860421181E0,-3.381058455E0,-7.946564198E0
1.756849377E1,4.879563808E0,-3.357130051E0,-7.936992645E0
1.758876299E1,4.903491974E0,-3.361915827E0,-7.927421570E0
1.760903226E1,4.917848587E0,-3.361915827E0,-7.936992645E0
1.762943226E1,4.922634602E0,-3.337987661E0,-7.951349735E0
1.764957069E1,4.889134884E0,-3.328416348E0,-7.913064480E0
1.766983991E1,4.908277512E0,-3.314059258E0,-7.903493404E0
1.769010918E1,4.922634602E0,-3.337987661E0,-8.013563156E0
1.771037840E1,4.903491974E0,-3.414557934E0,-8.018348694E0
1.773077840E1,4.831707001E0,-3.500699520E0,-7.903493404E0
1.775091684E1,4.826921463E0,-3.562912941E0,-7.826922894E0
1.777118606E1,4.798207760E0,-3.558127165E0,-7.817351341E0
1.779145528E1,4.793421745E0,-3.538984776E0,-7.826922894E0
1.781172450E1,4.822135925E0,-3.538984776E0,-7.822137356E0
1.783199371E1,4.841278553E0,-3.486342669E0,-7.889136314E0
1.785226293E1,4.879563808E0,-3.400201082E0,-7.970492363E0
1.787253215E1,4.898705959E0,-3.314059258E0,-7.980063438E0
1.789280132E1,4.913063049E0,-3.285345554E0,-7.994420528E0
1.791307059E1,4.879563808E0,-3.352344513E0,-7.965706348E0
1.793333981E1,4.822135925E0,-3.428914785E0,-7.917850018E0
1.795360903E1,4.817350388E0,-3.462414265E0,-7.884350777E0
1.797387824E1,4.855635166E0,-3.471985579E0,-7.884350777E0
1.799414746E1,4.874777794E0,-3.481556892E0,-7.865208149E0
1.801441668E1,4.893920422E0,-3.471985579E0,-7.879564762E0
1.803468590E1,4.874777794E0,-3.457628727E0,-7.889136314E0
1.805495512E1,4.869992256E0,-3.419343472E0,-7.908278942E0
1.807522434E1,4.869992256E0,-3.400201082E0,-7.936992645E0
1.809549350E1,4.865206718E0,-3.404986620E0,-7.932207108E0
1.811576272E1,4.869992256E0,-3.400201082E0,-7.913064480E0
1.813603194E1,4.869992256E0,-3.361915827E0,-7.908278942E0
1.815630116E1,4.874777794E0,-3.347558975E0,-7.893921852E0
1.817657033E1,4.865206718E0,-3.357130051E0,-7.898707390E0
1.819683955E1,4.879563808E0,-3.428914785E0,-7.932207108E0
1.821710877E1,4.869992256E0,-3.486342669E0,-7.936992645E0
1.823737799E1,4.831707001E0,-3.495913982E0,-7.903493404E0
1.825764715E1,4.779065132E0,-3.467200041E0,-7.913064480E0
1.827791637E1,4.817350388E0,-3.419343472E0,-7.898707390E0
1.829818559E1,4.841278553E0,-3.390629768E0,-7.893921852E0
1.831845476E1,4.869992256E0,-3.385843992E0,-7.922635555E0
1.833872397E1,4.908277512E0,-3.395415306E0,-7.922635555E0
1.835899314E1,4.903491974E0,-3.424129248E0,-7.917850018E0
1.837926236E1,4.903491974E0,-3.433700562E0,-7.936992645E0
1.839953153E1,4.884349346E0,-3.428914785E0,-7.913064480E0
1.841980074E1,4.869992256E0,-3.419343472E0,-7.927421570E0
1.844006996E1,4.874777794E0,-3.337987661E0,-7.946564198E0
1.846033913E1,4.846064091E0,-3.266202927E0,-7.936992645E0
1.848060830E1,4.865206718E0,-3.285345554E0,-7.936992645E0
1.850087752E1,4.879563808E0,-3.371487141E0,-7.922635555E0
1.852114668E1,4.860421181E0,-3.414557934E0,-7.922635555E0
1.854141585E1,4.846064091E0,-3.433700562E0,-7.903493404E0
1.856168507E1,4.826921463E0,-3.428914785E0,-7.893921852E0
1.858195424E1,4.850849628E0,-3.409772158E0,-7.922635555E0
1.860222340E1,4.879563808E0,-3.400201082E0,-7.941778183E0
1.862249262E1,4.879563808E0,-3.390629768E0,-7.941778183E0
1.864276179E1,4.855635166E0,-3.371487141E0,-7.951349735E0
1.866303095E1,4.850849628E0,-3.352344513E0,-7.951349735E0
1.868330017E1,4.855635166E0,-3.352344513E0,-7.936992645E0
1.870356934E1,4.884349346E0,-3.323630571E0,-7.917850018E0
1.872383850E1,4.893920422E0,-3.328416348E0,-7.932207108E0
1.874410767E1,4.889134884E0,-3.361915827E0,-7.936992645E0
1.876437689E1,4.879563808E0,-3.371487141E0,-7.936992645E0
1.878464606E1,4.860421181E0,-3.376272678E0,-7.927421570E0
1.880491522E1,4.865206718E0,-3.404986620E0,-7.932207108E0
1.882518434E1,4.855635166E0,-3.419343472E0,-7.932207108E0
1.884545356E1,4.846064091E0,-3.433700562E0,-7.946564198E0
1.886572272E1,4.836492538E0,-3.404986620E0,-7.932207108E0
1.888599194E1,4.846064091E0,-3.361915827E0,-7.913064480E0
1.890626111E1,4.860421181E0,-3.361915827E0,-7.908278942E0
1.892666111E1,4.884349346E0,-3.381058455E0,-7.936992645E0
1.894679944E1,4.908277512E0,-3.400201082E0,-7.908278942E0
1.896706861E1,4.903491974E0,-3.414557934E0,-7.889136314E0
1.898733778E1,4.903491974E0,-3.414557934E0,-7.898707390E0
1.900773778E1,4.884349346E0,-3.428914785E0,-7.884350777E0
1.902803403E1,4.879563808E0,-3.428914785E0,-7.908278942E0
1.904814585E1,4.860421181E0,-3.376272678E0,-7.908278942E0
1.906841491E1,4.865206718E0,-3.385843992E0,-7.889136314E0
1.908868397E1,4.869992256E0,-3.419343472E0,-7.889136314E0
1.910895304E1,4.850849628E0,-3.443271875E0,-7.893921852E0
1.912935304E1,4.836492538E0,-3.433700562E0,-7.917850018E0
1.914949132E1,4.850849628E0,-3.419343472E0,-7.913064480E0
1.916976038E1,4.893920422E0,-3.443271875E0,-7.917850018E0
1.919002950E1,4.941776752E0,-3.448057413E0,-7.898707390E0
1.921029861E1,4.936991215E0,-3.443271875E0,-7.903493404E0
1.923056778E1,4.913063049E0,-3.424129248E0,-7.889136314E0
1.925083694E1,4.903491974E0,-3.424129248E0,-7.889136314E0
1.927110611E1,4.869992256E0,-3.414557934E0,-7.879564762E0
1.929137528E1,4.869992256E0,-3.414557934E0,-7.874779224E0
1.931164439E1,4.860421181E0,-3.400201082E0,-7.865208149E0
1.933191356E1,4.855635166E0,-3.409772158E0,-7.879564762E0
1.935218267E1,4.874777794E0,-3.428914785E0,-7.898707390E0
1.937245179E1,4.879563808E0,-3.457628727E0,-7.932207108E0
1.939272095E1,4.908277512E0,-3.486342669E0,-7.917850018E0
1.941299012E1,4.908277512E0,-3.481556892E0,-7.908278942E0
1.943325929E1,4.879563808E0,-3.452843189E0,-7.893921852E0
1.945352840E1,4.855635166E0,-3.448057413E0,-7.889136314E0
1.947379752E1,4.846064091E0,-3.462414265E0,-7.874779224E0
1.949406668E1,4.855635166E0,-3.462414265E0,-7.884350777E0
1.951433585E1,4.884349346E0,-3.471985579E0,-7.898707390E0
1.953473585E1,4.889134884E0,-3.476771355E0,-7.869993687E0
1.955487418E1,4.889134884E0,-3.476771355E0,-7.860422611E0
1.957514330E1,4.879563808E0,-3.414557934E0,-7.884350777E0
1.959541246E1,4.893920422E0,-3.409772158E0,-7.865208149E0
1.961568158E1,4.946562767E0,-3.424129248E0,-7.908278942E0
1.963595075E1,4.932205677E0,-3.424129248E0,-7.889136314E0
1.965621991E1,4.908277512E0,-3.471985579E0,-7.879564762E0
1.967648903E1,4.874777794E0,-3.486342669E0,-7.898707390E0
1.969675819E1,4.841278553E0,-3.467200041E0,-7.865208149E0
1.971702731E1,4.807778835E0,-3.452843189E0,-7.865208149E0
1.973729642E1,4.802993298E0,-3.452843189E0,-7.865208149E0
1.975756559E1,4.826921463E0,-3.457628727E0,-7.889136314E0
1.977783470E1,4.855635166E0,-3.471985579E0,-7.903493404E0
1.979810387E1,4.874777794E0,-3.486342669E0,-7.927421570E0
1.981837298E1,4.865206718E0,-3.491128206E0,-7.922635555E0
1.983864210E1,4.884349346E0,-3.471985579E0,-7.908278942E0
1.985891127E1,4.884349346E0,-3.438486099E0,-7.884350777E0
1.987918038E1,4.893920422E0,-3.414557934E0,-7.884350777E0
1.989944950E1,4.903491974E0,-3.419343472E0,-7.884350777E0
1.991971866E1,4.903491974E0,-3.424129248E0,-7.903493404E0
1.993998778E1,4.879563808E0,-3.414557934E0,-7.922635555E0
1.996025689E1,4.865206718E0,-3.381058455E0,-7.927421570E0
1.998052600E1,4.884349346E0,-3.381058455E0,-7.941778183E0
2.000079512E1,4.884349346E0,-3.371487141E0,-7.927421570E0
2.002106429E1,4.874777794E0,-3.385843992E0,-7.889136314E0
2.004133340E1,4.879563808E0,-3.395415306E0,-7.889136314E0
2.006160252E1,4.860421181E0,-3.404986620E0,-7.913064480E0
2.008187163E1,4.850849628E0,-3.404986620E0,-7.922635555E0
2.010214069E1,4.884349346E0,-3.419343472E0,-7.922635555E0
2.012240986E1,4.879563808E0,-3.433700562E0,-7.884350777E0
2.014267897E1,4.855635166E0,-3.433700562E0,-7.893921852E0
2.016294814E1,4.831707001E0,-3.433700562E0,-7.898707390E0
2.018321726E1,4.836492538E0,-3.424129248E0,-7.941778183E0
2.020348637E1,4.850849628E0,-3.395415306E0,-7.960920811E0
2.022375548E1,4.850849628E0,-3.366701365E0,-7.932207108E0
2.024402460E1,4.879563808E0,-3.381058455E0,-7.908278942E0
2.026429371E1,4.869992256E0,-3.409772158E0,-7.922635555E0
2.028456283E1,4.841278553E0,-3.428914785E0,-7.932207108E0
2.030496187E1,4.817350388E0,-3.428914785E0,-7.917850018E0
2.032509978E1,4.826921463E0,-3.424129248E0,-7.932207108E0
2.034536890E1,4.836492538E0,-3.419343472E0,-7.932207108E0
2.036563801E1,4.869992256E0,-3.371487141E0,-7.927421570E0
2.038590713E1,4.884349346E0,-3.357130051E0,-7.913064480E0
2.040617619E1,4.908277512E0,-3.376272678E0,-7.922635555E0
2.042657619E1,4.908277512E0,-3.395415306E0,-7.927421570E0
2.044671442E1,4.913063049E0,-3.400201082E0,-7.917850018E0
2.046698353E1,4.913063049E0,-3.366701365E0,-7.932207108E0
2.048725265E1,4.874777794E0,-3.361915827E0,-7.936992645E0
2.050752176E1,4.869992256E0,-3.337987661E0,-7.917850018E0
2.052792176E1,4.826921463E0,-3.337987661E0,-7.893921852E0
2.054805994E1,4.798207760E0,-3.352344513E0,-7.927421570E0
2.056832906E1,4.807778835E0,-3.438486099E0,-7.999206066E0
2.058859817E1,4.879563808E0,-3.543770313E0,-8.051848412E0
2.069507817E1,4.810171604E0,-3.254238844E0,-7.936992645E0
2.071534728E1,4.795814991E0,-3.304488182E0,-7.898707390E0
2.073574728E1,4.750350952E0,-3.349951744E0,-7.872386456E0
2.075588546E1,4.709673405E0,-3.359523058E0,-7.910671711E0
2.077615452E1,4.750350952E0,-3.337987661E0,-7.980063438E0
2.079642364E1,4.786243439E0,-3.337987661E0,-7.987242222E0
2.081669270E1,4.819743156E0,-3.395415306E0,-7.972885132E0
2.083696182E1,4.848456860E0,-3.428914785E0,-8.020741463E0
2.085723088E1,4.838885784E0,-3.412165165E0,-8.054241180E0
2.087749999E1,4.819743156E0,-3.357130051E0,-8.013563156E0
2.089776906E1,4.819743156E0,-3.314059258E0,-7.970492363E0
2.091803817E1,4.855635166E0,-3.294916868E0,-7.953742504E0
2.093830723E1,4.898705959E0,-3.273381472E0,-7.934599876E0
2.095857630E1,4.922634602E0,-3.285345554E0,-7.920242786E0
2.097884541E1,4.958526611E0,-3.318845034E0,-7.927421570E0
2.099911447E1,4.936991215E0,-3.361915827E0,-7.905886173E0
2.101938353E1,4.905884743E0,-3.421736479E0,-7.901100159E0
2.103965265E1,4.862813950E0,-3.471985579E0,-7.896314621E0
2.106005265E1,4.836492538E0,-3.500699520E0,-7.879564762E0
2.108019077E1,4.817350388E0,-3.512663603E0,-7.881958008E0
2.110045989E1,4.824528694E0,-3.505485058E0,-7.881958008E0
2.112072895E1,4.819743156E0,-3.507878065E0,-7.886743546E0
2.114099801E1,4.831707001E0,-3.483949661E0,-7.884350777E0
2.116126713E1,4.858027935E0,-3.474378586E0,-7.913064480E0
2.118153619E1,4.884349346E0,-3.464807272E0,-7.913064480E0
2.120180525E1,4.889134884E0,-3.443271875E0,-7.893921852E0
2.122207432E1,4.908277512E0,-3.443271875E0,-7.881958008E0
2.124234338E1,4.896313190E0,-3.457628727E0,-7.874779224E0
2.126261249E1,4.908277512E0,-3.445664644E0,-7.896314621E0
2.128288156E1,4.903491974E0,-3.491128206E0,-7.881958008E0
2.130315062E1,4.922634602E0,-3.479164124E0,-7.869993687E0
2.132341968E1,4.905884743E0,-3.462414265E0,-7.853243828E0
2.134368874E1,4.893920422E0,-3.464807272E0,-7.836493969E0
2.136395781E1,4.936991215E0,-3.462414265E0,-7.869993687E0
2.138422687E1,4.963312149E0,-3.476771355E0,-7.855636597E0
2.140449598E1,4.972883701E0,-3.491128206E0,-7.889136314E0
2.142476504E1,4.893920422E0,-3.495913982E0,-7.886743546E0
2.144503411E1,4.843671322E0,-3.479164124E0,-7.850851059E0
2.146530317E1,4.834099770E0,-3.474378586E0,-7.819744587E0
2.148557223E1,4.862813950E0,-3.464807272E0,-7.850851059E0
2.150584124E1,4.910670280E0,-3.483949661E0,-7.865208149E0
2.152611036E1,4.932205677E0,-3.479164124E0,-7.884350777E0
2.154637942E1,4.932205677E0,-3.493520975E0,-7.874779224E0
2.156664848E1,4.910670280E0,-3.486342669E0,-7.853243828E0
2.158691755E1,4.879563808E0,-3.462414265E0,-7.872386456E0
2.160718661E1,4.855635166E0,-3.486342669E0,-7.903493404E0
2.162745562E1,4.853242397E0,-3.546163082E0,-7.946564198E0
2.164772468E1,4.855635166E0,-3.560520172E0,-7.920242786E0
2.166799374E1,4.831707001E0,-3.577269793E0,-7.872386456E0
2.168826280E1,4.800600529E0,-3.541377544E0,-7.831708431E0
2.170853187E1,4.853242397E0,-3.426522017E0,-7.831708431E0
2.172880093E1,4.944169998E0,-3.297309637E0,-7.860422611E0
2.174906999E1,5.023132801E0,-3.170490026E0,-7.908278942E0
2.176933900E1,5.126024246E0,-3.206382275E0,-7.958528042E0
2.178960807E1,5.080560684E0,-3.311666489E0,-7.996813297E0
2.180987713E1,4.999204636E0,-3.483949661E0,-8.044670105E0
2.183014619E1,4.968098164E0,-3.613162279E0,-8.030312538E0
2.185041525E1,4.922634602E0,-3.610769272E0,-7.984848976E0
2.187068426E1,4.936991215E0,-3.591626883E0,-8.106883049E0
2.189095333E1,5.094917774E0,-3.725624800E0,-8.059026718E0
2.191122239E1,5.037489891E0,-3.704089403E0,-8.039883614E0
2.193162239E1,4.891527653E0,-3.711267948E0,-8.080561638E0
2.195176046E1,4.724030018E0,-3.668197155E0,-8.109275818E0
2.197202952E1,4.338187218E0,-3.474378586E0,-8.114061356E0
2.199229859E1,3.926621914E0,-3.249453068E0,-8.209774017E0
2.201256765E1,3.591626883E0,-3.098107100E0,-8.420941353E0
2.203296765E1,3.850051641E0,-3.043072224E0,-8.863613129E0
2.205310968E1,4.182653904E0,-2.779861689E0,-8.928219795E0
2.207341333E1,4.120440483E0,-2.626721144E0,-8.739186287E0
2.209364322E1,4.228117466E0,-2.499901533E0,-8.693722725E0
2.211391228E1,4.285545349E0,-2.509472847E0,-8.392227173E0
2.213431239E1,4.039084435E0,-2.411366940E0,-8.257631302E0
2.215445057E1,4.005585194E0,-2.272583246E0,-8.380263329E0
2.217471968E1,4.115654945E0,-2.313261271E0,-8.547760963E0
2.219498874E1,4.039084435E0,-2.210369825E0,-8.760722160E0
2.221525786E1,4.170690060E0,-2.167299032E0,-8.995218277E0
2.223552692E1,4.283152580E0,-2.114656925E0,-9.004789352E0
2.225579598E1,4.388436794E0,-1.944168448E0,-9.148359299E0
2.227606505E1,4.216153622E0,-1.518245935E0,-8.913862228E0
2.229633411E1,4.041477680E0,-1.322034478E0,-9.033503532E0
2.231660312E1,4.132404804E0,-1.489532113E0,-9.301499367E0
2.233700312E1,4.153940201E0,-1.661815286E0,-9.265607834E0
2.235714124E1,3.881158352E0,-1.680957913E0,-8.899505615E0
2.237741025E1,3.481556892E0,-1.336391449E0,-8.889934540E0
2.239767932E1,3.256033421E0,-1.113858938E0,-8.921041489E0
2.241794833E1,3.196212769E0,-9.481559992E-1,-8.813364029E0
2.243821739E1,3.445664644E0,-1.228714466E0,-8.746364594E0
2.245848640E1,3.615555048E0,-1.221535921E0,-8.528617859E0
2.247875541E1,3.548556089E0,-1.176072359E0,-8.562117577E0
2.249902447E1,3.400201082E0,-1.116251707E0,-8.775078773E0
2.251929348E1,3.181855917E0,-9.098708034E-1,-8.810971260E0
2.253956255E1,3.102892876E0,-8.213363886E-1,-8.949754715E0
2.255983161E1,3.138785124E0,-7.184450030E-1,-8.992825508E0
2.258010062E1,3.179463148E0,-5.868397355E-1,-8.813364029E0
2.260036963E1,3.184248686E0,-5.270192027E-1,-8.693722725E0
2.262063864E1,3.246462107E0,-6.370890141E-1,-8.724829674E0
2.264090765E1,3.412165165E0,-8.763712645E-1,-8.684151649E0
2.266117671E1,3.785445452E0,-1.197607756E0,-8.863613129E0
2.268144572E1,4.261617184E0,-1.642672777E0,-9.546165466E0
2.270171473E1,4.927420139E0,-2.322832584E0,-1.047278690E1
2.272198374E1,5.770291805E0,-3.071786165E0,-1.036690426E1
2.274225280E1,5.629115105E0,-3.280559778E0,-9.522237778E0
2.276252176E1,4.606781960E0,-2.641077995E0,-9.217751503E0
2.278279083E1,4.302295208E0,-1.977667928E0,-8.154739380E0
2.280305984E1,4.043870449E0,-1.546959877E0,-7.322037220E0
2.282332885E1,3.617947817E0,-1.314856052E0,-7.266404152E0
2.284359786E1,3.567698479E0,-1.556531072E0,-7.855636597E0
2.286386687E1,4.232903481E0,-2.353939295E0,-8.784649849E0
2.288413588E1,5.080560684E0,-2.739183664E0,-9.476774216E0
2.290440489E1,5.219344616E0,-2.545365095E0,-9.527023315E0
2.292467390E1,4.951348305E0,-2.167299032E0,-8.983254433E0
2.294494291E1,4.451248169E0,-1.664208174E0,-8.614759445E0
2.296521192E1,3.948157310E0,-1.487139225E0,-8.633902550E0
2.298548093E1,3.785445452E0,-1.779063582E0,-8.720044136E0
2.300574994E1,3.921836376E0,-2.107478619E0,-8.672187805E0
2.302601895E1,4.319045067E0,-2.425724030E0,-8.674580574E0
2.304628796E1,4.819743156E0,-2.602792740E0,-8.667402267E0
2.306655692E1,5.018347263E0,-2.523829699E0,-8.619544983E0
2.308682593E1,4.712066174E0,-2.258226395E0,-8.380263329E0
2.310709499E1,4.340580463E0,-2.095514536E0,-8.339585304E0
2.312736400E1,4.180261135E0,-2.037488461E0,-8.526225090E0
2.314763296E1,4.158725739E0,-2.023131609E0,-8.660223007E0
2.316790192E1,4.194618225E0,-1.941775560E0,-8.643473625E0
2.318817093E1,4.280759811E0,-1.908276081E0,-8.583653450E0
2.320843994E1,4.357329845E0,-1.970489502E0,-8.581260681E0
2.322870895E1,4.436891556E0,-2.119442701E0,-8.655437469E0
2.324897791E1,4.439284325E0,-2.258226395E0,-8.732007980E0
2.326924692E1,4.290330887E0,-2.227119684E0,-8.691329956E0
2.328951593E1,4.086941242E0,-2.124228239E0,-8.629117012E0
2.330978494E1,3.993621111E0,-1.960918188E0,-8.648259163E0
2.333005395E1,4.031906128E0,-1.834098577E0,-8.722436905E0
2.335032296E1,4.118047714E0,-1.798206210E0,-8.741579056E0
2.337059192E1,4.204189301E0,-1.850848317E0,-8.734400749E0
2.339086093E1,4.268795490E0,-1.889133453E0,-8.784649849E0
2.341112994E1,4.278367043E0,-1.910668850E0,-8.803792953E0
2.343152994E1,4.297509670E0,-1.987239242E0,-8.827720642E0
2.345166791E1,4.304687977E0,-2.105085611E0,-8.842078209E0
2.347193692E1,4.266402721E0,-2.272583246E0,-8.880363464E0
2.349220593E1,4.134797573E0,-2.272583246E0,-8.775078773E0
2.351247489E1,4.000799656E0,-1.905883193E0,-8.650651932E0
2.353287489E1,3.728017569E0,-1.415354609E0,-8.672187805E0
2.355301286E1,3.699303865E0,-1.195214868E0,-8.509475708E0
2.357328187E1,3.914657831E0,-1.355534077E0,-8.456833839E0
2.359355083E1,4.149154663E0,-1.783849239E0,-8.578866959E0
2.361381984E1,4.283152580E0,-2.224726915E0,-9.004789352E0
2.363421984E1,4.422534466E0,-2.475973129E0,-9.334999084E0
2.365435780E1,4.719244480E0,-2.612364054E0,-9.299106598E0
2.367462682E1,4.824528694E0,-2.691327333E0,-8.944969177E0
2.369489577E1,4.860421181E0,-2.681756020E0,-8.636295319E0
2.371516473E1,4.774279594E0,-2.504687071E0,-8.507082939E0
2.373556473E1,4.549354076E0,-2.162513494E0,-8.295916557E0
2.375570275E1,4.395615101E0,-1.874776483E0,-8.157132149E0
2.377597171E1,4.295116425E0,-1.747956991E0,-8.161917686E0
2.379624067E1,4.232903481E0,-1.802991867E0,-8.312665939E0
2.381650968E1,4.161118507E0,-2.035095692E0,-8.449654579E0
2.383677864E1,4.127619267E0,-2.291725874E0,-8.679366112E0
2.385704765E1,4.072584152E0,-2.399402857E0,-8.901898384E0
2.387731661E1,3.974478483E0,-2.327618122E0,-8.949754715E0
2.389758562E1,3.835694790E0,-2.121835470E0,-8.949754715E0
2.391785458E1,3.744767427E0,-1.946561217E0,-8.866005898E0
2.393812353E1,3.716053486E0,-1.934597135E0,-8.751151085E0
2.395839255E1,3.732803345E0,-2.023131609E0,-8.736793518E0
2.397866150E1,3.797409534E0,-2.152942181E0,-8.806185722E0
2.399893046E1,3.936193228E0,-2.255833626E0,-8.825327873E0
2.401919947E1,4.070191383E0,-2.286940336E0,-8.870791435E0
2.403946843E1,4.220939159E0,-2.289333105E0,-8.861220360E0
2.405973739E1,4.342973232E0,-2.239083767E0,-8.801400185E0
2.408000635E1,4.475176334E0,-2.126621008E0,-8.732007980E0
2.410027536E1,4.551746845E0,-2.035095692E0,-8.602795601E0
2.412054432E1,4.539782524E0,-1.920240164E0,-8.480761528E0
2.414081327E1,4.405186653E0,-1.850848317E0,-8.428119659E0
2.416108223E1,4.331008911E0,-1.886740685E0,-8.526225090E0
2.418135119E1,4.398007870E0,-1.891526341E0,-8.743971825E0
2.420162020E1,4.434498787E0,-1.884347796E0,-8.770293236E0
2.422188916E1,4.223331928E0,-1.867598057E0,-8.621937752E0
2.424215812E1,3.957728624E0,-1.996810555E0,-8.612366676E0
2.426242708E1,3.675375462E0,-2.327618122E0,-8.710473061E0
2.428269598E1,3.558127165E0,-2.830111027E0,-8.897112846E0
2.430296499E1,3.567698479E0,-3.328416348E0,-9.181859016E0
2.432323395E1,3.507878065E0,-3.402593851E0,-9.229715347E0
2.434350291E1,3.462414265E0,-2.954537868E0,-9.067003250E0
2.436377192E1,3.474378586E0,-2.428116798E0,-8.736793518E0
2.438404083E1,3.649054527E0,-1.999203324E0,-8.428119659E0
2.440430984E1,3.929014683E0,-1.858026743E0,-8.408976555E0
2.442457880E1,4.240081787E0,-1.956132531E0,-8.605188370E0
2.444484770E1,4.506283283E0,-2.121835470E0,-8.736793518E0
2.446511671E1,4.628317356E0,-2.234298229E0,-8.770293236E0
2.448538562E1,4.668995380E0,-2.286940336E0,-8.727222443E0
2.450565463E1,4.566103935E0,-2.260619164E0,-8.626724243E0
2.452592359E1,4.352544308E0,-2.186441660E0,-8.559724808E0
2.454619254E1,4.204189301E0,-2.081157446E0,-8.578866959E0
2.456646145E1,4.137190342E0,-2.078166485E0,-8.660223007E0
2.458673046E1,4.173082829E0,-2.138585329E0,-8.751151085E0
2.460699942E1,4.230510235E0,-2.255833626E0,-8.837292671E0
2.462726838E1,4.297509670E0,-2.346760750E0,-8.870791435E0
2.464753734E1,4.335794449E0,-2.416152716E0,-8.820542336E0
2.466780630E1,4.333401680E0,-2.406581402E0,-8.755936623E0
2.468807525E1,4.299902439E0,-2.301297188E0,-8.741579056E0
2.470834421E1,4.252045631E0,-2.179263115E0,-8.748757362E0
2.472861317E1,4.173082829E0,-2.148156643E0,-8.657830238E0
2.474888213E1,4.022335052E0,-2.234298229E0,-8.614759445E0
2.476915109E1,3.862015724E0,-2.296511650E0,-8.739186287E0
2.478942004E1,3.850051641E0,-2.320439816E0,-8.861220360E0
2.480968900E1,3.996013880E0,-2.346760750E0,-8.880363464E0
2.482995796E1,4.084548473E0,-2.330011129E0,-8.858827591E0
2.485022692E1,4.084548473E0,-2.308475733E0,-8.782257080E0
2.487049588E1,4.024727821E0,-2.277369022E0,-8.760722160E0
2.489076484E1,3.981656790E0,-2.267797709E0,-8.705686569E0
2.491103380E1,3.955335855E0,-2.286940336E0,-8.746364594E0
2.493143380E1,3.969692707E0,-2.341975212E0,-8.779864311E0
2.495157176E1,3.960121393E0,-2.375474691E0,-8.827720642E0
2.497184072E1,3.938585997E0,-2.363510609E0,-8.832506180E0
2.499210968E1,3.905086517E0,-2.286940336E0,-8.796614647E0
2.501237864E1,3.866801500E0,-2.272583246E0,-8.751151085E0
2.503277864E1,3.907479286E0,-2.301297188E0,-8.746364594E0
2.505291656E1,3.964907169E0,-2.334796667E0,-8.755936623E0
2.507318551E1,4.034298897E0,-2.310868502E0,-8.808578491E0
2.509345452E1,4.043870449E0,-2.248655081E0,-8.832506180E0
2.511372343E1,4.036691666E0,-2.196012974E0,-8.775078773E0
2.513412343E1,4.007977962E0,-2.241476536E0,-8.732007980E0
2.515426140E1,3.974478483E0,-2.277369022E0,-8.760722160E0
2.517453036E1,3.984049797E0,-2.289333105E0,-8.808578491E0
2.519479932E1,4.012763500E0,-2.277369022E0,-8.825327873E0
2.521506833E1,4.027120590E0,-2.236690998E0,-8.854042053E0
2.523546833E1,4.024727821E0,-2.215155602E0,-8.784649849E0
2.525560619E1,4.024727821E0,-2.258226395E0,-8.732007980E0
2.527587525E1,4.048655987E0,-2.325225353E0,-8.739186287E0
2.529614421E1,4.017549038E0,-2.310868502E0,-8.763114929E0
2.531640140E1,4.027120590E0,-2.282154560E0,-8.799007416E0
2.533655254E1,4.027120590E0,-2.274976015E0,-8.777471542E0
2.535694843E1,4.012763500E0,-2.265404940E0,-8.808578491E0
2.537721760E1,3.986442566E0,-2.267797709E0,-8.803792953E0
2.539748702E1,4.003192425E0,-2.303689957E0,-8.803792953E0
2.541775640E1,3.998406649E0,-2.284547329E0,-8.803792953E0
2.543802572E1,3.991228104E0,-2.234298229E0,-8.779864311E0
2.545829494E1,3.984049797E0,-2.243869543E0,-8.784649849E0
2.547856421E1,3.993621111E0,-2.200798512E0,-8.784649849E0
2.549883333E1,3.955335855E0,-2.215155602E0,-8.808578491E0
2.551910249E1,3.991228104E0,-2.253440619E0,-8.808578491E0
2.553937156E1,3.957728624E0,-2.286940336E0,-8.782257080E0
2.555964067E1,3.909872293E0,-2.334796667E0,-8.784649849E0
2.557990968E1,3.900300980E0,-2.341975212E0,-8.806185722E0
2.560017874E1,3.921836376E0,-2.279761791E0,-8.803792953E0
2.562044775E1,3.907479286E0,-2.207977057E0,-8.784649849E0
2.564071676E1,3.945764542E0,-2.198405743E0,-8.772686005E0
2.566098583E1,4.010370731E0,-2.248655081E0,-8.810971260E0
2.568125489E1,4.089334011E0,-2.313261271E0,-8.839685440E0
2.570152385E1,4.072584152E0,-2.291725874E0,-8.842078209E0
2.572179281E1,4.019941807E0,-2.306082726E0,-8.777471542E0
2.574206182E1,3.986442566E0,-2.308475733E0,-8.688937187E0
2.576233088E1,3.984049797E0,-2.313261271E0,-8.703293800E0
2.578259984E1,3.976871252E0,-2.303689957E0,-8.765507698E0
2.580286885E1,3.991228104E0,-2.255833626E0,-8.820542336E0
2.582313786E1,4.003192425E0,-2.251047850E0,-8.834898949E0
2.584340676E1,3.993621111E0,-2.260619164E0,-8.830113411E0
2.586367583E1,3.957728624E0,-2.239083767E0,-8.830113411E0
2.588394484E1,3.936193228E0,-2.229512453E0,-8.815756798E0
2.590421380E1,3.960121393E0,-2.251047850E0,-8.782257080E0
2.592448280E1,3.998406649E0,-2.279761791E0,-8.777471542E0
2.594475182E1,4.019941807E0,-2.279761791E0,-8.827720642E0
2.596502077E1,4.010370731E0,-2.284547329E0,-8.822935104E0
2.598528978E1,3.984049797E0,-2.310868502E0,-8.772686005E0
2.600555874E1,3.957728624E0,-2.341975212E0,-8.748757362E0
2.602582775E1,3.955335855E0,-2.344367981E0,-8.751151085E0
2.604609676E1,3.931407690E0,-2.303689957E0,-8.789435387E0
2.606636577E1,3.972085476E0,-2.248655081E0,-8.818149567E0
2.608663473E1,3.984049797E0,-2.152942181E0,-8.801400185E0
2.610690374E1,4.036691666E0,-2.188834429E0,-8.806185722E0
2.612717275E1,4.058227062E0,-2.270190477E0,-8.808578491E0
2.614744171E1,4.019941807E0,-2.313261271E0,-8.806185722E0
2.616771072E1,3.957728624E0,-2.318047047E0,-8.796614647E0
2.618797973E1,3.974478483E0,-2.332403898E0,-8.755936623E0
2.620824869E1,3.984049797E0,-2.332403898E0,-8.743971825E0
2.622851770E1,3.981656790E0,-2.322832584E0,-8.736793518E0
2.624878671E1,3.996013880E0,-2.320439816E0,-8.770293236E0
2.626905567E1,4.015156269E0,-2.301297188E0,-8.789435387E0
2.628932468E1,4.039084435E0,-2.279761791E0,-8.803792953E0
2.630959369E1,4.060619831E0,-2.255833626E0,-8.794221878E0
2.632986270E1,4.043870449E0,-2.296511650E0,-8.775078773E0
2.635013166E1,4.036691666E0,-2.306082726E0,-8.789435387E0
2.637040067E1,4.019941807E0,-2.301297188E0,-8.753543854E0
2.639066968E1,4.010370731E0,-2.296511650E0,-8.743971825E0
2.641093864E1,4.024727821E0,-2.313261271E0,-8.722436905E0
2.643133864E1,4.031906128E0,-2.351546526E0,-8.720044136E0
2.645147666E1,4.022335052E0,-2.373081923E0,-8.748757362E0
2.647174567E1,4.015156269E0,-2.370688915E0,-8.755936623E0
2.649201463E1,4.024727821E0,-2.358724833E0,-8.746364594E0
2.651228364E1,4.019941807E0,-2.368296146E0,-8.746364594E0
2.653268364E1,4.015156269E0,-2.382653236E0,-8.753543854E0
2.655282166E1,4.029513359E0,-2.358724833E0,-8.791828156E0
2.657309062E1,4.041477680E0,-2.332403898E0,-8.739186287E0
2.659335963E1,4.043870449E0,-2.341975212E0,-8.717651367E0
2.661362864E1,4.077369690E0,-2.382653236E0,-8.700901031E0
2.663402864E1,4.086941242E0,-2.440080881E0,-8.696115494E0
2.665416661E1,4.077369690E0,-2.454437733E0,-8.739186287E0
2.667443562E1,4.022335052E0,-2.399402857E0,-8.741579056E0
2.669470452E1,4.012763500E0,-2.363510609E0,-8.715258598E0
2.671497359E1,4.003192425E0,-2.365903378E0,-8.720044136E0
2.673537359E1,4.031906128E0,-2.385046005E0,-8.729615211E0
2.675551161E1,4.055834293E0,-2.401795626E0,-8.743971825E0
2.677578057E1,4.053441525E0,-2.373081923E0,-8.736793518E0
2.679604958E1,4.036691666E0,-2.349153519E0,-8.734400749E0
2.681631859E1,4.048655987E0,-2.361117840E0,-8.734400749E0
2.683658754E1,4.072584152E0,-2.380260229E0,-8.703293800E0
2.685685656E1,4.108476639E0,-2.404188633E0,-8.693722725E0
2.687712557E1,4.127619267E0,-2.425724030E0,-8.698508263E0
2.689739452E1,4.113262177E0,-2.449652195E0,-8.705686569E0
2.691766353E1,4.098905087E0,-2.444866419E0,-8.722436905E0
2.693793255E1,4.074976921E0,-2.416152716E0,-8.696115494E0
2.695820150E1,4.094119549E0,-2.389831543E0,-8.662615776E0
2.697847051E1,4.079762459E0,-2.408974171E0,-8.674580574E0
2.699873952E1,4.074976921E0,-2.418545485E0,-8.705686569E0
2.701900848E1,4.096512318E0,-2.432902336E0,-8.693722725E0
2.703927749E1,4.096512318E0,-2.444866419E0,-8.696115494E0
2.705954650E1,4.034298897E0,-2.449652195E0,-8.691329956E0
2.707981546E1,4.024727821E0,-2.442473650E0,-8.708079338E0
2.710008447E1,4.034298897E0,-2.406581402E0,-8.696115494E0
2.712035343E1,4.036691666E0,-2.394617319E0,-8.720044136E0
2.714062244E1,4.034298897E0,-2.387438774E0,-8.734400749E0
2.716089145E1,4.070191383E0,-2.387438774E0,-8.751151085E0
2.718116041E1,4.082155228E0,-2.399402857E0,-8.748757362E0
2.720142942E1,4.070191383E0,-2.404188633E0,-8.736793518E0
2.722169838E1,4.084548473E0,-2.370688915E0,-8.696115494E0
2.724196739E1,4.060619831E0,-2.394617319E0,-8.674580574E0
2.726223640E1,4.053441525E0,-2.397010088E0,-8.724829674E0
2.728250536E1,4.067798615E0,-2.375474691E0,-8.748757362E0
2.730277437E1,4.063013077E0,-2.385046005E0,-8.729615211E0
2.732304333E1,4.046263218E0,-2.401795626E0,-8.696115494E0
2.734331234E1,3.998406649E0,-2.423331022E0,-8.655437469E0
2.736358130E1,3.967299938E0,-2.416152716E0,-8.645866394E0
2.738385031E1,3.981656790E0,-2.416152716E0,-8.643473625E0
2.740411926E1,4.027120590E0,-2.375474691E0,-8.703293800E0
2.742438827E1,4.067798615E0,-2.325225353E0,-8.772686005E0
2.744465718E1,4.089334011E0,-2.286940336E0,-8.877969742E0
2.746492624E1,4.098905087E0,-2.279761791E0,-8.937790871E0
2.748519520E1,4.074976921E0,-2.296511650E0,-8.940183640E0
2.750546421E1,4.012763500E0,-2.313261271E0,-8.849256516E0
2.752573317E1,3.952943087E0,-2.349153519E0,-8.708079338E0
2.754600218E1,3.931407690E0,-2.387438774E0,-8.657830238E0
2.756627114E1,3.919443607E0,-2.370688915E0,-8.631509781E0
2.758654015E1,3.972085476E0,-2.334796667E0,-8.593224525E0
2.760680911E1,4.091726780E0,-2.418545485E0,-8.593224525E0
2.762707812E1,4.161118507E0,-2.444866419E0,-8.607581139E0
2.764734708E1,4.187439442E0,-2.459223509E0,-8.650651932E0
2.766761609E1,4.141975880E0,-2.468794823E0,-8.672187805E0
2.768788504E1,4.065405846E0,-2.382653236E0,-8.743971825E0
2.770815400E1,4.015156269E0,-2.260619164E0,-8.856434822E0
2.772842296E1,4.003192425E0,-2.155334949E0,-8.892327309E0
2.774869197E1,4.034298897E0,-2.114656925E0,-8.892327309E0
2.776896093E1,4.079762459E0,-2.114656925E0,-8.870791435E0
2.778936890E1,4.118047714E0,-2.186441660E0,-8.794221878E0
2.780966317E1,4.110869408E0,-2.306082726E0,-8.681758881E0
2.782991525E1,4.017549038E0,-2.327618122E0,-8.636295319E0
2.785002900E1,3.940979004E0,-2.296511650E0,-8.736793518E0
2.787029958E1,3.936193228E0,-2.246262312E0,-8.808578491E0
2.789056984E1,3.976871252E0,-2.227119684E0,-8.834898949E0
2.791084770E1,4.024727821E0,-2.207977057E0,-8.830113411E0
2.793118671E1,4.015156269E0,-2.241476536E0,-8.799007416E0
2.795137801E1,3.976871252E0,-2.265404940E0,-8.815756798E0
2.797164770E1,3.919443607E0,-2.294118643E0,-8.825327873E0
2.799191723E1,3.885943890E0,-2.344367981E0,-8.813364029E0
2.801218619E1,3.842873096E0,-2.380260229E0,-8.808578491E0
2.803258671E1,3.785445452E0,-2.385046005E0,-8.832506180E0
2.805272505E1,3.737588882E0,-2.349153519E0,-8.842078209E0
2.807299426E1,3.716053486E0,-2.286940336E0,-8.863613129E0
2.809326348E1,3.716053486E0,-2.251047850E0,-8.849256516E0
2.811353244E1,3.783052683E0,-2.200798512E0,-8.866005898E0
2.813393265E1,3.893122435E0,-2.176870346E0,-8.873184204E0
2.815407072E1,4.010370731E0,-2.212762833E0,-8.844470978E0
2.817433989E1,4.072584152E0,-2.227119684E0,-8.767900467E0
2.819460895E1,4.074976921E0,-2.196012974E0,-8.775078773E0
2.821487780E1,4.074976921E0,-2.188834429E0,-8.782257080E0
2.823527786E1,4.077369690E0,-2.222334146E0,-8.784649849E0
2.825541593E1,4.043870449E0,-2.243869543E0,-8.739186287E0
2.827568489E1,4.019941807E0,-2.248655081E0,-8.698508263E0
2.829595390E1,4.005585194E0,-2.265404940E0,-8.751151085E0
2.831622291E1,3.984049797E0,-2.284547329E0,-8.801400185E0
2.833662291E1,3.969692707E0,-2.296511650E0,-8.834898949E0
2.835676088E1,3.943371773E0,-2.272583246E0,-8.861220360E0
2.837702984E1,3.938585997E0,-2.263011932E0,-8.880363464E0
2.839729890E1,3.895515203E0,-2.241476536E0,-8.856434822E0
2.841756786E1,3.857230186E0,-2.224726915E0,-8.830113411E0
2.843783682E1,3.871587038E0,-2.191227436E0,-8.875576973E0
2.845810577E1,3.905086517E0,-2.140978098E0,-8.863613129E0
2.847837473E1,3.969692707E0,-2.160120726E0,-8.846863747E0
2.849864374E1,4.010370731E0,-2.231905222E0,-8.820542336E0
2.851891265E1,3.996013880E0,-2.334796667E0,-8.813364029E0
2.853918161E1,3.900300980E0,-2.389831543E0,-8.815756798E0
2.855945057E1,3.783052683E0,-2.392224550E0,-8.801400185E0
2.857971952E1,3.713660717E0,-2.349153519E0,-8.813364029E0
2.859998848E1,3.699303865E0,-2.296511650E0,-8.801400185E0
2.862025744E1,3.744767427E0,-2.315654039E0,-8.787042618E0
2.864052635E1,3.749552965E0,-2.353939295E0,-8.760722160E0
2.866079530E1,3.761517286E0,-2.370688915E0,-8.736793518E0
2.868106426E1,3.749552965E0,-2.413759947E0,-8.784649849E0
2.870133322E1,3.723232031E0,-2.449652195E0,-8.868398666E0
2.872160218E1,3.744767427E0,-2.440080881E0,-8.901898384E0
2.874187114E1,3.797409534E0,-2.413759947E0,-8.904291153E0
2.876214010E1,3.845266104E0,-2.387438774E0,-8.892327309E0
2.878240900E1,3.883551121E0,-2.361117840E0,-8.822935104E0
2.880267796E1,3.871587038E0,-2.341975212E0,-8.810971260E0
2.882294692E1,3.850051641E0,-2.308475733E0,-8.849256516E0
2.884321588E1,3.850051641E0,-2.263011932E0,-8.873184204E0
2.886348478E1,3.862015724E0,-2.241476536E0,-8.866005898E0
2.888375374E1,3.883551121E0,-2.184048891E0,-8.858827591E0
2.890402270E1,3.907479286E0,-2.169692039E0,-8.889934540E0
2.892429161E1,3.962514400E0,-2.198405743E0,-8.863613129E0
2.894456057E1,4.007977962E0,-2.251047850E0,-8.832506180E0
2.896482952E1,3.988835335E0,-2.306082726E0,-8.822935104E0
2.898509843E1,3.950550079E0,-2.358724833E0,-8.837292671E0
2.900536739E1,3.864408493E0,-2.432902336E0,-8.815756798E0
2.902563635E1,3.799802303E0,-2.471187592E0,-8.842078209E0
2.904590525E1,3.708875179E0,-2.444866419E0,-8.837292671E0
2.906617421E1,3.637090445E0,-2.363510609E0,-8.868398666E0
2.908644312E1,3.617947817E0,-2.298904419E0,-8.873184204E0
2.910671208E1,3.586841106E0,-2.274976015E0,-8.858827591E0
2.912698103E1,3.570091486E0,-2.294118643E0,-8.832506180E0
2.914724994E1,3.565305710E0,-2.255833626E0,-8.870791435E0
2.916751890E1,3.637090445E0,-2.255833626E0,-8.909076691E0
2.918778781E1,3.739981890E0,-2.318047047E0,-8.921041489E0
2.920805671E1,3.845266104E0,-2.406581402E0,-8.928219795E0
2.922832567E1,3.907479286E0,-2.497508526E0,-8.873184204E0
2.924859458E1,3.926621914E0,-2.519043922E0,-8.775078773E0
2.926886353E1,3.909872293E0,-2.485544443E0,-8.727222443E0
2.928913239E1,3.876372576E0,-2.418545485E0,-8.763114929E0
2.930940140E1,3.919443607E0,-2.408974171E0,-8.777471542E0
2.932967030E1,3.945764542E0,-2.382653236E0,-8.784649849E0
2.934993926E1,3.988835335E0,-2.368296146E0,-8.779864311E0
2.937020817E1,3.986442566E0,-2.313261271E0,-8.765507698E0
2.939047708E1,3.914657831E0,-2.239083767E0,-8.779864311E0
2.941074603E1,3.835694790E0,-2.186441660E0,-8.808578491E0
2.943101494E1,3.864408493E0,-2.210369825E0,-8.868398666E0
2.945128385E1,3.917050600E0,-2.322832584E0,-8.866005898E0
2.947155280E1,3.936193228E0,-2.401795626E0,-8.858827591E0
2.949182171E1,3.919443607E0,-2.447259426E0,-8.832506180E0
2.951209062E1,3.847658873E0,-2.447259426E0,-8.808578491E0
2.953249062E1,3.797409534E0,-2.423331022E0,-8.775078773E0
2.955262848E1,3.742374659E0,-2.437688112E0,-8.787042618E0
2.957289739E1,3.699303865E0,-2.449652195E0,-8.775078773E0
2.959316630E1,3.672982693E0,-2.490330219E0,-8.810971260E0
2.961343520E1,3.670589924E0,-2.464009047E0,-8.880363464E0
2.963383520E1,3.708875179E0,-2.416152716E0,-8.904291153E0
2.965397301E1,3.799802303E0,-2.440080881E0,-8.877969742E0
2.967424192E1,3.826123476E0,-2.454437733E0,-8.820542336E0
2.969451088E1,3.818944931E0,-2.399402857E0,-8.772686005E0
2.971477978E1,3.756731510E0,-2.380260229E0,-8.746364594E0
2.973517978E1,3.694518089E0,-2.337189436E0,-8.767900467E0
2.975531760E1,3.670589924E0,-2.358724833E0,-8.822935104E0
2.977558650E1,3.756731510E0,-2.389831543E0,-8.873184204E0
2.979585541E1,3.806980848E0,-2.399402857E0,-8.899505615E0
2.981612432E1,3.895515203E0,-2.423331022E0,-8.870791435E0
2.983639322E1,3.972085476E0,-2.428116798E0,-8.837292671E0
2.985666213E1,3.981656790E0,-2.456830740E0,-8.832506180E0
2.987706213E1,3.969692707E0,-2.487937450E0,-8.839685440E0
2.989719994E1,3.926621914E0,-2.466402054E0,-8.799007416E0
2.991746885E1,3.842873096E0,-2.375474691E0,-8.748757362E0
2.993773775E1,3.756731510E0,-2.298904419E0,-8.734400749E0
2.995800666E1,3.751945972E0,-2.284547329E0,-8.727222443E0
2.997827557E1,3.804588079E0,-2.322832584E0,-8.765507698E0
2.999854447E1,3.838087559E0,-2.382653236E0,-8.851649284E0
3.001881338E1,3.862015724E0,-2.440080881E0,-8.899505615E0
3.003908228E1,3.842873096E0,-2.452044964E0,-8.880363464E0
3.005935119E1,3.785445452E0,-2.437688112E0,-8.863613129E0
3.007962005E1,3.754338741E0,-2.382653236E0,-8.832506180E0
3.009988890E1,3.778266907E0,-2.327618122E0,-8.813364029E0
3.012015780E1,3.816552162E0,-2.327618122E0,-8.789435387E0
3.014042676E1,3.864408493E0,-2.346760750E0,-8.777471542E0
3.016069567E1,3.873979807E0,-2.370688915E0,-8.799007416E0
3.018096458E1,3.876372576E0,-2.399402857E0,-8.834898949E0
3.020123348E1,3.885943890E0,-2.423331022E0,-8.901898384E0
3.022150234E1,3.921836376E0,-2.435295343E0,-8.877969742E0
3.024177119E1,3.926621914E0,-2.428116798E0,-8.837292671E0
3.026204010E1,3.912265062E0,-2.413759947E0,-8.767900467E0
3.028230900E1,3.857230186E0,-2.392224550E0,-8.775078773E0
3.030257786E1,3.823730469E0,-2.406581402E0,-8.777471542E0
3.032284676E1,3.811766386E0,-2.428116798E0,-8.787042618E0
3.034311567E1,3.806980848E0,-2.442473650E0,-8.758329391E0
3.036338458E1,3.830909014E0,-2.461616278E0,-8.746364594E0
3.038365343E1,3.854837179E0,-2.456830740E0,-8.779864311E0
3.040392234E1,3.902693748E0,-2.456830740E0,-8.803792953E0
3.042419124E1,3.931407690E0,-2.452044964E0,-8.810971260E0
3.044446010E1,3.945764542E0,-2.449652195E0,-8.796614647E0
3.046472900E1,3.931407690E0,-2.464009047E0,-8.796614647E0
3.048499791E1,3.897907972E0,-2.447259426E0,-8.770293236E0
3.050526676E1,3.881158352E0,-2.468794823E0,-8.763114929E0
3.052553567E1,3.869194269E0,-2.468794823E0,-8.784649849E0
3.054580458E1,3.876372576E0,-2.497508526E0,-8.765507698E0
3.056607348E1,3.876372576E0,-2.504687071E0,-8.734400749E0
3.058634234E1,3.876372576E0,-2.502294302E0,-8.734400749E0
3.060661124E1,3.862015724E0,-2.519043922E0,-8.763114929E0
3.062688010E1,3.864408493E0,-2.523829699E0,-8.765507698E0
3.064714900E1,3.869194269E0,-2.538186550E0,-8.763114929E0
3.066741791E1,3.897907972E0,-2.550150633E0,-8.755936623E0
3.068768676E1,3.933800459E0,-2.583650351E0,-8.703293800E0
3.070795567E1,3.929014683E0,-2.583650351E0,-8.724829674E0
3.072822458E1,3.895515203E0,-2.559721947E0,-8.734400749E0
3.074849348E1,3.871587038E0,-2.554936409E0,-8.732007980E0
3.076876234E1,3.869194269E0,-2.586043119E0,-8.779864311E0
3.078903124E1,3.909872293E0,-2.602792740E0,-8.772686005E0
3.080930015E1,3.948157310E0,-2.528615236E0,-8.753543854E0
3.082956900E1,3.952943087E0,-2.466402054E0,-8.729615211E0
3.084983791E1,3.929014683E0,-2.466402054E0,-8.715258598E0
3.087010682E1,3.878765583E0,-2.490330219E0,-8.741579056E0
3.089037572E1,3.826123476E0,-2.516651154E0,-8.779864311E0
3.091064463E1,3.806980848E0,-2.531008244E0,-8.772686005E0
3.093091348E1,3.854837179E0,-2.547757864E0,-8.796614647E0
3.095118239E1,3.862015724E0,-2.526222467E0,-8.799007416E0
3.097145130E1,3.912265062E0,-2.502294302E0,-8.796614647E0
3.099172020E1,3.909872293E0,-2.478366137E0,-8.765507698E0
3.101198911E1,3.902693748E0,-2.452044964E0,-8.796614647E0
3.103238911E1,3.852444410E0,-2.440080881E0,-8.791828156E0
3.105252687E1,3.818944931E0,-2.418545485E0,-8.796614647E0
3.107279577E1,3.818944931E0,-2.447259426E0,-8.813364029E0
3.109306468E1,3.842873096E0,-2.454437733E0,-8.801400185E0
3.111333359E1,3.842873096E0,-2.447259426E0,-8.813364029E0
3.113374156E1,3.838087559E0,-2.454437733E0,-8.799007416E0
3.115401999E1,3.835694790E0,-2.449652195E0,-8.801400185E0
3.117413156E1,3.835694790E0,-2.425724030E0,-8.820542336E0
3.119453343E1,3.838087559E0,-2.435295343E0,-8.832506180E0
3.121467119E1,3.862015724E0,-2.435295343E0,-8.820542336E0
3.123507270E1,3.864408493E0,-2.464009047E0,-8.813364029E0
3.125521156E1,3.893122435E0,-2.473580360E0,-8.796614647E0
3.127548135E1,3.854837179E0,-2.464009047E0,-8.801400185E0
3.129575093E1,3.823730469E0,-2.459223509E0,-8.787042618E0
3.131601984E1,3.775874138E0,-2.444866419E0,-8.801400185E0
3.133642046E1,3.780659676E0,-2.452044964E0,-8.834898949E0
3.135655869E1,3.814159393E0,-2.452044964E0,-8.832506180E0
3.137682796E1,3.862015724E0,-2.449652195E0,-8.813364029E0
3.139709713E1,3.888336897E0,-2.440080881E0,-8.787042618E0
3.141736630E1,3.864408493E0,-2.437688112E0,-8.787042618E0
3.143763541E1,3.806980848E0,-2.404188633E0,-8.815756798E0
3.145790452E1,3.792623997E0,-2.406581402E0,-8.839685440E0
3.147817359E1,3.775874138E0,-2.418545485E0,-8.827720642E0
3.149844260E1,3.811766386E0,-2.452044964E0,-8.839685440E0
3.151871150E1,3.835694790E0,-2.432902336E0,-8.842078209E0
3.153898057E1,3.852444410E0,-2.418545485E0,-8.851649284E0
3.155924952E1,3.835694790E0,-2.425724030E0,-8.830113411E0
3.157951843E1,3.842873096E0,-2.425724030E0,-8.815756798E0
3.159978744E1,3.809373617E0,-2.447259426E0,-8.820542336E0
3.162005640E1,3.833301783E0,-2.425724030E0,-8.820542336E0
3.164032530E1,3.811766386E0,-2.413759947E0,-8.808578491E0
3.166059426E1,3.835694790E0,-2.411366940E0,-8.806185722E0
3.168086322E1,3.840480328E0,-2.411366940E0,-8.801400185E0
3.170113218E1,3.850051641E0,-2.428116798E0,-8.815756798E0
3.172140109E1,3.838087559E0,-2.392224550E0,-8.825327873E0
3.174166999E1,3.826123476E0,-2.387438774E0,-8.822935104E0
3.176193895E1,3.821337700E0,-2.404188633E0,-8.820542336E0
3.178220791E1,3.797409534E0,-2.425724030E0,-8.820542336E0
3.180247687E1,3.785445452E0,-2.425724030E0,-8.834898949E0
3.182274583E1,3.811766386E0,-2.442473650E0,-8.827720642E0
3.184301473E1,3.811766386E0,-2.435295343E0,-8.834898949E0
3.186328369E1,3.816552162E0,-2.442473650E0,-8.806185722E0
3.188355265E1,3.797409534E0,-2.440080881E0,-8.796614647E0
3.190395265E1,3.799802303E0,-2.435295343E0,-8.856434822E0
3.192409051E1,3.806980848E0,-2.423331022E0,-8.863613129E0
3.194449051E1,3.842873096E0,-2.375474691E0,-8.827720642E0
3.196462843E1,3.873979807E0,-2.387438774E0,-8.806185722E0
3.198489734E1,3.871587038E0,-2.394617319E0,-8.801400185E0
3.200516630E1,3.833301783E0,-2.406581402E0,-8.825327873E0
3.202543525E1,3.814159393E0,-2.397010088E0,-8.856434822E0
3.204570421E1,3.799802303E0,-2.404188633E0,-8.856434822E0
3.206597317E1,3.787838221E0,-2.423331022E0,-8.813364029E0
3.208637317E1,3.814159393E0,-2.416152716E0,-8.801400185E0
3.210651103E1,3.814159393E0,-2.420938253E0,-8.822935104E0
3.212677999E1,3.816552162E0,-2.420938253E0,-8.844470978E0
3.214704895E1,3.797409534E0,-2.423331022E0,-8.842078209E0
3.216731791E1,3.790230989E0,-2.416152716E0,-8.822935104E0
3.218758687E1,3.773481369E0,-2.399402857E0,-8.820542336E0
3.220785583E1,3.785445452E0,-2.394617319E0,-8.820542336E0
3.222812478E1,3.795016766E0,-2.392224550E0,-8.822935104E0
3.224839374E1,3.847658873E0,-2.392224550E0,-8.830113411E0
3.226866270E1,3.852444410E0,-2.404188633E0,-8.844470978E0
3.228893166E1,3.859622955E0,-2.440080881E0,-8.818149567E0
3.230920062E1,3.828516245E0,-2.428116798E0,-8.806185722E0
3.232946963E1,3.787838221E0,-2.411366940E0,-8.806185722E0
3.234973859E1,3.775874138E0,-2.404188633E0,-8.813364029E0
3.237000754E1,3.768695593E0,-2.447259426E0,-8.827720642E0
3.239027650E1,3.787838221E0,-2.456830740E0,-8.818149567E0
3.241054546E1,3.818944931E0,-2.459223509E0,-8.813364029E0
3.243081442E1,3.826123476E0,-2.428116798E0,-8.810971260E0
3.245121442E1,3.826123476E0,-2.423331022E0,-8.810971260E0
3.247135239E1,3.778266907E0,-2.411366940E0,-8.830113411E0
3.249162135E1,3.783052683E0,-2.413759947E0,-8.873184204E0
3.251189030E1,3.809373617E0,-2.368296146E0,-8.851649284E0
3.253229031E1,3.818944931E0,-2.344367981E0,-8.846863747E0
3.255242827E1,3.857230186E0,-2.368296146E0,-8.789435387E0
3.257269723E1,3.847658873E0,-2.368296146E0,-8.803792953E0
3.259296619E1,3.833301783E0,-2.406581402E0,-8.813364029E0
3.261323515E1,3.802195072E0,-2.425724030E0,-8.827720642E0
3.263363515E1,3.799802303E0,-2.468794823E0,-8.825327873E0
3.265377307E1,3.785445452E0,-2.466402054E0,-8.822935104E0
3.267404208E1,3.761517286E0,-2.459223509E0,-8.810971260E0
3.269431109E1,3.749552965E0,-2.435295343E0,-8.832506180E0
3.271458005E1,3.790230989E0,-2.394617319E0,-8.861220360E0
3.273498004E1,3.816552162E0,-2.363510609E0,-8.877969742E0
3.275511801E1,3.821337700E0,-2.361117840E0,-8.868398666E0
3.277538697E1,3.845266104E0,-2.365903378E0,-8.844470978E0
3.279565593E1,3.850051641E0,-2.373081923E0,-8.822935104E0
3.281592494E1,3.859622955E0,-2.377867460E0,-8.810971260E0
3.283619390E1,3.850051641E0,-2.404188633E0,-8.806185722E0
3.285646286E1,3.845266104E0,-2.430509567E0,-8.803792953E0
3.287673187E1,3.835694790E0,-2.444866419E0,-8.796614647E0
3.289700083E1,3.778266907E0,-2.444866419E0,-8.813364029E0
3.291726984E1,3.771088600E0,-2.401795626E0,-8.834898949E0
3.293753880E1,3.783052683E0,-2.416152716E0,-8.839685440E0
3.295780775E1,3.814159393E0,-2.423331022E0,-8.844470978E0
3.297807676E1,3.804588079E0,-2.440080881E0,-8.842078209E0
3.299834572E1,3.814159393E0,-2.411366940E0,-8.842078209E0
3.301861468E1,3.811766386E0,-2.387438774E0,-8.830113411E0
3.303888369E1,3.818944931E0,-2.387438774E0,-8.806185722E0
3.305915265E1,3.802195072E0,-2.394617319E0,-8.801400185E0
3.307942166E1,3.785445452E0,-2.413759947E0,-8.858827591E0
3.309969062E1,3.823730469E0,-2.399402857E0,-8.846863747E0
3.311995963E1,3.833301783E0,-2.399402857E0,-8.822935104E0
3.314022859E1,3.862015724E0,-2.389831543E0,-8.779864311E0
3.316049760E1,3.842873096E0,-2.404188633E0,-8.758329391E0
3.318076656E1,3.811766386E0,-2.413759947E0,-8.818149567E0
3.320103551E1,3.785445452E0,-2.408974171E0,-8.834898949E0
3.322130452E1,3.780659676E0,-2.413759947E0,-8.858827591E0
3.324157348E1,3.797409534E0,-2.425724030E0,-8.856434822E0
3.326184249E1,3.811766386E0,-2.423331022E0,-8.846863747E0
3.328211145E1,3.804588079E0,-2.408974171E0,-8.846863747E0
3.330238046E1,3.809373617E0,-2.380260229E0,-8.827720642E0
3.332264942E1,3.814159393E0,-2.404188633E0,-8.808578491E0
3.334291843E1,3.833301783E0,-2.420938253E0,-8.806185722E0
3.336318739E1,3.833301783E0,-2.420938253E0,-8.813364029E0
3.338345640E1,3.821337700E0,-2.428116798E0,-8.806185722E0
3.340372530E1,3.804588079E0,-2.399402857E0,-8.820542336E0
3.342399437E1,3.780659676E0,-2.394617319E0,-8.832506180E0
3.344426333E1,3.785445452E0,-2.377867460E0,-8.839685440E0
3.346453234E1,3.806980848E0,-2.387438774E0,-8.846863747E0
3.348480130E1,3.828516245E0,-2.413759947E0,-8.842078209E0
3.350507031E1,3.821337700E0,-2.411366940E0,-8.818149567E0
3.352533926E1,3.823730469E0,-2.413759947E0,-8.825327873E0
3.354560827E1,3.838087559E0,-2.432902336E0,-8.834898949E0
3.356587723E1,3.821337700E0,-2.425724030E0,-8.806185722E0
3.358614619E1,3.826123476E0,-2.432902336E0,-8.803792953E0
3.360641520E1,3.835694790E0,-2.432902336E0,-8.772686005E0
3.362668416E1,3.828516245E0,-2.425724030E0,-8.794221878E0
3.364695317E1,3.806980848E0,-2.435295343E0,-8.813364029E0
3.366722213E1,3.809373617E0,-2.449652195E0,-8.846863747E0
3.368749114E1,3.842873096E0,-2.435295343E0,-8.842078209E0
3.386477744E1,3.883551121E0,-2.495115757E0,-8.803792953E0
3.388504645E1,3.893122435E0,-2.504687071E0,-8.794221878E0
3.390531541E1,3.893122435E0,-2.504687071E0,-8.779864311E0
3.392558437E1,3.888336897E0,-2.495115757E0,-8.755936623E0
3.394585338E1,3.883551121E0,-2.475973129E0,-8.765507698E0
3.396612234E1,3.859622955E0,-2.466402054E0,-8.755936623E0
3.398652234E1,3.840480328E0,-2.480758905E0,-8.770293236E0
3.400666031E1,3.840480328E0,-2.485544443E0,-8.770293236E0
3.402706030E1,3.873979807E0,-2.480758905E0,-8.779864311E0
3.404719827E1,3.878765583E0,-2.504687071E0,-8.789435387E0
3.406746723E1,3.912265062E0,-2.499901533E0,-8.784649849E0
3.408773619E1,3.926621914E0,-2.509472847E0,-8.775078773E0
3.410800515E1,3.907479286E0,-2.528615236E0,-8.751151085E0
3.412840515E1,3.883551121E0,-2.528615236E0,-8.755936623E0
3.414854312E1,3.883551121E0,-2.538186550E0,-8.760722160E0
3.416881208E1,3.883551121E0,-2.562114954E0,-8.751151085E0
3.418908103E1,3.888336897E0,-2.566900492E0,-8.736793518E0
3.420934999E1,3.921836376E0,-2.562114954E0,-8.741579056E0
3.422974999E1,3.907479286E0,-2.533401012E0,-8.746364594E0
3.424988796E1,3.912265062E0,-2.519043922E0,-8.741579056E0
3.427015692E1,3.917050600E0,-2.528615236E0,-8.755936623E0
3.429042588E1,3.945764542E0,-2.552543640E0,-8.765507698E0
3.431069489E1,3.974478483E0,-2.542972326E0,-8.717651367E0
3.433109489E1,3.950550079E0,-2.519043922E0,-8.708079338E0
3.435123280E1,3.921836376E0,-2.490330219E0,-8.722436905E0
3.437150176E1,3.888336897E0,-2.509472847E0,-8.746364594E0
3.439177077E1,3.888336897E0,-2.552543640E0,-8.736793518E0
3.441203973E1,3.912265062E0,-2.566900492E0,-8.717651367E0
3.443230869E1,3.926621914E0,-2.586043119E0,-8.717651367E0
3.445257765E1,3.960121393E0,-2.600399971E0,-8.727222443E0
3.447284661E1,3.974478483E0,-2.595614433E0,-8.732007980E0
3.449311557E1,3.960121393E0,-2.590828657E0,-8.722436905E0
3.451338452E1,3.950550079E0,-2.576471806E0,-8.727222443E0
3.453365348E1,3.893122435E0,-2.566900492E0,-8.703293800E0
3.455392244E1,3.878765583E0,-2.571686029E0,-8.722436905E0
3.457419145E1,3.893122435E0,-2.552543640E0,-8.727222443E0
3.459446041E1,3.897907972E0,-2.547757864E0,-8.727222443E0
3.461472937E1,3.917050600E0,-2.547757864E0,-8.736793518E0
3.463499833E1,3.945764542E0,-2.547757864E0,-8.755936623E0
3.465526728E1,3.960121393E0,-2.552543640E0,-8.741579056E0
3.467553624E1,3.955335855E0,-2.552543640E0,-8.741579056E0
3.469580520E1,3.931407690E0,-2.542972326E0,-8.736793518E0
3.471607416E1,3.917050600E0,-2.528615236E0,-8.751151085E0
3.473634312E1,3.917050600E0,-2.528615236E0,-8.741579056E0
3.475661208E1,3.931407690E0,-2.557329178E0,-8.736793518E0
3.477688103E1,3.964907169E0,-2.566900492E0,-8.722436905E0
3.479714999E1,3.955335855E0,-2.576471806E0,-8.703293800E0
3.481741895E1,3.917050600E0,-2.557329178E0,-8.736793518E0
3.483768791E1,3.902693748E0,-2.566900492E0,-8.736793518E0
3.485795687E1,3.926621914E0,-2.595614433E0,-8.746364594E0
3.487822583E1,3.979264021E0,-2.609971285E0,-8.746364594E0
3.489849478E1,3.988835335E0,-2.614757061E0,-8.688937187E0
3.491876374E1,3.931407690E0,-2.576471806E0,-8.650651932E0
3.493903270E1,3.907479286E0,-2.552543640E0,-8.679366112E0
3.495930166E1,3.893122435E0,-2.571686029E0,-8.684151649E0
3.497957062E1,3.897907972E0,-2.605185747E0,-8.693722725E0
3.499983958E1,3.931407690E0,-2.629113913E0,-8.722436905E0
3.502010848E1,3.984049797E0,-2.648256540E0,-8.732007980E0
3.504037744E1,3.979264021E0,-2.629113913E0,-8.727222443E0
3.506064640E1,3.974478483E0,-2.605185747E0,-8.712865829E0
3.508091536E1,3.945764542E0,-2.581257343E0,-8.708079338E0
3.510118432E1,3.931407690E0,-2.557329178E0,-8.703293800E0
3.512145322E1,3.931407690E0,-2.557329178E0,-8.698508263E0
3.514172218E1,3.917050600E0,-2.562114954E0,-8.717651367E0
3.516199114E1,3.921836376E0,-2.562114954E0,-8.736793518E0
3.518226010E1,3.926621914E0,-2.566900492E0,-8.741579056E0
3.520252906E1,3.964907169E0,-2.547757864E0,-8.727222443E0
3.522279796E1,3.955335855E0,-2.552543640E0,-8.722436905E0
3.524306692E1,3.931407690E0,-2.590828657E0,-8.722436905E0
3.526333588E1,3.907479286E0,-2.624328136E0,-8.722436905E0
3.528360478E1,3.873979807E0,-2.633899450E0,-8.717651367E0
3.530387374E1,3.859622955E0,-2.595614433E0,-8.732007980E0
3.532414270E1,3.873979807E0,-2.542972326E0,-8.755936623E0
3.534441161E1,3.873979807E0,-2.538186550E0,-8.770293236E0
3.536468057E1,3.893122435E0,-2.519043922E0,-8.789435387E0
3.538494952E1,3.926621914E0,-2.485544443E0,-8.794221878E0
3.540521843E1,3.945764542E0,-2.442473650E0,-8.789435387E0
3.542548739E1,3.940979004E0,-2.442473650E0,-8.751151085E0
3.544575635E1,3.897907972E0,-2.466402054E0,-8.732007980E0
3.546602525E1,3.902693748E0,-2.480758905E0,-8.784649849E0
3.548629421E1,3.921836376E0,-2.519043922E0,-8.784649849E0
3.550656312E1,3.912265062E0,-2.523829699E0,-8.755936623E0
3.552696312E1,3.907479286E0,-2.509472847E0,-8.732007980E0
3.554710103E1,3.912265062E0,-2.509472847E0,-8.741579056E0
3.556736994E1,3.893122435E0,-2.547757864E0,-8.746364594E0
3.558763890E1,3.912265062E0,-2.566900492E0,-8.736793518E0
3.560790780E1,3.902693748E0,-2.552543640E0,-8.717651367E0
3.562830781E1,3.864408493E0,-2.523829699E0,-8.722436905E0
3.564844567E1,3.840480328E0,-2.475973129E0,-8.736793518E0
3.566871463E1,3.850051641E0,-2.461616278E0,-8.775078773E0
3.568898353E1,3.888336897E0,-2.490330219E0,-8.779864311E0
3.570925249E1,3.926621914E0,-2.504687071E0,-8.784649849E0
3.572965249E1,3.926621914E0,-2.519043922E0,-8.789435387E0
3.574979031E1,3.926621914E0,-2.538186550E0,-8.779864311E0
3.577005926E1,3.912265062E0,-2.538186550E0,-8.779864311E0
3.579028885E1,3.907479286E0,-2.533401012E0,-8.751151085E0
3.581059708E1,3.907479286E0,-2.504687071E0,-8.746364594E0
3.583086598E1,3.883551121E0,-2.475973129E0,-8.736793518E0
3.585113494E1,3.917050600E0,-2.471187592E0,-8.741579056E0
3.587140385E1,3.926621914E0,-2.490330219E0,-8.751151085E0
3.589167286E1,3.912265062E0,-2.499901533E0,-8.755936623E0
3.591194176E1,3.888336897E0,-2.504687071E0,-8.746364594E0
3.593234176E1,3.893122435E0,-2.514258385E0,-8.741579056E0
3.595247963E1,3.897907972E0,-2.499901533E0,-8.765507698E0
3.597274853E1,3.921836376E0,-2.495115757E0,-8.765507698E0
3.599301749E1,3.931407690E0,-2.499901533E0,-8.784649849E0
3.601328640E1,3.936193228E0,-2.547757864E0,-8.779864311E0
3.603355530E1,3.912265062E0,-2.576471806E0,-8.813364029E0
3.605382426E1,3.888336897E0,-2.566900492E0,-8.803792953E0
3.607409317E1,3.873979807E0,-2.495115757E0,-8.755936623E0
3.609436208E1,3.845266104E0,-2.447259426E0,-8.698508263E0
3.611463103E1,3.840480328E0,-2.452044964E0,-8.693722725E0
3.613489994E1,3.854837179E0,-2.471187592E0,-8.741579056E0
3.615516885E1,3.869194269E0,-2.499901533E0,-8.765507698E0
3.617543780E1,3.912265062E0,-2.538186550E0,-8.775078773E0
3.619570671E1,3.917050600E0,-2.542972326E0,-8.751151085E0
3.621597562E1,3.917050600E0,-2.514258385E0,-8.775078773E0
3.623624452E1,3.907479286E0,-2.456830740E0,-8.794221878E0
3.625651348E1,3.921836376E0,-2.475973129E0,-8.775078773E0
3.627678239E1,3.926621914E0,-2.514258385E0,-8.751151085E0
3.629705130E1,3.897907972E0,-2.523829699E0,-8.760722160E0
3.631732020E1,3.893122435E0,-2.514258385E0,-8.746364594E0
3.633758916E1,3.893122435E0,-2.509472847E0,-8.741579056E0
3.635785807E1,3.893122435E0,-2.499901533E0,-8.741579056E0
3.637812697E1,3.917050600E0,-2.495115757E0,-8.755936623E0
3.639839588E1,3.907479286E0,-2.490330219E0,-8.775078773E0
3.641866478E1,3.902693748E0,-2.475973129E0,-8.775078773E0
3.643893369E1,3.917050600E0,-2.485544443E0,-8.770293236E0
3.645920260E1,3.907479286E0,-2.509472847E0,-8.770293236E0
3.647947156E1,3.883551121E0,-2.504687071E0,-8.770293236E0
3.649987156E1,3.873979807E0,-2.495115757E0,-8.770293236E0
3.652000937E1,3.869194269E0,-2.509472847E0,-8.775078773E0
3.654027827E1,3.883551121E0,-2.480758905E0,-8.775078773E0
3.656054718E1,3.888336897E0,-2.475973129E0,-8.736793518E0
3.658081609E1,3.883551121E0,-2.490330219E0,-8.717651367E0
3.660108499E1,3.902693748E0,-2.509472847E0,-8.741579056E0
3.662135390E1,3.883551121E0,-2.542972326E0,-8.765507698E0
3.664162281E1,3.902693748E0,-2.538186550E0,-8.808578491E0
3.666189171E1,3.912265062E0,-2.495115757E0,-8.779864311E0
3.668216062E1,3.912265062E0,-2.456830740E0,-8.741579056E0
3.670242952E1,3.907479286E0,-2.461616278E0,-8.717651367E0
3.672269843E1,3.897907972E0,-2.461616278E0,-8.755936623E0
3.674296734E1,3.878765583E0,-2.471187592E0,-8.799007416E0
3.676323624E1,3.902693748E0,-2.490330219E0,-8.818149567E0
3.678350515E1,3.921836376E0,-2.514258385E0,-8.794221878E0
3.680377400E1,3.921836376E0,-2.523829699E0,-8.760722160E0
3.682404296E1,3.888336897E0,-2.495115757E0,-8.746364594E0
3.684431182E1,3.854837179E0,-2.495115757E0,-8.746364594E0
3.686458072E1,3.835694790E0,-2.466402054E0,-8.755936623E0
3.688484963E1,3.826123476E0,-2.466402054E0,-8.755936623E0
3.690511853E1,3.850051641E0,-2.466402054E0,-8.760722160E0
3.692538744E1,3.873979807E0,-2.461616278E0,-8.751151085E0
3.694565635E1,3.873979807E0,-2.471187592E0,-8.770293236E0
3.696592520E1,3.893122435E0,-2.499901533E0,-8.803792953E0
3.698619411E1,3.897907972E0,-2.499901533E0,-8.799007416E0
3.700646301E1,3.883551121E0,-2.495115757E0,-8.765507698E0
3.702686301E1,3.888336897E0,-2.495115757E0,-8.760722160E0
3.704700077E1,3.888336897E0,-2.490330219E0,-8.751151085E0
3.706726968E1,3.864408493E0,-2.499901533E0,-8.741579056E0
3.708753859E1,3.859622955E0,-2.504687071E0,-8.765507698E0
3.710780744E1,3.873979807E0,-2.523829699E0,-8.784649849E0
3.712820744E1,3.869194269E0,-2.504687071E0,-8.789435387E0
3.714834525E1,3.873979807E0,-2.471187592E0,-8.770293236E0
3.716874525E1,3.888336897E0,-2.466402054E0,-8.746364594E0
3.718888301E1,3.893122435E0,-2.456830740E0,-8.746364594E0
3.720915192E1,3.864408493E0,-2.452044964E0,-8.775078773E0
3.722955192E1,3.864408493E0,-2.466402054E0,-8.818149567E0
3.724968968E1,3.864408493E0,-2.471187592E0,-8.832506180E0
3.726995853E1,3.869194269E0,-2.437688112E0,-8.803792953E0
3.729022744E1,3.893122435E0,-2.447259426E0,-8.770293236E0
3.731049630E1,3.897907972E0,-2.442473650E0,-8.746364594E0
3.733089630E1,3.854837179E0,-2.432902336E0,-8.755936623E0
3.735103411E1,3.835694790E0,-2.437688112E0,-8.784649849E0
3.737130301E1,3.845266104E0,-2.452044964E0,-8.794221878E0
3.739157187E1,3.845266104E0,-2.471187592E0,-8.813364029E0
3.741184072E1,3.859622955E0,-2.461616278E0,-8.827720642E0
3.743210963E1,3.835694790E0,-2.442473650E0,-8.818149567E0
3.745237848E1,3.816552162E0,-2.408974171E0,-8.789435387E0
3.747264739E1,3.845266104E0,-2.423331022E0,-8.775078773E0
3.749291630E1,3.873979807E0,-2.447259426E0,-8.794221878E0
3.751318515E1,3.864408493E0,-2.456830740E0,-8.813364029E0
3.753345400E1,3.883551121E0,-2.456830740E0,-8.813364029E0
3.755372291E1,3.883551121E0,-2.437688112E0,-8.775078773E0
3.757399176E1,3.850051641E0,-2.428116798E0,-8.770293236E0
3.759426067E1,3.840480328E0,-2.404188633E0,-8.784649849E0
3.761452952E1,3.835694790E0,-2.404188633E0,-8.799007416E0
3.763479843E1,3.850051641E0,-2.437688112E0,-8.808578491E0
3.765506728E1,3.850051641E0,-2.442473650E0,-8.813364029E0
3.767533614E1,3.845266104E0,-2.428116798E0,-8.808578491E0
3.769560504E1,3.854837179E0,-2.432902336E0,-8.789435387E0
3.771587390E1,3.854837179E0,-2.456830740E0,-8.799007416E0
3.773614275E1,3.869194269E0,-2.461616278E0,-8.799007416E0
3.775641166E1,3.864408493E0,-2.447259426E0,-8.789435387E0
3.777668051E1,3.859622955E0,-2.437688112E0,-8.784649849E0
3.779694942E1,3.854837179E0,-2.437688112E0,-8.779864311E0
3.781721827E1,3.816552162E0,-2.437688112E0,-8.789435387E0
3.783748713E1,3.806980848E0,-2.452044964E0,-8.832506180E0
3.785775603E1,3.835694790E0,-2.452044964E0,-8.822935104E0
3.787802489E1,3.869194269E0,-2.413759947E0,-8.808578491E0
3.789829374E1,3.902693748E0,-2.408974171E0,-8.779864311E0
3.791856265E1,3.897907972E0,-2.423331022E0,-8.755936623E0
3.793883150E1,3.854837179E0,-2.437688112E0,-8.799007416E0
3.795910036E1,3.835694790E0,-2.437688112E0,-8.832506180E0
3.797936921E1,3.816552162E0,-2.447259426E0,-8.842078209E0
3.799963812E1,3.816552162E0,-2.432902336E0,-8.832506180E0
3.801990697E1,3.845266104E0,-2.418545485E0,-8.818149567E0
3.804017583E1,3.864408493E0,-2.423331022E0,-8.803792953E0
3.806057583E1,3.859622955E0,-2.428116798E0,-8.799007416E0
3.808071353E1,3.859622955E0,-2.437688112E0,-8.789435387E0
3.810111353E1,3.850051641E0,-2.456830740E0,-8.789435387E0
3.812125130E1,3.850051641E0,-2.432902336E0,-8.803792953E0
3.814152015E1,3.830909014E0,-2.418545485E0,-8.789435387E0
3.816178900E1,3.821337700E0,-2.408974171E0,-8.799007416E0
3.818205786E1,3.826123476E0,-2.404188633E0,-8.808578491E0
3.820232676E1,3.854837179E0,-2.413759947E0,-8.827720642E0
3.822259562E1,3.883551121E0,-2.432902336E0,-8.813364029E0
3.824286447E1,3.893122435E0,-2.428116798E0,-8.808578491E0
3.826313333E1,3.850051641E0,-2.442473650E0,-8.794221878E0
3.828340218E1,3.840480328E0,-2.442473650E0,-8.799007416E0
3.830367103E1,3.840480328E0,-2.442473650E0,-8.808578491E0
3.832393989E1,3.854837179E0,-2.447259426E0,-8.799007416E0
3.834420874E1,3.869194269E0,-2.442473650E0,-8.803792953E0
3.836447765E1,3.873979807E0,-2.442473650E0,-8.789435387E0
3.838474645E1,3.864408493E0,-2.447259426E0,-8.789435387E0
3.840501530E1,3.854837179E0,-2.466402054E0,-8.779864311E0
3.842528421E1,3.845266104E0,-2.485544443E0,-8.803792953E0
3.844555307E1,3.864408493E0,-2.475973129E0,-8.813364029E0
3.846582192E1,3.883551121E0,-2.466402054E0,-8.765507698E0
3.848609077E1,3.897907972E0,-2.461616278E0,-8.746364594E0
3.850635963E1,3.869194269E0,-2.461616278E0,-8.765507698E0
3.852675963E1,3.840480328E0,-2.447259426E0,-8.770293236E0
3.854689734E1,3.821337700E0,-2.452044964E0,-8.794221878E0
3.856716619E1,3.830909014E0,-2.461616278E0,-8.799007416E0
3.858743504E1,3.859622955E0,-2.475973129E0,-8.799007416E0
3.860770390E1,3.869194269E0,-2.490330219E0,-8.789435387E0
3.862810390E1,3.888336897E0,-2.504687071E0,-8.779864311E0
3.864824161E1,3.893122435E0,-2.509472847E0,-8.775078773E0
3.866851046E1,3.878765583E0,-2.519043922E0,-8.755936623E0
3.868877932E1,3.883551121E0,-2.514258385E0,-8.765507698E0
3.870904817E1,3.878765583E0,-2.514258385E0,-8.770293236E0
3.872944817E1,3.878765583E0,-2.490330219E0,-8.746364594E0
3.874958588E1,3.873979807E0,-2.490330219E0,-8.736793518E0
3.876985473E1,3.873979807E0,-2.480758905E0,-8.755936623E0
3.879012359E1,3.902693748E0,-2.495115757E0,-8.770293236E0
3.881039244E1,3.936193228E0,-2.523829699E0,-8.775078773E0
3.883066130E1,3.945764542E0,-2.538186550E0,-8.779864311E0
3.885093015E1,3.912265062E0,-2.547757864E0,-8.775078773E0
3.887119895E1,3.873979807E0,-2.542972326E0,-8.770293236E0
3.889146786E1,3.883551121E0,-2.533401012E0,-8.751151085E0
3.891173671E1,3.883551121E0,-2.519043922E0,-8.746364594E0
3.893213671E1,3.917050600E0,-2.533401012E0,-8.727222443E0
3.895227442E1,3.917050600E0,-2.557329178E0,-8.727222443E0
3.897254327E1,3.902693748E0,-2.552543640E0,-8.746364594E0
3.899281213E1,3.907479286E0,-2.552543640E0,-8.746364594E0
3.901308093E1,3.907479286E0,-2.557329178E0,-8.770293236E0
3.903334984E1,3.950550079E0,-2.557329178E0,-8.751151085E0
3.905361869E1,3.979264021E0,-2.552543640E0,-8.703293800E0
3.907388749E1,3.940979004E0,-2.533401012E0,-8.712865829E0
3.909415635E1,3.912265062E0,-2.514258385E0,-8.727222443E0
3.911442520E1,3.883551121E0,-2.528615236E0,-8.732007980E0
3.913469406E1,3.893122435E0,-2.562114954E0,-8.732007980E0
3.915496291E1,3.936193228E0,-2.581257343E0,-8.732007980E0
3.917523176E1,3.945764542E0,-2.600399971E0,-8.736793518E0
3.919550062E1,3.955335855E0,-2.590828657E0,-8.717651367E0
3.921576942E1,3.931407690E0,-2.586043119E0,-8.684151649E0
3.923603827E1,3.931407690E0,-2.595614433E0,-8.674580574E0
3.925630713E1,3.940979004E0,-2.605185747E0,-8.688937187E0
3.927670713E1,3.936193228E0,-2.614757061E0,-8.712865829E0
3.929684484E1,3.931407690E0,-2.629113913E0,-8.712865829E0
3.931711369E1,3.960121393E0,-2.576471806E0,-8.708079338E0
3.933738249E1,3.940979004E0,-2.480758905E0,-8.755936623E0
3.935765135E1,3.883551121E0,-2.466402054E0,-8.822935104E0
3.937792020E1,3.878765583E0,-2.523829699E0,-8.822935104E0
3.939818906E1,3.897907972E0,-2.557329178E0,-8.813364029E0
3.941845791E1,3.840480328E0,-2.504687071E0,-8.784649849E0
3.943872676E1,3.739981890E0,-2.418545485E0,-8.746364594E0
3.945899562E1,3.658625841E0,-2.361117840E0,-8.746364594E0
3.947926442E1,3.682554007E0,-2.413759947E0,-8.760722160E0
3.949953327E1,3.759124279E0,-2.485544443E0,-8.765507698E0
3.951980213E1,3.802195072E0,-2.523829699E0,-8.722436905E0
3.954007098E1,3.811766386E0,-2.480758905E0,-8.703293800E0
3.956033978E1,3.845266104E0,-2.480758905E0,-8.727222443E0
3.958060864E1,3.974478483E0,-2.609971285E0,-8.837292671E0
3.960087749E1,4.161118507E0,-2.810968399E0,-8.947361946E0
3.972762494E1,3.866801500E0,-2.131406784E0,-8.717651367E0
3.974789380E1,3.984049797E0,-2.279761791E0,-8.799007416E0
3.976816265E1,4.086941242E0,-2.456830740E0,-8.877969742E0
3.978843150E1,4.101297855E0,-2.621935368E0,-8.911469460E0
3.980870036E1,4.067798615E0,-2.736790895E0,-8.875576973E0
3.982896921E1,3.972085476E0,-2.772683144E0,-8.803792953E0
3.984923801E1,3.890729666E0,-2.693720102E0,-8.736793518E0
3.986950687E1,3.787838221E0,-2.557329178E0,-8.698508263E0
3.988977572E1,3.749552965E0,-2.454437733E0,-8.722436905E0
3.991004452E1,3.744767427E0,-2.416152716E0,-8.782257080E0
3.993031338E1,3.792623997E0,-2.435295343E0,-8.782257080E0
3.995058223E1,3.830909014E0,-2.475973129E0,-8.799007416E0
3.997085103E1,3.857230186E0,-2.499901533E0,-8.775078773E0
3.999111989E1,3.854837179E0,-2.509472847E0,-8.712865829E0
4.001138874E1,3.857230186E0,-2.490330219E0,-8.693722725E0
4.003178874E1,3.852444410E0,-2.454437733E0,-8.720044136E0
4.005192640E1,3.873979807E0,-2.495115757E0,-8.751151085E0
4.007232640E1,3.924229145E0,-2.516651154E0,-8.803792953E0
4.009246406E1,3.931407690E0,-2.533401012E0,-8.830113411E0
4.011273291E1,3.926621914E0,-2.538186550E0,-8.858827591E0
4.013314088E1,3.878765583E0,-2.523829699E0,-8.822935104E0
4.015341911E1,3.811766386E0,-2.516651154E0,-8.779864311E0
4.017353249E1,3.775874138E0,-2.497508526E0,-8.765507698E0
4.019380275E1,3.768695593E0,-2.475973129E0,-8.775078773E0
4.021407145E1,3.806980848E0,-2.473580360E0,-8.772686005E0
4.023447265E1,3.842873096E0,-2.497508526E0,-8.767900467E0
4.025461119E1,3.828516245E0,-2.509472847E0,-8.801400185E0
4.027488072E1,3.787838221E0,-2.464009047E0,-8.799007416E0
4.029515010E1,3.761517286E0,-2.466402054E0,-8.775078773E0
4.031541890E1,3.814159393E0,-2.497508526E0,-8.770293236E0
4.033581937E1,3.833301783E0,-2.504687071E0,-8.767900467E0
4.035595744E1,3.869194269E0,-2.475973129E0,-8.794221878E0
4.037622650E1,3.850051641E0,-2.440080881E0,-8.806185722E0
4.039649557E1,3.840480328E0,-2.408974171E0,-8.810971260E0
4.041676458E1,3.864408493E0,-2.440080881E0,-8.827720642E0
4.043703359E1,3.900300980E0,-2.480758905E0,-8.839685440E0
4.045730255E1,3.940979004E0,-2.552543640E0,-8.827720642E0
4.047757150E1,3.945764542E0,-2.557329178E0,-8.791828156E0
4.049784036E1,3.938585997E0,-2.478366137E0,-8.789435387E0
4.051810926E1,3.869194269E0,-2.339582443E0,-8.794221878E0
4.053837812E1,3.871587038E0,-2.196012974E0,-8.813364029E0
4.055864702E1,3.883551121E0,-2.176870346E0,-8.861220360E0
4.057891583E1,3.888336897E0,-2.377867460E0,-8.863613129E0
4.059918473E1,3.924229145E0,-2.557329178E0,-8.818149567E0
4.061945353E1,3.888336897E0,-2.681756020E0,-8.827720642E0
4.063972234E1,3.852444410E0,-2.732005358E0,-8.818149567E0
4.065999124E1,3.852444410E0,-2.724826813E0,-8.712865829E0
4.068026005E1,3.842873096E0,-2.667398930E0,-8.629117012E0
4.070052890E1,3.840480328E0,-2.574079037E0,-8.531010628E0
4.072079770E1,3.835694790E0,-2.523829699E0,-8.471190453E0
4.074106650E1,3.818944931E0,-2.564507723E0,-8.566903114E0
4.076133536E1,3.828516245E0,-2.633899450E0,-8.789435387E0
4.078160416E1,3.771088600E0,-2.700898647E0,-8.882756233E0
4.080187301E1,3.634697676E0,-2.633899450E0,-8.820542336E0
4.082214182E1,3.488735437E0,-2.475973129E0,-8.763114929E0
4.084241062E1,3.488735437E0,-2.349153519E0,-8.794221878E0
4.086267947E1,3.706482172E0,-2.337189436E0,-8.815756798E0
4.088294833E1,4.015156269E0,-2.430509567E0,-8.765507698E0
4.090321713E1,4.304687977E0,-2.550150633E0,-8.638688087E0
4.092348598E1,4.494318962E0,-2.533401012E0,-8.399405479E0
4.094375478E1,4.520640373E0,-2.435295343E0,-8.264809608E0
4.096402359E1,4.434498787E0,-2.320439816E0,-8.334799767E0
4.098442359E1,4.256831646E0,-2.179263115E0,-8.633902550E0
4.100456124E1,4.031906128E0,-2.047059774E0,-9.011968613E0
4.102483004E1,3.869194269E0,-2.203191519E0,-9.246464729E0
4.104509885E1,3.730410576E0,-2.557329178E0,-9.160323143E0
4.106536770E1,3.469592810E0,-2.720041037E0,-8.918647766E0
4.108563650E1,3.308675528E0,-2.595614433E0,-8.775078773E0
4.110590530E1,3.388236761E0,-2.389831543E0,-8.909076691E0
4.112617411E1,3.610769272E0,-2.258226395E0,-9.112466812E0
4.114644291E1,4.003192425E0,-2.310868502E0,-9.193822861E0
4.116671176E1,4.352544308E0,-2.420938253E0,-9.078967094E0
4.118698057E1,4.482355118E0,-2.430509567E0,-8.885149002E0
4.120724932E1,4.369294167E0,-2.339582443E0,-8.696115494E0
4.122751817E1,4.206582069E0,-2.277369022E0,-8.408976555E0
4.124778697E1,3.912265062E0,-2.327618122E0,-8.173882484E0
4.126805577E1,3.579662561E0,-2.138585329E0,-8.531010628E0
4.128832463E1,3.370888948E0,-1.925025821E0,-8.921041489E0
4.130859343E1,3.440878868E0,-2.100300074E0,-9.052646637E0
4.132886223E1,3.443271875E0,-2.339582443E0,-9.596415520E0
4.134913103E1,3.524627686E0,-2.399402857E0,-9.550951958E0
4.136939984E1,3.596412420E0,-2.507079840E0,-8.956933022E0
4.138966864E1,3.548556089E0,-2.590828657E0,-8.509475708E0
4.140993749E1,3.531806231E0,-2.487937450E0,-8.447261810E0
4.143020630E1,3.639483213E0,-2.380260229E0,-8.550153732E0
4.145047510E1,3.766302824E0,-2.308475733E0,-8.681758881E0
4.147074390E1,3.914657831E0,-2.246262312E0,-8.748757362E0
4.149101270E1,4.039084435E0,-2.217548370E0,-8.767900467E0
4.151128150E1,4.201796532E0,-2.169692039E0,-8.777471542E0
4.153168145E1,4.347758770E0,-2.186441660E0,-8.767900467E0
4.155181906E1,4.484747887E0,-2.253440619E0,-8.734400749E0
4.157208791E1,4.630710125E0,-2.322832584E0,-8.667402267E0
4.159235671E1,4.657031059E0,-2.303689957E0,-8.665008545E0
4.161262551E1,4.518247128E0,-2.210369825E0,-8.681758881E0
4.163302551E1,4.345366001E0,-2.136192322E0,-8.722436905E0
4.165316312E1,4.173082829E0,-2.088335991E0,-8.770293236E0
4.167343192E1,4.012763500E0,-2.112264156E0,-8.760722160E0
4.169370072E1,3.912265062E0,-2.162513494E0,-8.755936623E0
4.171396952E1,3.864408493E0,-2.239083767E0,-8.765507698E0
4.173436952E1,3.850051641E0,-2.298904419E0,-8.822935104E0
4.175450713E1,3.881158352E0,-2.346760750E0,-8.875576973E0
4.177477593E1,3.850051641E0,-2.377867460E0,-8.909076691E0
4.179504468E1,3.761517286E0,-2.344367981E0,-8.904291153E0
4.181531343E1,3.694518089E0,-2.303689957E0,-8.897112846E0
4.183558223E1,3.658625841E0,-2.294118643E0,-8.875576973E0
4.185585103E1,3.651447296E0,-2.315654039E0,-8.866005898E0
4.187611984E1,3.684946775E0,-2.341975212E0,-8.846863747E0
4.189638864E1,3.718446493E0,-2.394617319E0,-8.803792953E0
4.191665353E1,3.761517286E0,-2.416152716E0,-8.799007416E0
4.193688775E1,3.785445452E0,-2.411366940E0,-8.806185722E0
4.195719567E1,3.814159393E0,-2.341975212E0,-8.782257080E0
4.197746432E1,3.835694790E0,-2.291725874E0,-8.772686005E0
4.199773301E1,3.828516245E0,-2.308475733E0,-8.763114929E0
4.201800176E1,3.850051641E0,-2.334796667E0,-8.842078209E0
4.203827057E1,3.866801500E0,-2.370688915E0,-8.870791435E0
4.205853932E1,3.888336897E0,-2.368296146E0,-8.815756798E0
4.207880807E1,3.914657831E0,-2.308475733E0,-8.770293236E0
4.209907682E1,3.962514400E0,-2.265404940E0,-8.765507698E0
4.211934562E1,4.010370731E0,-2.239083767E0,-8.760722160E0
4.213961437E1,4.051048756E0,-2.207977057E0,-8.760722160E0
4.215988312E1,4.089334011E0,-2.212762833E0,-8.775078773E0
4.218028312E1,4.113262177E0,-2.222334146E0,-8.791828156E0
4.220042072E1,4.106083870E0,-2.239083767E0,-8.799007416E0
4.222082067E1,4.089334011E0,-2.296511650E0,-8.767900467E0
4.224095827E1,4.048655987E0,-2.334796667E0,-8.753543854E0
4.226122708E1,4.003192425E0,-2.315654039E0,-8.746364594E0
4.228149588E1,3.962514400E0,-2.255833626E0,-8.763114929E0
4.230176468E1,3.950550079E0,-2.234298229E0,-8.787042618E0
4.232203343E1,3.957728624E0,-2.219941139E0,-8.877969742E0
4.234230223E1,3.962514400E0,-2.282154560E0,-8.916254997E0
4.236257103E1,3.960121393E0,-2.322832584E0,-8.882756233E0
4.238283984E1,3.936193228E0,-2.322832584E0,-8.794221878E0
