"Time (s)","Acceleration x (m/s^2)","Acceleration y (m/s^2)","Acceleration z (m/s^2)"
8.104308900E-2,-2.465326786E0,6.235555649E0,7.156144619E0
1.013130370E-1,-2.382199764E0,6.180254459E0,7.231871605E0
1.215830370E-1,-2.300621986E0,6.113111496E0,7.314874172E0
1.416956410E-1,-2.211304188E0,6.032428741E0,7.408801079E0
1.619654320E-1,-2.107990026E0,5.926109791E0,7.523828506E0
1.822352240E-1,-1.989266872E0,5.805287361E0,7.649304390E0
2.025051200E-1,-1.852102757E0,5.670094490E0,7.783965588E0
2.229051200E-1,-1.697129846E0,5.495285034E0,7.943046093E0
2.430449120E-1,-1.551846504E0,5.311352730E0,8.096400261E0
2.633148070E-1,-1.438739777E0,5.127355576E0,8.234722137E0
2.835847550E-1,-1.336901665E0,4.967731953E0,8.348935127E0
3.038546510E-1,-1.225970984E0,4.854454517E0,8.432179451E0
3.242546510E-1,-1.090672612E0,4.784374714E0,8.490617752E0
3.443945990E-1,-9.156680703E-1,4.700863838E0,8.557676315E0
3.646644950E-1,-7.252659202E-1,4.548593998E0,8.657636642E0
3.849344950E-1,-5.242041945E-1,4.311622620E0,8.792355537E0
4.052044950E-1,-2.745226026E-1,3.983123302E0,8.957106590E0
4.254744430E-1,5.253725871E-2,3.551550150E0,9.140793800E0
4.457443910E-1,4.432324469E-1,3.039640188E0,9.313137054E0
4.660143910E-1,8.740895391E-1,2.503920078E0,9.441226006E0
4.862843910E-1,1.282529593E0,2.029351234E0,9.508273125E0
5.065543390E-1,1.582696438E0,1.620828509E0,9.541402817E0
5.269543390E-1,1.809859157E0,1.223680019E0,9.560198784E0
5.470943390E-1,1.953455210E0,8.434656262E-1,9.573033333E0
5.673643390E-1,2.058186054E0,4.849001169E-1,9.575965881E0
5.876342350E-1,2.104221344E0,1.297912151E-1,9.577358246E0
6.079042350E-1,2.104355335E0,-2.320919186E-1,9.575395584E0
6.281742350E-1,2.216923952E0,-5.947401524E-1,9.534249306E0
6.484442350E-1,2.535247326E0,-9.588316679E-1,9.424624443E0
6.687142350E-1,2.910052299E0,-1.321719170E0,9.271194458E0
6.889841820E-1,3.286652088E0,-1.615730405E0,9.097126961E0
7.092541820E-1,3.833445787E0,-1.696793318E0,8.865436554E0
7.295241820E-1,4.477654934E0,-1.501672387E0,8.594531059E0
7.497941820E-1,5.241594315E0,-1.110333562E0,8.213601112E0
7.700641300E-1,5.894453526E0,-6.493102312E-1,7.810518265E0
7.903341300E-1,6.228053570E0,-4.646165967E-1,7.560811520E0
8.106041300E-1,6.408623695E0,-5.726393461E-1,7.400812149E0
8.308741300E-1,6.481120586E0,-8.968757391E-1,7.304867268E0
8.511440780E-1,6.546546459E0,-1.313474774E0,7.182472229E0
8.714140780E-1,6.564787865E0,-1.780846834E0,7.064171791E0
8.916840780E-1,6.517371655E0,-2.314722300E0,6.952432156E0
9.119540780E-1,6.436413288E0,-2.885616779E0,6.812942982E0
9.322240780E-1,6.364462376E0,-3.329803228E0,6.676556587E0
9.524940260E-1,6.331606865E0,-3.573586702E0,6.581080914E0
9.727640260E-1,6.334788322E0,-3.680625439E0,6.518729687E0
9.930340260E-1,6.442184925E0,-3.739952564E0,6.378197193E0
1.013304026E0,6.652826309E0,-3.782684803E0,6.132013321E0
1.033573974E0,6.818829060E0,-3.801407576E0,5.934917927E0
1.053843974E0,6.841386795E0,-3.791666269E0,5.915157795E0
1.074113974E0,6.767671108E0,-3.791727304E0,5.999319077E0
1.094383974E0,6.673251629E0,-3.841134548E0,6.073202133E0
1.114653974E0,6.726751328E0,-3.874261856E0,5.992602825E0
1.134923922E0,7.001705170E0,-3.730557203E0,5.764500618E0
1.155193922E0,7.403225899E0,-3.456340551E0,5.423683643E0
1.175463922E0,7.833852768E0,-3.139259338E0,4.994617939E0
1.195733870E0,8.248007774E0,-2.876511097E0,4.457178116E0
1.216003870E0,8.667988777E0,-2.621636152E0,3.763426781E0
1.236273870E0,9.046237946E0,-2.309355974E0,3.000472307E0
1.256543818E0,9.347142220E0,-1.957929730E0,2.228864431E0
1.276813818E0,9.560763359E0,-1.588467598E0,1.496317863E0
1.297083818E0,9.690197945E0,-1.256279111E0,8.319898248E-1
1.317483818E0,9.752964973E0,-1.009148836E0,1.779266149E-1
1.337623766E0,9.756031036E0,-9.035923481E-1,-4.168364108E-1
1.357893766E0,9.727538109E0,-8.491955996E-1,-9.078873396E-1
1.378163714E0,9.675063133E0,-7.517554760E-1,-1.413651109E0
1.398433714E0,9.581349373E0,-6.083747149E-1,-1.999505162E0
1.418703714E0,9.427724838E0,-4.532910883E-1,-2.661373854E0
1.438973714E0,9.182882309E0,-3.142743707E-1,-3.427287340E0
1.459243662E0,8.841755867E0,-2.148139924E-1,-4.236461639E0
1.479513662E0,8.461726189E0,-1.547672600E-1,-4.954355717E0
1.499783610E0,8.057728767E0,-5.939633027E-2,-5.589262962E0
1.520053610E0,7.650462151E0,3.831909597E-2,-6.135091782E0
1.540402307E0,7.291191101E0,1.076438949E-1,-6.557233810E0
1.560593714E0,7.046802044E0,1.527905017E-1,-6.818330288E0
1.580863662E0,6.816736221E0,2.045556009E-1,-7.047030926E0
1.601133662E0,6.576431274E0,2.445068061E-1,-7.270566940E0
1.621533662E0,6.348974228E0,2.726092637E-1,-7.469042301E0
1.641673557E0,6.081943035E0,3.039758801E-1,-7.686869144E0
1.661943557E0,5.785770416E0,3.390970826E-1,-7.910768986E0
1.682213557E0,5.487293243E0,3.521984816E-1,-8.120096207E0
1.702483505E0,5.308529854E0,3.340017796E-1,-8.238831520E0
1.722883505E0,5.252886295E0,3.078421056E-1,-8.275433540E0
1.743023505E0,5.170913219E0,1.998118311E-1,-8.330193520E0
1.763293453E0,5.109368324E0,-1.028651604E-3,-8.370469093E0
1.783563453E0,5.139832020E0,-1.776573211E-1,-8.349907875E0
1.803833453E0,5.166313648E0,-2.661424279E-1,-8.331192970E0
1.824233453E0,5.123570919E0,-3.518708050E-1,-8.354375839E0
1.844373401E0,5.036856651E0,-4.439274967E-1,-8.402582169E0
1.864643401E0,4.976952553E0,-5.341262817E-1,-8.432972908E0
1.884913401E0,4.868752480E0,-6.615678668E-1,-8.486929893E0
1.905183401E0,4.807567596E0,-7.441130280E-1,-8.514926910E0
1.925583401E0,4.863533020E0,-8.145737052E-1,-8.476608276E0
1.945723401E0,4.931084633E0,-9.547995925E-1,-8.422774315E0
1.965993401E0,4.956839085E0,-1.148360968E0,-8.383400917E0
1.986263401E0,4.959155083E0,-1.320377231E0,-8.356659889E0
2.006533401E0,4.952814102E0,-1.411532164E0,-8.345514297E0
2.026803401E0,5.043528557E0,-1.504177094E0,-8.274700165E0
2.047073401E0,5.163023472E0,-1.658349991E0,-8.170890808E0
2.067343401E0,5.251221180E0,-1.877567053E0,-8.066586494E0
2.087613401E0,5.360270500E0,-2.155597448E0,-7.924095154E0
2.107883401E0,5.499489307E0,-2.442545652E0,-7.743382454E0
2.128153401E0,5.598954678E0,-2.697542906E0,-7.585865498E0
2.148423401E0,5.612400055E0,-2.928279638E0,-7.489761829E0
2.168693453E0,5.555836201E0,-3.104388714E0,-7.460954189E0
2.188963453E0,5.456071377E0,-3.215729237E0,-7.487373829E0
2.209233453E0,5.209533215E0,-3.289389849E0,-7.629617691E0
2.229503453E0,4.663921833E0,-3.313332319E0,-7.964926243E0
2.249773453E0,3.660142660E0,-3.301896811E0,-8.477689743E0
2.270043505E0,2.117872715E0,-3.279677391E0,-8.996039391E0
2.290313505E0,4.992426932E-1,-3.197331667E0,-9.257332802E0
2.310583505E0,-7.515875101E-1,-2.904371023E0,-9.336494446E0
2.330853505E0,-2.161357880E0,-2.325487375E0,-9.278525352E0
2.351123557E0,-3.336123705E0,-1.636138201E0,-9.075445175E0
2.371393557E0,-4.383811474E0,-1.056999922E0,-8.708349228E0
2.391663557E0,-5.297557354E0,-6.368378401E-1,-8.228043556E0
2.411933610E0,-5.803444862E0,-3.566521108E-1,-7.897038937E0
2.432203610E0,-5.838335991E0,-2.291564643E-1,-7.876021385E0
2.452473662E0,-5.618851662E0,-2.214785814E-1,-8.034291267E0
2.472743662E0,-5.458891869E0,-1.669926494E-1,-8.145120621E0
2.493013662E0,-5.643759727E0,1.600894779E-1,-8.018275261E0
2.513283714E0,-6.108366966E0,5.964775681E-1,-7.648690701E0
2.533553714E0,-6.403785706E0,9.325699210E-1,-7.368326664E0
2.553823714E0,-6.509972572E0,1.129652619E0,-7.246691227E0
2.574093766E0,-6.474684238E0,1.239286065E0,-7.260372162E0
2.594363766E0,-6.382401466E0,1.256162405E0,-7.338760376E0
2.614633818E0,-6.396729469E0,1.199553728E0,-7.335755348E0
2.634903818E0,-6.597291946E0,1.090720654E0,-7.173315525E0
2.655173870E0,-6.933727741E0,9.328881502E-1,-6.871937752E0
2.675443818E0,-7.262822151E0,7.514339089E-1,-6.546538353E0
2.695713870E0,-7.442013264E0,6.097608209E-1,-6.357280731E0
2.715983922E0,-7.503589630E0,5.837968588E-1,-6.286948204E0
2.736253922E0,-7.558562279E0,6.353494525E-1,-6.215693951E0
2.756523974E0,-7.591271877E0,6.923702955E-1,-6.169569969E0
2.776793974E0,-7.596865654E0,7.309452891E-1,-6.158225060E0
2.797064026E0,-7.737836838E0,7.152647972E-1,-5.982028008E0
2.817334026E0,-7.944174767E0,6.689707041E-1,-5.710775375E0
2.837604026E0,-8.178146362E0,5.788931847E-1,-5.380817413E0
2.857874078E0,-8.403490067E0,4.155359268E-1,-5.037765503E0
2.878144078E0,-8.566329002E0,2.102067471E-1,-4.769088745E0
2.898414130E0,-8.651150703E0,-1.173292380E-2,-4.618208408E0
2.918684130E0,-8.673381805E0,-2.709878683E-1,-4.568304062E0
2.938954182E0,-8.630612373E0,-4.912262261E-1,-4.630508900E0
2.959224182E0,-8.581851006E0,-6.127231717E-1,-4.706038952E0
2.979494182E0,-8.578227997E0,-7.348988056E-1,-4.695138931E0
2.999764235E0,-8.585239410E0,-9.250447154E-1,-4.648478985E0
3.020034235E0,-8.582571983E0,-1.111835241E0,-4.612337112E0
3.040304287E0,-8.607481956E0,-1.230929136E0,-4.535025597E0
3.060574287E0,-8.659923553E0,-1.314492822E0,-4.410012722E0
3.080844287E0,-8.702718735E0,-1.449943900E0,-4.281442165E0
3.101114339E0,-8.680062294E0,-1.761331916E0,-4.210060120E0
3.121514339E0,-8.582591057E0,-2.148072481E0,-4.230282784E0
3.141654339E0,-8.472585678E0,-2.506993771E0,-4.254487991E0
3.161924339E0,-8.424721718E0,-2.784980536E0,-4.175922871E0
3.182194391E0,-8.378573418E0,-3.042930365E0,-4.087844849E0
3.202464391E0,-8.366749763E0,-3.275179625E0,-3.929513216E0
3.222864391E0,-8.355735779E0,-3.510467291E0,-3.745488405E0
3.243004443E0,-8.299589157E0,-3.743391275E0,-3.643382311E0
3.263274443E0,-8.205273628E0,-3.976341724E0,-3.610064268E0
3.283544443E0,-8.106826782E0,-4.154258251E0,-3.632061720E0
3.303814443E0,-8.000287056E0,-4.263879299E0,-3.739669800E0
3.324214443E0,-7.869840622E0,-4.313020706E0,-3.953967094E0
3.344354495E0,-7.710055351E0,-4.287034035E0,-4.283312321E0
3.364624495E0,-7.561992645E0,-4.165919304E0,-4.650997162E0
3.384894495E0,-7.434063911E0,-3.966206312E0,-5.017399311E0
3.405164495E0,-7.292893887E0,-3.746682644E0,-5.380190849E0
3.425434495E0,-7.162626743E0,-3.547899008E0,-5.681511402E0
3.445704495E0,-7.084675789E0,-3.396122456E0,-5.868910789E0
3.465974495E0,-7.046605587E0,-3.296477318E0,-5.970676422E0
3.486244495E0,-6.995516777E0,-3.222093105E0,-6.070523739E0
3.506514495E0,-6.944890499E0,-3.177332163E0,-6.151702881E0
3.526745172E0,-6.922654629E0,-3.139628172E0,-6.195964336E0
3.547054495E0,-6.972205639E0,-3.070923567E0,-6.174800396E0
3.567324495E0,-7.086277485E0,-2.932702780E0,-6.111817837E0
3.587594495E0,-7.238458157E0,-2.694219112E0,-6.042871952E0
3.607864495E0,-7.346138477E0,-2.345060587E0,-6.058492184E0
3.628134495E0,-7.336838245E0,-1.921123266E0,-6.216950417E0
3.648404495E0,-7.218085289E0,-1.504368305E0,-6.465795040E0
3.668674495E0,-7.049860477E0,-1.163270235E0,-6.716893673E0
3.688944495E0,-6.895856857E0,-9.079021811E-1,-6.913266659E0
3.709214495E0,-6.784028530E0,-7.227453589E-1,-7.044499874E0
3.729484495E0,-6.730668068E0,-6.424098611E-1,-7.103224754E0
3.749754495E0,-6.573825359E0,-6.275618076E-1,-7.249922752E0
3.770024443E0,-6.163178921E0,-6.803714037E-1,-7.597546577E0
3.790373141E0,-5.621359348E0,-8.499739766E-1,-7.990508556E0
3.810564547E0,-5.032109261E0,-1.153553247E0,-8.337719917E0
3.830834547E0,-4.202643871E0,-1.513219833E0,-8.730312347E0
3.851104443E0,-3.229097605E0,-1.879333496E0,-9.067051888E0
3.871374443E0,-2.408244610E0,-2.126855850E0,-9.265378952E0
3.891644443E0,-1.745415926E0,-2.319936752E0,-9.367059708E0
3.911914391E0,-1.047164202E0,-2.527573109E0,-9.417283058E0
3.932184391E0,-3.032196760E-1,-2.725110292E0,-9.415530205E0
3.952454391E0,3.856637776E-1,-2.879577637E0,-9.366412163E0
3.972724287E0,1.056882501E0,-2.967759132E0,-9.286861420E0
3.992994287E0,1.586303115E0,-2.961802959E0,-9.213129044E0
4.013264287E0,1.880694747E0,-2.942960262E0,-9.163643837E0
4.033534287E0,2.144793510E0,-2.882088184E0,-9.124899864E0
4.053804235E0,2.566316128E0,-2.717215538E0,-9.066484451E0
4.074074235E0,2.963208199E0,-2.508335352E0,-9.005444527E0
4.094344235E0,3.463026285E0,-2.352181911E0,-8.868206024E0
4.114614182E0,3.810271740E0,-2.247026205E0,-8.752319336E0
4.134884182E0,4.104271889E0,-2.194094181E0,-8.631992340E0
4.155154130E0,4.278725147E0,-2.194399595E0,-8.546783447E0
4.175424130E0,4.370068073E0,-2.235529423E0,-8.489717484E0
4.195694130E0,4.382046700E0,-2.305220842E0,-8.464869499E0
4.215964078E0,4.406871796E0,-2.352001905E0,-8.439072609E0
4.236234078E0,4.450554848E0,-2.447015524E0,-8.388984680E0
4.256504026E0,4.532243729E0,-2.530531645E0,-8.320189476E0
4.276773974E0,4.639628887E0,-2.531111240E0,-8.260612488E0
4.297043974E0,4.773621559E0,-2.484971762E0,-8.198039055E0
4.317313974E0,4.796644688E0,-2.447956324E0,-8.195735931E0
4.337583922E0,4.684084415E0,-2.489928484E0,-8.248029709E0
4.357853922E0,4.731163502E0,-2.446886778E0,-8.234029770E0
4.378123870E0,4.825570107E0,-2.342969656E0,-8.209430695E0
4.398393870E0,4.778999329E0,-2.378209829E0,-8.226521492E0
4.418663818E0,4.507964134E0,-2.543769598E0,-8.329339027E0
4.438933818E0,4.081856251E0,-2.803818941E0,-8.464479446E0
4.459203818E0,3.964550495E0,-2.874759197E0,-8.496380806E0
4.479473766E0,4.195432663E0,-2.763322115E0,-8.422160149E0
4.499743766E0,4.423674107E0,-2.635521173E0,-8.345988274E0
4.520013714E0,4.548516273E0,-2.578763008E0,-8.296467781E0
4.540283714E0,4.584400654E0,-2.592983007E0,-8.272249222E0
4.560553662E0,4.606829643E0,-2.582679510E0,-8.263006210E0
4.580823662E0,4.526134968E0,-2.519247055E0,-8.326937675E0
4.601093610E0,4.523817062E0,-2.359324455E0,-8.374906540E0
4.621493610E0,4.563674450E0,-2.255366802E0,-8.381919861E0
4.641633557E0,4.586415291E0,-2.239307404E0,-8.373809814E0
4.661903557E0,4.596335888E0,-2.357953072E0,-8.335715294E0
4.682173505E0,4.521079540E0,-2.632184982E0,-8.294687271E0
4.702443505E0,4.475565434E0,-2.868165016E0,-8.240955353E0
4.722843505E0,4.319412708E0,-2.940331221E0,-8.298645973E0
4.742983453E0,4.272918224E0,-2.841384888E0,-8.356978416E0
4.763253401E0,4.391886711E0,-2.730449200E0,-8.332248688E0
4.783523401E0,4.516694069E0,-2.705780983E0,-8.273367882E0
4.803793349E0,4.530258656E0,-2.806505919E0,-8.232294083E0
4.824193349E0,4.513623238E0,-3.031502485E0,-8.161347389E0
4.844333297E0,4.555590630E0,-3.255299091E0,-8.051087379E0
4.864733297E0,4.772275925E0,-3.333463430E0,-7.892007351E0
4.884873245E0,4.773428440E0,-3.375640869E0,-7.873361111E0
4.905143245E0,4.883379936E0,-3.278956890E0,-7.846747398E0
4.925543245E0,4.946050644E0,-3.130666494E0,-7.868031025E0
4.945683193E0,4.900399685E0,-3.015388727E0,-7.941278458E0
4.965953141E0,4.846848011E0,-2.973084450E0,-7.989944935E0
4.986223089E0,4.750978947E0,-3.000535727E0,-8.037123680E0
5.006493089E0,4.642027855E0,-3.072576284E0,-8.073490143E0
5.026893089E0,4.526964188E0,-3.154613733E0,-8.107120514E0
5.047033037E0,4.432630062E0,-3.228570223E0,-8.130099297E0
5.067303037E0,4.392556190E0,-3.233954668E0,-8.149684906E0
5.087572985E0,4.361437321E0,-3.163479567E0,-8.193939209E0
5.107842985E0,4.274940014E0,-3.151183367E0,-8.244108200E0
5.128112932E0,4.161252975E0,-3.266513824E0,-8.257375717E0
5.148382880E0,4.045942307E0,-3.494434834E0,-8.221292496E0
5.168652880E0,4.112408161E0,-3.860322952E0,-8.022242546E0
5.188922828E0,4.005627632E0,-4.158779621E0,-7.926531315E0
5.209192828E0,3.947446823E0,-4.355260372E0,-7.849825859E0
5.229462776E0,3.955981255E0,-4.416973591E0,-7.810949802E0
5.249732776E0,3.892699003E0,-4.369031429E0,-7.869488716E0
5.270002724E0,3.725003004E0,-4.247328281E0,-8.015918732E0
5.290272724E0,3.523119211E0,-4.069826603E0,-8.197226524E0
5.310542672E0,3.375071287E0,-3.956986904E0,-8.313936234E0
5.330812620E0,3.310238123E0,-3.883093119E0,-8.374621391E0
5.351212620E0,3.307104826E0,-3.870854855E0,-8.381523132E0
5.371352568E0,3.300534487E0,-3.872586250E0,-8.383313179E0
5.391622516E0,3.238982677E0,-3.869096279E0,-8.408892632E0
5.411892516E0,3.204918861E0,-3.848058939E0,-8.431568146E0
5.432162464E0,3.197709084E0,-3.801420689E0,-8.455427170E0
5.452432412E0,3.226424456E0,-3.752242804E0,-8.466477394E0
5.472702360E0,3.258464336E0,-3.717966318E0,-8.469327927E0
5.492972360E0,3.281072140E0,-3.695155859E0,-8.470582962E0
5.513242307E0,3.327788353E0,-3.657126188E0,-8.468862534E0
5.533512255E0,3.433180332E0,-3.570778370E0,-8.463640213E0
5.553782203E0,3.919829845E0,-3.253281355E0,-8.379826546E0
5.574052203E0,4.390623569E0,-2.995734692E0,-8.241260529E0
5.594322151E0,4.415422440E0,-2.998497248E0,-8.226994514E0
5.614592099E0,4.165886402E0,-3.272613049E0,-8.252623558E0
5.634862047E0,3.953016520E0,-3.396183968E0,-8.307225227E0
5.655131995E0,3.919764757E0,-3.287955761E0,-8.366312027E0
5.675401995E0,4.013737202E0,-3.078108788E0,-8.401520729E0
5.695671891E0,3.991046906E0,-2.938157558E0,-8.462219238E0
5.715941891E0,3.757197142E0,-2.942990303E0,-8.566952705E0
5.736211839E0,3.504109383E0,-2.966121912E0,-8.665664673E0
5.756481787E0,3.399898052E0,-2.965723753E0,-8.707213402E0
5.776751735E0,3.344839096E0,-2.953237534E0,-8.732744217E0
5.797021682E0,3.290240526E0,-2.911563158E0,-8.767410278E0
5.817421682E0,3.311216593E0,-2.856378317E0,-8.777661324E0
5.837561578E0,3.322792053E0,-2.748995543E0,-8.807522774E0
5.857831526E0,3.379295826E0,-2.665405512E0,-8.811717033E0
5.878101474E0,3.580662251E0,-2.614130259E0,-8.747317314E0
5.898371422E0,3.654934645E0,-2.601340294E0,-8.720371246E0
5.918641370E0,3.662257195E0,-2.626872063E0,-8.709638596E0
5.938911318E0,3.634825230E0,-2.673899174E0,-8.706818581E0
5.959181266E0,3.596650124E0,-2.725984573E0,-8.706521034E0
5.979451214E0,3.580606937E0,-2.758828640E0,-8.702787399E0
5.999721162E0,3.617070675E0,-2.752603292E0,-8.689670563E0
6.019991057E0,3.670474052E0,-2.747750759E0,-8.668786049E0
6.040300328E0,3.740847826E0,-2.794403791E0,-8.623674393E0
6.060531005E0,3.772951365E0,-2.929187775E0,-8.564758301E0
6.080800953E0,3.825903654E0,-3.115234613E0,-8.475150108E0
6.101070901E0,3.869745970E0,-3.316518068E0,-8.378315926E0
6.121470901E0,3.873361349E0,-3.546576262E0,-8.281863213E0
6.141610745E0,3.947988749E0,-3.759846687E0,-8.151523590E0
6.161880693E0,3.810067892E0,-3.993889093E0,-8.105714798E0
6.182150641E0,3.101682663E0,-4.263760090E0,-8.268632889E0
6.202420485E0,2.271671295E0,-4.468691826E0,-8.428563118E0
6.222820485E0,1.713303804E0,-4.689968586E0,-8.440330505E0
6.242960380E0,1.398205280E0,-4.850898743E0,-8.407389641E0
6.263230276E0,1.234665990E0,-4.888534069E0,-8.411195755E0
6.283500224E0,1.191818833E0,-4.867036343E0,-8.429822922E0
6.303770172E0,1.122730970E0,-4.855676174E0,-8.445842743E0
6.324170172E0,9.727457762E-1,-4.854445457E0,-8.465134621E0
6.344310016E0,8.090283275E-1,-4.851169109E0,-8.484221458E0
6.364579964E0,6.355891228E-1,-4.858605862E0,-8.494725227E0
6.384849860E0,4.594085217E-1,-4.871052742E0,-8.498950958E0
6.405119807E0,2.785061300E-1,-4.883170128E0,-8.499852180E0
6.425389703E0,1.255762279E-1,-4.884881020E0,-8.502502441E0
6.445659651E0,5.124247074E-2,-4.883662701E0,-8.503975868E0
6.465929599E0,4.260684550E-2,-4.880144596E0,-8.506042480E0
6.486199495E0,1.017416045E-1,-4.883213997E0,-8.503779411E0
6.506469391E0,2.147258669E-1,-4.891893864E0,-8.496684074E0
6.526700016E0,3.267640173E-1,-4.903443813E0,-8.486451149E0
6.547009182E0,3.870540559E-1,-4.889177799E0,-8.492143631E0
6.567279078E0,3.902285099E-1,-4.883412838E0,-8.495315552E0
6.587549026E0,2.278032005E-1,-4.895545959E0,-8.494240761E0
6.607819026E0,-6.261033565E-2,-4.907187939E0,-8.490346909E0
6.628088922E0,-4.199401140E-1,-4.900809765E0,-8.483872414E0
6.648358818E0,-7.712177634E-1,-4.864942551E0,-8.479854584E0
6.668628714E0,-1.024923086E0,-4.772224903E0,-8.505633354E0
6.688898662E0,-1.005705357E0,-4.611990452E0,-8.595841408E0
6.709168557E0,-7.336638570E-1,-4.428265572E0,-8.719094276E0
6.729438453E0,-3.215475678E-1,-4.298804283E0,-8.808363914E0
6.749708349E0,9.963381290E-2,-4.425787926E0,-8.750591278E0
6.769978297E0,4.692877233E-1,-4.704489708E0,-8.591735840E0
6.790248193E0,8.901422024E-1,-4.785171509E0,-8.513527870E0
6.810518089E0,1.220704794E0,-4.675521374E0,-8.533450127E0
6.830787985E0,1.446656942E0,-4.516496658E0,-8.583638191E0
6.851057880E0,1.643742085E0,-4.361395836E0,-8.628252029E0
6.871327776E0,1.914954424E0,-4.284643173E0,-8.610758781E0
6.891597620E0,2.265307903E0,-4.245774746E0,-8.544715881E0
6.911867620E0,2.715066671E0,-4.165205479E0,-8.452801704E0
6.932137516E0,3.359124660E0,-3.982325792E0,-8.308294296E0
6.952407412E0,4.075939655E0,-3.721890211E0,-8.105840683E0
6.972677307E0,4.591487885E0,-3.499144793E0,-7.927459240E0
6.992947203E0,5.017076015E0,-3.311595917E0,-7.748075008E0
7.013217099E0,5.560341835E0,-3.115132809E0,-7.453115463E0
7.033486995E0,6.127941132E0,-2.909397364E0,-7.081957340E0
7.053756891E0,6.417506218E0,-2.803786755E0,-6.864748955E0
7.074026787E0,6.471631527E0,-2.786331415E0,-6.820903778E0
7.094296682E0,6.424071789E0,-2.803116083E0,-6.858880043E0
7.114566526E0,6.376169682E0,-2.825479746E0,-6.894309521E0
7.134836422E0,6.403244972E0,-2.852950811E0,-6.857806206E0
7.155106318E0,6.364032745E0,-2.907608032E0,-6.871337891E0
7.175376214E0,6.340888977E0,-2.952185869E0,-6.873726368E0
7.195646110E0,6.273826599E0,-2.960364103E0,-6.931502342E0
7.215915953E0,6.206410885E0,-2.961189747E0,-6.991580486E0
7.236185849E0,6.130827904E0,-2.993174314E0,-7.044448376E0
7.256455745E0,6.045431614E0,-3.051005602E0,-7.093272686E0
7.276725641E0,5.953655720E0,-3.110888720E0,-7.144701481E0
7.296995485E0,5.859579086E0,-3.165206909E0,-7.198414803E0
7.317265380E0,5.716971874E0,-3.236483574E0,-7.280919075E0
7.337535224E0,5.542462826E0,-3.322227478E0,-7.376604557E0
7.357805120E0,5.382106781E0,-3.402228117E0,-7.458427906E0
7.378074964E0,5.220787525E0,-3.466479063E0,-7.543029785E0
7.398344860E0,5.096944809E0,-3.502078295E0,-7.610978127E0
7.418614703E0,5.046112061E0,-3.503145933E0,-7.644286156E0
7.438884599E0,5.042330265E0,-3.479820490E0,-7.657424450E0
7.459154443E0,5.040126324E0,-3.452507973E0,-7.671225071E0
7.479424287E0,5.015977383E0,-3.439033747E0,-7.693074703E0
7.499694130E0,5.009456635E0,-3.436718941E0,-7.698356152E0
7.519964026E0,5.015570641E0,-3.439801455E0,-7.692997456E0
7.540233870E0,5.017999649E0,-3.442912817E0,-7.690020561E0
7.560503714E0,5.017021656E0,-3.446298599E0,-7.689142227E0
7.580773610E0,5.015392780E0,-3.448965073E0,-7.689008713E0
7.601043453E0,5.013511181E0,-3.450910568E0,-7.689362526E0
7.621443453E0,5.011716843E0,-3.452617168E0,-7.689767361E0
7.641741057E0,5.009093285E0,-3.454466343E0,-7.690645218E0
7.661853610E0,5.007136822E0,-3.456567526E0,-7.690975666E0
7.682123349E0,5.007385731E0,-3.458135605E0,-7.690108299E0
7.702393089E0,5.005509377E0,-3.460262775E0,-7.690373898E0
7.722793089E0,5.003761292E0,-3.463392735E0,-7.690102577E0
7.742932724E0,5.001747131E0,-3.467848063E0,-7.689404488E0
7.763202464E0,4.998072147E0,-3.472657442E0,-7.689623833E0
7.783472255E0,4.993653774E0,-3.477469206E0,-7.690319061E0
7.803742047E0,4.989614487E0,-3.481700182E0,-7.691026688E0
7.824142047E0,4.986702442E0,-3.486619711E0,-7.690687180E0
7.844281682E0,4.983796120E0,-3.491223574E0,-7.690483093E0
7.864551526E0,4.981209278E0,-3.493660927E0,-7.691051483E0
7.884821370E0,4.977010727E0,-3.494778633E0,-7.693261623E0
7.905091162E0,4.971007824E0,-3.493793011E0,-7.697589874E0
7.925491162E0,4.965146065E0,-3.491685152E0,-7.702328205E0
7.945630797E0,4.959323406E0,-3.490427256E0,-7.706648350E0
7.965900589E0,4.955345631E0,-3.490418434E0,-7.709210396E0
7.986170432E0,4.952137947E0,-3.490430355E0,-7.711265087E0
8.006440276E0,4.949953556E0,-3.489984512E0,-7.712870121E0
8.026710068E0,4.949295998E0,-3.489336967E0,-7.713583946E0
8.046979912E0,4.947699070E0,-3.488115311E0,-7.715161800E0
8.067249703E0,4.944878578E0,-3.486538887E0,-7.717681408E0
8.087519495E0,4.941837788E0,-3.483355522E0,-7.721065521E0
8.107789287E0,4.938480377E0,-3.479968786E0,-7.724740028E0
8.128059130E0,4.934522152E0,-3.477060795E0,-7.728578568E0
8.148328922E0,4.930379868E0,-3.474596500E0,-7.732329369E0
8.168598714E0,4.926275730E0,-3.473219156E0,-7.735564232E0
8.188868505E0,4.921689034E0,-3.472991943E0,-7.738584995E0
8.209138297E0,4.917469025E0,-3.472791195E0,-7.741357327E0
8.229408089E0,4.913304806E0,-3.471655846E0,-7.744509697E0
8.249677932E0,4.909814358E0,-3.469650507E0,-7.747622013E0
8.269947724E0,4.908854485E0,-3.467293978E0,-7.749283791E0
8.290217516E0,4.907663822E0,-3.465449333E0,-7.750864029E0
8.310487307E0,4.905447006E0,-3.464004755E0,-7.752911091E0
8.330757099E0,4.901664257E0,-3.461547375E0,-7.756402493E0
8.351026891E0,4.897160053E0,-3.458399534E0,-7.760650158E0
8.371296630E0,4.894073486E0,-3.455162764E0,-7.764037609E0
8.391566422E0,4.892482281E0,-3.452874660E0,-7.766057968E0
8.411836214E0,4.892504215E0,-3.449892044E0,-7.767369747E0
8.432106005E0,4.891953945E0,-3.447734833E0,-7.768673897E0
8.452375745E0,4.889117241E0,-3.445535183E0,-7.771434784E0
8.472645537E0,4.885176182E0,-3.442428827E0,-7.775288105E0
8.492915328E0,4.881494045E0,-3.437399387E0,-7.779825687E0
8.513185120E0,4.880021572E0,-3.429991484E0,-7.784018040E0
8.533454860E0,4.878671646E0,-3.423123598E0,-7.787885666E0
8.553724651E0,4.876189709E0,-3.419727325E0,-7.790932178E0
8.573994391E0,4.873263836E0,-3.418541908E0,-7.793282509E0
8.594264182E0,4.870376110E0,-3.418342352E0,-7.795175552E0
8.614533922E0,4.868225574E0,-3.417770386E0,-7.796769142E0
8.634803714E0,4.866763592E0,-3.416814566E0,-7.798100471E0
8.655073453E0,4.866030216E0,-3.415006399E0,-7.799349785E0
8.675343193E0,4.865756989E0,-3.412831068E0,-7.800473690E0
8.695612985E0,4.866684437E0,-3.409912109E0,-7.801171780E0
8.715882724E0,4.867832661E0,-3.407971144E0,-7.801302433E0
8.736152464E0,4.868411541E0,-3.407051325E0,-7.801342964E0
8.756422203E0,4.867973328E0,-3.407136679E0,-7.801579952E0
8.776691943E0,4.867486477E0,-3.407758474E0,-7.801611900E0
8.797091943E0,4.867813587E0,-3.406182289E0,-7.802095413E0
8.817231422E0,4.867591381E0,-3.403656483E0,-7.803336143E0
8.837501214E0,4.866807938E0,-3.401625395E0,-7.804711819E0
8.857770953E0,4.864722252E0,-3.400433540E0,-7.806529999E0
8.878040641E0,4.862205505E0,-3.398157358E0,-7.809089184E0
8.898310380E0,4.859979153E0,-3.395224094E0,-7.811749935E0
8.918580120E0,4.857957363E0,-3.393052101E0,-7.813951492E0
8.938849860E0,4.856630325E0,-3.390063047E0,-7.816072941E0
8.959119599E0,4.854990005E0,-3.386368275E0,-7.818694115E0
8.979389235E0,4.852560043E0,-3.380746365E0,-7.822634220E0
8.999659026E0,4.849557877E0,-3.376716375E0,-7.826235771E0
9.019928714E0,4.843492031E0,-3.373097420E0,-7.831550598E0
9.040198453E0,4.835108280E0,-3.370273113E0,-7.837944984E0
9.060468193E0,4.828190327E0,-3.366588831E0,-7.843790531E0
9.080737880E0,4.824605465E0,-3.361567497E0,-7.848147869E0
9.101007620E0,4.822924137E0,-3.357284307E0,-7.851014614E0
9.121407620E0,4.820324898E0,-3.354776859E0,-7.853682995E0
9.141547047E0,4.816520691E0,-3.353375673E0,-7.856613636E0
9.161816735E0,4.811612606E0,-3.353453636E0,-7.859588623E0
9.182086422E0,4.808186054E0,-3.354700089E0,-7.861152172E0
9.202356162E0,4.809280872E0,-3.354942322E0,-7.860378742E0
9.222756162E0,4.813504696E0,-3.353235006E0,-7.858521938E0
9.242895537E0,4.820398331E0,-3.350575686E0,-7.855429649E0
9.263165276E0,4.829027176E0,-3.346805334E0,-7.851737499E0
9.283434964E0,4.840088844E0,-3.343829632E0,-7.846191883E0
9.303704651E0,4.850933075E0,-3.342312336E0,-7.840139866E0
9.324104651E0,4.860305309E0,-3.342195988E0,-7.834383011E0
9.344244026E0,4.866969585E0,-3.342581749E0,-7.830078602E0
9.364513714E0,4.870214462E0,-3.344629765E0,-7.827186584E0
9.384783401E0,4.870719910E0,-3.347655058E0,-7.825579166E0
9.405053089E0,4.868672848E0,-3.352195024E0,-7.824908733E0
9.425322776E0,4.866126060E0,-3.357424259E0,-7.824251652E0
9.445592464E0,4.863394737E0,-3.362972021E0,-7.823566914E0
9.465862151E0,4.860874653E0,-3.369355440E0,-7.822387218E0
9.486131839E0,4.859271526E0,-3.376088619E0,-7.820477962E0
9.506401474E0,4.856436253E0,-3.383553267E0,-7.819013596E0
9.526801474E0,4.852103710E0,-3.391593695E0,-7.818219662E0
9.546940849E0,4.847326756E0,-3.398918390E0,-7.818002701E0
9.567210485E0,4.844182968E0,-3.404934883E0,-7.817332745E0
9.587480172E0,4.842401505E0,-3.410109758E0,-7.816180706E0
9.607749860E0,4.839729309E0,-3.414890766E0,-7.815748692E0
9.628019495E0,4.837212563E0,-3.419339657E0,-7.815361977E0
9.648289182E0,4.834476948E0,-3.422956944E0,-7.815471172E0
9.668558818E0,4.833185673E0,-3.423640013E0,-7.815970421E0
9.688828505E0,4.835153580E0,-3.423617840E0,-7.814763546E0
9.709098141E0,4.839448452E0,-3.425101042E0,-7.811454296E0
9.729367776E0,4.844501495E0,-3.428492308E0,-7.806831837E0
9.749637464E0,4.849346161E0,-3.431904554E0,-7.802323818E0
9.769907099E0,4.854351521E0,-3.433711290E0,-7.798416138E0
9.790176735E0,4.859112740E0,-3.434566259E0,-7.795073509E0
9.810446370E0,4.864666462E0,-3.434900999E0,-7.791460514E0
9.830716057E0,4.868996143E0,-3.435691595E0,-7.788406849E0
9.850985693E0,4.871404648E0,-3.437669516E0,-7.786028385E0
9.871255328E0,4.872689247E0,-3.440109253E0,-7.784146786E0
9.891524964E0,4.874892235E0,-3.443688869E0,-7.781184196E0
9.911794599E0,4.876761436E0,-3.446897745E0,-7.778590679E0
9.932064235E0,4.877024174E0,-3.449705362E0,-7.777181625E0
9.952333922E0,4.876876831E0,-3.451781988E0,-7.776352406E0
9.972603505E0,4.875919342E0,-3.453885794E0,-7.776018620E0
9.992873141E0,4.874194145E0,-3.455692768E0,-7.776298523E0
1.001314278E1,4.871169090E0,-3.458329678E0,-7.777021408E0
1.003341241E1,4.867986202E0,-3.460867882E0,-7.777884483E0
1.005368205E1,4.864516258E0,-3.462365150E0,-7.779389381E0
1.007395168E1,4.861844540E0,-3.463093042E0,-7.780734539E0
1.009422132E1,4.859664917E0,-3.463629484E0,-7.781857014E0
1.011449090E1,4.858485222E0,-3.464015722E0,-7.782421589E0
1.013476054E1,4.857614517E0,-3.463427544E0,-7.783227444E0
1.015503017E1,4.856909752E0,-3.462251902E0,-7.784191132E0
1.017543017E1,4.856728554E0,-3.458907604E0,-7.785790443E0
1.019556939E1,4.856956482E0,-3.454767466E0,-7.787487030E0
1.021583903E1,4.856023788E0,-3.449371815E0,-7.790460110E0
1.023610861E1,4.855076790E0,-3.442658901E0,-7.794017792E0
1.025650861E1,4.856923103E0,-3.434912443E0,-7.796285152E0
1.027664783E1,4.860174656E0,-3.428041935E0,-7.797281742E0
1.029691746E1,4.863077164E0,-3.422619343E0,-7.797855377E0
1.031731746E1,4.865224838E0,-3.420084476E0,-7.797626972E0
1.033745668E1,4.866070271E0,-3.420118332E0,-7.797085762E0
1.035772627E1,4.864672661E0,-3.420641661E0,-7.797728539E0
1.037799585E1,4.860393047E0,-3.421350241E0,-7.800085068E0
1.039826538E1,4.854619503E0,-3.421003819E0,-7.803831577E0
1.041853507E1,4.849562645E0,-3.418927908E0,-7.807884216E0
1.043880465E1,4.845130920E0,-3.417839050E0,-7.811112404E0
1.045907424E1,4.840642929E0,-3.416590691E0,-7.814439774E0
1.047934382E1,4.836776733E0,-3.415642977E0,-7.817247391E0
1.049961345E1,4.831580639E0,-3.413405418E0,-7.821437359E0
1.051988304E1,4.827018261E0,-3.410702229E0,-7.825432301E0
1.054015262E1,4.823872089E0,-3.407120228E0,-7.828931808E0
1.056042220E1,4.821239471E0,-3.402673006E0,-7.832487583E0
1.058069179E1,4.819679260E0,-3.396570206E0,-7.836095810E0
1.060096137E1,4.819507599E0,-3.390188456E0,-7.838963985E0
1.062136137E1,4.820745945E0,-3.385203123E0,-7.840356827E0
1.064150048E1,4.824347973E0,-3.381708145E0,-7.839648724E0
1.066177007E1,4.827635765E0,-3.380425453E0,-7.838179111E0
1.068203965E1,4.830077648E0,-3.379592180E0,-7.837033749E0
1.070230918E1,4.831142902E0,-3.378348112E0,-7.836913109E0
1.072270918E1,4.832666874E0,-3.377070427E0,-7.836524010E0
1.074284835E1,4.833677769E0,-3.375834465E0,-7.836433887E0
1.076311793E1,4.832238197E0,-3.373941660E0,-7.838135719E0
1.078338746E1,4.830043316E0,-3.371262074E0,-7.840641975E0
1.080365705E1,4.827590942E0,-3.367096186E0,-7.843941212E0
1.082405705E1,4.825856686E0,-3.362074614E0,-7.847161770E0
1.084419616E1,4.824487686E0,-3.357863188E0,-7.849806786E0
1.086446569E1,4.823674679E0,-3.355412245E0,-7.851353645E0
1.088473528E1,4.823068142E0,-3.354799271E0,-7.851988316E0
1.090500481E1,4.823147774E0,-3.355596304E0,-7.851598740E0
1.092540481E1,4.822927475E0,-3.357061863E0,-7.851107121E0
1.094554392E1,4.821850777E0,-3.358179808E0,-7.851290226E0
1.096581345E1,4.819746971E0,-3.358304024E0,-7.852529526E0
1.098608304E1,4.816959381E0,-3.356704473E0,-7.854924202E0
1.100635257E1,4.813971043E0,-3.354296684E0,-7.857784271E0
1.102662210E1,4.811975002E0,-3.352132320E0,-7.859929562E0
1.104689163E1,4.810957909E0,-3.350437880E0,-7.861274242E0
1.106716116E1,4.810883999E0,-3.348397732E0,-7.862188339E0
1.108743069E1,4.811070442E0,-3.346756935E0,-7.862773418E0
1.110770028E1,4.811672688E0,-3.345634222E0,-7.862883568E0
1.112796981E1,4.812089443E0,-3.345108986E0,-7.862851620E0
1.114823934E1,4.813379765E0,-3.345632076E0,-7.861838341E0
1.116850887E1,4.814677238E0,-3.346586466E0,-7.860638142E0
1.118877840E1,4.816306591E0,-3.348118067E0,-7.858986855E0
1.120904793E1,4.817055702E0,-3.348775148E0,-7.858248711E0
1.122931741E1,4.817865372E0,-3.349229097E0,-7.857557774E0
1.124958694E1,4.818113804E0,-3.348975420E0,-7.857513905E0
1.126985647E1,4.817737579E0,-3.348884821E0,-7.857783794E0
1.129012601E1,4.816884995E0,-3.349411964E0,-7.858081341E0
1.131039554E1,4.816438198E0,-3.350551605E0,-7.857869625E0
1.133066507E1,4.814621449E0,-3.350712776E0,-7.858914375E0
1.135093455E1,4.812016010E0,-3.350483418E0,-7.860607147E0
1.137120408E1,4.810517311E0,-3.349596500E0,-7.861901760E0
1.139147361E1,4.810432911E0,-3.347413778E0,-7.862884045E0
1.141174309E1,4.813320160E0,-3.343851805E0,-7.862632751E0
1.143201262E1,4.818778515E0,-3.340548515E0,-7.860693932E0
1.145228210E1,4.822773933E0,-3.339090586E0,-7.858861446E0
1.147255163E1,4.823397636E0,-3.344130039E0,-7.856336594E0
1.149282111E1,4.822440624E0,-3.354608059E0,-7.852456093E0
1.151309064E1,4.821642399E0,-3.366671801E0,-7.847781658E0
1.153336012E1,4.819362164E0,-3.376801014E0,-7.844829559E0
1.155362965E1,4.817058563E0,-3.383676529E0,-7.843281746E0
1.157389913E1,4.815876961E0,-3.389742136E0,-7.841388226E0
1.159416861E1,4.817348957E0,-3.396725416E0,-7.837460518E0
1.161443814E1,4.821330547E0,-3.402536392E0,-7.832490444E0
1.163470762E1,4.825109482E0,-3.406827688E0,-7.828296185E0
1.165497710E1,4.825892448E0,-3.409473658E0,-7.826661587E0
1.167524658E1,4.825324535E0,-3.408095598E0,-7.827611923E0
1.169551611E1,4.824016094E0,-3.403546095E0,-7.830397606E0
1.171578559E1,4.822903156E0,-3.396496058E0,-7.834144115E0
1.173605507E1,4.820854664E0,-3.389681816E0,-7.838354111E0
1.175632455E1,4.819505215E0,-3.383402348E0,-7.841897011E0
1.177659403E1,4.819108009E0,-3.378086567E0,-7.844431877E0
1.179699403E1,4.820715904E0,-3.374089003E0,-7.845165253E0
1.181713298E1,4.822874069E0,-3.371265173E0,-7.845051765E0
1.183740246E1,4.825811386E0,-3.369279623E0,-7.844099522E0
1.185767194E1,4.827362061E0,-3.367454767E0,-7.843928337E0
1.187794142E1,4.826283932E0,-3.364178658E0,-7.845997334E0
1.189821090E1,4.824625492E0,-3.360837936E0,-7.848448753E0
1.191848038E1,4.821864128E0,-3.356774569E0,-7.851883411E0
1.193874986E1,4.818294048E0,-3.351390600E0,-7.856374264E0
1.195901934E1,4.814328671E0,-3.345632076E0,-7.861257553E0
1.197928877E1,4.811713696E0,-3.339247465E0,-7.865571976E0
1.199955825E1,4.811984062E0,-3.333906651E0,-7.867672443E0
1.201982772E1,4.814578533E0,-3.331990957E0,-7.866896152E0
1.204009720E1,4.817312717E0,-3.333434105E0,-7.864610672E0
1.206036668E1,4.818427086E0,-3.336211681E0,-7.862751007E0
1.208063616E1,4.818786144E0,-3.338633537E0,-7.861502171E0
1.210090559E1,4.816636562E0,-3.340458870E0,-7.862043858E0
1.212130559E1,4.813123703E0,-3.339796543E0,-7.864476204E0
1.214144455E1,4.809329033E0,-3.336805344E0,-7.868066788E0
1.216171397E1,4.806225777E0,-3.332942009E0,-7.871598721E0
1.218198345E1,4.805363178E0,-3.329533815E0,-7.873568058E0
1.220225288E1,4.806528568E0,-3.327665091E0,-7.873646736E0
1.222265288E1,4.809171677E0,-3.327431917E0,-7.872130871E0
1.224279184E1,4.812318325E0,-3.327577353E0,-7.870146275E0
1.226306127E1,4.814200878E0,-3.327303410E0,-7.869110584E0
1.228333069E1,4.814040184E0,-3.326953888E0,-7.869357109E0
1.230360017E1,4.812198162E0,-3.327159166E0,-7.870397091E0
1.232400017E1,4.810160160E0,-3.327880144E0,-7.871337891E0
1.234413908E1,4.808436871E0,-3.327776670E0,-7.872435093E0
1.236440850E1,4.807189941E0,-3.326835871E0,-7.873592377E0
1.238467793E1,4.806862354E0,-3.325321913E0,-7.874433041E0
1.240494741E1,4.806950092E0,-3.324137449E0,-7.874879837E0
1.242534741E1,4.808025837E0,-3.323930740E0,-7.874309063E0
1.244548632E1,4.809166908E0,-3.323707819E0,-7.873707771E0
1.246575575E1,4.810441971E0,-3.324555159E0,-7.872570992E0
1.248602512E1,4.812277317E0,-3.325857401E0,-7.870899200E0
1.250629460E1,4.811918736E0,-3.328066349E0,-7.870184422E0
1.252669460E1,4.811502934E0,-3.329479218E0,-7.869841099E0
1.254683350E1,4.810694695E0,-3.329857349E0,-7.870174408E0
1.256710293E1,4.809778214E0,-3.327932835E0,-7.871549129E0
1.258737236E1,4.809906006E0,-3.325363636E0,-7.872556210E0
1.260764184E1,4.810730934E0,-3.324913263E0,-7.872242928E0
1.262791127E1,4.812103271E0,-3.327464342E0,-7.870325565E0
1.264818069E1,4.813874722E0,-3.332080841E0,-7.867288589E0
1.266845012E1,4.815608501E0,-3.337430716E0,-7.863959312E0
1.268871955E1,4.816987991E0,-3.341804743E0,-7.861256599E0
1.270898897E1,4.818148136E0,-3.344508171E0,-7.859395504E0
1.272925840E1,4.819419861E0,-3.345447302E0,-7.858216286E0
1.274952783E1,4.820690155E0,-3.345915318E0,-7.857237816E0
1.276979731E1,4.822103977E0,-3.346296787E0,-7.856207848E0
1.279006674E1,4.823376656E0,-3.347872257E0,-7.854754448E0
1.281033611E1,4.824746132E0,-3.349852562E0,-7.853069305E0
1.283073611E1,4.826621532E0,-3.352368116E0,-7.850842953E0
1.285087496E1,4.827434063E0,-3.354814768E0,-7.849298954E0
1.287114439E1,4.827604771E0,-3.357218504E0,-7.848164558E0
1.289141382E1,4.827282906E0,-3.360300779E0,-7.847044468E0
1.291168324E1,4.827347755E0,-3.364395142E0,-7.845249653E0
1.293195267E1,4.828068256E0,-3.368706465E0,-7.842956066E0
1.295222210E1,4.829005718E0,-3.372946501E0,-7.840556145E0
1.297249153E1,4.830898762E0,-3.376761675E0,-7.837748528E0
1.299276095E1,4.832178116E0,-3.380194664E0,-7.835478306E0
1.301303038E1,4.833487988E0,-3.382752180E0,-7.833566666E0
1.303329976E1,4.834139824E0,-3.384984016E0,-7.832200050E0
1.305356918E1,4.834296227E0,-3.386794567E0,-7.831321239E0
1.307383861E1,4.834672928E0,-3.387537003E0,-7.830767632E0
1.309410804E1,4.835813046E0,-3.388319492E0,-7.829725266E0
1.311437741E1,4.837684631E0,-3.389807224E0,-7.827924252E0
1.313464684E1,4.839108467E0,-3.392663717E0,-7.825806618E0
1.315491627E1,4.840249538E0,-3.395036221E0,-7.824071407E0
1.317518559E1,4.841671944E0,-3.397140265E0,-7.822278976E0
1.319545507E1,4.841287613E0,-3.399343967E0,-7.821557522E0
1.321572444E1,4.841385841E0,-3.401399136E0,-7.820604801E0
1.323599387E1,4.842503548E0,-3.403885365E0,-7.818830490E0
1.325626325E1,4.843339920E0,-3.407363176E0,-7.816798687E0
1.327653262E1,4.844393730E0,-3.410702229E0,-7.814688206E0
1.329680205E1,4.845462799E0,-3.414251328E0,-7.812475204E0
1.331707147E1,4.847316742E0,-3.416619778E0,-7.810288429E0
1.333734085E1,4.848634243E0,-3.419170380E0,-7.808355331E0
1.335761028E1,4.850172997E0,-3.420762062E0,-7.806701183E0
1.337787970E1,4.850536823E0,-3.421883106E0,-7.805984020E0
1.339814908E1,4.850002766E0,-3.422973633E0,-7.805838108E0
1.341841850E1,4.848796844E0,-3.423763990E0,-7.806240559E0
1.343868788E1,4.848238468E0,-3.424680710E0,-7.806184769E0
1.345895726E1,4.848364353E0,-3.425172091E0,-7.805891991E0
1.347922668E1,4.848483086E0,-3.425482273E0,-7.805681705E0
1.349962668E1,4.848470688E0,-3.425601244E0,-7.805637836E0
1.351976548E1,4.847903252E0,-3.425881624E0,-7.805866241E0
1.354003486E1,4.847272396E0,-3.425252914E0,-7.806533337E0
1.356030424E1,4.846992016E0,-3.423720598E0,-7.807380676E0
1.358057361E1,4.846239090E0,-3.421778679E0,-7.808699608E0
1.360084304E1,4.845573902E0,-3.419311047E0,-7.810192585E0
1.362124304E1,4.845211983E0,-3.417179108E0,-7.811349869E0
1.364138278E1,4.846068382E0,-3.415417194E0,-7.811589718E0
1.366165194E1,4.846123219E0,-3.413247585E0,-7.812503815E0
1.368192116E1,4.845846653E0,-3.411766052E0,-7.813322067E0
1.370219043E1,4.845691204E0,-3.409948349E0,-7.814212799E0
1.372259043E1,4.843469620E0,-3.407797337E0,-7.816527367E0
1.374272913E1,4.840786934E0,-3.403504610E0,-7.820058823E0
1.376299840E1,4.839175701E0,-3.399187565E0,-7.822933674E0
1.378326767E1,4.837829590E0,-3.397688627E0,-7.824416637E0
1.380353705E1,4.838485241E0,-3.398562670E0,-7.823631763E0
1.382393705E1,4.839016438E0,-3.399613619E0,-7.822846889E0
1.384407575E1,4.838859081E0,-3.400180340E0,-7.822697639E0
1.386434512E1,4.839356899E0,-3.399924040E0,-7.822500706E0
1.388461444E1,4.839653969E0,-3.398627281E0,-7.822881699E0
1.390488382E1,4.838815689E0,-3.396520376E0,-7.824314594E0
1.392528382E1,4.837407112E0,-3.393835545E0,-7.826350689E0
1.394542257E1,4.836204529E0,-3.391333342E0,-7.828178406E0
1.396569194E1,4.836253166E0,-3.389476776E0,-7.828951836E0
1.398596127E1,4.836735249E0,-3.388679266E0,-7.828999519E0
1.400623059E1,4.837160110E0,-3.388754606E0,-7.828704834E0
1.402663059E1,4.837266445E0,-3.388321638E0,-7.828825951E0
1.404676934E1,4.837920189E0,-3.387203217E0,-7.828906536E0
1.406703871E1,4.838376045E0,-3.385963917E0,-7.829161167E0
1.408730809E1,4.837791443E0,-3.383853912E0,-7.830434322E0
1.410757746E1,4.836459160E0,-3.381958723E0,-7.832075119E0
1.412784679E1,4.834825993E0,-3.381272554E0,-7.833380222E0
1.414811616E1,4.833843231E0,-3.380182505E0,-7.834456921E0
1.416838554E1,4.833625317E0,-3.379180908E0,-7.835024357E0
1.418865491E1,4.833331585E0,-3.378656387E0,-7.835431099E0
1.420888491E1,4.832794189E0,-3.378260612E0,-7.835933685E0
1.422919356E1,4.832217693E0,-3.378340244E0,-7.836253643E0
1.424946293E1,4.831932545E0,-3.378444910E0,-7.836384296E0
1.426973226E1,4.831681728E0,-3.378072262E0,-7.836699963E0
1.429000163E1,4.831592560E0,-3.376735210E0,-7.837331295E0
1.431027100E1,4.831470966E0,-3.375547886E0,-7.837917805E0
1.433054033E1,4.830214024E0,-3.373237610E0,-7.839686871E0
1.435080970E1,4.829442024E0,-3.368913889E0,-7.842021465E0
1.437107908E1,4.828795433E0,-3.364875317E0,-7.844153404E0
1.439134840E1,4.828551292E0,-3.362848043E0,-7.845172405E0
1.441161778E1,4.828978539E0,-3.363012791E0,-7.844838142E0
1.443188710E1,4.829300404E0,-3.363962173E0,-7.844233990E0
1.445215647E1,4.829761505E0,-3.364955664E0,-7.843523979E0
1.447242590E1,4.830472946E0,-3.365978241E0,-7.842647552E0
1.449269522E1,4.830696583E0,-3.366607428E0,-7.842239380E0
1.451296460E1,4.830423832E0,-3.367106676E0,-7.842193127E0
1.453323392E1,4.830564499E0,-3.367565393E0,-7.841910362E0
1.455350330E1,4.831657410E0,-3.367598057E0,-7.841222286E0
1.457377262E1,4.832700729E0,-3.367658377E0,-7.840551853E0
1.459404200E1,4.832667828E0,-3.368224621E0,-7.840330124E0
1.461431132E1,4.832132816E0,-3.368878126E0,-7.840379238E0
1.463458069E1,4.831949711E0,-3.370662212E0,-7.839724541E0
1.465485002E1,4.832674026E0,-3.374152660E0,-7.837776184E0
1.467511934E1,4.833482265E0,-3.377503395E0,-7.835834026E0
1.469538871E1,4.834826469E0,-3.379754066E0,-7.834034920E0
1.471565804E1,4.835965633E0,-3.381555796E0,-7.832554340E0
1.473592736E1,4.837429523E0,-3.383699894E0,-7.830723763E0
1.475619674E1,4.839272022E0,-3.386815310E0,-7.828239441E0
1.477646606E1,4.840568066E0,-3.390839815E0,-7.825694561E0
1.479673543E1,4.842219353E0,-3.395567894E0,-7.822621822E0
1.481713543E1,4.844020844E0,-3.400728941E0,-7.819263458E0
1.483727408E1,4.845956802E0,-3.406571865E0,-7.815520287E0
1.485754340E1,4.847107887E0,-3.411828995E0,-7.812512398E0
1.487781278E1,4.847680092E0,-3.416279316E0,-7.810212612E0
1.489808210E1,4.848589420E0,-3.419097185E0,-7.808414936E0
1.491835142E1,4.849514008E0,-3.419460297E0,-7.807682514E0
1.493862075E1,4.850487709E0,-3.418946505E0,-7.807301521E0
1.495889007E1,4.851008415E0,-3.419908762E0,-7.806557178E0
1.497915944E1,4.851816177E0,-3.422878504E0,-7.804752350E0
1.499942877E1,4.853883743E0,-3.427390099E0,-7.801486969E0
1.501969809E1,4.855600834E0,-3.430938959E0,-7.798858643E0
1.503996741E1,4.856712341E0,-3.434664488E0,-7.796525955E0
1.506023674E1,4.857390881E0,-3.438002348E0,-7.794631958E0
1.508050611E1,4.858176231E0,-3.440796375E0,-7.792909622E0
1.510090611E1,4.858928680E0,-3.443551779E0,-7.791222572E0
1.512120267E1,4.859834194E0,-3.445804119E0,-7.789661884E0
1.514131465E1,4.860887527E0,-3.447884321E0,-7.788084030E0
1.516158387E1,4.861251831E0,-3.450372219E0,-7.786755085E0
1.518185309E1,4.861669064E0,-3.452863455E0,-7.785390377E0
1.520212231E1,4.861533642E0,-3.456273079E0,-7.783961773E0
1.522252231E1,4.861413479E0,-3.458601475E0,-7.783001423E0
1.524266095E1,4.861110210E0,-3.460324526E0,-7.782425404E0
1.526293022E1,4.860808849E0,-3.462750912E0,-7.781534672E0
1.528319950E1,4.860589027E0,-3.465266705E0,-7.780552387E0
1.530346877E1,4.861179352E0,-3.468105078E0,-7.778917789E0
1.532386877E1,4.862023354E0,-3.470041990E0,-7.777526379E0
1.534400741E1,4.862474442E0,-3.471337795E0,-7.776667118E0
1.536427674E1,4.861852646E0,-3.472221136E0,-7.776661873E0
1.538454606E1,4.861458302E0,-3.472563982E0,-7.776753902E0
1.540481538E1,4.861483574E0,-3.473097563E0,-7.776500225E0
1.542521538E1,4.861411572E0,-3.474110126E0,-7.776093483E0
1.544535403E1,4.861127853E0,-3.474735022E0,-7.775990963E0
1.546562330E1,4.861615181E0,-3.474570274E0,-7.775759697E0
1.548589262E1,4.860709667E0,-3.473932028E0,-7.776610851E0
1.554162137E1,4.857770443E0,-3.473096848E0,-7.778820515E0
1.556183439E1,4.858417034E0,-3.473205328E0,-7.778368473E0
1.558209351E1,4.861027241E0,-3.473291636E0,-7.776699543E0
1.560237413E1,4.862992287E0,-3.473477364E0,-7.775386810E0
1.562264324E1,4.863123417E0,-3.473209858E0,-7.775424004E0
1.564291252E1,4.862367153E0,-3.472728968E0,-7.776113033E0
1.566318179E1,4.862138748E0,-3.472628117E0,-7.776300430E0
1.568345116E1,4.862625122E0,-3.472727060E0,-7.775952816E0
1.570372049E1,4.863264561E0,-3.472105742E0,-7.775829792E0
1.572398970E1,4.863212109E0,-3.471507311E0,-7.776129246E0
1.574425908E1,4.862657547E0,-3.471016407E0,-7.776695251E0
1.576452840E1,4.862172604E0,-3.470157385E0,-7.777381897E0
1.578479772E1,4.861569881E0,-3.469194412E0,-7.778189182E0
1.580506700E1,4.860713005E0,-3.468816280E0,-7.778892994E0
1.582533632E1,4.859944820E0,-3.468615532E0,-7.779462814E0
1.584560564E1,4.859394550E0,-3.467738628E0,-7.780196190E0
1.586587496E1,4.858414173E0,-3.466739416E0,-7.781254292E0
1.588614429E1,4.857885361E0,-3.465219736E0,-7.782260895E0
1.590641356E1,4.857326984E0,-3.462362051E0,-7.783880234E0
1.592681356E1,4.855961800E0,-3.457769632E0,-7.786773682E0
1.594695215E1,4.854683399E0,-3.452553749E0,-7.789884567E0
1.596722147E1,4.854955673E0,-3.448021889E0,-7.791721821E0
1.598749080E1,4.857187748E0,-3.447396755E0,-7.790608406E0
1.600776007E1,4.858388901E0,-3.449938536E0,-7.788734436E0
1.602816007E1,4.856620789E0,-3.455549479E0,-7.787348747E0
1.604829871E1,4.854921341E0,-3.461826324E0,-7.785620213E0
1.606856804E1,4.852224350E0,-3.464524269E0,-7.786101818E0
1.608883731E1,4.847595215E0,-3.464611530E0,-7.788945198E0
1.610910658E1,4.845005035E0,-3.464705944E0,-7.790513992E0
1.612950658E1,4.843805313E0,-3.466640711E0,-7.790400028E0
1.614964517E1,4.841674328E0,-3.469268560E0,-7.790555000E0
1.616991450E1,4.840187073E0,-3.470964670E0,-7.790724277E0
1.619018382E1,4.838529110E0,-3.470199108E0,-7.792094707E0
1.621058382E1,4.836856842E0,-3.466766834E0,-7.794660568E0
1.623072236E1,4.835331917E0,-3.460622072E0,-7.798335552E0
1.625099168E1,4.835936069E0,-3.453773975E0,-7.800996780E0
1.627126095E1,4.838484764E0,-3.447315693E0,-7.802272320E0
1.629153028E1,4.841556072E0,-3.441774845E0,-7.802813053E0
1.631179955E1,4.845028400E0,-3.436468363E0,-7.802998543E0
1.633206882E1,4.847877026E0,-3.432111263E0,-7.803145885E0
1.635233814E1,4.849972248E0,-3.428877831E0,-7.803265572E0
1.637260741E1,4.851385593E0,-3.426666737E0,-7.803358555E0
1.639287668E1,4.852017879E0,-3.425598860E0,-7.803434372E0
1.641314600E1,4.852184772E0,-3.424939632E0,-7.803619862E0
1.643341528E1,4.852992058E0,-3.424635172E0,-7.803251743E0
1.645368455E1,4.854038239E0,-3.424648523E0,-7.802594662E0
1.647395387E1,4.853991032E0,-3.424061775E0,-7.802881718E0
1.649422314E1,4.852857113E0,-3.422715187E0,-7.804177761E0
1.651449241E1,4.851207256E0,-3.421289444E0,-7.805827618E0
1.653476168E1,4.848916531E0,-3.420354843E0,-7.807661057E0
1.655503095E1,4.847033978E0,-3.420185804E0,-7.808903217E0
1.657530028E1,4.845829010E0,-3.420191050E0,-7.809648514E0
1.659556955E1,4.844906330E0,-3.419716597E0,-7.810428619E0
1.661583882E1,4.843233109E0,-3.418815374E0,-7.811861038E0
1.663610809E1,4.841723919E0,-3.417051077E0,-7.813569069E0
1.665637736E1,4.840608597E0,-3.413581848E0,-7.815776348E0
1.667664663E1,4.840125084E0,-3.408432722E0,-7.818322659E0
1.669691590E1,4.839375973E0,-3.403933764E0,-7.820745468E0
1.671718517E1,4.838453770E0,-3.401762724E0,-7.822260857E0
1.673745444E1,4.838250637E0,-3.401124954E0,-7.822663784E0
1.675772371E1,4.838163376E0,-3.400452614E0,-7.823009968E0
1.677799298E1,4.838906288E0,-3.400016308E0,-7.822740078E0
1.679826226E1,4.838565350E0,-3.397842169E0,-7.823895454E0
1.681853153E1,4.836946964E0,-3.394390106E0,-7.826394081E0
1.683880080E1,4.835058212E0,-3.388850689E0,-7.829961777E0
1.685907007E1,4.833701134E0,-3.382647514E0,-7.833479881E0
1.687933934E1,4.833506107E0,-3.377282858E0,-7.835915089E0
1.689960861E1,4.833201885E0,-3.373000145E0,-7.837947369E0
1.691987783E1,4.831698418E0,-3.369632483E0,-7.840322971E0
1.694014710E1,4.829984188E0,-3.367603540E0,-7.842249870E0
1.696041637E1,4.828476906E0,-3.366277218E0,-7.843747139E0
1.698068564E1,4.826684475E0,-3.365047216E0,-7.845378876E0
1.700108564E1,4.825166225E0,-3.364029646E0,-7.846749306E0
1.702122413E1,4.823829651E0,-3.363392115E0,-7.847843647E0
1.704149335E1,4.822413921E0,-3.362917900E0,-7.848917007E0
1.706176267E1,4.821226597E0,-3.362308025E0,-7.849907398E0
1.708203194E1,4.820297241E0,-3.360220909E0,-7.851372242E0
1.710230121E1,4.819886684E0,-3.357199669E0,-7.852916241E0
1.712257043E1,4.819543839E0,-3.354614973E0,-7.854230404E0
1.714283970E1,4.819386482E0,-3.352590322E0,-7.855192661E0
1.716310897E1,4.819583416E0,-3.351530552E0,-7.855522633E0
1.718337819E1,4.821697712E0,-3.351565123E0,-7.854211330E0
1.720364741E1,4.823790550E0,-3.353710890E0,-7.852009773E0
1.722391668E1,4.825483799E0,-3.354691744E0,-7.850550652E0
1.724418595E1,4.825396538E0,-3.353798866E0,-7.850986004E0
1.726445522E1,4.823850155E0,-3.351139784E0,-7.853070736E0
1.728472444E1,4.821977615E0,-3.347057104E0,-7.855962276E0
1.730499371E1,4.820740700E0,-3.345048189E0,-7.857575893E0
1.732526293E1,4.819967747E0,-3.345903158E0,-7.857686520E0
1.734553215E1,4.820113659E0,-3.348193169E0,-7.856620789E0
1.736580142E1,4.820758820E0,-3.352699280E0,-7.854302883E0
1.738607064E1,4.821566582E0,-3.356868029E0,-7.852025986E0
1.740633991E1,4.821695805E0,-3.359216690E0,-7.850943089E0
1.742673991E1,4.820650101E0,-3.358577490E0,-7.851858616E0
1.744687835E1,4.818992615E0,-3.356143236E0,-7.853916645E0
1.746714762E1,4.818202496E0,-3.353163242E0,-7.855674267E0
1.748741684E1,4.818583965E0,-3.351427794E0,-7.856179714E0
1.750768606E1,4.819906235E0,-3.350815535E0,-7.855630875E0
1.752808606E1,4.820858955E0,-3.350081682E0,-7.855358601E0
1.754822455E1,4.820674896E0,-3.349930525E0,-7.855535030E0
1.756849377E1,4.821448326E0,-3.349305153E0,-7.855328083E0
1.758876299E1,4.822871685E0,-3.349296808E0,-7.854457855E0
1.760903226E1,4.824320316E0,-3.350318909E0,-7.853132248E0
1.762943226E1,4.826733589E0,-3.351857901E0,-7.850992203E0
1.764957069E1,4.829648018E0,-3.353019476E0,-7.848702908E0
1.766983991E1,4.830142498E0,-3.353659868E0,-7.848124981E0
1.769010918E1,4.825927734E0,-3.357477427E0,-7.849086285E0
1.771037840E1,4.824623585E0,-3.367728233E0,-7.845495224E0
1.773077840E1,4.826608181E0,-3.381868839E0,-7.838188648E0
1.775091684E1,4.827884674E0,-3.393966675E0,-7.832170486E0
1.777118606E1,4.826235294E0,-3.400894642E0,-7.830182552E0
1.779145528E1,4.823114395E0,-3.404157639E0,-7.830687046E0
1.781172450E1,4.821609497E0,-3.405735970E0,-7.830927849E0
1.783199371E1,4.819785118E0,-3.404708385E0,-7.832497597E0
1.785226293E1,4.817707062E0,-3.401042461E0,-7.835368633E0
1.787253215E1,4.816835880E0,-3.395628929E0,-7.838251114E0
1.789280132E1,4.817328930E0,-3.389877319E0,-7.840437412E0
1.791307059E1,4.819065571E0,-3.386679173E0,-7.840752602E0
1.793333981E1,4.820805073E0,-3.386901140E0,-7.839587212E0
1.795360903E1,4.822074890E0,-3.389215946E0,-7.837805748E0
1.797387824E1,4.822991371E0,-3.391616821E0,-7.836203098E0
1.799414746E1,4.823662758E0,-3.393893003E0,-7.834803581E0
1.801441668E1,4.824637413E0,-3.394557714E0,-7.833916664E0
1.803468590E1,4.824707031E0,-3.394110918E0,-7.834065914E0
1.805495512E1,4.823640347E0,-3.392253637E0,-7.835527420E0
1.807522434E1,4.822321892E0,-3.389765263E0,-7.837416172E0
1.809549350E1,4.821827412E0,-3.387267828E0,-7.838800430E0
1.811576272E1,4.822142124E0,-3.384434223E0,-7.839830875E0
1.813603194E1,4.822931290E0,-3.381680250E0,-7.840532780E0
1.815630116E1,4.824099064E0,-3.380100489E0,-7.840495586E0
1.817657033E1,4.823795795E0,-3.379629374E0,-7.840886116E0
1.819683955E1,4.821926594E0,-3.380577087E0,-7.841626644E0
1.821710877E1,4.820294380E0,-3.382106304E0,-7.841970921E0
1.823737799E1,4.820224285E0,-3.383439064E0,-7.841438770E0
1.825764715E1,4.819881916E0,-3.383923292E0,-7.841439724E0
1.827791637E1,4.820404053E0,-3.382852077E0,-7.841581345E0
1.829818559E1,4.820302486E0,-3.380801201E0,-7.842527866E0
1.831845476E1,4.819803715E0,-3.378004551E0,-7.844040871E0
1.833872397E1,4.820319653E0,-3.374811649E0,-7.845097065E0
1.835899314E1,4.820271969E0,-3.371977329E0,-7.846344948E0
1.837926236E1,4.819337845E0,-3.369241953E0,-7.848093510E0
1.839953153E1,4.818830490E0,-3.366644859E0,-7.849520206E0
1.841980074E1,4.818173409E0,-3.363968611E0,-7.851070404E0
1.844006996E1,4.817439556E0,-3.358872414E0,-7.853703022E0
1.846033913E1,4.816648006E0,-3.352726221E0,-7.856813908E0
1.848060830E1,4.816091537E0,-3.348431110E0,-7.858986378E0
1.850087752E1,4.815576553E0,-3.347309589E0,-7.859779358E0
1.852114668E1,4.815765858E0,-3.347853184E0,-7.859431744E0
1.854141585E1,4.816646099E0,-3.349946737E0,-7.858000755E0
1.856168507E1,4.817073345E0,-3.352414608E0,-7.856686115E0
1.858195424E1,4.816577435E0,-3.353420734E0,-7.856560230E0
1.860222340E1,4.815778255E0,-3.352596283E0,-7.857402325E0
1.862249262E1,4.815104485E0,-3.350563049E0,-7.858682156E0
1.864276179E1,4.814559937E0,-3.347983837E0,-7.860114098E0
1.866303095E1,4.814675331E0,-3.345614910E0,-7.861052513E0
1.868330017E1,4.815281391E0,-3.344448805E0,-7.861176968E0
1.870356934E1,4.817373276E0,-3.343227386E0,-7.860416412E0
1.872383850E1,4.819400311E0,-3.342833042E0,-7.859340191E0
1.874410767E1,4.820572376E0,-3.344509363E0,-7.857908249E0
1.876437689E1,4.821297646E0,-3.346865177E0,-7.856460571E0
1.878464606E1,4.821475506E0,-3.349675417E0,-7.855154037E0
1.880491522E1,4.821849346E0,-3.353122950E0,-7.853453636E0
1.882518434E1,4.822168350E0,-3.356688023E0,-7.851733208E0
1.884545356E1,4.822648525E0,-3.360136271E0,-7.849963188E0
1.886572272E1,4.823265553E0,-3.362186193E0,-7.848706722E0
1.888599194E1,4.824590683E0,-3.363195419E0,-7.847459793E0
1.890626111E1,4.826317310E0,-3.364662886E0,-7.845769405E0
1.892666111E1,4.827854156E0,-3.367032290E0,-7.843806267E0
1.894679944E1,4.830070972E0,-3.370044231E0,-7.841148376E0
1.896706861E1,4.831053257E0,-3.373040915E0,-7.839255333E0
1.898733778E1,4.831620216E0,-3.375421524E0,-7.837879181E0
1.900773778E1,4.832688332E0,-3.378291607E0,-7.835985661E0
1.902803403E1,4.833120823E0,-3.381191492E0,-7.834466457E0
1.904814585E1,4.832911968E0,-3.381762505E0,-7.834349155E0
1.906841491E1,4.833003521E0,-3.382059813E0,-7.834164619E0
1.908868397E1,4.833747387E0,-3.383522034E0,-7.833074570E0
1.910895304E1,4.834912300E0,-3.386148214E0,-7.831221104E0
1.912935304E1,4.835739136E0,-3.388735056E0,-7.829590321E0
1.914949132E1,4.836456299E0,-3.391017437E0,-7.828159332E0
1.916976038E1,4.837385178E0,-3.392994642E0,-7.826728344E0
1.919002950E1,4.838744164E0,-3.394171476E0,-7.825378418E0
1.921029861E1,4.839575291E0,-3.394499779E0,-7.824722290E0
1.923056778E1,4.840167522E0,-3.395116806E0,-7.824087143E0
1.925083694E1,4.840544701E0,-3.396661758E0,-7.823183537E0
1.927110611E1,4.840413094E0,-3.398479700E0,-7.822475433E0
1.929137528E1,4.840347767E0,-3.400444508E0,-7.821662426E0
1.931164439E1,4.840414524E0,-3.401904583E0,-7.820986271E0
1.933191356E1,4.839974403E0,-3.403855085E0,-7.820410252E0
1.935218267E1,4.839762211E0,-3.406114817E0,-7.819556713E0
1.937245179E1,4.838701248E0,-3.409265280E0,-7.818840027E0
1.939272095E1,4.838161469E0,-3.413174629E0,-7.817468166E0
1.941299012E1,4.837861061E0,-3.416637659E0,-7.816141605E0
1.943325929E1,4.837904930E0,-3.418816805E0,-7.815162182E0
1.945352840E1,4.838427067E0,-3.419768095E0,-7.814421654E0
1.947379752E1,4.839083195E0,-3.420724392E0,-7.813598156E0
1.949406668E1,4.839414120E0,-3.421568155E0,-7.813024044E0
1.951433585E1,4.839741707E0,-3.422567844E0,-7.812382221E0
1.953473585E1,4.840312004E0,-3.423726797E0,-7.811521530E0
1.955487418E1,4.841001987E0,-3.425130367E0,-7.810478687E0
1.957514330E1,4.841476440E0,-3.425009251E0,-7.810237408E0
1.959541246E1,4.841377258E0,-3.424824953E0,-7.810378551E0
1.961568158E1,4.839439869E0,-3.423164129E0,-7.812307835E0
1.963595075E1,4.836946964E0,-3.420146942E0,-7.815173149E0
1.965621991E1,4.835145950E0,-3.418866158E0,-7.816847801E0
1.967648903E1,4.834173679E0,-3.419324636E0,-7.817248821E0
1.969675819E1,4.834387779E0,-3.420487165E0,-7.816607475E0
1.971702731E1,4.833419323E0,-3.421120882E0,-7.816928387E0
1.973729642E1,4.831762314E0,-3.420642138E0,-7.818163395E0
1.975756559E1,4.829981804E0,-3.419334173E0,-7.819834709E0
1.977783470E1,4.828506470E0,-3.417298794E0,-7.821635723E0
1.979810387E1,4.827218056E0,-3.414791346E0,-7.823525906E0
1.981837298E1,4.826725960E0,-3.412240028E0,-7.824943066E0
1.983864210E1,4.827391148E0,-3.409970522E0,-7.825521946E0
1.985891127E1,4.828086853E0,-3.407588959E0,-7.826129913E0
1.987918038E1,4.828358650E0,-3.404776335E0,-7.827185154E0
1.989944950E1,4.828202724E0,-3.402017117E0,-7.828481674E0
1.991971866E1,4.827378273E0,-3.398924351E0,-7.830334187E0
1.993998778E1,4.826346874E0,-3.395514488E0,-7.832448006E0
1.996025689E1,4.825258732E0,-3.391569376E0,-7.834826946E0
1.998052600E1,4.824242592E0,-3.387743473E0,-7.837108612E0
2.000079512E1,4.823967934E0,-3.383858681E0,-7.838955402E0
2.002106429E1,4.824580669E0,-3.380948544E0,-7.839833736E0
2.004133340E1,4.825308800E0,-3.378777027E0,-7.840321541E0
2.006160252E1,4.824816227E0,-3.377512932E0,-7.841169357E0
2.008187163E1,4.823693752E0,-3.376824379E0,-7.842157841E0
2.010214069E1,4.823154926E0,-3.376854181E0,-7.842475414E0
2.012240986E1,4.822791576E0,-3.377550840E0,-7.842399120E0
2.014267897E1,4.821459293E0,-3.378006697E0,-7.843021393E0
2.016294814E1,4.819813728E0,-3.378009319E0,-7.844031811E0
2.018321726E1,4.817813873E0,-3.376621246E0,-7.845857620E0
2.020348637E1,4.815451145E0,-3.373295069E0,-7.848738194E0
2.022375548E1,4.814003468E0,-3.368647337E0,-7.851622105E0
2.024402460E1,4.813999176E0,-3.365422487E0,-7.853007317E0
2.026429371E1,4.813852787E0,-3.363858223E0,-7.853767872E0
2.028456283E1,4.813415527E0,-3.363796473E0,-7.854062557E0
2.030496156E1,4.813098907E0,-3.365019798E0,-7.853732109E0
2.032509978E1,4.813513756E0,-3.365554571E0,-7.853248596E0
2.034536890E1,4.813957691E0,-3.365485191E0,-7.853006840E0
2.036563801E1,4.814337730E0,-3.363488436E0,-7.853628159E0
2.038590713E1,4.814582825E0,-3.360597372E0,-7.854716301E0
2.040617619E1,4.815235138E0,-3.358004093E0,-7.855425835E0
2.042657619E1,4.816493034E0,-3.356786489E0,-7.855174065E0
2.044671442E1,4.818622589E0,-3.356012821E0,-7.854197979E0
2.046698353E1,4.820685387E0,-3.353988171E0,-7.853797913E0
2.048725265E1,4.821379662E0,-3.352097273E0,-7.854178905E0
2.050752176E1,4.821119308E0,-3.349580765E0,-7.855412483E0
2.052792176E1,4.817596436E0,-3.346945286E0,-7.858696461E0
2.054805994E1,4.810064316E0,-3.344415903E0,-7.864385128E0
2.056832906E1,4.799345970E0,-3.343711376E0,-7.871230125E0
2.058859817E1,4.786591053E0,-3.343616962E0,-7.879032135E0
2.062413619E1,4.769433498E0,-3.329753399E0,-7.895292282E0
2.064440546E1,4.766430378E0,-3.327183485E0,-7.898188114E0
2.066467458E1,4.765990734E0,-3.327994347E0,-7.898111820E0
2.068494364E1,4.767285824E0,-3.331906319E0,-7.895680904E0
2.070521275E1,4.769216537E0,-3.330376625E0,-7.895160198E0
2.072561275E1,4.769345284E0,-3.329887390E0,-7.895288944E0
2.074575093E1,4.768007278E0,-3.330730915E0,-7.895741463E0
2.076601999E1,4.766061306E0,-3.332706451E0,-7.896081924E0
2.078628911E1,4.766929150E0,-3.333729744E0,-7.895126343E0
2.080655817E1,4.770569324E0,-3.335134506E0,-7.892333984E0
2.082682728E1,4.774453640E0,-3.339107037E0,-7.888304234E0
2.084709635E1,4.777729511E0,-3.344686508E0,-7.883955956E0
2.086736546E1,4.781870365E0,-3.349831343E0,-7.879258633E0
2.088763452E1,4.787930489E0,-3.353820801E0,-7.873881340E0
2.090790364E1,4.794564247E0,-3.356794119E0,-7.868574142E0
2.092817270E1,4.800814629E0,-3.359573841E0,-7.863575935E0
2.094844176E1,4.807445049E0,-3.362519979E0,-7.858263969E0
2.096871088E1,4.815237045E0,-3.366607904E0,-7.851740837E0
2.098897994E1,4.824563980E0,-3.371272564E0,-7.844009876E0
2.100924900E1,4.834265232E0,-3.376772165E0,-7.835667133E0
2.102951812E1,4.842501163E0,-3.384228468E0,-7.827360630E0
2.104991812E1,4.847536564E0,-3.393073797E0,-7.820410252E0
2.107005624E1,4.848609447E0,-3.402548313E0,-7.815627098E0
2.109032536E1,4.847105980E0,-3.411403894E0,-7.812699795E0
2.111059442E1,4.845046043E0,-3.419332981E0,-7.810510635E0
2.113086348E1,4.842314243E0,-3.426944733E0,-7.808868885E0
2.115113260E1,4.839751720E0,-3.433001757E0,-7.807796478E0
2.117140166E1,4.838509560E0,-3.436785221E0,-7.806901932E0
2.119167072E1,4.839281082E0,-3.439482212E0,-7.805235386E0
2.121193978E1,4.841697216E0,-3.440755844E0,-7.803174973E0
2.123220885E1,4.845712185E0,-3.441676140E0,-7.800277233E0
2.125247796E1,4.848896980E0,-3.443196535E0,-7.797627926E0
2.127274702E1,4.851530552E0,-3.443887234E0,-7.795683384E0
2.129301609E1,4.852862358E0,-3.445622206E0,-7.794087410E0
2.131328515E1,4.854093075E0,-3.446860790E0,-7.792772293E0
2.133355421E1,4.855287552E0,-3.447397470E0,-7.791791916E0
2.135382327E1,4.853991508E0,-3.448745489E0,-7.792003155E0
2.137409234E1,4.852171421E0,-3.449015379E0,-7.793016911E0
2.139436145E1,4.851703644E0,-3.449268103E0,-7.793196678E0
2.141463051E1,4.853272915E0,-3.449475527E0,-7.792126179E0
2.143489958E1,4.855036736E0,-3.449825764E0,-7.790874481E0
2.145516864E1,4.855146885E0,-3.449791670E0,-7.790819168E0
2.147543770E1,4.853234768E0,-3.449403048E0,-7.792183399E0
2.149570671E1,4.850703716E0,-3.447829962E0,-7.794455051E0
2.151597583E1,4.849044323E0,-3.445908308E0,-7.796337128E0
2.153624489E1,4.848404408E0,-3.442994595E0,-7.798022270E0
2.155651395E1,4.848504543E0,-3.440367460E0,-7.799119473E0
2.157678301E1,4.848663330E0,-3.437484026E0,-7.800292015E0
2.159705208E1,4.846990108E0,-3.434409618E0,-7.802685738E0
2.161732109E1,4.842516422E0,-3.431601763E0,-7.806697845E0
2.163759015E1,4.835737228E0,-3.429574728E0,-7.811789036E0
2.165785921E1,4.830026150E0,-3.427637339E0,-7.816171646E0
2.167812827E1,4.826060772E0,-3.426416397E0,-7.819155693E0
2.169839734E1,4.821531296E0,-3.423249960E0,-7.823336601E0
2.171866640E1,4.814884663E0,-3.416141272E0,-7.830533504E0
2.173893546E1,4.811375618E0,-3.405127287E0,-7.837483883E0
2.175920447E1,4.812684059E0,-3.390319347E0,-7.843099594E0
2.177947353E1,4.819728374E0,-3.373991013E0,-7.845813274E0
2.179974260E1,4.823269367E0,-3.358778000E0,-7.850163937E0
2.182001166E1,4.813348770E0,-3.347552061E0,-7.861040115E0
2.184028072E1,4.790594578E0,-3.339308977E0,-7.878426552E0
2.186054973E1,4.763831615E0,-3.326752186E0,-7.899937630E0
2.188081880E1,4.728963852E0,-3.303797483E0,-7.930461407E0
2.190108786E1,4.700922966E0,-3.272783041E0,-7.959937096E0
2.192148786E1,4.682394981E0,-3.227986574E0,-7.989096165E0
2.194162593E1,4.659939766E0,-3.173761606E0,-8.023876190E0
2.196189499E1,4.626329422E0,-3.108480692E0,-8.068755150E0
2.198216406E1,4.571208477E0,-3.036563158E0,-8.127345085E0
2.200243312E1,4.495109081E0,-2.961352110E0,-8.197242737E0
2.202283312E1,4.410297871E0,-2.887655020E0,-8.269287109E0
2.204297119E1,4.335809708E0,-2.805874109E0,-8.336560249E0
2.206327958E1,4.292854786E0,-2.707250118E0,-8.391220093E0
2.208350932E1,4.263414860E0,-2.616250277E0,-8.434981346E0
2.210377838E1,4.230566978E0,-2.536240816E0,-8.475858688E0
2.212417838E1,4.195392132E0,-2.467534304E0,-8.513539314E0
2.214431645E1,4.143066883E0,-2.409765244E0,-8.555607796E0
2.216458546E1,4.075592995E0,-2.357958794E0,-8.602323532E0
2.218485447E1,4.008398056E0,-2.304988861E0,-8.648130417E0
2.220512353E1,3.939668417E0,-2.240977526E0,-8.696402550E0
2.222539255E1,3.876695156E0,-2.161455631E0,-8.744697571E0
2.224566161E1,3.821177483E0,-2.074107409E0,-8.790168762E0
2.226593062E1,3.769642115E0,-1.981460214E0,-8.833685875E0
2.228619968E1,3.715820551E0,-1.898984671E0,-8.874509811E0
2.230646869E1,3.655474901E0,-1.837399721E0,-8.912455559E0
2.232686869E1,3.592082262E0,-1.780083060E0,-8.949784279E0
2.234700676E1,3.545582056E0,-1.719251275E0,-8.980168343E0
2.236727577E1,3.514442205E0,-1.662979603E0,-9.002975464E0
2.238754484E1,3.486870289E0,-1.619957089E0,-9.021522522E0
2.240781385E1,3.462197304E0,-1.589416862E0,-9.036444664E0
2.242808291E1,3.443563461E0,-1.570036650E0,-9.046946526E0
2.244835192E1,3.431910515E0,-1.553508639E0,-9.054224968E0
2.246862093E1,3.426737070E0,-1.541308999E0,-9.058267593E0
2.248888999E1,3.429748535E0,-1.532973528E0,-9.058542252E0
2.250915900E1,3.437941551E0,-1.525037766E0,-9.056777000E0
2.252942801E1,3.444734097E0,-1.522029281E0,-9.054701805E0
2.254969708E1,3.460686684E0,-1.524330735E0,-9.048228264E0
2.256996609E1,3.485809326E0,-1.533786654E0,-9.036980629E0
2.259023510E1,3.525514603E0,-1.558551550E0,-9.017319679E0
2.261050411E1,3.591590405E0,-1.604170203E0,-8.983180046E0
2.263077312E1,3.687708855E0,-1.669152737E0,-8.932250977E0
2.265104218E1,3.804488659E0,-1.752160430E0,-8.867140770E0
2.267131119E1,3.922981977E0,-1.841148973E0,-8.797202110E0
2.269158020E1,4.037568569E0,-1.909136534E0,-8.730613708E0
2.271184921E1,4.138275146E0,-1.924164057E0,-8.680015564E0
2.273211827E1,4.194147110E0,-1.899770379E0,-8.658543587E0
2.275238723E1,4.189901829E0,-1.886078119E0,-8.663592339E0
2.277265630E1,4.187901974E0,-1.882577538E0,-8.665319443E0
2.279292530E1,4.240268707E0,-1.898912907E0,-8.636240005E0
2.281319432E1,4.333811283E0,-1.944754004E0,-8.579417229E0
2.283346333E1,4.431660175E0,-2.005386353E0,-8.515233040E0
2.285373234E1,4.485523224E0,-2.056089640E0,-8.474843025E0
2.287400135E1,4.472071648E0,-2.083322763E0,-8.475300789E0
2.289427036E1,4.403930187E0,-2.083396673E0,-8.510890007E0
2.291453937E1,4.341536045E0,-2.059132576E0,-8.548767090E0
2.293480838E1,4.322894096E0,-2.035590649E0,-8.563838959E0
2.295507739E1,4.338809967E0,-2.036026001E0,-8.555683136E0
2.297534640E1,4.361046314E0,-2.060618401E0,-8.538473129E0
2.299561541E1,4.373854160E0,-2.100412369E0,-8.522209167E0
2.301588442E1,4.360902309E0,-2.142333269E0,-8.518411636E0
2.303615343E1,4.315522671E0,-2.177574158E0,-8.532574654E0
2.305642244E1,4.259438515E0,-2.200696707E0,-8.554795265E0
2.307669140E1,4.224433899E0,-2.209220648E0,-8.569941521E0
2.309696046E1,4.214918613E0,-2.209598541E0,-8.574527740E0
2.311722947E1,4.219888210E0,-2.208915472E0,-8.572257996E0
2.313749848E1,4.230346203E0,-2.207021713E0,-8.567590714E0
2.315776744E1,4.233688354E0,-2.203140974E0,-8.566938400E0
2.317803645E1,4.221784115E0,-2.198620558E0,-8.573972702E0
2.319830546E1,4.202148914E0,-2.192503691E0,-8.585176468E0
2.321857447E1,4.184182167E0,-2.184705257E0,-8.595933914E0
2.323884343E1,4.173530579E0,-2.177486420E0,-8.602940559E0
2.325911244E1,4.171558380E0,-2.171515465E0,-8.605405807E0
2.327938145E1,4.175403595E0,-2.166106939E0,-8.604904175E0
2.329965046E1,4.177306652E0,-2.160110474E0,-8.605488777E0
2.331991947E1,4.172371387E0,-2.151737213E0,-8.609979630E0
2.334018848E1,4.165485382E0,-2.137156725E0,-8.616941452E0
2.336045744E1,4.163344860E0,-2.105001926E0,-8.625886917E0
2.338072645E1,4.174201012E0,-2.071382523E0,-8.628778458E0
2.340099546E1,4.192109585E0,-2.041164160E0,-8.627296448E0
2.342139546E1,4.210141659E0,-2.015471458E0,-8.624555588E0
2.344153343E1,4.225813866E0,-1.994820356E0,-8.621692657E0
2.346180244E1,4.240057468E0,-1.974646211E0,-8.619342804E0
2.348207145E1,4.247519016E0,-1.956005335E0,-8.619920731E0
2.350234041E1,4.252045155E0,-1.942823291E0,-8.620669365E0
2.352274041E1,4.248960495E0,-1.934025288E0,-8.624168396E0
2.354287838E1,4.236144066E0,-1.924791455E0,-8.632534027E0
2.356314739E1,4.227195740E0,-1.917026997E0,-8.638647079E0
2.358341635E1,4.224550247E0,-1.919598699E0,-8.639369011E0
2.360368536E1,4.221845150E0,-1.939893246E0,-8.636157990E0
2.362408536E1,4.210297585E0,-1.975012422E0,-8.633835793E0
2.364422333E1,4.196975708E0,-2.010235786E0,-8.632191658E0
2.366449234E1,4.193459988E0,-2.041759253E0,-8.626500130E0
2.368476130E1,4.201558590E0,-2.073249340E0,-8.615040779E0
2.370503025E1,4.214467525E0,-2.106978655E0,-8.600540161E0
2.372543025E1,4.221610546E0,-2.137100697E0,-8.589597702E0
2.374556827E1,4.220186234E0,-2.156616211E0,-8.585419655E0
2.376583723E1,4.214752197E0,-2.164409876E0,-8.586128235E0
2.378610619E1,4.209609509E0,-2.164042950E0,-8.588742256E0
2.380637520E1,4.196340561E0,-2.168709517E0,-8.594057083E0
2.382664416E1,4.177959919E0,-2.169977665E0,-8.602687836E0
2.384691317E1,4.153049469E0,-2.168050766E0,-8.615225792E0
2.386718213E1,4.123734474E0,-2.165503025E0,-8.629936218E0
2.388745114E1,4.098439217E0,-2.165540934E0,-8.641968727E0
2.390772010E1,4.083190441E0,-2.171773911E0,-8.647620201E0
2.392798906E1,4.080211639E0,-2.186055422E0,-8.645427704E0
2.394825807E1,4.085116386E0,-2.206976414E0,-8.637792587E0
2.396852702E1,4.088335037E0,-2.230078697E0,-8.630333900E0
2.398879598E1,4.083279133E0,-2.251527309E0,-8.627157211E0
2.400906499E1,4.074834347E0,-2.268375158E0,-8.626736641E0
2.402933395E1,4.066981316E0,-2.281269550E0,-8.627042770E0
2.404960291E1,4.063649178E0,-2.289640903E0,-8.626395226E0
2.406987187E1,4.071329594E0,-2.289778233E0,-8.622735977E0
2.409014088E1,4.085198879E0,-2.284770727E0,-8.617503166E0
2.411040984E1,4.102097511E0,-2.277313232E0,-8.611448288E0
2.413067880E1,4.119523525E0,-2.267784357E0,-8.605641365E0
2.415094775E1,4.132185936E0,-2.255785704E0,-8.602724075E0
2.417121671E1,4.135390282E0,-2.239632368E0,-8.605403900E0
2.419148572E1,4.127227306E0,-2.215244770E0,-8.615629196E0
2.421175468E1,4.121134758E0,-2.182868481E0,-8.626802444E0
2.423202364E1,4.127122402E0,-2.150459766E0,-8.632078171E0
2.425229260E1,4.141867638E0,-2.131871700E0,-8.629625320E0
2.427256150E1,4.148495197E0,-2.135603666E0,-8.625518799E0
2.429283051E1,4.136446953E0,-2.162315369E0,-8.624650002E0
2.431309947E1,4.108207226E0,-2.205990553E0,-8.627086639E0
2.433336843E1,4.075367451E0,-2.252254248E0,-8.630707741E0
2.435363744E1,4.067452908E0,-2.266492844E0,-8.630715370E0
2.437390635E1,4.064319611E0,-2.274875879E0,-8.629984856E0
2.439417536E1,4.068609238E0,-2.277124405E0,-8.627369881E0
2.441444432E1,4.079178810E0,-2.275194883E0,-8.622886658E0
2.443471322E1,4.091895580E0,-2.271259546E0,-8.617897034E0
2.445498223E1,4.102365971E0,-2.268283367E0,-8.613701820E0
2.447525114E1,4.109520912E0,-2.269508839E0,-8.609968185E0
2.449552015E1,4.112632751E0,-2.276752710E0,-8.606569290E0
2.451578911E1,4.109622478E0,-2.288668156E0,-8.604846954E0
2.453605807E1,4.097330570E0,-2.303238869E0,-8.606820107E0
2.455632697E1,4.077565670E0,-2.316541910E0,-8.612634659E0
2.457659598E1,4.053863049E0,-2.326141834E0,-8.621232033E0
2.459686494E1,4.030000687E0,-2.331571102E0,-8.630948067E0
2.461713390E1,4.008736610E0,-2.334449291E0,-8.640067101E0
2.463740286E1,3.992719650E0,-2.336869717E0,-8.646826744E0
2.465767182E1,3.981629610E0,-2.340417862E0,-8.650979996E0
2.467794077E1,3.976036072E0,-2.345988274E0,-8.652044296E0
2.469820973E1,3.973804235E0,-2.350145817E0,-8.651940346E0
2.471847869E1,3.971804619E0,-2.350184917E0,-8.652849197E0
2.473874765E1,3.971321106E0,-2.345714092E0,-8.654283524E0
2.475901661E1,3.973885775E0,-2.337286711E0,-8.655385971E0
2.477928557E1,3.968964338E0,-2.331982136E0,-8.659074783E0
2.479955452E1,3.957957983E0,-2.328016758E0,-8.665177345E0
2.481982348E1,3.948560476E0,-2.324694872E0,-8.670354843E0
2.484009244E1,3.945482969E0,-2.320307493E0,-8.672930717E0
2.486036140E1,3.948888063E0,-2.315833807E0,-8.672576904E0
2.488063036E1,3.953096151E0,-2.310897350E0,-8.671976089E0
2.490089932E1,3.955538750E0,-2.306920528E0,-8.671920776E0
2.492129932E1,3.954442739E0,-2.303774834E0,-8.673256874E0
2.494143728E1,3.951370955E0,-2.301548719E0,-8.675248146E0
2.496170624E1,3.946351528E0,-2.299443960E0,-8.678090096E0
2.498197520E1,3.941937447E0,-2.297441959E0,-8.680627823E0
2.500224416E1,3.940283537E0,-2.294597387E0,-8.682128906E0
2.502264416E1,3.939786434E0,-2.293217182E0,-8.682720184E0
2.504278208E1,3.939095974E0,-2.293432474E0,-8.682975769E0
2.506305103E1,3.936228514E0,-2.293963432E0,-8.684136391E0
2.508332004E1,3.932563305E0,-2.292773485E0,-8.686110497E0
2.510358895E1,3.929980993E0,-2.288444519E0,-8.688422203E0
2.512398895E1,3.930899858E0,-2.283007145E0,-8.689435959E0
2.514412692E1,3.933196545E0,-2.281494617E0,-8.688793182E0
2.516439588E1,3.933631659E0,-2.282487631E0,-8.688336372E0
2.518466484E1,3.931691408E0,-2.283562422E0,-8.688931465E0
2.520493385E1,3.928890944E0,-2.282814026E0,-8.690394402E0
2.522533385E1,3.926334381E0,-2.279566765E0,-8.692402840E0
2.524547171E1,3.926976204E0,-2.276256084E0,-8.692980766E0
2.526574077E1,3.929391861E0,-2.275760651E0,-8.692018509E0
2.528600973E1,3.932265997E0,-2.277417183E0,-8.690284729E0
2.530627869E1,3.933119535E0,-2.278325558E0,-8.689659119E0
2.532642984E1,3.933404446E0,-2.277206421E0,-8.689824104E0
2.534681744E1,3.935221195E0,-2.275460005E0,-8.689459801E0
2.536708588E1,3.938001394E0,-2.273229599E0,-8.688783646E0
2.538735478E1,3.939203739E0,-2.271168232E0,-8.688776970E0
2.540762369E1,3.938885450E0,-2.270704031E0,-8.689042091E0
2.542789265E1,3.937388420E0,-2.269062042E0,-8.690151215E0
2.544816161E1,3.936342239E0,-2.265712261E0,-8.691498756E0
2.546843062E1,3.935199499E0,-2.262475729E0,-8.692858696E0
2.548869958E1,3.935158730E0,-2.258346319E0,-8.693950653E0
2.550896859E1,3.933064938E0,-2.255201101E0,-8.695714951E0
2.552923754E1,3.932016373E0,-2.252955914E0,-8.696770668E0
2.554950656E1,3.931949615E0,-2.252956867E0,-8.696800232E0
2.556977546E1,3.931358337E0,-2.255966902E0,-8.696288109E0
2.559004447E1,3.930128574E0,-2.259734392E0,-8.695865631E0
2.561031343E1,3.928707838E0,-2.260649204E0,-8.696269989E0
2.563058244E1,3.927332163E0,-2.259364843E0,-8.697225571E0
2.565085145E1,3.926915646E0,-2.258613110E0,-8.697607994E0
2.567112051E1,3.927211523E0,-2.259135962E0,-8.697339058E0
2.569138942E1,3.929027081E0,-2.260198116E0,-8.696243286E0
2.571165838E1,3.931812763E0,-2.259079695E0,-8.695274353E0
2.573192739E1,3.935498238E0,-2.259038925E0,-8.693616867E0
2.575219640E1,3.939762831E0,-2.261831522E0,-8.690959930E0
2.577246536E1,3.942145348E0,-2.266016483E0,-8.688788414E0
2.579273437E1,3.940937519E0,-2.268219709E0,-8.688761711E0
2.581300338E1,3.937984228E0,-2.266198874E0,-8.690628052E0
2.583327228E1,3.936370850E0,-2.263330221E0,-8.692106247E0
2.585354135E1,3.936692715E0,-2.260656118E0,-8.692655563E0
2.587381036E1,3.936502695E0,-2.257985592E0,-8.693436623E0
2.589407932E1,3.935436010E0,-2.255727530E0,-8.694505692E0
2.591434833E1,3.935228586E0,-2.255654812E0,-8.694617271E0
2.593461734E1,3.936692238E0,-2.257214308E0,-8.693551064E0
2.595488630E1,3.938972235E0,-2.258761406E0,-8.692115784E0
2.597515530E1,3.941946030E0,-2.259907246E0,-8.690470695E0
2.599542426E1,3.944981098E0,-2.261727095E0,-8.688618660E0
2.601569327E1,3.945821047E0,-2.265193701E0,-8.687335014E0
2.603596228E1,3.944937229E0,-2.267952204E0,-8.687017441E0
2.605623130E1,3.941561937E0,-2.267836094E0,-8.688578606E0
2.607650025E1,3.938699484E0,-2.265505791E0,-8.690484047E0
2.609676926E1,3.938314199E0,-2.261370659E0,-8.691736221E0
2.611703827E1,3.940261602E0,-2.259601116E0,-8.691313744E0
2.613730723E1,3.943720579E0,-2.261478424E0,-8.689255714E0
2.615757624E1,3.947070599E0,-2.266007662E0,-8.686554909E0
2.617784525E1,3.949586153E0,-2.271409512E0,-8.684000015E0
2.619811421E1,3.952562571E0,-2.277683496E0,-8.681002617E0
2.621838322E1,3.954414129E0,-2.283216238E0,-8.678704262E0
2.623865223E1,3.954909325E0,-2.287541389E0,-8.677339554E0
2.625892119E1,3.954718113E0,-2.291020870E0,-8.676509857E0
2.627919020E1,3.955018282E0,-2.294131517E0,-8.675550461E0
2.629945921E1,3.956907272E0,-2.296859980E0,-8.673967361E0
2.631972822E1,3.961649895E0,-2.298351049E0,-8.671406746E0
2.633999718E1,3.966953516E0,-2.300893307E0,-8.668307304E0
2.636026619E1,3.971506119E0,-2.303315878E0,-8.665579796E0
2.638053520E1,3.975033283E0,-2.305997849E0,-8.663248062E0
2.640080416E1,3.978181362E0,-2.308728933E0,-8.661076546E0
2.642120416E1,3.981949806E0,-2.312323332E0,-8.658385277E0
2.644134218E1,3.985564947E0,-2.316842556E0,-8.655512810E0
2.646161119E1,3.988479137E0,-2.321614504E0,-8.652891159E0
2.648188015E1,3.990953922E0,-2.325902939E0,-8.650597572E0
2.650214916E1,3.993676424E0,-2.329995632E0,-8.648240089E0
2.652254916E1,3.995693445E0,-2.333981276E0,-8.646233559E0
2.654268718E1,3.996825218E0,-2.338055611E0,-8.644609451E0
2.656295614E1,3.998976946E0,-2.341119528E0,-8.642785072E0
2.658322515E1,4.002750397E0,-2.343826532E0,-8.640304565E0
2.660349416E1,4.006761074E0,-2.347397566E0,-8.637475014E0
2.662389416E1,4.011368275E0,-2.352953196E0,-8.633824348E0
2.664403213E1,4.015060902E0,-2.358888626E0,-8.630487442E0
2.666430114E1,4.015440941E0,-2.362762213E0,-8.629251480E0
2.668457004E1,4.013931751E0,-2.363836527E0,-8.629658699E0
2.670483911E1,4.013400555E0,-2.364419460E0,-8.629747391E0
2.672523911E1,4.012949467E0,-2.366832495E0,-8.629295349E0
2.674537713E1,4.013691902E0,-2.369633436E0,-8.628181458E0
2.676564609E1,4.015677452E0,-2.372546673E0,-8.626455307E0
2.678591510E1,4.018529892E0,-2.373732328E0,-8.624801636E0
2.680618411E1,4.020964146E0,-2.373918056E0,-8.623615265E0
2.682645307E1,4.023669243E0,-2.374484301E0,-8.622199059E0
2.684672208E1,4.025265694E0,-2.376497746E0,-8.620898247E0
2.686699109E1,4.027256966E0,-2.378795147E0,-8.619334221E0
2.688726004E1,4.029785633E0,-2.381263971E0,-8.617470741E0
2.690752906E1,4.032205582E0,-2.384095430E0,-8.615554810E0
2.692779807E1,4.034016132E0,-2.386529207E0,-8.614033699E0
2.694806702E1,4.035003662E0,-2.387943029E0,-8.613179207E0
2.696833603E1,4.036240578E0,-2.388654709E0,-8.612401962E0
2.698860504E1,4.035997391E0,-2.389198303E0,-8.612366676E0
2.700887400E1,4.033981323E0,-2.388749838E0,-8.613434792E0
2.702914301E1,4.032212257E0,-2.387935638E0,-8.614488602E0
2.704941202E1,4.031222343E0,-2.387082577E0,-8.615188599E0
2.706968098E1,4.029418945E0,-2.386387110E0,-8.616224289E0
2.708994999E1,4.026493073E0,-2.385447741E0,-8.617852211E0
2.711021895E1,4.023612976E0,-2.383418798E0,-8.619759560E0
2.713048796E1,4.020368099E0,-2.381077051E0,-8.621920586E0
2.715075697E1,4.017598152E0,-2.378760576E0,-8.623849869E0
2.717102593E1,4.015902042E0,-2.376591682E0,-8.625238419E0
2.719129494E1,4.014465809E0,-2.374526024E0,-8.626475334E0
2.721156390E1,4.013464451E0,-2.373707533E0,-8.627166748E0
2.723183291E1,4.013574123E0,-2.372204542E0,-8.627529144E0
2.725210192E1,4.012626171E0,-2.371033907E0,-8.628292084E0
2.727237088E1,4.009293556E0,-2.369308710E0,-8.630313873E0
2.729263989E1,4.006209850E0,-2.367133379E0,-8.632343292E0
2.731290885E1,4.004104137E0,-2.366197824E0,-8.633576393E0
2.733317786E1,4.003687382E0,-2.366141796E0,-8.633785248E0
2.735344682E1,4.003711700E0,-2.365239143E0,-8.634021759E0
2.737371583E1,4.002943993E0,-2.361796379E0,-8.635319710E0
2.739398478E1,4.001501083E0,-2.355534315E0,-8.637698174E0
2.741425380E1,3.999518156E0,-2.348015308E0,-8.640663147E0
2.743452270E1,3.997012615E0,-2.340825558E0,-8.643772125E0
2.745479176E1,3.992305756E0,-2.335441351E0,-8.647404671E0
2.747506072E1,3.987564325E0,-2.332840681E0,-8.650294304E0
2.749532973E1,3.987577438E0,-2.333464622E0,-8.650118828E0
2.751559869E1,3.991776228E0,-2.337319136E0,-8.647141457E0
2.753586770E1,3.996173620E0,-2.342100620E0,-8.643815994E0
2.755613666E1,4.000043392E0,-2.345618248E0,-8.641071320E0
2.757640567E1,4.001185417E0,-2.346123934E0,-8.640405655E0
2.759667463E1,4.000007153E0,-2.340514421E0,-8.642473221E0
2.761694364E1,3.999408007E0,-2.332198143E0,-8.644996643E0
2.763721260E1,3.995616436E0,-2.321259499E0,-8.649693489E0
2.765748161E1,3.990214348E0,-2.308051825E0,-8.655719757E0
2.767775057E1,3.982894659E0,-2.295306683E0,-8.662477493E0
2.769801952E1,3.975680351E0,-2.283639669E0,-8.668871880E0
2.771828848E1,3.969871521E0,-2.275017023E0,-8.673798561E0
2.773855749E1,3.965494871E0,-2.268993139E0,-8.677378654E0
2.775882645E1,3.961328268E0,-2.263070822E0,-8.680828094E0
2.777922645E1,3.956540108E0,-2.255309820E0,-8.685030937E0
2.779952234E1,3.952814102E0,-2.247482061E0,-8.688755989E0
2.781979140E1,3.950863361E0,-2.242363214E0,-8.690964699E0
2.783990301E1,3.947408438E0,-2.238168955E0,-8.693614960E0
2.786017187E1,3.939958334E0,-2.233505964E0,-8.698193550E0
2.788044077E1,3.932043791E0,-2.230099916E0,-8.702647209E0
2.790070963E1,3.924744844E0,-2.227558613E0,-8.706591606E0
2.792105723E1,3.919158936E0,-2.224241972E0,-8.709956169E0
2.794124755E1,3.914829969E0,-2.221564054E0,-8.712585449E0
2.796151640E1,3.910323143E0,-2.219821215E0,-8.715053558E0
2.798178531E1,3.905250788E0,-2.219639063E0,-8.717373848E0
2.800205426E1,3.899728775E0,-2.221987963E0,-8.719247818E0
2.802245426E1,3.893786669E0,-2.225074768E0,-8.721115112E0
2.804259218E1,3.888885021E0,-2.226909161E0,-8.722834587E0
2.806286109E1,3.884520292E0,-2.227355719E0,-8.724665642E0
2.808313004E1,3.881142855E0,-2.226103067E0,-8.726488113E0
2.810339900E1,3.880566835E0,-2.225280523E0,-8.726953506E0
2.812379900E1,3.883125782E0,-2.223387241E0,-8.726297379E0
2.814393692E1,3.887107372E0,-2.221626282E0,-8.724973679E0
2.816420593E1,3.892486811E0,-2.221807718E0,-8.722528458E0
2.818447489E1,3.898883343E0,-2.223308086E0,-8.719288826E0
2.820474374E1,3.903802156E0,-2.225094080E0,-8.716631889E0
2.822514374E1,3.906670332E0,-2.228831530E0,-8.714390755E0
2.824528171E1,3.907549620E0,-2.233595371E0,-8.712778091E0
2.826555062E1,3.905905962E0,-2.237278700E0,-8.712570190E0
2.828581958E1,3.903046131E0,-2.240146160E0,-8.713113785E0
2.830608859E1,3.898250103E0,-2.242164373E0,-8.714742661E0
2.832648859E1,3.890686750E0,-2.243151903E0,-8.717866898E0
2.834662650E1,3.881198406E0,-2.242826700E0,-8.722179413E0
2.836689546E1,3.872036219E0,-2.242549658E0,-8.726321220E0
2.838716447E1,3.865926027E0,-2.244197607E0,-8.728607178E0
2.840743343E1,3.860782146E0,-2.246688843E0,-8.730242729E0
2.842770239E1,3.856044054E0,-2.248948336E0,-8.731755257E0
2.844797135E1,3.852341890E0,-2.250631332E0,-8.732954025E0
2.846824025E1,3.851105928E0,-2.251834869E0,-8.733191490E0
2.848850926E1,3.849941492E0,-2.254259109E0,-8.733078957E0
2.850877817E1,3.847103119E0,-2.257928848E0,-8.733381271E0
2.852904713E1,3.842650652E0,-2.262920380E0,-8.734049797E0
2.854931609E1,3.836729765E0,-2.269039869E0,-8.735063553E0
2.856958504E1,3.829953432E0,-2.276972055E0,-8.735973358E0
2.858985400E1,3.822904348E0,-2.286820173E0,-8.736489296E0
2.861012296E1,3.817561150E0,-2.297844172E0,-8.735933304E0
2.863039187E1,3.815241098E0,-2.308742762E0,-8.734072685E0
2.865066083E1,3.812637091E0,-2.316567421E0,-8.733138084E0
2.867092978E1,3.808239937E0,-2.318806648E0,-8.734461784E0
2.869119874E1,3.801295280E0,-2.316276550E0,-8.738157272E0
2.871146770E1,3.793188572E0,-2.311834574E0,-8.742856026E0
2.873173666E1,3.786450386E0,-2.306565762E0,-8.747166634E0
2.875200562E1,3.782017231E0,-2.302074432E0,-8.750267982E0
2.877227452E1,3.779911041E0,-2.298031330E0,-8.752241135E0
2.879254348E1,3.780744791E0,-2.293759108E0,-8.753001213E0
2.881281244E1,3.782334328E0,-2.290521383E0,-8.753162384E0
2.883308140E1,3.782488585E0,-2.288158178E0,-8.753713608E0
2.885335031E1,3.783190966E0,-2.286605358E0,-8.753815651E0
2.887361926E1,3.785450935E0,-2.286017895E0,-8.752991676E0
2.889388822E1,3.787061930E0,-2.284561872E0,-8.752676010E0
2.891415713E1,3.786061764E0,-2.282989979E0,-8.753518105E0
2.893442609E1,3.785719156E0,-2.282872200E0,-8.753696442E0
2.895469504E1,3.787238121E0,-2.284730673E0,-8.752554893E0
2.897496395E1,3.788301468E0,-2.289326429E0,-8.750894547E0
2.899523291E1,3.786143780E0,-2.297051191E0,-8.749804497E0
2.901550187E1,3.780263424E0,-2.306766272E0,-8.749789238E0
2.903577077E1,3.772170067E0,-2.315325975E0,-8.751022339E0
2.905603973E1,3.764370203E0,-2.321895599E0,-8.752640724E0
2.907630864E1,3.757722855E0,-2.325556993E0,-8.754524231E0
2.909657760E1,3.751054287E0,-2.327220201E0,-8.756940842E0
2.911684656E1,3.745432854E0,-2.328285456E0,-8.759064674E0
2.913711546E1,3.743805885E0,-2.330028772E0,-8.759296417E0
2.915738442E1,3.746068001E0,-2.331809282E0,-8.757854462E0
2.917765333E1,3.751411915E0,-2.335198402E0,-8.754664421E0
2.919792223E1,3.758702993E0,-2.339766741E0,-8.750315666E0
2.921819119E1,3.767402887E0,-2.343681097E0,-8.745526314E0
2.923846010E1,3.777873516E0,-2.347993374E0,-8.739850998E0
2.925872906E1,3.790041685E0,-2.352408886E0,-8.733392715E0
2.927899791E1,3.800101757E0,-2.356139898E0,-8.728013992E0
2.929926692E1,3.805329323E0,-2.358385563E0,-8.725129128E0
2.931953583E1,3.807606936E0,-2.359620094E0,-8.723800659E0
2.933980478E1,3.807241201E0,-2.358023167E0,-8.724393845E0
2.936007369E1,3.806814432E0,-2.355249166E0,-8.725327492E0
2.938034260E1,3.807627916E0,-2.352342367E0,-8.725756645E0
2.940061156E1,3.807130098E0,-2.349580526E0,-8.726718903E0
2.942088046E1,3.801386118E0,-2.347875357E0,-8.729681015E0
2.944114937E1,3.794615507E0,-2.347510338E0,-8.732725143E0
2.946141833E1,3.790749073E0,-2.350340605E0,-8.733642578E0
2.948168723E1,3.790760279E0,-2.355384111E0,-8.732278824E0
2.950195614E1,3.792362690E0,-2.362041712E0,-8.729784966E0
2.952235614E1,3.792757511E0,-2.368564129E0,-8.727845192E0
2.954249400E1,3.791956902E0,-2.374109268E0,-8.726686478E0
2.956276291E1,3.788765669E0,-2.379581213E0,-8.726582527E0
2.958303182E1,3.784019232E0,-2.384114742E0,-8.727404594E0
2.960330072E1,3.777658939E0,-2.387201309E0,-8.729315758E0
2.962370072E1,3.771427393E0,-2.387699127E0,-8.731873512E0
2.964383853E1,3.769016504E0,-2.386153221E0,-8.733337402E0
2.966410744E1,3.771553755E0,-2.384727478E0,-8.732629776E0
2.968437640E1,3.774836779E0,-2.383698940E0,-8.731492996E0
2.970464531E1,3.777392626E0,-2.380962849E0,-8.731134415E0
2.972504531E1,3.777149916E0,-2.378302574E0,-8.731965065E0
2.974518312E1,3.774050951E0,-2.376229286E0,-8.733868599E0
2.976545202E1,3.769231796E0,-2.376369476E0,-8.735911369E0
2.978572093E1,3.768968105E0,-2.377939224E0,-8.735598564E0
2.980598984E1,3.773509979E0,-2.379929066E0,-8.733095169E0
2.982625874E1,3.782567501E0,-2.383031368E0,-8.728328705E0
2.984652765E1,3.791953325E0,-2.385252237E0,-8.723649025E0
2.986692765E1,3.797500372E0,-2.386033058E0,-8.721022606E0
2.988706546E1,3.799547195E0,-2.385169744E0,-8.720367432E0
2.990733437E1,3.800127268E0,-2.384101391E0,-8.720406532E0
2.992760327E1,3.800451040E0,-2.381746054E0,-8.720908165E0
2.994787218E1,3.799436092E0,-2.378655195E0,-8.722194672E0
2.996814109E1,3.797815800E0,-2.375034094E0,-8.723887444E0
2.998840999E1,3.795780659E0,-2.370979548E0,-8.725875854E0
3.000867890E1,3.791964531E0,-2.366977930E0,-8.728619576E0
3.002894780E1,3.788937092E0,-2.364000559E0,-8.730742455E0
3.004921671E1,3.788815737E0,-2.362184525E0,-8.731285095E0
3.006948562E1,3.790434361E0,-2.362490892E0,-8.730500221E0
3.008975447E1,3.792934179E0,-2.363580942E0,-8.729119301E0
3.011002333E1,3.795226336E0,-2.364331007E0,-8.727920532E0
3.013029228E1,3.797144175E0,-2.364882231E0,-8.726935387E0
3.015056119E1,3.800385237E0,-2.365781069E0,-8.725280762E0
3.017083010E1,3.804235935E0,-2.367310047E0,-8.723188400E0
3.019109900E1,3.806739569E0,-2.369238138E0,-8.721572876E0
3.021136791E1,3.807835817E0,-2.370669842E0,-8.720705032E0
3.023163676E1,3.810889721E0,-2.372970819E0,-8.718744278E0
3.025190567E1,3.815585136E0,-2.376539707E0,-8.715718269E0
3.027217458E1,3.820620537E0,-2.382799149E0,-8.711802483E0
3.029244343E1,3.824247360E0,-2.390646458E0,-8.708061218E0
3.031271234E1,3.826429844E0,-2.399511814E0,-8.704663277E0
3.033298124E1,3.828895807E0,-2.407934904E0,-8.701252937E0
3.035325015E1,3.832499266E0,-2.415822983E0,-8.697478294E0
3.037351900E1,3.836026430E0,-2.423300982E0,-8.693842888E0
3.039378791E1,3.836905241E0,-2.429035187E0,-8.691854477E0
3.041405682E1,3.837285280E0,-2.433092833E0,-8.690550804E0
3.043432567E1,3.838659763E0,-2.436631918E0,-8.688953400E0
3.045459458E1,3.842073441E0,-2.440892220E0,-8.686247826E0
3.047486348E1,3.846335649E0,-2.446970463E0,-8.682651520E0
3.049513234E1,3.850493908E0,-2.453875065E0,-8.678858757E0
3.051540124E1,3.854325771E0,-2.461785078E0,-8.674917221E0
3.053567015E1,3.856874466E0,-2.468266249E0,-8.671941757E0
3.055593906E1,3.858896255E0,-2.474641085E0,-8.669224739E0
3.057620791E1,3.860767365E0,-2.480420589E0,-8.666740417E0
3.059647682E1,3.863149643E0,-2.485340595E0,-8.664268494E0
3.061674567E1,3.864664316E0,-2.490449429E0,-8.662125587E0
3.063701458E1,3.865347147E0,-2.495450020E0,-8.660381317E0
3.065728348E1,3.866066456E0,-2.500087023E0,-8.658722878E0
3.067755234E1,3.868543148E0,-2.503983498E0,-8.656490326E0
3.069782124E1,3.871449709E0,-2.507992029E0,-8.654029846E0
3.071809015E1,3.871612549E0,-2.510946035E0,-8.653100967E0
3.073835906E1,3.869910717E0,-2.511353254E0,-8.653743744E0
3.075862791E1,3.865557909E0,-2.509745836E0,-8.656155586E0
3.077889682E1,3.858399630E0,-2.507305861E0,-8.660055161E0
3.079916572E1,3.853298903E0,-2.504981756E0,-8.662998199E0
3.081943458E1,3.850272894E0,-2.500763655E0,-8.665562630E0
3.083970348E1,3.849212885E0,-2.495259285E0,-8.667619705E0
3.085997239E1,3.849090576E0,-2.490494967E0,-8.669043541E0
3.088024130E1,3.846657038E0,-2.486355543E0,-8.671312332E0
3.090051020E1,3.840911388E0,-2.481800079E0,-8.675164223E0
3.092077906E1,3.834089756E0,-2.477240324E0,-8.679483414E0
3.094104796E1,3.828773499E0,-2.472918987E0,-8.683061600E0
3.096131687E1,3.824987411E0,-2.467897415E0,-8.686158180E0
3.098158577E1,3.822926521E0,-2.462340355E0,-8.688642502E0
3.100185468E1,3.821528435E0,-2.457200527E0,-8.690711975E0
3.102225468E1,3.819570303E0,-2.452781200E0,-8.692820549E0
3.104239244E1,3.816300392E0,-2.449172735E0,-8.695274353E0
3.106266135E1,3.811962843E0,-2.444978952E0,-8.698356628E0
3.108293025E1,3.807993650E0,-2.441617966E0,-8.701038361E0
3.110319916E1,3.806065559E0,-2.438040495E0,-8.702885628E0
3.112359916E1,3.804726601E0,-2.434183359E0,-8.704549789E0
3.114389489E1,3.803221464E0,-2.431097507E0,-8.706070900E0
3.116400645E1,3.801608086E0,-2.428793907E0,-8.707417488E0
3.118440645E1,3.800460100E0,-2.426531792E0,-8.708550453E0
3.120454421E1,3.798839331E0,-2.424980402E0,-8.709688187E0
3.122494421E1,3.798566103E0,-2.423657417E0,-8.710175514E0
3.124508187E1,3.799211740E0,-2.423828125E0,-8.709847450E0
3.126535072E1,3.800336838E0,-2.424296379E0,-8.709225655E0
3.128561952E1,3.799912691E0,-2.424254417E0,-8.709423065E0
3.130588843E1,3.798132420E0,-2.423915863E0,-8.710292816E0
3.132628843E1,3.794164419E0,-2.422278404E0,-8.712478638E0
3.134642619E1,3.789781570E0,-2.419537544E0,-8.715147018E0
3.136669510E1,3.786680937E0,-2.416256189E0,-8.717404366E0
3.138696395E1,3.785158873E0,-2.412907362E0,-8.718993187E0
3.140723286E1,3.784875393E0,-2.409991264E0,-8.719922066E0
3.142750176E1,3.785398245E0,-2.408086538E0,-8.720222473E0
3.144777072E1,3.785193205E0,-2.406325579E0,-8.720796585E0
3.146803963E1,3.784253597E0,-2.404898167E0,-8.721598625E0
3.148830853E1,3.782326460E0,-2.404003382E0,-8.722680092E0
3.150857739E1,3.780851841E0,-2.403769732E0,-8.723384857E0
3.152884635E1,3.780165911E0,-2.402388096E0,-8.724062920E0
3.154911525E1,3.780480146E0,-2.400538206E0,-8.724435806E0
3.156938416E1,3.780823469E0,-2.399206400E0,-8.724652290E0
3.158965312E1,3.781717777E0,-2.398391485E0,-8.724489212E0
3.160992202E1,3.781247139E0,-2.398887396E0,-8.724556923E0
3.163019093E1,3.780802727E0,-2.398624420E0,-8.724821091E0
3.165045989E1,3.779601812E0,-2.398203850E0,-8.725458145E0
3.167072880E1,3.779586315E0,-2.397183180E0,-8.725745201E0
3.169099775E1,3.780613422E0,-2.395927668E0,-8.725645065E0
3.171126666E1,3.781453133E0,-2.395504236E0,-8.725397110E0
3.173153557E1,3.781477213E0,-2.394041300E0,-8.725789070E0
3.175180452E1,3.781387806E0,-2.392532825E0,-8.726240158E0
3.177207348E1,3.781713486E0,-2.391769171E0,-8.726308823E0
3.179234239E1,3.781835794E0,-2.391499996E0,-8.726329803E0
3.181261135E1,3.781412840E0,-2.391711473E0,-8.726455688E0
3.183288025E1,3.780910730E0,-2.392942667E0,-8.726335526E0
3.185314921E1,3.780398130E0,-2.394094706E0,-8.726241112E0
3.187341817E1,3.780173540E0,-2.395376205E0,-8.725986481E0
3.189381817E1,3.778518438E0,-2.395844221E0,-8.726574898E0
3.191395603E1,3.775329351E0,-2.394444227E0,-8.728339195E0
3.193435603E1,3.772385597E0,-2.391847134E0,-8.730324745E0
3.195449395E1,3.771384716E0,-2.388001680E0,-8.731808662E0
3.197476286E1,3.771624804E0,-2.385416985E0,-8.732411385E0
3.199503182E1,3.772681713E0,-2.383967400E0,-8.732351303E0
3.201530077E1,3.773049355E0,-2.383864164E0,-8.732221603E0
3.203556973E1,3.773288727E0,-2.384150743E0,-8.732038498E0
3.205583869E1,3.773584127E0,-2.384498835E0,-8.731815338E0
3.207623869E1,3.773659945E0,-2.384990454E0,-8.731649399E0
3.209637656E1,3.774011374E0,-2.385209084E0,-8.731437683E0
3.211664551E1,3.773506165E0,-2.385517597E0,-8.731572151E0
3.213691447E1,3.772891283E0,-2.385940552E0,-8.731721878E0
3.215718343E1,3.772308111E0,-2.386472702E0,-8.731828690E0
3.217745239E1,3.772196054E0,-2.386753321E0,-8.731801033E0
3.219772135E1,3.771114588E0,-2.386588573E0,-8.732311249E0
3.221799030E1,3.769749641E0,-2.386349440E0,-8.732967377E0
3.223825926E1,3.768364429E0,-2.386077404E0,-8.733638763E0
3.225852822E1,3.768076420E0,-2.385809660E0,-8.733836174E0
3.227879718E1,3.768330097E0,-2.386182070E0,-8.733625412E0
3.229906614E1,3.770064831E0,-2.387846947E0,-8.732421875E0
3.231933515E1,3.771984100E0,-2.389161110E0,-8.731233597E0
3.233960411E1,3.772755623E0,-2.389879704E0,-8.730703354E0
3.235987307E1,3.772659779E0,-2.389997721E0,-8.730712891E0
3.238014202E1,3.771630764E0,-2.391121864E0,-8.730849266E0
3.240041098E1,3.771516562E0,-2.392580986E0,-8.730498314E0
3.242067994E1,3.771913528E0,-2.393900394E0,-8.729966164E0
3.244107994E1,3.773223877E0,-2.394309521E0,-8.729287148E0
3.246121791E1,3.774363518E0,-2.394114971E0,-8.728848457E0
3.248148687E1,3.772000074E0,-2.392144442E0,-8.730409622E0
3.250175583E1,3.768246651E0,-2.388801336E0,-8.732945442E0
3.252215583E1,3.766092777E0,-2.384603262E0,-8.735020638E0
3.254229380E1,3.765041828E0,-2.380694389E0,-8.736540794E0
3.256256275E1,3.766478300E0,-2.378893375E0,-8.736413002E0
3.258283171E1,3.768795013E0,-2.377850533E0,-8.735696793E0
3.260310067E1,3.771375418E0,-2.378728151E0,-8.734345436E0
3.262350067E1,3.772926331E0,-2.380800962E0,-8.733110428E0
3.264363859E1,3.773568153E0,-2.383825779E0,-8.732007027E0
3.266390760E1,3.773272276E0,-2.385921717E0,-8.731561661E0
3.268417661E1,3.772396088E0,-2.386749744E0,-8.731714249E0
3.270444557E1,3.770314693E0,-2.386529922E0,-8.732673645E0
3.272484557E1,3.768780231E0,-2.385539770E0,-8.733606339E0
3.274498353E1,3.767984867E0,-2.383224487E0,-8.734581947E0
3.276525249E1,3.767486811E0,-2.380832672E0,-8.735449791E0
3.278552145E1,3.768512726E0,-2.379184484E0,-8.735454559E0
3.280579046E1,3.770548582E0,-2.378580570E0,-8.734742165E0
3.282605942E1,3.772640228E0,-2.378931761E0,-8.733741760E0
3.284632838E1,3.774168253E0,-2.380102634E0,-8.732762337E0
3.286659739E1,3.775224447E0,-2.381980181E0,-8.731794357E0
3.288686635E1,3.775838852E0,-2.383890867E0,-8.731007576E0
3.290713536E1,3.774852753E0,-2.385077000E0,-8.731110573E0
3.292740432E1,3.773644924E0,-2.384700298E0,-8.731735229E0
3.294767327E1,3.772475243E0,-2.384787321E0,-8.732215881E0
3.296794228E1,3.772193193E0,-2.384703159E0,-8.732361794E0
3.298821124E1,3.772073269E0,-2.385528088E0,-8.732188225E0
3.300848020E1,3.772215366E0,-2.385471106E0,-8.732142448E0
3.302874921E1,3.772602558E0,-2.384883881E0,-8.732134819E0
3.304901817E1,3.773059607E0,-2.384777784E0,-8.731966972E0
3.306928718E1,3.772573948E0,-2.383928061E0,-8.732408524E0
3.308955614E1,3.769674301E0,-2.382414341E0,-8.734073639E0
3.310982515E1,3.768309832E0,-2.380496502E0,-8.735185623E0
3.313009411E1,3.768100739E0,-2.378926516E0,-8.735703468E0
3.315036312E1,3.769852161E0,-2.378011465E0,-8.735197067E0
3.317063208E1,3.772424698E0,-2.377906322E0,-8.734114647E0
3.319090103E1,3.773324490E0,-2.378727198E0,-8.733503342E0
3.321117004E1,3.772317410E0,-2.379867554E0,-8.733627319E0
3.323143900E1,3.770501375E0,-2.380765915E0,-8.734166145E0
3.325170801E1,3.769165754E0,-2.381550789E0,-8.734529495E0
3.327197697E1,3.768824577E0,-2.381592274E0,-8.734665871E0
3.329224598E1,3.768809080E0,-2.380985260E0,-8.734837532E0
3.331251494E1,3.769523382E0,-2.380748987E0,-8.734592438E0
3.333278395E1,3.770764828E0,-2.381385326E0,-8.733883858E0
3.335305291E1,3.771823406E0,-2.382793188E0,-8.733042717E0
3.337332192E1,3.772732735E0,-2.383844137E0,-8.732362747E0
3.339359083E1,3.773823023E0,-2.384951830E0,-8.731589317E0
3.341385989E1,3.774646759E0,-2.385250092E0,-8.731152534E0
3.343412885E1,3.774682283E0,-2.385979176E0,-8.730937004E0
3.345439786E1,3.775111198E0,-2.386579990E0,-8.730587006E0
3.347466682E1,3.775830030E0,-2.388135672E0,-8.729850769E0
3.349493583E1,3.777259588E0,-2.390736580E0,-8.728521347E0
3.351520478E1,3.779180527E0,-2.393394947E0,-8.726961136E0
3.353547380E1,3.781469822E0,-2.396161795E0,-8.725209236E0
3.355574275E1,3.783610344E0,-2.399697065E0,-8.723311424E0
3.357601171E1,3.785893679E0,-2.403462648E0,-8.721282005E0
3.359628072E1,3.788651943E0,-2.407430410E0,-8.718989372E0
3.361654968E1,3.791765928E0,-2.411393404E0,-8.716541290E0
3.363681869E1,3.794814825E0,-2.415619850E0,-8.714042664E0
3.365708765E1,3.797101498E0,-2.419409513E0,-8.711996078E0
3.367735666E1,3.798851728E0,-2.421621799E0,-8.710617065E0
3.372300098E1,3.804150343E0,-2.424475193E0,-8.707510948E0
3.374316437E1,3.805662155E0,-2.425921202E0,-8.706447601E0
3.376341333E1,3.806958914E0,-2.428791285E0,-8.705080032E0
3.378370218E1,3.809101582E0,-2.432617664E0,-8.703074455E0
3.380397062E1,3.811612129E0,-2.436652660E0,-8.700846672E0
3.382423952E1,3.813723087E0,-2.440291643E0,-8.698900223E0
3.384450848E1,3.815603733E0,-2.442946911E0,-8.697330475E0
3.386477744E1,3.818514109E0,-2.446388483E0,-8.695086479E0
3.388504645E1,3.821280479E0,-2.449630022E0,-8.692957878E0
3.390531541E1,3.824632883E0,-2.452991009E0,-8.690536499E0
3.392558437E1,3.828534842E0,-2.456757545E0,-8.687752724E0
3.394585338E1,3.832151413E0,-2.460172892E0,-8.685191154E0
3.396612234E1,3.834240198E0,-2.463204145E0,-8.683411598E0
3.398652234E1,3.834927320E0,-2.466272354E0,-8.682235718E0
3.400666031E1,3.835323811E0,-2.469245434E0,-8.681215286E0
3.402706030E1,3.836878538E0,-2.471912384E0,-8.679769516E0
3.404719827E1,3.839153767E0,-2.475542307E0,-8.677728653E0
3.406746723E1,3.842502356E0,-2.479294300E0,-8.675174713E0
3.408773619E1,3.846266747E0,-2.483160257E0,-8.672400475E0
3.410800515E1,3.849761963E0,-2.487727880E0,-8.669540405E0
3.412840515E1,3.853136539E0,-2.492333651E0,-8.666717529E0
3.414854312E1,3.856240034E0,-2.496932745E0,-8.664013863E0
3.416881208E1,3.858825684E0,-2.501831532E0,-8.661448479E0
3.418908103E1,3.861110687E0,-2.506385088E0,-8.659112930E0
3.420934999E1,3.863436699E0,-2.509669542E0,-8.657123566E0
3.422974999E1,3.865470171E0,-2.511500835E0,-8.655685425E0
3.424988796E1,3.868087053E0,-2.513858795E0,-8.653832436E0
3.427015692E1,3.870649099E0,-2.515744686E0,-8.652137756E0
3.429042588E1,3.872418642E0,-2.516954422E0,-8.650994301E0
3.431069489E1,3.874886274E0,-2.517591476E0,-8.649703979E0
3.433109489E1,3.877366304E0,-2.518233538E0,-8.648405075E0
3.435123280E1,3.879651785E0,-2.519296408E0,-8.647070885E0
3.437150176E1,3.882254124E0,-2.521803617E0,-8.645172119E0
3.439177077E1,3.884734631E0,-2.525805950E0,-8.642889023E0
3.441203973E1,3.886367798E0,-2.529340982E0,-8.641120911E0
3.443230869E1,3.887379408E0,-2.532217264E0,-8.639822960E0
3.445257765E1,3.888693810E0,-2.534191132E0,-8.638652802E0
3.447284661E1,3.889708996E0,-2.535524368E0,-8.637804031E0
3.449311557E1,3.890342951E0,-2.536804438E0,-8.637143135E0
3.451338452E1,3.890736103E0,-2.537334919E0,-8.636810303E0
3.453365348E1,3.889446020E0,-2.537503719E0,-8.637342453E0
3.455392244E1,3.887021065E0,-2.537358046E0,-8.638476372E0
3.457419145E1,3.884672642E0,-2.536264181E0,-8.639853477E0
3.459446041E1,3.883069754E0,-2.534799099E0,-8.641003609E0
3.461472937E1,3.882303715E0,-2.532886505E0,-8.641908646E0
3.463499833E1,3.882141590E0,-2.530976772E0,-8.642541885E0
3.465526728E1,3.882607460E0,-2.530220985E0,-8.642553329E0
3.467553624E1,3.883848906E0,-2.530470848E0,-8.641921997E0
3.469580520E1,3.885627031E0,-2.531417847E0,-8.640846252E0
3.471607416E1,3.887392044E0,-2.532074928E0,-8.639860153E0
3.473634312E1,3.888688803E0,-2.533025265E0,-8.638996124E0
3.475661208E1,3.890193701E0,-2.535338879E0,-8.637639999E0
3.477688103E1,3.893146276E0,-2.538387060E0,-8.635415077E0
3.479714999E1,3.896281481E0,-2.541985273E0,-8.632942200E0
3.481741895E1,3.898444891E0,-2.545409203E0,-8.630956650E0
3.483768791E1,3.900622368E0,-2.549538851E0,-8.628753662E0
3.485795687E1,3.901774883E0,-2.552853346E0,-8.627251625E0
3.487822583E1,3.902555227E0,-2.554617405E0,-8.626377106E0
3.489849478E1,3.904834032E0,-2.556493282E0,-8.624790192E0
3.491876374E1,3.907223463E0,-2.558237791E0,-8.623190880E0
3.493903270E1,3.909211874E0,-2.560411692E0,-8.621644020E0
3.495930166E1,3.910773754E0,-2.563049316E0,-8.620150566E0
3.497957062E1,3.910085678E0,-2.564660549E0,-8.619983673E0
3.499983958E1,3.907364607E0,-2.564364195E0,-8.621307373E0
3.502010848E1,3.905065775E0,-2.563773870E0,-8.622524261E0
3.504037744E1,3.903371334E0,-2.563026905E0,-8.623512268E0
3.506064640E1,3.902369022E0,-2.561809778E0,-8.624327660E0
3.508091536E1,3.901133060E0,-2.560066223E0,-8.625404358E0
3.510118432E1,3.899476528E0,-2.557126284E0,-8.627026558E0
3.512145322E1,3.897028685E0,-2.553599358E0,-8.629176140E0
3.514172218E1,3.893483877E0,-2.550060987E0,-8.631821632E0
3.516199114E1,3.890222311E0,-2.546822548E0,-8.634248734E0
3.518226010E1,3.887203217E0,-2.543768167E0,-8.636507988E0
3.520252906E1,3.885346651E0,-2.540285826E0,-8.638369560E0
3.522279796E1,3.883301973E0,-2.536531210E0,-8.640391350E0
3.524306692E1,3.880199432E0,-2.533477068E0,-8.642681122E0
3.526333588E1,3.875909090E0,-2.530591965E0,-8.645450592E0
3.528360478E1,3.870496511E0,-2.527139902E0,-8.648885727E0
3.530387374E1,3.865086555E0,-2.521979332E0,-8.652809143E0
3.532414270E1,3.861190796E0,-2.514657736E0,-8.656678200E0
3.534441161E1,3.858772516E0,-2.507404327E0,-8.659860611E0
3.536468057E1,3.858642101E0,-2.500720263E0,-8.661851883E0
3.538494952E1,3.860063314E0,-2.495509863E0,-8.662720680E0
3.540521843E1,3.862260818E0,-2.491911650E0,-8.662777901E0
3.542548739E1,3.864011049E0,-2.490343571E0,-8.662447929E0
3.544575635E1,3.862986565E0,-2.488568068E0,-8.663414955E0
3.546602525E1,3.858844995E0,-2.485038996E0,-8.666272163E0
3.548629421E1,3.855587721E0,-2.482483625E0,-8.668454170E0
3.550656312E1,3.854191780E0,-2.481630325E0,-8.669320107E0
3.552696312E1,3.854942560E0,-2.481840372E0,-8.668926239E0
3.554710103E1,3.858207941E0,-2.482855797E0,-8.667181969E0
3.556736994E1,3.860846043E0,-2.485051870E0,-8.665377617E0
3.558763890E1,3.862116575E0,-2.487130404E0,-8.664214134E0
3.560790780E1,3.862184048E0,-2.488166094E0,-8.663887978E0
3.562830781E1,3.860985041E0,-2.487721443E0,-8.664549828E0
3.564844567E1,3.859464884E0,-2.485521078E0,-8.665858269E0
3.566871463E1,3.857816696E0,-2.483249903E0,-8.667243958E0
3.568898353E1,3.857089996E0,-2.482041359E0,-8.667912483E0
3.570925249E1,3.857586145E0,-2.480894327E0,-8.668021202E0
3.572965249E1,3.858457565E0,-2.480816126E0,-8.667654991E0
3.574979031E1,3.859365225E0,-2.481823444E0,-8.666962624E0
3.577005926E1,3.859200001E0,-2.482826948E0,-8.666748047E0
3.579028885E1,3.859328985E0,-2.483856201E0,-8.666397095E0
3.581059708E1,3.860146046E0,-2.484000683E0,-8.665991783E0
3.583086598E1,3.860343456E0,-2.483141184E0,-8.666149139E0
3.585113494E1,3.861275434E0,-2.482237101E0,-8.665993690E0
3.587140385E1,3.862269163E0,-2.482394457E0,-8.665504456E0
3.589167286E1,3.862795830E0,-2.482412338E0,-8.665266037E0
3.591194176E1,3.862886906E0,-2.482484818E0,-8.665205002E0
3.593234176E1,3.863627911E0,-2.482951403E0,-8.664739609E0
3.595247963E1,3.864315510E0,-2.482744932E0,-8.664491653E0
3.597274853E1,3.864919901E0,-2.482280970E0,-8.664355278E0
3.599301749E1,3.864347219E0,-2.481607199E0,-8.664804459E0
3.601328640E1,3.863229990E0,-2.482353449E0,-8.665088654E0
3.603355530E1,3.860358953E0,-2.483027697E0,-8.666175842E0
3.605382426E1,3.857162237E0,-2.482627153E0,-8.667712212E0
3.607409317E1,3.856678963E0,-2.480503559E0,-8.668535233E0
3.609436208E1,3.857957602E0,-2.478978157E0,-8.668403625E0
3.611463103E1,3.859098911E0,-2.478626966E0,-8.667996407E0
3.613489994E1,3.858361483E0,-2.478137970E0,-8.668464661E0
3.615516885E1,3.855819702E0,-2.477142572E0,-8.669878960E0
3.617543780E1,3.854613543E0,-2.476990938E0,-8.670458794E0
3.619570671E1,3.855933189E0,-2.477896452E0,-8.669613838E0
3.621597562E1,3.857157707E0,-2.477969646E0,-8.669048309E0
3.623624452E1,3.857138395E0,-2.475794077E0,-8.669678688E0
3.625651348E1,3.857263327E0,-2.474457264E0,-8.670003891E0
3.627678239E1,3.857486010E0,-2.474689484E0,-8.669837952E0
3.629705130E1,3.857146263E0,-2.475092649E0,-8.669874191E0
3.631732020E1,3.857294321E0,-2.475046396E0,-8.669821739E0
3.633758916E1,3.857818127E0,-2.474969387E0,-8.669610977E0
3.635785807E1,3.857839108E0,-2.474478722E0,-8.669742584E0
3.637812697E1,3.857292414E0,-2.473310947E0,-8.670318604E0
3.639839588E1,3.855852842E0,-2.471944094E0,-8.671347618E0
3.641866478E1,3.854917765E0,-2.470557451E0,-8.672159195E0
3.643893369E1,3.855342150E0,-2.470043182E0,-8.672116280E0
3.645920260E1,3.856131554E0,-2.470498323E0,-8.671635628E0
3.647947156E1,3.856604099E0,-2.470687628E0,-8.671372414E0
3.649987156E1,3.856597662E0,-2.470504284E0,-8.671427727E0
3.652000937E1,3.855755806E0,-2.470833302E0,-8.671707153E0
3.654027827E1,3.855437756E0,-2.470578432E0,-8.671922684E0
3.656054718E1,3.856028557E0,-2.471254110E0,-8.671466827E0
3.658081609E1,3.857182026E0,-2.472145796E0,-8.670700073E0
3.660108499E1,3.858029127E0,-2.473160028E0,-8.670033455E0
3.662135390E1,3.856714249E0,-2.473896027E0,-8.670408249E0
3.664162281E1,3.853456736E0,-2.472150326E0,-8.672354698E0
3.666189171E1,3.851094723E0,-2.468487024E0,-8.674447060E0
3.668216062E1,3.851053476E0,-2.465229511E0,-8.675391197E0
3.670242952E1,3.851865292E0,-2.463706732E0,-8.675463676E0
3.672269843E1,3.852126837E0,-2.462366104E0,-8.675728798E0
3.674296734E1,3.851476192E0,-2.461253405E0,-8.676332474E0
3.676323624E1,3.850614786E0,-2.461858034E0,-8.676543236E0
3.678350515E1,3.849426031E0,-2.463476658E0,-8.676610947E0
3.680377400E1,3.848138332E0,-2.464596748E0,-8.676864624E0
3.682404296E1,3.847378254E0,-2.463880301E0,-8.677404404E0
3.684431182E1,3.846819401E0,-2.463337660E0,-8.677806854E0
3.686458072E1,3.845752954E0,-2.462682724E0,-8.678465843E0
3.688484963E1,3.843572617E0,-2.461940765E0,-8.679641724E0
3.690511853E1,3.841664076E0,-2.460828781E0,-8.680802345E0
3.692538744E1,3.841132402E0,-2.459738016E0,-8.681346893E0
3.694565635E1,3.841352224E0,-2.459180355E0,-8.681407928E0
3.696592520E1,3.841598511E0,-2.459905148E0,-8.681093216E0
3.698619411E1,3.841509581E0,-2.460865736E0,-8.680860519E0
3.700646301E1,3.841601372E0,-2.461575985E0,-8.680617332E0
3.702686301E1,3.842061758E0,-2.461920500E0,-8.680316925E0
3.704700077E1,3.842320204E0,-2.462095022E0,-8.680152893E0
3.706726968E1,3.841641188E0,-2.462024927E0,-8.680472374E0
3.708753859E1,3.839679718E0,-2.461081266E0,-8.681608200E0
3.710780744E1,3.836920023E0,-2.459507942E0,-8.683274269E0
3.712820744E1,3.834081888E0,-2.456204414E0,-8.685462952E0
3.714834525E1,3.832831383E0,-2.452529192E0,-8.687052727E0
3.716874525E1,3.833075285E0,-2.449379921E0,-8.687833786E0
3.718888301E1,3.833533287E0,-2.446521759E0,-8.688437462E0
3.720915192E1,3.832390547E0,-2.444362640E0,-8.689548492E0
3.722955192E1,3.830273628E0,-2.441644430E0,-8.691246033E0
3.724968968E1,3.827135801E0,-2.437411547E0,-8.693816185E0
3.726995853E1,3.824495316E0,-2.432311773E0,-8.696406364E0
3.729022744E1,3.823506117E0,-2.428752661E0,-8.697835922E0
3.731049630E1,3.823727131E0,-2.426469088E0,-8.698376656E0
3.733089630E1,3.823620081E0,-2.424865484E0,-8.698870659E0
3.735103411E1,3.822880983E0,-2.423988819E0,-8.699439049E0
3.737130301E1,3.821532249E0,-2.423983574E0,-8.700033188E0
3.739157187E1,3.819404125E0,-2.424251318E0,-8.700892448E0
3.741184072E1,3.817324877E0,-2.422939301E0,-8.702171326E0
3.743210963E1,3.815429449E0,-2.420824766E0,-8.703590393E0
3.745237848E1,3.814553499E0,-2.417952776E0,-8.704772949E0
3.747264739E1,3.815173864E0,-2.416542530E0,-8.704893112E0
3.749291630E1,3.816232681E0,-2.416134834E0,-8.704542160E0
3.751318515E1,3.815862417E0,-2.416168451E0,-8.704694748E0
3.753345400E1,3.815212727E0,-2.415754557E0,-8.705094337E0
3.755372291E1,3.815394878E0,-2.414753675E0,-8.705292702E0
3.757399176E1,3.815262318E0,-2.413266182E0,-8.705761909E0
3.759426067E1,3.814858913E0,-2.411535263E0,-8.706418991E0
3.761452952E1,3.813757896E0,-2.410398483E0,-8.707217216E0
3.763479843E1,3.812698603E0,-2.410405636E0,-8.707678795E0
3.765506728E1,3.811887264E0,-2.410185814E0,-8.708094597E0
3.767533614E1,3.811764717E0,-2.409338951E0,-8.708382607E0
3.769560504E1,3.812994957E0,-2.408900976E0,-8.707964897E0
3.771587390E1,3.813848495E0,-2.409571409E0,-8.707405090E0
3.773614275E1,3.814314842E0,-2.410822630E0,-8.706854820E0
3.775641166E1,3.814271927E0,-2.411545992E0,-8.706672668E0
3.777668051E1,3.814413071E0,-2.411737204E0,-8.706558228E0
3.779694942E1,3.815529108E0,-2.411914349E0,-8.706020355E0
3.781721827E1,3.815345764E0,-2.411978245E0,-8.706084251E0
3.783748713E1,3.812697172E0,-2.410875797E0,-8.707549095E0
3.785775603E1,3.809798241E0,-2.408562660E0,-8.709457397E0
3.787802489E1,3.808600664E0,-2.405182123E0,-8.710914612E0
3.789829374E1,3.809117556E0,-2.402469397E0,-8.711438179E0
3.791856265E1,3.810218096E0,-2.401478767E0,-8.711229324E0
3.793883150E1,3.810228348E0,-2.401428223E0,-8.711238861E0
3.795910036E1,3.809332609E0,-2.402300835E0,-8.711390495E0
3.797936921E1,3.807327271E0,-2.403954506E0,-8.711810112E0
3.799963812E1,3.805743694E0,-2.404857874E0,-8.712253571E0
3.801990697E1,3.805577040E0,-2.404924631E0,-8.712307930E0
3.804017583E1,3.806452513E0,-2.404443264E0,-8.712058067E0
3.806057583E1,3.807490110E0,-2.404197693E0,-8.711672783E0
3.808071353E1,3.808103085E0,-2.404485703E0,-8.711325645E0
3.810111353E1,3.807851553E0,-2.405444622E0,-8.711171150E0
3.812125130E1,3.807474852E0,-2.405424118E0,-8.711340904E0
3.814152015E1,3.806548357E0,-2.404837847E0,-8.711908340E0
3.816178900E1,3.805436850E0,-2.404378176E0,-8.712519646E0
3.818205786E1,3.805029869E0,-2.404223919E0,-8.712740898E0
3.820232676E1,3.805769920E0,-2.404927731E0,-8.712223053E0
3.822259562E1,3.807787418E0,-2.406816006E0,-8.710819244E0
3.824286447E1,3.810338020E0,-2.409020424E0,-8.709095955E0
3.826313333E1,3.811845064E0,-2.411733389E0,-8.707684517E0
3.828340218E1,3.812978268E0,-2.414352179E0,-8.706461906E0
3.830367103E1,3.813913345E0,-2.417075634E0,-8.705296516E0
3.832393989E1,3.815080404E0,-2.420141935E0,-8.703934669E0
3.834420874E1,3.816882133E0,-2.423501730E0,-8.702208519E0
3.836447765E1,3.819202423E0,-2.427042246E0,-8.700202942E0
3.838474645E1,3.822038889E0,-2.430404425E0,-8.698019028E0
3.840501530E1,3.824610233E0,-2.433904886E0,-8.695910454E0
3.842528421E1,3.825868368E0,-2.436852217E0,-8.694530487E0
3.844555307E1,3.825647116E0,-2.438207388E0,-8.694248199E0
3.846582192E1,3.826102972E0,-2.439348221E0,-8.693727493E0
3.848609077E1,3.827439785E0,-2.440374851E0,-8.692852020E0
3.850635963E1,3.827999592E0,-2.441900015E0,-8.692175865E0
3.852675963E1,3.828985691E0,-2.444597960E0,-8.690983772E0
3.854689734E1,3.829610825E0,-2.448238611E0,-8.689682961E0
3.856716619E1,3.830460548E0,-2.452660561E0,-8.688060760E0
3.858743504E1,3.832422733E0,-2.456604481E0,-8.686080933E0
3.860770390E1,3.835164547E0,-2.460116148E0,-8.683876991E0
3.862810390E1,3.837987423E0,-2.463276625E0,-8.681734085E0
3.864824161E1,3.840725183E0,-2.466924667E0,-8.679487228E0
3.866851046E1,3.842888355E0,-2.471838951E0,-8.677130699E0
3.868877932E1,3.844784498E0,-2.476073027E0,-8.675084114E0
3.870904817E1,3.845833778E0,-2.479683399E0,-8.673587799E0
3.872944817E1,3.846920490E0,-2.482064962E0,-8.672424316E0
3.874958588E1,3.847933531E0,-2.484239578E0,-8.671352386E0
3.876985473E1,3.848911285E0,-2.486282349E0,-8.670332909E0
3.879012359E1,3.850678921E0,-2.488962412E0,-8.668779373E0
3.881039244E1,3.852938890E0,-2.492555141E0,-8.666741371E0
3.883066130E1,3.855933428E0,-2.496062517E0,-8.664400101E0
3.885093015E1,3.859154940E0,-2.499652147E0,-8.661930084E0
3.887119895E1,3.862278938E0,-2.503517866E0,-8.659420967E0
3.889146786E1,3.865092993E0,-2.507612228E0,-8.656981468E0
3.891173671E1,3.866853476E0,-2.511404514E0,-8.655096054E0
3.893213671E1,3.869387627E0,-2.515370131E0,-8.652811050E0
3.895227442E1,3.871498108E0,-2.519072771E0,-8.650789261E0
3.897254327E1,3.873229742E0,-2.522268534E0,-8.649083138E0
3.899281213E1,3.875810385E0,-2.525802374E0,-8.646896362E0
3.901308093E1,3.876982212E0,-2.528743982E0,-8.645510674E0
3.903334984E1,3.877857685E0,-2.530043840E0,-8.644737244E0
3.905361869E1,3.879941940E0,-2.530612707E0,-8.643635750E0
3.907388749E1,3.881025553E0,-2.531172037E0,-8.642986298E0
3.909415635E1,3.882180929E0,-2.532392740E0,-8.642108917E0
3.911442520E1,3.884070158E0,-2.534896612E0,-8.640525818E0
3.913469406E1,3.885815620E0,-2.538397551E0,-8.638713837E0
3.915496291E1,3.887320995E0,-2.541224718E0,-8.637205124E0
3.917523176E1,3.888200045E0,-2.543216705E0,-8.636221886E0
3.919550062E1,3.889081240E0,-2.544517756E0,-8.635442734E0
3.921576942E1,3.888514519E0,-2.545259237E0,-8.635478973E0
3.923603827E1,3.886762142E0,-2.545198202E0,-8.636285782E0
3.925630713E1,3.882771969E0,-2.543427706E0,-8.638602257E0
3.927670713E1,3.876061440E0,-2.539948940E0,-8.642638206E0
3.929684484E1,3.867562056E0,-2.536129713E0,-8.647564888E0
3.931711369E1,3.860632420E0,-2.529330492E0,-8.652651787E0
3.933738249E1,3.855436802E0,-2.518085003E0,-8.658246994E0
3.935765135E1,3.850456476E0,-2.507241964E0,-8.663608551E0
3.937792020E1,3.844200850E0,-2.499952078E0,-8.668491364E0
3.939818906E1,3.836771488E0,-2.495734215E0,-8.672997475E0
3.941845791E1,3.831638575E0,-2.492385626E0,-8.676228523E0
3.943872676E1,3.830845118E0,-2.488735914E0,-8.677626610E0
3.945899562E1,3.831792593E0,-2.484585524E0,-8.678398132E0
3.947926442E1,3.832572699E0,-2.481974602E0,-8.678800583E0
3.949953327E1,3.833055973E0,-2.480941772E0,-8.678882599E0
3.951980213E1,3.833075523E0,-2.479615688E0,-8.679251671E0
3.954007098E1,3.834574461E0,-2.476269007E0,-8.679545403E0
3.956033978E1,3.840022802E0,-2.474337101E0,-8.677687645E0
3.958060864E1,3.847372532E0,-2.476616383E0,-8.673782349E0
3.960087749E1,3.851563215E0,-2.481688976E0,-8.670471191E0
3.962134963E1,3.850021601E0,-2.482517242E0,-8.670918465E0
3.965668385E1,3.859395027E0,-2.479990959E0,-8.667473793E0
3.967695353E1,3.868265152E0,-2.485632896E0,-8.661901474E0
3.969722182E1,3.872885704E0,-2.493113041E0,-8.657687187E0
3.971749062E1,3.870396376E0,-2.500506878E0,-8.656666756E0
3.973775937E1,3.861679792E0,-2.489049673E0,-8.663858414E0
3.975802822E1,3.857129097E0,-2.482266426E0,-8.667831421E0
3.977829708E1,3.857891560E0,-2.483187199E0,-8.667227745E0
3.979856593E1,3.862630606E0,-2.491776705E0,-8.662651062E0
3.981883478E1,3.869540453E0,-2.505384445E0,-8.655639648E0
3.983910359E1,3.874351740E0,-2.519175053E0,-8.649482727E0
3.985937244E1,3.876332045E0,-2.527884245E0,-8.646053314E0
3.987964130E1,3.874228001E0,-2.529110193E0,-8.646637917E0
3.989991010E1,3.868443489E0,-2.524634361E0,-8.650534630E0
3.992017895E1,3.859838724E0,-2.517709732E0,-8.656394005E0
3.994044781E1,3.852019310E0,-2.511953831E0,-8.661548615E0
3.996071661E1,3.846067429E0,-2.508700132E0,-8.665136337E0
3.998098546E1,3.843648911E0,-2.507604599E0,-8.666524887E0
4.000125432E1,3.843855858E0,-2.507941723E0,-8.666336060E0
4.002165432E1,3.843479156E0,-2.507988453E0,-8.666489601E0
4.004179197E1,3.840914249E0,-2.506308317E0,-8.668112755E0
4.006219197E1,3.836091042E0,-2.505095959E0,-8.670598984E0
4.008232963E1,3.831515312E0,-2.504147530E0,-8.672895432E0
4.010259848E1,3.826967955E0,-2.503464937E0,-8.675099373E0
4.012299848E1,3.823457003E0,-2.502976894E0,-8.676788330E0
4.014329406E1,3.821423292E0,-2.501545191E0,-8.678098679E0
4.016340557E1,3.819983482E0,-2.499057293E0,-8.679447174E0
4.018367432E1,3.817846060E0,-2.495565891E0,-8.681393623E0
4.020394301E1,3.815230608E0,-2.492019892E0,-8.683562279E0
4.022434301E1,3.812301636E0,-2.489234924E0,-8.685647011E0
4.024448062E1,3.809891224E0,-2.486786842E0,-8.687405586E0
4.026474937E1,3.808822393E0,-2.483690739E0,-8.688759804E0
4.028501812E1,3.809504986E0,-2.479275227E0,-8.689721107E0
4.030528692E1,3.811530828E0,-2.475754023E0,-8.689837456E0
4.032568692E1,3.813911200E0,-2.473561525E0,-8.689416885E0
4.034582458E1,3.813490868E0,-2.470533133E0,-8.690462112E0
4.036609333E1,3.811628342E0,-2.465426683E0,-8.692729950E0
4.038636218E1,3.808545351E0,-2.459179878E0,-8.695850372E0
4.040663098E1,3.806197643E0,-2.452895641E0,-8.698651314E0
4.042689984E1,3.805163622E0,-2.448386908E0,-8.700373650E0
4.044716864E1,3.805214882E0,-2.445889473E0,-8.701054573E0
4.046743749E1,3.806421757E0,-2.445513964E0,-8.700632095E0
4.048770630E1,3.808791399E0,-2.446355820E0,-8.699358940E0
4.050797510E1,3.815134764E0,-2.446915627E0,-8.696420670E0
4.052824390E1,3.825689316E0,-2.448424339E0,-8.691358566E0
4.054851275E1,3.838167429E0,-2.453003883E0,-8.684562683E0
4.056878156E1,3.847940207E0,-2.459962845E0,-8.678268433E0
4.058905041E1,3.852776527E0,-2.469940662E0,-8.673285484E0
4.060931921E1,3.854411125E0,-2.482252121E0,-8.669043541E0
4.062958801E1,3.854448557E0,-2.497273445E0,-8.664712906E0
4.064985687E1,3.854218483E0,-2.511839628E0,-8.660602570E0
4.067012567E1,3.854880571E0,-2.522943020E0,-8.657080650E0
4.069039452E1,3.857321262E0,-2.529247046E0,-8.654153824E0
4.071066333E1,3.862441540E0,-2.530949831E0,-8.651371002E0
4.073093213E1,3.864890575E0,-2.527862072E0,-8.651180267E0
4.075120098E1,3.857463598E0,-2.520424366E0,-8.656663895E0
4.077146978E1,3.843594313E0,-2.510492325E0,-8.665714264E0
4.079173864E1,3.833274126E0,-2.501959801E0,-8.672749519E0
4.081200744E1,3.833276749E0,-2.493776083E0,-8.675105095E0
4.083227624E1,3.840687752E0,-2.485528708E0,-8.674194336E0
4.085254504E1,3.850792170E0,-2.477251530E0,-8.672082901E0
4.087281390E1,3.865788698E0,-2.468853235E0,-8.667803764E0
4.089308270E1,3.887782097E0,-2.461359978E0,-8.660095215E0
4.091335156E1,3.912420511E0,-2.455403566E0,-8.650684357E0
4.093362036E1,3.933397770E0,-2.447016239E0,-8.643546104E0
4.095388916E1,3.944334507E0,-2.432400465E0,-8.642686844E0
4.097428916E1,3.941905499E0,-2.410621643E0,-8.649894714E0
4.099442682E1,3.918601036E0,-2.384847403E0,-8.667610168E0
4.101469562E1,3.872373104E0,-2.360117197E0,-8.695110321E0
4.103496442E1,3.817297459E0,-2.348202229E0,-8.722646713E0
4.105523327E1,3.775994062E0,-2.352171421E0,-8.739539146E0
4.107550208E1,3.760590792E0,-2.362833500E0,-8.743304253E0
4.109577088E1,3.762847900E0,-2.372579575E0,-8.739692688E0
4.111603968E1,3.769828081E0,-2.375687122E0,-8.735839844E0
4.113630848E1,3.773991823E0,-2.369442225E0,-8.735737801E0
4.115657734E1,3.774580002E0,-2.357577562E0,-8.738694191E0
4.117684614E1,3.779799700E0,-2.344700575E0,-8.739901543E0
4.119711489E1,3.790132523E0,-2.335743189E0,-8.737824440E0
4.121738374E1,3.803583622E0,-2.327953339E0,-8.734057426E0
4.123765254E1,3.836173534E0,-2.302640438E0,-8.726511955E0
4.125792135E1,3.893439770E0,-2.262124538E0,-8.711733818E0
4.127819020E1,3.951495886E0,-2.216372728E0,-8.697342873E0
4.129845900E1,3.974026918E0,-2.180105686E0,-8.696243286E0
4.131872780E1,3.924889565E0,-2.185778141E0,-8.717110634E0
4.133899661E1,3.843445063E0,-2.223399401E0,-8.743844032E0
4.135926541E1,3.812400341E0,-2.260400772E0,-8.747946739E0
4.137953421E1,3.832052946E0,-2.275418282E0,-8.735458374E0
4.139980307E1,3.866785526E0,-2.280346870E0,-8.718851089E0
4.142007187E1,3.898016453E0,-2.284426928E0,-8.703864098E0
4.144034067E1,3.923091888E0,-2.288235903E0,-8.691589355E0
4.146060947E1,3.936683416E0,-2.290741682E0,-8.684780121E0
4.148087827E1,3.947810173E0,-2.288267136E0,-8.680380821E0
4.150114708E1,3.961282492E0,-2.282119036E0,-8.675861359E0
4.152154708E1,3.980058432E0,-2.271273613E0,-8.670111656E0
4.154168463E1,3.997902155E0,-2.258724928E0,-8.665178299E0
4.156195348E1,4.006879807E0,-2.247896671E0,-8.663847923E0
4.158222228E1,4.011168003E0,-2.239481211E0,-8.664042473E0
4.160249109E1,4.013869286E0,-2.232790232E0,-8.664519310E0
4.162289109E1,4.013730526E0,-2.227942705E0,-8.665831566E0
4.164302869E1,4.008702755E0,-2.225110054E0,-8.668886185E0
4.166329749E1,3.997094870E0,-2.222891092E0,-8.674812317E0
4.168356630E1,3.980707407E0,-2.222558737E0,-8.682430267E0
4.170383510E1,3.961987734E0,-2.225001574E0,-8.690362930E0
4.172423510E1,3.940655231E0,-2.229943991E0,-8.698792458E0
4.174437270E1,3.918184042E0,-2.234941721E0,-8.707654953E0
4.176464150E1,3.900571108E0,-2.238875151E0,-8.714550018E0
4.178491031E1,3.890431166E0,-2.242222071E0,-8.718221664E0
4.180517906E1,3.886987925E0,-2.246789455E0,-8.718581200E0
4.182544786E1,3.887229443E0,-2.253585815E0,-8.716718674E0
4.184571666E1,3.887612343E0,-2.261533022E0,-8.714489937E0
4.186598546E1,3.885294199E0,-2.269017935E0,-8.713578224E0
4.188625426E1,3.881251574E0,-2.273857117E0,-8.714118004E0
4.190652307E1,3.877795696E0,-2.276100159E0,-8.715070724E0
4.192675254E1,3.875672102E0,-2.276983976E0,-8.715784073E0
4.194706062E1,3.876844406E0,-2.278529644E0,-8.714859009E0
4.196732942E1,3.880596638E0,-2.280497551E0,-8.712673187E0
4.198759822E1,3.882369995E0,-2.282525301E0,-8.711352348E0
4.200786702E1,3.880920887E0,-2.284723997E0,-8.711421967E0
