"Time (s)","Gyroscope x (rad/s)","Gyroscope y (rad/s)","Gyroscope z (rad/s)"
6.077308900E-2,-2.170474678E-1,-3.709780574E-1,1.478053331E-1
8.104308900E-2,-3.182475269E-1,-4.412854612E-1,1.824263930E-1
1.013130370E-1,-4.732433856E-1,-3.651190996E-1,1.872200817E-1
1.215830370E-1,-5.551354885E-1,-4.029359818E-1,1.376853287E-1
1.416956410E-1,-6.206492186E-1,-5.424855351E-1,5.725792050E-2
1.619654320E-1,-7.452850938E-1,-6.617950201E-1,1.424790081E-2
1.822352240E-1,-8.161250949E-1,-7.703187466E-1,-1.451421715E-2
2.025051200E-1,-9.088030457E-1,-9.386304021E-1,-7.097318769E-2
2.229051200E-1,-1.063798904E0,-1.050483108E0,-1.247690022E-1
2.430449120E-1,-1.099884748E0,-9.998830557E-1,-1.636511236E-1
2.633148070E-1,-1.067527294E0,-7.724493146E-1,-1.503353268E-1
2.835847550E-1,-9.237167239E-1,-6.388918757E-1,-5.925529078E-2
3.038546510E-1,-6.552702785E-1,-6.479465961E-1,1.464737463E-3
3.242546510E-1,-4.034686089E-1,-7.889608741E-1,-1.731053460E-3
3.443945990E-1,-4.849612713E-1,-1.055809379E0,-5.073318258E-2
3.646644950E-1,-8.656598926E-1,-1.174586296E0,-1.412805915E-1
3.849344950E-1,-1.328916430E0,-1.259274840E0,-2.318280041E-1
4.052044950E-1,-1.815076113E0,-1.568068027E0,-3.623228073E-1
4.254744430E-1,-2.342248440E0,-1.939711928E0,-3.213101327E-1
4.457443910E-1,-2.733067036E0,-2.099501371E0,-4.380896688E-2
4.660143910E-1,-2.790058613E0,-2.223604679E0,1.989379823E-1
4.862843910E-1,-2.409359932E0,-2.006823540E0,5.233107805E-1
5.065543390E-1,-2.009486675E0,-1.413604856E0,6.755102873E-1
5.269543390E-1,-1.945038199E0,-1.073918939E0,4.679170549E-1
5.470943390E-1,-1.851827741E0,-6.825676560E-1,4.327633679E-1
5.673643390E-1,-1.673395991E0,-5.078644156E-1,6.648576856E-1
5.876342350E-1,-1.541436434E0,-2.378201038E-1,1.308143735E0
6.079042350E-1,-1.382179618E0,-5.046686530E-2,2.218145132E0
6.281742350E-1,-1.180312157E0,-7.486140132E-1,3.036134481E0
6.484442350E-1,-9.583377838E-1,-1.980724573E0,3.652789116E0
6.687142350E-1,-7.165229321E-1,-2.505766392E0,3.949331760E0
6.889841820E-1,-2.037316710E-1,-2.712960243E0,3.928026438E0
7.092541820E-1,1.029044628E0,-3.755054235E0,3.585677385E0
7.295241820E-1,2.500839472E0,-4.248138428E0,2.787928104E0
7.497941820E-1,2.998717070E0,-4.679969311E0,1.196291089E0
7.700641300E-1,2.781935930E0,-3.985683918E0,-2.996053919E-2
7.903341300E-1,1.215332627E0,-2.076065779E0,8.548741043E-2
8.106041300E-1,-3.273022473E-1,-1.157542109E0,5.233107805E-1
8.308741300E-1,-1.469531178E0,-5.350286365E-1,8.752472401E-1
8.511440780E-1,-2.005225658E0,-5.691171288E-1,1.003611565E0
8.714140780E-1,-2.113349915E0,-3.896201849E-1,1.285240531E0
8.916840780E-1,-2.069674015E0,-2.049300969E-1,1.844903469E0
9.119540780E-1,-1.927994013E0,-2.948117256E-1,2.304964304E0
9.322240780E-1,-1.461009026E0,-3.107906580E-1,1.916276097E0
9.524940260E-1,-8.715187907E-1,-2.203764170E-1,1.004676819E0
9.727640260E-1,-5.318328738E-1,-1.729721874E-1,3.081275225E-1
9.930340260E-1,-3.107906580E-1,-9.258472323E-1,1.419463754E-1
1.013304026E0,1.877527125E-2,-1.884318233E0,3.145190775E-1
1.033573974E0,3.884217441E-1,-1.650626063E0,4.370244145E-1
1.053843974E0,6.466150284E-1,-4.807002246E-1,4.375570416E-1
1.074113974E0,8.522109389E-1,1.418132186E-1,6.941524148E-1
1.094383974E0,8.735162020E-1,6.298371404E-2,1.088832617E0
1.114653974E0,5.752423406E-1,-8.811061978E-1,6.808366179E-1
1.134923922E0,5.938844681E-1,-1.982855082E0,-5.363602638E-1
1.155193922E0,1.083772540E0,-2.907370806E0,-1.012000442E0
1.175463922E0,1.391101122E0,-3.353050470E0,-1.131709456E0
1.195733870E0,9.113330245E-1,-3.599525928E0,-1.099218965E0
1.216003870E0,3.079943359E-1,-4.150134087E0,-1.342631698E0
1.236273870E0,4.113249183E-1,-4.394611835E0,-1.600824952E0
1.256543818E0,5.709813237E-1,-4.290215969E0,-1.736646056E0
1.276813818E0,4.917523265E-1,-3.908452272E0,-1.839976668E0
1.297083818E0,4.166512489E-1,-3.455315828E0,-1.669001818E0
1.317483818E0,2.669816911E-1,-3.308841944E0,-1.251551628E0
1.337623766E0,-1.518000662E-2,-2.965294600E0,-5.518065691E-1
1.357893766E0,-4.103928208E-1,-2.442383289E0,-2.382195890E-1
1.378163714E0,-4.119907022E-1,-2.572345495E0,-4.555333555E-1
1.398433714E0,-2.239716798E-1,-3.008437634E0,-7.014760971E-1
1.418703714E0,-8.069372177E-2,-3.426553726E0,-7.893603444E-1
1.438973714E0,5.925529078E-2,-4.069706440E0,-7.547392845E-1
1.459243662E0,3.580617309E-1,-4.430298328E0,-6.801708341E-1
1.479513662E0,4.688491523E-1,-4.108588696E0,-5.896234512E-1
1.499783610E0,1.215732098E-1,-3.816839695E0,-6.354297400E-1
1.520053610E0,5.819002539E-2,-3.461574316E0,-6.423539519E-1
1.540402307E0,1.583248079E-1,-2.788594007E0,-5.789707899E-1
1.560593714E0,1.556616426E-1,-1.807219744E0,-4.629902244E-1
1.580863662E0,1.984053478E-2,-1.629853368E0,-3.873564899E-1
1.601133662E0,-6.258423906E-3,-1.658082843E0,-2.914827764E-1
1.621533662E0,5.446160212E-2,-1.515870214E0,-2.829606533E-1
1.641673557E0,6.937529147E-2,-1.736379743E0,-3.564638495E-1
1.661943557E0,4.913528636E-2,-1.880057216E0,-4.123901725E-1
1.682213557E0,2.996053919E-2,-1.835449219E0,-1.737711281E-1
1.702483505E0,9.068056941E-2,-1.065396786E0,7.323687430E-3
1.722883505E0,7.576687634E-2,-3.182475269E-1,7.430213690E-2
1.743023505E0,3.569964767E-1,-4.636560082E-1,3.938812315E-1
1.763293453E0,6.455497742E-1,-3.475422561E-1,8.182556629E-1
1.783563453E0,4.965460002E-1,1.482048035E-1,8.731167316E-1
1.803833453E0,2.515353858E-1,1.668469161E-1,4.189149141E-1
1.824233453E0,2.131858915E-1,-2.049300969E-1,4.370244145E-1
1.844373401E0,1.077247858E-1,-4.785696864E-1,7.095987201E-1
1.864643401E0,3.328948980E-3,-2.846917212E-1,9.396957159E-1
1.884913401E0,1.434111148E-1,-5.302349925E-1,1.051015735E0
1.905183401E0,-2.383527458E-1,-2.091911435E-1,1.234640598E0
1.925583401E0,-4.045338631E-1,4.042675495E-1,1.431714296E0
1.945723401E0,5.605949834E-2,4.958802164E-1,1.376853228E0
1.965993401E0,4.006722867E-1,3.360906839E-1,1.337971091E0
1.986263401E0,3.149185777E-1,2.611227632E-1,1.267663717E0
2.006533401E0,-9.507478029E-2,1.817606091E-1,1.160604715E0
2.026803401E0,-8.175898343E-2,7.052045465E-1,1.088299990E0
2.047073401E0,2.845585644E-1,8.404930234E-1,1.017992616E0
2.067343401E0,6.881603003E-1,6.679202914E-1,9.253146052E-1
2.087613401E0,9.651288390E-1,9.229177833E-1,1.059537888E0
2.107883401E0,9.241161942E-1,1.196157932E0,1.218128920E0
2.128153401E0,9.081372619E-1,9.074714780E-1,9.641967416E-1
2.148423401E0,9.816404581E-1,2.834932804E-1,6.643250585E-1
2.168693453E0,7.542066574E-1,-1.964079887E-1,4.530033767E-1
2.188963453E0,1.753690243E-1,-3.795001805E-1,6.691187024E-1
2.209233453E0,-5.620597005E-1,-1.011068344E0,1.432779551E0
2.229503453E0,-1.487107992E0,-2.384326458E0,2.571280003E0
2.249773453E0,-1.703756094E0,-4.695415974E0,3.305513144E0
2.270043505E0,-1.457280636E0,-7.138065338E0,4.064380169E0
2.290313505E0,-1.001480937E0,-7.224750996E0,4.077163219E0
2.310583505E0,-1.532914400E0,-5.452684879E0,3.415767908E0
2.330853505E0,-2.720283747E0,-6.746581078E0,2.641587496E0
2.351123557E0,-3.188467264E0,-5.919670105E0,1.942907691E0
2.371393557E0,-2.682600260E0,-5.621928692E0,1.269261599E0
2.391663557E0,-1.934918284E0,-5.235371113E0,8.795083165E-1
2.411933610E0,-1.188834190E0,-3.043058634E0,7.351650596E-1
2.432203610E0,-2.719085515E-1,-1.671132296E-1,7.037398219E-1
2.452473662E0,3.767038584E-1,1.398424864E0,5.849629045E-1
2.472743662E0,-9.986846894E-2,9.218525290E-1,2.500706315E-1
2.493013662E0,-2.055825710E0,-1.150085211E0,-8.002793044E-2
2.513283714E0,-2.493515968E0,-2.937597752E0,4.290349185E-1
2.533553714E0,-1.499891162E0,-2.052629948E0,9.061399102E-1
2.553823714E0,-4.524707198E-1,-8.672577739E-1,1.038765192E0
2.574093766E0,2.866890728E-1,6.564687192E-2,1.165931106E0
2.594363766E0,8.277098536E-1,4.484759867E-1,1.053146243E0
2.614633818E0,9.640635848E-1,-2.182458937E-1,6.515418887E-1
2.634903818E0,1.009337306E0,-1.435975432E0,3.187801540E-1
2.655173870E0,1.070456743E0,-2.364752054E0,-1.930790395E-2
2.675443818E0,1.088033676E0,-2.397642136E0,-2.520680130E-1
2.695713870E0,7.318361402E-1,-1.348623753E0,-3.298322558E-1
2.715983922E0,-6.791055668E-3,-4.721781015E-1,-1.657816470E-1
2.736253922E0,-3.784348965E-1,-4.380896688E-1,3.715106845E-2
2.756523974E0,-3.448790908E-1,-2.671148479E-1,8.335687965E-2
2.776793974E0,-3.326285779E-1,-3.502054140E-2,-1.620532274E-1
2.797064026E0,1.131842658E-2,-1.142628431E0,-1.620532274E-1
2.817334026E0,5.233107507E-2,-1.731053472E0,-2.350237966E-1
2.837604026E0,2.105227262E-1,-2.065945625E0,-3.889544010E-1
2.857874078E0,3.655185997E-1,-2.077131033E0,-7.856319547E-1
2.878144078E0,3.783017397E-1,-1.568068027E0,-1.024250984E0
2.898414130E0,4.331628382E-1,-8.592683077E-1,-1.033172607E0
2.918684130E0,6.578003168E-1,-2.713759243E-1,-1.117328405E0
2.938954182E0,6.705834866E-1,3.776359558E-1,-8.820382953E-1
2.959224182E0,3.623228073E-1,4.490086138E-1,-4.624575675E-1
2.979494182E0,1.636511236E-1,-6.005423889E-2,-5.448823571E-1
2.999764235E0,3.047985733E-1,-2.415485233E-1,-8.586025238E-1
3.020034235E0,5.034702420E-1,-1.532648057E-1,-7.440866828E-1
3.040304287E0,3.495396376E-1,-3.986749053E-1,-4.443480968E-1
3.060574287E0,2.430132627E-1,-6.889592409E-1,-3.298322558E-1
3.080844287E0,2.531332672E-1,-7.028076649E-1,-6.908234954E-1
3.101114339E0,2.233058959E-1,-3.512706757E-1,-1.679121852E0
3.121514339E0,4.789691567E-1,2.435459048E-1,-1.943307161E0
3.141654339E0,7.259771824E-1,3.206443489E-1,-1.708416581E0
3.161924339E0,5.384907722E-1,-3.251717389E-1,-1.363936901E0
3.182194391E0,4.688491523E-1,-3.704454303E-1,-1.270193696E0
3.202464391E0,4.107922912E-1,-7.884282470E-1,-1.152482152E0
3.222864391E0,3.127880394E-1,-9.588704109E-1,-1.239833713E0
3.243004443E0,2.089248300E-1,-4.998749495E-1,-1.284042120E0
3.263274443E0,3.049317189E-2,-1.655153334E-1,-1.359143257E0
3.283544443E0,-1.797632426E-1,4.966791719E-2,-1.142362118E0
3.303814443E0,-5.099949837E-1,4.111917615E-1,-8.713856339E-1
3.324214443E0,-8.086682558E-1,9.202546477E-1,-6.647245288E-1
3.344354495E0,-8.709861636E-1,1.641837597E0,-2.845585644E-1
3.364624495E0,-1.082440972E0,1.795235515E0,1.818937659E-1
3.384894495E0,-1.278849006E0,1.728656530E0,5.259739161E-1
3.405164495E0,-1.263402700E0,1.767006040E0,5.854955316E-1
3.425434495E0,-1.173920512E0,1.443698525E0,4.407528341E-1
3.445704495E0,-1.128646851E0,7.158571482E-1,1.179779470E-1
3.465974495E0,-9.881651998E-1,2.174469382E-1,-1.370195299E-1
3.486244495E0,-6.898913383E-1,3.712443709E-1,-6.404897571E-2
3.506514495E0,-2.596580088E-1,4.463454783E-1,9.294424951E-2
3.526745172E0,-8.602003753E-2,2.685796022E-1,1.957421899E-1
3.547054495E0,-1.744369268E-1,-2.436790615E-1,3.358243704E-1
3.567324495E0,-3.384875357E-1,-6.005423665E-1,7.159903049E-1
3.587594495E0,-4.556665123E-1,-6.692518592E-1,1.287903786E0
3.607864495E0,-5.865607858E-1,-9.787109494E-2,1.925863504E0
3.628134495E0,-6.313018799E-1,9.032104015E-1,2.363021135E0
3.648404495E0,-6.882934570E-1,1.543300748E0,2.198970556E0
3.668674495E0,-8.081356287E-1,1.588041782E0,1.545164943E0
3.688944495E0,-8.773777485E-1,1.245692611E0,9.167925119E-1
3.709214495E0,-8.672577739E-1,8.266445994E-1,4.274370372E-1
3.729484495E0,-6.920219064E-1,3.430148959E-1,-1.790974438E-1
3.749754495E0,-4.306328297E-1,1.062999964E0,-3.894870281E-1
3.770024443E0,1.663142890E-1,2.736129761E0,-2.163816839E-1
3.790373141E0,7.611308694E-1,3.398057938E0,-3.383543491E-1
3.810564547E0,1.468865395E0,3.506182194E0,-4.980107546E-1
3.830834547E0,1.877793431E0,4.731368542E0,-3.617901504E-1
3.851104443E0,1.925197721E0,5.345892429E0,-1.897500902E-1
3.871374443E0,1.344229579E0,4.408726692E0,3.075948730E-2
3.891644443E0,1.099218965E0,3.536542177E0,1.776327193E-1
3.911914391E0,1.156210542E0,3.716971159E0,2.234390527E-1
3.932184391E0,1.075783134E0,3.967840672E0,2.607232630E-1
3.952454391E0,8.218508959E-1,3.715905905E0,2.990727723E-1
3.972724287E0,4.379565120E-1,3.650924921E0,3.070622385E-1
3.992994287E0,-1.254348010E-1,2.948117018E0,3.970770240E-1
4.013264287E0,-2.346243113E-1,1.731319785E0,4.514054656E-1
4.033534287E0,-4.157191217E-1,1.577389121E0,4.822981060E-1
4.053804235E0,-9.444893599E-1,2.378866911E0,3.384875357E-1
4.074074235E0,-1.155811071E0,2.218544722E0,1.478053331E-1
4.094344235E0,-8.198535442E-1,2.744651794E0,-1.268995255E-1
4.114614182E0,-6.009418368E-1,1.986849904E0,1.744369231E-2
4.134884182E0,-3.411506712E-1,1.713742852E0,1.861548275E-1
4.155154130E0,-5.299686641E-2,1.011867285E0,8.175898343E-2
4.175424130E0,2.536658943E-1,4.740423262E-1,-9.813741595E-2
4.195694130E0,4.539354742E-1,3.741738573E-2,-2.051964104E-1
4.215964078E0,3.522028029E-1,9.174583107E-2,-1.215732098E-1
4.236234078E0,7.030739784E-1,1.705753356E-1,-3.910849094E-1
4.256504026E0,6.295707822E-1,4.372907281E-1,-3.165164590E-1
4.276773974E0,4.380896688E-2,6.231792569E-1,7.856319658E-3
4.297043974E0,-2.601906359E-1,7.648593187E-1,-7.257108390E-2
4.317313974E0,-2.271674722E-1,1.524658650E-1,1.464737463E-3
4.337583922E0,1.279647946E-1,-5.776392221E-1,1.962748319E-1
4.357853922E0,-5.524723530E-1,4.154528081E-1,4.210454524E-1
4.378123870E0,-8.672577739E-1,6.791055799E-1,3.997401893E-1
4.398393870E0,-2.423474751E-2,-1.932121962E-1,1.515337527E-1
4.418663818E0,1.379383206E0,-1.733716607E0,-7.510108948E-1
4.438933818E0,1.329315901E0,-2.295510054E0,5.387570858E-1
4.459203818E0,-3.009369783E-2,-4.546012580E-1,9.082704186E-1
4.479473766E0,-8.906935453E-1,1.447426915E0,4.018706977E-1
4.499743766E0,-1.011600971E0,1.543833375E0,6.776408553E-1
4.520013714E0,-9.727188349E-1,1.013465166E0,1.148354173E0
4.540283714E0,-2.537990510E-1,4.069307148E-1,5.568665862E-1
4.560553662E0,-2.442116886E-1,2.648511827E-1,2.825611830E-1
4.580823662E0,-4.242412448E-1,-3.965443969E-1,7.430213690E-2
4.601093610E0,-1.046222091E0,9.334372729E-2,1.946769357E-1
4.621493610E0,-9.013462067E-1,3.882885873E-1,4.993423223E-1
4.641633557E0,-6.211818457E-1,3.973433375E-1,8.827040792E-1
4.661903557E0,3.155843541E-2,3.893538713E-1,1.060603142E0
4.682173505E0,6.599308252E-1,9.760478139E-2,1.725061297E0
4.702443505E0,3.314301372E-1,4.585959911E-1,2.118143559E0
4.722843505E0,-5.435507894E-1,-2.814959288E-1,1.860349774E0
4.742983453E0,-1.228781581E0,5.459476262E-3,1.173920512E0
4.763253401E0,-8.544746041E-1,7.094655633E-1,3.374222517E-1
4.783523401E0,-2.516685426E-1,8.298403621E-1,1.323590130E-1
4.803793349E0,1.455416381E-1,4.138549268E-1,7.623292804E-1
4.824193349E0,5.379581451E-1,4.484759867E-1,1.448758602E0
4.844333297E0,5.997434258E-1,8.431561589E-1,1.502021790E0
4.864733297E0,-6.631266326E-2,1.830389261E0,1.059005260E0
4.884873245E0,-4.205128253E-1,5.086634159E-1,1.272457361E0
4.905143245E0,-9.173251390E-1,9.495493770E-1,7.138597965E-1
4.925543245E0,-1.156876326E0,5.949497223E-1,4.327633679E-1
4.945683193E0,-1.072853684E0,-9.840372950E-2,5.190497041E-1
4.965953141E0,-6.467481852E-1,-1.798963994E-1,5.179844499E-1
4.986223089E0,-9.028109163E-2,-4.727107286E-1,3.720433414E-1
5.006493089E0,2.296974659E-1,-5.382244587E-1,3.635212183E-1
5.026893089E0,2.382195890E-1,-5.089297295E-1,5.243760347E-1
5.047033037E0,3.170490861E-1,-4.673844278E-1,3.289001584E-1
5.067303037E0,-6.791055668E-3,-2.278332561E-1,3.502054140E-2
5.087572985E0,-4.556665123E-1,-2.022669315E-1,1.957421936E-2
5.107842985E0,-1.957421899E-1,-4.663191736E-1,1.696432382E-1
5.128112932E0,5.034702420E-1,-5.190497041E-1,4.098601937E-1
5.148382880E0,1.100816846E0,-3.773696423E-1,6.819018722E-1
5.168652880E0,1.612010241E0,1.012399912E0,1.187768936E0
5.188922828E0,1.064198375E0,-2.596580051E-2,1.337438464E0
5.209192828E0,7.632613778E-1,2.516685426E-2,7.729819417E-1
5.229462776E0,1.615206003E-1,2.627206445E-1,3.597927988E-1
5.249732776E0,-5.966808200E-1,-1.042626798E-1,5.728455186E-1
5.270002724E0,-1.186171055E0,-5.968139768E-1,9.375651479E-1
5.290272724E0,-1.359276414E0,-8.092008829E-1,7.660577297E-1
5.310542672E0,-9.503483176E-1,-5.408875942E-1,6.254429221E-1
5.330812620E0,-7.239798307E-1,-1.111868918E-1,5.313002467E-1
5.351212620E0,-3.118559420E-1,2.717753947E-1,5.897566080E-1
5.371352568E0,-2.458095849E-1,2.584595978E-1,6.297039986E-1
5.391622516E0,-2.932138145E-1,-7.017423958E-2,6.089313030E-1
5.411892516E0,-3.331612051E-1,2.996053919E-2,4.966791868E-1
5.432162464E0,-4.269044101E-1,1.167795286E-1,3.246390820E-1
5.452432412E0,-3.518033028E-1,2.435459048E-1,1.318263710E-1
5.472702360E0,-1.845569313E-1,2.318280041E-1,8.175898343E-2
5.492972360E0,-1.824263930E-1,1.977395564E-1,1.217063740E-1
5.513242307E0,-2.447443157E-1,2.818953991E-1,2.010685205E-2
5.533512255E0,-4.301002026E-1,4.980107546E-1,-3.479417264E-1
5.553782203E0,-1.595764875E0,2.525207520E0,-8.506129980E-1
5.574052203E0,-1.163267851E0,2.465020180E0,-1.043825269E0
5.594322151E0,5.837644935E-1,-1.308942735E-1,-1.023718357E0
5.614592099E0,1.884717703E0,-1.540903807E0,-1.759016514E-1
5.634862047E0,1.306412697E0,-1.706019759E0,-1.081642032E0
5.655131995E0,2.105227262E-1,-9.407609701E-1,-1.901229262E0
5.675401995E0,-1.616537571E-1,-3.427485824E-1,-2.425205946E0
5.695671891E0,3.809649050E-1,-1.022253633E0,-2.526405811E0
5.715941891E0,9.416930676E-1,-1.973267794E0,-1.823997617E0
5.736211839E0,7.227813601E-1,-1.861947656E0,-1.168461084E0
5.756481787E0,4.512723088E-1,-9.551420212E-1,-9.880320430E-1
5.776751735E0,1.886848211E-1,-5.440834165E-1,-5.864276290E-1
5.797021682E0,-1.845569313E-1,-3.768370152E-1,-9.920267761E-2
5.817421682E0,-3.347590864E-1,1.199753210E-1,6.418213248E-2
5.837561578E0,-6.866955757E-1,1.130511016E-1,2.202432603E-1
5.857831526E0,-6.254429221E-1,4.319643974E-1,4.354265034E-1
5.878101474E0,-3.294327855E-1,1.181776881E0,7.430213690E-2
5.898371422E0,-1.121189967E-1,4.660528302E-1,8.442214131E-2
5.918641370E0,1.460742801E-1,5.872265995E-2,3.595264861E-3
5.938911318E0,2.621880174E-1,-1.452753246E-1,-1.557948068E-2
5.959181266E0,2.856238186E-1,-2.043974549E-1,2.063948289E-2
5.979451214E0,1.620532274E-1,-7.816372067E-2,5.832318589E-2
5.999721162E0,-1.062600464E-1,2.483395934E-1,1.994706094E-1
6.019991057E0,-1.504684836E-1,3.989412189E-1,3.896201849E-1
6.040300328E0,6.671213359E-2,5.699160695E-1,5.408875942E-1
6.060531005E0,4.363586307E-1,4.623244107E-1,7.969503403E-1
6.080800953E0,6.301034689E-1,6.817687154E-1,1.095224142E0
6.101070901E0,6.119939685E-1,7.297055721E-1,1.381646991E0
6.121470901E0,6.854971647E-1,5.997434258E-1,1.487107992E0
6.141610745E0,6.285055280E-1,1.037433624E0,1.267663717E0
6.161880693E0,6.743118763E-1,-1.335574239E-1,1.357678533E0
6.182150641E0,7.808382511E-1,-3.232143164E0,1.888046622E0
6.202420485E0,4.704470634E-1,-3.696464777E0,2.086185694E0
6.222820485E0,7.579351068E-1,-2.055293083E0,2.171939373E0
6.242960380E0,6.631265879E-1,-9.785777926E-1,1.657949686E0
6.263230276E0,1.194426864E-1,-5.339633822E-1,7.692534924E-1
6.283500224E0,-1.531316489E-1,-5.792371184E-2,3.304980397E-1
6.303770172E0,-1.035968885E-1,-2.585927546E-1,2.170474678E-1
6.324170172E0,-4.181159660E-2,-7.060034871E-1,2.777675092E-1
6.344310016E0,-5.885581672E-2,-8.033419251E-1,2.905506492E-1
6.364579964E0,1.611211337E-2,-9.018788338E-1,1.701758653E-1
6.384849860E0,8.695214242E-2,-9.732515216E-1,9.347688407E-2
6.405119807E0,7.310371846E-2,-1.015329361E0,6.471476704E-2
6.425389703E0,5.992108025E-3,-8.906935453E-1,-1.131842658E-2
6.445659651E0,-1.464737463E-3,-4.764391780E-1,-7.736477256E-2
6.465929599E0,-3.062633052E-2,-9.787109494E-2,-1.098553166E-1
6.486199495E0,1.291632187E-2,3.032006621E-1,-1.274321675E-1
6.506469391E0,4.860265180E-2,5.981455445E-1,-1.263668984E-1
6.526700016E0,4.008054361E-2,6.130592227E-1,-1.087900475E-1
6.547009182E0,-6.950845569E-2,3.659180701E-1,6.151897460E-2
6.567279078E0,-3.222422674E-2,-3.289001435E-2,-9.387636185E-2
6.587549026E0,6.831002980E-2,-9.743167758E-1,-2.516685426E-2
6.607819026E0,7.789740711E-2,-1.848631859E0,-1.966743022E-1
6.628088922E0,-6.471476704E-2,-2.413621187E0,-5.118591785E-1
6.648358818E0,-3.001380265E-1,-2.610162258E0,-8.969519734E-1
6.668628714E0,-7.745798230E-1,-2.579802275E0,-1.829856634E0
6.688898662E0,-1.268196344E0,-1.381646991E0,-2.690323353E0
6.709168557E0,-1.327318549E0,5.392897129E-2,-2.879940271E0
6.729438453E0,-9.370325208E-1,1.260606408E0,-2.334658384E0
6.749708349E0,6.332992315E-1,1.949033022E0,-1.087501049E0
6.769978297E0,1.610944986E0,2.131193161E0,-1.029310971E-1
6.790248193E0,5.491434336E-1,2.593384266E0,2.372874767E-1
6.810518089E0,-6.185187101E-1,1.997502446E0,1.451421678E-1
6.830787985E0,-9.546093941E-1,1.414403796E0,2.154495716E-1
6.851057880E0,-9.178577662E-1,1.140231609E0,1.217063740E-1
6.871327776E0,-4.269044101E-1,1.450622797E0,-1.529984921E-1
6.891597620E0,-1.914811432E-1,1.916675568E0,-2.179795653E-1
6.911867620E0,-4.290349185E-1,2.547578096E0,-1.418132186E-1
6.932137516E0,-1.049417853E0,3.760647058E0,-5.499423668E-2
6.952407412E0,-1.558480740E0,4.317113876E0,-5.233107507E-2
6.972677307E0,-1.254347920E0,3.100316763E0,-1.940111369E-1
6.992947203E0,-1.111070037E0,2.644516945E0,-9.653951973E-2
7.013217099E0,-1.247956395E0,3.524824142E0,-3.635212034E-2
7.033486995E0,-1.222922683E0,3.775027990E0,-2.083922029E-1
7.053756891E0,-6.520745158E-1,2.000698328E0,-1.199753210E-1
7.074026787E0,-1.829590350E-1,4.282359779E-1,3.342264518E-2
7.094296682E0,-3.115896136E-2,-2.681801319E-1,1.398158520E-1
7.114566526E0,-3.755054250E-2,-2.788327634E-1,1.856221855E-1
7.134836422E0,5.819002539E-2,2.291648388E-1,1.307611167E-1
7.155106318E0,2.520680130E-1,-1.953427196E-1,1.685779691E-1
7.175376214E0,1.940111369E-1,-9.627319872E-2,1.627190262E-1
7.195646110E0,4.913528636E-2,-4.508728385E-1,2.809632942E-2
7.215915953E0,-1.944106072E-2,-4.668518007E-1,1.957421936E-2
7.236185849E0,1.412805915E-1,-4.988096952E-1,7.643266767E-2
7.256455745E0,2.925480306E-1,-5.430181623E-1,1.179779470E-1
7.276725641E0,3.367564678E-1,-5.872265697E-1,9.454214573E-2
7.296995485E0,3.330280483E-1,-6.165213585E-1,4.926844314E-2
7.317265380E0,4.699144363E-1,-9.599357247E-1,1.744369231E-2
7.337535224E0,5.986781716E-1,-1.183641076E0,-3.262370080E-2
7.357805120E0,6.040045023E-1,-1.105344176E0,-1.141163707E-1
7.378074964E0,5.821665525E-1,-1.169792652E0,-2.483395934E-1
7.398344860E0,4.304996729E-1,-9.460873008E-1,-2.957438231E-1
7.418614703E0,1.993374527E-1,-4.652538896E-1,-2.893522382E-1
7.438884599E0,4.593949392E-2,-1.591237634E-1,-2.989396155E-1
7.459154443E0,1.025316212E-2,-1.431448013E-1,-2.840259075E-1
7.479424287E0,5.126581341E-2,-2.452769578E-1,-1.913479865E-1
7.499694130E0,3.741738573E-2,-7.550056279E-2,-6.458161026E-2
7.519964026E0,1.717737690E-2,3.954791278E-2,-3.328948980E-3
7.540233870E0,2.143843099E-2,1.557948068E-2,-9.720530361E-3
7.560503714E0,1.930790395E-2,-1.464737463E-3,-1.331579551E-4
7.580773610E0,1.078579482E-2,-1.464737463E-3,6.258423906E-3
7.601043453E0,2.796316985E-3,-1.464737463E-3,1.158474199E-2
7.621443453E0,1.331579551E-4,-1.464737463E-3,1.371526904E-2
7.641741057E0,3.861580743E-3,-9.454214945E-3,1.105211023E-2
7.661853610E0,1.078579482E-2,-7.856319658E-3,4.660528619E-3
7.682123349E0,1.131842658E-2,4.394212738E-3,-1.198421582E-3
7.702393089E0,9.720530361E-3,9.187898599E-3,-6.657897611E-4
7.722793089E0,8.122635074E-3,9.720530361E-3,9.321057005E-4
7.742932724E0,1.185105834E-2,8.655266836E-3,1.464737463E-3
7.763202464E0,1.451421715E-2,3.861580743E-3,4.660528619E-3
7.783472255E0,1.238369010E-2,1.331579551E-4,8.921583183E-3
7.803742047E0,7.590003312E-3,-3.994738800E-4,9.986846708E-3
7.824142047E0,2.263685223E-3,2.796316985E-3,6.791055668E-3
7.844281682E0,5.992108025E-3,3.861580743E-3,-1.198421582E-3
7.864551526E0,9.187898599E-3,1.731053460E-3,-3.861580743E-3
7.884821370E0,1.731053460E-3,-9.454214945E-3,-6.657897611E-4
7.905091162E0,-7.856319658E-3,-2.543316968E-2,-6.657897611E-4
7.925491162E0,-1.624527015E-2,-2.490053698E-2,-2.796316985E-3
7.945630797E0,-1.358211134E-2,-2.010685205E-2,-7.590003312E-3
7.965900589E0,-3.595264861E-3,-1.051947847E-2,-1.451421715E-2
7.986170432E0,-1.997369342E-3,-3.062632866E-3,-1.664474420E-2
8.006440276E0,-3.062632866E-3,-2.530001104E-3,-1.504684892E-2
8.026710068E0,-3.595264861E-3,-4.660528619E-3,-1.451421715E-2
8.046979912E0,-5.725792143E-3,-8.388951421E-3,-1.238369010E-2
8.067249703E0,-7.856319658E-3,-1.744369231E-2,-1.238369010E-2
8.087519495E0,-9.853689000E-3,-2.170474641E-2,-1.824264042E-2
8.107789287E0,-1.038632076E-2,-2.223737910E-2,-2.143843099E-2
8.128059130E0,-9.853689000E-3,-2.117211558E-2,-1.930790395E-2
8.148328922E0,-7.323687430E-3,-1.797632314E-2,-1.557948068E-2
8.168598714E0,-6.791055668E-3,-1.584579609E-2,-9.720530361E-3
8.188868505E0,-4.127896391E-3,-1.691105962E-2,-5.992108025E-3
8.209138297E0,-4.127896391E-3,-1.424790081E-2,-7.590003312E-3
8.229408089E0,-5.725792143E-3,-1.584579609E-2,-1.078579482E-2
8.249677932E0,-3.595264861E-3,-1.584579609E-2,-2.090579830E-2
8.269947724E0,-4.660528619E-3,-1.105211023E-2,-2.463422157E-2
8.290217516E0,-4.127896391E-3,-1.051947847E-2,-2.410159074E-2
8.310487307E0,-5.193160381E-3,-1.478053257E-2,-1.771000773E-2
8.330757099E0,-7.323687430E-3,-1.957421936E-2,-1.824264042E-2
8.351026891E0,-1.145158429E-2,-1.904158667E-2,-1.664474420E-2
8.371296630E0,-1.411474310E-2,-1.424790081E-2,-1.398158539E-2
8.391566422E0,-8.921583183E-3,-9.986846708E-3,-1.930790395E-2
8.411836214E0,-6.258423906E-3,-1.051947847E-2,-2.783001214E-2
8.432106005E0,-6.791055668E-3,-1.637842879E-2,-1.717737690E-2
8.452375745E0,-1.091895252E-2,-1.904158667E-2,-1.504684892E-2
8.472645537E0,-1.411474310E-2,-2.436790615E-2,-1.344895363E-2
8.492915328E0,-1.411474310E-2,-2.596580051E-2,-2.410159074E-2
8.513185120E0,-1.198421605E-2,-2.117211558E-2,-4.061317816E-2
8.533454860E0,-8.921583183E-3,-2.383527346E-2,-3.581948951E-2
8.553724651E0,-4.660528619E-3,-2.117211558E-2,-2.463422157E-2
8.573994391E0,-1.464737463E-3,-1.424790081E-2,-1.611211337E-2
8.594264182E0,1.331579551E-4,-9.454214945E-3,-1.185105834E-2
8.614533922E0,-9.321057005E-4,-6.791055668E-3,-1.025316212E-2
8.634803714E0,-3.062632866E-3,-6.258423906E-3,-8.655266836E-3
8.655073453E0,-5.193160381E-3,-7.856319658E-3,-8.122635074E-3
8.675343193E0,-2.530001104E-3,-6.258423906E-3,-1.504684892E-2
8.695612985E0,6.657897611E-4,-8.921583183E-3,-1.930790395E-2
8.715882724E0,2.796316985E-3,-9.454214945E-3,-1.877527125E-2
8.736152464E0,2.796316985E-3,-7.323687430E-3,-1.611211337E-2
8.756422203E0,2.796316985E-3,-4.660528619E-3,-1.557948068E-2
8.776691943E0,4.394212738E-3,1.331579551E-4,-2.037316747E-2
8.797091943E0,3.328948980E-3,3.328948980E-3,-3.209106624E-2
8.817231422E0,1.198421582E-3,1.331579551E-4,-2.623211779E-2
8.837501214E0,-1.464737463E-3,-5.725792143E-3,-2.037316747E-2
8.857770953E0,-5.193160381E-3,-1.584579609E-2,-1.664474420E-2
8.878040641E0,-8.388951421E-3,-2.117211558E-2,-2.090579830E-2
8.898310380E0,-8.921583183E-3,-2.117211558E-2,-2.463422157E-2
8.918580120E0,-6.791055668E-3,-2.170474641E-2,-2.303632535E-2
8.938849860E0,-5.193160381E-3,-1.691105962E-2,-2.623211779E-2
8.959119599E0,-7.856319658E-3,-2.756369673E-2,-3.422159329E-2
8.979389235E0,-1.038632076E-2,-3.342264518E-2,-2.836264484E-2
8.999659026E0,-9.321057238E-3,-3.182475269E-2,-1.504684892E-2
9.019928714E0,-1.198421605E-2,-4.567318037E-2,-1.198421582E-3
9.040198453E0,-9.853689000E-3,-5.259739235E-2,-1.731053460E-3
9.060468193E0,-1.038632076E-2,-4.567318037E-2,-1.238369010E-2
9.080737880E0,-1.145158429E-2,-3.182475269E-2,-2.623211779E-2
9.101007620E0,-6.791055668E-3,-2.063948289E-2,-2.942790836E-2
9.121407620E0,-1.464737463E-3,-2.010685205E-2,-2.836264484E-2
9.141547047E0,-1.464737463E-3,-2.063948289E-2,-2.143843099E-2
9.161816735E0,1.331579551E-4,-1.371526904E-2,-1.291632187E-2
9.182086422E0,3.328948980E-3,8.122635074E-3,-1.930790395E-2
9.202356162E0,4.926844500E-3,2.623211779E-2,-3.262370080E-2
9.222756162E0,8.655266836E-3,3.581948951E-2,-4.274370521E-2
9.242895537E0,1.025316212E-2,4.327633604E-2,-4.540686309E-2
9.263165276E0,1.131842658E-2,4.807002097E-2,-3.848264739E-2
9.283434964E0,1.504684892E-2,4.807002097E-2,-2.410159074E-2
9.303704651E0,1.557948068E-2,4.274370521E-2,-6.524739787E-3
9.324104651E0,1.238369010E-2,3.262370080E-2,5.193160381E-3
9.344244026E0,5.992108025E-3,2.037316747E-2,1.531316526E-2
9.364513714E0,2.796316985E-3,1.078579482E-2,2.170474641E-2
9.384783401E0,1.731053460E-3,3.861580743E-3,2.756369673E-2
9.405053089E0,4.926844500E-3,-1.464737463E-3,3.448791057E-2
9.425322776E0,1.025316212E-2,-4.660528619E-3,3.874896467E-2
9.445592464E0,1.451421715E-2,-4.127896391E-3,4.447475821E-2
9.465862151E0,1.664474420E-2,-3.595264861E-3,4.873581231E-2
9.486131839E0,1.930790395E-2,-3.994738800E-4,4.713791609E-2
9.506401474E0,2.463422157E-2,1.198421582E-3,4.354264960E-2
9.526801474E0,2.783001214E-2,-2.530001104E-3,3.448791057E-2
9.546940849E0,2.729738131E-2,-5.193160381E-3,2.010685205E-2
9.567210485E0,1.984053478E-2,1.331579551E-4,4.660528619E-3
9.587480172E0,1.557948068E-2,8.122635074E-3,-5.992108025E-3
9.607749860E0,1.557948068E-2,1.185105834E-2,-7.590003312E-3
9.628019495E0,1.557948068E-2,1.771000773E-2,-1.198421582E-3
9.648289182E0,1.717737690E-2,1.131842658E-2,5.725792143E-3
9.668558818E0,5.459476262E-3,9.720530361E-3,9.454214945E-3
9.688828505E0,1.731053460E-3,1.504684892E-2,8.388951421E-3
9.709098141E0,6.524739787E-3,2.783001214E-2,5.193160381E-3
9.729367776E0,1.557948068E-2,3.422159329E-2,9.321057005E-4
9.749637464E0,1.984053478E-2,3.102580272E-2,1.997369342E-3
9.769907099E0,1.877527125E-2,2.410159074E-2,-1.331579551E-4
9.790176735E0,1.185105834E-2,2.250369452E-2,3.994738800E-4
9.810446370E0,8.122635074E-3,2.410159074E-2,1.997369342E-3
9.830716057E0,7.590003312E-3,1.930790395E-2,8.388951421E-3
9.850985693E0,1.238369010E-2,9.720530361E-3,1.318263728E-2
9.871255328E0,1.504684892E-2,4.394212738E-3,1.318263728E-2
9.891524964E0,1.504684892E-2,8.655266836E-3,1.211737376E-2
9.911794599E0,1.291632187E-2,6.524739787E-3,6.791055668E-3
9.932064235E0,1.185105834E-2,-9.321057005E-4,3.595264861E-3
9.952333922E0,1.131842658E-2,-1.464737463E-3,9.321057005E-4
9.972603505E0,1.344895363E-2,-2.530001104E-3,3.994738800E-4
9.992873141E0,1.504684892E-2,-1.997369342E-3,3.062632866E-3
1.001314278E1,1.504684892E-2,-3.595264861E-3,5.193160381E-3
1.003341241E1,8.122635074E-3,-7.856319658E-3,5.725792143E-3
1.005368205E1,6.657897611E-4,-8.388951421E-3,1.464737463E-3
1.007395168E1,-9.321057005E-4,-4.660528619E-3,-4.926844500E-3
1.009422132E1,6.657897611E-4,1.198421582E-3,-8.655266836E-3
1.011449090E1,-9.321057005E-4,6.657897611E-4,-8.655266836E-3
1.013476054E1,-5.725792143E-3,-4.127896391E-3,-1.131842658E-2
1.015503017E1,-1.198421605E-2,-6.791055668E-3,-1.185105834E-2
1.017543017E1,-1.304947957E-2,-6.258423906E-3,-1.504684892E-2
1.019556939E1,-1.518000662E-2,-6.791055668E-3,-1.238369010E-2
1.021583903E1,-1.518000662E-2,-1.850895584E-2,-1.078579482E-2
1.023610861E1,-1.624527015E-2,-2.490053698E-2,-1.398158539E-2
1.025650861E1,-2.050632425E-2,-1.691105962E-2,-1.877527125E-2
1.027664783E1,-1.571263932E-2,-1.105211023E-2,-2.516685426E-2
1.029691746E1,-3.062632866E-3,-7.856319658E-3,-2.729738131E-2
1.031731746E1,4.926844500E-3,-9.454214945E-3,-2.516685426E-2
1.033745668E1,6.524739787E-3,-1.051947847E-2,-1.771000773E-2
1.035772627E1,4.394212738E-3,-1.797632314E-2,-1.398158539E-2
1.037799585E1,3.328948980E-3,-2.490053698E-2,-1.398158539E-2
1.039826538E1,1.198421582E-3,-2.596580051E-2,-1.771000773E-2
1.041853507E1,-6.791055668E-3,-2.170474641E-2,-2.090579830E-2
1.043880465E1,-1.038632076E-2,-1.850895584E-2,-1.877527125E-2
1.045907424E1,-6.258423906E-3,-1.531316526E-2,-2.410159074E-2
1.047934382E1,-9.853689000E-3,-1.850895584E-2,-1.291632187E-2
1.049961345E1,-1.411474310E-2,-2.490053698E-2,-1.398158539E-2
1.051988304E1,-1.518000662E-2,-2.063948289E-2,-1.451421715E-2
1.054015262E1,-1.624527015E-2,-1.584579609E-2,-1.344895363E-2
1.056042220E1,-1.837579720E-2,-1.105211023E-2,-1.185105834E-2
1.058069179E1,-1.890842989E-2,-9.454214945E-3,-1.078579482E-2
1.060096137E1,-1.677790284E-2,-4.660528619E-3,-9.720530361E-3
1.062136137E1,-1.145158429E-2,4.926844500E-3,-1.078579482E-2
1.064150048E1,-5.725792143E-3,1.504684892E-2,-1.238369010E-2
1.066177007E1,-3.595264861E-3,1.398158539E-2,-9.187898599E-3
1.068203965E1,-6.791055668E-3,5.459476262E-3,-5.992108025E-3
1.070230918E1,-7.856319658E-3,-4.127896391E-3,-5.459476262E-3
1.072270918E1,-9.321057238E-3,-6.791055668E-3,-2.796316985E-3
1.074284835E1,-9.853689000E-3,-7.323687430E-3,9.321057005E-4
1.076311793E1,-1.411474310E-2,-1.371526904E-2,3.062632866E-3
1.078338746E1,-1.624527015E-2,-1.584579609E-2,9.321057005E-4
1.080365705E1,-1.571263932E-2,-2.010685205E-2,-4.926844500E-3
1.082405705E1,-9.321057238E-3,-2.063948289E-2,-1.344895363E-2
1.084419616E1,-4.660528619E-3,-2.010685205E-2,-1.131842658E-2
1.086446569E1,-9.321057005E-4,-1.371526904E-2,-9.720530361E-3
1.088473528E1,1.198421582E-3,-6.791055668E-3,-9.720530361E-3
1.090500481E1,3.861580743E-3,1.331579551E-4,-9.187898599E-3
1.092540481E1,7.057371549E-3,2.263685223E-3,-7.590003312E-3
1.094554392E1,3.328948980E-3,6.657897611E-4,-5.459476262E-3
1.096581345E1,-1.997369342E-3,-3.595264861E-3,-5.459476262E-3
1.098608304E1,-7.323687430E-3,-8.388951421E-3,-2.796316985E-3
1.100635257E1,-9.853689000E-3,-1.105211023E-2,-1.198421582E-3
1.102662210E1,-8.388951421E-3,-1.211737376E-2,-1.198421582E-3
1.104689163E1,-4.660528619E-3,-6.258423906E-3,-3.861580743E-3
1.106716116E1,-3.595264861E-3,-3.062632866E-3,-3.328948980E-3
1.108743069E1,-1.464737463E-3,-9.321057005E-4,-2.263685223E-3
1.110770028E1,-3.994738800E-4,-1.997369342E-3,-1.198421582E-3
1.112796981E1,1.331579551E-4,-1.464737463E-3,3.994738800E-4
1.114823934E1,3.861580743E-3,2.263685223E-3,-6.657897611E-4
1.116850887E1,2.263685223E-3,3.861580743E-3,-1.731053460E-3
1.118877840E1,5.459476262E-3,5.459476262E-3,-4.926844500E-3
1.120904793E1,5.459476262E-3,3.328948980E-3,-9.187898599E-3
1.122931741E1,5.992108025E-3,1.198421582E-3,-9.187898599E-3
1.124958694E1,6.657897611E-4,-3.994738800E-4,-5.992108025E-3
1.126985647E1,2.263685223E-3,1.331579551E-4,-2.263685223E-3
1.129012601E1,5.992108025E-3,-1.464737463E-3,3.062632866E-3
1.131039554E1,3.328948980E-3,-3.062632866E-3,9.454214945E-3
1.133066507E1,-4.660528619E-3,-1.265000552E-2,9.986846708E-3
1.135093455E1,-1.145158429E-2,-1.211737376E-2,8.388951421E-3
1.137120408E1,-6.258423906E-3,-7.323687430E-3,3.595264861E-3
1.139147361E1,-1.464737463E-3,-3.062632866E-3,1.464737463E-3
1.141174309E1,-1.997369342E-3,1.504684892E-2,5.193160381E-3
1.143201262E1,-9.321057238E-3,2.303632535E-2,3.062632866E-3
1.145228210E1,-5.193160381E-3,2.143843099E-2,2.010685205E-2
1.147255163E1,1.664474420E-2,2.410159074E-2,4.980107397E-2
1.149282111E1,3.635212034E-2,3.315633163E-2,6.844318658E-2
1.151309064E1,3.528685868E-2,3.688475490E-2,6.524740160E-2
1.153336012E1,2.836264484E-2,2.356895804E-2,4.447475821E-2
1.155362965E1,1.824264042E-2,1.025316212E-2,2.596580051E-2
1.157389913E1,1.291632187E-2,3.861580743E-3,1.105211023E-2
1.159416861E1,1.291632187E-2,9.187898599E-3,-4.394212738E-3
1.161443814E1,1.025316212E-2,1.664474420E-2,-1.398158539E-2
1.163470762E1,5.992108025E-3,1.185105834E-2,-1.398158539E-2
1.165497710E1,2.263685223E-3,-3.994738800E-4,-5.459476262E-3
1.167524658E1,-6.258423906E-3,-8.921583183E-3,-6.524739787E-3
1.169551611E1,-1.091895252E-2,-1.105211023E-2,-1.398158539E-2
1.171578559E1,-8.921583183E-3,-1.051947847E-2,-2.463422157E-2
1.173605507E1,-3.595264861E-3,-1.158474199E-2,-3.262370080E-2
1.175632455E1,-5.725792143E-3,-1.584579609E-2,-3.368896246E-2
1.177659403E1,-1.038632076E-2,-1.957421936E-2,-3.475422785E-2
1.179699403E1,-9.853689000E-3,-1.744369231E-2,-3.795001656E-2
1.181713298E1,-5.725792143E-3,-1.371526904E-2,-4.167843983E-2
1.183740246E1,-5.193160381E-3,-6.791055668E-3,-3.848264739E-2
1.185767194E1,-4.660528619E-3,-7.323687430E-3,-3.209106624E-2
1.187794142E1,-6.258423906E-3,-1.584579609E-2,-2.090579830E-2
1.189821090E1,-8.388951421E-3,-1.797632314E-2,-7.590003312E-3
1.191848038E1,-1.145158429E-2,-2.330264263E-2,9.321057005E-4
1.193874986E1,-1.944106072E-2,-2.596580051E-2,-1.331579551E-4
1.195901934E1,-1.944106072E-2,-2.862896025E-2,-6.524739787E-3
1.197928877E1,-1.411474310E-2,-2.436790615E-2,-1.504684892E-2
1.199955825E1,-6.258423906E-3,-1.211737376E-2,-1.930790395E-2
1.201982772E1,-3.994738800E-4,-3.994738800E-4,-1.877527125E-2
1.204009720E1,2.263685223E-3,6.524739787E-3,-1.611211337E-2
1.206036668E1,5.992108025E-3,1.025316212E-2,-1.238369010E-2
1.208063616E1,5.992108025E-3,1.025316212E-2,-3.861580743E-3
1.210090559E1,3.328948980E-3,1.198421582E-3,2.530001104E-3
1.212130559E1,-4.660528619E-3,-1.105211023E-2,2.530001104E-3
1.214144455E1,-1.145158429E-2,-1.797632314E-2,-1.331579551E-4
1.216171397E1,-1.198421605E-2,-1.904158667E-2,-3.328948980E-3
1.218198345E1,-8.388951421E-3,-1.211737376E-2,-4.926844500E-3
1.220225288E1,-2.530001104E-3,-5.725792143E-3,-6.524739787E-3
1.222265288E1,1.198421582E-3,3.328948980E-3,-7.590003312E-3
1.224279184E1,-1.464737463E-3,5.992108025E-3,-5.459476262E-3
1.226306127E1,-2.530001104E-3,1.731053460E-3,-6.657897611E-4
1.228333069E1,-5.725792143E-3,-3.062632866E-3,9.321057005E-4
1.230360017E1,-2.530001104E-3,-5.193160381E-3,9.321057005E-4
1.232400017E1,-9.321057005E-4,-5.193160381E-3,9.321057005E-4
1.234413908E1,1.731053460E-3,-5.193160381E-3,-1.731053460E-3
1.236440850E1,6.657897611E-4,-3.595264861E-3,-5.992108025E-3
1.238467793E1,6.657897611E-4,-2.530001104E-3,-1.025316212E-2
1.240494741E1,1.198421582E-3,-2.530001104E-3,-9.720530361E-3
1.242534741E1,2.796316985E-3,6.657897611E-4,-7.590003312E-3
1.244548632E1,4.394212738E-3,2.796316985E-3,-2.263685223E-3
1.246575575E1,4.394212738E-3,1.198421582E-3,5.193160381E-3
1.248602512E1,1.731053460E-3,3.328948980E-3,7.323687430E-3
1.250629460E1,-3.994738800E-4,-1.464737463E-3,9.986846708E-3
1.252669460E1,-2.530001104E-3,1.731053460E-3,5.193160381E-3
1.254683350E1,2.263685223E-3,4.394212738E-3,3.994738800E-4
1.256710293E1,7.057371549E-3,3.861580743E-3,-2.263685223E-3
1.258737236E1,7.590003312E-3,2.796316985E-3,-1.331579551E-4
1.260764184E1,3.861580743E-3,1.331579551E-4,5.725792143E-3
1.262791127E1,3.861580743E-3,5.459476262E-3,8.388951421E-3
1.264818069E1,1.025316212E-2,1.291632187E-2,7.856319658E-3
1.266845012E1,1.930790395E-2,1.824264042E-2,6.258423906E-3
1.268871955E1,2.143843099E-2,1.717737690E-2,4.127896391E-3
1.270898897E1,1.557948068E-2,1.185105834E-2,4.127896391E-3
1.272925840E1,5.992108025E-3,8.655266836E-3,4.660528619E-3
1.274952783E1,2.263685223E-3,7.590003312E-3,5.725792143E-3
1.276979731E1,4.926844500E-3,8.122635074E-3,3.595264861E-3
1.279006674E1,1.025316212E-2,8.655266836E-3,5.193160381E-3
1.281033611E1,1.291632187E-2,1.078579482E-2,5.725792143E-3
1.283073611E1,1.131842658E-2,1.078579482E-2,8.921583183E-3
1.285087496E1,9.187898599E-3,6.524739787E-3,1.318263728E-2
1.287114439E1,9.720530361E-3,5.992108025E-3,1.691105962E-2
1.289141382E1,1.238369010E-2,6.524739787E-3,1.957421936E-2
1.291168324E1,1.398158539E-2,8.655266836E-3,2.223737910E-2
1.293195267E1,1.451421715E-2,1.078579482E-2,1.797632314E-2
1.295222210E1,1.504684892E-2,1.451421715E-2,1.265000552E-2
1.297249153E1,1.238369010E-2,1.611211337E-2,5.193160381E-3
1.299276095E1,1.131842658E-2,1.238369010E-2,-1.731053460E-3
1.301303038E1,1.451421715E-2,1.185105834E-2,-5.992108025E-3
1.303329976E1,1.398158539E-2,1.131842658E-2,-4.926844500E-3
1.305356918E1,9.187898599E-3,7.590003312E-3,-1.198421582E-3
1.307383861E1,4.926844500E-3,5.992108025E-3,3.595264861E-3
1.309410804E1,4.394212738E-3,5.459476262E-3,8.388951421E-3
1.311437741E1,5.459476262E-3,6.524739787E-3,1.051947847E-2
1.313464684E1,9.187898599E-3,8.655266836E-3,1.158474199E-2
1.315491627E1,1.185105834E-2,8.655266836E-3,1.158474199E-2
1.317518559E1,1.185105834E-2,1.185105834E-2,1.158474199E-2
1.319545507E1,9.720530361E-3,5.459476262E-3,9.454214945E-3
1.321572444E1,7.590003312E-3,4.926844500E-3,8.388951421E-3
1.323599387E1,7.590003312E-3,9.720530361E-3,8.921583183E-3
1.325626325E1,1.025316212E-2,7.057371549E-3,7.856319658E-3
1.327653262E1,1.344895363E-2,8.655266836E-3,5.193160381E-3
1.329680205E1,1.557948068E-2,1.078579482E-2,3.062632866E-3
1.331707147E1,1.238369010E-2,1.131842658E-2,1.997369342E-3
1.333734085E1,1.025316212E-2,1.131842658E-2,3.062632866E-3
1.335761028E1,1.025316212E-2,9.720530361E-3,4.127896391E-3
1.337787970E1,7.057371549E-3,4.394212738E-3,6.258423906E-3
1.339814908E1,3.328948980E-3,1.331579551E-4,7.323687430E-3
1.341841850E1,1.198421582E-3,-3.062632866E-3,5.193160381E-3
1.343868788E1,1.198421582E-3,-9.321057005E-4,3.595264861E-3
1.345895726E1,1.198421582E-3,2.263685223E-3,3.994738800E-4
1.347922668E1,-9.321057005E-4,1.198421582E-3,-6.657897611E-4
1.349962668E1,-1.997369342E-3,6.657897611E-4,-4.926844500E-3
1.351976548E1,-3.062632866E-3,-9.321057005E-4,-5.459476262E-3
1.354003486E1,-5.193160381E-3,-3.062632866E-3,-4.926844500E-3
1.356030424E1,-8.388951421E-3,-5.725792143E-3,-4.394212738E-3
1.358057361E1,-9.321057238E-3,-7.856319658E-3,-4.926844500E-3
1.360084304E1,-7.856319658E-3,-8.921583183E-3,-6.524739787E-3
1.362124304E1,-4.660528619E-3,-8.921583183E-3,-2.796316985E-3
1.364138278E1,-4.660528619E-3,-6.258423906E-3,-2.263685223E-3
1.366165194E1,-8.921583183E-3,-7.323687430E-3,-4.394212738E-3
1.368192116E1,-5.725792143E-3,-7.323687430E-3,-8.122635074E-3
1.370219043E1,-7.856319658E-3,-4.127896391E-3,-1.238369010E-2
1.372259043E1,-8.388951421E-3,-1.265000552E-2,-9.187898599E-3
1.374272913E1,-1.304947957E-2,-1.691105962E-2,-1.131842658E-2
1.376299840E1,-1.518000662E-2,-1.531316526E-2,-1.131842658E-2
1.378326767E1,-9.853689000E-3,-1.211737376E-2,-6.524739787E-3
1.380353705E1,-9.321057005E-4,-9.321057005E-4,-8.655266836E-3
1.382393705E1,3.328948980E-3,4.394212738E-3,-1.078579482E-2
1.384407575E1,3.861580743E-3,2.263685223E-3,-5.992108025E-3
1.386434512E1,1.731053460E-3,2.263685223E-3,-3.328948980E-3
1.388461444E1,-4.660528619E-3,-1.464737463E-3,-3.328948980E-3
1.390488382E1,-8.921583183E-3,-7.856319658E-3,-2.796316985E-3
1.392528382E1,-9.853689000E-3,-1.051947847E-2,-4.394212738E-3
1.394542257E1,-8.921583183E-3,-1.051947847E-2,-3.861580743E-3
1.396569194E1,-5.725792143E-3,-4.660528619E-3,-4.926844500E-3
1.398596127E1,-2.530001104E-3,-3.994738800E-4,-7.590003312E-3
1.400623059E1,1.198421582E-3,-2.530001104E-3,-8.122635074E-3
1.402663059E1,1.731053460E-3,-9.321057005E-4,-9.187898599E-3
1.404676934E1,-1.464737463E-3,-9.321057005E-4,-8.122635074E-3
1.406703871E1,-3.595264861E-3,-4.127896391E-3,-9.720530361E-3
1.408730809E1,-6.258423906E-3,-9.986846708E-3,-8.122635074E-3
1.410757746E1,-6.791055668E-3,-1.211737376E-2,-7.590003312E-3
1.412784679E1,-5.725792143E-3,-1.051947847E-2,-2.796316985E-3
1.414811616E1,-5.193160381E-3,-7.856319658E-3,-1.731053460E-3
1.416838554E1,-1.997369342E-3,-4.127896391E-3,-4.394212738E-3
1.418865491E1,1.331579551E-4,1.331579551E-4,-4.394212738E-3
1.420888491E1,1.331579551E-4,1.731053460E-3,-4.394212738E-3
1.422919356E1,6.657897611E-4,-3.994738800E-4,-4.926844500E-3
1.424946293E1,-3.062632866E-3,-1.997369342E-3,-3.861580743E-3
1.426973226E1,-7.323687430E-3,-5.193160381E-3,-3.861580743E-3
1.429000163E1,-7.856319658E-3,-4.660528619E-3,-6.524739787E-3
1.431027100E1,-8.921583183E-3,-4.127896391E-3,-5.992108025E-3
1.433054033E1,-8.388951421E-3,-1.265000552E-2,-5.459476262E-3
1.435080970E1,-1.198421605E-2,-1.531316526E-2,-9.187898599E-3
1.437107908E1,-1.091895252E-2,-1.318263728E-2,-7.590003312E-3
1.439134840E1,-4.660528619E-3,-7.323687430E-3,-4.394212738E-3
1.441161778E1,6.657897611E-4,2.796316985E-3,-5.459476262E-3
1.443188710E1,4.926844500E-3,5.992108025E-3,-5.992108025E-3
1.445215647E1,4.926844500E-3,8.655266836E-3,-4.926844500E-3
1.447242590E1,3.328948980E-3,5.459476262E-3,-2.796316985E-3
1.449269522E1,1.731053460E-3,1.731053460E-3,1.464737463E-3
1.451296460E1,1.331579551E-4,-2.530001104E-3,5.193160381E-3
1.453323392E1,1.198421582E-3,-1.464737463E-3,6.258423906E-3
1.455350330E1,2.796316985E-3,2.263685223E-3,3.062632866E-3
1.457377262E1,4.394212738E-3,5.992108025E-3,2.530001104E-3
1.459404200E1,4.926844500E-3,3.328948980E-3,4.660528619E-3
1.461431132E1,5.459476262E-3,1.198421582E-3,5.193160381E-3
1.463458069E1,6.524739787E-3,5.459476262E-3,8.921583183E-3
1.465485002E1,8.655266836E-3,1.131842658E-2,1.105211023E-2
1.467511934E1,1.025316212E-2,1.185105834E-2,1.051947847E-2
1.469538871E1,9.720530361E-3,7.590003312E-3,9.986846708E-3
1.471565804E1,1.078579482E-2,5.992108025E-3,9.454214945E-3
1.473592736E1,1.291632187E-2,9.720530361E-3,9.454214945E-3
1.475619674E1,1.664474420E-2,1.611211337E-2,9.986846708E-3
1.477646606E1,2.037316747E-2,1.824264042E-2,1.158474199E-2
1.479673543E1,2.143843099E-2,2.090579830E-2,1.478053257E-2
1.481713543E1,1.984053478E-2,2.303632535E-2,1.584579609E-2
1.483727408E1,1.664474420E-2,2.410159074E-2,1.797632314E-2
1.485754340E1,1.557948068E-2,1.344895363E-2,1.531316526E-2
1.487781278E1,1.238369010E-2,9.187898599E-3,1.531316526E-2
1.489808210E1,9.720530361E-3,7.590003312E-3,1.211737376E-2
1.491835142E1,5.992108025E-3,2.796316985E-3,7.856319658E-3
1.493862075E1,1.731053460E-3,3.328948980E-3,6.791055668E-3
1.495889007E1,4.394212738E-3,1.731053460E-3,8.388951421E-3
1.497915944E1,1.344895363E-2,1.078579482E-2,6.258423906E-3
1.499942877E1,1.930790395E-2,1.930790395E-2,5.725792143E-3
1.501969809E1,1.664474420E-2,1.877527125E-2,5.725792143E-3
1.503996741E1,1.557948068E-2,1.344895363E-2,8.921583183E-3
1.506023674E1,1.185105834E-2,9.720530361E-3,1.158474199E-2
1.508050611E1,9.187898599E-3,7.590003312E-3,1.211737376E-2
1.510090611E1,9.720530361E-3,4.926844500E-3,9.454214945E-3
1.512120267E1,1.025316212E-2,6.524739787E-3,5.725792143E-3
1.514131465E1,1.185105834E-2,9.187898599E-3,4.660528619E-3
1.516158387E1,1.185105834E-2,1.078579482E-2,6.791055668E-3
1.518185309E1,1.185105834E-2,1.025316212E-2,8.388951421E-3
1.520212231E1,1.025316212E-2,7.590003312E-3,1.371526904E-2
1.522252231E1,8.122635074E-3,4.394212738E-3,1.371526904E-2
1.524266095E1,7.590003312E-3,2.796316985E-3,1.158474199E-2
1.526293022E1,7.590003312E-3,2.263685223E-3,1.105211023E-2
1.528319950E1,7.590003312E-3,3.861580743E-3,8.921583183E-3
1.530346877E1,7.590003312E-3,5.992108025E-3,7.323687430E-3
1.532386877E1,7.590003312E-3,7.590003312E-3,1.464737463E-3
1.534400741E1,6.524739787E-3,3.861580743E-3,9.321057005E-4
1.536427674E1,5.459476262E-3,1.331579551E-4,3.994738800E-4
1.538454606E1,3.861580743E-3,1.331579551E-4,-1.331579551E-4
1.540481538E1,6.657897611E-4,1.198421582E-3,9.321057005E-4
1.542521538E1,-3.994738800E-4,-1.997369342E-3,2.530001104E-3
1.544535403E1,3.328948980E-3,-2.530001104E-3,-1.198421582E-3
1.546562330E1,2.263685223E-3,2.796316985E-3,-1.198421582E-3
1.548589262E1,-3.994738800E-4,-7.856319658E-3,1.464737463E-3
1.554162137E1,-3.595264861E-3,-5.725792143E-3,5.193160381E-3
1.556183439E1,3.861580743E-3,1.731053460E-3,1.997369342E-3
1.558209351E1,7.057371549E-3,1.238369010E-2,-3.328948980E-3
1.560237413E1,7.057371549E-3,9.187898599E-3,-2.263685223E-3
1.562264324E1,2.796316985E-3,-1.464737463E-3,-1.331579551E-4
1.564291252E1,6.657897611E-4,-6.791055668E-3,9.321057005E-4
1.566318179E1,1.731053460E-3,-2.530001104E-3,3.062632866E-3
1.568345116E1,-1.464737463E-3,-3.994738800E-4,-1.331579551E-4
1.570372049E1,-2.530001104E-3,6.657897611E-4,-1.198421582E-3
1.572398970E1,-1.464737463E-3,-3.994738800E-4,-1.198421582E-3
1.574425908E1,-2.530001104E-3,-3.994738800E-4,-1.198421582E-3
1.576452840E1,-2.530001104E-3,-1.464737463E-3,-2.263685223E-3
1.578479772E1,-3.595264861E-3,-2.530001104E-3,-4.394212738E-3
1.580506700E1,-3.595264861E-3,-3.595264861E-3,-4.394212738E-3
1.582533632E1,-1.464737463E-3,-3.595264861E-3,-4.394212738E-3
1.584560564E1,-3.595264861E-3,-5.725792143E-3,-3.328948980E-3
1.586587496E1,-6.791055668E-3,-1.211737376E-2,-4.394212738E-3
1.588614429E1,-9.853689000E-3,-1.318263728E-2,-7.590003312E-3
1.590641356E1,-1.518000662E-2,-1.318263728E-2,-1.185105834E-2
1.592681356E1,-2.370211668E-2,-1.424790081E-2,-1.504684892E-2
1.594695215E1,-2.370211668E-2,-1.211737376E-2,-1.930790395E-2
1.596722147E1,-1.091895252E-2,1.731053460E-3,-9.720530361E-3
1.598749080E1,-1.464737463E-3,1.664474420E-2,1.584579609E-2
1.600776007E1,4.926844500E-3,8.122635074E-3,3.821633384E-2
1.602816007E1,1.664474420E-2,-2.530001104E-3,4.873581231E-2
1.604829871E1,1.557948068E-2,6.657897611E-4,4.660528526E-2
1.606856804E1,1.731053460E-3,-2.530001104E-3,2.969422378E-2
1.608883731E1,-4.660528619E-3,-1.744369231E-2,8.388951421E-3
1.610910658E1,-4.660528619E-3,-1.211737376E-2,-7.590003312E-3
1.612950658E1,-3.994738800E-4,-6.791055668E-3,-1.504684892E-2
1.614964517E1,2.796316985E-3,-9.986846708E-3,-1.717737690E-2
1.616991450E1,-3.994738800E-4,-5.725792143E-3,-2.143843099E-2
1.619018382E1,-4.660528619E-3,-7.856319658E-3,-2.569948509E-2
1.621058382E1,-8.921583183E-3,-1.318263728E-2,-2.676474862E-2
1.623072236E1,-1.518000662E-2,-1.531316526E-2,-3.209106624E-2
1.625099168E1,-1.624527015E-2,-6.791055668E-3,-3.528685868E-2
1.627126095E1,-1.304947957E-2,1.731053460E-3,-3.315633163E-2
1.629153028E1,-9.853689000E-3,4.926844500E-3,-2.783001214E-2
1.631179955E1,-8.921583183E-3,3.861580743E-3,-2.356895804E-2
1.633206882E1,-7.856319658E-3,1.731053460E-3,-1.824264042E-2
1.635233814E1,-5.725792143E-3,6.657897611E-4,-1.185105834E-2
1.637260741E1,-6.791055668E-3,-1.464737463E-3,-6.524739787E-3
1.639287668E1,-6.791055668E-3,-3.595264861E-3,-3.328948980E-3
1.641314600E1,-4.660528619E-3,-7.856319658E-3,-5.459476262E-3
1.643341528E1,6.657897611E-4,-4.660528619E-3,-4.394212738E-3
1.645368455E1,2.796316985E-3,-1.464737463E-3,-1.198421582E-3
1.647395387E1,1.731053460E-3,-6.791055668E-3,9.321057005E-4
1.649422314E1,-2.530001104E-3,-1.211737376E-2,9.321057005E-4
1.651449241E1,-5.725792143E-3,-1.424790081E-2,-4.394212738E-3
1.653476168E1,-6.791055668E-3,-1.211737376E-2,-8.655266836E-3
1.655503095E1,-2.530001104E-3,-7.856319658E-3,-1.185105834E-2
1.657530028E1,6.657897611E-4,-2.530001104E-3,-1.291632187E-2
1.659556955E1,-3.994738800E-4,-2.530001104E-3,-1.078579482E-2
1.661583882E1,-3.595264861E-3,-9.986846708E-3,-8.655266836E-3
1.663610809E1,-8.921583183E-3,-1.105211023E-2,-8.655266836E-3
1.665637736E1,-9.853689000E-3,-8.921583183E-3,-1.078579482E-2
1.667664663E1,-7.856319658E-3,-8.921583183E-3,-1.185105834E-2
1.669691590E1,-7.856319658E-3,-1.318263728E-2,-6.524739787E-3
1.671718517E1,-1.091895252E-2,-1.531316526E-2,-2.263685223E-3
1.673745444E1,-1.518000662E-2,-9.986846708E-3,-7.590003312E-3
1.675772371E1,-1.411474310E-2,-3.595264861E-3,-1.824264042E-2
1.677799298E1,-5.725792143E-3,1.731053460E-3,-2.356895804E-2
1.679826226E1,-3.595264861E-3,-4.660528619E-3,-2.143843099E-2
1.681853153E1,-1.091895252E-2,-1.531316526E-2,-1.611211337E-2
1.683880080E1,-1.944106072E-2,-2.490053698E-2,-1.291632187E-2
1.685907007E1,-2.050632425E-2,-2.596580051E-2,-1.185105834E-2
1.687933934E1,-1.624527015E-2,-1.957421936E-2,-1.078579482E-2
1.689960861E1,-1.091895252E-2,-1.531316526E-2,-1.185105834E-2
1.691987783E1,-6.791055668E-3,-1.531316526E-2,-1.398158539E-2
1.694014710E1,-3.595264861E-3,-1.105211023E-2,-1.185105834E-2
1.696041637E1,-3.595264861E-3,-6.791055668E-3,-8.655266836E-3
1.698068564E1,-4.660528619E-3,-6.791055668E-3,-5.459476262E-3
1.700108564E1,-7.856319658E-3,-5.725792143E-3,-1.198421582E-3
1.702122413E1,-9.853689000E-3,-8.921583183E-3,-1.331579551E-4
1.704149335E1,-9.853689000E-3,-9.986846708E-3,-1.198421582E-3
1.706176267E1,-7.856319658E-3,-7.856319658E-3,-5.459476262E-3
1.708203194E1,-6.791055668E-3,-6.791055668E-3,-8.655266836E-3
1.710230121E1,-6.791055668E-3,-5.725792143E-3,-1.291632187E-2
1.712257043E1,-4.660528619E-3,-5.725792143E-3,-1.504684892E-2
1.714283970E1,-3.595264861E-3,-3.595264861E-3,-1.398158539E-2
1.716310897E1,-3.994738800E-4,-1.464737463E-3,-1.291632187E-2
1.718337819E1,2.796316985E-3,1.731053460E-3,-7.590003312E-3
1.720364741E1,3.861580743E-3,4.926844500E-3,1.997369342E-3
1.722391668E1,-3.994738800E-4,5.992108025E-3,5.193160381E-3
1.724418595E1,-4.660528619E-3,1.731053460E-3,6.258423906E-3
1.726445522E1,-3.595264861E-3,-7.856319658E-3,3.062632866E-3
1.728472444E1,-3.595264861E-3,-1.211737376E-2,-1.198421582E-3
1.730499371E1,-2.530001104E-3,-1.211737376E-2,-1.331579551E-4
1.732526293E1,-3.994738800E-4,-6.791055668E-3,3.062632866E-3
1.734553215E1,2.796316985E-3,2.796316985E-3,3.062632866E-3
1.736580142E1,9.187898599E-3,9.187898599E-3,3.062632866E-3
1.738607064E1,1.025316212E-2,1.025316212E-2,3.062632866E-3
1.740633991E1,2.796316985E-3,4.926844500E-3,9.321057005E-4
1.742673991E1,-4.660528619E-3,-3.595264861E-3,-2.263685223E-3
1.744687835E1,-8.921583183E-3,-9.986846708E-3,-4.394212738E-3
1.746714762E1,-7.856319658E-3,-7.856319658E-3,-4.394212738E-3
1.748741684E1,-4.660528619E-3,-1.464737463E-3,-6.524739787E-3
1.750768606E1,-3.994738800E-4,3.861580743E-3,-6.524739787E-3
1.752808606E1,-3.994738800E-4,3.861580743E-3,-4.394212738E-3
1.754822455E1,6.657897611E-4,6.657897611E-4,-1.198421582E-3
1.756849377E1,-3.994738800E-4,3.861580743E-3,3.062632866E-3
1.758876299E1,-3.994738800E-4,5.992108025E-3,8.388951421E-3
1.760903226E1,2.796316985E-3,8.122635074E-3,1.584579609E-2
1.762943226E1,6.657897611E-4,2.197106183E-2,3.395527974E-2
1.764957069E1,-6.791055668E-3,3.049317189E-2,4.034686089E-2
1.766983991E1,-7.856319658E-3,1.131842658E-2,4.141212255E-2
1.769010918E1,1.344895363E-2,-9.986846708E-3,4.447475821E-2
1.771037840E1,3.795001656E-2,1.664474420E-2,4.980107397E-2
1.773077840E1,4.327633604E-2,4.008054361E-2,4.354264960E-2
1.775091684E1,2.516685426E-2,2.729738131E-2,3.075948730E-2
1.777118606E1,4.926844500E-3,3.861580743E-3,1.158474199E-2
1.779145528E1,-3.595264861E-3,-1.211737376E-2,-4.394212738E-3
1.781172450E1,-7.856319658E-3,-1.105211023E-2,-1.291632187E-2
1.783199371E1,-7.856319658E-3,-1.424790081E-2,-1.611211337E-2
1.785226293E1,-4.660528619E-3,-1.744369231E-2,-1.291632187E-2
1.787253215E1,-2.530001104E-3,-1.318263728E-2,-7.590003312E-3
1.789280132E1,-3.994738800E-4,-5.725792143E-3,-5.459476262E-3
1.791307059E1,6.657897611E-4,7.057371549E-3,-7.590003312E-3
1.793333981E1,2.796316985E-3,1.557948068E-2,-7.590003312E-3
1.795360903E1,5.992108025E-3,1.344895363E-2,-4.394212738E-3
1.797387824E1,5.992108025E-3,5.992108025E-3,-3.328948980E-3
1.799414746E1,2.796316985E-3,6.657897611E-4,-2.263685223E-3
1.801441668E1,-2.530001104E-3,-3.994738800E-4,-4.394212738E-3
1.803468590E1,-5.725792143E-3,-3.595264861E-3,-6.524739787E-3
1.805495512E1,-6.791055668E-3,-9.986846708E-3,-6.524739787E-3
1.807522434E1,-4.660528619E-3,-1.105211023E-2,-8.655266836E-3
1.809549350E1,-4.660528619E-3,-6.791055668E-3,-1.185105834E-2
1.811576272E1,-6.791055668E-3,-4.660528619E-3,-1.291632187E-2
1.813603194E1,-2.530001104E-3,-1.464737463E-3,-8.655266836E-3
1.815630116E1,6.657897611E-4,2.796316985E-3,9.321057005E-4
1.817657033E1,1.731053460E-3,-1.464737463E-3,7.323687430E-3
1.819683955E1,1.731053460E-3,-9.986846708E-3,4.127896391E-3
1.821710877E1,6.657897611E-4,-8.921583183E-3,-5.459476262E-3
1.823737799E1,1.731053460E-3,-3.994738800E-4,-1.717737690E-2
1.825764715E1,3.861580743E-3,3.861580743E-3,-2.250369452E-2
1.827791637E1,2.796316985E-3,6.657897611E-4,-2.143843099E-2
1.829818559E1,-3.994738800E-4,-6.791055668E-3,-1.717737690E-2
1.831845476E1,-4.660528619E-3,-9.986846708E-3,-1.291632187E-2
1.833872397E1,-8.921583183E-3,-8.921583183E-3,-1.185105834E-2
1.835899314E1,-1.304947957E-2,-1.105211023E-2,-1.185105834E-2
1.837926236E1,-1.304947957E-2,-1.531316526E-2,-1.291632187E-2
1.839953153E1,-1.198421605E-2,-1.318263728E-2,-1.611211337E-2
1.841980074E1,-1.091895252E-2,-1.105211023E-2,-1.611211337E-2
1.844006996E1,-9.853689000E-3,-1.424790081E-2,-1.717737690E-2
1.846033913E1,-7.856319658E-3,-1.211737376E-2,-1.398158539E-2
1.848060830E1,-4.660528619E-3,-9.986846708E-3,-6.524739787E-3
1.850087752E1,-3.595264861E-3,-8.921583183E-3,-3.328948980E-3
1.852114668E1,-2.530001104E-3,6.657897611E-4,-2.263685223E-3
1.854141585E1,1.731053460E-3,7.057371549E-3,-1.198421582E-3
1.856168507E1,4.926844500E-3,5.992108025E-3,-2.263685223E-3
1.858195424E1,2.796316985E-3,-2.530001104E-3,-3.328948980E-3
1.860222340E1,-3.595264861E-3,-8.921583183E-3,-5.459476262E-3
1.862249262E1,-7.856319658E-3,-9.986846708E-3,-8.655266836E-3
1.864276179E1,-7.856319658E-3,-5.725792143E-3,-9.720530361E-3
1.866303095E1,-3.595264861E-3,-1.464737463E-3,-9.720530361E-3
1.868330017E1,1.731053460E-3,6.657897611E-4,-7.590003312E-3
1.870356934E1,3.861580743E-3,4.926844500E-3,-3.328948980E-3
1.872383850E1,5.992108025E-3,7.057371549E-3,1.997369342E-3
1.874410767E1,9.187898599E-3,7.057371549E-3,8.388951421E-3
1.876437689E1,9.187898599E-3,8.122635074E-3,1.265000552E-2
1.878464606E1,9.187898599E-3,8.122635074E-3,1.478053257E-2
1.880491522E1,1.025316212E-2,9.187898599E-3,1.265000552E-2
1.882518434E1,1.131842658E-2,9.187898599E-3,8.388951421E-3
1.884545356E1,1.238369010E-2,1.131842658E-2,3.062632866E-3
1.886572272E1,1.025316212E-2,1.025316212E-2,-1.331579551E-4
1.888599194E1,1.131842658E-2,1.025316212E-2,-1.331579551E-4
1.890626111E1,1.344895363E-2,1.131842658E-2,1.997369342E-3
1.892666111E1,1.451421715E-2,1.238369010E-2,8.388951421E-3
1.894679944E1,1.238369010E-2,1.344895363E-2,1.265000552E-2
1.896706861E1,8.122635074E-3,5.992108025E-3,1.371526904E-2
1.898733778E1,5.992108025E-3,3.861580743E-3,1.265000552E-2
1.900773778E1,5.992108025E-3,9.187898599E-3,1.158474199E-2
1.902803403E1,8.122635074E-3,8.122635074E-3,1.158474199E-2
1.904814585E1,4.926844500E-3,3.861580743E-3,8.388951421E-3
1.906841491E1,1.731053460E-3,2.796316985E-3,6.258423906E-3
1.908868397E1,3.861580743E-3,7.057371549E-3,5.193160381E-3
1.910895304E1,8.122635074E-3,1.344895363E-2,3.062632866E-3
1.912935304E1,1.238369010E-2,1.451421715E-2,9.321057005E-4
1.914949132E1,1.344895363E-2,1.131842658E-2,1.997369342E-3
1.916976038E1,9.187898599E-3,7.057371549E-3,1.997369342E-3
1.919002950E1,2.796316985E-3,1.731053460E-3,4.127896391E-3
1.921029861E1,-1.464737463E-3,-3.994738800E-4,4.127896391E-3
1.923056778E1,1.731053460E-3,6.657897611E-4,5.193160381E-3
1.925083694E1,4.926844500E-3,2.796316985E-3,9.454214945E-3
1.927110611E1,7.057371549E-3,3.861580743E-3,9.454214945E-3
1.929137528E1,8.122635074E-3,3.861580743E-3,9.454214945E-3
1.931164439E1,7.057371549E-3,4.926844500E-3,9.454214945E-3
1.933191356E1,8.122635074E-3,4.926844500E-3,1.158474199E-2
1.935218267E1,8.122635074E-3,5.992108025E-3,1.265000552E-2
1.937245179E1,9.187898599E-3,4.926844500E-3,1.584579609E-2
1.939272095E1,1.025316212E-2,2.796316985E-3,1.478053257E-2
1.941299012E1,9.187898599E-3,2.796316985E-3,1.371526904E-2
1.943325929E1,7.057371549E-3,5.992108025E-3,1.051947847E-2
1.945352840E1,3.861580743E-3,9.187898599E-3,3.062632866E-3
1.947379752E1,2.796316985E-3,9.187898599E-3,-1.198421582E-3
1.949406668E1,3.861580743E-3,5.992108025E-3,-2.263685223E-3
1.951433585E1,3.861580743E-3,3.861580743E-3,-1.331579551E-4
1.953473585E1,6.657897611E-4,3.861580743E-3,3.062632866E-3
1.955487418E1,6.657897611E-4,4.926844500E-3,5.193160381E-3
1.957514330E1,3.861580743E-3,4.926844500E-3,5.193160381E-3
1.959541246E1,1.731053460E-3,-1.464737463E-3,8.388951421E-3
1.961568158E1,-6.791055668E-3,-1.744369231E-2,9.454214945E-3
1.963595075E1,-1.624527015E-2,-2.170474641E-2,7.323687430E-3
1.965621991E1,-1.411474310E-2,-1.424790081E-2,4.127896391E-3
1.967648903E1,-4.660528619E-3,-2.530001104E-3,1.997369342E-3
1.969675819E1,1.731053460E-3,5.992108025E-3,-1.331579551E-4
1.971702731E1,6.657897611E-4,2.796316985E-3,-1.198421582E-3
1.973729642E1,-4.660528619E-3,-2.530001104E-3,-4.394212738E-3
1.975756559E1,-6.791055668E-3,-6.791055668E-3,-7.590003312E-3
1.977783470E1,-9.853689000E-3,-9.986846708E-3,-1.185105834E-2
1.979810387E1,-1.198421605E-2,-1.105211023E-2,-1.504684892E-2
1.981837298E1,-1.304947957E-2,-5.725792143E-3,-1.717737690E-2
1.983864210E1,-1.091895252E-2,-1.464737463E-3,-1.291632187E-2
1.985891127E1,-9.853689000E-3,-2.530001104E-3,-8.655266836E-3
1.987918038E1,-1.091895252E-2,-5.725792143E-3,-4.394212738E-3
1.989944950E1,-1.304947957E-2,-8.921583183E-3,-2.263685223E-3
1.991971866E1,-1.624527015E-2,-1.105211023E-2,-1.198421582E-3
1.993998778E1,-1.624527015E-2,-7.856319658E-3,-2.263685223E-3
1.996025689E1,-1.304947957E-2,-7.856319658E-3,-4.394212738E-3
1.998052600E1,-1.091895252E-2,-9.986846708E-3,-5.459476262E-3
2.000079512E1,-9.853689000E-3,-7.856319658E-3,-7.590003312E-3
2.002106429E1,-7.856319658E-3,-4.660528619E-3,-1.078579482E-2
2.004133340E1,-4.660528619E-3,-4.660528619E-3,-1.185105834E-2
2.006160252E1,-3.595264861E-3,-4.660528619E-3,-6.524739787E-3
2.008187163E1,-2.530001104E-3,-4.660528619E-3,-2.263685223E-3
2.010214069E1,-1.464737463E-3,-4.660528619E-3,9.321057005E-4
2.012240986E1,-3.595264861E-3,-4.660528619E-3,3.062632866E-3
2.014267897E1,-4.660528619E-3,-6.791055668E-3,1.997369342E-3
2.016294814E1,-6.791055668E-3,-5.725792143E-3,-1.331579551E-4
2.018321726E1,-9.853689000E-3,-6.791055668E-3,-2.263685223E-3
2.020348637E1,-1.304947957E-2,-1.318263728E-2,-6.524739787E-3
2.022375548E1,-1.731053367E-2,-1.211737376E-2,-8.655266836E-3
2.024402460E1,-1.411474310E-2,-7.856319658E-3,-5.459476262E-3
2.026429371E1,-1.091895252E-2,-3.595264861E-3,-2.263685223E-3
2.028456283E1,-5.725792143E-3,6.657897611E-4,-2.263685223E-3
2.030496156E1,-3.994738800E-4,4.926844500E-3,-1.331579551E-4
2.032509978E1,-2.530001104E-3,9.187898599E-3,-1.331579551E-4
2.034536890E1,-5.725792143E-3,8.122635074E-3,9.321057005E-4
2.036563801E1,-8.921583183E-3,6.657897611E-4,1.997369342E-3
2.038590713E1,-1.198421605E-2,-4.660528619E-3,9.321057005E-4
2.040617619E1,-1.091895252E-2,-5.725792143E-3,-2.263685223E-3
2.042657619E1,-4.660528619E-3,-1.464737463E-3,-4.394212738E-3
2.044671442E1,-1.464737463E-3,1.731053460E-3,-7.590003312E-3
2.046698353E1,-2.530001104E-3,1.731053460E-3,-7.590003312E-3
2.048725265E1,-3.595264861E-3,6.657897611E-4,-5.459476262E-3
2.050752176E1,-6.791055668E-3,-5.725792143E-3,-2.263685223E-3
2.052792176E1,-1.411474310E-2,-1.957421936E-2,3.062632866E-3
2.054805994E1,-2.050632425E-2,-3.555317223E-2,1.051947847E-2
2.056832906E1,-2.476738021E-2,-4.727107286E-2,1.691105962E-2
2.058859817E1,-3.648528084E-2,-6.538055837E-2,1.904158667E-2
2.062413619E1,-5.459476262E-2,-6.697845459E-2,-1.717737690E-2
2.064440546E1,-3.222422674E-2,-2.490053698E-2,-1.930790395E-2
2.066467458E1,-1.251684781E-2,-7.856319658E-3,-1.664474420E-2
2.068494364E1,5.992108025E-3,4.394212738E-3,-1.398158539E-2
2.070521275E1,9.720530361E-3,5.459476262E-3,-1.731053460E-3
2.072561275E1,-9.321057005E-4,-1.464737463E-3,6.258423906E-3
2.074575093E1,-5.725792143E-3,-3.062632866E-3,8.921583183E-3
2.076601999E1,1.731053460E-3,2.263685223E-3,7.323687430E-3
2.078628911E1,8.122635074E-3,1.664474420E-2,3.062632866E-3
2.080655817E1,1.185105834E-2,2.996053919E-2,4.127896391E-3
2.082682728E1,1.504684892E-2,2.996053919E-2,9.454214945E-3
2.084709635E1,2.090579830E-2,2.942790836E-2,1.424790081E-2
2.086736546E1,2.410159074E-2,3.954791278E-2,1.424790081E-2
2.088763452E1,2.569948509E-2,5.020054802E-2,1.318263728E-2
2.090790364E1,2.623211779E-2,4.966791719E-2,1.211737376E-2
2.092817270E1,2.889527567E-2,4.114580899E-2,1.318263728E-2
2.094844176E1,3.475422785E-2,3.581948951E-2,1.371526904E-2
2.096871088E1,4.221107066E-2,3.901528195E-2,1.105211023E-2
2.098897994E1,4.487423226E-2,4.487423226E-2,6.791055668E-3
2.100924900E1,4.540686309E-2,4.966791719E-2,-1.331579551E-4
2.102951812E1,4.434159771E-2,5.073318258E-2,3.595264861E-3
2.104991812E1,4.008054361E-2,4.221107066E-2,8.921583183E-3
2.107005624E1,3.368896246E-2,2.569948509E-2,1.797632314E-2
2.109032536E1,2.463422157E-2,1.557948068E-2,2.436790615E-2
2.111059442E1,1.984053478E-2,1.185105834E-2,2.809632942E-2
2.113086348E1,1.717737690E-2,9.720530361E-3,3.129211813E-2
2.115113260E1,1.451421715E-2,6.524739787E-3,2.969422378E-2
2.117140166E1,1.078579482E-2,8.655266836E-3,2.117211558E-2
2.119167072E1,1.291632187E-2,1.291632187E-2,1.211737376E-2
2.121193978E1,1.291632187E-2,1.664474420E-2,3.062632866E-3
2.123220885E1,1.451421715E-2,2.090579830E-2,-2.796316985E-3
2.125247796E1,1.504684892E-2,1.824264042E-2,-2.796316985E-3
2.127274702E1,1.131842658E-2,1.664474420E-2,1.464737463E-3
2.129301609E1,5.992108025E-3,1.185105834E-2,5.725792143E-3
2.131328515E1,4.394212738E-3,7.590003312E-3,7.323687430E-3
2.133355421E1,-3.994738800E-4,9.720530361E-3,1.051947847E-2
2.135382327E1,1.331579551E-4,-3.595264861E-3,1.531316526E-2
2.137409234E1,-2.530001104E-3,-1.158474199E-2,1.531316526E-2
2.139436145E1,-2.530001104E-3,-9.986846708E-3,1.105211023E-2
2.141463051E1,3.861580743E-3,1.331579551E-4,-1.331579551E-4
2.143489958E1,5.459476262E-3,1.131842658E-2,-7.590003312E-3
2.145516864E1,2.796316985E-3,4.926844500E-3,-8.655266836E-3
2.147543770E1,-2.530001104E-3,-8.388951421E-3,-5.992108025E-3
2.149570671E1,-6.258423906E-3,-1.478053257E-2,-4.926844500E-3
2.151597583E1,-7.856319658E-3,-1.691105962E-2,-8.122635074E-3
2.153624489E1,-8.921583183E-3,-1.478053257E-2,-1.291632187E-2
2.155651395E1,-9.853689000E-3,-1.105211023E-2,-1.451421715E-2
2.157678301E1,-1.251684781E-2,-9.454214945E-3,-1.504684892E-2
2.159705208E1,-1.251684781E-2,-1.371526904E-2,-1.078579482E-2
2.161732109E1,-1.731053367E-2,-2.330264263E-2,-7.057371549E-3
2.163759015E1,-2.263685316E-2,-3.235738352E-2,-5.459476262E-3
2.165785921E1,-2.636527456E-2,-2.916159295E-2,-5.992108025E-3
2.167812827E1,-2.902843431E-2,-1.850895584E-2,-5.992108025E-3
2.169839734E1,-3.648528084E-2,-2.436790615E-2,-9.720530361E-3
2.171866640E1,-3.755054250E-2,-5.313002318E-2,-1.238369010E-2
2.173893546E1,-3.009369783E-2,-5.472791940E-2,-2.037316747E-2
2.175920447E1,-1.890842989E-2,-4.354264960E-2,-3.422159329E-2
2.177947353E1,-2.157158963E-2,-2.436790615E-2,-5.126581341E-2
2.179974260E1,-3.062633052E-2,-3.555317223E-2,-6.191844866E-2
2.182001166E1,-4.340949282E-2,-9.680583328E-2,-5.765739456E-2
2.184028072E1,-5.459476262E-2,-1.724395454E-1,-5.499423668E-2
2.186054973E1,-7.110634446E-2,-2.113216817E-1,-8.322372288E-2
2.188081880E1,-1.110537350E-1,-2.745717168E-1,-1.146489978E-1
2.190108786E1,-1.435442716E-1,-2.948117256E-1,-1.940111369E-1
2.192148786E1,-1.744369268E-1,-2.724411786E-1,-2.978743315E-1
2.194162593E1,-1.989379823E-1,-3.107906580E-1,-3.910849094E-1
2.196189499E1,-2.234390527E-1,-3.874896467E-1,-4.789691567E-1
2.198216406E1,-2.442116886E-1,-4.748412669E-1,-4.985433817E-1
2.200243312E1,-2.719085515E-1,-5.249086618E-1,-4.528702199E-1
2.202283312E1,-2.900180221E-1,-4.881570637E-1,-3.729754388E-1
2.204297119E1,-3.502054214E-1,-4.301002026E-1,-3.218427896E-1
2.206327958E1,-4.055991173E-1,-2.990727723E-1,-3.213101327E-1
2.208350932E1,-3.944138587E-1,-2.527337968E-1,-2.733732760E-1
2.210377838E1,-3.608580530E-1,-2.522011697E-1,-2.062616795E-1
2.212417838E1,-3.161169887E-1,-2.548643351E-1,-1.652490199E-1
2.214431645E1,-2.921485603E-1,-3.320959508E-1,-9.440898895E-2
2.216458546E1,-2.932138145E-1,-3.912180662E-1,-8.122635074E-3
2.218485447E1,-3.198454082E-1,-3.784348965E-1,3.502054140E-2
2.220512353E1,-3.933486044E-1,-3.752391040E-1,6.684529036E-2
2.222539255E1,-4.769718051E-1,-3.443464637E-1,6.471476704E-2
2.224566161E1,-5.004075766E-1,-3.155843616E-1,2.277000993E-2
2.226593062E1,-4.998749495E-1,-3.081275225E-1,-3.475422785E-2
2.228619968E1,-4.178496599E-1,-3.278348744E-1,-7.203845680E-2
2.230646869E1,-3.065296113E-1,-3.539338410E-1,-4.860265180E-2
2.232686869E1,-2.878875136E-1,-3.661843836E-1,-4.061317816E-2
2.234700676E1,-3.075948656E-1,-2.820285559E-1,-6.404897571E-2
2.236727577E1,-2.713759243E-1,-1.985385120E-1,-9.600688517E-2
2.238754484E1,-2.053295672E-1,-1.633848101E-1,-5.978792161E-2
2.240781385E1,-1.488705873E-1,-1.346226931E-1,-1.611211337E-2
2.242808291E1,-1.009337306E-1,-9.414267540E-2,2.703106403E-2
2.244835192E1,-8.868319541E-2,-6.431528926E-2,1.584579609E-2
2.246862093E1,-5.406212807E-2,-4.034686089E-2,-1.504684892E-2
2.248888999E1,-2.210422046E-2,1.731053460E-3,-4.114580899E-2
2.250915900E1,-1.145158429E-2,3.262370080E-2,-5.819002539E-2
2.252942801E1,1.664474420E-2,3.209106624E-2,-4.807002097E-2
2.254969708E1,4.380896688E-2,8.748477697E-2,-3.581948951E-2
2.256996609E1,8.269108832E-2,1.391500682E-1,-2.676474862E-2
2.259023510E1,1.721732318E-1,2.163816839E-1,-3.209106624E-2
2.261050411E1,2.920154035E-1,3.605917394E-1,-3.848264739E-2
2.263077312E1,3.948133290E-1,5.310339332E-1,-2.729738131E-2
2.265104218E1,4.858933687E-1,6.514087319E-1,-9.187898599E-3
2.267131119E1,5.173186660E-1,6.631265879E-1,-6.524739787E-3
2.269158020E1,4.123901725E-1,6.391581893E-1,-3.954791278E-2
2.271184921E1,1.284974217E-1,5.518065691E-1,-9.281109273E-2
2.273211827E1,-7.643266767E-2,2.648511827E-1,-1.711079776E-1
2.275238723E1,-2.423474751E-2,-8.295740932E-2,-1.737711281E-1
2.277265630E1,2.410159074E-2,-4.087949172E-2,-1.263668984E-1
2.279292530E1,1.487374306E-1,2.653838098E-1,-1.231711060E-1
2.281319432E1,3.346259296E-1,4.974781275E-1,-1.364869028E-1
2.283346333E1,4.012049139E-1,5.491434336E-1,-7.949529588E-2
2.285373234E1,2.776343226E-1,3.366233110E-1,4.713791609E-2
2.287400135E1,8.056056499E-2,-3.555317223E-2,1.350221634E-1
2.289427036E1,-7.536740601E-2,-3.683148921E-1,1.238368973E-1
2.291453937E1,-1.733716577E-1,-3.560643792E-1,5.299686641E-2
2.293480838E1,-1.275653243E-1,-1.207742617E-1,-1.557948068E-2
2.295507739E1,2.516685426E-2,8.322372288E-2,-2.356895804E-2
2.297534640E1,1.205079481E-1,1.545963883E-1,7.163897902E-2
2.299561541E1,1.274321675E-1,1.418132186E-1,2.165148407E-1
2.301588442E1,6.884266436E-2,2.143843099E-2,3.400854170E-1
2.303615343E1,2.796316985E-3,-1.633848101E-1,3.832286000E-1
2.305642244E1,-2.902843431E-2,-2.559295893E-1,3.065296113E-1
2.307669140E1,-3.275685757E-2,-1.793637723E-1,1.531316489E-1
2.309696046E1,-1.464737463E-3,-6.697845459E-2,5.193160381E-3
2.311722947E1,4.167843983E-2,1.331579551E-4,-8.855003864E-2
2.313749848E1,5.872265995E-2,2.623211779E-2,-1.327584833E-1
2.315776744E1,5.339634046E-2,-1.531316526E-2,-1.428784877E-1
2.317803645E1,4.593949392E-2,-1.015995219E-1,-1.311605871E-1
2.319830546E1,3.368896246E-2,-1.474058628E-1,-1.242363751E-1
2.321857447E1,2.250369452E-2,-1.399490088E-1,-1.253016293E-1
2.323884343E1,2.250369452E-2,-9.893636405E-2,-1.263668984E-1
2.325911244E1,2.889527567E-2,-4.940159991E-2,-1.322258562E-1
2.327938145E1,3.581948951E-2,-1.478053257E-2,-1.396826953E-1
2.329965046E1,3.475422785E-2,-2.223737910E-2,-1.407479644E-1
2.331991947E1,2.410159074E-2,-5.898897350E-2,-1.386174262E-1
2.334018848E1,-5.725792143E-3,-7.177213579E-2,-1.434111148E-1
2.336045744E1,-4.340949282E-2,-4.301001877E-2,-1.657816470E-1
2.338072645E1,-4.873581231E-2,1.185105834E-2,-2.030658871E-1
2.340099546E1,-2.743053809E-2,4.487423226E-2,-2.270343155E-1
2.342139546E1,-8.921583183E-3,4.966791719E-2,-2.265016884E-1
2.344153343E1,-1.464737463E-3,4.274370521E-2,-2.201101035E-1
2.346180244E1,-1.997369342E-2,3.795001656E-2,-2.259690464E-1
2.348207145E1,-4.767054692E-2,1.398158539E-2,-2.211753577E-1
2.350234041E1,-3.595264629E-2,1.664474420E-2,-1.982721984E-1
2.352274041E1,3.581948951E-2,-1.531316526E-2,-1.700427085E-1
2.354287838E1,8.695214242E-2,-2.170474641E-2,-1.039963663E-1
2.356314739E1,9.494162351E-2,3.328948980E-3,-3.475422785E-2
2.358341635E1,9.867004305E-2,1.611211337E-2,2.170474641E-2
2.360368536E1,1.077247858E-1,4.926844500E-3,7.004108280E-2
2.362408536E1,1.023984700E-1,-1.584579609E-2,1.318263710E-1
2.364422333E1,5.552686751E-2,-1.105211023E-2,1.808284968E-1
2.366449234E1,1.611211337E-2,-9.321057005E-4,1.866874546E-1
2.368476130E1,9.187898599E-3,2.090579830E-2,1.621863842E-1
2.370503025E1,3.635212034E-2,1.557948068E-2,1.291632205E-1
2.372543025E1,6.404897571E-2,-2.223737910E-2,9.560741484E-2
2.374556827E1,6.777740270E-2,-6.218476593E-2,7.962846011E-2
2.376583723E1,4.913528636E-2,-7.816372067E-2,7.430213690E-2
2.378610619E1,2.783001214E-2,-6.538055837E-2,6.684529036E-2
2.380637520E1,-3.994738800E-4,-6.271740049E-2,7.270424068E-2
2.382664416E1,-3.648528084E-2,-8.295740932E-2,9.560741484E-2
2.384691317E1,-7.270424068E-2,-1.106542572E-1,1.211737394E-1
2.386718213E1,-8.815056831E-2,-1.271658540E-1,1.430116445E-1
2.388745114E1,-7.590003312E-2,-9.946899116E-2,1.536642760E-1
2.390772010E1,-3.648528084E-2,-3.874896467E-2,1.573926955E-1
2.392798906E1,8.122635074E-3,3.528685868E-2,1.696432382E-1
2.394825807E1,4.167843983E-2,8.269108832E-2,1.792306006E-1
2.396852702E1,5.179844424E-2,7.363634557E-2,1.802958697E-1
2.398879598E1,4.008054361E-2,2.623211779E-2,1.802958697E-1
2.400906499E1,2.143843099E-2,-9.321057005E-4,1.605884880E-1
2.402933395E1,1.398158539E-2,-8.388951421E-3,1.291632205E-1
2.404960291E1,2.796316985E-3,5.992108025E-3,9.933583438E-2
2.406987187E1,-1.251684781E-2,3.155843541E-2,7.430213690E-2
2.409014088E1,-1.251684781E-2,3.581948951E-2,5.299686641E-2
2.411040984E1,-7.323687430E-3,2.889527567E-2,3.661843762E-2
2.413067880E1,1.331579551E-4,2.356895804E-2,2.596580051E-2
2.415094775E1,-7.856319658E-3,1.504684892E-2,2.543316968E-2
2.417121671E1,-4.340949282E-2,-1.637842879E-2,3.502054140E-2
2.419148572E1,-8.335687965E-2,-7.976161689E-2,2.862896025E-2
2.421175468E1,-1.147821546E-1,-8.242477477E-2,-8.122635074E-3
2.423202364E1,-1.041295230E-1,-1.464737463E-3,-5.712476373E-2
2.425229260E1,-4.340949282E-2,8.855003864E-2,-8.695214242E-2
2.427256150E1,1.185105834E-2,1.071921512E-1,-6.564687192E-2
2.429283051E1,2.889527567E-2,5.552686751E-2,-1.198421582E-3
2.431309947E1,1.984053478E-2,3.328948980E-3,6.897582114E-2
2.433336843E1,9.720530361E-3,-2.530001104E-3,1.158474237E-1
2.435363744E1,1.731053460E-3,9.720530361E-3,1.312937438E-1
2.437390635E1,-1.624527015E-2,3.049317189E-2,1.254348010E-1
2.439417536E1,-3.328948840E-2,6.032055244E-2,1.089232042E-1
2.441444432E1,-4.660528526E-2,8.588688076E-2,9.560741484E-2
2.443471322E1,-5.672528967E-2,9.227846563E-2,9.081372619E-2
2.445498223E1,-5.619265884E-2,7.629951090E-2,9.454214573E-2
2.447525114E1,-4.181159660E-2,5.925529078E-2,1.094558388E-1
2.449552015E1,-1.890842989E-2,4.061317816E-2,1.307611167E-1
2.451578911E1,-1.997369342E-3,1.238369010E-2,1.515337527E-1
2.453605807E1,3.861580743E-3,-3.075948730E-2,1.744369268E-1
2.455632697E1,-1.091895252E-2,-6.431528926E-2,1.973400861E-1
2.457659598E1,-3.701791167E-2,-8.135951310E-2,2.101232558E-1
2.459686494E1,-5.832318589E-2,-8.402267098E-2,2.042642981E-1
2.461713390E1,-6.205160543E-2,-7.709845901E-2,1.771000773E-1
2.463740286E1,-4.820318148E-2,-5.898897350E-2,1.382179558E-1
2.465767182E1,-2.530001104E-2,-4.301001877E-2,9.880319983E-2
2.467794077E1,3.861580743E-3,-2.277000993E-2,6.045371294E-2
2.469820973E1,1.717737690E-2,-1.424790081E-2,2.010685205E-2
2.471847869E1,1.398158539E-2,-2.223737910E-2,-1.717737690E-2
2.473874765E1,6.657897611E-4,-2.010685205E-2,-4.434159771E-2
2.475901661E1,-5.193160381E-3,-1.265000552E-2,-5.392897129E-2
2.477928557E1,-3.595264861E-3,-1.691105962E-2,-4.114580899E-2
2.479955452E1,-7.856319658E-3,-3.608580679E-2,-1.611211337E-2
2.481982348E1,-1.091895252E-2,-4.780370742E-2,-5.459476262E-3
2.484009244E1,-1.038632076E-2,-3.075948730E-2,-1.344895363E-2
2.486036140E1,-5.725792143E-3,-1.997369342E-3,-2.516685426E-2
2.488063036E1,-1.464737463E-3,8.655266836E-3,-3.422159329E-2
2.490089932E1,1.731053460E-3,2.263685223E-3,-3.368896246E-2
2.492129932E1,6.657897611E-4,-8.921583183E-3,-2.729738131E-2
2.494143728E1,-7.323687430E-3,-1.744369231E-2,-1.824264042E-2
2.496170624E1,-1.411474310E-2,-2.223737910E-2,-1.185105834E-2
2.498197520E1,-1.411474310E-2,-1.478053257E-2,-7.057371549E-3
2.500224416E1,-1.038632076E-2,3.861580743E-3,-6.657897611E-4
2.502264416E1,-5.725792143E-3,1.504684892E-2,6.791055668E-3
2.504278208E1,-7.856319658E-3,1.131842658E-2,2.117211558E-2
2.506305103E1,-1.464737486E-2,-7.323687430E-3,3.022685647E-2
2.508332004E1,-1.784316637E-2,-2.010685205E-2,3.235738352E-2
2.510358895E1,-2.157158963E-2,-1.691105962E-2,2.703106403E-2
2.512398895E1,-1.731053367E-2,-3.062632866E-3,1.744369231E-2
2.514412692E1,-6.791055668E-3,8.122635074E-3,1.904158667E-2
2.516439588E1,1.331579551E-4,6.524739787E-3,2.223737910E-2
2.518466484E1,-1.464737463E-3,-4.127896391E-3,2.703106403E-2
2.520493385E1,-7.856319658E-3,-1.371526904E-2,2.543316968E-2
2.522533385E1,-1.198421605E-2,-1.478053257E-2,2.170474641E-2
2.524547171E1,-1.091895252E-2,-1.997369342E-3,1.957421936E-2
2.526574077E1,-4.660528619E-3,5.459476262E-3,1.850895584E-2
2.528600973E1,-1.997369342E-3,5.459476262E-3,1.478053257E-2
2.530627869E1,-3.994738800E-4,-9.321057005E-4,8.921583183E-3
2.532642984E1,-9.321057005E-4,-6.258423906E-3,-6.657897611E-4
2.534681744E1,1.198421582E-3,-1.997369342E-3,-1.291632187E-2
2.536708588E1,3.861580743E-3,6.524739787E-3,-1.984053478E-2
2.538735478E1,6.657897611E-4,3.328948980E-3,-1.398158539E-2
2.540762369E1,-1.464737463E-3,-4.660528619E-3,-3.328948980E-3
2.542789265E1,-6.258423906E-3,-1.051947847E-2,-6.657897611E-4
2.544816161E1,-6.791055668E-3,-1.051947847E-2,-4.394212738E-3
2.546843062E1,-4.127896391E-3,-1.211737376E-2,-1.398158539E-2
2.548869958E1,1.198421582E-3,-9.986846708E-3,-2.090579830E-2
2.550896859E1,6.657897611E-4,-1.211737376E-2,-1.398158539E-2
2.552923754E1,-4.660528619E-3,-9.454214945E-3,-5.992108025E-3
2.554950656E1,-3.062632866E-3,2.263685223E-3,1.464737463E-3
2.556977546E1,3.861580743E-3,8.655266836E-3,4.127896391E-3
2.559004447E1,7.057371549E-3,8.655266836E-3,6.791055668E-3
2.561031343E1,2.263685223E-3,2.796316985E-3,7.856319658E-3
2.563058244E1,1.198421582E-3,2.796316985E-3,8.921583183E-3
2.565085145E1,6.524739787E-3,6.657897611E-4,7.856319658E-3
2.567112051E1,9.720530361E-3,-3.595264861E-3,2.530001104E-3
2.569138942E1,7.057371549E-3,-6.258423906E-3,-4.926844500E-3
2.571165838E1,1.331579551E-4,1.198421582E-3,-9.187898599E-3
2.573192739E1,-2.530001104E-3,1.291632187E-2,-3.328948980E-3
2.575219640E1,5.459476262E-3,1.877527125E-2,5.725792143E-3
2.577246536E1,9.720530361E-3,1.238369010E-2,1.478053257E-2
2.579273437E1,2.263685223E-3,-2.530001104E-3,1.637842879E-2
2.581300338E1,-6.791055668E-3,-1.478053257E-2,7.323687430E-3
2.583327228E1,-5.193160381E-3,-1.158474199E-2,-4.394212738E-3
2.585354135E1,-3.595264861E-3,-9.321057005E-4,-1.131842658E-2
2.587381036E1,-1.997369342E-3,2.263685223E-3,-8.655266836E-3
2.589407932E1,-1.464737463E-3,6.657897611E-4,-3.861580743E-3
2.591434833E1,4.394212738E-3,6.657897611E-4,-1.331579551E-4
2.593461734E1,9.187898599E-3,4.394212738E-3,-1.331579551E-4
2.595488630E1,1.131842658E-2,9.720530361E-3,9.321057005E-4
2.597515530E1,7.057371549E-3,1.611211337E-2,3.062632866E-3
2.599542426E1,2.263685223E-3,1.930790395E-2,6.791055668E-3
2.601569327E1,2.263685223E-3,1.185105834E-2,1.318263728E-2
2.603596228E1,-3.062632866E-3,3.328948980E-3,1.637842879E-2
2.605623130E1,-8.921583183E-3,-6.791055668E-3,1.211737376E-2
2.607650025E1,-7.323687430E-3,-1.158474199E-2,6.258423906E-3
2.609676926E1,-1.997369342E-3,-1.997369342E-3,7.856319658E-3
2.611703827E1,2.263685223E-3,5.992108025E-3,1.531316526E-2
2.613730723E1,5.992108025E-3,1.504684892E-2,2.170474641E-2
2.615757624E1,1.131842658E-2,2.303632535E-2,2.596580051E-2
2.617784525E1,1.398158539E-2,2.889527567E-2,2.809632942E-2
2.619811421E1,1.451421715E-2,2.783001214E-2,3.182475269E-2
2.621838322E1,1.131842658E-2,1.930790395E-2,3.129211813E-2
2.623865223E1,5.992108025E-3,1.185105834E-2,3.289001435E-2
2.625892119E1,4.394212738E-3,7.590003312E-3,3.182475269E-2
2.627919020E1,9.720530361E-3,7.057371549E-3,2.703106403E-2
2.629945921E1,1.717737690E-2,1.078579482E-2,1.797632314E-2
2.631972822E1,2.090579830E-2,1.984053478E-2,4.660528619E-3
2.633999718E1,2.250369452E-2,2.410159074E-2,-3.328948980E-3
2.636026619E1,2.197106183E-2,2.250369452E-2,-5.459476262E-3
2.638053520E1,2.090579830E-2,1.877527125E-2,-6.657897611E-4
2.640080416E1,1.984053478E-2,1.930790395E-2,4.127896391E-3
2.642120416E1,2.090579830E-2,2.037316747E-2,5.725792143E-3
2.644134218E1,2.037316747E-2,1.984053478E-2,5.725792143E-3
2.646161119E1,2.037316747E-2,1.984053478E-2,4.127896391E-3
2.648188015E1,1.930790395E-2,1.930790395E-2,3.595264861E-3
2.650214916E1,2.197106183E-2,1.824264042E-2,1.464737463E-3
2.652254916E1,2.090579830E-2,1.504684892E-2,-1.331579551E-4
2.654268718E1,1.930790395E-2,1.238369010E-2,1.464737463E-3
2.656295614E1,1.877527125E-2,1.930790395E-2,4.660528619E-3
2.658322515E1,1.771000773E-2,2.463422157E-2,9.986846708E-3
2.660349416E1,1.877527125E-2,2.623211779E-2,1.424790081E-2
2.662389416E1,2.250369452E-2,2.516685426E-2,1.637842879E-2
2.664403213E1,1.611211337E-2,1.984053478E-2,1.531316526E-2
2.666430114E1,4.394212738E-3,5.459476262E-3,1.424790081E-2
2.668457004E1,-1.997369342E-3,2.263685223E-3,1.371526904E-2
2.670483911E1,1.331579551E-4,7.057371549E-3,1.478053257E-2
2.672523911E1,1.078579482E-2,9.187898599E-3,1.424790081E-2
2.674537713E1,1.344895363E-2,1.131842658E-2,9.454214945E-3
2.676564609E1,1.451421715E-2,1.504684892E-2,5.193160381E-3
2.678591510E1,1.078579482E-2,1.930790395E-2,3.062632866E-3
2.680618411E1,7.590003312E-3,2.037316747E-2,6.258423906E-3
2.682645307E1,4.926844500E-3,2.250369452E-2,1.265000552E-2
2.684672208E1,6.524739787E-3,1.238369010E-2,1.850895584E-2
2.686699109E1,5.992108025E-3,8.122635074E-3,1.531316526E-2
2.688726004E1,7.057371549E-3,7.590003312E-3,8.921583183E-3
2.690752906E1,7.057371549E-3,9.720530361E-3,5.193160381E-3
2.692779807E1,7.057371549E-3,9.720530361E-3,4.127896391E-3
2.694806702E1,5.459476262E-3,6.524739787E-3,3.595264861E-3
2.696833603E1,4.394212738E-3,2.796316985E-3,5.725792143E-3
2.698860504E1,1.731053460E-3,-3.062632866E-3,2.530001104E-3
2.700887400E1,-3.595264861E-3,-1.105211023E-2,3.994738800E-4
2.702914301E1,-7.323687430E-3,-1.478053257E-2,-2.263685223E-3
2.704941202E1,-7.323687430E-3,-1.158474199E-2,-7.590003312E-3
2.706968098E1,-7.856319658E-3,-7.323687430E-3,-9.720530361E-3
2.708994999E1,-7.856319658E-3,-1.158474199E-2,-9.187898599E-3
2.711021895E1,-9.321057238E-3,-1.424790081E-2,-6.524739787E-3
2.713048796E1,-9.321057238E-3,-1.531316526E-2,-4.394212738E-3
2.715075697E1,-8.388951421E-3,-1.158474199E-2,-3.328948980E-3
2.717102593E1,-7.323687430E-3,-9.986846708E-3,-1.731053460E-3
2.719129494E1,-9.321057238E-3,-1.051947847E-2,-1.198421582E-3
2.721156390E1,-3.595264861E-3,-7.323687430E-3,-2.263685223E-3
2.723183291E1,-3.062632866E-3,-6.791055668E-3,-2.263685223E-3
2.725210192E1,-8.388951421E-3,-9.454214945E-3,3.994738800E-4
2.727237088E1,-1.198421605E-2,-1.797632314E-2,4.127896391E-3
2.729263989E1,-1.198421605E-2,-1.691105962E-2,8.921583183E-3
2.731290885E1,-7.856319658E-3,-1.211737376E-2,8.921583183E-3
2.733317786E1,-4.660528619E-3,-3.595264861E-3,2.530001104E-3
2.735344682E1,-1.091895252E-2,1.198421582E-3,-8.655266836E-3
2.737371583E1,-1.837579720E-2,-3.595264861E-3,-2.463422157E-2
2.739398478E1,-2.689790726E-2,-1.531316526E-2,-4.327633604E-2
2.741425380E1,-2.103895694E-2,-2.490053698E-2,-5.126581341E-2
2.743452270E1,-1.091895252E-2,-2.916159295E-2,-4.434159771E-2
2.745479176E1,-3.994738800E-4,-3.342264518E-2,-2.197106183E-2
2.747506072E1,7.590003312E-3,-2.543316968E-2,2.530001104E-3
2.749532973E1,1.824264042E-2,8.655266836E-3,1.211737376E-2
2.751559869E1,3.315633163E-2,3.528685868E-2,4.127896391E-3
2.753586770E1,3.475422785E-2,3.262370080E-2,-1.504684892E-2
2.755613666E1,3.155843541E-2,2.356895804E-2,-4.274370521E-2
2.757640567E1,2.783001214E-2,1.198421582E-3,-6.777740270E-2
2.759667463E1,-9.321057005E-4,-2.490053698E-2,-7.044056058E-2
2.761694364E1,-3.595264629E-2,-3.661843762E-2,-5.978792161E-2
2.763721260E1,-6.045371294E-2,-6.271740049E-2,-5.020054802E-2
2.765748161E1,-7.909582555E-2,-7.230477035E-2,-4.434159771E-2
2.767775057E1,-8.069372177E-2,-7.550056279E-2,-4.434159771E-2
2.769801952E1,-6.098634377E-2,-5.952160433E-2,-4.114580899E-2
2.771828848E1,-2.689790726E-2,-3.448791057E-2,-2.463422157E-2
2.773855749E1,-3.595264861E-3,-1.850895584E-2,-1.198421582E-3
2.775882645E1,-4.660528619E-3,-1.904158667E-2,1.744369231E-2
2.777922645E1,-1.890842989E-2,-3.075948730E-2,2.277000993E-2
2.779952234E1,-3.222422674E-2,-3.821633384E-2,1.371526904E-2
2.781979140E1,-3.808317333E-2,-3.661843762E-2,-1.331579551E-4
2.783990301E1,-3.435475379E-2,-3.768370301E-2,-1.557948068E-2
2.786017187E1,-2.689790726E-2,-4.407528415E-2,-2.090579830E-2
2.788044077E1,-1.571263932E-2,-3.928159550E-2,-4.926844500E-3
2.790070963E1,-1.518000662E-2,-3.715106845E-2,1.531316526E-2
2.792105723E1,-2.103895694E-2,-3.395527974E-2,2.649843320E-2
2.794124755E1,-2.530001104E-2,-2.809632942E-2,2.596580051E-2
2.796151640E1,-2.157158963E-2,-2.383527346E-2,1.904158667E-2
2.798178531E1,-1.411474310E-2,-2.010685205E-2,8.921583183E-3
2.800205426E1,-7.323687430E-3,-1.957421936E-2,3.595264861E-3
2.802245426E1,-7.856319658E-3,-1.691105962E-2,-1.198421582E-3
2.804259218E1,-1.198421605E-2,-3.062632866E-3,-9.187898599E-3
2.806286109E1,-1.091895252E-2,5.459476262E-3,-1.504684892E-2
2.808313004E1,-5.725792143E-3,1.238369010E-2,-2.250369452E-2
2.810339900E1,4.926844500E-3,2.516685426E-2,-2.783001214E-2
2.812379900E1,1.025316212E-2,3.209106624E-2,-2.942790836E-2
2.814393692E1,1.344895363E-2,2.569948509E-2,-2.090579830E-2
2.816420593E1,1.238369010E-2,1.771000773E-2,-6.524739787E-3
2.818447489E1,7.057371549E-3,1.451421715E-2,1.265000552E-2
2.820474374E1,5.992108025E-3,1.185105834E-2,3.289001435E-2
2.822514374E1,1.078579482E-2,5.992108025E-3,5.139897019E-2
2.824528171E1,5.992108025E-3,-1.464737463E-3,6.471476704E-2
2.826555062E1,-7.856319658E-3,-1.211737376E-2,6.897582114E-2
2.828581958E1,-1.251684781E-2,-1.957421936E-2,6.418213248E-2
2.830608859E1,-1.411474310E-2,-2.756369673E-2,5.512739345E-2
2.832648859E1,-1.784316637E-2,-3.928159550E-2,4.660528526E-2
2.834662650E1,-2.476738021E-2,-4.886896908E-2,4.301001877E-2
2.836689546E1,-1.997369342E-2,-4.247738793E-2,4.394212365E-2
2.838716447E1,-5.725792143E-3,-2.490053698E-2,4.247738793E-2
2.840743343E1,4.394212738E-3,-1.691105962E-2,3.661843762E-2
2.842770239E1,1.078579482E-2,-1.478053257E-2,2.330264263E-2
2.844797135E1,2.143843099E-2,-1.265000552E-2,1.105211023E-2
2.846824025E1,2.942790836E-2,-6.791055668E-3,8.388951421E-3
2.848850926E1,2.836264484E-2,-1.478053257E-2,2.063948289E-2
2.850877817E1,1.611211337E-2,-2.809632942E-2,3.555317223E-2
2.852904713E1,1.731053460E-3,-3.235738352E-2,4.354264960E-2
2.854931609E1,-2.530001104E-3,-2.490053698E-2,4.394212365E-2
2.856958504E1,5.992108025E-3,-1.265000552E-2,4.447475821E-2
2.858985400E1,2.143843099E-2,-1.464737463E-3,5.459476262E-2
2.861012296E1,3.422159329E-2,1.078579482E-2,6.578002870E-2
2.863039187E1,3.262370080E-2,1.930790395E-2,6.524740160E-2
2.865066083E1,1.557948068E-2,1.131842658E-2,4.980107397E-2
2.867092978E1,-6.791055668E-3,-1.051947847E-2,2.117211558E-2
2.869119874E1,-2.743053809E-2,-2.809632942E-2,-8.122635074E-3
2.871146770E1,-3.435475379E-2,-3.075948730E-2,-2.729738131E-2
2.873173666E1,-3.542001545E-2,-2.649843320E-2,-2.996053919E-2
2.875200562E1,-2.956106514E-2,-2.117211558E-2,-2.197106183E-2
2.877227452E1,-2.636527456E-2,-1.531316526E-2,-1.344895363E-2
2.879254348E1,-2.743053809E-2,-8.921583183E-3,-9.720530361E-3
2.881281244E1,-2.103895694E-2,-2.530001104E-3,-5.992108025E-3
2.883308140E1,-1.091895252E-2,-4.127896391E-3,-2.263685223E-3
2.885335031E1,-1.464737463E-3,2.263685223E-3,6.791055668E-3
2.887361926E1,3.328948980E-3,1.131842658E-2,1.691105962E-2
2.889388822E1,5.459476262E-3,4.926844500E-3,2.436790615E-2
2.891415713E1,4.394212738E-3,-9.454214945E-3,3.448791057E-2
2.893442609E1,3.328948980E-3,-1.371526904E-2,4.354264960E-2
2.895469504E1,2.263685223E-3,-9.986846708E-3,4.926844314E-2
2.897496395E1,4.394212738E-3,-6.791055668E-3,5.725792050E-2
2.899523291E1,8.122635074E-3,-1.371526904E-2,7.057371736E-2
2.901550187E1,1.731053460E-3,-1.957421936E-2,7.909582555E-2
2.903577077E1,-7.323687430E-3,-2.223737910E-2,7.270424068E-2
2.905603973E1,-7.323687430E-3,-1.211737376E-2,5.672528967E-2
2.907630864E1,-1.997369342E-3,1.731053460E-3,4.247738793E-2
2.909657760E1,2.796316985E-3,1.331579551E-4,3.289001435E-2
2.911684656E1,8.122635074E-3,5.459476262E-3,2.063948289E-2
2.913711546E1,1.451421715E-2,2.463422157E-2,4.127896391E-3
2.915738442E1,2.942790836E-2,4.593949392E-2,-9.720530361E-3
2.917765333E1,4.380896688E-2,5.392897129E-2,-1.398158539E-2
2.919792223E1,4.327633604E-2,5.073318258E-2,-1.611211337E-2
2.921819119E1,2.942790836E-2,4.327633604E-2,-2.303632535E-2
2.923846010E1,1.717737690E-2,4.167843983E-2,-2.836264484E-2
2.925872906E1,1.291632187E-2,4.327633604E-2,-3.262370080E-2
2.927899791E1,9.720530361E-3,3.475422785E-2,-2.356895804E-2
2.929926692E1,8.122635074E-3,1.930790395E-2,-8.122635074E-3
2.931953583E1,-3.062632866E-3,2.263685223E-3,1.211737376E-2
2.933980478E1,-1.997369342E-2,-1.318263728E-2,2.649843320E-2
2.936007369E1,-2.583264373E-2,-2.010685205E-2,3.075948730E-2
2.938034260E1,-1.731053367E-2,-1.478053257E-2,2.969422378E-2
2.940061156E1,-4.127896391E-3,-1.105211023E-2,2.916159295E-2
2.942088046E1,5.992108025E-3,-2.490053698E-2,4.034686089E-2
2.944114937E1,7.057371549E-3,-2.916159295E-2,5.193160102E-2
2.946141833E1,4.926844500E-3,-1.957421936E-2,5.459476262E-2
2.948168723E1,7.590003312E-3,-1.997369342E-3,4.660528526E-2
2.950195614E1,1.344895363E-2,5.992108025E-3,3.502054140E-2
2.952235614E1,1.451421715E-2,7.590003312E-3,2.809632942E-2
2.954249400E1,1.291632187E-2,5.992108025E-3,2.703106403E-2
2.956276291E1,1.238369010E-2,6.657897611E-4,2.223737910E-2
2.958303182E1,7.057371549E-3,-4.127896391E-3,1.637842879E-2
2.960330072E1,1.198421582E-3,-1.211737376E-2,-2.263685223E-3
2.962370072E1,3.328948980E-3,-1.371526904E-2,-2.303632535E-2
2.964383853E1,8.655266836E-3,-2.530001104E-3,-3.901528195E-2
2.966410744E1,5.992108025E-3,9.187898599E-3,-4.061317816E-2
2.968437640E1,-3.994738800E-4,8.655266836E-3,-3.155843541E-2
2.970464531E1,-8.921583183E-3,5.992108025E-3,-1.717737690E-2
2.972504531E1,-1.304947957E-2,1.731053460E-3,-4.394212738E-3
2.974518312E1,-7.856319658E-3,-9.321057005E-4,7.323687430E-3
2.976545202E1,1.331579551E-4,-1.997369342E-3,1.318263728E-2
2.978572093E1,8.122635074E-3,1.238369010E-2,9.454214945E-3
2.980598984E1,1.344895363E-2,3.262370080E-2,4.127896391E-3
2.982625874E1,1.824264042E-2,4.274370521E-2,-1.331579551E-4
2.984652765E1,1.398158539E-2,3.102580272E-2,-2.796316985E-3
2.986692765E1,-3.994738800E-4,9.720530361E-3,-1.331579551E-4
2.988706546E1,-1.518000662E-2,-6.791055668E-3,-6.657897611E-4
2.990733437E1,-1.571263932E-2,-1.051947847E-2,9.321057005E-4
2.992760327E1,-9.853689000E-3,-3.595264861E-3,-6.657897611E-4
2.994787218E1,-2.530001104E-3,1.331579551E-4,-1.731053460E-3
2.996814109E1,-3.062632866E-3,-4.127896391E-3,-3.861580743E-3
2.998840999E1,-8.388951421E-3,-1.371526904E-2,-9.187898599E-3
3.000867890E1,-1.358211134E-2,-2.436790615E-2,-1.344895363E-2
3.002894780E1,-1.571263932E-2,-2.063948289E-2,-1.504684892E-2
3.004921671E1,-1.304947957E-2,-1.997369342E-3,-1.451421715E-2
3.006948562E1,-9.321057005E-4,1.664474420E-2,-1.291632187E-2
3.008975447E1,1.025316212E-2,2.516685426E-2,-9.187898599E-3
3.011002333E1,1.557948068E-2,1.984053478E-2,-3.328948980E-3
3.013029228E1,1.078579482E-2,1.238369010E-2,4.660528619E-3
3.015056119E1,8.655266836E-3,1.291632187E-2,7.323687430E-3
3.017083010E1,1.131842658E-2,1.611211337E-2,2.530001104E-3
3.019109900E1,1.398158539E-2,9.187898599E-3,-5.992108025E-3
3.021136791E1,1.238369010E-2,3.328948980E-3,-1.131842658E-2
3.023163676E1,1.291632187E-2,9.187898599E-3,-5.992108025E-3
3.025190567E1,1.398158539E-2,1.984053478E-2,8.921583183E-3
3.027217458E1,2.197106183E-2,2.516685426E-2,2.703106403E-2
3.029244343E1,3.102580272E-2,2.996053919E-2,3.768370301E-2
3.031271234E1,3.422159329E-2,2.889527567E-2,4.034686089E-2
3.033298124E1,3.102580272E-2,3.315633163E-2,3.715106845E-2
3.035325015E1,2.889527567E-2,3.741738573E-2,2.969422378E-2
3.037351900E1,2.729738131E-2,3.155843541E-2,2.330264263E-2
3.039378791E1,2.197106183E-2,1.451421715E-2,2.170474641E-2
3.041405682E1,1.611211337E-2,4.926844500E-3,1.957421936E-2
3.043432567E1,1.557948068E-2,6.524739787E-3,1.957421936E-2
3.045459458E1,2.037316747E-2,1.557948068E-2,2.010685205E-2
3.047486348E1,2.783001214E-2,2.463422157E-2,2.277000993E-2
3.049513234E1,3.422159329E-2,2.889527567E-2,2.490053698E-2
3.051540124E1,3.528685868E-2,3.155843541E-2,2.862896025E-2
3.053567015E1,2.889527567E-2,2.836264484E-2,2.916159295E-2
3.055593906E1,2.410159074E-2,2.356895804E-2,2.809632942E-2
3.057620791E1,2.037316747E-2,2.037316747E-2,2.543316968E-2
3.059647682E1,1.877527125E-2,2.250369452E-2,2.117211558E-2
3.061674567E1,1.877527125E-2,2.250369452E-2,2.117211558E-2
3.063701458E1,1.771000773E-2,1.824264042E-2,2.277000993E-2
3.065728348E1,1.344895363E-2,1.824264042E-2,2.383527346E-2
3.067755234E1,7.590003312E-3,2.410159074E-2,2.490053698E-2
3.069782124E1,2.263685223E-3,1.771000773E-2,2.277000993E-2
3.071809015E1,1.731053460E-3,1.731053460E-3,1.371526904E-2
3.073835906E1,-3.595264861E-3,-6.791055668E-3,2.530001104E-3
3.075862791E1,-1.091895252E-2,-2.170474641E-2,-6.524739787E-3
3.077889682E1,-1.784316637E-2,-3.608580679E-2,-1.078579482E-2
3.079916572E1,-1.997369342E-2,-3.235738352E-2,-1.131842658E-2
3.081943458E1,-1.890842989E-2,-2.969422378E-2,-9.720530361E-3
3.083970348E1,-1.624527015E-2,-2.277000993E-2,-1.131842658E-2
3.085997239E1,-1.358211134E-2,-1.478053257E-2,-1.238369010E-2
3.088024130E1,-1.571263932E-2,-1.744369231E-2,-1.078579482E-2
3.090051020E1,-2.263685316E-2,-2.596580051E-2,-1.185105834E-2
3.092077906E1,-2.636527456E-2,-3.075948730E-2,-1.291632187E-2
3.094104796E1,-2.530001104E-2,-3.022685647E-2,-1.664474420E-2
3.096131687E1,-2.423474751E-2,-2.490053698E-2,-2.090579830E-2
3.098158577E1,-2.316948399E-2,-2.436790615E-2,-2.090579830E-2
3.100185468E1,-1.837579720E-2,-2.330264263E-2,-2.197106183E-2
3.102225468E1,-1.091895252E-2,-2.277000993E-2,-1.771000773E-2
3.104239244E1,-8.921583183E-3,-2.170474641E-2,-1.185105834E-2
3.106266135E1,-1.145158429E-2,-2.170474641E-2,-7.057371549E-3
3.108293025E1,-1.304947957E-2,-1.797632314E-2,-4.394212738E-3
3.110319916E1,-1.518000662E-2,-1.211737376E-2,-7.057371549E-3
3.112359916E1,-1.464737486E-2,-8.921583183E-3,-9.187898599E-3
3.114389489E1,-1.251684781E-2,-1.051947847E-2,-1.025316212E-2
3.116400645E1,-7.856319658E-3,-1.105211023E-2,-1.025316212E-2
3.118440645E1,-2.530001104E-3,-7.856319658E-3,-1.078579482E-2
3.120454421E1,-1.464737463E-3,-9.454214945E-3,-7.590003312E-3
3.122494421E1,-2.530001104E-3,-5.193160381E-3,-2.796316985E-3
3.124508187E1,-9.321057005E-4,6.657897611E-4,3.994738800E-4
3.126535072E1,-1.997369342E-3,-1.464737463E-3,2.530001104E-3
3.128561952E1,-4.127896391E-3,-3.595264861E-3,3.595264861E-3
3.130588843E1,-5.725792143E-3,-7.856319658E-3,2.530001104E-3
3.132628843E1,-8.921583183E-3,-1.371526904E-2,-2.263685223E-3
3.134642619E1,-1.251684781E-2,-1.744369231E-2,-9.187898599E-3
3.136669510E1,-1.304947957E-2,-1.797632314E-2,-1.504684892E-2
3.138696395E1,-1.358211134E-2,-1.850895584E-2,-1.504684892E-2
3.140723286E1,-1.198421605E-2,-1.691105962E-2,-1.185105834E-2
3.142750176E1,-8.388951421E-3,-7.323687430E-3,-8.122635074E-3
3.144777072E1,-3.062632866E-3,1.331579551E-4,-4.926844500E-3
3.146803963E1,-2.530001104E-3,6.657897611E-4,-1.731053460E-3
3.148830853E1,-3.595264861E-3,-2.530001104E-3,3.994738800E-4
3.150857739E1,-4.127896391E-3,-5.193160381E-3,-1.198421582E-3
3.152884635E1,-5.725792143E-3,-5.725792143E-3,-3.861580743E-3
3.154911525E1,-5.193160381E-3,-2.530001104E-3,-4.394212738E-3
3.156938416E1,-5.725792143E-3,-3.994738800E-4,-2.796316985E-3
3.158965312E1,-4.127896391E-3,1.198421582E-3,-1.198421582E-3
3.160992202E1,-9.321057005E-4,-3.994738800E-4,-1.198421582E-3
3.163019093E1,-9.321057005E-4,-4.660528619E-3,-1.198421582E-3
3.165045989E1,-3.994738800E-4,-6.791055668E-3,-1.731053460E-3
3.167072880E1,-2.530001104E-3,-4.660528619E-3,-3.328948980E-3
3.169099775E1,-3.062632866E-3,-3.994738800E-4,-5.992108025E-3
3.171126666E1,-9.321057005E-4,-1.464737463E-3,-5.459476262E-3
3.173153557E1,-3.994738800E-4,-4.127896391E-3,-5.459476262E-3
3.175180452E1,-3.994738800E-4,-3.062632866E-3,-5.459476262E-3
3.177207348E1,6.657897611E-4,1.331579551E-4,-5.992108025E-3
3.179234239E1,-9.321057005E-4,3.328948980E-3,-5.992108025E-3
3.181261135E1,1.331579551E-4,4.394212738E-3,-1.198421582E-3
3.183288025E1,1.198421582E-3,6.657897611E-4,3.595264861E-3
3.185314921E1,1.198421582E-3,1.731053460E-3,6.791055668E-3
3.187341817E1,-9.321057005E-4,1.198421582E-3,8.388951421E-3
3.189381817E1,-4.127896391E-3,-5.725792143E-3,4.660528619E-3
3.191395603E1,-8.388951421E-3,-1.371526904E-2,-2.796316985E-3
3.193435603E1,-9.321057238E-3,-1.584579609E-2,-1.078579482E-2
3.195449395E1,-8.921583183E-3,-1.478053257E-2,-1.238369010E-2
3.197476286E1,-6.791055668E-3,-1.265000552E-2,-7.590003312E-3
3.199503182E1,-5.193160381E-3,-5.725792143E-3,-6.657897611E-4
3.201530077E1,-1.997369342E-3,1.331579551E-4,5.193160381E-3
3.203556973E1,2.263685223E-3,4.926844500E-3,6.791055668E-3
3.205583869E1,2.263685223E-3,7.057371549E-3,4.127896391E-3
3.207623869E1,-9.321057005E-4,4.394212738E-3,9.321057005E-4
3.209637656E1,-9.321057005E-4,6.657897611E-4,3.994738800E-4
3.211664551E1,1.331579551E-4,-3.062632866E-3,-6.657897611E-4
3.213691447E1,2.263685223E-3,-3.062632866E-3,-1.731053460E-3
3.215718343E1,2.796316985E-3,-3.994738800E-4,-3.328948980E-3
3.217745239E1,2.263685223E-3,1.731053460E-3,-4.394212738E-3
3.219772135E1,1.198421582E-3,-9.321057005E-4,-1.731053460E-3
3.221799030E1,6.657897611E-4,-4.127896391E-3,9.321057005E-4
3.223825926E1,-9.321057005E-4,-4.660528619E-3,5.725792143E-3
3.225852822E1,-3.994738800E-4,-6.258423906E-3,7.323687430E-3
3.227879718E1,2.263685223E-3,-3.062632866E-3,6.258423906E-3
3.229906614E1,3.328948980E-3,2.796316985E-3,4.127896391E-3
3.231933515E1,3.861580743E-3,7.590003312E-3,1.464737463E-3
3.233960411E1,3.861580743E-3,7.057371549E-3,-6.657897611E-4
3.235987307E1,2.796316985E-3,3.861580743E-3,-2.796316985E-3
3.238014202E1,6.657897611E-4,1.731053460E-3,-1.198421582E-3
3.240041098E1,1.331579551E-4,3.861580743E-3,9.321057005E-4
3.242067994E1,-9.321057005E-4,1.731053460E-3,1.997369342E-3
3.244107994E1,1.331579551E-4,4.926844500E-3,9.321057005E-4
3.246121791E1,-1.997369342E-3,3.861580743E-3,-1.331579551E-4
3.248148687E1,-8.921583183E-3,-8.388951421E-3,-3.328948980E-3
3.250175583E1,-1.251684781E-2,-1.691105962E-2,-1.078579482E-2
3.252215583E1,-7.856319658E-3,-1.637842879E-2,-1.664474420E-2
3.254229380E1,-3.062632866E-3,-1.265000552E-2,-1.611211337E-2
3.256256275E1,-9.321057005E-4,-5.725792143E-3,-8.122635074E-3
3.258283171E1,1.331579551E-4,4.394212738E-3,-1.331579551E-4
3.260310067E1,6.657897611E-4,1.238369010E-2,8.388951421E-3
3.262350067E1,2.263685223E-3,1.451421715E-2,1.318263728E-2
3.264363859E1,1.331579551E-4,1.078579482E-2,1.371526904E-2
3.266390760E1,-3.062632866E-3,6.524739787E-3,9.986846708E-3
3.268417661E1,-7.856319658E-3,4.926844500E-3,5.725792143E-3
3.270444557E1,-6.258423906E-3,-9.321057005E-4,-1.331579551E-4
3.272484557E1,1.331579551E-4,-4.660528619E-3,-3.861580743E-3
3.274498353E1,1.331579551E-4,-5.193160381E-3,-6.524739787E-3
3.276525249E1,-3.994738800E-4,-5.193160381E-3,-7.057371549E-3
3.278552145E1,6.657897611E-4,-9.321057005E-4,-3.861580743E-3
3.280579046E1,2.263685223E-3,4.394212738E-3,9.321057005E-4
3.282605942E1,4.926844500E-3,3.861580743E-3,4.660528619E-3
3.284632838E1,2.796316985E-3,3.861580743E-3,8.921583183E-3
3.286659739E1,1.731053460E-3,2.796316985E-3,9.986846708E-3
3.288686635E1,1.331579551E-4,1.198421582E-3,7.856319658E-3
3.290713536E1,-1.997369342E-3,1.198421582E-3,3.062632866E-3
3.292740432E1,-9.321057005E-4,6.657897611E-4,-1.331579551E-4
3.294767327E1,6.657897611E-4,-1.464737463E-3,-2.796316985E-3
3.296794228E1,-3.994738800E-4,-1.464737463E-3,-3.861580743E-3
3.298821124E1,6.657897611E-4,1.731053460E-3,-1.731053460E-3
3.300848020E1,1.331579551E-4,1.731053460E-3,3.994738800E-4
3.302874921E1,1.331579551E-4,2.796316985E-3,1.997369342E-3
3.304901817E1,1.731053460E-3,6.657897611E-4,2.530001104E-3
3.306928718E1,-3.062632866E-3,-3.062632866E-3,-6.657897611E-4
3.308955614E1,-5.725792143E-3,-1.211737376E-2,-7.057371549E-3
3.310982515E1,-3.062632866E-3,-1.265000552E-2,-1.291632187E-2
3.313009411E1,-1.997369342E-3,-9.454214945E-3,-1.344895363E-2
3.315036312E1,-1.464737463E-3,-3.595264861E-3,-5.459476262E-3
3.317063208E1,-4.660528619E-3,5.992108025E-3,3.595264861E-3
3.319090103E1,-2.530001104E-3,8.122635074E-3,1.158474199E-2
3.321117004E1,1.331579551E-4,2.796316985E-3,1.265000552E-2
3.323143900E1,1.331579551E-4,-3.994738800E-4,9.986846708E-3
3.325170801E1,6.657897611E-4,-2.530001104E-3,3.062632866E-3
3.327197697E1,-9.321057005E-4,-1.464737463E-3,-2.263685223E-3
3.329224598E1,-3.994738800E-4,1.331579551E-4,-6.524739787E-3
3.331251494E1,5.459476262E-3,2.263685223E-3,-4.926844500E-3
3.333278395E1,5.459476262E-3,3.861580743E-3,-4.926844500E-3
3.335305291E1,5.459476262E-3,1.198421582E-3,-6.657897611E-4
3.337332192E1,2.796316985E-3,1.731053460E-3,1.997369342E-3
3.339359083E1,1.331579551E-4,5.459476262E-3,5.193160381E-3
3.341385989E1,6.657897611E-4,7.590003312E-3,6.258423906E-3
3.343412885E1,2.796316985E-3,8.655266836E-3,9.454214945E-3
3.345439786E1,4.926844500E-3,1.078579482E-2,1.105211023E-2
3.347466682E1,8.655266836E-3,1.025316212E-2,1.318263728E-2
3.349493583E1,1.025316212E-2,1.131842658E-2,1.371526904E-2
3.351520478E1,1.131842658E-2,1.344895363E-2,1.158474199E-2
3.353547380E1,1.238369010E-2,1.611211337E-2,1.158474199E-2
3.355574275E1,1.344895363E-2,1.504684892E-2,1.424790081E-2
3.357601171E1,1.504684892E-2,1.717737690E-2,1.478053257E-2
3.359628072E1,1.611211337E-2,1.930790395E-2,1.371526904E-2
3.361654968E1,1.664474420E-2,1.771000773E-2,1.158474199E-2
3.363681869E1,2.197106183E-2,1.984053478E-2,9.454214945E-3
3.365708765E1,1.984053478E-2,2.037316747E-2,7.323687430E-3
3.367735666E1,1.344895363E-2,1.771000773E-2,-1.331579551E-4
3.372300098E1,9.187898599E-3,1.451421715E-2,-1.331579551E-4
3.374316437E1,1.025316212E-2,1.344895363E-2,6.258423906E-3
3.376341333E1,1.557948068E-2,1.451421715E-2,1.371526904E-2
3.378370218E1,1.984053478E-2,2.090579830E-2,1.797632314E-2
3.380397062E1,2.090579830E-2,2.410159074E-2,2.010685205E-2
3.382423952E1,1.984053478E-2,2.197106183E-2,1.904158667E-2
3.384450848E1,1.664474420E-2,1.984053478E-2,1.478053257E-2
3.386477744E1,1.238369010E-2,1.664474420E-2,9.454214945E-3
3.388504645E1,1.131842658E-2,1.344895363E-2,6.258423906E-3
3.390531541E1,1.344895363E-2,1.557948068E-2,3.062632866E-3
3.392558437E1,1.664474420E-2,1.877527125E-2,4.127896391E-3
3.394585338E1,1.771000773E-2,1.984053478E-2,7.323687430E-3
3.396612234E1,1.557948068E-2,1.557948068E-2,1.051947847E-2
3.398652234E1,1.344895363E-2,1.238369010E-2,1.158474199E-2
3.400666031E1,1.238369010E-2,1.131842658E-2,1.265000552E-2
3.402706030E1,1.238369010E-2,1.344895363E-2,1.371526904E-2
3.404719827E1,1.451421715E-2,1.877527125E-2,1.478053257E-2
3.406746723E1,1.664474420E-2,1.984053478E-2,1.584579609E-2
3.408773619E1,1.664474420E-2,1.984053478E-2,1.478053257E-2
3.410800515E1,1.664474420E-2,2.090579830E-2,1.478053257E-2
3.412840515E1,1.877527125E-2,2.410159074E-2,1.158474199E-2
3.414854312E1,1.984053478E-2,2.303632535E-2,8.388951421E-3
3.416881208E1,1.664474420E-2,2.090579830E-2,1.051947847E-2
3.418908103E1,1.131842658E-2,1.984053478E-2,1.691105962E-2
3.420934999E1,5.992108025E-3,1.557948068E-2,1.797632314E-2
3.422974999E1,5.992108025E-3,1.451421715E-2,1.158474199E-2
3.424988796E1,1.451421715E-2,1.557948068E-2,6.258423906E-3
3.427015692E1,1.344895363E-2,1.451421715E-2,9.321057005E-4
3.429042588E1,5.992108025E-3,7.057371549E-3,1.997369342E-3
3.431069489E1,6.657897611E-4,4.926844500E-3,7.323687430E-3
3.433109489E1,2.796316985E-3,9.187898599E-3,1.051947847E-2
3.435123280E1,1.131842658E-2,1.344895363E-2,9.454214945E-3
3.437150176E1,1.877527125E-2,2.197106183E-2,5.193160381E-3
3.439177077E1,1.984053478E-2,2.197106183E-2,5.193160381E-3
3.441203973E1,1.344895363E-2,1.344895363E-2,8.388951421E-3
3.443230869E1,7.057371549E-3,8.122635074E-3,8.388951421E-3
3.445257765E1,1.731053460E-3,4.926844500E-3,6.258423906E-3
3.447284661E1,6.657897611E-4,6.657897611E-4,4.127896391E-3
3.449311557E1,1.731053460E-3,-3.994738800E-4,1.997369342E-3
3.451338452E1,6.657897611E-4,-3.994738800E-4,9.321057005E-4
3.453365348E1,-3.994738800E-4,-3.595264861E-3,-2.263685223E-3
3.455392244E1,-2.530001104E-3,-6.791055668E-3,-2.263685223E-3
3.457419145E1,-4.660528619E-3,-8.921583183E-3,-1.198421582E-3
3.459446041E1,-4.660528619E-3,-6.791055668E-3,-4.394212738E-3
3.461472937E1,-6.791055668E-3,-4.660528619E-3,-4.394212738E-3
3.463499833E1,-5.725792143E-3,-4.660528619E-3,-4.394212738E-3
3.465526728E1,-1.464737463E-3,-3.595264861E-3,-2.263685223E-3
3.467553624E1,2.796316985E-3,2.796316985E-3,9.321057005E-4
3.469580520E1,7.057371549E-3,1.025316212E-2,3.062632866E-3
3.471607416E1,7.057371549E-3,1.451421715E-2,6.258423906E-3
3.473634312E1,7.057371549E-3,1.238369010E-2,9.454214945E-3
3.475661208E1,9.187898599E-3,1.238369010E-2,1.158474199E-2
3.477688103E1,1.131842658E-2,1.557948068E-2,1.371526904E-2
3.479714999E1,1.238369010E-2,1.771000773E-2,1.371526904E-2
3.481741895E1,1.771000773E-2,1.984053478E-2,1.051947847E-2
3.483768791E1,2.197106183E-2,2.197106183E-2,7.323687430E-3
3.485795687E1,1.557948068E-2,1.238369010E-2,3.062632866E-3
3.487822583E1,5.992108025E-3,1.731053460E-3,1.997369342E-3
3.489849478E1,2.796316985E-3,5.992108025E-3,4.127896391E-3
3.491876374E1,5.992108025E-3,1.344895363E-2,5.193160381E-3
3.493903270E1,1.451421715E-2,1.664474420E-2,4.127896391E-3
3.495930166E1,1.557948068E-2,1.664474420E-2,9.321057005E-4
3.497957062E1,4.926844500E-3,3.861580743E-3,-1.331579551E-4
3.499983958E1,-8.921583183E-3,-1.105211023E-2,9.321057005E-4
3.502010848E1,-1.304947957E-2,-1.637842879E-2,1.997369342E-3
3.504037744E1,-1.091895252E-2,-1.318263728E-2,1.997369342E-3
3.506064640E1,-8.921583183E-3,-1.105211023E-2,-1.198421582E-3
3.508091536E1,-6.791055668E-3,-9.986846708E-3,-5.459476262E-3
3.510118432E1,-8.921583183E-3,-1.211737376E-2,-8.655266836E-3
3.512145322E1,-1.304947957E-2,-1.744369231E-2,-8.655266836E-3
3.514172218E1,-1.411474310E-2,-2.063948289E-2,-8.655266836E-3
3.516199114E1,-1.304947957E-2,-1.850895584E-2,-6.524739787E-3
3.518226010E1,-1.411474310E-2,-1.744369231E-2,-4.394212738E-3
3.520252906E1,-1.411474310E-2,-1.850895584E-2,-3.328948980E-3
3.522279796E1,-1.624527015E-2,-1.957421936E-2,-6.524739787E-3
3.524306692E1,-1.837579720E-2,-2.277000993E-2,-1.078579482E-2
3.526333588E1,-2.263685316E-2,-2.703106403E-2,-1.504684892E-2
3.528360478E1,-2.583264373E-2,-3.129211813E-2,-2.250369452E-2
3.530387374E1,-2.689790726E-2,-3.129211813E-2,-2.783001214E-2
3.532414270E1,-2.689790726E-2,-2.703106403E-2,-3.422159329E-2
3.534441161E1,-2.263685316E-2,-2.063948289E-2,-4.274370521E-2
3.536468057E1,-1.411474310E-2,-1.105211023E-2,-4.700475931E-2
3.538494952E1,-4.660528619E-3,-4.660528619E-3,-3.635212034E-2
3.540521843E1,2.796316985E-3,1.731053460E-3,-1.611211337E-2
3.542548739E1,2.796316985E-3,3.861580743E-3,5.193160381E-3
3.544575635E1,-9.853689000E-3,-2.530001104E-3,1.691105962E-2
3.546602525E1,-1.837579720E-2,-1.957421936E-2,1.158474199E-2
3.548629421E1,-1.518000662E-2,-2.063948289E-2,9.321057005E-4
3.550656312E1,-5.725792143E-3,-1.211737376E-2,-4.394212738E-3
3.552696312E1,2.796316985E-3,-1.464737463E-3,-6.524739787E-3
3.554710103E1,8.122635074E-3,1.344895363E-2,-6.524739787E-3
3.556736994E1,8.122635074E-3,1.451421715E-2,-6.524739787E-3
3.558763890E1,3.861580743E-3,3.861580743E-3,-5.459476262E-3
3.560790780E1,6.657897611E-4,-3.595264861E-3,-7.590003312E-3
3.562830781E1,-3.595264861E-3,-4.660528619E-3,-6.524739787E-3
3.564844567E1,-5.725792143E-3,-2.530001104E-3,-5.459476262E-3
3.566871463E1,-2.530001104E-3,-2.530001104E-3,-4.394212738E-3
3.568898353E1,-1.464737463E-3,-2.530001104E-3,-3.328948980E-3
3.570925249E1,-2.530001104E-3,-1.464737463E-3,-4.394212738E-3
3.572965249E1,6.657897611E-4,1.731053460E-3,-3.328948980E-3
3.574979031E1,1.731053460E-3,2.796316985E-3,-1.331579551E-4
3.577005926E1,6.657897611E-4,-3.994738800E-4,1.997369342E-3
3.579028885E1,-3.994738800E-4,6.657897611E-4,4.127896391E-3
3.581059708E1,-3.994738800E-4,3.861580743E-3,4.127896391E-3
3.583086598E1,-1.464737463E-3,2.796316985E-3,3.062632866E-3
3.585113494E1,1.731053460E-3,6.657897611E-4,-1.198421582E-3
3.587140385E1,4.926844500E-3,6.657897611E-4,-1.198421582E-3
3.589167286E1,2.796316985E-3,6.657897611E-4,-2.263685223E-3
3.591194176E1,2.796316985E-3,6.657897611E-4,-5.459476262E-3
3.593234176E1,2.796316985E-3,3.861580743E-3,-4.394212738E-3
3.595247963E1,1.731053460E-3,4.926844500E-3,-2.263685223E-3
3.597274853E1,-3.994738800E-4,1.731053460E-3,1.997369342E-3
3.599301749E1,-2.530001104E-3,-4.660528619E-3,4.127896391E-3
3.601328640E1,-3.595264861E-3,-7.856319658E-3,5.193160381E-3
3.603355530E1,-5.725792143E-3,-1.318263728E-2,-1.331579551E-4
3.605382426E1,-6.791055668E-3,-1.531316526E-2,-9.720530361E-3
3.607409317E1,-2.530001104E-3,-4.660528619E-3,-1.824264042E-2
3.609436208E1,3.861580743E-3,7.057371549E-3,-1.291632187E-2
3.611463103E1,5.992108025E-3,9.187898599E-3,-5.459476262E-3
3.613489994E1,6.657897611E-4,1.731053460E-3,1.997369342E-3
3.615516885E1,-6.791055668E-3,-8.921583183E-3,3.062632866E-3
3.617543780E1,-6.791055668E-3,-7.856319658E-3,9.321057005E-4
3.619570671E1,-1.464737463E-3,3.861580743E-3,-1.198421582E-3
3.621597562E1,-3.994738800E-4,4.926844500E-3,-1.331579551E-4
3.623624452E1,-2.530001104E-3,-3.994738800E-4,-1.331579551E-4
3.625651348E1,-2.530001104E-3,-2.530001104E-3,9.321057005E-4
3.627678239E1,-1.464737463E-3,-3.595264861E-3,9.321057005E-4
3.629705130E1,-3.994738800E-4,-2.530001104E-3,-3.328948980E-3
3.631732020E1,-1.464737463E-3,-3.994738800E-4,-4.394212738E-3
3.633758916E1,-1.464737463E-3,1.731053460E-3,-3.328948980E-3
3.635785807E1,-3.595264861E-3,-3.994738800E-4,-1.331579551E-4
3.637812697E1,-5.725792143E-3,-6.791055668E-3,-1.331579551E-4
3.639839588E1,-4.660528619E-3,-9.986846708E-3,-2.263685223E-3
3.641866478E1,-2.530001104E-3,-6.791055668E-3,-2.263685223E-3
3.643893369E1,6.657897611E-4,-1.464737463E-3,-2.263685223E-3
3.645920260E1,1.731053460E-3,2.796316985E-3,-2.263685223E-3
3.647947156E1,6.657897611E-4,4.926844500E-3,-2.263685223E-3
3.649987156E1,-3.994738800E-4,3.861580743E-3,-1.198421582E-3
3.652000937E1,-3.994738800E-4,6.657897611E-4,-1.331579551E-4
3.654027827E1,1.731053460E-3,6.657897611E-4,-1.331579551E-4
3.656054718E1,5.992108025E-3,2.796316985E-3,9.321057005E-4
3.658081609E1,3.861580743E-3,5.992108025E-3,9.321057005E-4
3.660108499E1,1.731053460E-3,3.861580743E-3,3.062632866E-3
3.662135390E1,-4.660528619E-3,-3.595264861E-3,1.997369342E-3
3.664162281E1,-1.304947957E-2,-1.744369231E-2,-4.394212738E-3
3.666189171E1,-1.411474310E-2,-1.957421936E-2,-1.291632187E-2
3.668216062E1,-6.791055668E-3,-9.986846708E-3,-1.398158539E-2
3.670242952E1,-2.530001104E-3,-3.595264861E-3,-6.524739787E-3
3.672269843E1,-3.595264861E-3,-3.994738800E-4,9.321057005E-4
3.674296734E1,-4.660528619E-3,1.731053460E-3,5.193160381E-3
3.676323624E1,6.657897611E-4,-3.994738800E-4,1.051947847E-2
3.678350515E1,1.731053460E-3,-6.791055668E-3,1.051947847E-2
3.680377400E1,-3.595264861E-3,-9.986846708E-3,9.454214945E-3
3.682404296E1,-7.856319658E-3,-4.660528619E-3,4.127896391E-3
3.684431182E1,-5.725792143E-3,6.657897611E-4,-1.331579551E-4
3.686458072E1,6.657897611E-4,-3.994738800E-4,-4.394212738E-3
3.688484963E1,1.731053460E-3,-6.791055668E-3,-8.655266836E-3
3.690511853E1,-3.994738800E-4,-8.921583183E-3,-7.590003312E-3
3.692538744E1,-1.464737463E-3,-4.660528619E-3,-3.328948980E-3
3.694565635E1,-3.994738800E-4,1.731053460E-3,-1.198421582E-3
3.696592520E1,1.731053460E-3,2.796316985E-3,3.062632866E-3
3.698619411E1,1.731053460E-3,6.657897611E-4,6.258423906E-3
3.700646301E1,-3.994738800E-4,1.731053460E-3,6.258423906E-3
3.702686301E1,-2.530001104E-3,2.796316985E-3,6.258423906E-3
3.704700077E1,-2.530001104E-3,6.657897611E-4,5.193160381E-3
3.706726968E1,-4.660528619E-3,-2.530001104E-3,9.321057005E-4
3.708753859E1,-7.856319658E-3,-8.921583183E-3,-3.328948980E-3
3.710780744E1,-1.304947957E-2,-1.531316526E-2,-5.459476262E-3
3.712820744E1,-1.837579720E-2,-1.637842879E-2,-8.655266836E-3
3.714834525E1,-1.518000662E-2,-1.105211023E-2,-1.078579482E-2
3.716874525E1,-1.198421605E-2,-6.791055668E-3,-1.185105834E-2
3.718888301E1,-8.921583183E-3,-6.791055668E-3,-1.291632187E-2
3.720915192E1,-4.660528619E-3,-8.921583183E-3,-1.078579482E-2
3.722955192E1,-9.853689000E-3,-1.105211023E-2,-8.655266836E-3
3.724968968E1,-1.837579720E-2,-1.744369231E-2,-1.185105834E-2
3.726995853E1,-1.731053367E-2,-1.957421936E-2,-1.611211337E-2
3.729022744E1,-1.198421605E-2,-1.637842879E-2,-1.611211337E-2
3.731049630E1,-6.791055668E-3,-1.105211023E-2,-1.291632187E-2
3.733089630E1,-4.660528619E-3,-3.595264861E-3,-6.524739787E-3
3.735103411E1,-3.595264861E-3,-3.994738800E-4,-1.331579551E-4
3.737130301E1,-2.530001104E-3,-3.595264861E-3,4.127896391E-3
3.739157187E1,-3.595264861E-3,-6.791055668E-3,4.127896391E-3
3.741184072E1,-7.856319658E-3,-9.986846708E-3,-1.198421582E-3
3.743210963E1,-7.856319658E-3,-7.856319658E-3,-6.524739787E-3
3.745237848E1,-6.791055668E-3,-2.530001104E-3,-9.720530361E-3
3.747264739E1,-1.464737463E-3,6.657897611E-4,-9.720530361E-3
3.749291630E1,6.657897611E-4,6.657897611E-4,-8.655266836E-3
3.751318515E1,6.657897611E-4,-3.595264861E-3,-5.459476262E-3
3.753345400E1,-2.530001104E-3,-7.856319658E-3,-3.328948980E-3
3.755372291E1,-4.660528619E-3,-5.725792143E-3,-2.263685223E-3
3.757399176E1,-6.791055668E-3,-2.530001104E-3,-2.263685223E-3
3.759426067E1,-4.660528619E-3,-1.464737463E-3,-1.331579551E-4
3.761452952E1,-1.464737463E-3,-3.595264861E-3,9.321057005E-4
3.763479843E1,-3.994738800E-4,-4.660528619E-3,9.321057005E-4
3.765506728E1,-1.464737463E-3,-3.595264861E-3,-1.198421582E-3
3.767533614E1,-1.464737463E-3,-3.994738800E-4,-4.394212738E-3
3.769560504E1,6.657897611E-4,3.861580743E-3,-7.590003312E-3
3.771587390E1,1.731053460E-3,3.861580743E-3,-4.394212738E-3
3.773614275E1,2.796316985E-3,6.657897611E-4,-1.331579551E-4
3.775641166E1,6.657897611E-4,-1.464737463E-3,3.062632866E-3
3.777668051E1,-3.994738800E-4,-3.994738800E-4,1.997369342E-3
3.779694942E1,6.657897611E-4,4.926844500E-3,-1.198421582E-3
3.781721827E1,6.657897611E-4,3.861580743E-3,-3.328948980E-3
3.783748713E1,-5.725792143E-3,-6.791055668E-3,-6.524739787E-3
3.785775603E1,-1.091895252E-2,-1.531316526E-2,-1.078579482E-2
3.787802489E1,-8.921583183E-3,-1.424790081E-2,-1.504684892E-2
3.789829374E1,-6.791055668E-3,-1.105211023E-2,-1.185105834E-2
3.791856265E1,-4.660528619E-3,-5.725792143E-3,-3.328948980E-3
3.793883150E1,-4.660528619E-3,6.657897611E-4,5.193160381E-3
3.795910036E1,-1.464737463E-3,2.796316985E-3,1.265000552E-2
3.797936921E1,6.657897611E-4,6.657897611E-4,1.478053257E-2
3.799963812E1,6.657897611E-4,6.657897611E-4,1.051947847E-2
3.801990697E1,1.731053460E-3,6.657897611E-4,3.062632866E-3
3.804017583E1,6.657897611E-4,6.657897611E-4,-4.394212738E-3
3.806057583E1,1.731053460E-3,1.731053460E-3,-6.524739787E-3
3.808071353E1,1.731053460E-3,-3.994738800E-4,-4.394212738E-3
3.810111353E1,6.657897611E-4,-2.530001104E-3,-1.198421582E-3
3.812125130E1,-3.994738800E-4,-2.530001104E-3,-1.331579551E-4
3.814152015E1,-2.530001104E-3,-3.595264861E-3,9.321057005E-4
3.816178900E1,-3.994738800E-4,-2.530001104E-3,1.997369342E-3
3.818205786E1,1.731053460E-3,1.731053460E-3,4.127896391E-3
3.820232676E1,4.926844500E-3,5.992108025E-3,7.323687430E-3
3.822259562E1,7.057371549E-3,9.187898599E-3,1.051947847E-2
3.824286447E1,9.187898599E-3,1.131842658E-2,1.265000552E-2
3.826313333E1,8.122635074E-3,1.238369010E-2,1.371526904E-2
3.828340218E1,8.122635074E-3,1.238369010E-2,1.371526904E-2
3.830367103E1,9.187898599E-3,1.238369010E-2,1.478053257E-2
3.832393989E1,1.025316212E-2,1.131842658E-2,1.584579609E-2
3.834420874E1,1.344895363E-2,1.344895363E-2,1.691105962E-2
3.836447765E1,1.557948068E-2,1.451421715E-2,1.478053257E-2
3.838474645E1,1.557948068E-2,1.877527125E-2,1.158474199E-2
3.840501530E1,1.344895363E-2,1.877527125E-2,1.051947847E-2
3.842528421E1,9.187898599E-3,1.451421715E-2,8.388951421E-3
3.844555307E1,3.861580743E-3,2.796316985E-3,6.258423906E-3
3.846582192E1,3.861580743E-3,-3.994738800E-4,4.127896391E-3
3.848609077E1,2.796316985E-3,1.731053460E-3,6.258423906E-3
3.850635963E1,3.861580743E-3,4.926844500E-3,1.158474199E-2
3.852675963E1,1.131842658E-2,1.344895363E-2,1.584579609E-2
3.854689734E1,1.557948068E-2,1.771000773E-2,2.010685205E-2
3.856716619E1,1.984053478E-2,1.771000773E-2,1.904158667E-2
3.858743504E1,1.771000773E-2,1.877527125E-2,1.478053257E-2
3.860770390E1,1.451421715E-2,2.090579830E-2,1.158474199E-2
3.862810390E1,1.131842658E-2,1.771000773E-2,9.454214945E-3
3.864824161E1,1.451421715E-2,1.664474420E-2,8.388951421E-3
3.866851046E1,1.877527125E-2,1.557948068E-2,1.051947847E-2
3.868877932E1,1.664474420E-2,1.451421715E-2,1.158474199E-2
3.870904817E1,1.344895363E-2,1.131842658E-2,1.265000552E-2
3.872944817E1,9.187898599E-3,1.025316212E-2,1.478053257E-2
3.874958588E1,8.122635074E-3,1.025316212E-2,1.478053257E-2
3.876985473E1,1.025316212E-2,1.131842658E-2,1.478053257E-2
3.879012359E1,1.344895363E-2,1.238369010E-2,1.371526904E-2
3.881039244E1,1.451421715E-2,1.131842658E-2,1.478053257E-2
3.883066130E1,1.344895363E-2,1.451421715E-2,1.265000552E-2
3.885093015E1,1.344895363E-2,2.090579830E-2,9.454214945E-3
3.887119895E1,1.664474420E-2,2.623211779E-2,7.323687430E-3
3.889146786E1,1.984053478E-2,2.197106183E-2,7.323687430E-3
3.891173671E1,1.984053478E-2,1.664474420E-2,1.051947847E-2
3.893213671E1,1.771000773E-2,1.557948068E-2,1.265000552E-2
3.895227442E1,1.238369010E-2,1.451421715E-2,1.371526904E-2
3.897254327E1,1.238369010E-2,1.557948068E-2,1.158474199E-2
3.899281213E1,1.557948068E-2,1.984053478E-2,1.051947847E-2
3.901308093E1,1.344895363E-2,1.344895363E-2,9.454214945E-3
3.903334984E1,3.861580743E-3,3.861580743E-3,1.051947847E-2
3.905361869E1,-3.994738800E-4,2.796316985E-3,9.454214945E-3
3.907388749E1,2.796316985E-3,3.861580743E-3,9.454214945E-3
3.909415635E1,1.131842658E-2,9.187898599E-3,7.323687430E-3
3.911442520E1,1.664474420E-2,1.877527125E-2,6.258423906E-3
3.913469406E1,1.664474420E-2,1.771000773E-2,7.323687430E-3
3.915496291E1,1.025316212E-2,1.025316212E-2,8.388951421E-3
3.917523176E1,2.796316985E-3,5.992108025E-3,8.388951421E-3
3.919550062E1,6.657897611E-4,2.796316985E-3,7.323687430E-3
3.921576942E1,-2.530001104E-3,-4.660528619E-3,5.193160381E-3
3.923603827E1,-7.856319658E-3,-1.318263728E-2,1.997369342E-3
3.925630713E1,-1.731053367E-2,-2.809632942E-2,-1.198421582E-3
3.927670713E1,-2.689790726E-2,-4.301001877E-2,-4.394212738E-3
3.929684484E1,-3.222422674E-2,-5.472791940E-2,-5.459476262E-3
3.931711369E1,-3.755054250E-2,-5.472791940E-2,-1.185105834E-2
3.933738249E1,-4.500738904E-2,-4.194475710E-2,-1.398158539E-2
3.935765135E1,-4.181159660E-2,-2.703106403E-2,-1.078579482E-2
3.937792020E1,-3.542001545E-2,-3.235738352E-2,-6.524739787E-3
3.939818906E1,-2.583264373E-2,-4.301001877E-2,-4.394212738E-3
3.941845791E1,-1.198421605E-2,-2.596580051E-2,-9.720530361E-3
3.943872676E1,1.731053460E-3,8.122635074E-3,-1.930790395E-2
3.945899562E1,1.025316212E-2,2.836264484E-2,-2.676474862E-2
3.947926442E1,1.238369010E-2,2.410159074E-2,-3.209106624E-2
3.949953327E1,1.025316212E-2,1.131842658E-2,-3.315633163E-2
3.951980213E1,1.731053460E-3,-1.464737463E-3,-3.635212034E-2
3.954007098E1,-3.994738800E-4,1.731053460E-3,-4.274370521E-2
3.956033978E1,1.131842658E-2,1.984053478E-2,-4.807002097E-2
3.958060864E1,2.090579830E-2,1.984053478E-2,-5.126581341E-2
3.960087749E1,9.187898599E-3,-1.637842879E-2,-5.020054802E-2
3.962134963E1,-1.518000662E-2,-4.833633825E-2,-4.807002097E-2
3.965668385E1,-1.571263932E-2,5.992108025E-3,-3.741738573E-2
3.967695353E1,6.657897611E-4,2.197106183E-2,-2.143843099E-2
3.969722182E1,2.263685223E-3,5.459476262E-3,1.997369342E-3
3.971749062E1,-5.725792143E-3,-2.969422378E-2,2.223737910E-2
3.973775937E1,-9.853689000E-3,-4.620581120E-2,2.649843320E-2
3.975802822E1,-5.193160381E-3,-3.448791057E-2,2.543316968E-2
3.977829708E1,1.291632187E-2,-1.265000552E-2,2.383527346E-2
3.979856593E1,2.942790836E-2,1.451421715E-2,2.543316968E-2
3.981883478E1,3.848264739E-2,3.315633163E-2,2.383527346E-2
3.983910359E1,3.581948951E-2,3.049317189E-2,1.265000552E-2
3.985937244E1,2.569948509E-2,1.717737690E-2,-3.861580743E-3
3.987964130E1,9.187898599E-3,1.731053460E-3,-1.504684892E-2
3.989991010E1,-4.127896391E-3,-1.531316526E-2,-1.771000773E-2
3.992017895E1,-1.198421605E-2,-2.756369673E-2,-1.291632187E-2
3.994044781E1,-1.251684781E-2,-2.969422378E-2,-4.926844500E-3
3.996071661E1,-6.791055668E-3,-2.330264263E-2,-6.657897611E-4
3.998098546E1,-1.464737463E-3,-7.856319658E-3,3.595264861E-3
4.000125432E1,1.331579551E-4,4.926844500E-3,8.388951421E-3
4.002165432E1,-1.464737463E-3,1.198421582E-3,1.424790081E-2
4.004179197E1,-7.323687430E-3,-7.856319658E-3,2.170474641E-2
4.006219197E1,-1.411474310E-2,-1.957421936E-2,3.022685647E-2
4.008232963E1,-1.411474310E-2,-2.330264263E-2,3.182475269E-2
4.010259848E1,-1.304947957E-2,-2.383527346E-2,2.862896025E-2
4.012299848E1,-9.853689000E-3,-1.691105962E-2,2.436790615E-2
4.014329406E1,-1.091895252E-2,-6.791055668E-3,1.424790081E-2
4.016340557E1,-1.304947957E-2,1.331579551E-4,-1.331579551E-4
4.018367432E1,-1.038632076E-2,-4.127896391E-3,-1.557948068E-2
4.020394301E1,-3.595264861E-3,-8.388951421E-3,-2.410159074E-2
4.022434301E1,1.331579551E-4,-1.637842879E-2,-2.143843099E-2
4.024448062E1,-3.595264861E-3,-1.904158667E-2,-1.877527125E-2
4.026474937E1,-7.856319658E-3,-7.323687430E-3,-2.090579830E-2
4.028501812E1,-8.388951421E-3,8.122635074E-3,-2.197106183E-2
4.030528692E1,-5.725792143E-3,1.877527125E-2,-2.250369452E-2
4.032568692E1,-3.595264861E-3,1.291632187E-2,-2.197106183E-2
4.034582458E1,-1.145158429E-2,-5.193160381E-3,-1.877527125E-2
4.036609333E1,-1.944106072E-2,-1.691105962E-2,-1.344895363E-2
