"Time (s)","Acceleration x (m/s^2)","Acceleration y (m/s^2)","Acceleration z (m/s^2)"
3.443177200E-2,-1.508076429E0,1.711466432E0,9.497711182E0
5.481604300E-2,-7.226324677E-1,1.651645780E0,9.667601585E0
7.495739700E-2,-5.647061467E-1,1.283151150E0,9.533603668E0
9.522838700E-2,-8.261220455E-1,8.231309652E-1,9.401998520E0
1.154988040E-1,-1.287936807E0,9.834501147E-1,8.796015739E0
1.357689080E-1,-1.771286964E0,1.287936807E0,7.541578770E0
1.560387000E-1,-1.946561217E0,1.335793257E0,7.299903870E0
1.763082310E-1,-6.819544435E-1,7.800601721E-1,8.288139343E0
1.965776060E-1,-2.249253243E-1,-2.213360928E-2,9.327222824E0
2.168468250E-1,-1.986042857E-1,-6.035895348E-1,8.920442581E0
2.371158870E-1,-3.134597540E-1,-4.432703853E-1,9.121439934E0
2.573848450E-1,1.938186288E-1,-5.988038778E-1,9.799206734E0
2.776538040E-1,3.355933726E-1,-1.530210137E0,1.064686394E1
2.979226060E-1,-8.620143533E-1,-1.073180914E0,1.043150997E1
3.181914600E-1,-1.850848317E0,-1.743171334E0,1.088853931E1
3.384600540E-1,-2.532802820E0,-2.198405743E0,1.059900761E1
3.588602100E-1,-2.990430117E0,-2.466402054E0,9.856635094E0
3.789975540E-1,-1.201795220E0,-3.670589924E0,1.235115242E1
3.992662520E-1,-3.637090325E-1,-4.788636208E0,1.154477119E1
4.195349500E-1,-2.368894368E-1,-4.779065132E0,8.075178146E0
4.398035430E-1,5.653043389E-1,-4.173680782E0,8.254639626E0
4.602035950E-1,8.859425783E-1,-3.670589924E0,8.130212784E0
4.803408350E-1,3.589234129E-2,-3.773481369E0,7.883752346E0
5.006094290E-1,1.822134495E0,-7.324429989E0,7.383652687E0
5.208780750E-1,-1.172483116E-1,-3.945764542E0,9.978668213E0
5.411466160E-1,-1.031904817E0,-3.369094372E0,1.180558872E1
5.615466160E-1,4.600201547E-1,-3.601198196E0,1.040040398E1
5.816838560E-1,1.625923038E0,-2.542972326E0,9.720243454E0
6.019524500E-1,2.042274237E0,-2.839682341E0,9.641280174E0
6.222210430E-1,2.224128723E0,-2.205584288E0,1.045783138E1
6.424895850E-1,4.314259052E0,-1.867598057E0,1.085982513E1
6.628896370E-1,4.139583111E0,-2.126621008E0,9.693922997E0
6.830268250E-1,3.282354355E0,-2.030309916E0,9.090332985E0
7.032954180E-1,2.693720102E0,-1.202393413E0,8.793622971E0
7.235639600E-1,3.507878065E0,-7.375875711E-1,9.269794464E0
7.437975540E-1,3.830909014E0,-1.082752228E0,8.903693199E0
7.637133870E-1,3.653840065E0,-4.935196638E-1,8.348558426E0
7.841133870E-1,3.181855917E0,-8.165507317E-1,7.675576687E0
8.045133870E-1,3.200998545E0,-1.094716311E0,7.972286701E0
8.248901060E-1,4.005585194E0,-1.034895778E-1,7.520043373E0
8.451614600E-1,4.817350388E0,-8.452646136E-1,7.196413994E0
8.654328140E-1,4.582853794E0,-1.116251707E0,8.278568268E0
8.857037000E-1,5.166702271E0,-1.812563181E0,9.181260109E0
9.059739600E-1,4.359723091E0,-8.620143533E-1,9.016156197E0
9.262439600E-1,4.764708042E0,-1.398604870E0,9.040083885E0
9.465137520E-1,4.944169998E0,-1.661815286E0,8.819944382E0
9.667832310E-1,4.146761417E0,-4.336991012E-1,8.391629219E0
9.870525540E-1,3.902693748E0,-3.308077157E-1,8.389236450E0
1.007321668E0,4.838885784E0,-7.974081635E-1,8.353343964E0
1.027590731E0,5.035097122E0,-3.762713671E-1,8.288139343E0
1.047859220E0,4.936991215E0,1.268195957E-1,8.439485550E0
1.068259637E0,5.655436516E0,-1.305284739E0,7.965108395E0
1.088397033E0,7.063014030E0,-1.633101463E0,6.990631580E0
1.108665887E0,7.568498135E0,-1.017547846E0,6.760920525E0
1.128934689E0,7.177869797E0,-5.102694035E-1,7.630113125E0
1.149203387E0,7.599604607E0,-5.222335458E-1,7.503293514E0
1.169472137E0,8.518448830E0,-5.605186820E-1,6.107081413E0
1.189740783E0,7.697710514E0,-1.046859860E0,4.718646049E0
1.210009481E0,6.567699909E0,-9.409775138E-1,4.587040901E0
1.230278075E0,7.853243828E0,-1.063609719E0,5.161318302E0
1.250546720E0,9.653842926E0,-6.323033571E-1,5.334199905E0
1.270815262E0,1.197607708E1,-3.524627686E0,4.747360229E0
1.291083908E0,9.665806770E0,-1.920240223E-1,5.077569485E0
1.311352450E0,9.569496155E0,7.609176040E-1,5.096712112E0
1.331621095E0,1.266042423E1,-8.500502706E-1,4.170690060E0
1.351889637E0,1.029990482E1,-2.213360928E-2,3.361317635E0
1.372158231E0,1.050808048E1,6.508477330E-1,3.983451605E0
1.392426772E0,1.345065403E1,-9.601200819E-1,4.969892502E0
1.412695418E0,1.139641571E1,-8.069794178E-1,4.603790760E0
1.432964325E0,8.621937752E0,-4.336991012E-1,3.981058598E0
1.453235783E0,7.915457249E0,-9.696913958E-1,4.752145767E0
1.473501095E0,6.031109333E0,-4.073780477E-1,4.429114819E0
1.493769689E0,6.507879257E0,-1.417747438E-1,4.316651821E0
1.514038231E0,5.554937840E0,-4.049852192E-1,4.455435753E0
1.534306877E0,6.505486488E0,1.674975827E-2,4.895715237E0
1.554575470E0,7.390830994E0,2.065604210E0,4.728217602E0
1.574844064E0,4.688137531E0,3.368496180E0,4.747360229E0
1.595112606E0,5.324628353E0,1.941177368E0,5.248058319E0
1.615381200E0,7.034300327E0,2.410768747E0,6.947560310E0
1.635649793E0,5.305486202E0,3.789632797E0,7.007380962E0
1.655918387E0,4.118047714E0,3.835096598E0,6.579065800E0
1.676186981E0,4.388436794E0,4.347758770E0,5.365306377E0
1.696455575E0,5.023132801E0,4.038486481E0,5.415555954E0
1.716724168E0,6.289534092E0,4.802394867E0,5.755336761E0
1.736992762E0,5.782256126E0,4.945964336E0,6.354140759E0
1.757261356E0,5.401198864E0,3.868596077E0,7.275975227E0
1.777529897E0,4.331008911E0,3.715455294E0,7.599006653E0
1.797798595E0,3.555734396E0,4.701896667E0,8.010572433E0
1.818067241E0,2.456830740E0,5.173282623E0,7.496115208E0
1.838335835E0,2.485544443E0,4.651647091E0,8.425128937E0
1.858735835E0,3.011965513E0,4.448257446E0,8.939585686E0
1.878873075E0,2.224128723E0,6.729813576E0,8.595019341E0
1.899141668E0,7.519445419E-1,7.936394691E0,6.782455921E0
1.919410314E0,1.994417667E0,6.899703979E0,4.709074974E0
1.939678960E0,3.083750248E0,7.467401028E0,4.479363918E0
1.960078960E0,2.964108944E0,6.863811970E0,5.779264927E0
1.980216200E0,1.680957913E0,6.457031727E0,6.358926296E0
2.000484845E0,9.672985673E-1,6.708278179E0,8.154141426E0
2.020753439E0,2.305484533E0,6.028118610E0,9.734601021E0
2.041148752E0,4.551746845E0,4.929214478E0,1.053918743E1
2.061439272E0,4.383651257E0,5.365306377E0,9.241081238E0
2.081552450E0,3.553341627E0,5.472983360E0,7.107879639E0
2.101822554E0,3.294318676E0,4.809573650E0,6.741777897E0
2.122092293E0,3.086143017E0,4.419543266E0,7.232306480E0
2.142361772E0,5.674578667E0,4.374079704E0,6.863811970E0
2.162631200E0,6.804589272E0,2.616551638E0,6.516852379E0
2.182900366E0,7.347760201E0,2.645265341E0,5.707480431E0
2.203169481E0,6.334998131E0,3.320639610E0,5.178068161E0
2.223438491E0,4.881956577E0,3.768097401E0,5.417948723E0
2.243707137E0,4.165904045E0,4.704289436E0,4.986642361E0
2.264107450E0,6.873981476E0,3.008974552E0,4.823930264E0
2.284245054E0,1.129113197E1,-3.882354796E-1,4.206582069E0
2.304513960E0,9.437891006E0,2.262413740E0,4.436293125E0
2.324782762E0,8.827720642E0,3.672384501E0,5.063212872E0
2.345051564E0,7.566105366E0,2.700300455E0,4.441078663E0
2.365320314E0,7.542177200E0,1.019342422E0,2.953939438E0
2.385589116E0,8.806185722E0,6.245267391E-1,3.661018610E-1
2.405857866E0,1.066899776E1,1.936391711E0,-2.032702923E0
2.426126564E0,1.054158020E1,9.667003751E-1,-1.109073281E0
2.446395314E0,8.262416840E0,-4.049852192E-1,2.823530734E-1
2.466664064E0,1.044347477E1,-6.346961856E-1,1.613360643E0
2.486932762E0,9.828518867E0,-5.629115105E-1,2.827120066E0
2.507201512E0,8.238488197E0,-1.989632010E0,2.678765059E0
2.527470210E0,7.338188648E0,-3.292523861E0,2.539981127E0
2.547738908E0,7.568498135E0,-4.209573269E0,3.042474031E0
2.568007658E0,7.728816986E0,-4.530211449E0,1.886142492E0
2.588276408E0,9.289535522E0,-4.597210407E0,3.373879790E-1
2.608545106E0,9.902696609E0,-4.460819721E0,-2.213360928E-2
2.628813804E0,9.356534958E0,-4.716851711E0,-7.663014531E-1
2.649082554E0,8.911469460E0,-5.519045353E0,-1.695314884E0
2.669351252E0,9.507282257E0,-5.602794170E0,-2.068595171E0
2.689620002E0,9.656235695E0,-6.019145489E0,-2.739183664E0
2.709888752E0,8.593224525E0,-6.818946362E0,-3.192025423E0
2.730157502E0,6.744768620E0,-7.465606689E0,-3.718446493E0
2.750426252E0,4.980062008E0,-8.145168304E0,-3.409772158E0
2.770694950E0,3.486342669E0,-8.461619377E0,-2.217548370E0
2.790963700E0,3.198605776E0,-8.791828156E0,-2.803789854E0
2.811363700E0,4.494318962E0,-8.252845764E0,-3.476771355E0
2.831501200E0,3.751945972E0,-8.842078209E0,-3.385843992E0
2.851769897E0,3.412165165E0,-9.289535522E0,-2.155334949E0
2.872038647E0,3.517449379E0,-8.875576973E0,-4.719842672E-1
2.892307397E0,3.792623997E0,-8.909076691E0,-2.298904419E0
2.912576147E0,1.836491346E0,-9.076574326E0,-2.131406784E0
2.932844950E0,8.979067206E-1,-9.716055870E0,-1.041476011E0
2.953113700E0,6.394818425E-1,-9.991230965E0,-1.061216831E0
2.973382450E0,1.357926846E0,-9.802198410E0,-1.709671736E0
2.993651200E0,1.103689432E0,-9.735198975E0,-1.106680512E0
3.013920002E0,9.337990284E-1,-1.015872860E1,-9.391828626E-2
3.034188700E0,1.834098577E0,-1.020658493E1,-4.145565331E-1
3.054588700E0,1.252044439E0,-9.720842361E0,-1.106680512E0
3.074726304E0,8.117650747E-1,-9.708877563E0,-4.887340367E-1
3.094995054E0,4.025924206E-1,-9.481559753E0,2.392822690E-2
3.115263856E0,-3.062812984E-1,-9.522237778E0,-5.802594870E-2
3.135532606E0,-6.460621357E-1,-9.680164337E0,2.177468538E-1
3.155801408E0,-9.936196208E-1,-1.011087227E1,6.915257573E-1
3.176070158E0,-1.218544960E0,-9.988838196E0,9.308080077E-1
3.196338960E0,-1.594218135E0,-9.021539688E0,8.350951076E-1
3.216607710E0,-1.922633052E0,-8.705686569E0,8.877372146E-1
3.236876512E0,-1.701895118E0,-9.830911636E0,7.824530005E-1
3.257145314E0,-1.968096614E0,-9.378668785E0,4.977070987E-1
3.277414064E0,-1.929811478E0,-9.129216194E0,6.245267391E-1
3.297682866E0,-2.769692183E0,-9.723235130E0,1.821536183E0
3.317951668E0,-3.126821041E0,-1.012522888E1,2.638087034E0
3.338220470E0,-2.666800737E0,-9.443274498E0,2.963510752E0
3.358620470E0,-1.853241086E0,-9.412167549E0,2.252842426E0
3.378758075E0,-1.256830096E0,-8.978468895E0,2.005783558E0
3.399026877E0,-9.792626500E-1,-7.865208149E0,2.329412937E0
3.419295627E0,-1.374078393E0,-7.278966427E0,1.941177368E0
3.439564429E0,-1.228116274E0,-7.683353424E0,4.881358147E-1
3.459964429E0,-1.668395638E0,-6.952944279E0,-5.324030295E-2
3.480102085E0,-1.737787485E0,-5.528616905E0,7.178467698E-3
3.500370887E0,-1.814357758E0,-6.864409924E0,-3.451646566E-1
3.520639689E0,-2.011167526E0,-7.570890903E0,7.824530005E-1
3.540908543E0,-1.725823283E0,-8.667402267E0,9.427721500E-1
3.561308543E0,-1.522433400E0,-9.773484230E0,3.397808075E-1
3.581446147E0,-1.962114573E-1,-7.334001541E0,2.632104978E-2
3.601714950E0,-7.657032460E-2,-5.169095039E0,5.168496966E-1
3.621983752E0,-1.560718536E0,-6.314060688E0,1.048654556E0
3.642252554E0,-1.939382792E0,-7.769495010E0,8.135597110E-1
3.662652554E0,-1.704287887E0,-8.295916557E0,-2.452643216E-2
3.682790210E0,1.247258782E0,-9.919445992E0,-2.003988981E0
3.703059012E0,-5.694918036E-1,-2.173699951E1,-2.571686029E0
3.723327814E0,-6.478567123E0,-2.416032982E1,-2.621935368E0
3.743596668E0,-1.163569832E1,-1.551924992E1,-3.153740168E0
3.763984220E0,-8.109275818E0,-1.315872955E1,-1.987239242E0
3.784134325E0,-4.567898273E0,-9.527023315E0,-7.016952634E-1
3.804403127E0,-2.547159672E0,-9.381061554E0,-1.140179992E0
3.824671981E0,-1.170688510E0,-9.943374634E0,-1.043868899E0
3.844940783E0,8.787640929E-1,-1.069771194E1,9.236295223E-1
3.865209585E0,3.775874138E0,-1.129831028E1,5.508875847E0
3.885478439E0,4.815555513E-1,-1.083410263E1,3.165106058E0
3.905747241E0,-2.044667006E0,-1.076231766E1,1.232901812E0
3.926016095E0,-2.662015200E0,-9.586843491E0,-2.063809484E-1
3.946284897E0,-2.752942562E0,-8.913862228E0,-1.116251707E0
3.966553752E0,-3.165106058E0,-9.196215630E0,-1.745564103E0
3.986822554E0,-3.710669756E0,-1.001755238E1,-2.070987940E0
4.007091408E0,-3.605385542E0,-1.035015392E1,-2.315654039E0
4.027360210E0,-3.131606579E0,-9.960124016E0,-2.595614433E0
4.047629064E0,-2.630908489E0,-9.495916367E0,-2.408974171E0
4.067897918E0,-1.754537225E0,-9.397810936E0,-2.126621008E0
4.088166720E0,-5.670989752E-1,-9.457631111E0,-2.373081923E0
4.108435575E0,-5.527420044E-1,-9.431310654E0,-2.368296146E0
4.128704377E0,-2.081755698E-1,-8.669795036E0,-2.049452543E0
4.148973231E0,-2.464607358E-1,-8.717651367E0,-1.951346874E0
4.169242085E0,-8.955138922E-1,-9.260822296E0,-1.022333503E0
4.189510939E0,-3.150749207E0,-1.043928719E1,2.654836655E0
4.209779741E0,-3.473780155E0,-1.047517967E1,2.106880426E0
4.230048595E0,-3.167499065E0,-1.019222832E1,6.436693072E-1
4.250317450E0,-2.786442041E0,-9.263215065E0,-3.332005441E-1
4.270717450E0,-2.568695068E0,-8.039883614E0,-5.557330847E-1
4.290855106E0,-3.169891834E0,-7.779066563E0,-5.724828243E-1
4.311123960E0,-3.641277790E0,-8.765507698E0,-6.562315822E-1
4.331392762E0,-3.452244759E0,-1.025922680E1,-1.054038405E0
4.351661616E0,-2.824727058E0,-1.088674450E1,-1.570888042E0
4.371930470E0,-2.645265341E0,-1.059482002E1,-1.269392371E0
4.392199325E0,-2.599801779E0,-9.864411354E0,1.722832322E-1
4.412468179E0,-2.712264538E0,-9.560523033E0,6.340979934E-1
4.432736981E0,-2.389233351E0,-9.704092026E0,3.900300860E-1
4.453005835E0,-1.560718536E0,-9.720842361E0,-2.063809484E-1
4.473405835E0,-1.096511006E0,-9.694520950E0,-9.146564603E-1
4.493543543E0,-1.307079315E0,-9.653842926E0,-1.446461320E0
4.513812397E0,-2.126022816E0,-8.880363464E0,-1.654636860E0
4.534081200E0,-2.894717216E0,-9.720842361E0,-1.566102386E0
4.554350054E0,-2.360519648E0,-9.976874352E0,-7.208378315E-1
4.574618908E0,-1.891526341E0,-9.462417603E0,-3.284149170E-1
4.594887762E0,-1.417149186E0,-9.330213547E0,-4.025924206E-1
4.615156616E0,-1.149153113E0,-1.006301594E1,-1.800599098E-1
4.635564585E0,-1.783251047E0,-9.984052658E0,-4.366901144E-2
4.655858595E0,-2.090130568E0,-1.000080204E1,-9.391828626E-2
4.676110522E0,-1.848455548E0,-9.605986595E0,-3.714857101E-1
4.696224168E0,-1.826920033E0,-8.827720642E0,-1.043868899E0
4.716494533E0,-1.613360643E0,-9.026325226E0,-1.812563181E0
4.736763335E0,-1.197009563E0,-9.311071396E0,-1.948953986E0
4.757164741E0,-8.261220455E-1,-9.644271851E0,-1.848455548E0
4.777303387E0,-5.383850932E-1,-9.828518867E0,-1.714457393E0
4.797573022E0,-5.168496966E-1,-9.735198975E0,-1.530210137E0
4.817841825E0,-3.924229145E-1,-9.926624298E0,-1.259821177E0
4.838250470E0,2.614158690E-1,-1.017787075E1,-8.261220455E-1
4.858529220E0,1.922633052E0,-1.044885826E1,1.483550072E-1
4.878643075E0,1.563709617E0,-1.012044334E1,1.670788407E0
4.898913647E0,4.313062727E-1,-9.644271851E0,1.295115232E0
4.919182450E0,1.028913707E-1,-9.914660454E0,4.067798555E-1
4.939591877E0,-9.571290761E-2,-9.840482712E0,-2.614158690E-1
4.959871147E0,6.251249313E-1,-1.065703392E1,-7.136593461E-1
4.979985522E0,-7.537391186E-1,-9.751948357E0,-4.839483798E-1
5.000256460E0,-2.049452543E0,-9.608379364E0,-5.629115105E-1
5.020526929E0,-2.281556368E0,-9.728020668E0,-8.596215248E-1
5.040795627E0,-2.281556368E0,-9.751948357E0,-1.061216831E0
5.061197085E0,-2.207378864E0,-9.653842926E0,-1.063609719E0
5.081335835E0,-2.164308071E0,-9.548559189E0,-8.452646136E-1
5.101605575E0,-2.109273195E0,-9.409774780E0,-6.753742099E-1
5.121875054E0,-1.877169371E0,-9.450452805E0,-6.681957245E-1
5.142143856E0,-1.252044439E0,-9.637093544E0,-7.998009920E-1
5.162544481E0,-7.704889178E-1,-9.854840279E0,-7.136593461E-1
5.182682606E0,-5.623133183E-1,-9.962516785E0,-4.384847581E-1
5.202951825E0,-4.642075896E-1,-9.926624298E0,7.178467698E-3
5.223220939E0,-2.368894368E-1,-9.909874916E0,1.084546804E0
5.243489741E0,-4.211367965E-1,-9.866804123E0,9.786644578E-1
5.263889950E0,-7.609176040E-1,-9.888339996E0,6.269195080E-1
5.284027866E0,-8.500502706E-1,-9.881160736E0,1.674975902E-1
5.304296877E0,-8.045865893E-1,-9.833304405E0,-3.092723191E-1
5.324565835E0,-7.704889178E-1,-9.771091461E0,-6.466603279E-1
5.344834793E0,-8.141579032E-1,-9.771091461E0,-7.256234884E-1
5.365103752E0,-8.811569214E-1,-9.790233612E0,-6.969096065E-1
5.385372606E0,-8.931210637E-1,-9.766305923E0,-6.801598072E-1
5.405641512E0,-8.883354068E-1,-9.711270332E0,-6.466603279E-1
5.425910366E0,-8.715856671E-1,-9.732806206E0,-6.394818425E-1
5.446179220E0,-7.926225066E-1,-9.792626381E0,-6.131607890E-1
5.466448127E0,-7.465606928E-1,-9.797411919E0,-5.485545993E-1
5.486716981E0,-7.513462901E-1,-9.799804688E0,-3.906283081E-1
5.506985835E0,-8.237292171E-1,-9.795019150E0,-5.563312769E-2
5.527254689E0,-8.500502706E-1,-9.799804688E0,1.363908947E-1
5.547523543E0,-7.854440212E-1,-9.876375198E0,1.698904037E-1
5.567792397E0,-7.728816867E-1,-9.876375198E0,7.896314561E-2
5.588061252E0,-9.002995491E-1,-9.806983948E0,-1.202393398E-1
5.608330158E0,-9.720842242E-1,-9.778269768E0,-2.997010350E-1
5.628599012E0,-9.840483069E-1,-9.778269768E0,-4.073780477E-1
5.648867866E0,-1.010369420E0,-9.761520386E0,-4.504488707E-1
5.669136668E0,-1.067797065E0,-9.742377281E0,-4.648058116E-1
5.689405522E0,-1.067797065E0,-9.716055870E0,-5.030909777E-1
5.709674377E0,-1.007976532E0,-9.704092026E0,-5.437689424E-1
5.729943231E0,-9.672985673E-1,-9.725627899E0,-5.318048596E-1
5.750212033E0,-9.601200819E-1,-9.749555588E0,-4.743770957E-1
5.770480887E0,-9.146564603E-1,-9.771091461E0,-3.595215976E-1
5.790749741E0,-9.098708034E-1,-9.751948357E0,-2.279163599E-1
5.811018595E0,-9.122636318E-1,-9.754341125E0,-1.082752272E-1
5.831287450E0,-9.409775138E-1,-9.744770050E0,-1.106680483E-1
5.851556200E0,-9.505487680E-1,-9.768698692E0,-1.609173268E-1
5.871825106E0,-9.792626500E-1,-9.783055305E0,-2.327020019E-1
5.892093960E0,-9.936196208E-1,-9.823733330E0,-3.212364316E-1
5.912362814E0,-1.067797065E0,-9.790233612E0,-3.690928817E-1
5.932631616E0,-1.165902853E0,-9.720842361E0,-4.217349887E-1
5.952900470E0,-1.170688510E0,-9.706484795E0,-4.432703853E-1
5.973169325E0,-1.141974568E0,-9.725627899E0,-4.552344978E-1
5.993438179E0,-1.098903775E0,-9.708877563E0,-4.480560422E-1
6.013706981E0,-1.065404296E0,-9.725627899E0,-4.217349887E-1
6.033975835E0,-1.046261668E0,-9.742377281E0,-3.475574851E-1
6.054244689E0,-1.022333503E0,-9.804591179E0,-2.901297510E-1
6.074513491E0,-1.058225870E0,-9.842875481E0,-2.542374134E-1
6.094782345E0,-1.058225870E0,-9.814162254E0,-2.925225794E-1
6.115051147E0,-1.007976532E0,-9.766305923E0,-3.236292601E-1
6.135320002E0,-9.266205430E-1,-9.759127617E0,-3.738785386E-1
6.155588856E0,-8.811569214E-1,-9.761520386E0,-4.360919297E-1
6.175857658E0,-8.309076428E-1,-9.780662537E0,-4.432703853E-1
6.196126512E0,-8.117650747E-1,-9.775876999E0,-4.408775866E-1
6.216395366E0,-8.189435601E-1,-9.775876999E0,-4.313062727E-1
6.236664168E0,-8.237292171E-1,-9.795019150E0,-3.954139352E-1
6.256933022E0,-8.955138922E-1,-9.792626381E0,-3.954139352E-1
6.277201825E0,-9.696913958E-1,-9.775876999E0,-4.217349887E-1
6.297470679E0,-9.864411354E-1,-9.735198975E0,-4.456632137E-1
6.317739533E0,-9.577272534E-1,-9.742377281E0,-4.336991012E-1
6.338012293E0,-9.146564603E-1,-9.761520386E0,-4.073780477E-1
6.358315731E0,-9.194421172E-1,-9.759127617E0,-4.073780477E-1
6.378545418E0,-9.553344250E-1,-9.720842361E0,-4.169493318E-1
6.398814377E0,-9.433703423E-1,-9.701699257E0,-4.313062727E-1
6.419083283E0,-9.601200819E-1,-9.704092026E0,-4.145565331E-1
6.439352137E0,-9.074779749E-1,-9.749555588E0,-4.193421602E-1
6.459752241E0,-8.859425783E-1,-9.749555588E0,-4.145565331E-1
6.479889897E0,-8.955138922E-1,-9.771091461E0,-4.432703853E-1
6.500158752E0,-9.098708034E-1,-9.790233612E0,-4.743770957E-1
6.520427658E0,-9.385846853E-1,-9.763913155E0,-4.648058116E-1
6.540696460E0,-9.696913958E-1,-9.723235130E0,-4.121637046E-1
6.561096460E0,-9.672985673E-1,-9.732806206E0,-4.001995921E-1
6.581234168E0,-1.024726272E0,-9.756733894E0,-4.432703853E-1
6.601503022E0,-1.067797065E0,-9.775876999E0,-4.743770957E-1
6.621771877E0,-1.063011408E0,-9.771091461E0,-4.791627228E-1
6.642040731E0,-1.031904817E0,-9.732806206E0,-4.313062727E-1
6.662440731E0,-9.577272534E-1,-9.783055305E0,-4.289134443E-1
6.682578387E0,-9.218349457E-1,-9.795019150E0,-4.360919297E-1
6.702847189E0,-9.146564603E-1,-9.826126099E0,-4.719842672E-1
6.723115991E0,-9.553344250E-1,-9.847661972E0,-4.935196638E-1
6.743384845E0,-9.601200819E-1,-9.783055305E0,-4.791627228E-1
6.763772345E0,-9.553344250E-1,-9.735198975E0,-4.863412082E-1
6.783922502E0,-9.098708034E-1,-9.735198975E0,-5.078766346E-1
6.804191304E0,-8.859425783E-1,-9.720842361E0,-5.198407173E-1
6.824460158E0,-8.572286963E-1,-9.766305923E0,-5.437689424E-1
6.844728960E0,-8.715856671E-1,-9.778269768E0,-5.581258535E-1
6.864997814E0,-8.739784956E-1,-9.768698692E0,-5.653043389E-1
6.885266668E0,-8.859425783E-1,-9.787840843E0,-5.629115105E-1
6.905535470E0,-8.907282352E-1,-9.809376717E0,-5.581258535E-1
6.925804272E0,-8.835497499E-1,-9.826126099E0,-5.270192027E-1
6.946073127E0,-8.476574421E-1,-9.804591179E0,-5.222335458E-1
6.966341929E0,-8.380861282E-1,-9.814162254E0,-5.246263742E-1
6.986610679E0,-8.500502706E-1,-9.787840843E0,-5.126622319E-1
7.006879585E0,-8.596215248E-1,-9.773484230E0,-4.863412082E-1
7.027148387E0,-8.644071817E-1,-9.780662537E0,-4.671986103E-1
7.047417241E0,-8.955138922E-1,-9.811769485E0,-4.384847581E-1
7.067686043E0,-9.433703423E-1,-9.802198410E0,-4.217349887E-1
7.087954845E0,-9.625129104E-1,-9.783055305E0,-4.289134443E-1
7.108223647E0,-9.888339639E-1,-9.790233612E0,-4.504488707E-1
7.128492502E0,-1.012762189E0,-9.766305923E0,-4.815555513E-1
7.148761252E0,-9.960124493E-1,-9.744770050E0,-5.318048596E-1
7.169030106E0,-9.840483069E-1,-9.756733894E0,-5.365904570E-1
7.189298908E0,-9.768698215E-1,-9.761520386E0,-5.605186820E-1
7.209567710E0,-9.625129104E-1,-9.751948357E0,-5.772684813E-1
7.229836564E0,-9.720842242E-1,-9.735198975E0,-5.294120312E-1
7.250105366E0,-9.481559992E-1,-9.723235130E0,-5.150550604E-1
7.270374168E0,-9.433703423E-1,-9.747162819E0,-4.624129832E-1
7.290642970E0,-9.505487680E-1,-9.775876999E0,-4.336991012E-1
7.310911772E0,-1.007976532E0,-9.787840843E0,-3.690928817E-1
7.331180575E0,-1.067797065E0,-9.775876999E0,-2.973082066E-1
7.351449377E0,-1.067797065E0,-9.766305923E0,-2.997010350E-1
7.371718179E0,-1.007976532E0,-9.799804688E0,-3.140579760E-1
7.391986981E0,-1.007976532E0,-9.773484230E0,-3.882354796E-1
7.412255783E0,-1.019940615E0,-9.766305923E0,-4.432703853E-1
7.432524585E0,-1.015154958E0,-9.742377281E0,-4.743770957E-1
7.452793387E0,-9.840483069E-1,-9.742377281E0,-4.767699242E-1
7.473062137E0,-9.744769931E-1,-9.739984512E0,-4.839483798E-1
7.493330939E0,-9.792626500E-1,-9.742377281E0,-4.719842672E-1
7.513599793E0,-1.055832982E0,-9.725627899E0,-4.336991012E-1
7.533868595E0,-1.115653515E0,-9.759127617E0,-3.978067636E-1
7.554268595E0,-1.134796143E0,-9.739984512E0,-3.690928817E-1
7.574406147E0,-1.101296663E0,-9.723235130E0,-3.379862010E-1
7.594674950E0,-1.053440213E0,-9.747162819E0,-3.284149170E-1
7.614943804E0,-1.039083242E0,-9.768698692E0,-3.308077157E-1
7.635212606E0,-1.060618639E0,-9.790233612E0,-3.475574851E-1
7.655481408E0,-1.086939692E0,-9.792626381E0,-3.667000830E-1
7.675750158E0,-1.070189953E0,-9.766305923E0,-3.858426511E-1
7.696018908E0,-1.063011408E0,-9.763913155E0,-3.882354796E-1
7.716287710E0,-1.031904817E0,-9.754341125E0,-4.528416991E-1
7.736556512E0,-1.012762189E0,-9.732806206E0,-4.528416991E-1
7.756825314E0,-1.031904817E0,-9.713663101E0,-4.600201547E-1
7.777094116E0,-1.055832982E0,-9.749555588E0,-4.432703853E-1
7.797362918E0,-1.046261668E0,-9.792626381E0,-4.217349887E-1
7.817631720E0,-1.067797065E0,-9.756733894E0,-3.762713671E-1
7.837900418E0,-1.074975610E0,-9.689735413E0,-3.690928817E-1
7.858169272E0,-1.098903775E0,-9.692128181E0,-3.547359705E-1
7.878438075E0,-1.067797065E0,-9.739984512E0,-3.595215976E-1
7.898706877E0,-9.960124493E-1,-9.833304405E0,-3.882354796E-1
7.918975679E0,-9.984052777E-1,-9.828518867E0,-3.978067636E-1
7.939244481E0,-1.074975610E0,-9.771091461E0,-4.001995921E-1
7.959644481E0,-1.086939692E0,-9.751948357E0,-3.643072546E-1
7.979782033E0,-1.048654556E0,-9.763913155E0,-3.140579760E-1
8.000050835E0,-1.005583763E0,-9.787840843E0,-3.140579760E-1
8.020319637E0,-1.034297585E0,-9.768698692E0,-3.379862010E-1
8.040588387E0,-1.118046403E0,-9.730413437E0,-3.906283081E-1
8.060988387E0,-1.139581800E0,-9.704092026E0,-4.097708762E-1
8.081125991E0,-1.058225870E0,-9.728020668E0,-3.882354796E-1
8.101394793E0,-9.553344250E-1,-9.754341125E0,-3.738785386E-1
8.121663543E0,-9.601200819E-1,-9.780662537E0,-3.547359705E-1
8.141932345E0,-1.070189953E0,-9.780662537E0,-3.786641955E-1
8.162332345E0,-1.177866936E0,-9.775876999E0,-3.667000830E-1
8.182469897E0,-1.161117196E0,-9.775876999E0,-3.403790295E-1
8.202738700E0,-1.110867858E0,-9.778269768E0,-3.284149170E-1
8.223007502E0,-1.039083242E0,-9.756733894E0,-3.499503136E-1
8.243276252E0,-1.065404296E0,-9.728020668E0,-3.786641955E-1
8.263676252E0,-1.077368379E0,-9.706484795E0,-3.930211067E-1
8.283813856E0,-1.031904817E0,-9.737591743E0,-4.073780477E-1
8.304082606E0,-1.010369420E0,-9.787840843E0,-3.882354796E-1
8.324351408E0,-1.029511929E0,-9.792626381E0,-3.810569942E-1
8.344620210E0,-1.063011408E0,-9.759127617E0,-4.025924206E-1
8.364888960E0,-1.074975610E0,-9.756733894E0,-4.097708762E-1
8.385157762E0,-1.039083242E0,-9.744770050E0,-3.858426511E-1
8.405426512E0,-1.051047325E0,-9.747162819E0,-3.571287692E-1
8.425695314E0,-1.072582722E0,-9.756733894E0,-3.595215976E-1
8.445964064E0,-1.120439172E0,-9.766305923E0,-3.667000830E-1
8.466232866E0,-1.156331539E0,-9.759127617E0,-3.786641955E-1
8.486501616E0,-1.139581800E0,-9.749555588E0,-3.714857101E-1
8.506770418E0,-1.084546804E0,-9.720842361E0,-3.667000830E-1
8.527039168E0,-1.067797065E0,-9.742377281E0,-3.667000830E-1
8.547307918E0,-1.082154036E0,-9.783055305E0,-3.858426511E-1
8.567576720E0,-1.096511006E0,-9.775876999E0,-3.499503136E-1
8.587845470E0,-1.108475089E0,-9.754341125E0,-3.451646566E-1
8.608114272E0,-1.113260746E0,-9.749555588E0,-3.164508045E-1
8.628383022E0,-1.132403374E0,-9.763913155E0,-2.973082066E-1
8.648651772E0,-1.161117196E0,-9.756733894E0,-3.284149170E-1
8.668920575E0,-1.201795220E0,-9.730413437E0,-3.690928817E-1
8.689189325E0,-1.225723386E0,-9.732806206E0,-3.810569942E-1
8.709458075E0,-1.170688510E0,-9.768698692E0,-3.786641955E-1
8.729726877E0,-1.161117196E0,-9.768698692E0,-3.571287692E-1
8.749995627E0,-1.144367456E0,-9.785448074E0,-3.403790295E-1
8.770264325E0,-1.132403374E0,-9.761520386E0,-3.475574851E-1
8.790533179E0,-1.106082320E0,-9.723235130E0,-3.451646566E-1
8.810801929E0,-1.084546804E0,-9.713663101E0,-3.188436031E-1
8.831070679E0,-1.074975610E0,-9.756733894E0,-3.020938635E-1
8.851339481E0,-1.098903775E0,-9.809376717E0,-3.164508045E-1
8.871608231E0,-1.146760225E0,-9.809376717E0,-3.499503136E-1
8.891876929E0,-1.211366415E0,-9.780662537E0,-3.236292601E-1
8.912145731E0,-1.208973646E0,-9.728020668E0,-2.997010350E-1
8.932414481E0,-1.185045362E0,-9.739984512E0,-2.949153781E-1
8.952683283E0,-1.170688510E0,-9.735198975E0,-3.260220885E-1
8.972952033E0,-1.165902853E0,-9.754341125E0,-3.571287692E-1
8.993220783E0,-1.180259824E0,-9.723235130E0,-3.858426511E-1
9.013489533E0,-1.139581800E0,-9.737591743E0,-3.882354796E-1
9.033758283E0,-1.103689432E0,-9.771091461E0,-3.643072546E-1
9.054027033E0,-1.079761267E0,-9.747162819E0,-3.379862010E-1
9.074295783E0,-1.094118118E0,-9.716055870E0,-3.355933726E-1
9.094564585E0,-1.113260746E0,-9.730413437E0,-3.332005441E-1
9.114833283E0,-1.103689432E0,-9.742377281E0,-3.643072546E-1
9.135102033E0,-1.084546804E0,-9.735198975E0,-3.523431420E-1
9.155370835E0,-1.060618639E0,-9.747162819E0,-3.164508045E-1
9.175639585E0,-1.098903775E0,-9.713663101E0,-3.140579760E-1
9.195908335E0,-1.137188911E0,-9.747162819E0,-3.714857101E-1
9.216177085E0,-1.120439172E0,-9.739984512E0,-3.619144261E-1
9.236445835E0,-1.096511006E0,-9.737591743E0,-3.523431420E-1
9.256714585E0,-1.134796143E0,-9.747162819E0,-3.499503136E-1
9.277114585E0,-1.173081279E0,-9.759127617E0,-3.475574851E-1
9.297252085E0,-1.206580877E0,-9.766305923E0,-3.212364316E-1
9.317520835E0,-1.194616675E0,-9.768698692E0,-2.901297510E-1
9.337789585E0,-1.125224829E0,-9.742377281E0,-2.757728100E-1
9.358189585E0,-1.098903775E0,-9.728020668E0,-2.805584669E-1
9.378327137E0,-1.141974568E0,-9.742377281E0,-3.188436031E-1
9.398595835E0,-1.204187989E0,-9.759127617E0,-3.786641955E-1
9.418864585E0,-1.216152072E0,-9.739984512E0,-3.978067636E-1
9.439133335E0,-1.161117196E0,-9.725627899E0,-3.762713671E-1
9.459533335E0,-1.091725349E0,-9.725627899E0,-3.547359705E-1
9.479670835E0,-1.077368379E0,-9.730413437E0,-3.810569942E-1
9.499939585E0,-1.103689432E0,-9.744770050E0,-4.025924206E-1
9.520208335E0,-1.141974568E0,-9.749555588E0,-3.810569942E-1
9.540477085E0,-1.146760225E0,-9.766305923E0,-3.523431420E-1
9.560877085E0,-1.084546804E0,-9.773484230E0,-3.451646566E-1
9.581014585E0,-1.029511929E0,-9.766305923E0,-3.619144261E-1
9.601283335E0,-1.017547846E0,-9.739984512E0,-3.667000830E-1
9.621552085E0,-1.043868899E0,-9.723235130E0,-3.834498227E-1
9.641820835E0,-1.113260746E0,-9.728020668E0,-4.121637046E-1
9.662220835E0,-1.146760225E0,-9.751948357E0,-4.145565331E-1
9.682358335E0,-1.161117196E0,-9.754341125E0,-3.762713671E-1
9.702627085E0,-1.165902853E0,-9.751948357E0,-3.690928817E-1
9.722895835E0,-1.101296663E0,-9.751948357E0,-3.954139352E-1
9.743164585E0,-1.074975610E0,-9.699306488E0,-3.786641955E-1
9.763564585E0,-1.067797065E0,-9.689735413E0,-3.571287692E-1
9.783702085E0,-1.098903775E0,-9.744770050E0,-3.738785386E-1
9.803970783E0,-1.144367456E0,-9.814162254E0,-3.714857101E-1
9.824239533E0,-1.192223907E0,-9.806983948E0,-4.025924206E-1
9.844508283E0,-1.204187989E0,-9.773484230E0,-3.690928817E-1
9.864777033E0,-1.173081279E0,-9.785448074E0,-3.523431420E-1
9.885045783E0,-1.127617717E0,-9.766305923E0,-3.284149170E-1
9.905314481E0,-1.096511006E0,-9.754341125E0,-3.427718580E-1
9.925583283E0,-1.141974568E0,-9.751948357E0,-3.690928817E-1
9.945851981E0,-1.189831018E0,-9.754341125E0,-3.882354796E-1
9.966120731E0,-1.141974568E0,-9.761520386E0,-3.858426511E-1
9.986389481E0,-1.077368379E0,-9.744770050E0,-3.595215976E-1
1.000665823E1,-1.072582722E0,-9.732806206E0,-3.714857101E-1
1.002692698E1,-1.149153113E0,-9.728020668E0,-3.571287692E-1
1.004719568E1,-1.211366415E0,-9.742377281E0,-3.523431420E-1
1.006746443E1,-1.208973646E0,-9.768698692E0,-3.260220885E-1
1.008773318E1,-1.158724308E0,-9.806983948E0,-3.355933726E-1
1.010800193E1,-1.096511006E0,-9.811769485E0,-3.643072546E-1
1.012827068E1,-1.084546804E0,-9.747162819E0,-3.906283081E-1
1.014853938E1,-1.103689432E0,-9.704092026E0,-4.025924206E-1
1.016880813E1,-1.130010486E0,-9.725627899E0,-4.097708762E-1
1.018907688E1,-1.094118118E0,-9.768698692E0,-4.289134443E-1
1.020934563E1,-1.096511006E0,-9.821340561E0,-4.001995921E-1
1.022961432E1,-1.110867858E0,-9.785448074E0,-3.978067636E-1
1.024988308E1,-1.115653515E0,-9.754341125E0,-3.523431420E-1
1.027015183E1,-1.067797065E0,-9.768698692E0,-3.260220885E-1
1.029042052E1,-1.089332461E0,-9.744770050E0,-2.997010350E-1
1.031068927E1,-1.173081279E0,-9.739984512E0,-3.188436031E-1
1.033095802E1,-1.218544960E0,-9.775876999E0,-3.690928817E-1
1.035122672E1,-1.242473125E0,-9.739984512E0,-4.313062727E-1
1.037149547E1,-1.208973646E0,-9.704092026E0,-4.743770957E-1
1.039176422E1,-1.137188911E0,-9.704092026E0,-4.935196638E-1
1.041203292E1,-1.074975610E0,-9.716055870E0,-4.983053207E-1
1.043230167E1,-1.072582722E0,-9.763913155E0,-4.911268353E-1
1.045257031E1,-1.125224829E0,-9.759127617E0,-4.504488707E-1
1.047283912E1,-1.153938770E0,-9.742377281E0,-3.762713671E-1
1.049310787E1,-1.108475089E0,-9.742377281E0,-3.188436031E-1
1.051337662E1,-1.036690354E0,-9.771091461E0,-3.068794906E-1
1.053364531E1,-1.027119160E0,-9.766305923E0,-2.997010350E-1
1.055391406E1,-1.113260746E0,-9.766305923E0,-3.308077157E-1
1.057418276E1,-1.165902853E0,-9.749555588E0,-3.571287692E-1
1.059445151E1,-1.170688510E0,-9.754341125E0,-3.930211067E-1
1.061472026E1,-1.115653515E0,-9.763913155E0,-4.289134443E-1
1.063498896E1,-1.110867858E0,-9.735198975E0,-4.600201547E-1
1.065525771E1,-1.098903775E0,-9.723235130E0,-4.767699242E-1
1.067552641E1,-1.101296663E0,-9.723235130E0,-4.576273263E-1
1.069579516E1,-1.101296663E0,-9.730413437E0,-4.241278172E-1
1.071606391E1,-1.096511006E0,-9.751948357E0,-3.595215976E-1
1.073633261E1,-1.084546804E0,-9.783055305E0,-3.164508045E-1
1.075660136E1,-1.079761267E0,-9.790233612E0,-3.164508045E-1
1.077687005E1,-1.098903775E0,-9.761520386E0,-3.332005441E-1
1.079713880E1,-1.161117196E0,-9.744770050E0,-3.595215976E-1
1.081740750E1,-1.180259824E0,-9.718449593E0,-3.619144261E-1
1.083767620E1,-1.144367456E0,-9.739984512E0,-3.786641955E-1
1.085794495E1,-1.132403374E0,-9.749555588E0,-3.930211067E-1
1.087821365E1,-1.149153113E0,-9.759127617E0,-4.193421602E-1
1.089848240E1,-1.153938770E0,-9.737591743E0,-3.810569942E-1
1.091875110E1,-1.161117196E0,-9.751948357E0,-3.858426511E-1
1.093901984E1,-1.130010486E0,-9.773484230E0,-3.595215976E-1
1.095941985E1,-1.144367456E0,-9.768698692E0,-3.355933726E-1
1.097955729E1,-1.151545882E0,-9.756733894E0,-3.499503136E-1
1.099982599E1,-1.130010486E0,-9.756733894E0,-3.427718580E-1
1.102009474E1,-1.127617717E0,-9.759127617E0,-3.284149170E-1
1.104036344E1,-1.106082320E0,-9.744770050E0,-3.499503136E-1
1.106076344E1,-1.134796143E0,-9.725627899E0,-3.738785386E-1
1.108090089E1,-1.125224829E0,-9.720842361E0,-4.193421602E-1
1.110116964E1,-1.103689432E0,-9.723235130E0,-4.408775866E-1
1.112143834E1,-1.051047325E0,-9.732806206E0,-4.217349887E-1
1.114170708E1,-1.055832982E0,-9.751948357E0,-3.978067636E-1
1.116210708E1,-1.096511006E0,-9.792626381E0,-3.690928817E-1
1.118224453E1,-1.139581800E0,-9.780662537E0,-3.236292601E-1
1.120251323E1,-1.149153113E0,-9.744770050E0,-3.164508045E-1
1.122278193E1,-1.132403374E0,-9.754341125E0,-3.260220885E-1
1.124305068E1,-1.082154036E0,-9.761520386E0,-3.595215976E-1
1.126345068E1,-1.039083242E0,-9.747162819E0,-3.882354796E-1
1.128358808E1,-1.074975610E0,-9.739984512E0,-4.265206456E-1
1.130385682E1,-1.079761267E0,-9.754341125E0,-4.384847581E-1
1.132412552E1,-1.103689432E0,-9.785448074E0,-3.930211067E-1
1.134439427E1,-1.086939692E0,-9.802198410E0,-3.786641955E-1
1.136466297E1,-1.091725349E0,-9.771091461E0,-3.451646566E-1
1.138493167E1,-1.120439172E0,-9.723235130E0,-3.260220885E-1
1.140520042E1,-1.139581800E0,-9.701699257E0,-3.116651475E-1
1.142546912E1,-1.122832060E0,-9.739984512E0,-3.164508045E-1
1.144573787E1,-1.120439172E0,-9.771091461E0,-3.714857101E-1
1.146600656E1,-1.130010486E0,-9.725627899E0,-4.001995921E-1
1.148627526E1,-1.110867858E0,-9.725627899E0,-4.313062727E-1
1.150654396E1,-1.101296663E0,-9.795019150E0,-4.671986103E-1
1.152681271E1,-1.134796143E0,-9.830911636E0,-4.001995921E-1
1.154708141E1,-1.144367456E0,-9.804591179E0,-3.475574851E-1
1.156735011E1,-1.149153113E0,-9.763913155E0,-3.044866920E-1
1.158761880E1,-1.101296663E0,-9.737591743E0,-3.020938635E-1
1.160788755E1,-1.060618639E0,-9.701699257E0,-2.973082066E-1
1.162815625E1,-1.024726272E0,-9.694520950E0,-2.997010350E-1
1.164842500E1,-1.019940615E0,-9.756733894E0,-3.571287692E-1
1.166869375E1,-1.108475089E0,-9.780662537E0,-3.810569942E-1
1.168896234E1,-1.170688510E0,-9.795019150E0,-4.025924206E-1
1.170923110E1,-1.163509965E0,-9.811769485E0,-4.169493318E-1
1.172949985E1,-1.120439172E0,-9.751948357E0,-3.810569942E-1
1.174976854E1,-1.086939692E0,-9.739984512E0,-3.547359705E-1
1.177003719E1,-1.108475089E0,-9.737591743E0,-3.427718580E-1
1.179030594E1,-1.072582722E0,-9.754341125E0,-3.643072546E-1
1.181057469E1,-1.027119160E0,-9.763913155E0,-3.643072546E-1
1.183084339E1,-1.036690354E0,-9.778269768E0,-3.188436031E-1
1.185111208E1,-1.077368379E0,-9.780662537E0,-3.020938635E-1
1.187138078E1,-1.125224829E0,-9.795019150E0,-3.188436031E-1
1.189164948E1,-1.108475089E0,-9.821340561E0,-3.332005441E-1
1.191191823E1,-1.055832982E0,-9.897911072E0,-3.643072546E-1
1.193218693E1,-1.058225870E0,-9.981659889E0,-3.738785386E-1
1.195245563E1,-1.070189953E0,-9.948160172E0,-3.667000830E-1
1.197272433E1,-1.065404296E0,-9.921838760E0,-3.595215976E-1
1.199299308E1,-9.936196208E-1,-9.842875481E0,-3.236292601E-1
1.201326177E1,-9.314061999E-1,-9.778269768E0,-2.518445849E-1
1.203353047E1,-9.457631707E-1,-9.792626381E0,-1.992024779E-1
1.205393047E1,-1.089332461E0,-9.759127617E0,-1.896311939E-1
1.207406787E1,-1.204187989E0,-9.735198975E0,-2.398804724E-1
1.209433656E1,-1.208973646E0,-9.706484795E0,-3.140579760E-1
1.211460531E1,-1.089332461E0,-9.735198975E0,-3.619144261E-1
1.213487401E1,-9.888339639E-1,-9.739984512E0,-3.690928817E-1
1.215514271E1,-8.979067206E-1,-9.742377281E0,-3.714857101E-1
1.217541141E1,-8.524430394E-1,-9.622735977E0,-3.284149170E-1
1.219568011E1,-8.141579032E-1,-9.515059471E0,-3.379862010E-1
1.221594886E1,-8.261220455E-1,-9.452845573E0,-3.786641955E-1
1.223621755E1,-7.878368497E-1,-9.498309135E0,-4.384847581E-1
1.225648625E1,-7.274180651E-1,-9.529416084E0,-4.983053207E-1
1.227675495E1,-6.987041831E-1,-9.553344727E0,-5.102694035E-1
1.229702365E1,-7.226324677E-1,-9.579665184E0,-5.629115105E-1
1.231729240E1,-8.237292171E-1,-9.637093544E0,-5.341976285E-1
1.233756110E1,-8.979067206E-1,-9.706484795E0,-4.911268353E-1
1.235782979E1,-1.041476011E0,-9.780662537E0,-4.528416991E-1
1.237809849E1,-1.151545882E0,-9.850054741E0,-4.001995921E-1
1.239836719E1,-1.328614831E0,-9.909874916E0,-2.279163599E-1
1.241863589E1,-1.426720500E0,-9.969695091E0,-1.974078640E-2
1.243890459E1,-1.441077471E0,-9.955338478E0,1.028913707E-1
1.245930458E1,-1.429113269E0,-9.893125534E0,1.004985496E-1
1.247944198E1,-1.376471281E0,-9.869196892E0,4.307080805E-2
1.249971068E1,-1.335793257E0,-9.857233047E0,-4.845465720E-2
1.251997943E1,-1.323829174E0,-9.852447510E0,-1.633101404E-1
1.254024813E1,-1.393221021E0,-9.818947792E0,-2.925225794E-1
1.256064813E1,-1.453041553E0,-9.773484230E0,-3.547359705E-1
1.258078552E1,-1.469791293E0,-9.684949875E0,-4.145565331E-1
1.260105422E1,-1.455434322E0,-9.651450157E0,-4.456632137E-1
1.262132292E1,-1.390828133E0,-9.682557106E0,-4.336991012E-1
1.264159162E1,-1.256830096E0,-9.692128181E0,-3.930211067E-1
1.266199162E1,-1.134796143E0,-9.706484795E0,-3.308077157E-1
1.268212901E1,-1.000798106E0,-9.761520386E0,-2.542374134E-1
1.270239771E1,-8.883354068E-1,-9.804591179E0,-2.327020019E-1
1.272266641E1,-8.739784956E-1,-9.799804688E0,-2.111666054E-1
1.274293511E1,-9.792626500E-1,-9.744770050E0,-2.255235314E-1
1.276333511E1,-1.086939692E0,-9.725627899E0,-2.733799815E-1
1.278347245E1,-1.170688510E0,-9.711270332E0,-3.427718580E-1
1.280374115E1,-1.113260746E0,-9.646664619E0,-3.954139352E-1
1.282400984E1,-1.031904817E0,-9.651450157E0,-4.552344978E-1
1.284427854E1,-9.840483069E-1,-9.696913719E0,-4.839483798E-1
1.286454724E1,-1.067797065E0,-9.732806206E0,-4.815555513E-1
1.288481594E1,-1.199402332E0,-9.766305923E0,-4.671986103E-1
1.290508464E1,-1.295115232E0,-9.783055305E0,-4.360919297E-1
1.292535328E1,-1.366899967E0,-9.739984512E0,-4.169493318E-1
1.294562193E1,-1.345364571E0,-9.672985077E0,-4.289134443E-1
1.296589063E1,-1.237687469E0,-9.641879082E0,-4.336991012E-1
1.298615933E1,-1.163509965E0,-9.634700775E0,-4.528416991E-1
1.300655933E1,-1.055832982E0,-9.649057388E0,-4.671986103E-1
1.302669672E1,-1.024726272E0,-9.668199539E0,-5.054838061E-1
1.304696542E1,-1.039083242E0,-9.742377281E0,-5.629115105E-1
1.306723406E1,-1.031904817E0,-9.811769485E0,-6.107679605E-1
1.308750276E1,-1.082154036E0,-9.780662537E0,-5.988038778E-1
1.310777146E1,-1.079761267E0,-9.754341125E0,-5.916253924E-1
1.312804016E1,-1.101296663E0,-9.692128181E0,-5.796613097E-1
1.314830886E1,-1.067797065E0,-9.644271851E0,-5.892325640E-1
1.316857755E1,-9.912267923E-1,-9.634700775E0,-5.940182209E-1
1.318884620E1,-9.266205430E-1,-9.653842926E0,-5.964110494E-1
1.320911490E1,-8.380861282E-1,-9.696913719E0,-6.323033571E-1
1.322938360E1,-7.561319470E-1,-9.701699257E0,-6.801598072E-1
1.324965224E1,-7.537391186E-1,-9.656235695E0,-6.825526357E-1
1.326992094E1,-8.668000102E-1,-9.555737495E0,-6.634100676E-1
1.329018964E1,-1.029511929E0,-9.517452240E0,-6.681957245E-1
1.331045834E1,-1.108475089E0,-9.538987160E0,-6.993024349E-1
1.333072698E1,-1.139581800E0,-9.522237778E0,-7.519445419E-1
1.335099568E1,-1.141974568E0,-9.471988678E0,-8.309076428E-1
1.337126438E1,-1.146760225E0,-9.522237778E0,-9.002995491E-1
1.339153302E1,-1.086939692E0,-9.610772133E0,-9.529415965E-1
1.341180172E1,-1.137188911E0,-9.751948357E0,-9.649057388E-1
1.343207037E1,-1.228116274E0,-9.924231529E0,-1.005583763E0
1.345233906E1,-1.421934843E0,-1.016829967E1,-1.048654556E0
1.347260776E1,-1.587039590E0,-1.032861900E1,-1.066002488E0
1.349287641E1,-1.747358680E0,-1.036211872E1,-1.061216831E0
1.351314505E1,-1.773679733E0,-1.035733318E1,-1.056431174E0
1.353341375E1,-1.716252089E0,-1.032144070E1,-1.027119160E0
1.355368240E1,-1.560718536E0,-1.024965572E1,-9.625129104E-1
1.357395110E1,-1.402792215E0,-1.006540871E1,-8.548358679E-1
1.359421974E1,-1.295115232E0,-9.852447510E0,-7.567301393E-1
1.361448844E1,-1.275972724E0,-9.639486313E0,-6.251249313E-1
1.363475708E1,-1.259222865E0,-9.567701340E0,-4.169493318E-1
1.365502578E1,-1.199402332E0,-9.826126099E0,2.081755698E-1
1.367529443E1,-1.168295622E0,-1.009890842E1,2.727817893E-1
1.369556313E1,-1.230509043E0,-1.026640511E1,-1.322034448E-1
1.371583177E1,-1.386042476E0,-1.032622623E1,-5.102694035E-1
1.373610042E1,-1.510469317E0,-9.938589096E0,-7.040880919E-1
1.375636912E1,-1.508076429E0,-9.385847092E0,-6.969096065E-1
1.377663776E1,-1.400399446E0,-9.009575844E0,-6.658028960E-1
1.379690641E1,-1.247258782E0,-8.868398666E0,-6.969096065E-1
1.381717511E1,-1.096511006E0,-9.045467377E0,-8.021938205E-1
1.383744375E1,-1.041476011E0,-9.436096191E0,-9.290133715E-1
1.385784375E1,-9.984052777E-1,-9.830911636E0,-1.048654556E0
1.387798104E1,-1.005583763E0,-1.019940662E1,-1.166501045E0
1.389824969E1,-1.127617717E0,-1.038604641E1,-1.178465128E0
1.391851839E1,-1.225723386E0,-1.024726295E1,-1.068395257E0
1.393878703E1,-1.232901812E0,-9.905089378E0,-9.002995491E-1
1.395918703E1,-1.244866014E0,-9.524630547E0,-7.663014531E-1
1.397932432E1,-1.163509965E0,-9.268000603E0,-6.323033571E-1
1.399959302E1,-1.010369420E0,-9.351749420E0,-4.528416991E-1
1.401986167E1,-8.763712645E-1,-9.751948357E0,6.628118753E-1
1.404013031E1,-1.017547846E0,-9.816555023E0,1.335793257E0
1.406053031E1,-1.060618639E0,-9.778269768E0,9.044869542E-1
1.408066761E1,-1.070189953E0,-9.744770050E0,4.522434771E-1
1.410093625E1,-1.108475089E0,-9.598808289E0,-4.845465720E-2
1.412120490E1,-1.113260746E0,-9.620343208E0,-4.528416991E-1
1.414147354E1,-1.034297585E0,-9.952945709E0,-6.251249313E-1
1.416187354E1,-1.101296663E0,-1.020419216E1,-5.557330847E-1
1.418201084E1,-1.297508121E0,-9.976874352E0,-3.762713671E-1
1.420227948E1,-1.405185103E0,-9.538987160E0,-1.633101404E-1
1.422254813E1,-1.311864972E0,-9.407382011E0,1.651047617E-1
1.424281677E1,-1.161117196E0,-9.510273933E0,5.766702294E-1
1.426321677E1,-9.912267923E-1,-9.684949875E0,8.685946465E-1
1.428335401E1,-8.596215248E-1,-9.838089943E0,9.355936646E-1
1.430375401E1,-7.465606928E-1,-9.787840843E0,9.571290612E-1
1.432389136E1,-6.747759581E-1,-9.620343208E0,1.012163997E0
1.434415995E1,-6.245267391E-1,-9.761520386E0,1.051047325E0
1.436443261E1,-4.570291340E-1,-1.009412193E1,1.051047325E0
1.438473584E1,-4.307080805E-1,-1.033819008E1,1.067797065E0
1.440496537E1,-6.652047038E-1,-1.028076267E1,1.065404296E0
1.442523412E1,-1.084546804E0,-9.950552940E0,1.259222865E0
1.444550287E1,-1.510469317E0,-9.385847092E0,1.443470240E0
1.446577162E1,-2.020738840E0,-9.023932457E0,1.414756417E0
1.448604031E1,-2.178664923E0,-9.059824944E0,1.170688510E0
1.450630896E1,-1.977667928E0,-9.234500885E0,8.781659007E-1
1.452657766E1,-1.711466432E0,-9.356534958E0,7.250252366E-1
1.454684625E1,-1.472184181E0,-9.433703423E0,6.460621357E-1
1.456711495E1,-1.220937729E0,-9.426525116E0,7.322037220E-1
1.458738360E1,-1.146760225E0,-9.323035240E0,8.997012973E-1
1.460765224E1,-1.295115232E0,-9.471988678E0,1.060618639E0
1.462792089E1,-1.685145378E0,-1.007737255E1,1.039083242E0
1.464818953E1,-1.524826288E0,-1.084606647E1,7.034898400E-1
1.466845818E1,-9.170492887E-1,-1.092502975E1,5.718846321E-1
1.468872677E1,-2.153540403E-1,-1.060199928E1,7.130611539E-1
1.470899542E1,1.890329868E-1,-1.020419216E1,1.283151150E0
1.472926406E1,3.332005441E-1,-9.594022751E0,2.085345030E0
1.474953271E1,3.260220885E-1,-9.141180992E0,2.036890268E0
1.476980136E1,-1.818545163E-1,-9.145966530E0,1.055832982E0
1.479006995E1,-1.213759303E0,-9.222537041E0,-2.691925503E-2
1.481033860E1,-2.027917147E0,-9.258428574E0,-7.280163169E-1
1.483060719E1,-2.066202402E0,-9.493523598E0,-9.457631707E-1
1.485087584E1,-1.800000787E0,-9.751948357E0,-8.069794178E-1
1.487114443E1,-1.587039590E0,-9.783055305E0,-7.016952634E-1
1.489141308E1,-1.498505235E0,-9.744770050E0,-4.695914388E-1
1.491168167E1,-1.496112347E0,-9.771091461E0,-0.000000000E0
1.493195031E1,-1.395613790E0,-9.792626381E0,1.031904817E0
1.495221891E1,-1.148554832E-1,-9.835697174E0,8.949156404E-1
1.497248755E1,1.938186288E-1,-9.718449593E0,2.081755698E-1
1.499275615E1,-3.302095234E-1,-9.646664619E0,9.571290575E-3
1.501302479E1,-9.553344250E-1,-9.622735977E0,-7.477571070E-2
1.503329339E1,-1.429113269E0,-9.799804688E0,2.632104978E-2
1.505356203E1,-1.431506157E0,-1.012283611E1,2.368894368E-1
1.507383063E1,-1.295115232E0,-1.016829967E1,3.110669553E-1
1.509409922E1,-1.118046403E0,-9.902696609E0,4.546362907E-2
1.511436787E1,-1.036690354E0,-9.704092026E0,-2.159522474E-1
1.513463646E1,-9.505487680E-1,-9.617950439E0,-3.643072546E-1
1.515490505E1,-9.194421172E-1,-9.584450722E0,-4.456632137E-1
1.517517370E1,-9.864411354E-1,-9.651450157E0,-4.456632137E-1
1.519544229E1,-1.022333503E0,-9.716055870E0,-3.308077157E-1
1.521571089E1,-1.031904817E0,-9.737591743E0,-2.422732860E-1
1.523597948E1,-1.022333503E0,-9.773484230E0,-1.010967568E-1
1.525624813E1,-9.529415965E-1,-9.876375198E0,-3.649054468E-2
1.527651672E1,-9.337990284E-1,-9.907482147E0,-6.281159073E-2
1.529678531E1,-9.337990284E-1,-9.857233047E0,-7.477571070E-2
1.531705391E1,-9.122636318E-1,-9.761520386E0,-6.999006122E-2
1.533732250E1,-8.691928387E-1,-9.706484795E0,-3.888336942E-2
1.535759115E1,-7.465606928E-1,-9.665806770E0,-4.606183618E-2
1.537785974E1,-6.987041831E-1,-9.708877563E0,-1.202393398E-1
1.539812834E1,-7.680960894E-1,-9.763913155E0,-2.303091735E-1
1.541839693E1,-9.625129104E-1,-9.771091461E0,-3.332005441E-1
1.543866552E1,-1.180259824E0,-9.780662537E0,-3.523431420E-1
1.545906552E1,-1.354935765E0,-9.771091461E0,-3.212364316E-1
1.547920271E1,-1.326221943E0,-9.802198410E0,-2.303091735E-1
1.549947130E1,-1.137188911E0,-9.787840843E0,-1.992024779E-1
1.551973990E1,-9.170492887E-1,-9.751948357E0,-1.824527234E-1
1.554000849E1,-8.117650747E-1,-9.742377281E0,-1.896311939E-1
1.556040849E1,-8.596215248E-1,-9.749555588E0,-1.633101404E-1
1.558054568E1,-9.337990284E-1,-9.759127617E0,-1.202393398E-1
1.560081433E1,-1.034297585E0,-9.780662537E0,-1.298106313E-1
1.562108292E1,-1.094118118E0,-9.775876999E0,-1.776670814E-1
1.564135146E1,-1.144367456E0,-9.749555588E0,-2.685943544E-1
1.566175146E1,-1.182652593E0,-9.737591743E0,-3.044866920E-1
1.568188865E1,-1.182652593E0,-9.696913719E0,-2.997010350E-1
1.570215724E1,-1.161117196E0,-9.718449593E0,-2.901297510E-1
1.572242584E1,-1.094118118E0,-9.759127617E0,-2.590230405E-1
1.574269443E1,-1.094118118E0,-9.795019150E0,-2.087737769E-1
1.576309443E1,-1.086939692E0,-9.818947792E0,-1.728814393E-1
1.578323162E1,-1.139581800E0,-9.862018585E0,-1.322034448E-1
1.580350021E1,-1.189831018E0,-9.850054741E0,-1.058823988E-1
1.582376880E1,-1.170688510E0,-9.845269203E0,-1.178465188E-1
1.584403734E1,-1.084546804E0,-9.816555023E0,-1.728814393E-1
1.586430589E1,-9.720842242E-1,-9.775876999E0,-2.638086975E-1
1.588457448E1,-9.314061999E-1,-9.737591743E0,-3.379862010E-1
1.590484308E1,-9.050851464E-1,-9.723235130E0,-3.834498227E-1
1.592511167E1,-8.907282352E-1,-9.787840843E0,-3.690928817E-1
1.594538021E1,-8.907282352E-1,-9.838089943E0,-2.877369225E-1
1.596564880E1,-9.098708034E-1,-9.845269203E0,-2.398804724E-1
1.598591740E1,-9.050851464E-1,-9.838089943E0,-1.704886109E-1
1.600618599E1,-8.715856671E-1,-9.802198410E0,-1.752742529E-1
1.602645458E1,-8.141579032E-1,-9.787840843E0,-2.111666054E-1
1.604672313E1,-8.093722463E-1,-9.775876999E0,-2.590230405E-1
1.606699172E1,-8.237292171E-1,-9.749555588E0,-3.188436031E-1
1.608726031E1,-8.548358679E-1,-9.735198975E0,-3.906283081E-1
1.610752886E1,-8.811569214E-1,-9.718449593E0,-3.978067636E-1
1.612779745E1,-8.979067206E-1,-9.728020668E0,-3.762713671E-1
1.614806604E1,-9.098708034E-1,-9.773484230E0,-3.523431420E-1
1.616833464E1,-9.505487680E-1,-9.795019150E0,-2.973082066E-1
1.618860318E1,-9.505487680E-1,-9.804591179E0,-2.494517565E-1
1.620886000E1,-9.409775138E-1,-9.771091461E0,-1.920240223E-1
1.622901073E1,-9.649057388E-1,-9.773484230E0,-1.704886109E-1
1.624940620E1,-9.768698215E-1,-9.778269768E0,-1.609173268E-1
1.626967490E1,-9.649057388E-1,-9.785448074E0,-2.111666054E-1
1.628994396E1,-9.433703423E-1,-9.804591179E0,-2.207378894E-1
1.631021292E1,-9.314061999E-1,-9.809376717E0,-2.374876440E-1
1.633048188E1,-9.649057388E-1,-9.802198410E0,-2.350948304E-1
1.635075068E1,-1.010369420E0,-9.806983948E0,-2.733799815E-1
1.637101948E1,-1.046261668E0,-9.811769485E0,-2.542374134E-1
1.639128823E1,-1.046261668E0,-9.792626381E0,-2.494517565E-1
1.641155693E1,-1.007976532E0,-9.768698692E0,-2.566302419E-1
1.643182563E1,-9.553344250E-1,-9.720842361E0,-2.614158690E-1
1.645209427E1,-8.883354068E-1,-9.725627899E0,-2.757728100E-1
1.647236292E1,-8.763712645E-1,-9.749555588E0,-2.949153781E-1
1.649263156E1,-9.026923180E-1,-9.754341125E0,-3.092723191E-1
1.651290011E1,-9.649057388E-1,-9.778269768E0,-3.092723191E-1
1.653317266E1,-1.003190875E0,-9.787840843E0,-3.092723191E-1
1.655347584E1,-1.007976532E0,-9.773484230E0,-3.212364316E-1
1.657370531E1,-9.625129104E-1,-9.780662537E0,-3.332005441E-1
1.659397401E1,-9.098708034E-1,-9.773484230E0,-3.427718580E-1
1.661424266E1,-8.356932998E-1,-9.778269768E0,-3.475574851E-1
1.663451136E1,-8.285148144E-1,-9.787840843E0,-3.116651475E-1
1.665477995E1,-8.907282352E-1,-9.814162254E0,-2.757728100E-1
1.667504860E1,-9.194421172E-1,-9.816555023E0,-2.542374134E-1
1.669531719E1,-9.218349457E-1,-9.768698692E0,-2.303091735E-1
1.671558573E1,-8.955138922E-1,-9.739984512E0,-2.398804724E-1
1.673585433E1,-8.763712645E-1,-9.749555588E0,-2.853440940E-1
1.675612292E1,-8.572286963E-1,-9.775876999E0,-3.499503136E-1
1.677639151E1,-9.122636318E-1,-9.783055305E0,-3.762713671E-1
1.679666005E1,-9.457631707E-1,-9.759127617E0,-3.714857101E-1
1.681692860E1,-9.768698215E-1,-9.756733894E0,-3.834498227E-1
1.683719714E1,-9.601200819E-1,-9.771091461E0,-3.690928817E-1
1.685746578E1,-8.787640929E-1,-9.775876999E0,-3.260220885E-1
1.687773433E1,-8.356932998E-1,-9.787840843E0,-3.164508045E-1
1.689800287E1,-8.596215248E-1,-9.775876999E0,-3.308077157E-1
1.691827141E1,-9.314061999E-1,-9.751948357E0,-3.571287692E-1
1.693853995E1,-9.529415965E-1,-9.747162819E0,-3.762713671E-1
1.695893995E1,-9.409775138E-1,-9.754341125E0,-3.714857101E-1
1.697907708E1,-9.170492887E-1,-9.768698692E0,-3.308077157E-1
1.699934563E1,-8.715856671E-1,-9.818947792E0,-3.020938635E-1
1.701961417E1,-8.883354068E-1,-9.828518867E0,-2.973082066E-1
1.703988271E1,-9.672985673E-1,-9.818947792E0,-3.164508045E-1
1.706028271E1,-1.024726272E0,-9.766305923E0,-3.020938635E-1
1.708041979E1,-1.053440213E0,-9.747162819E0,-3.020938635E-1
1.710068834E1,-1.048654556E0,-9.732806206E0,-3.212364316E-1
1.712095688E1,-9.696913958E-1,-9.706484795E0,-3.571287692E-1
1.714135688E1,-9.122636318E-1,-9.732806206E0,-3.810569942E-1
1.716163662E1,-9.194421172E-1,-9.792626381E0,-4.025924206E-1
1.718175099E1,-9.505487680E-1,-9.778269768E0,-4.025924206E-1
1.720202183E1,-1.012762189E0,-9.732806206E0,-3.690928817E-1
1.722229219E1,-1.070189953E0,-9.723235130E0,-3.308077157E-1
1.724256063E1,-1.036690354E0,-9.756733894E0,-2.805584669E-1
1.726296219E1,-1.015154958E0,-9.799804688E0,-2.829512656E-1
1.728310042E1,-1.036690354E0,-9.749555588E0,-3.044866920E-1
1.730336995E1,-1.036690354E0,-9.723235130E0,-3.403790295E-1
1.732363927E1,-9.912267923E-1,-9.718449593E0,-3.786641955E-1
1.734390839E1,-9.553344250E-1,-9.730413437E0,-3.954139352E-1
1.736417734E1,-9.433703423E-1,-9.790233612E0,-3.954139352E-1
1.738444630E1,-9.601200819E-1,-9.821340561E0,-3.810569942E-1
1.740471516E1,-9.816554785E-1,-9.816555023E0,-3.523431420E-1
1.742498391E1,-1.024726272E0,-9.771091461E0,-3.044866920E-1
1.744525266E1,-1.051047325E0,-9.744770050E0,-2.733799815E-1
1.746552141E1,-1.005583763E0,-9.751948357E0,-2.781656384E-1
1.748579005E1,-9.720842242E-1,-9.792626381E0,-3.188436031E-1
1.750605865E1,-9.601200819E-1,-9.802198410E0,-3.499503136E-1
1.752632729E1,-9.936196208E-1,-9.756733894E0,-3.786641955E-1
1.754659589E1,-9.720842242E-1,-9.728020668E0,-3.906283081E-1
1.756686448E1,-9.314061999E-1,-9.768698692E0,-3.714857101E-1
1.758713297E1,-9.266205430E-1,-9.795019150E0,-3.451646566E-1
1.760740156E1,-9.936196208E-1,-9.778269768E0,-3.643072546E-1
1.762767016E1,-1.060618639E0,-9.761520386E0,-3.595215976E-1
1.764793865E1,-1.089332461E0,-9.785448074E0,-3.499503136E-1
1.766820719E1,-1.072582722E0,-9.799804688E0,-3.427718580E-1
1.768847578E1,-1.005583763E0,-9.790233612E0,-3.475574851E-1
1.770874432E1,-9.290133715E-1,-9.742377281E0,-3.930211067E-1
1.772901281E1,-9.409775138E-1,-9.711270332E0,-4.217349887E-1
1.774928130E1,-9.720842242E-1,-9.751948357E0,-4.217349887E-1
1.776954990E1,-9.912267923E-1,-9.773484230E0,-4.241278172E-1
1.778981844E1,-1.007976532E0,-9.775876999E0,-3.882354796E-1
1.781008698E1,-1.036690354E0,-9.751948357E0,-4.121637046E-1
1.783035552E1,-1.027119160E0,-9.744770050E0,-4.025924206E-1
1.785062401E1,-9.888339639E-1,-9.742377281E0,-4.049852192E-1
1.787089255E1,-9.840483069E-1,-9.749555588E0,-4.073780477E-1
1.789116110E1,-9.601200819E-1,-9.775876999E0,-4.265206456E-1
1.791142958E1,-9.936196208E-1,-9.802198410E0,-4.408775866E-1
1.793169813E1,-9.936196208E-1,-9.780662537E0,-4.265206456E-1
1.795196662E1,-1.000798106E0,-9.768698692E0,-4.145565331E-1
1.797223516E1,-9.720842242E-1,-9.754341125E0,-4.097708762E-1
1.799250365E1,-9.696913958E-1,-9.759127617E0,-3.810569942E-1
1.801277219E1,-9.864411354E-1,-9.785448074E0,-4.049852192E-1
1.803304068E1,-9.912267923E-1,-9.787840843E0,-4.289134443E-1
1.805330922E1,-1.003190875E0,-9.828518867E0,-4.121637046E-1
1.807357771E1,-1.007976532E0,-9.799804688E0,-3.882354796E-1
1.809384625E1,-1.000798106E0,-9.771091461E0,-3.954139352E-1
1.811411474E1,-9.433703423E-1,-9.747162819E0,-3.930211067E-1
1.813438328E1,-8.955138922E-1,-9.771091461E0,-4.073780477E-1
1.815465177E1,-8.907282352E-1,-9.759127617E0,-4.169493318E-1
1.817492031E1,-9.146564603E-1,-9.718449593E0,-4.217349887E-1
1.819518880E1,-9.314061999E-1,-9.701699257E0,-4.169493318E-1
1.821545734E1,-9.744769931E-1,-9.756733894E0,-4.456632137E-1
1.823572584E1,-1.048654556E0,-9.840482712E0,-4.959124923E-1
1.825599438E1,-1.079761267E0,-9.871589661E0,-4.839483798E-1
1.827626287E1,-1.060618639E0,-9.814162254E0,-4.360919297E-1
1.829653141E1,-1.017547846E0,-9.720842361E0,-4.193421602E-1
1.831679990E1,-9.864411354E-1,-9.656235695E0,-3.667000830E-1
1.833706839E1,-9.433703423E-1,-9.644271851E0,-3.643072546E-1
1.835746839E1,-9.074779749E-1,-9.730413437E0,-3.882354796E-1
1.837760542E1,-9.385846853E-1,-9.797411919E0,-3.882354796E-1
1.839787396E1,-1.048654556E0,-9.835697174E0,-3.547359705E-1
1.841814245E1,-1.098903775E0,-9.814162254E0,-3.260220885E-1
1.843841099E1,-1.082154036E0,-9.787840843E0,-3.547359705E-1
1.845881099E1,-1.019940615E0,-9.763913155E0,-3.834498227E-1
1.847894797E1,-9.720842242E-1,-9.754341125E0,-4.121637046E-1
1.849934797E1,-9.314061999E-1,-9.744770050E0,-4.384847581E-1
1.851948495E1,-9.266205430E-1,-9.708877563E0,-4.360919297E-1
1.853975349E1,-9.457631707E-1,-9.725627899E0,-3.978067636E-1
1.856015349E1,-9.457631707E-1,-9.725627899E0,-3.738785386E-1
1.858029052E1,-9.385846853E-1,-9.785448074E0,-3.834498227E-1
1.860055901E1,-9.409775138E-1,-9.828518867E0,-3.810569942E-1
1.862082755E1,-9.816554785E-1,-9.802198410E0,-3.714857101E-1
1.864109604E1,-1.051047325E0,-9.735198975E0,-3.643072546E-1
1.866149604E1,-1.034297585E0,-9.732806206E0,-3.762713671E-1
1.868163302E1,-9.601200819E-1,-9.725627899E0,-3.786641955E-1
1.870190156E1,-8.811569214E-1,-9.737591743E0,-4.025924206E-1
1.872217005E1,-8.476574421E-1,-9.739984512E0,-4.193421602E-1
1.874243854E1,-9.625129104E-1,-9.725627899E0,-4.336991012E-1
1.876283854E1,-1.058225870E0,-9.677771568E0,-3.882354796E-1
1.878297558E1,-1.072582722E0,-9.704092026E0,-3.738785386E-1
1.880324406E1,-1.012762189E0,-9.742377281E0,-3.643072546E-1
1.882351255E1,-1.007976532E0,-9.804591179E0,-3.810569942E-1
1.884378110E1,-1.015154958E0,-9.795019150E0,-3.332005441E-1
1.886418110E1,-1.058225870E0,-9.761520386E0,-3.260220885E-1
1.888431808E1,-1.079761267E0,-9.744770050E0,-2.901297510E-1
1.890458656E1,-1.084546804E0,-9.739984512E0,-3.092723191E-1
1.892485505E1,-1.029511929E0,-9.763913155E0,-3.379862010E-1
1.894512360E1,-1.010369420E0,-9.806983948E0,-4.025924206E-1
1.896539208E1,-1.043868899E0,-9.802198410E0,-4.289134443E-1
1.898566058E1,-1.041476011E0,-9.754341125E0,-4.145565331E-1
1.900592906E1,-1.012762189E0,-9.747162819E0,-3.643072546E-1
1.902619755E1,-9.290133715E-1,-9.771091461E0,-3.714857101E-1
1.904646610E1,-9.098708034E-1,-9.814162254E0,-3.906283081E-1
1.906673459E1,-9.529415965E-1,-9.816555023E0,-3.882354796E-1
1.908700308E1,-9.936196208E-1,-9.785448074E0,-3.786641955E-1
1.910727156E1,-1.007976532E0,-9.766305923E0,-3.475574851E-1
1.912754005E1,-9.888339639E-1,-9.761520386E0,-3.547359705E-1
1.914780854E1,-9.337990284E-1,-9.790233612E0,-3.690928817E-1
1.916807708E1,-8.883354068E-1,-9.799804688E0,-3.882354796E-1
1.918834558E1,-9.122636318E-1,-9.806983948E0,-4.241278172E-1
1.920861406E1,-9.864411354E-1,-9.799804688E0,-4.313062727E-1
1.922888255E1,-1.072582722E0,-9.723235130E0,-4.480560422E-1
1.924915104E1,-1.048654556E0,-9.718449593E0,-4.265206456E-1
1.926941953E1,-9.720842242E-1,-9.718449593E0,-4.217349887E-1
1.928968808E1,-9.314061999E-1,-9.687342644E0,-4.313062727E-1
1.930995656E1,-9.553344250E-1,-9.696913719E0,-3.882354796E-1
1.933022505E1,-9.936196208E-1,-9.749555588E0,-3.930211067E-1
1.935049354E1,-1.005583763E0,-9.804591179E0,-3.523431420E-1
1.937076203E1,-1.058225870E0,-9.845269203E0,-3.738785386E-1
1.939103052E1,-1.098903775E0,-9.838089943E0,-3.595215976E-1
1.941129901E1,-1.089332461E0,-9.778269768E0,-3.762713671E-1
1.943156750E1,-1.007976532E0,-9.735198975E0,-3.643072546E-1
1.945183599E1,-9.601200819E-1,-9.730413437E0,-3.475574851E-1
1.947210448E1,-9.720842242E-1,-9.739984512E0,-3.643072546E-1
1.949237297E1,-1.017547846E0,-9.728020668E0,-4.169493318E-1
1.951264146E1,-1.048654556E0,-9.737591743E0,-4.121637046E-1
1.953304146E1,-1.074975610E0,-9.759127617E0,-3.930211067E-1
1.955317844E1,-1.086939692E0,-9.790233612E0,-3.762713671E-1
1.957344693E1,-1.046261668E0,-9.797411919E0,-3.571287692E-1
1.959371542E1,-9.696913958E-1,-9.754341125E0,-3.882354796E-1
1.961398391E1,-9.840483069E-1,-9.756733894E0,-3.978067636E-1
1.963425240E1,-1.003190875E0,-9.739984512E0,-3.930211067E-1
1.965452089E1,-9.768698215E-1,-9.747162819E0,-3.523431420E-1
1.967478938E1,-9.361918569E-1,-9.742377281E0,-3.499503136E-1
1.969505787E1,-9.170492887E-1,-9.730413437E0,-3.619144261E-1
1.971532636E1,-9.672985673E-1,-9.747162819E0,-3.762713671E-1
1.973559484E1,-1.005583763E0,-9.785448074E0,-3.595215976E-1
1.975586334E1,-1.019940615E0,-9.802198410E0,-3.738785386E-1
1.977613182E1,-1.043868899E0,-9.790233612E0,-3.571287692E-1
1.979640031E1,-1.055832982E0,-9.747162819E0,-3.738785386E-1
1.981666880E1,-1.041476011E0,-9.716055870E0,-4.121637046E-1
1.983693729E1,-9.936196208E-1,-9.718449593E0,-4.073780477E-1
1.985720578E1,-9.601200819E-1,-9.787840843E0,-3.834498227E-1
1.987747427E1,-1.005583763E0,-9.821340561E0,-3.332005441E-1
1.989774276E1,-1.089332461E0,-9.787840843E0,-3.068794906E-1
1.991801125E1,-1.165902853E0,-9.763913155E0,-2.901297510E-1
1.993827974E1,-1.156331539E0,-9.759127617E0,-3.068794906E-1
1.995867974E1,-1.060618639E0,-9.775876999E0,-3.451646566E-1
1.997881667E1,-9.577272534E-1,-9.795019150E0,-3.930211067E-1
1.999908511E1,-9.314061999E-1,-9.806983948E0,-4.265206456E-1
2.001935360E1,-9.984052777E-1,-9.780662537E0,-3.978067636E-1
2.003962208E1,-1.082154036E0,-9.751948357E0,-3.355933726E-1
2.006002208E1,-1.082154036E0,-9.732806206E0,-2.829512656E-1
2.008015906E1,-1.015154958E0,-9.763913155E0,-2.733799815E-1
2.010042755E1,-9.649057388E-1,-9.773484230E0,-3.140579760E-1
2.012069604E1,-1.041476011E0,-9.771091461E0,-3.451646566E-1
2.014096448E1,-1.115653515E0,-9.775876999E0,-3.571287692E-1
2.016136448E1,-1.086939692E0,-9.766305923E0,-3.475574851E-1
2.018150146E1,-1.017547846E0,-9.783055305E0,-3.308077157E-1
2.020176995E1,-9.720842242E-1,-9.787840843E0,-3.810569942E-1
2.022203839E1,-9.481559992E-1,-9.754341125E0,-4.097708762E-1
2.024230688E1,-9.936196208E-1,-9.732806206E0,-4.121637046E-1
2.026270688E1,-1.029511929E0,-9.723235130E0,-3.906283081E-1
2.028284386E1,-9.912267923E-1,-9.730413437E0,-3.762713671E-1
2.030311235E1,-9.170492887E-1,-9.744770050E0,-3.714857101E-1
2.032338084E1,-8.644071817E-1,-9.785448074E0,-3.954139352E-1
2.034364927E1,-9.050851464E-1,-9.799804688E0,-4.145565331E-1
2.036391776E1,-1.012762189E0,-9.766305923E0,-3.810569942E-1
2.038418625E1,-1.098903775E0,-9.761520386E0,-3.355933726E-1
2.040445469E1,-1.108475089E0,-9.744770050E0,-3.308077157E-1
2.042472318E1,-1.036690354E0,-9.708877563E0,-3.308077157E-1
2.044499167E1,-9.672985673E-1,-9.699306488E0,-3.475574851E-1
2.046526011E1,-9.792626500E-1,-9.739984512E0,-3.930211067E-1
2.048566011E1,-9.984052777E-1,-9.780662537E0,-4.097708762E-1
2.050579708E1,-1.034297585E0,-9.833304405E0,-3.762713671E-1
2.052606558E1,-1.070189953E0,-9.830911636E0,-3.619144261E-1
2.054633401E1,-1.070189953E0,-9.785448074E0,-3.475574851E-1
2.056660250E1,-9.601200819E-1,-9.737591743E0,-3.547359705E-1
2.058687099E1,-8.979067206E-1,-9.728020668E0,-3.714857101E-1
2.060713943E1,-8.907282352E-1,-9.723235130E0,-3.643072546E-1
2.062740792E1,-9.242277741E-1,-9.756733894E0,-3.499503136E-1
2.064767641E1,-9.960124493E-1,-9.804591179E0,-3.020938635E-1
2.066794484E1,-1.082154036E0,-9.780662537E0,-3.020938635E-1
2.068821334E1,-1.108475089E0,-9.780662537E0,-3.308077157E-1
2.070848182E1,-1.118046403E0,-9.804591179E0,-3.451646566E-1
2.072875026E1,-1.058225870E0,-9.787840843E0,-3.284149170E-1
2.074901875E1,-9.792626500E-1,-9.766305923E0,-2.997010350E-1
2.076928719E1,-9.170492887E-1,-9.766305923E0,-2.877369225E-1
2.078955568E1,-9.050851464E-1,-9.763913155E0,-2.757728100E-1
2.080982417E1,-9.242277741E-1,-9.775876999E0,-2.805584669E-1
2.083009261E1,-9.481559992E-1,-9.778269768E0,-2.853440940E-1
2.085036110E1,-1.015154958E0,-9.797411919E0,-2.662015259E-1
2.087062953E1,-9.888339639E-1,-9.814162254E0,-2.398804724E-1
2.089089802E1,-9.696913958E-1,-9.826126099E0,-2.159522474E-1
2.091116651E1,-9.768698215E-1,-9.799804688E0,-1.848455518E-1
2.093143495E1,-9.409775138E-1,-9.785448074E0,-1.992024779E-1
2.095170344E1,-8.811569214E-1,-9.766305923E0,-3.044866920E-1
2.097197188E1,-9.361918569E-1,-9.728020668E0,-4.097708762E-1
2.099224037E1,-9.960124493E-1,-9.708877563E0,-4.456632137E-1
2.101250880E1,-1.007976532E0,-9.680164337E0,-4.384847581E-1
2.103277729E1,-1.015154958E0,-9.708877563E0,-3.355933726E-1
2.105304578E1,-1.012762189E0,-9.751948357E0,-2.614158690E-1
2.107331422E1,-1.086939692E0,-9.732806206E0,-2.422732860E-1
2.109358271E1,-1.113260746E0,-9.711270332E0,-2.566302419E-1
2.111385115E1,-1.000798106E0,-9.768698692E0,-3.092723191E-1
2.113411964E1,-8.955138922E-1,-9.795019150E0,-3.020938635E-1
2.115451964E1,-8.213363886E-1,-9.771091461E0,-2.805584669E-1
2.117465656E1,-7.878368497E-1,-9.735198975E0,-2.805584669E-1
2.119492500E1,-8.141579032E-1,-9.744770050E0,-2.805584669E-1
2.121519349E1,-8.955138922E-1,-9.780662537E0,-2.638086975E-1
2.123546193E1,-9.672985673E-1,-9.797411919E0,-1.872383654E-1
2.125573042E1,-1.041476011E0,-9.795019150E0,-1.561316848E-1
2.127613042E1,-1.115653515E0,-9.785448074E0,-1.968096644E-1
2.129626729E1,-1.158724308E0,-9.763913155E0,-2.566302419E-1
2.131653578E1,-1.149153113E0,-9.732806206E0,-3.379862010E-1
2.133680422E1,-1.110867858E0,-9.708877563E0,-3.810569942E-1
2.135707271E1,-1.012762189E0,-9.713663101E0,-4.360919297E-1
2.137734115E1,-9.361918569E-1,-9.768698692E0,-4.169493318E-1
2.139760964E1,-8.715856671E-1,-9.790233612E0,-3.930211067E-1
2.141787808E1,-8.548358679E-1,-9.799804688E0,-3.212364316E-1
2.143814656E1,-8.883354068E-1,-9.814162254E0,-2.135594189E-1
2.145854656E1,-9.553344250E-1,-9.811769485E0,-1.393819153E-1
2.147868344E1,-1.043868899E0,-9.795019150E0,-1.130608693E-1
2.149895193E1,-1.063011408E0,-9.778269768E0,-1.585244983E-1
2.151922037E1,-1.039083242E0,-9.732806206E0,-2.805584669E-1
2.153948886E1,-9.888339639E-1,-9.713663101E0,-4.025924206E-1
2.155988886E1,-9.744769931E-1,-9.739984512E0,-5.222335458E-1
2.158002573E1,-9.194421172E-1,-9.735198975E0,-5.605186820E-1
2.160029417E1,-8.715856671E-1,-9.751948357E0,-4.959124923E-1
2.162056266E1,-8.333004713E-1,-9.785448074E0,-3.786641955E-1
2.164083110E1,-8.596215248E-1,-9.787840843E0,-2.638086975E-1
2.166123110E1,-9.194421172E-1,-9.773484230E0,-1.848455518E-1
2.168136802E1,-9.912267923E-1,-9.792626381E0,-1.752742529E-1
2.170163646E1,-1.031904817E0,-9.806983948E0,-2.135594189E-1
2.172190490E1,-1.060618639E0,-9.792626381E0,-3.140579760E-1
2.174217339E1,-1.036690354E0,-9.771091461E0,-4.001995921E-1
2.176257339E1,-9.314061999E-1,-9.754341125E0,-4.743770957E-1
2.178271026E1,-8.644071817E-1,-9.751948357E0,-5.054838061E-1
2.180297870E1,-8.285148144E-1,-9.780662537E0,-5.006981492E-1
2.182324719E1,-8.572286963E-1,-9.809376717E0,-4.265206456E-1
2.184351563E1,-9.050851464E-1,-9.811769485E0,-3.403790295E-1
2.186391563E1,-9.649057388E-1,-9.795019150E0,-2.470589429E-1
2.188405255E1,-1.005583763E0,-9.814162254E0,-2.015953064E-1
2.190432099E1,-1.010369420E0,-9.785448074E0,-2.087737769E-1
2.192458943E1,-9.649057388E-1,-9.756733894E0,-2.973082066E-1
2.194485787E1,-9.314061999E-1,-9.754341125E0,-4.193421602E-1
2.196512630E1,-9.002995491E-1,-9.756733894E0,-4.839483798E-1
2.198539479E1,-8.428717852E-1,-9.766305923E0,-4.959124923E-1
2.200566323E1,-8.021938205E-1,-9.790233612E0,-4.935196638E-1
2.202593167E1,-7.998009920E-1,-9.773484230E0,-4.600201547E-1
2.204620011E1,-7.926225066E-1,-9.814162254E0,-3.858426511E-1
2.206646854E1,-8.213363886E-1,-9.821340561E0,-3.164508045E-1
2.208673698E1,-9.361918569E-1,-9.823733330E0,-2.829512656E-1
2.210700542E1,-1.015154958E0,-9.821340561E0,-2.590230405E-1
2.212727391E1,-9.840483069E-1,-9.830911636E0,-2.781656384E-1
2.214754234E1,-9.146564603E-1,-9.830911636E0,-3.714857101E-1
2.216781073E1,-8.644071817E-1,-9.799804688E0,-4.695914388E-1
2.218807922E1,-8.691928387E-1,-9.792626381E0,-5.006981492E-1
2.220834766E1,-8.811569214E-1,-9.787840843E0,-4.743770957E-1
2.222861610E1,-8.668000102E-1,-9.802198410E0,-3.978067636E-1
2.224888453E1,-8.859425783E-1,-9.766305923E0,-3.212364316E-1
2.226915297E1,-9.361918569E-1,-9.792626381E0,-2.374876440E-1
2.228942141E1,-1.034297585E0,-9.806983948E0,-2.063809484E-1
2.230968990E1,-1.086939692E0,-9.763913155E0,-1.920240223E-1
2.232995834E1,-1.041476011E0,-9.720842361E0,-2.183450609E-1
2.235022677E1,-9.194421172E-1,-9.737591743E0,-2.638086975E-1
2.237049516E1,-8.117650747E-1,-9.749555588E0,-3.284149170E-1
2.239076365E1,-7.657032609E-1,-9.787840843E0,-3.762713671E-1
2.241103209E1,-8.189435601E-1,-9.850054741E0,-3.667000830E-1
2.243130047E1,-8.548358679E-1,-9.838089943E0,-3.954139352E-1
2.245156896E1,-8.931210637E-1,-9.771091461E0,-3.140579760E-1
2.247183740E1,-8.261220455E-1,-9.749555588E0,-2.685943544E-1
2.249210584E1,-8.045865893E-1,-9.744770050E0,-1.680957973E-1
2.251237422E1,-8.165507317E-1,-9.742377281E0,-1.345962733E-1
2.253264271E1,-9.098708034E-1,-9.797411919E0,-1.417747438E-1
2.255291115E1,-1.031904817E0,-9.924231529E0,-1.752742529E-1
2.257317959E1,-1.072582722E0,-1.000319481E1,-2.159522474E-1
2.259344802E1,-1.010369420E0,-9.900303841E0,-2.853440940E-1
2.261371646E1,-9.050851464E-1,-9.771091461E0,-3.164508045E-1
2.263398490E1,-8.093722463E-1,-9.653842926E0,-3.332005441E-1
2.265425334E1,-7.609176040E-1,-9.572486877E0,-3.810569942E-1
2.267452177E1,-7.854440212E-1,-9.510273933E0,-4.001995921E-1
2.269479021E1,-8.715856671E-1,-9.512666702E0,-3.810569942E-1
2.271505860E1,-9.457631707E-1,-9.572486877E0,-2.973082066E-1
2.273532703E1,-1.012762189E0,-9.653842926E0,-2.398804724E-1
2.275559547E1,-1.113260746E0,-9.720842361E0,-1.728814393E-1
2.277586391E1,-1.292722464E0,-9.830911636E0,-8.195417374E-2
2.279613234E1,-1.491326690E0,-9.881160736E0,-6.041877344E-2
2.281640078E1,-1.551147223E0,-9.838089943E0,-6.520441920E-2
2.283666922E1,-1.419542074E0,-9.708877563E0,-1.082752272E-1
2.285706922E1,-1.177866936E0,-9.653842926E0,-1.393819153E-1
2.287720604E1,-1.031904817E0,-9.694520950E0,-1.848455518E-1
2.289747443E1,-1.007976532E0,-9.749555588E0,-1.968096644E-1
2.291774292E1,-1.084546804E0,-9.778269768E0,-2.159522474E-1
2.293801531E1,-1.213759303E0,-9.806983948E0,-2.015953064E-1
2.295831828E1,-1.261615753E0,-9.833304405E0,-1.968096644E-1
2.297854766E1,-1.268794179E0,-9.806983948E0,-2.159522474E-1
2.299881620E1,-1.220937729E0,-9.747162819E0,-2.829512656E-1
2.301908474E1,-1.084546804E0,-9.675378799E0,-3.571287692E-1
2.303935318E1,-1.005583763E0,-9.672985077E0,-4.193421602E-1
2.305975328E1,-9.050851464E-1,-9.694520950E0,-4.552344978E-1
2.307989016E1,-8.237292171E-1,-9.754341125E0,-4.600201547E-1
2.310015860E1,-7.489534616E-1,-9.830911636E0,-3.978067636E-1
2.312042714E1,-7.058826685E-1,-9.883553505E0,-3.403790295E-1
2.314069552E1,-7.178468108E-1,-9.847661972E0,-2.949153781E-1
2.316109552E1,-7.561319470E-1,-9.845269203E0,-2.566302419E-1
2.318123240E1,-7.878368497E-1,-9.859625816E0,-2.350948304E-1
2.320150084E1,-7.950153351E-1,-9.809376717E0,-2.614158690E-1
2.322176932E1,-7.974081635E-1,-9.771091461E0,-3.140579760E-1
2.324203776E1,-7.830511928E-1,-9.749555588E0,-3.643072546E-1
2.326243776E1,-8.309076428E-1,-9.763913155E0,-4.121637046E-1
2.328257459E1,-8.548358679E-1,-9.775876999E0,-4.025924206E-1
2.330284302E1,-9.002995491E-1,-9.835697174E0,-3.786641955E-1
2.332311146E1,-9.720842242E-1,-9.864411354E0,-3.140579760E-1
2.334337990E1,-1.051047325E0,-9.835697174E0,-2.518445849E-1
2.336364834E1,-1.106082320E0,-9.728020668E0,-2.207378894E-1
2.338391677E1,-1.180259824E0,-9.663414001E0,-2.231307179E-1
2.340418521E1,-1.211366415E0,-9.653842926E0,-3.020938635E-1
2.342445365E1,-1.187438250E0,-9.701699257E0,-3.714857101E-1
2.344472209E1,-1.134796143E0,-9.756733894E0,-4.360919297E-1
2.346499047E1,-1.074975610E0,-9.785448074E0,-4.432703853E-1
2.348525891E1,-1.046261668E0,-9.802198410E0,-3.738785386E-1
2.350552734E1,-9.984052777E-1,-9.816555023E0,-3.044866920E-1
2.352579573E1,-9.529415965E-1,-9.806983948E0,-2.590230405E-1
2.354606417E1,-9.050851464E-1,-9.778269768E0,-2.470589429E-1
2.356633261E1,-8.835497499E-1,-9.756733894E0,-2.470589429E-1
2.358660099E1,-8.907282352E-1,-9.744770050E0,-2.949153781E-1
2.360686943E1,-8.476574421E-1,-9.730413437E0,-3.164508045E-1
2.362713787E1,-8.117650747E-1,-9.728020668E0,-3.212364316E-1
2.364740625E1,-8.309076428E-1,-9.766305923E0,-3.260220885E-1
2.366767469E1,-8.883354068E-1,-9.814162254E0,-3.020938635E-1
2.368794313E1,-9.768698215E-1,-9.840482712E0,-2.733799815E-1
2.370821151E1,-1.065404296E0,-9.818947792E0,-2.398804724E-1
2.372847995E1,-1.043868899E0,-9.797411919E0,-2.350948304E-1
2.374874834E1,-1.022333503E0,-9.739984512E0,-2.709871531E-1
2.376901677E1,-9.768698215E-1,-9.644271851E0,-3.140579760E-1
2.378928521E1,-9.194421172E-1,-9.601201057E0,-3.690928817E-1
2.380955360E1,-9.050851464E-1,-9.653842926E0,-3.930211067E-1
2.382982203E1,-9.912267923E-1,-9.720842361E0,-3.978067636E-1
2.385022203E1,-1.086939692E0,-9.766305923E0,-3.499503136E-1
2.387035886E1,-1.161117196E0,-9.802198410E0,-2.901297510E-1
2.389062729E1,-1.192223907E0,-9.814162254E0,-2.398804724E-1
2.391089568E1,-1.194616675E0,-9.816555023E0,-2.350948304E-1
2.393116412E1,-1.197009563E0,-9.811769485E0,-2.614158690E-1
2.395143250E1,-1.180259824E0,-9.771091461E0,-2.781656384E-1
2.397170094E1,-1.170688510E0,-9.737591743E0,-2.973082066E-1
2.399196938E1,-1.060618639E0,-9.771091461E0,-2.925225794E-1
2.401223776E1,-9.601200819E-1,-9.778269768E0,-2.853440940E-1
2.403250620E1,-9.337990284E-1,-9.785448074E0,-3.044866920E-1
2.405277458E1,-9.218349457E-1,-9.761520386E0,-2.901297510E-1
2.407304297E1,-9.337990284E-1,-9.804591179E0,-3.044866920E-1
2.409331141E1,-9.553344250E-1,-9.821340561E0,-3.140579760E-1
2.411357979E1,-1.000798106E0,-9.821340561E0,-2.973082066E-1
2.413384823E1,-9.840483069E-1,-9.778269768E0,-2.877369225E-1
2.415411662E1,-9.385846853E-1,-9.751948357E0,-2.901297510E-1
2.417438505E1,-9.314061999E-1,-9.735198975E0,-2.925225794E-1
2.419465344E1,-9.098708034E-1,-9.713663101E0,-3.020938635E-1
2.421492188E1,-9.601200819E-1,-9.742377281E0,-3.475574851E-1
2.423519026E1,-1.007976532E0,-9.759127617E0,-3.690928817E-1
2.425545865E1,-1.029511929E0,-9.749555588E0,-3.858426511E-1
2.427572708E1,-1.005583763E0,-9.739984512E0,-3.451646566E-1
2.429599547E1,-9.601200819E-1,-9.728020668E0,-3.140579760E-1
2.431639547E1,-9.194421172E-1,-9.759127617E0,-2.829512656E-1
2.433653229E1,-9.098708034E-1,-9.816555023E0,-2.446661144E-1
2.435680073E1,-8.907282352E-1,-9.852447510E0,-2.303091735E-1
2.437706912E1,-9.074779749E-1,-9.826126099E0,-2.255235314E-1
2.439733750E1,-1.000798106E0,-9.795019150E0,-2.063809484E-1
2.441760594E1,-1.091725349E0,-9.778269768E0,-2.039881349E-1
2.443787433E1,-1.103689432E0,-9.771091461E0,-2.231307179E-1
2.445814271E1,-1.103689432E0,-9.771091461E0,-2.757728100E-1
2.447841115E1,-1.091725349E0,-9.773484230E0,-3.236292601E-1
2.449867953E1,-1.084546804E0,-9.756733894E0,-3.236292601E-1
2.451894792E1,-1.058225870E0,-9.728020668E0,-3.523431420E-1
2.453921636E1,-1.034297585E0,-9.711270332E0,-3.571287692E-1
2.455961636E1,-9.960124493E-1,-9.689735413E0,-3.308077157E-1
2.457975313E1,-1.003190875E0,-9.696913719E0,-3.092723191E-1
2.460002156E1,-1.019940615E0,-9.728020668E0,-2.973082066E-1
2.462028995E1,-1.041476011E0,-9.780662537E0,-3.044866920E-1
2.464055834E1,-1.012762189E0,-9.799804688E0,-2.901297510E-1
2.466095834E1,-9.720842242E-1,-9.780662537E0,-2.973082066E-1
2.468109516E1,-9.290133715E-1,-9.792626381E0,-3.260220885E-1
2.470136354E1,-9.218349457E-1,-9.792626381E0,-3.523431420E-1
2.472163198E1,-9.505487680E-1,-9.763913155E0,-3.355933726E-1
2.474190037E1,-9.481559992E-1,-9.747162819E0,-3.164508045E-1
2.476230037E1,-9.122636318E-1,-9.792626381E0,-2.949153781E-1
2.478243714E1,-8.931210637E-1,-9.845269203E0,-2.901297510E-1
2.480270552E1,-9.768698215E-1,-9.821340561E0,-2.757728100E-1
2.482297396E1,-1.077368379E0,-9.795019150E0,-2.590230405E-1
2.484324234E1,-1.103689432E0,-9.768698692E0,-2.662015259E-1
2.486364235E1,-1.039083242E0,-9.742377281E0,-2.853440940E-1
2.488377912E1,-9.720842242E-1,-9.708877563E0,-3.140579760E-1
2.490404755E1,-9.170492887E-1,-9.680164337E0,-3.547359705E-1
2.492431594E1,-9.242277741E-1,-9.720842361E0,-3.930211067E-1
2.494458432E1,-9.529415965E-1,-9.759127617E0,-4.025924206E-1
2.496485271E1,-9.936196208E-1,-9.787840843E0,-3.690928817E-1
2.498512115E1,-9.529415965E-1,-9.804591179E0,-2.829512656E-1
2.500538953E1,-8.715856671E-1,-9.811769485E0,-2.327020019E-1
2.502565792E1,-8.117650747E-1,-9.792626381E0,-2.422732860E-1
2.504592630E1,-7.854440212E-1,-9.773484230E0,-2.350948304E-1
2.506619469E1,-8.428717852E-1,-9.756733894E0,-2.279163599E-1
2.508646308E1,-9.170492887E-1,-9.768698692E0,-2.590230405E-1
2.510673151E1,-9.984052777E-1,-9.780662537E0,-3.092723191E-1
2.512699984E1,-1.060618639E0,-9.790233612E0,-3.547359705E-1
2.514726828E1,-1.043868899E0,-9.766305923E0,-4.121637046E-1
2.516753667E1,-9.792626500E-1,-9.699306488E0,-4.289134443E-1
2.518780505E1,-8.811569214E-1,-9.665806770E0,-4.528416991E-1
2.520807349E1,-8.237292171E-1,-9.699306488E0,-4.217349887E-1
2.522834188E1,-8.093722463E-1,-9.766305923E0,-3.523431420E-1
2.524861026E1,-8.955138922E-1,-9.838089943E0,-2.901297510E-1
2.526887865E1,-9.936196208E-1,-9.881160736E0,-2.542374134E-1
2.528914703E1,-1.132403374E0,-9.866804123E0,-2.279163599E-1
2.530941542E1,-1.201795220E0,-9.785448074E0,-2.159522474E-1
2.532968386E1,-1.192223907E0,-9.670592308E0,-2.542374134E-1
2.534995224E1,-1.043868899E0,-9.665806770E0,-3.236292601E-1
2.537022063E1,-9.194421172E-1,-9.708877563E0,-4.313062727E-1
2.539048901E1,-8.644071817E-1,-9.773484230E0,-4.648058116E-1
2.541075740E1,-8.931210637E-1,-9.823733330E0,-4.887340367E-1
2.543102584E1,-9.266205430E-1,-9.876375198E0,-4.504488707E-1
2.545129422E1,-9.553344250E-1,-9.818947792E0,-3.954139352E-1
2.547156261E1,-8.907282352E-1,-9.725627899E0,-3.044866920E-1
2.549183099E1,-7.902296782E-1,-9.699306488E0,-2.805584669E-1
2.551209938E1,-7.776673436E-1,-9.725627899E0,-3.116651475E-1
2.553236776E1,-8.548358679E-1,-9.814162254E0,-3.355933726E-1
2.555263615E1,-9.385846853E-1,-9.864411354E0,-3.786641955E-1
2.557290458E1,-9.864411354E-1,-9.866804123E0,-3.499503136E-1
2.559317297E1,-9.744769931E-1,-9.830911636E0,-3.260220885E-1
2.561344136E1,-9.457631707E-1,-9.763913155E0,-3.188436031E-1
2.563370974E1,-9.385846853E-1,-9.708877563E0,-3.284149170E-1
2.565397813E1,-8.955138922E-1,-9.708877563E0,-3.595215976E-1
2.567424651E1,-8.500502706E-1,-9.728020668E0,-3.762713671E-1
2.569451490E1,-8.668000102E-1,-9.754341125E0,-3.355933726E-1
2.571478328E1,-9.314061999E-1,-9.778269768E0,-2.925225794E-1
2.573505172E1,-1.012762189E0,-9.826126099E0,-2.805584669E-1
2.575532005E1,-1.058225870E0,-9.823733330E0,-2.662015259E-1
2.577558849E1,-1.017547846E0,-9.795019150E0,-2.662015259E-1
2.579585688E1,-9.960124493E-1,-9.749555588E0,-2.709871531E-1
2.581612526E1,-1.000798106E0,-9.692128181E0,-3.140579760E-1
2.583639365E1,-9.744769931E-1,-9.687342644E0,-3.332005441E-1
2.585666203E1,-9.792626500E-1,-9.718449593E0,-3.786641955E-1
2.587706203E1,-9.314061999E-1,-9.792626381E0,-4.025924206E-1
2.589719880E1,-8.859425783E-1,-9.804591179E0,-3.978067636E-1
2.591746719E1,-8.261220455E-1,-9.818947792E0,-3.475574851E-1
2.593773558E1,-8.045865893E-1,-9.780662537E0,-2.901297510E-1
2.595800792E1,-8.404789567E-1,-9.751948357E0,-2.446661144E-1
2.597831089E1,-9.074779749E-1,-9.763913155E0,-2.327020019E-1
2.599854016E1,-9.314061999E-1,-9.768698692E0,-2.518445849E-1
2.601880865E1,-9.194421172E-1,-9.775876999E0,-2.829512656E-1
2.603907703E1,-9.002995491E-1,-9.768698692E0,-2.973082066E-1
2.605947714E1,-8.811569214E-1,-9.771091461E0,-3.092723191E-1
2.607961396E1,-8.739784956E-1,-9.761520386E0,-2.901297510E-1
2.609988245E1,-9.290133715E-1,-9.768698692E0,-2.949153781E-1
2.612015089E1,-9.840483069E-1,-9.771091461E0,-2.997010350E-1
2.614041927E1,-9.696913958E-1,-9.749555588E0,-2.877369225E-1
2.616081927E1,-9.290133715E-1,-9.751948357E0,-2.805584669E-1
2.618095610E1,-9.050851464E-1,-9.773484230E0,-2.781656384E-1
2.620122448E1,-8.907282352E-1,-9.806983948E0,-2.733799815E-1
2.622149287E1,-9.194421172E-1,-9.823733330E0,-2.542374134E-1
2.624176125E1,-9.720842242E-1,-9.811769485E0,-2.614158690E-1
2.626216125E1,-9.337990284E-1,-9.773484230E0,-2.398804724E-1
2.628229802E1,-8.931210637E-1,-9.759127617E0,-2.997010350E-1
2.630256646E1,-8.572286963E-1,-9.785448074E0,-3.260220885E-1
2.632283485E1,-8.835497499E-1,-9.773484230E0,-3.379862010E-1
2.634310323E1,-9.266205430E-1,-9.768698692E0,-3.068794906E-1
2.636337162E1,-9.553344250E-1,-9.771091461E0,-2.542374134E-1
2.638364000E1,-9.529415965E-1,-9.771091461E0,-2.374876440E-1
2.640390839E1,-9.577272534E-1,-9.756733894E0,-2.350948304E-1
2.642417677E1,-9.433703423E-1,-9.747162819E0,-2.566302419E-1
2.644444516E1,-9.912267923E-1,-9.749555588E0,-2.877369225E-1
2.646471354E1,-9.936196208E-1,-9.790233612E0,-3.164508045E-1
2.648498188E1,-9.625129104E-1,-9.775876999E0,-3.068794906E-1
2.650525026E1,-8.859425783E-1,-9.771091461E0,-3.044866920E-1
2.652551865E1,-8.428717852E-1,-9.747162819E0,-2.805584669E-1
2.654578703E1,-8.452646136E-1,-9.749555588E0,-2.662015259E-1
2.656618703E1,-8.620143533E-1,-9.795019150E0,-2.733799815E-1
2.658632380E1,-9.290133715E-1,-9.814162254E0,-2.446661144E-1
2.660659219E1,-9.720842242E-1,-9.840482712E0,-2.470589429E-1
2.662686058E1,-9.840483069E-1,-9.766305923E0,-2.518445849E-1
2.664712891E1,-9.625129104E-1,-9.735198975E0,-2.590230405E-1
2.666739729E1,-9.122636318E-1,-9.713663101E0,-2.949153781E-1
2.668766568E1,-8.715856671E-1,-9.742377281E0,-3.355933726E-1
2.670793406E1,-8.907282352E-1,-9.754341125E0,-3.643072546E-1
2.672820245E1,-9.170492887E-1,-9.756733894E0,-3.284149170E-1
2.674847078E1,-9.218349457E-1,-9.766305923E0,-3.164508045E-1
2.676873917E1,-9.098708034E-1,-9.787840843E0,-2.685943544E-1
2.678900755E1,-8.883354068E-1,-9.785448074E0,-2.279163599E-1
2.680927594E1,-8.859425783E-1,-9.785448074E0,-2.255235314E-1
2.682954432E1,-9.074779749E-1,-9.754341125E0,-2.422732860E-1
2.684981266E1,-9.170492887E-1,-9.771091461E0,-2.805584669E-1
2.687008104E1,-9.194421172E-1,-9.780662537E0,-2.997010350E-1
2.689034943E1,-8.859425783E-1,-9.797411919E0,-3.260220885E-1
2.691061781E1,-9.074779749E-1,-9.751948357E0,-3.044866920E-1
2.693088615E1,-9.433703423E-1,-9.739984512E0,-2.925225794E-1
2.695115453E1,-9.720842242E-1,-9.775876999E0,-2.997010350E-1
2.697142292E1,-9.385846853E-1,-9.771091461E0,-2.925225794E-1
2.699169130E1,-9.218349457E-1,-9.775876999E0,-2.829512656E-1
2.701195964E1,-8.715856671E-1,-9.783055305E0,-2.662015259E-1
2.703222802E1,-8.907282352E-1,-9.809376717E0,-2.805584669E-1
2.705249641E1,-9.194421172E-1,-9.818947792E0,-2.638086975E-1
2.707276479E1,-9.601200819E-1,-9.818947792E0,-2.757728100E-1
2.709303318E1,-9.840483069E-1,-9.787840843E0,-2.877369225E-1
2.711330151E1,-9.553344250E-1,-9.778269768E0,-2.997010350E-1
2.713356990E1,-9.194421172E-1,-9.768698692E0,-2.949153781E-1
2.715383828E1,-9.098708034E-1,-9.759127617E0,-3.164508045E-1
2.717410662E1,-9.146564603E-1,-9.771091461E0,-3.068794906E-1
2.719437500E1,-9.074779749E-1,-9.771091461E0,-3.212364316E-1
2.721464339E1,-8.931210637E-1,-9.783055305E0,-3.020938635E-1
2.723491172E1,-9.122636318E-1,-9.744770050E0,-2.662015259E-1
2.725518005E1,-9.218349457E-1,-9.766305923E0,-2.590230405E-1
2.727544849E1,-9.314061999E-1,-9.806983948E0,-2.805584669E-1
2.729571683E1,-9.457631707E-1,-9.826126099E0,-2.781656384E-1
2.731598521E1,-8.979067206E-1,-9.809376717E0,-3.020938635E-1
2.733625354E1,-8.476574421E-1,-9.778269768E0,-3.140579760E-1
2.735665354E1,-8.189435601E-1,-9.773484230E0,-2.877369225E-1
2.737679031E1,-8.213363886E-1,-9.783055305E0,-2.494517565E-1
2.739705865E1,-8.668000102E-1,-9.802198410E0,-2.231307179E-1
2.741732703E1,-9.074779749E-1,-9.783055305E0,-2.422732860E-1
2.743759542E1,-9.577272534E-1,-9.780662537E0,-2.518445849E-1
2.745786375E1,-9.744769931E-1,-9.787840843E0,-2.853440940E-1
2.747813214E1,-9.577272534E-1,-9.768698692E0,-2.925225794E-1
2.749840047E1,-9.912267923E-1,-9.701699257E0,-2.925225794E-1
2.751866886E1,-1.017547846E0,-9.708877563E0,-3.332005441E-1
2.753893724E1,-1.019940615E0,-9.728020668E0,-3.020938635E-1
2.755933724E1,-1.007976532E0,-9.768698692E0,-2.925225794E-1
2.757947396E1,-9.840483069E-1,-9.804591179E0,-3.092723191E-1
2.759974229E1,-9.170492887E-1,-9.795019150E0,-3.092723191E-1
2.762001068E1,-8.883354068E-1,-9.771091461E0,-2.757728100E-1
2.764027906E1,-8.620143533E-1,-9.766305923E0,-2.303091735E-1
2.766067906E1,-8.309076428E-1,-9.809376717E0,-2.566302419E-1
2.768081578E1,-8.333004713E-1,-9.763913155E0,-2.757728100E-1
2.770108412E1,-8.309076428E-1,-9.778269768E0,-3.499503136E-1
2.772135245E1,-8.691928387E-1,-9.787840843E0,-4.001995921E-1
2.774162084E1,-9.505487680E-1,-9.790233612E0,-4.815555513E-1
2.776202084E1,-8.524430394E-1,-9.804591179E0,-5.174478889E-1
2.778215755E1,-7.998009920E-1,-9.768698692E0,-4.528416991E-1
2.780242589E1,-7.537391186E-1,-9.718449593E0,-3.906283081E-1
2.782269422E1,-6.915257573E-1,-9.795019150E0,-2.829512656E-1
2.784296261E1,-7.585247755E-1,-9.792626381E0,-1.633101404E-1
2.786336261E1,-9.720842242E-1,-9.816555023E0,-1.034895778E-1
2.788349933E1,-1.156331539E0,-9.830911636E0,-1.704886109E-1
2.790376771E1,-1.094118118E0,-9.905089378E0,-2.853440940E-1
2.792403604E1,-9.361918569E-1,-9.857233047E0,-3.643072546E-1
2.794430443E1,-8.045865893E-1,-9.809376717E0,-3.762713671E-1
2.796457276E1,-7.926225066E-1,-9.737591743E0,-3.834498227E-1
2.798484110E1,-8.213363886E-1,-9.684949875E0,-3.260220885E-1
2.800510948E1,-8.356932998E-1,-9.694520950E0,-3.092723191E-1
2.802537781E1,-8.859425783E-1,-9.759127617E0,-3.140579760E-1
2.804564620E1,-9.337990284E-1,-9.775876999E0,-2.877369225E-1
2.806591453E1,-8.356932998E-1,-9.744770050E0,-2.662015259E-1
2.808618287E1,-7.680960894E-1,-9.768698692E0,-2.733799815E-1
2.810645125E1,-8.548358679E-1,-9.756733894E0,-2.590230405E-1
2.812671958E1,-9.960124493E-1,-9.737591743E0,-2.781656384E-1
2.814698792E1,-1.036690354E0,-9.751948357E0,-3.140579760E-1
2.816725630E1,-1.053440213E0,-9.806983948E0,-3.164508045E-1
2.818752464E1,-1.000798106E0,-9.881160736E0,-3.547359705E-1
2.820779297E1,-9.122636318E-1,-9.869196892E0,-3.523431420E-1
2.822806136E1,-8.380861282E-1,-9.826126099E0,-3.451646566E-1
2.824832964E1,-7.489534616E-1,-9.787840843E0,-3.092723191E-1
2.826859802E1,-7.082754970E-1,-9.744770050E0,-2.709871531E-1
2.828886641E1,-7.728816867E-1,-9.668199539E0,-2.638086975E-1
2.830913474E1,-8.596215248E-1,-9.723235130E0,-2.494517565E-1
2.832940308E1,-8.787640929E-1,-9.780662537E0,-3.020938635E-1
2.834967146E1,-8.835497499E-1,-9.773484230E0,-3.332005441E-1
2.836993979E1,-9.577272534E-1,-9.735198975E0,-2.805584669E-1
2.839020813E1,-1.024726272E0,-9.775876999E0,-1.513460279E-1
2.841047651E1,-7.345965505E-1,-9.830911636E0,-3.882354796E-1
2.843074485E1,-6.628118753E-1,-9.787840843E0,-4.265206456E-1
2.845101318E1,-8.237292171E-1,-9.885947227E0,-2.805584669E-1
2.847128151E1,-9.720842242E-1,-9.854840279E0,-2.111666054E-1
2.849154990E1,-1.000798106E0,-9.835697174E0,-2.207378894E-1
2.851181823E1,-9.337990284E-1,-9.759127617E0,-2.303091735E-1
2.853208656E1,-8.668000102E-1,-9.682557106E0,-2.781656384E-1
2.855235490E1,-7.902296782E-1,-9.797411919E0,-2.662015259E-1
2.857262328E1,-7.130611539E-1,-9.833304405E0,-3.499503136E-1
2.859289162E1,-6.819544435E-1,-9.814162254E0,-4.025924206E-1
2.861315995E1,-7.585247755E-1,-9.730413437E0,-4.289134443E-1
2.863342828E1,-8.380861282E-1,-9.704092026E0,-3.571287692E-1
2.865369667E1,-8.763712645E-1,-9.725627899E0,-2.805584669E-1
2.867396500E1,-8.428717852E-1,-9.739984512E0,-2.949153781E-1
2.869423334E1,-7.417750359E-1,-9.785448074E0,-3.020938635E-1
2.871450167E1,-6.269195080E-1,-9.862018585E0,-3.738785386E-1
2.873477000E1,-7.178468108E-1,-9.850054741E0,-2.757728100E-1
2.875517000E1,-9.864411354E-1,-9.759127617E0,-1.369891018E-1
2.877530667E1,-1.134796143E0,-9.672985077E0,-1.537388563E-1
2.879557505E1,-1.022333503E0,-9.706484795E0,-2.614158690E-1
2.881584339E1,-8.189435601E-1,-9.811769485E0,-3.690928817E-1
2.883611167E1,-6.412764788E-1,-9.936196327E0,-3.906283081E-1
2.885638005E1,-5.934200287E-1,-9.929018021E0,-3.284149170E-1
2.887664844E1,-6.101697683E-1,-9.885947227E0,-2.614158690E-1
2.889691677E1,-7.345965505E-1,-9.890732765E0,-1.513460279E-1
2.891718511E1,-9.242277741E-1,-9.806983948E0,-5.802594870E-2
2.893745344E1,-1.158724308E0,-9.699306488E0,2.392822644E-3
2.895785344E1,-1.290329576E0,-9.658628464E0,-4.785645287E-3
2.897799011E1,-1.252044439E0,-9.589237213E0,-1.130608693E-1
2.899825844E1,-1.070189953E0,-9.591629982E0,-2.685943544E-1
2.901852677E1,-7.926225066E-1,-9.804591179E0,-3.738785386E-1
2.903879511E1,-6.173482537E-1,-1.000319481E1,-4.719842672E-1
2.905919511E1,-6.652047038E-1,-9.871589661E0,-4.576273263E-1
2.907933177E1,-8.572286963E-1,-9.692128181E0,-4.217349887E-1
2.909960011E1,-9.050851464E-1,-9.689735413E0,-4.719842672E-1
2.911986844E1,-8.213363886E-1,-9.711270332E0,-4.025924206E-1
2.914013677E1,-6.723831892E-1,-9.725627899E0,-2.470589429E-1
2.916053677E1,-5.790630579E-1,-9.763913155E0,-1.944168359E-1
2.918067349E1,-6.556333899E-1,-9.737591743E0,-2.135594189E-1
2.920094182E1,-8.045865893E-1,-9.704092026E0,-2.111666054E-1
2.922121016E1,-8.189435601E-1,-9.814162254E0,-2.111666054E-1
2.924147849E1,-6.771687865E-1,-9.936196327E0,-2.470589429E-1
2.926187849E1,-5.742774606E-1,-9.885947227E0,-2.805584669E-1
2.928201516E1,-6.029912829E-1,-9.737591743E0,-2.973082066E-1
2.930228349E1,-7.345965505E-1,-9.625128746E0,-3.188436031E-1
2.932255182E1,-8.237292171E-1,-9.672985077E0,-3.762713671E-1
2.934282016E1,-7.902296782E-1,-9.768698692E0,-3.547359705E-1
2.936308849E1,-7.489534616E-1,-9.833304405E0,-2.327020019E-1
2.938335683E1,-7.034898400E-1,-9.912267685E0,-1.537388563E-1
2.940362516E1,-7.878368497E-1,-9.787840843E0,-9.152546525E-2
2.942389349E1,-1.153938770E0,-9.608379364E0,1.914258115E-2
2.944416183E1,-1.220937729E0,-9.802198410E0,3.110669367E-2
2.946443016E1,-7.513462901E-1,-1.029990482E1,-1.537388563E-1
2.948469849E1,-3.182454109E-1,-1.040818024E1,-4.313062727E-1
2.950496682E1,-1.603191197E-1,-9.830911636E0,-4.911268353E-1
2.952523516E1,-3.278166950E-1,-9.460023880E0,-3.571287692E-1
2.954550349E1,-6.293123364E-1,-9.483952522E0,-2.901297510E-1
2.956577183E1,-9.625129104E-1,-9.577272415E0,-4.025924206E-1
2.958604016E1,-1.177866936E0,-9.651450157E0,-4.719842672E-1
2.960630849E1,-1.314257860E0,-9.639486313E0,-4.432703853E-1
2.962657677E1,-1.326221943E0,-9.639486313E0,-3.930211067E-1
2.964684511E1,-1.063011408E0,-9.869196892E0,-3.619144261E-1
2.966711344E1,-7.058826685E-1,-1.002233791E1,-3.092723191E-1
2.968738177E1,-5.024927258E-1,-9.986445427E0,-2.446661144E-1
2.970765011E1,-6.245267391E-1,-9.826126099E0,-1.609173268E-1
2.972791844E1,-8.452646136E-1,-9.665806770E0,-1.082752272E-1
2.974818677E1,-9.577272534E-1,-9.687342644E0,-7.956135273E-2
2.976845511E1,-8.572286963E-1,-9.852447510E0,-1.274178028E-1
2.978885511E1,-6.604190469E-1,-9.869196892E0,-2.207378894E-1
2.980899177E1,-6.125625968E-1,-9.699306488E0,-2.685943544E-1
2.982926005E1,-6.197410822E-1,-9.689735413E0,-3.260220885E-1
2.984952839E1,-5.479564071E-1,-9.838089943E0,-3.403790295E-1
2.986979672E1,-5.024927258E-1,-9.902696609E0,-2.925225794E-1
2.989006505E1,-5.527420044E-1,-9.852447510E0,-2.255235314E-1
2.991033339E1,-6.843472719E-1,-9.828518867E0,-2.590230405E-1
2.993060172E1,-7.704889178E-1,-9.866804123E0,-3.020938635E-1
2.995087005E1,-7.998009920E-1,-9.917053223E0,-4.121637046E-1
2.997113839E1,-8.500502706E-1,-9.754341125E0,-3.930211067E-1
2.999140672E1,-1.098903775E0,-9.436096191E0,-2.327020019E-1
3.001167505E1,-1.271187067E0,-9.414560318E0,-1.974078640E-2
3.003194339E1,-9.840483069E-1,-9.869196892E0,-5.084748194E-2
3.005234339E1,-5.096712112E-1,-1.026401234E1,-2.949153781E-1
3.007248000E1,-2.297109663E-1,-1.032383347E1,-4.217349887E-1
3.009274834E1,-2.584248483E-1,-9.924231529E0,-3.308077157E-1
3.011301667E1,-5.000999570E-1,-9.577272415E0,-1.752742529E-1
3.013328500E1,-7.633104324E-1,-9.565308571E0,-1.944168359E-1
3.015355334E1,-9.577272534E-1,-9.675378799E0,-3.403790295E-1
3.017382162E1,-1.096511006E0,-9.665806770E0,-4.049852192E-1
3.019408995E1,-1.223330617E0,-9.608379364E0,-4.073780477E-1
3.021435828E1,-1.208973646E0,-9.668199539E0,-3.834498227E-1
3.023462662E1,-9.984052777E-1,-9.780662537E0,-3.643072546E-1
3.025489495E1,-7.130611539E-1,-9.909874916E0,-3.714857101E-1
3.027516328E1,-6.269195080E-1,-9.936196327E0,-3.810569942E-1
3.029543162E1,-7.274180651E-1,-9.833304405E0,-3.427718580E-1
3.031569995E1,-7.680960894E-1,-9.735198975E0,-2.350948304E-1
3.033596823E1,-8.309076428E-1,-9.620343208E0,-1.154536903E-1
3.035623656E1,-7.854440212E-1,-9.720842361E0,-2.931207791E-2
3.037650490E1,-6.293123364E-1,-9.993623734E0,2.392822644E-3
3.039677323E1,-5.479564071E-1,-1.000319481E1,-9.631111473E-2
3.041704156E1,-6.388836503E-1,-9.720842361E0,-2.255235314E-1
3.043730990E1,-7.274180651E-1,-9.632308006E0,-3.116651475E-1
3.045757823E1,-7.806583643E-1,-9.771091461E0,-3.403790295E-1
3.047784656E1,-7.926225066E-1,-9.905089378E0,-3.308077157E-1
3.049811485E1,-7.704889178E-1,-9.919445992E0,-3.427718580E-1
3.051838318E1,-8.141579032E-1,-9.850054741E0,-3.643072546E-1
3.053865151E1,-8.069794178E-1,-9.859625816E0,-4.001995921E-1
3.055905151E1,-7.345965505E-1,-9.728020668E0,-4.384847581E-1
3.057918818E1,-9.026923180E-1,-9.431310654E0,-2.781656384E-1
3.059945651E1,-1.163509965E0,-9.491130829E0,-0.000000000E0
3.061972484E1,-1.086939692E0,-9.936196327E0,2.632104978E-2
3.063999318E1,-5.862415433E-1,-1.033340454E1,-1.896311939E-1
3.066039318E1,-1.100698411E-1,-1.033819008E1,-4.217349887E-1
3.068052979E1,-9.092725813E-2,-9.914660454E0,-3.595215976E-1
3.070079813E1,-5.790630579E-1,-9.512666702E0,-1.274178028E-1
3.072106646E1,-1.110867858E0,-9.381061554E0,-8.673982322E-2
3.074133479E1,-1.398006678E0,-9.493523598E0,-2.805584669E-1
3.076173479E1,-1.469791293E0,-9.670592308E0,-5.198407173E-1
3.078187146E1,-1.366899967E0,-9.742377281E0,-6.107679605E-1
3.080213979E1,-1.156331539E0,-9.704092026E0,-5.868397355E-1
3.082240813E1,-9.074779749E-1,-9.787840843E0,-5.341976285E-1
3.084267646E1,-6.053841114E-1,-9.926624298E0,-4.863412082E-1
3.086307646E1,-4.283152521E-1,-9.940981865E0,-3.140579760E-1
3.088321313E1,-5.264210105E-1,-9.835697174E0,-1.082752272E-1
3.090348141E1,-7.585247755E-1,-9.790233612E0,7.417750359E-2
3.092374979E1,-7.585247755E-1,-9.804591179E0,1.770688742E-1
3.094401813E1,-6.412764788E-1,-9.862018585E0,6.939185411E-2
3.096428646E1,-6.101697683E-1,-9.847661972E0,-2.015953064E-1
3.098455479E1,-7.034898400E-1,-9.696913719E0,-4.289134443E-1
3.100482313E1,-7.878368497E-1,-9.692128181E0,-4.600201547E-1
3.102509146E1,-8.572286963E-1,-9.818947792E0,-4.336991012E-1
3.104535979E1,-8.739784956E-1,-9.852447510E0,-3.954139352E-1
3.106575979E1,-8.859425783E-1,-9.730413437E0,-4.336991012E-1
3.108589646E1,-8.356932998E-1,-9.708877563E0,-4.911268353E-1
3.110616479E1,-7.806583643E-1,-9.732806206E0,-4.791627228E-1
3.112643313E1,-7.274180651E-1,-9.756733894E0,-3.834498227E-1
3.114670146E1,-7.441678643E-1,-9.751948357E0,-2.255235314E-1
3.116696979E1,-7.752745152E-1,-9.799804688E0,-6.041877344E-2
3.118723813E1,-7.752745152E-1,-9.809376717E0,4.307080805E-2
3.120750641E1,-9.529415965E-1,-9.663414001E0,6.221338734E-2
3.122777474E1,-1.170688510E0,-9.670592308E0,1.435693540E-2
3.124804308E1,-1.065404296E0,-9.881160736E0,-2.063809484E-1
3.126831141E1,-6.508477330E-1,-1.021376324E1,-4.791627228E-1
3.128857979E1,-3.661018610E-1,-1.027358437E1,-5.820540786E-1
3.130884808E1,-4.450650215E-1,-9.869196892E0,-3.260220885E-1
3.132911641E1,-7.369893789E-1,-9.498309135E0,-1.298106313E-1
3.134938474E1,-1.053440213E0,-9.476774216E0,-1.968096644E-1
3.136965308E1,-1.094118118E0,-9.656235695E0,-4.025924206E-1
3.138992141E1,-1.079761267E0,-9.704092026E0,-5.270192027E-1
3.141018974E1,-1.051047325E0,-9.751948357E0,-5.078766346E-1
3.143045808E1,-8.907282352E-1,-9.830911636E0,-4.504488707E-1
3.145072641E1,-6.987041831E-1,-9.802198410E0,-3.571287692E-1
3.147099479E1,-6.604190469E-1,-9.780662537E0,-2.255235314E-1
3.149126308E1,-7.537391186E-1,-9.828518867E0,-2.255235314E-1
3.151153146E1,-8.141579032E-1,-9.871589661E0,-2.494517565E-1
3.153179979E1,-7.489534616E-1,-9.773484230E0,-1.992024779E-1
3.155206813E1,-6.556333899E-1,-9.706484795E0,-1.154536903E-1
3.157233646E1,-6.412764788E-1,-9.775876999E0,-1.465603858E-1
3.159260479E1,-7.202396393E-1,-9.888339996E0,-2.231307179E-1
3.161287313E1,-7.250252366E-1,-9.950552940E0,-3.140579760E-1
3.163314141E1,-6.436693072E-1,-9.862018585E0,-4.193421602E-1
3.165340979E1,-6.221339107E-1,-9.737591743E0,-4.552344978E-1
3.167367813E1,-7.082754970E-1,-9.649057388E0,-4.145565331E-1
3.169394646E1,-8.021938205E-1,-9.742377281E0,-2.781656384E-1
3.171421484E1,-8.883354068E-1,-9.871589661E0,-1.609173268E-1
3.173448318E1,-9.314061999E-1,-9.840482712E0,-1.992024779E-1
3.175475151E1,-8.285148144E-1,-9.773484230E0,-2.949153781E-1
3.177501985E1,-6.197410822E-1,-9.785448074E0,-3.834498227E-1
3.179528818E1,-5.551348329E-1,-9.783055305E0,-3.978067636E-1
3.181555651E1,-7.154539824E-1,-9.713663101E0,-3.451646566E-1
3.183582484E1,-9.577272534E-1,-9.665806770E0,-2.111666054E-1
3.185622485E1,-1.115653515E0,-9.692128181E0,-1.609173268E-1
3.187636151E1,-1.063011408E0,-9.811769485E0,-2.135594189E-1
3.189662990E1,-8.811569214E-1,-9.943374634E0,-2.805584669E-1
3.191702990E1,-6.699903607E-1,-9.967302322E0,-3.619144261E-1
3.193716656E1,-5.000999570E-1,-9.859625816E0,-3.571287692E-1
3.195743490E1,-4.689932466E-1,-9.737591743E0,-2.949153781E-1
3.197770323E1,-5.862415433E-1,-9.687342644E0,-2.590230405E-1
3.199797162E1,-7.776673436E-1,-9.701699257E0,-2.877369225E-1
3.201823995E1,-9.385846853E-1,-9.742377281E0,-3.499503136E-1
3.203850828E1,-8.787640929E-1,-9.835697174E0,-3.595215976E-1
3.205890828E1,-7.752745152E-1,-9.905089378E0,-3.020938635E-1
3.207904500E1,-6.963114142E-1,-9.912267685E0,-1.968096644E-1
3.209931334E1,-7.034898400E-1,-9.775876999E0,-1.202393398E-1
3.211958167E1,-8.045865893E-1,-9.661021233E0,-1.561316848E-1
3.213985000E1,-8.739784956E-1,-9.687342644E0,-3.044866920E-1
3.216025000E1,-8.811569214E-1,-9.823733330E0,-4.169493318E-1
3.218038672E1,-8.476574421E-1,-9.847661972E0,-4.169493318E-1
3.220065505E1,-8.309076428E-1,-9.775876999E0,-3.260220885E-1
3.222092339E1,-8.620143533E-1,-9.696913719E0,-3.164508045E-1
3.224119172E1,-8.213363886E-1,-9.692128181E0,-3.332005441E-1
3.226159172E1,-7.704889178E-1,-9.761520386E0,-3.332005441E-1
3.228172844E1,-7.298108935E-1,-9.835697174E0,-2.853440940E-1
3.230199677E1,-7.806583643E-1,-9.866804123E0,-1.896311939E-1
3.232226516E1,-8.069794178E-1,-9.826126099E0,-1.561316848E-1
3.234253349E1,-7.926225066E-1,-9.787840843E0,-1.968096644E-1
3.236280183E1,-7.657032609E-1,-9.792626381E0,-2.398804724E-1
3.238307021E1,-7.561319470E-1,-9.785448074E0,-2.853440940E-1
3.240333854E1,-7.633104324E-1,-9.783055305E0,-3.260220885E-1
3.242360688E1,-7.776673436E-1,-9.756733894E0,-3.714857101E-1
3.244387526E1,-7.513462901E-1,-9.761520386E0,-4.025924206E-1
3.246427526E1,-6.819544435E-1,-9.799804688E0,-3.834498227E-1
3.248441198E1,-6.436693072E-1,-9.826126099E0,-3.284149170E-1
3.250468031E1,-6.987041831E-1,-9.809376717E0,-2.805584669E-1
3.252494870E1,-7.680960894E-1,-9.761520386E0,-2.590230405E-1
3.254521703E1,-7.752745152E-1,-9.749555588E0,-2.853440940E-1
3.256548537E1,-7.082754970E-1,-9.775876999E0,-2.805584669E-1
3.258575375E1,-6.699903607E-1,-9.797411919E0,-2.757728100E-1
3.260602208E1,-6.915257573E-1,-9.845269203E0,-2.757728100E-1
3.262629047E1,-8.069794178E-1,-9.783055305E0,-2.183450609E-1
3.264655880E1,-9.960124493E-1,-9.706484795E0,-1.489532143E-1
3.266682719E1,-1.007976532E0,-9.862018585E0,-1.489532143E-1
3.268709552E1,-8.787640929E-1,-1.003908730E1,-2.350948304E-1
3.270736386E1,-7.010970116E-1,-1.001994514E1,-3.523431420E-1
3.272763224E1,-5.718846321E-1,-9.802198410E0,-3.427718580E-1
3.274790058E1,-5.431707501E-1,-9.639486313E0,-2.709871531E-1
3.276816896E1,-6.628118753E-1,-9.579665184E0,-2.757728100E-1
3.278843729E1,-8.165507317E-1,-9.656235695E0,-3.619144261E-1
3.280870563E1,-8.883354068E-1,-9.775876999E0,-4.025924206E-1
3.282897401E1,-9.242277741E-1,-9.811769485E0,-4.336991012E-1
3.284924234E1,-9.242277741E-1,-9.728020668E0,-4.049852192E-1
3.286951068E1,-9.074779749E-1,-9.735198975E0,-3.714857101E-1
3.288977906E1,-9.314061999E-1,-9.797411919E0,-3.116651475E-1
3.291004740E1,-1.017547846E0,-9.775876999E0,-2.470589429E-1
3.293031573E1,-1.072582722E0,-9.711270332E0,-1.561316848E-1
3.295058412E1,-9.960124493E-1,-9.754341125E0,-9.391828626E-2
3.297085245E1,-7.680960894E-1,-9.821340561E0,-1.034895778E-1
3.299112084E1,-6.149554253E-1,-9.797411919E0,-1.896311939E-1
3.301138917E1,-6.269195080E-1,-9.718449593E0,-2.374876440E-1
3.303165755E1,-7.345965505E-1,-9.732806206E0,-2.422732860E-1
3.305192584E1,-7.465606928E-1,-9.857233047E0,-2.494517565E-1
3.307219422E1,-7.657032609E-1,-9.871589661E0,-2.853440940E-1
3.309246261E1,-8.021938205E-1,-9.845269203E0,-3.379862010E-1
3.311273094E1,-8.356932998E-1,-9.850054741E0,-3.906283081E-1
3.313299932E1,-8.596215248E-1,-9.720842361E0,-4.001995921E-1
3.315326766E1,-1.089332461E0,-9.553344727E0,-2.614158690E-1
3.317366766E1,-1.055832982E0,-9.687342644E0,-1.298106313E-1
3.319380438E1,-7.393822074E-1,-9.948160172E0,-1.800599098E-1
3.321407271E1,-5.264210105E-1,-9.993623734E0,-2.901297510E-1
3.323434110E1,-5.144568682E-1,-9.854840279E0,-2.949153781E-1
3.325460943E1,-6.221339107E-1,-9.804591179E0,-2.685943544E-1
3.327487781E1,-8.476574421E-1,-9.754341125E0,-2.805584669E-1
3.329514219E1,-1.060618639E0,-9.725627899E0,-3.188436031E-1
3.331537599E1,-1.130010486E0,-9.723235130E0,-3.619144261E-1
3.333568349E1,-1.108475089E0,-9.677771568E0,-4.408775866E-1
3.335595167E1,-1.036690354E0,-9.668199539E0,-4.743770957E-1
3.337622000E1,-8.691928387E-1,-9.821340561E0,-4.408775866E-1
3.339648828E1,-7.178468108E-1,-9.964909554E0,-2.925225794E-1
3.341675656E1,-7.537391186E-1,-9.909874916E0,-1.345962733E-1
3.343702484E1,-8.620143533E-1,-9.725627899E0,-5.802594870E-2
3.345729313E1,-8.907282352E-1,-9.646664619E0,-7.477571070E-2
3.347756151E1,-7.561319470E-1,-9.763913155E0,-8.913264424E-2
3.349782979E1,-6.675975323E-1,-9.802198410E0,-1.728814393E-1
3.351809813E1,-6.747759581E-1,-9.835697174E0,-2.470589429E-1
3.353836651E1,-7.274180651E-1,-9.852447510E0,-3.882354796E-1
3.355876651E1,-7.130611539E-1,-9.912267685E0,-5.341976285E-1
3.357890318E1,-7.513462901E-1,-9.809376717E0,-5.916253924E-1
3.359917151E1,-9.720842242E-1,-9.531808853E0,-5.222335458E-1
3.361943990E1,-1.082154036E0,-9.519845009E0,-3.762713671E-1
3.363970823E1,-8.524430394E-1,-9.754341125E0,-3.954139352E-1
3.366010823E1,-5.048855543E-1,-9.988838196E0,-5.294120312E-1
3.368024495E1,-3.517449200E-1,-9.998409271E0,-5.198407173E-1
3.370051328E1,-4.785645306E-1,-9.850054741E0,-3.714857101E-1
3.372078162E1,-7.926225066E-1,-9.708877563E0,-1.920240223E-1
3.374105000E1,-1.060618639E0,-9.692128181E0,-9.870393574E-2
3.376144995E1,-1.127617717E0,-9.778269768E0,-1.274178028E-1
3.378158662E1,-9.074779749E-1,-9.850054741E0,-2.566302419E-1
3.380185495E1,-6.388836503E-1,-9.816555023E0,-3.643072546E-1
3.382212334E1,-5.240281820E-1,-9.763913155E0,-3.547359705E-1
3.384239167E1,-5.814558864E-1,-9.735198975E0,-2.997010350E-1
3.386279167E1,-8.356932998E-1,-9.706484795E0,-2.949153781E-1
3.388292839E1,-9.984052777E-1,-9.749555588E0,-3.332005441E-1
3.390319672E1,-9.672985673E-1,-9.881160736E0,-4.073780477E-1
3.392346505E1,-8.620143533E-1,-9.926624298E0,-4.504488707E-1
3.394373344E1,-8.333004713E-1,-9.799804688E0,-4.121637046E-1
3.396400177E1,-8.763712645E-1,-9.684949875E0,-4.049852192E-1
3.398427011E1,-9.266205430E-1,-9.653842926E0,-3.786641955E-1
3.400453849E1,-9.146564603E-1,-9.696913719E0,-3.571287692E-1
3.402480682E1,-8.117650747E-1,-9.775876999E0,-3.954139352E-1
3.404507516E1,-7.513462901E-1,-9.806983948E0,-4.265206456E-1
3.406547516E1,-6.747759581E-1,-9.816555023E0,-4.384847581E-1
3.408561188E1,-6.508477330E-1,-9.840482712E0,-3.738785386E-1
3.410588021E1,-6.915257573E-1,-9.816555023E0,-2.877369225E-1
3.412614854E1,-7.830511928E-1,-9.756733894E0,-2.303091735E-1
3.414641693E1,-8.428717852E-1,-9.730413437E0,-2.494517565E-1
3.416668526E1,-8.476574421E-1,-9.768698692E0,-3.020938635E-1
3.418708526E1,-8.285148144E-1,-9.809376717E0,-3.236292601E-1
3.420722193E1,-8.189435601E-1,-9.806983948E0,-3.475574851E-1
3.422749026E1,-8.117650747E-1,-9.790233612E0,-3.427718580E-1
3.424775860E1,-8.141579032E-1,-9.742377281E0,-3.403790295E-1
3.426802698E1,-7.926225066E-1,-9.775876999E0,-3.690928817E-1
3.428829531E1,-7.393822074E-1,-9.811769485E0,-3.978067636E-1
3.430856365E1,-7.585247755E-1,-9.778269768E0,-4.145565331E-1
3.432896365E1,-8.333004713E-1,-9.749555588E0,-4.241278172E-1
3.434910031E1,-8.883354068E-1,-9.699306488E0,-4.169493318E-1
3.436936870E1,-8.596215248E-1,-9.708877563E0,-4.360919297E-1
3.438963703E1,-8.237292171E-1,-9.735198975E0,-3.930211067E-1
3.440990537E1,-7.830511928E-1,-9.809376717E0,-3.978067636E-1
3.443017370E1,-7.537391186E-1,-9.873982430E0,-3.954139352E-1
3.445044208E1,-8.596215248E-1,-9.845269203E0,-2.925225794E-1
3.447071037E1,-1.027119160E0,-9.821340561E0,-2.063809484E-1
3.449097875E1,-1.118046403E0,-9.763913155E0,-2.422732860E-1
3.451124708E1,-1.017547846E0,-9.730413437E0,-3.044866920E-1
3.453151542E1,-7.926225066E-1,-9.790233612E0,-4.049852192E-1
3.455178375E1,-6.843472719E-1,-9.783055305E0,-4.935196638E-1
3.457205208E1,-6.628118753E-1,-9.821340561E0,-4.887340367E-1
3.459232042E1,-6.795616150E-1,-9.816555023E0,-5.054838061E-1
3.461258880E1,-8.069794178E-1,-9.763913155E0,-4.959124923E-1
3.463285714E1,-9.170492887E-1,-9.718449593E0,-5.318048596E-1
3.465312547E1,-9.936196208E-1,-9.730413437E0,-5.485545993E-1
3.467339380E1,-1.024726272E0,-9.728020668E0,-5.437689424E-1
3.469366214E1,-9.888339639E-1,-9.737591743E0,-5.222335458E-1
3.471393047E1,-9.314061999E-1,-9.771091461E0,-5.030909777E-1
3.473419880E1,-8.356932998E-1,-9.845269203E0,-4.360919297E-1
3.475446708E1,-7.393822074E-1,-9.866804123E0,-3.355933726E-1
3.477473547E1,-6.652047038E-1,-9.823733330E0,-2.781656384E-1
3.479500380E1,-6.005984545E-1,-9.830911636E0,-2.781656384E-1
3.481527214E1,-5.742774606E-1,-9.828518867E0,-2.877369225E-1
3.483554047E1,-6.221339107E-1,-9.799804688E0,-3.092723191E-1
3.485580880E1,-7.226324677E-1,-9.795019150E0,-3.571287692E-1
3.487607714E1,-8.620143533E-1,-9.799804688E0,-4.121637046E-1
3.489634547E1,-9.457631707E-1,-9.792626381E0,-4.576273263E-1
3.491661380E1,-9.577272534E-1,-9.799804688E0,-5.198407173E-1
3.493688219E1,-8.883354068E-1,-9.768698692E0,-5.437689424E-1
3.495715047E1,-7.585247755E-1,-9.754341125E0,-5.533402562E-1
3.497741886E1,-6.508477330E-1,-9.756733894E0,-5.365904570E-1
3.499768714E1,-6.053841114E-1,-9.766305923E0,-4.528416991E-1
3.501795547E1,-6.891329288E-1,-9.747162819E0,-3.738785386E-1
3.503822375E1,-8.548358679E-1,-9.735198975E0,-3.403790295E-1
3.505862375E1,-9.337990284E-1,-9.780662537E0,-3.020938635E-1
3.507876052E1,-9.314061999E-1,-9.818947792E0,-2.997010350E-1
3.509902880E1,-9.266205430E-1,-9.826126099E0,-3.499503136E-1
3.511929714E1,-9.481559992E-1,-9.821340561E0,-3.882354796E-1
3.513956547E1,-9.361918569E-1,-9.766305923E0,-4.384847581E-1
3.515997339E1,-8.811569214E-1,-9.737591743E0,-4.504488707E-1
3.518025058E1,-8.261220455E-1,-9.708877563E0,-4.217349887E-1
3.520036354E1,-7.998009920E-1,-9.742377281E0,-4.456632137E-1
3.522063334E1,-7.878368497E-1,-9.787840843E0,-4.480560422E-1
3.524090156E1,-8.548358679E-1,-9.783055305E0,-4.456632137E-1
3.526130276E1,-9.505487680E-1,-9.751948357E0,-3.810569942E-1
3.528144026E1,-8.931210637E-1,-9.771091461E0,-3.260220885E-1
3.530170927E1,-8.356932998E-1,-9.759127617E0,-3.140579760E-1
3.532197818E1,-8.333004713E-1,-9.754341125E0,-3.475574851E-1
3.534224646E1,-8.931210637E-1,-9.766305923E0,-4.145565331E-1
3.536264693E1,-9.337990284E-1,-9.751948357E0,-4.552344978E-1
3.538278396E1,-8.859425783E-1,-9.771091461E0,-4.600201547E-1
3.540305261E1,-7.806583643E-1,-9.780662537E0,-4.456632137E-1
3.542332115E1,-7.513462901E-1,-9.787840843E0,-4.360919297E-1
3.544358943E1,-7.752745152E-1,-9.763913155E0,-4.121637046E-1
3.546398964E1,-8.811569214E-1,-9.756733894E0,-4.289134443E-1
3.548412646E1,-9.529415965E-1,-9.751948357E0,-4.001995921E-1
3.550439490E1,-9.074779749E-1,-9.773484230E0,-3.978067636E-1
3.552466334E1,-8.189435601E-1,-9.771091461E0,-4.217349887E-1
3.554493167E1,-7.489534616E-1,-9.759127617E0,-4.432703853E-1
3.556533177E1,-7.417750359E-1,-9.775876999E0,-4.432703853E-1
3.558546844E1,-7.950153351E-1,-9.792626381E0,-4.456632137E-1
3.560573682E1,-8.428717852E-1,-9.792626381E0,-4.073780477E-1
3.562600521E1,-8.189435601E-1,-9.799804688E0,-3.571287692E-1
3.564627349E1,-8.165507317E-1,-9.806983948E0,-3.786641955E-1
3.566654188E1,-8.165507317E-1,-9.806983948E0,-3.738785386E-1
3.568681016E1,-8.380861282E-1,-9.799804688E0,-3.786641955E-1
3.570707854E1,-8.691928387E-1,-9.790233612E0,-3.906283081E-1
3.572734683E1,-8.811569214E-1,-9.780662537E0,-4.049852192E-1
3.574761516E1,-8.213363886E-1,-9.773484230E0,-4.169493318E-1
3.576788349E1,-8.069794178E-1,-9.754341125E0,-4.145565331E-1
3.578815177E1,-7.950153351E-1,-9.732806206E0,-4.408775866E-1
3.580842011E1,-7.974081635E-1,-9.759127617E0,-4.432703853E-1
3.582868844E1,-8.333004713E-1,-9.799804688E0,-4.289134443E-1
3.584895677E1,-8.715856671E-1,-9.809376717E0,-4.241278172E-1
3.586922511E1,-8.835497499E-1,-9.787840843E0,-3.786641955E-1
3.588950136E1,-8.955138922E-1,-9.751948357E0,-3.762713671E-1
3.590983891E1,-8.811569214E-1,-9.742377281E0,-3.810569942E-1
3.593002891E1,-8.907282352E-1,-9.749555588E0,-3.858426511E-1
3.595029745E1,-8.691928387E-1,-9.751948357E0,-3.882354796E-1
3.597056599E1,-8.524430394E-1,-9.756733894E0,-3.906283081E-1
3.599083443E1,-8.452646136E-1,-9.792626381E0,-4.001995921E-1
3.601110287E1,-8.668000102E-1,-9.787840843E0,-3.834498227E-1
3.603137130E1,-8.931210637E-1,-9.775876999E0,-3.738785386E-1
3.605163969E1,-9.337990284E-1,-9.799804688E0,-3.475574851E-1
3.607190808E1,-9.601200819E-1,-9.833304405E0,-3.427718580E-1
3.609217641E1,-9.553344250E-1,-9.833304405E0,-4.025924206E-1
3.611244479E1,-9.505487680E-1,-9.797411919E0,-4.169493318E-1
3.613271313E1,-9.098708034E-1,-9.718449593E0,-4.169493318E-1
3.615298146E1,-8.883354068E-1,-9.704092026E0,-3.930211067E-1
3.617324974E1,-8.524430394E-1,-9.708877563E0,-3.858426511E-1
3.619351808E1,-7.878368497E-1,-9.759127617E0,-3.834498227E-1
3.621378641E1,-7.704889178E-1,-9.744770050E0,-4.241278172E-1
3.623405469E1,-8.021938205E-1,-9.728020668E0,-4.695914388E-1
3.625432292E1,-8.452646136E-1,-9.783055305E0,-4.959124923E-1
3.627459130E1,-8.596215248E-1,-9.840482712E0,-4.791627228E-1
3.629485964E1,-8.117650747E-1,-9.854840279E0,-4.600201547E-1
3.631512797E1,-7.585247755E-1,-9.828518867E0,-4.145565331E-1
3.633539625E1,-7.274180651E-1,-9.799804688E0,-3.858426511E-1
3.635579630E1,-7.345965505E-1,-9.797411919E0,-3.427718580E-1
3.637593292E1,-7.561319470E-1,-9.792626381E0,-2.805584669E-1
3.639620125E1,-8.117650747E-1,-9.785448074E0,-2.542374134E-1
3.641646953E1,-8.141579032E-1,-9.818947792E0,-2.446661144E-1
3.643673787E1,-8.309076428E-1,-9.826126099E0,-2.494517565E-1
3.645700615E1,-8.476574421E-1,-9.811769485E0,-2.949153781E-1
3.647727448E1,-8.524430394E-1,-9.790233612E0,-3.116651475E-1
3.649754276E1,-7.878368497E-1,-9.778269768E0,-3.643072546E-1
3.651781110E1,-7.609176040E-1,-9.799804688E0,-4.097708762E-1
3.653807938E1,-7.489534616E-1,-9.787840843E0,-4.265206456E-1
3.655847438E1,-7.585247755E-1,-9.804591179E0,-4.456632137E-1
3.657876453E1,-7.902296782E-1,-9.878767967E0,-4.241278172E-1
3.659887740E1,-8.548358679E-1,-9.900303841E0,-3.714857101E-1
3.661914703E1,-8.739784956E-1,-9.862018585E0,-3.260220885E-1
3.663941531E1,-9.002995491E-1,-9.759127617E0,-2.781656384E-1
3.665981651E1,-8.811569214E-1,-9.699306488E0,-2.470589429E-1
3.667995396E1,-8.979067206E-1,-9.694520950E0,-2.374876440E-1
3.670022297E1,-9.625129104E-1,-9.723235130E0,-2.374876440E-1
3.672049182E1,-1.070189953E0,-9.756733894E0,-2.231307179E-1
3.674076011E1,-1.182652593E0,-9.809376717E0,-1.633101404E-1
3.676116058E1,-1.371685624E0,-9.792626381E0,-1.202393398E-1
3.678129750E1,-1.498505235E0,-9.744770050E0,-1.082752272E-1
3.680156610E1,-1.615753531E0,-9.670592308E0,-1.178465188E-1
3.682183459E1,-1.654038668E0,-9.594022751E0,-8.673982322E-2
3.684210287E1,-1.656431437E0,-9.498309135E0,-9.152546525E-2
3.686250308E1,-1.630110383E0,-9.517452240E0,-1.010967568E-1
3.688263984E1,-1.663609982E0,-9.582057953E0,-1.250249892E-1
3.690290828E1,-1.709073544E0,-9.661021233E0,-2.111666054E-1
3.692317667E1,-1.675574064E0,-9.701699257E0,-2.135594189E-1
3.694344500E1,-1.596610904E0,-9.728020668E0,-1.992024779E-1
3.696371344E1,-1.512862086E0,-9.835697174E0,-2.662015259E-1
3.698398177E1,-1.424327731E0,-9.945767403E0,-2.877369225E-1
3.700425005E1,-1.302293777E0,-9.967302322E0,-3.427718580E-1
3.702451844E1,-1.201795220E0,-9.845269203E0,-3.116651475E-1
3.704478677E1,-1.058225870E0,-9.713663101E0,-3.020938635E-1
3.706505500E1,-9.385846853E-1,-9.560523033E0,-3.212364316E-1
3.708532328E1,-8.021938205E-1,-9.510273933E0,-3.427718580E-1
3.710559167E1,-7.250252366E-1,-9.565308571E0,-3.978067636E-1
3.712585995E1,-7.010970116E-1,-9.637093544E0,-5.318048596E-1
3.714612823E1,-6.915257573E-1,-9.785448074E0,-6.035895348E-1
3.716639651E1,-6.891329288E-1,-9.850054741E0,-6.227321029E-1
3.718679651E1,-6.269195080E-1,-9.823733330E0,-5.653043389E-1
3.720693308E1,-5.527420044E-1,-9.821340561E0,-4.456632137E-1
3.722720141E1,-6.221339107E-1,-9.926624298E0,-2.901297510E-1
3.724746969E1,-7.513462901E-1,-1.002233791E1,-2.279163599E-1
3.726773797E1,-8.548358679E-1,-1.000558758E1,-2.039881349E-1
3.728800630E1,-8.285148144E-1,-9.873982430E0,-2.039881349E-1
3.730827458E1,-7.633104324E-1,-9.766305923E0,-2.398804724E-1
3.732854287E1,-7.657032609E-1,-9.718449593E0,-2.662015259E-1
3.734881115E1,-8.907282352E-1,-9.706484795E0,-2.973082066E-1
3.736907943E1,-1.072582722E0,-9.696913719E0,-3.619144261E-1
3.738934771E1,-1.261615753E0,-9.658628464E0,-4.001995921E-1
3.740961599E1,-1.417149186E0,-9.649057388E0,-4.576273263E-1
3.742988427E1,-1.465005636E0,-9.668199539E0,-4.839483798E-1
3.745015261E1,-1.448255897E0,-9.687342644E0,-4.983053207E-1
3.747042094E1,-1.338186026E0,-9.684949875E0,-4.815555513E-1
3.749068922E1,-1.216152072E0,-9.713663101E0,-4.073780477E-1
3.751095750E1,-1.122832060E0,-9.802198410E0,-3.236292601E-1
3.753122578E1,-1.067797065E0,-9.835697174E0,-2.207378894E-1
3.755149406E1,-1.091725349E0,-9.850054741E0,-1.034895778E-1
3.757176234E1,-1.134796143E0,-9.809376717E0,-6.281159073E-2
3.759203058E1,-1.139581800E0,-9.763913155E0,-1.106680483E-1
3.761229886E1,-1.125224829E0,-9.749555588E0,-2.063809484E-1
3.763256724E1,-1.106082320E0,-9.771091461E0,-3.092723191E-1
3.765283552E1,-1.122832060E0,-9.787840843E0,-3.714857101E-1
3.767310380E1,-1.185045362E0,-9.751948357E0,-4.241278172E-1
3.769337208E1,-1.266401410E0,-9.716055870E0,-4.480560422E-1
3.771364037E1,-1.321436286E0,-9.704092026E0,-4.528416991E-1
3.773390865E1,-1.304686546E0,-9.706484795E0,-4.121637046E-1
3.775417693E1,-1.264008522E0,-9.704092026E0,-3.260220885E-1
3.777444526E1,-1.189831018E0,-9.704092026E0,-3.164508045E-1
3.779471354E1,-1.127617717E0,-9.684949875E0,-3.332005441E-1
3.781498183E1,-1.046261668E0,-9.713663101E0,-2.973082066E-1
3.783525011E1,-9.218349457E-1,-9.766305923E0,-2.877369225E-1
3.785551839E1,-8.763712645E-1,-9.838089943E0,-3.164508045E-1
3.787578667E1,-8.668000102E-1,-9.864411354E0,-3.355933726E-1
3.789605495E1,-8.380861282E-1,-9.826126099E0,-3.547359705E-1
3.791632323E1,-7.926225066E-1,-9.783055305E0,-3.571287692E-1
3.793659151E1,-7.854440212E-1,-9.787840843E0,-3.667000830E-1
3.795685985E1,-7.465606928E-1,-9.809376717E0,-3.714857101E-1
3.797712813E1,-8.500502706E-1,-9.809376717E0,-3.595215976E-1
3.799739641E1,-9.672985673E-1,-9.754341125E0,-3.954139352E-1
3.801766469E1,-9.960124493E-1,-9.732806206E0,-4.241278172E-1
3.803793297E1,-8.811569214E-1,-9.732806206E0,-4.671986103E-1
3.805820130E1,-8.045865893E-1,-9.747162819E0,-4.576273263E-1
3.807846958E1,-8.189435601E-1,-9.761520386E0,-4.456632137E-1
3.809873787E1,-9.457631707E-1,-9.716055870E0,-4.169493318E-1
3.811900615E1,-1.077368379E0,-9.725627899E0,-3.571287692E-1
3.813927443E1,-1.168295622E0,-9.723235130E0,-2.973082066E-1
3.815967443E1,-1.197009563E0,-9.718449593E0,-2.805584669E-1
3.817981104E1,-1.156331539E0,-9.797411919E0,-2.925225794E-1
3.820007933E1,-1.132403374E0,-9.852447510E0,-3.308077157E-1
3.822034761E1,-1.134796143E0,-9.783055305E0,-3.403790295E-1
3.824061589E1,-1.192223907E0,-9.692128181E0,-2.997010350E-1
3.826101589E1,-1.182652593E0,-9.692128181E0,-2.662015259E-1
3.828115250E1,-1.144367456E0,-9.759127617E0,-2.877369225E-1
3.830142078E1,-1.074975610E0,-9.828518867E0,-3.164508045E-1
3.832168906E1,-1.029511929E0,-9.878767967E0,-3.332005441E-1
3.834195740E1,-9.840483069E-1,-9.862018585E0,-2.949153781E-1
3.836235740E1,-9.361918569E-1,-9.795019150E0,-1.920240223E-1
3.838249396E1,-8.979067206E-1,-9.751948357E0,-1.657029688E-1
3.840276224E1,-8.787640929E-1,-9.806983948E0,-2.207378894E-1
3.842303052E1,-9.122636318E-1,-9.864411354E0,-2.853440940E-1
3.844329886E1,-1.005583763E0,-9.816555023E0,-3.068794906E-1
3.846369886E1,-1.146760225E0,-9.708877563E0,-3.379862010E-1
3.848383542E1,-1.220937729E0,-9.617950439E0,-3.643072546E-1
3.850410365E1,-1.273579836E0,-9.572486877E0,-3.930211067E-1
3.852437198E1,-1.261615753E0,-9.627521515E0,-4.217349887E-1
3.854464031E1,-1.177866936E0,-9.718449593E0,-4.360919297E-1
3.856490860E1,-1.058225870E0,-9.838089943E0,-4.408775866E-1
3.858517688E1,-9.505487680E-1,-9.878767967E0,-4.504488707E-1
3.860544516E1,-8.500502706E-1,-9.852447510E0,-3.978067636E-1
3.862571349E1,-7.830511928E-1,-9.795019150E0,-3.044866920E-1
3.864598177E1,-7.657032609E-1,-9.725627899E0,-2.231307179E-1
3.866625005E1,-7.830511928E-1,-9.718449593E0,-1.704886109E-1
3.868651834E1,-8.045865893E-1,-9.754341125E0,-1.680957973E-1
3.870678662E1,-8.572286963E-1,-9.759127617E0,-1.800599098E-1
3.872705495E1,-9.744769931E-1,-9.742377281E0,-2.159522474E-1
3.874732323E1,-1.063011408E0,-9.771091461E0,-2.925225794E-1
3.876759151E1,-1.103689432E0,-9.852447510E0,-3.499503136E-1
3.878785979E1,-1.065404296E0,-9.883553505E0,-4.432703853E-1
3.880812808E1,-1.022333503E0,-9.835697174E0,-4.983053207E-1
3.882839641E1,-9.768698215E-1,-9.775876999E0,-4.959124923E-1
3.884866464E1,-1.043868899E0,-9.766305923E0,-4.073780477E-1
3.886893297E1,-1.122832060E0,-9.704092026E0,-3.092723191E-1
3.888920130E1,-1.228116274E0,-9.617950439E0,-2.207378894E-1
3.890946959E1,-1.249651670E0,-9.579665184E0,-1.920240223E-1
3.892973787E1,-1.137188911E0,-9.732806206E0,-2.183450609E-1
3.895000615E1,-1.072582722E0,-9.909874916E0,-2.590230405E-1
3.897027448E1,-1.060618639E0,-9.943374634E0,-2.805584669E-1
3.899054276E1,-1.070189953E0,-9.842875481E0,-2.422732860E-1
3.901081104E1,-1.012762189E0,-9.641879082E0,-1.728814393E-1
3.903107932E1,-9.385846853E-1,-9.622735977E0,-1.824527234E-1
3.905134761E1,-8.596215248E-1,-9.716055870E0,-2.422732860E-1
3.907161594E1,-8.596215248E-1,-9.795019150E0,-3.188436031E-1
3.909188422E1,-8.787640929E-1,-9.802198410E0,-3.571287692E-1
3.911215250E1,-9.625129104E-1,-9.737591743E0,-3.499503136E-1
3.913242078E1,-1.007976532E0,-9.689735413E0,-3.308077157E-1
3.915268906E1,-1.089332461E0,-9.672985077E0,-2.949153781E-1
3.917295740E1,-1.120439172E0,-9.756733894E0,-2.973082066E-1
3.919322568E1,-1.137188911E0,-9.833304405E0,-3.212364316E-1
3.921349396E1,-1.082154036E0,-9.885947227E0,-3.236292601E-1
3.923376224E1,-9.744769931E-1,-9.833304405E0,-2.949153781E-1
3.925403052E1,-8.835497499E-1,-9.744770050E0,-2.853440940E-1
3.927429886E1,-8.117650747E-1,-9.728020668E0,-2.877369225E-1
3.929456714E1,-7.926225066E-1,-9.761520386E0,-3.690928817E-1
3.931483542E1,-8.069794178E-1,-9.797411919E0,-4.384847581E-1
3.933510370E1,-8.189435601E-1,-9.830911636E0,-5.030909777E-1
3.935537198E1,-7.878368497E-1,-9.787840843E0,-4.983053207E-1
3.937564031E1,-7.034898400E-1,-9.739984512E0,-4.408775866E-1
3.939590860E1,-6.556333899E-1,-9.725627899E0,-4.025924206E-1
3.941617688E1,-6.699903607E-1,-9.759127617E0,-3.810569942E-1
3.943644516E1,-8.404789567E-1,-9.780662537E0,-3.212364316E-1
3.945671344E1,-1.003190875E0,-9.809376717E0,-2.853440940E-1
3.947698177E1,-1.108475089E0,-9.787840843E0,-2.757728100E-1
3.949725005E1,-1.208973646E0,-9.780662537E0,-2.757728100E-1
3.951751834E1,-1.237687469E0,-9.768698692E0,-2.709871531E-1
3.953778266E1,-1.211366415E0,-9.716055870E0,-2.733799815E-1
3.955801636E1,-1.182652593E0,-9.751948357E0,-2.662015259E-1
3.957832380E1,-1.175474167E0,-9.744770050E0,-2.590230405E-1
3.959859198E1,-1.180259824E0,-9.744770050E0,-2.518445849E-1
3.961886021E1,-1.244866014E0,-9.751948357E0,-2.733799815E-1
3.963912849E1,-1.235294700E0,-9.730413437E0,-3.092723191E-1
3.965952839E1,-1.149153113E0,-9.711270332E0,-3.260220885E-1
3.967966490E1,-1.051047325E0,-9.723235130E0,-3.164508045E-1
3.969993313E1,-9.816554785E-1,-9.723235130E0,-3.355933726E-1
3.972020136E1,-9.672985673E-1,-9.763913155E0,-3.260220885E-1
3.974046969E1,-9.409775138E-1,-9.756733894E0,-3.164508045E-1
3.976086964E1,-9.577272534E-1,-9.730413437E0,-2.925225794E-1
3.978100620E1,-9.266205430E-1,-9.728020668E0,-2.829512656E-1
3.980127443E1,-8.883354068E-1,-9.699306488E0,-3.068794906E-1
3.982154271E1,-8.380861282E-1,-9.696913719E0,-3.212364316E-1
3.984181099E1,-7.830511928E-1,-9.716055870E0,-3.547359705E-1
3.986221099E1,-7.830511928E-1,-9.797411919E0,-3.332005441E-1
3.988234750E1,-8.524430394E-1,-9.873982430E0,-3.116651475E-1
3.990261584E1,-9.529415965E-1,-9.924231529E0,-3.068794906E-1
3.992288406E1,-1.063011408E0,-9.909874916E0,-3.188436031E-1
3.994315240E1,-1.101296663E0,-9.871589661E0,-3.571287692E-1
3.996342068E1,-1.063011408E0,-9.761520386E0,-4.049852192E-1
3.998368896E1,-1.031904817E0,-9.699306488E0,-3.954139352E-1
4.000395724E1,-9.816554785E-1,-9.668199539E0,-4.169493318E-1
4.002422552E1,-9.792626500E-1,-9.680164337E0,-4.073780477E-1
4.004449380E1,-9.385846853E-1,-9.754341125E0,-3.714857101E-1
4.006489380E1,-9.553344250E-1,-9.835697174E0,-3.451646566E-1
4.008503037E1,-9.960124493E-1,-9.876375198E0,-3.116651475E-1
4.010529865E1,-9.936196208E-1,-9.864411354E0,-2.303091735E-1
4.012556693E1,-9.960124493E-1,-9.790233612E0,-2.015953064E-1
4.014583526E1,-1.010369420E0,-9.759127617E0,-2.039881349E-1
4.016610354E1,-9.649057388E-1,-9.742377281E0,-2.781656384E-1
4.018637182E1,-9.625129104E-1,-9.766305923E0,-3.355933726E-1
4.020664011E1,-9.672985673E-1,-9.840482712E0,-3.786641955E-1
4.022690839E1,-9.481559992E-1,-9.873982430E0,-4.384847581E-1
4.024717667E1,-8.835497499E-1,-9.833304405E0,-4.289134443E-1
4.026744495E1,-8.309076428E-1,-9.744770050E0,-3.810569942E-1
4.028771323E1,-8.165507317E-1,-9.632308006E0,-3.188436031E-1
4.030798151E1,-8.715856671E-1,-9.562915802E0,-2.542374134E-1
4.032824979E1,-9.553344250E-1,-9.596415520E0,-2.327020019E-1
4.034851808E1,-1.041476011E0,-9.761520386E0,-2.422732860E-1
