"Time (s)","Gyroscope x (rad/s)","Gyroscope y (rad/s)","Gyroscope z (rad/s)"
4.469745000E-2,-7.733814120E-1,-6.874945164E-1,2.073269337E-1
6.483567900E-2,-7.329013944E-1,-3.664506972E-1,3.328948980E-3
8.510411600E-2,-8.900277615E-1,-1.629853398E-1,-8.881635964E-2
1.053725540E-1,-8.900277615E-1,1.331579592E-2,-2.436790615E-2
1.256410430E-1,-7.978824377E-1,-1.059937328E-1,3.049317189E-2
1.459095330E-1,-8.974846005E-1,-4.330296814E-1,7.044056058E-2
1.661780220E-1,-1.375122190E0,-9.831051826E-1,8.855003864E-2
1.864466160E-1,-1.898033500E0,-1.219460607E0,-2.170474641E-2
2.067151580E-1,-2.135054588E0,-1.110270977E0,-2.074600905E-1
2.269837000E-1,-2.294711113E0,-1.223721623E0,-4.737760127E-1
2.472522410E-1,-2.602572203E0,-1.571530223E0,-6.804371476E-1
2.675208350E-1,-2.745850086E0,-1.147022605E0,-7.580682635E-1
2.877893770E-1,-2.456631184E0,-4.900212884E-1,-6.623276472E-1
3.080580220E-1,-1.833052397E0,2.395511568E-1,-2.154495716E-1
3.283266160E-1,-1.377252698E0,5.117260218E-1,6.008086801E-1
3.487266160E-1,-1.368198037E0,5.303681493E-1,1.532648087E0
3.688638040E-1,-1.398025393E0,1.371660113E0,2.467816353E0
3.891323970E-1,-1.065263629E0,1.028778315E0,2.855439186E0
4.094009910E-1,-6.201165915E-1,-3.318296373E-1,2.579535961E0
4.296695850E-1,-5.700492263E-1,-1.226917386E0,2.465685844E0
4.500695850E-1,-3.532680571E-1,-2.516152620E0,2.269677401E0
4.702067720E-1,2.303632647E-1,-3.837745428E0,2.070472956E0
4.904753140E-1,6.020070910E-1,-3.356912136E0,1.760081887E0
5.107439080E-1,3.299654126E-1,-2.025199413E0,-3.944138587E-1
5.310124500E-1,7.846998572E-1,-1.213601589E0,-8.779103756E-1
5.514124500E-1,1.297491074E0,-2.348373652E0,-2.852243483E-1
5.715496370E-1,1.581250668E0,-3.052379847E0,-2.857569754E-1
5.918182310E-1,1.341699600E0,-2.880339622E0,-6.793718934E-1
6.120868250E-1,1.094025731E0,-2.071005583E0,-5.723128915E-1
6.323553660E-1,8.928241134E-1,-1.576856494E0,-4.535360038E-1
6.527553660E-1,9.695230722E-1,-1.702957034E0,-5.499423742E-1
6.728925540E-1,7.793735266E-1,-9.165261984E-1,-6.117276549E-1
6.931611470E-1,4.619249403E-1,-1.251684725E-1,-2.846917212E-1
7.134296890E-1,2.585927546E-1,1.106542572E-1,-4.940159991E-2
7.336982830E-1,2.884201407E-1,1.521995366E-1,5.339634046E-2
7.536141160E-1,4.338286221E-1,-1.635179669E-1,3.315633163E-2
7.740141160E-1,4.571312666E-1,-4.042675495E-1,-6.484792382E-2
7.944141160E-1,3.826959729E-1,-1.036368370E0,-1.521995366E-1
8.147748970E-1,3.613906801E-1,-1.525191188E0,-6.791055668E-3
8.350424500E-1,1.153147891E-1,-9.559409618E-1,1.748363972E-1
8.553107310E-1,-3.463438451E-1,-2.380864173E-1,5.992108025E-3
8.755791680E-1,-5.018723607E-1,-4.474107176E-2,-1.637842879E-2
8.958475020E-1,-3.735080659E-1,1.970737800E-2,-1.154479459E-1
9.161159390E-1,-1.460742801E-1,-1.358211190E-1,-1.978727281E-1
9.363844810E-1,9.853689000E-3,-4.894886315E-1,-3.534012139E-1
9.566529180E-1,2.580601275E-1,-3.824296594E-1,-5.845634341E-1
9.769214600E-1,3.869570196E-1,-5.170523524E-1,-4.711128473E-1
9.971899500E-1,3.347590864E-1,-1.218395233E0,-3.994738800E-4
1.017458491E0,4.970786572E-1,-1.753557086E0,3.282343447E-1
1.037726981E0,7.218492627E-1,-1.967675090E0,5.912213326E-1
1.058126981E0,8.337019682E-1,-2.301501989E0,1.167395830E0
1.078264064E0,8.986830115E-1,-2.879274368E0,1.465003848E0
1.098532658E0,1.010935187E0,-3.067293406E0,1.417200089E0
1.118801252E0,1.054610968E0,-2.829739809E0,1.421860695E0
1.139069793E0,1.163267851E0,-2.930939674E0,1.383111715E0
1.159338387E0,1.457280636E0,-3.009236574E0,1.275520086E0
1.179606929E0,1.483912230E0,-2.504434824E0,1.115730524E0
1.199875522E0,1.265533209E0,-1.745567679E0,1.065663099E0
1.220144064E0,1.034903646E0,-1.795634985E0,1.286705375E0
1.240412658E0,1.038099408E0,-2.392049551E0,1.482580662E0
1.260681147E0,1.192030072E0,-2.660895348E0,1.391101122E0
1.280949741E0,1.404017448E0,-2.193377733E0,8.920251131E-1
1.301218283E0,1.475390196E0,-1.819603443E0,5.049349666E-1
1.321486877E0,1.410941720E0,-1.224254251E0,5.667202473E-1
1.341755418E0,1.333177447E0,-6.107955575E-1,-1.797632314E-2
1.362024012E0,1.008272052E0,-1.272990108E-1,-6.713824272E-1
1.382292554E0,5.711144805E-1,7.171887755E-1,-7.825692892E-1
1.402561147E0,3.933486044E-1,1.965411425E0,-1.688975453E0
1.422829741E0,3.299654126E-1,2.727873802E0,-2.492450714E0
1.443101564E0,1.925463974E-1,3.093791962E0,-2.833334923E0
1.463366877E0,1.749695539E-1,2.646514416E0,-3.200717688E0
1.483635470E0,2.026664019E-1,2.028794527E0,-3.154911518E0
1.503904012E0,-1.311605871E-1,1.554352760E0,-3.085136652E0
1.524172606E0,-1.940111369E-1,1.119725227E0,-3.212435722E0
1.544441200E0,-2.583264373E-2,9.584709406E-1,-3.266764164E0
1.564709793E0,-4.262386262E-1,1.588441253E0,-3.005241871E0
1.584978335E0,-1.241964221E0,1.821068168E0,-2.266215324E0
1.605246929E0,-1.393231630E0,1.628921270E0,-2.120274067E0
1.625515522E0,-1.048219442E0,1.396161199E0,-2.524941206E0
1.645784116E0,-3.852259517E-1,9.147951603E-1,-2.542517900E0
1.666052710E0,1.233042628E-1,1.106542572E-1,-1.927461386E0
1.686321304E0,5.299686641E-2,-1.054610983E-1,-1.235306382E0
1.706589897E0,-2.440785319E-1,2.805638015E-1,-9.514135718E-1
1.726858491E0,-5.593965650E-1,6.862961054E-1,-1.170857906E0
1.747127085E0,-7.126613855E-1,7.326350808E-1,-1.518533349E0
1.767395627E0,-5.817670822E-1,6.687192321E-1,-1.997768760E0
1.787664272E0,-2.206427306E-1,8.945551515E-1,-2.556899071E0
1.807932918E0,3.422159553E-1,7.310371995E-1,-3.043058634E0
1.828201512E0,8.933567405E-1,-1.336905807E-1,-3.069157600E0
1.848601512E0,1.431181669E0,-1.322791100E0,-2.933869123E0
1.868738752E0,1.921602488E0,-1.462873340E0,-2.584595919E0
1.889007345E0,2.085519791E0,-3.877559602E-1,-1.491901755E0
1.909275991E0,1.225053191E0,-4.420844093E-2,-1.069258377E-1
1.929544637E0,2.665822208E-1,7.283740491E-2,7.576687634E-2
1.949944637E0,-6.908234954E-1,-3.733749092E-1,-1.101216301E-1
1.970081877E0,-1.252084255E0,-9.687241316E-1,-2.559295893E-1
1.990350522E0,-1.612676024E0,-1.133706808E0,3.223754168E-1
2.010619116E0,-1.569532871E0,-1.409610152E0,1.109871507E0
2.031006512E0,-9.326383471E-1,-1.966077209E0,1.707351327E0
2.051314325E0,1.265000552E-1,-1.641704440E0,1.716938615E0
2.071425627E0,1.051415205E0,-7.263766527E-1,1.771267176E0
2.091694220E0,1.161137342E0,-6.597976685E-1,1.740374446E0
2.111962762E0,7.617966533E-1,-9.554083347E-1,2.197772026E0
2.132231304E0,4.960133731E-1,-1.515603900E0,3.200984001E0
2.152499950E0,7.852324843E-1,-1.879790902E0,3.510975838E0
2.172768491E0,1.370994329E0,-9.372988343E-1,2.945986509E0
2.193037137E0,1.796966553E0,3.817638457E-1,2.171673059E0
2.213305731E0,1.899231911E0,8.274435401E-1,1.994839311E0
2.233574377E0,1.780454993E0,3.551322520E-1,2.435858488E0
2.253974377E0,1.619067550E0,-4.000065029E-1,3.304314613E0
2.274111720E0,1.471129060E0,-1.244494200E0,3.826693296E0
2.294380418E0,1.356613278E0,-1.254614234E0,3.383676767E0
2.314649064E0,1.531183362E0,-6.422207952E-1,2.920952797E0
2.334917762E0,2.180328369E0,-9.617999196E-1,2.705769539E0
2.355186408E0,2.922683954E0,-1.623594999E0,2.503369570E0
2.375455106E0,3.276751041E0,-2.324405193E0,2.592319012E0
2.395723804E0,2.332661152E0,-3.347857237E0,2.645049572E0
2.415992450E0,1.175518394E0,-2.431464195E0,2.637060165E0
2.436261147E0,3.289001584E-1,3.599259555E-1,2.767022371E0
2.456529845E0,-4.560659826E-1,1.873798728E0,3.608314276E0
2.476798543E0,-7.707182169E-1,1.026115179E0,3.635478497E0
2.497067241E0,-1.205079481E-1,-7.109303474E-1,3.084337711E0
2.517335939E0,3.102580309E-1,-2.220009327E0,3.178080797E0
2.537604637E0,4.917523265E-1,-3.242396116E0,3.440135717E0
2.557873335E0,9.061399102E-1,-3.713242769E0,3.663707972E0
2.578142085E0,1.331046939E0,-3.688741684E0,3.919903994E0
2.598410783E0,1.451421738E0,-3.763176918E0,3.742004871E0
2.618679481E0,1.493499637E0,-4.008720398E0,3.322956800E0
2.638948231E0,1.466335416E0,-4.149867535E0,2.953443527E0
2.659216929E0,1.315068007E0,-3.839343309E0,2.819220304E0
2.679485679E0,1.306013227E0,-3.491667986E0,2.574742317E0
2.699754377E0,1.207476377E0,-3.198720455E0,2.109887838E0
2.720023127E0,9.860346317E-1,-2.661427975E0,1.759016633E0
2.740291877E0,6.994787455E-1,-1.898432970E0,1.595498562E0
2.760560575E0,3.214432895E-1,-1.328650117E0,1.633315444E0
2.780829325E0,3.826959729E-1,-1.138500571E0,1.801627159E0
2.801229325E0,6.834998131E-1,-1.124119401E0,2.041710854E0
2.821366825E0,7.836345434E-1,-1.363803744E0,2.018807650E0
2.841635522E0,5.897566080E-1,-1.423458576E0,1.953427196E0
2.861904272E0,5.886912942E-1,-1.100683689E0,1.954492450E0
2.882173022E0,1.130777359E0,-5.878923535E-1,1.928926110E0
2.902441772E0,1.335307956E0,5.472791940E-2,1.703622937E0
2.922710575E0,1.164865732E0,4.850944281E-1,1.655686021E0
2.942979325E0,1.316133261E0,5.048018098E-1,1.752624989E0
2.963248075E0,1.432246923E0,3.162501454E-1,1.914545059E0
2.983516825E0,1.333177447E0,1.468732208E-1,1.910284042E0
3.003785627E0,1.279381633E0,-2.625874877E-1,1.777126074E0
3.024054325E0,1.397093296E0,-6.384924054E-1,1.798431396E0
3.044454325E0,1.447160602E0,-7.865640521E-1,1.583248138E0
3.064591929E0,1.158474207E0,-8.036082387E-1,1.302684307E0
3.084860679E0,9.258472323E-1,-6.853640079E-1,1.156210542E0
3.105129481E0,8.102661371E-1,-6.635261178E-1,9.905620217E-1
3.125398231E0,6.371608377E-1,-6.294376254E-1,8.909598589E-1
3.145667033E0,4.725775719E-1,-4.681833684E-1,8.835030198E-1
3.165935783E0,4.471444190E-1,-3.909517527E-1,9.090693593E-1
3.186204585E0,4.906870723E-1,-5.458144546E-1,8.893619776E-1
3.206473335E0,4.677838981E-1,-6.858966351E-1,8.591351509E-1
3.226742137E0,4.949481189E-1,-5.719134212E-1,9.202546477E-1
3.247010939E0,4.311654568E-1,-5.197154880E-1,7.989477515E-1
3.267279689E0,3.427485824E-1,-3.201117218E-1,6.583329439E-1
3.287548491E0,2.607232630E-1,-1.491369158E-1,5.512739420E-1
3.307817293E0,3.139864504E-1,4.141212255E-2,6.056023836E-1
3.328086095E0,5.040028691E-1,-2.253032625E-1,6.242445111E-1
3.348486095E0,7.538071871E-1,-8.685893416E-1,6.072002649E-1
3.368623700E0,7.916240692E-1,-9.447556734E-1,6.167876720E-1
3.388892502E0,5.279712677E-1,-4.761728346E-1,4.713791609E-1
3.409161252E0,2.415485233E-1,-3.696464896E-1,2.930806577E-1
3.429430054E0,1.169126853E-1,-5.527386665E-1,2.962764502E-1
3.449830054E0,-1.189100519E-1,-8.424903750E-1,1.008005738E-1
3.469967658E0,-5.567334294E-1,-8.968188167E-1,-3.507380486E-1
3.490236512E0,-1.076981544E0,-9.804420471E-1,-5.163865685E-1
3.510505262E0,-1.764342904E0,-5.399554968E-1,-4.540686309E-1
3.530774116E0,-2.181393623E0,4.616586268E-1,-6.825676560E-1
3.551174116E0,-2.164881945E0,9.499488473E-1,-9.902957082E-1
3.571311720E0,-1.900164008E0,1.026647806E0,-1.126649499E0
3.591580522E0,-1.391633749E0,3.503385782E-1,-1.554752231E0
3.611849325E0,-7.057371736E-1,-1.330247998E0,-1.981257200E0
3.632118127E0,-1.982721984E-1,-3.395261526E0,-1.090963125E0
3.652518127E0,-2.169143111E-1,-4.056657314E0,3.372890949E-1
3.672655783E0,-2.648511827E-1,-2.918689251E0,1.543300748E0
3.692924585E0,6.424871087E-1,1.027713060E0,1.294162154E0
3.713193387E0,1.525457501E0,5.857485294E0,8.641951531E-2
3.733462241E0,1.288969040E0,8.515717506E0,-1.744369231E-2
3.753849793E0,1.075383663E0,9.328247070E0,1.328783274E0
3.773999897E0,4.359591305E-1,7.273886681E0,2.270742655E0
3.794268700E0,-3.639206886E-1,3.944671154E0,2.081658363E0
3.814537554E0,-1.470995903E0,1.208142161E0,1.909218788E0
3.834806356E0,-2.532264948E0,-1.017726302E0,1.685513377E0
3.855075158E0,-2.846384525E0,-3.281278372E0,9.921599030E-1
3.875344012E0,-1.937980890E0,-5.363868713E0,-6.239781976E-1
3.895612814E0,-1.212669492E0,-4.129627705E0,-1.685247064E0
3.915881668E0,-5.620597005E-1,-1.346759558E0,-1.691106081E0
3.936150470E0,3.209106624E-1,4.419512451E-1,-1.366200566E0
3.956419325E0,9.412935972E-1,8.029424548E-1,-1.070723176E0
3.976688127E0,1.054610968E0,4.366249442E-1,-9.988178015E-1
3.996956981E0,8.049398661E-1,-1.006674170E-1,-8.123967052E-1
4.017225783E0,5.668534040E-1,-4.660528302E-1,-5.020055175E-1
4.037494637E0,3.246390820E-1,-2.695116997E-1,-2.095906287E-1
4.057763491E0,2.303632647E-1,1.021321490E-1,1.636511236E-1
4.078032293E0,3.145190775E-1,1.292963773E-1,5.587307811E-1
4.098301147E0,1.760348231E-1,1.468732208E-1,5.800360441E-1
4.118569950E0,-1.801627129E-1,2.720417082E-1,6.817687154E-1
4.138838804E0,-3.612575233E-1,4.430165291E-1,5.986781716E-1
4.159107658E0,-4.507396817E-1,7.310371995E-1,3.324954212E-1
4.179376512E0,-4.773712754E-1,7.145255804E-1,4.114580899E-2
4.199645314E0,2.245043069E-1,-5.486107618E-2,1.215732098E-1
4.219914168E0,9.791104198E-1,-4.090612531E-1,2.946785688E-1
4.240183022E0,1.225585818E0,-1.438105945E-2,2.376869470E-1
4.260583022E0,9.167925119E-1,9.355677962E-1,6.351634115E-2
4.280720679E0,5.013396740E-1,1.645432830E0,-3.049317300E-1
4.300989533E0,3.283675313E-1,1.546363354E0,-2.564622164E-1
4.321258335E0,3.352917433E-1,9.547425508E-1,1.066595241E-1
4.341527189E0,5.013396740E-1,5.703155398E-1,1.540637612E-1
4.361796043E0,3.209106624E-1,7.629950643E-1,-2.016011477E-1
4.382064897E0,-1.583248079E-1,1.059138417E0,-7.070687413E-1
4.402333752E0,-5.476786494E-1,3.583280444E-1,-9.588704109E-1
4.422602554E0,-7.925561666E-1,-9.591367245E-1,-7.209171653E-1
4.442871408E0,-9.358341098E-1,-2.264217854E0,-3.193127811E-1
4.463271408E0,-9.614004493E-1,-3.116828203E0,-4.354264960E-2
4.483409116E0,-8.064045906E-1,-3.214699268E0,-5.526055023E-2
4.503677970E0,-5.146554708E-1,-2.536392689E0,-2.031990439E-1
4.523946772E0,-1.982721984E-1,-1.345161676E0,-5.829655528E-1
4.544215627E0,5.592633970E-3,-6.178529188E-2,-4.455465078E-1
4.564484481E0,-3.435475379E-2,1.704421826E-2,-3.374222517E-1
4.584753335E0,-7.483477145E-2,-3.616569936E-1,-2.165148407E-1
4.605022189E0,-1.077247858E-1,-3.877559602E-1,-1.814942956E-1
4.625422189E0,-3.266364634E-1,-7.759113908E-1,-5.994771123E-1
4.645717814E0,-4.310323000E-1,-1.149153113E0,-1.097887397E0
4.665986720E0,-3.553985953E-1,-1.299355268E0,-1.195891619E0
4.686098231E0,-1.849564016E-1,-1.292963743E0,-8.395609260E-1
4.706366929E0,1.589905918E-1,-6.603302956E-1,-4.604602158E-1
4.726635731E0,4.645881057E-1,5.628587008E-1,-1.937448233E-1
4.747035731E0,3.102580309E-1,1.285906315E0,1.877527125E-2
4.767173335E0,7.803056389E-2,1.471794844E0,1.476721764E-1
4.787442085E0,1.038632076E-2,1.541036963E0,3.262370080E-2
4.807710887E0,-3.462106921E-3,1.561277032E0,-2.266348451E-1
4.828110887E0,2.103895694E-2,1.606018066E0,-2.063948363E-1
4.848406356E0,1.605884880E-1,1.912680864E0,1.684448123E-1
4.868517918E0,3.416832983E-1,2.355697393E0,3.510043621E-1
4.888786616E0,4.848281145E-1,2.131592512E0,1.993374527E-1
4.909055418E0,6.153228879E-1,1.604952812E0,2.627206445E-1
4.929455418E0,7.122619152E-1,1.359942198E0,1.609879732E-1
4.949750835E0,7.649924755E-1,1.208674788E0,1.198421582E-3
4.969862397E0,8.012114167E-1,1.104412079E0,-2.926811874E-1
4.990131043E0,8.411588073E-1,7.661908865E-1,-3.352917433E-1
5.010399741E0,8.257125020E-1,1.356879622E-1,-4.993423447E-2
5.030668439E0,6.137250066E-1,-3.115896285E-1,1.865542978E-1
5.051068439E0,2.623211741E-1,-4.559328258E-1,2.765690684E-1
5.071206043E0,-1.061268896E-1,-4.048001766E-1,2.286322117E-1
5.091474845E0,-3.282343447E-1,-3.526022732E-1,1.114532053E-1
5.111743595E0,-3.719101548E-1,-3.424822688E-1,4.700475931E-2
5.132012397E0,-3.447459340E-1,-2.524674833E-1,1.567269117E-1
5.152412397E0,-3.846933246E-1,1.331579592E-2,2.504701018E-1
5.172550054E0,-4.693817794E-1,2.464753687E-1,2.051964104E-1
5.192818908E0,-5.306344628E-1,2.342248410E-1,1.210405827E-1
5.213087710E0,-5.444828868E-1,-1.038632020E-1,7.896266878E-2
5.233356512E0,-4.565986395E-1,-8.270440698E-1,2.516685426E-2
5.253756512E0,-3.846933246E-1,-1.186969995E0,-5.952160433E-2
5.273894220E0,-2.526006401E-1,-9.234504104E-1,-6.218476593E-2
5.294163075E0,-1.304947957E-2,-3.781685829E-1,-3.874896467E-2
5.314431929E0,2.458095849E-1,1.830921918E-1,-1.478053257E-2
5.334700783E0,3.949464858E-1,5.856286883E-1,1.731053460E-3
5.354969637E0,4.082622826E-1,7.352982163E-1,9.720530361E-3
5.375238439E0,3.368896246E-1,6.415550113E-1,1.504684892E-2
5.395507293E0,2.031990439E-1,4.089280665E-1,1.344895363E-2
5.415776095E0,4.713791609E-2,1.346226931E-1,1.611211337E-2
5.436044950E0,-9.334372729E-2,-1.027979404E-1,1.717737690E-2
5.456313804E0,-1.982721984E-1,-2.508696020E-1,5.992108025E-3
5.476582658E0,-2.605901062E-1,-2.705769539E-1,-1.997369342E-3
5.496851460E0,-2.797648609E-1,-2.263685167E-1,-6.258423906E-3
5.517120314E0,-2.302301079E-1,-2.093243003E-1,-5.725792143E-3
5.537389168E0,-1.412805915E-1,-1.715074480E-1,-3.062632866E-3
5.557658022E0,-4.394212365E-2,-5.432844535E-2,-3.062632866E-3
5.577926877E0,6.684529036E-2,1.218395308E-1,-4.127896391E-3
5.598195731E0,1.691105962E-1,3.061301410E-1,3.328948980E-3
5.618464585E0,2.186453640E-1,4.275701940E-1,1.185105834E-2
5.638733439E0,2.133190483E-1,4.387554526E-1,1.398158539E-2
5.659002241E0,1.755021811E-1,3.460775316E-1,1.078579482E-2
5.679271095E0,1.153147891E-1,2.038648278E-1,6.524739787E-3
5.699539950E0,4.181159660E-2,7.656582445E-2,4.926844500E-3
5.719808804E0,-2.210422046E-2,2.663159044E-3,2.796316985E-3
5.740077606E0,-6.418213248E-2,-9.054740891E-3,1.331579551E-4
5.760346460E0,-8.655267209E-2,1.171789970E-2,-1.464737463E-3
5.780615314E0,-9.547425061E-2,2.290316857E-2,-4.660528619E-3
5.800884168E0,-8.801741153E-2,2.663159044E-3,-9.454214945E-3
5.821153022E0,-6.471476704E-2,-2.556632832E-2,-1.211737376E-2
5.841421772E0,-2.796317078E-2,-1.171789970E-2,-1.158474199E-2
5.861690679E0,2.103895694E-2,4.673844203E-2,-8.388951421E-3
5.881959533E0,5.672528967E-2,1.186437383E-1,-8.921583183E-3
5.902228387E0,6.631266326E-2,1.633848101E-1,-1.637842879E-2
5.922497189E0,6.418213248E-2,1.527321786E-1,-1.744369231E-2
5.942766043E0,5.246423557E-2,9.147951752E-2,-1.051947847E-2
5.963034897E0,2.157158963E-2,7.989477366E-3,6.657897611E-4
5.983303752E0,-1.784316637E-2,-7.669898123E-2,4.394212738E-3
6.003572554E0,-4.873581231E-2,-1.358211190E-1,7.057371549E-3
6.023841408E0,-7.163897902E-2,-1.635179669E-1,5.992108025E-3
6.044110262E0,-8.495477587E-2,-1.826927215E-1,1.731053460E-3
6.064379064E0,-7.803056389E-2,-2.071937770E-1,-7.856319658E-3
6.084647918E0,-5.885581672E-2,-2.322274745E-1,-1.265000552E-2
6.104916720E0,-3.861580789E-2,-2.316948473E-1,-8.388951421E-3
6.125185575E0,-2.902843431E-2,-2.098569423E-1,7.057371549E-3
6.145454429E0,-2.423474751E-2,-1.810948253E-1,2.303632535E-2
6.165723231E0,-2.370211668E-2,-1.438105851E-1,3.209106624E-2
6.185992085E0,-2.476738021E-2,-1.086568907E-1,2.783001214E-2
6.206260939E0,-2.583264373E-2,-9.587372839E-2,1.717737690E-2
6.226529741E0,-2.636527456E-2,-1.161137372E-1,-1.997369342E-3
6.246798595E0,-2.849580161E-2,-1.549958587E-1,-1.691105962E-2
6.267067397E0,-3.115896136E-2,-1.890842915E-1,-1.797632314E-2
6.287336252E0,-3.169159219E-2,-1.885516644E-1,-9.454214945E-3
6.307605106E0,-3.222422674E-2,-1.560611278E-1,4.926844500E-3
6.327873908E0,-2.796317078E-2,-1.283642650E-1,1.078579482E-2
6.348182085E0,-2.583264373E-2,-1.219726875E-1,8.122635074E-3
6.368411616E0,-2.956106514E-2,-1.347558498E-1,5.459476262E-3
6.388680470E0,-3.755054250E-2,-1.374190152E-1,9.187898599E-3
6.408949272E0,-4.234423116E-2,-1.320926845E-1,5.459476262E-3
6.429218127E0,-3.914843872E-2,-1.363537461E-1,3.328948980E-3
6.449618127E0,-3.542001545E-2,-1.507348120E-1,5.459476262E-3
6.469755731E0,-4.181159660E-2,-1.645832360E-1,-9.321057005E-4
6.490024533E0,-5.459476262E-2,-1.629853398E-1,-7.323687430E-3
6.510293387E0,-6.151897460E-2,-1.379516423E-1,-8.921583183E-3
6.530562189E0,-6.524740160E-2,-9.853688627E-2,-1.105211023E-2
6.550962189E0,-5.619265884E-2,-8.522108942E-2,-1.637842879E-2
6.571099845E0,-4.607265070E-2,-1.012000442E-1,-2.596580051E-2
6.591368700E0,-4.447475821E-2,-1.150484756E-1,-2.969422378E-2
6.611637502E0,-4.287686199E-2,-1.113200486E-1,-2.436790615E-2
6.631906356E0,-4.074633494E-2,-1.054610983E-1,-1.691105962E-2
6.652306356E0,-3.861580789E-2,-1.129179448E-1,-7.323687430E-3
6.672444012E0,-3.488738462E-2,-1.187768951E-1,-4.660528619E-3
6.692712814E0,-2.583264373E-2,-1.219726875E-1,-1.464737463E-3
6.712981616E0,-1.464737486E-2,-9.427583218E-2,1.731053460E-3
6.733250470E0,2.663159103E-4,-5.060002208E-2,2.263685223E-3
6.753637970E0,1.464737486E-2,-1.704421826E-2,7.057371549E-3
6.773788127E0,1.677790284E-2,2.663159044E-3,9.720530361E-3
6.794056929E0,1.411474310E-2,1.331579592E-2,8.655266836E-3
6.814325783E0,1.145158429E-2,1.917474531E-2,5.459476262E-3
6.834594585E0,1.198421605E-2,1.917474531E-2,1.198421582E-3
6.854863387E0,1.091895252E-2,2.396843210E-2,1.198421582E-3
6.875132241E0,9.853689000E-3,2.982738242E-2,3.328948980E-3
6.895401043E0,7.989477599E-4,3.395527974E-2,6.524739787E-3
6.915669845E0,-5.592633970E-3,3.302317113E-2,4.394212738E-3
6.935938700E0,-6.125265732E-3,2.929474972E-2,2.796316985E-3
6.956207502E0,-2.396843163E-3,3.502054140E-2,4.394212738E-3
6.976476252E0,7.190529723E-3,5.526055023E-2,2.796316985E-3
6.996745158E0,1.518000662E-2,7.816372067E-2,1.731053460E-3
7.017013960E0,2.263685316E-2,8.881635964E-2,7.590003312E-3
7.037282814E0,2.902843431E-2,8.934898674E-2,1.238369010E-2
7.057551616E0,3.808317333E-2,9.574057162E-2,1.504684892E-2
7.077820418E0,5.086633936E-2,1.085237339E-1,2.250369452E-2
7.098089220E0,6.631266326E-2,1.330247968E-1,3.209106624E-2
7.118358075E0,8.122635633E-2,1.612542868E-1,3.581948951E-2
7.138626825E0,8.974846452E-2,1.814942956E-1,3.688475490E-2
7.158895679E0,8.868319541E-2,1.820269227E-1,3.315633163E-2
7.179164481E0,7.483477145E-2,1.649827063E-1,2.942790836E-2
7.199433283E0,5.512739345E-2,1.303616315E-1,2.623211779E-2
7.219702137E0,3.009369783E-2,8.295740932E-2,1.984053478E-2
7.239970939E0,4.527370445E-3,3.395527974E-2,1.611211337E-2
7.260239741E0,-1.464737486E-2,-1.118526794E-2,1.611211337E-2
7.280508543E0,-2.902843431E-2,-3.142527863E-2,1.611211337E-2
7.300777345E0,-3.595264629E-2,-1.864211448E-2,1.611211337E-2
7.321046147E0,-3.169159219E-2,1.225053146E-2,1.877527125E-2
7.341314950E0,-6.125265732E-3,3.928159550E-2,2.356895804E-2
7.361583752E0,2.796317078E-2,6.325002760E-2,2.942790836E-2
7.381852554E0,5.193160102E-2,8.615319431E-2,2.569948509E-2
7.402121356E0,6.205160543E-2,1.090563685E-1,2.356895804E-2
7.422390158E0,6.045371294E-2,1.239700541E-1,2.250369452E-2
7.442658960E0,4.873581231E-2,1.191763729E-1,2.090579830E-2
7.462927762E0,3.542001545E-2,9.414267540E-2,1.557948068E-2
7.483196512E0,1.677790284E-2,5.685844645E-2,7.590003312E-3
7.503465366E0,-5.592633970E-3,2.716422267E-2,-2.530001104E-3
7.523734168E0,-2.316948399E-2,1.331579592E-2,-6.258423906E-3
7.544134168E0,-2.636527456E-2,1.012000442E-2,-3.062632866E-3
7.564271772E0,-1.784316637E-2,1.864211448E-2,2.796316985E-3
7.584540522E0,-3.462106921E-3,2.929474972E-2,5.992108025E-3
7.604809377E0,1.091895252E-2,3.355580568E-2,7.057371549E-3
7.625078179E0,2.210422046E-2,3.874896467E-2,9.187898599E-3
7.645346981E0,2.902843431E-2,4.460791498E-2,9.187898599E-3
7.665615783E0,3.488738462E-2,4.407528415E-2,9.187898599E-3
7.685884533E0,3.648528084E-2,3.395527974E-2,1.344895363E-2
7.706153335E0,2.743053809E-2,2.343579940E-2,1.344895363E-2
7.726422137E0,2.050632425E-2,1.491369121E-2,1.398158539E-2
7.746690939E0,1.571263932E-2,1.491369121E-2,1.398158539E-2
7.766959741E0,1.251684781E-2,9.587372653E-3,1.238369010E-2
7.787228543E0,2.663159103E-4,-3.195791040E-3,1.078579482E-2
7.807497345E0,-1.944106072E-2,-2.822948620E-2,5.992108025E-3
7.827766043E0,-3.062633052E-2,-5.699160323E-2,-2.530001104E-3
7.848034897E0,-2.476738021E-2,-6.285055727E-2,-5.193160381E-3
7.868303700E0,-9.853689000E-3,-4.527370632E-2,-3.062632866E-3
7.888572502E0,1.331579522E-3,-3.675159439E-2,1.731053460E-3
7.908841304E0,1.331579522E-3,-3.888212144E-2,1.731053460E-3
7.929110106E0,-5.060002208E-3,-3.621896356E-2,3.861580743E-3
7.949510106E0,-8.788425475E-3,-2.663159184E-2,1.238369010E-2
7.969647658E0,-7.190529723E-3,-3.036001325E-2,1.771000773E-2
7.989916460E0,-5.060002208E-3,-4.633896798E-2,1.504684892E-2
8.010185262E0,2.929474926E-3,-5.539371073E-2,7.057371549E-3
8.030454012E0,1.571263932E-2,-4.580633715E-2,3.861580743E-3
8.050854012E0,2.210422046E-2,-1.012000442E-2,8.655266836E-3
8.070991616E0,1.837579720E-2,1.810948178E-2,1.664474420E-2
8.091260418E0,5.592633970E-3,5.858949851E-3,1.504684892E-2
8.111529168E0,-1.038632076E-2,-3.675159439E-2,2.796316985E-3
8.131797970E0,-1.464737486E-2,-6.977476925E-2,-9.454214945E-3
8.152197970E0,-7.190529723E-3,-6.018739566E-2,-9.986846708E-3
8.172335522E0,7.989477599E-4,-2.503369562E-2,1.331579551E-4
8.192604325E0,6.125265732E-3,-4.261054564E-3,1.185105834E-2
8.212873127E0,8.255792782E-3,-1.171789970E-2,1.504684892E-2
8.233141877E0,8.788425475E-3,-1.864211448E-2,1.238369010E-2
8.253541877E0,1.358211134E-2,-6.391582079E-3,1.291632187E-2
8.273679481E0,1.411474310E-2,9.054740891E-3,1.078579482E-2
8.293948231E0,7.190529723E-3,-0.000000000E0,8.122635074E-3
8.314217033E0,-2.929474926E-3,-3.355580568E-2,1.731053460E-3
8.334485835E0,-5.060002208E-3,-5.006739125E-2,-9.321057005E-4
8.354754585E0,-1.331579522E-3,-3.142527863E-2,6.657897611E-4
8.375023387E0,2.396843163E-3,3.195791040E-3,3.328948980E-3
8.395292137E0,4.527370445E-3,2.290316857E-2,3.861580743E-3
8.415560939E0,4.527370445E-3,1.278316416E-2,4.926844500E-3
8.435829689E0,3.462106921E-3,-4.261054564E-3,5.992108025E-3
8.456098491E0,2.396843163E-3,-1.597895520E-3,8.122635074E-3
8.476367241E0,8.255792782E-3,9.587372653E-3,1.238369010E-2
8.496636043E0,1.304947957E-2,1.544632297E-2,1.185105834E-2
8.516904793E0,7.190529723E-3,1.438105945E-2,6.524739787E-3
8.537173543E0,-5.592633970E-3,1.225053146E-2,5.459476262E-3
8.557442345E0,-1.145158429E-2,1.118526794E-2,5.459476262E-3
8.577711095E0,-8.788425475E-3,1.331579592E-2,5.992108025E-3
8.597979897E0,-6.657897960E-3,1.118526794E-2,3.861580743E-3
8.618248647E0,-5.060002208E-3,1.065263641E-3,-2.530001104E-3
8.638517397E0,1.864211401E-3,-1.384842768E-2,-8.388951421E-3
8.658786200E0,9.321057238E-3,-1.384842768E-2,-8.921583183E-3
8.679054950E0,1.624527015E-2,6.391582079E-3,-4.127896391E-3
8.699323700E0,1.784316637E-2,1.757685095E-2,6.657897611E-4
8.719592502E0,6.657897960E-3,6.924213842E-3,4.926844500E-3
8.739861252E0,-5.592633970E-3,-2.024000883E-2,6.524739787E-3
8.760129950E0,-1.198421605E-2,-3.728422895E-2,4.394212738E-3
8.780398804E0,-1.571263932E-2,-3.621896356E-2,5.459476262E-3
8.800667554E0,-1.518000662E-2,-2.183790505E-2,2.796316985E-3
8.820936304E0,-8.788425475E-3,-1.438105945E-2,1.331579551E-4
8.841205106E0,1.331579522E-3,-2.769685537E-2,-5.193160381E-3
8.861473856E0,6.657897960E-3,-3.462106735E-2,-7.856319658E-3
8.881742554E0,8.255792782E-3,-2.077264152E-2,-3.062632866E-3
8.902011356E0,1.091895252E-2,-2.130527282E-3,5.459476262E-3
8.922280106E0,1.624527015E-2,4.261054564E-3,1.185105834E-2
8.942548908E0,1.837579720E-2,-2.130527282E-3,1.398158539E-2
8.962817658E0,1.731053367E-2,-9.054740891E-3,1.398158539E-2
8.983086408E0,1.784316637E-2,-8.522109129E-3,1.611211337E-2
9.003355158E0,1.890842989E-2,-6.924213842E-3,1.717737690E-2
9.023623908E0,1.251684781E-2,-1.810948178E-2,1.504684892E-2
9.043892658E0,-1.331579522E-3,-4.474107176E-2,9.720530361E-3
9.064161408E0,-1.731053367E-2,-7.297056168E-2,2.263685223E-3
9.084430210E0,-1.944106072E-2,-8.681898564E-2,6.657897611E-4
9.104698908E0,-8.788425475E-3,-7.243792713E-2,5.992108025E-3
9.124967658E0,-4.527370445E-3,-4.154528305E-2,5.459476262E-3
9.145236460E0,-6.657897960E-3,-1.864211448E-2,3.328948980E-3
9.165505210E0,-6.125265732E-3,-1.864211448E-2,1.331579551E-4
9.185773960E0,-1.331579522E-3,-1.597895473E-2,1.331579551E-4
9.206042710E0,-2.396843163E-3,3.728422802E-3,-2.530001104E-3
9.226311460E0,-2.929474926E-3,3.195791040E-3,-5.725792143E-3
9.246580210E0,-1.331579522E-3,-1.917474531E-2,-6.258423906E-3
9.266980210E0,-4.527370445E-3,-3.621896356E-2,-2.530001104E-3
9.287117710E0,-1.038632076E-2,-2.982738242E-2,4.394212738E-3
9.307386460E0,-1.145158429E-2,-1.544632297E-2,1.451421715E-2
9.327655210E0,-6.125265732E-3,-4.261054564E-3,1.877527125E-2
9.348055210E0,-2.663159103E-4,-4.261054564E-3,1.504684892E-2
9.368192762E0,5.592633970E-3,-6.924213842E-3,6.524739787E-3
9.388461460E0,1.145158429E-2,-7.456845604E-3,2.796316985E-3
9.408730210E0,9.853689000E-3,-0.000000000E0,5.459476262E-3
9.428998960E0,1.331579522E-3,-1.065263641E-3,9.187898599E-3
9.449398960E0,-8.255792782E-3,-2.024000883E-2,9.187898599E-3
9.469536460E0,-1.571263932E-2,-4.633896798E-2,4.926844500E-3
9.489805210E0,-1.731053367E-2,-4.953476042E-2,-1.464737463E-3
9.510073960E0,-1.837579720E-2,-3.089264594E-2,-1.464737463E-3
9.530342710E0,-1.571263932E-2,-7.456845604E-3,1.731053460E-3
9.550742710E0,-1.145158429E-2,-5.858949851E-3,4.926844500E-3
9.570880210E0,-1.038632076E-2,-2.183790505E-2,3.328948980E-3
9.591148960E0,-1.304947957E-2,-2.663159184E-2,-4.660528619E-3
9.611417710E0,-1.091895252E-2,-1.597895473E-2,-1.371526904E-2
9.631686460E0,1.331579522E-3,5.326318205E-4,-2.010685205E-2
9.652086460E0,7.723161485E-3,1.544632297E-2,-1.691105962E-2
9.672223960E0,1.331579522E-3,1.704421826E-2,-1.318263728E-2
9.692492710E0,-1.038632076E-2,6.391582079E-3,-1.105211023E-2
9.712761460E0,-1.784316637E-2,-6.391582079E-3,-8.388951421E-3
9.733030210E0,-2.423474751E-2,-6.924213842E-3,-1.371526904E-2
9.753430210E0,-2.157158963E-2,-1.597895520E-3,-2.330264263E-2
9.773567710E0,-1.091895252E-2,-3.728422802E-3,-2.916159295E-2
9.793836408E0,-1.864211401E-3,-4.793686327E-3,-2.809632942E-2
9.814105158E0,7.989477599E-4,9.054740891E-3,-2.010685205E-2
9.834373908E0,-3.462106921E-3,2.876211889E-2,-7.323687430E-3
9.854642658E0,-2.396843163E-3,4.034686089E-2,2.796316985E-3
9.874911408E0,3.462106921E-3,3.821633384E-2,7.590003312E-3
9.895180106E0,7.723161485E-3,2.982738242E-2,6.524739787E-3
9.915448908E0,1.304947957E-2,2.130527236E-2,2.263685223E-3
9.935717606E0,1.251684781E-2,2.609895915E-2,4.394212738E-3
9.955986356E0,5.060002208E-3,3.981423005E-2,5.459476262E-3
9.976255106E0,-7.989477599E-4,4.141212255E-2,4.394212738E-3
9.996523856E0,-3.462106921E-3,2.396843210E-2,-3.062632866E-3
1.001679261E1,-9.853689000E-3,5.326318089E-3,-1.318263728E-2
1.003706130E1,-1.251684781E-2,5.326318205E-4,-1.265000552E-2
1.005733005E1,-8.788425475E-3,9.054740891E-3,-5.193160381E-3
1.007759880E1,-2.396843163E-3,2.130527236E-2,6.524739787E-3
1.009786755E1,6.657897960E-3,2.716422267E-2,1.344895363E-2
1.011813630E1,9.321057238E-3,3.195790946E-2,1.131842658E-2
1.013840500E1,1.251684781E-2,3.821633384E-2,4.394212738E-3
1.015867375E1,1.304947957E-2,4.141212255E-2,-9.321057005E-4
1.017894250E1,9.853689000E-3,3.555317223E-2,-1.464737463E-3
1.019921125E1,2.396843163E-3,1.331579592E-2,6.657897611E-4
1.021947995E1,-6.125265732E-3,-7.456845604E-3,3.861580743E-3
1.023974870E1,-1.038632076E-2,-7.989477366E-3,9.720530361E-3
1.026001745E1,-7.723161485E-3,9.587372653E-3,1.131842658E-2
1.028028615E1,5.060002208E-3,2.343579940E-2,5.459476262E-3
1.030055490E1,2.050632425E-2,3.195790946E-2,1.331579551E-4
1.032082365E1,3.435475379E-2,4.034686089E-2,1.731053460E-3
1.034109234E1,4.607265070E-2,5.366265774E-2,7.057371549E-3
1.036136110E1,4.873581231E-2,7.017423958E-2,1.344895363E-2
1.038162984E1,4.234423116E-2,7.017423958E-2,1.611211337E-2
1.040189854E1,2.530001104E-2,3.661843762E-2,1.078579482E-2
1.042216729E1,7.989477599E-4,-1.171789970E-2,2.263685223E-3
1.044243594E1,-2.423474751E-2,-5.060002208E-2,-4.127896391E-3
1.046270474E1,-3.755054250E-2,-6.657897681E-2,-9.321057005E-4
1.048297349E1,-4.074633494E-2,-6.072002649E-2,4.926844500E-3
1.050324224E1,-3.488738462E-2,-4.580633715E-2,7.057371549E-3
1.052351094E1,-1.890842989E-2,-2.183790505E-2,3.328948980E-3
1.054377969E1,5.592633970E-3,1.438105945E-2,-3.994738800E-4
1.056404839E1,2.689790726E-2,4.993423447E-2,-3.994738800E-4
1.058431714E1,3.861580789E-2,6.538055837E-2,3.861580743E-3
1.060458589E1,3.382211924E-2,5.259739235E-2,3.328948980E-3
1.062485459E1,2.423474751E-2,2.503369562E-2,2.263685223E-3
1.064512334E1,1.091895252E-2,5.326318089E-3,6.657897611E-4
1.066539203E1,-3.462106921E-3,-2.663159044E-3,-1.464737463E-3
1.068566078E1,-1.571263932E-2,-7.456845604E-3,1.331579551E-4
1.070592953E1,-2.476738021E-2,-1.651158556E-2,-3.062632866E-3
1.072619823E1,-2.689790726E-2,-2.929474972E-2,-5.193160381E-3
1.074646698E1,-2.210422046E-2,-3.195790946E-2,-7.856319658E-3
1.076673568E1,-6.657897960E-3,-1.544632297E-2,-1.051947847E-2
1.078700443E1,1.411474310E-2,2.130527236E-2,-7.856319658E-3
1.080727313E1,2.743053809E-2,5.153212696E-2,-5.193160381E-3
1.082754182E1,2.689790726E-2,5.419528857E-2,-9.321057005E-4
1.084781058E1,1.677790284E-2,3.302317113E-2,1.331579551E-4
1.086807927E1,3.994738683E-3,1.012000442E-2,-3.595264861E-3
1.088834802E1,-2.929474926E-3,1.597895520E-3,-4.660528619E-3
1.090861672E1,-7.989477599E-4,1.597895520E-3,-5.193160381E-3
1.092888547E1,1.864211401E-3,3.728422802E-3,-2.530001104E-3
1.094928547E1,1.331579522E-3,-0.000000000E0,-3.994738800E-4
1.096942292E1,3.994738683E-3,-5.858949851E-3,3.328948980E-3
1.098969162E1,5.592633970E-3,-1.597895520E-3,9.187898599E-3
1.100996037E1,1.038632076E-2,1.012000442E-2,1.131842658E-2
1.103022906E1,1.411474310E-2,1.438105945E-2,1.131842658E-2
1.105062906E1,1.571263932E-2,1.544632297E-2,7.590003312E-3
1.107076651E1,1.518000662E-2,1.864211448E-2,6.524739787E-3
1.109103526E1,1.251684781E-2,1.970737800E-2,4.926844500E-3
1.111130396E1,3.994738683E-3,1.384842768E-2,2.796316985E-3
1.113157271E1,-5.060002208E-3,-6.924213842E-3,-1.464737463E-3
1.115197271E1,-1.677790284E-2,-2.556632832E-2,-4.660528619E-3
1.117211016E1,-2.370211668E-2,-3.036001325E-2,-6.258423906E-3
1.119237886E1,-1.944106072E-2,-1.810948178E-2,-4.127896391E-3
1.121264755E1,-2.929474926E-3,2.663159044E-3,1.198421582E-3
1.123291630E1,1.198421605E-2,2.663159184E-2,3.328948980E-3
1.125331630E1,1.677790284E-2,3.715106845E-2,-3.994738800E-4
1.127345370E1,1.411474310E-2,3.195790946E-2,-4.660528619E-3
1.129372245E1,5.592633970E-3,2.077264152E-2,-9.986846708E-3
1.131399115E1,-2.929474926E-3,1.278316416E-2,-1.158474199E-2
1.133425990E1,-8.788425475E-3,-5.326318205E-4,-1.051947847E-2
1.135452860E1,-9.853689000E-3,-1.970737800E-2,-1.105211023E-2
1.137479729E1,-9.321057238E-3,-2.343579940E-2,-1.158474199E-2
1.139506604E1,-7.190529723E-3,6.924213842E-3,-7.856319658E-3
1.141533474E1,4.527370445E-3,3.195790946E-2,-5.193160381E-3
1.143560349E1,1.944106072E-2,3.715106845E-2,-7.323687430E-3
1.145587219E1,2.050632425E-2,3.355580568E-2,-1.531316526E-2
1.147614089E1,1.624527015E-2,2.130527236E-2,-2.330264263E-2
1.149640958E1,9.321057238E-3,1.118526794E-2,-2.436790615E-2
1.151667834E1,3.462106921E-3,-0.000000000E0,-1.850895584E-2
1.153694703E1,-9.321057238E-3,-2.290316857E-2,-1.051947847E-2
1.155721573E1,-1.997369342E-2,-4.953476042E-2,-3.062632866E-3
1.157748443E1,-2.423474751E-2,-5.752423778E-2,1.198421582E-3
1.159775318E1,-1.784316637E-2,-3.834949061E-2,1.331579551E-4
1.161802188E1,7.989477599E-4,-1.012000442E-2,-9.321057005E-4
1.163829063E1,2.316948399E-2,1.225053146E-2,-4.660528619E-3
1.165855943E1,3.169159219E-2,2.130527236E-2,-1.051947847E-2
1.167882797E1,2.423474751E-2,1.491369121E-2,-1.371526904E-2
1.169909672E1,8.255792782E-3,-4.793686327E-3,-1.211737376E-2
1.171936547E1,-1.038632076E-2,-2.769685537E-2,-7.856319658E-3
1.173963417E1,-2.263685316E-2,-4.420844093E-2,-4.127896391E-3
1.175990281E1,-2.316948399E-2,-6.498108059E-2,-9.321057005E-4
1.178017156E1,-1.464737486E-2,-7.669898123E-2,1.331579551E-4
1.180044031E1,-1.358211134E-2,-6.444845349E-2,-2.530001104E-3
1.182070901E1,-1.784316637E-2,-4.633896798E-2,-5.725792143E-3
1.184097771E1,-1.731053367E-2,-4.101264849E-2,-6.258423906E-3
1.186124641E1,-1.251684781E-2,-4.633896798E-2,-4.660528619E-3
1.188151511E1,-2.929474926E-3,-4.580633715E-2,-3.062632866E-3
1.190178386E1,6.125265732E-3,-3.834949061E-2,-3.062632866E-3
1.192205255E1,1.677790284E-2,-3.728422895E-2,-1.464737463E-3
1.194232125E1,2.530001104E-2,-4.261054471E-2,3.861580743E-3
1.196258995E1,2.583264373E-2,-4.048001766E-2,1.717737690E-2
1.198285870E1,1.518000662E-2,-2.503369562E-2,3.581948951E-2
1.200312740E1,8.255792782E-3,-1.384842768E-2,4.008054361E-2
1.202339610E1,5.592633970E-3,-2.663159184E-2,3.049317189E-2
1.204379610E1,1.304947957E-2,-5.273054913E-2,1.557948068E-2
1.206393349E1,2.423474751E-2,-5.006739125E-2,1.185105834E-2
1.208420219E1,4.873581231E-2,1.065263641E-3,2.996053919E-2
1.210447094E1,7.962846011E-2,8.615319431E-2,5.765739456E-2
1.212473964E1,9.880319983E-2,1.596563905E-1,8.162582666E-2
1.214500834E1,9.507478029E-2,1.964079887E-1,9.174583107E-2
1.216527703E1,7.909582555E-2,1.964079887E-1,7.949529588E-2
1.218554573E1,6.631266326E-2,1.644500792E-1,6.032055244E-2
1.220581448E1,6.631266326E-2,1.330247968E-1,4.008054361E-2
1.222608318E1,7.004108280E-2,1.223721579E-1,2.676474862E-2
1.224635188E1,6.791055948E-2,1.468732208E-1,1.877527125E-2
1.226662058E1,5.832318589E-2,1.894837767E-1,7.590003312E-3
1.228688927E1,4.394212365E-2,2.320943177E-1,-1.265000552E-2
1.230715802E1,1.358211134E-2,2.752375007E-1,-3.821633384E-2
1.232742672E1,-2.530001104E-2,2.949448824E-1,-6.484792382E-2
1.234769542E1,-6.205160543E-2,2.794985473E-1,-8.828372508E-2
1.236796412E1,-9.600688517E-2,2.368880063E-1,-1.047953144E-1
1.238823281E1,-1.274321675E-1,1.932121962E-1,-1.063932031E-1
1.240850151E1,-1.418132186E-1,1.426121742E-1,-8.455529809E-2
1.242877021E1,-1.274321675E-1,8.721846342E-2,-5.579318479E-2
1.244917021E1,-8.548741043E-2,7.656582445E-2,-3.235738352E-2
1.246930761E1,-1.624527015E-2,1.617869139E-1,-1.105211023E-2
1.248957630E1,7.004108280E-2,2.986733019E-1,1.731053460E-3
1.250984505E1,1.424790174E-1,3.796333373E-1,-3.062632866E-3
1.253011375E1,1.675127149E-1,3.647196293E-1,-1.371526904E-2
1.255051375E1,1.456748098E-1,2.699111700E-1,-2.117211558E-2
1.257065115E1,9.028109163E-2,1.404816359E-1,-1.531316526E-2
1.259091984E1,2.476738021E-2,1.171789970E-2,-3.062632866E-3
1.261118854E1,-2.849580161E-2,-8.628635854E-2,1.291632187E-2
1.263145724E1,-5.566002429E-2,-1.384842694E-1,2.889527567E-2
1.265185724E1,-7.270424068E-2,-1.512674391E-1,4.327633604E-2
1.267199464E1,-8.175898343E-2,-1.539305896E-1,5.020054802E-2
1.269226334E1,-8.229161799E-2,-1.693769246E-1,4.966791719E-2
1.271253203E1,-7.323687524E-2,-1.816274524E-1,3.954791278E-2
1.273280073E1,-5.352949724E-2,-1.640505940E-1,2.623211779E-2
1.275320073E1,-2.636527456E-2,-1.267663687E-1,1.984053478E-2
1.277333808E1,-2.396843163E-3,-9.108003974E-2,2.197106183E-2
1.279360677E1,9.321057238E-3,-6.657897681E-2,3.155843541E-2
1.281387547E1,7.723161485E-3,-6.444845349E-2,3.901528195E-2
1.283414417E1,-3.994738683E-3,-9.161267430E-2,3.635212034E-2
1.285441287E1,-3.488738462E-2,-1.379516423E-1,2.250369452E-2
1.287468156E1,-6.844318658E-2,-1.901495606E-1,9.187898599E-3
1.289495026E1,-9.494162351E-2,-2.322274745E-1,8.122635074E-3
1.291521896E1,-1.071921512E-1,-2.588590682E-1,2.037316747E-2
1.293548761E1,-1.034637317E-1,-2.631201148E-1,3.954791278E-2
1.295575630E1,-8.961530030E-2,-2.407495826E-1,5.605949834E-2
1.297602500E1,-7.270424068E-2,-2.141179889E-1,6.617950648E-2
1.299642500E1,-6.631266326E-2,-2.109221965E-1,6.351634115E-2
1.301656240E1,-6.791055948E-2,-2.364885211E-1,5.552686751E-2
1.303683110E1,-7.376950979E-2,-2.657832801E-1,4.540686309E-2
1.305709974E1,-8.122635633E-2,-2.775011659E-1,3.688475490E-2
1.307736844E1,-8.961530030E-2,-2.711096108E-1,2.942790836E-2
1.309763714E1,-1.082574204E-1,-2.663159072E-1,2.037316747E-2
1.311790584E1,-1.199753210E-1,-2.790990770E-1,1.185105834E-2
1.313817453E1,-1.247690022E-1,-3.004043400E-1,1.731053460E-3
1.315844323E1,-1.258342713E-1,-3.211769760E-1,-8.921583183E-3
1.317871188E1,-1.167795286E-1,-3.456780612E-1,-2.383527346E-2
1.319898058E1,-1.023984700E-1,-3.723096550E-1,-4.354264960E-2
1.321924927E1,-9.813741595E-2,-3.898864985E-1,-6.484792382E-2
1.323951792E1,-1.002679393E-1,-4.021370113E-1,-9.840372950E-2
1.325978662E1,-9.387636185E-2,-4.287686050E-1,-1.404816359E-1
1.328005531E1,-7.217161357E-2,-4.830970466E-1,-1.793637723E-1
1.330032401E1,-3.755054250E-2,-5.585976243E-1,-1.989379823E-1
1.332059266E1,-2.929474926E-3,-6.283723712E-1,-2.021337748E-1
1.334086136E1,2.583264373E-2,-6.624608040E-1,-2.016011477E-1
1.336113005E1,4.021370411E-2,-6.544713378E-1,-1.968074590E-1
1.338139870E1,3.595264629E-2,-6.161218882E-1,-2.031990439E-1
1.340166740E1,2.157158963E-2,-5.719134212E-1,-2.319611609E-1
1.342193604E1,3.462106921E-3,-5.500755310E-1,-2.628538013E-1
1.344220474E1,-2.103895694E-2,-5.410207510E-1,-2.767022252E-1
1.346247344E1,-5.832318589E-2,-5.250418186E-1,-2.559295893E-1
1.348274209E1,-1.002679393E-1,-4.862928391E-1,-2.016011477E-1
1.350301073E1,-1.492700726E-1,-4.005391300E-1,-1.239700541E-1
1.352327943E1,-2.020006180E-1,-2.636527419E-1,-3.235738352E-2
1.354354808E1,-2.467416972E-1,-8.628635854E-2,6.138581783E-2
1.356381677E1,-2.605901062E-1,1.122521535E-1,1.444763839E-1
1.358408542E1,-2.430132627E-1,3.146522343E-1,1.865542978E-1
1.360435412E1,-2.121206224E-1,4.866923392E-1,1.902827173E-1
1.362462276E1,-1.716406047E-1,5.813676119E-1,1.700427085E-1
1.364489146E1,-1.157142594E-1,5.511407852E-1,1.338237375E-1
1.366516011E1,3.488738462E-2,2.592585385E-1,8.428898454E-2
1.368542880E1,1.866874546E-1,-4.900212586E-2,4.700475931E-2
1.370569745E1,2.724411786E-1,-5.645897239E-2,4.274370521E-2
1.372596610E1,3.555317521E-1,8.881635964E-2,6.138581783E-2
1.374623479E1,4.258391261E-1,2.864227593E-1,8.482161909E-2
1.376650344E1,4.832302332E-1,4.259723127E-1,1.087900475E-1
1.378677208E1,5.247755051E-1,4.611259997E-1,1.247690022E-1
1.380704078E1,5.386239290E-1,4.126565158E-1,1.210405827E-1
1.382730943E1,5.178512931E-1,3.103911877E-1,9.867004305E-2
1.384770943E1,4.576638937E-1,1.953427196E-1,8.748477697E-2
1.386784672E1,3.576622605E-1,9.627319872E-2,8.322372288E-2
1.388811537E1,2.095906287E-1,3.036001325E-2,7.576687634E-2
1.390838406E1,3.275685757E-2,-1.012000442E-2,7.629951090E-2
1.392865271E1,-1.263668984E-1,-3.249054030E-2,8.482161909E-2
1.394905271E1,-2.387522161E-1,-1.970737800E-2,8.908267319E-2
1.396919000E1,-3.175817132E-1,3.555317223E-2,1.023984700E-1
1.398945870E1,-3.639206886E-1,1.191763729E-1,1.189100519E-1
1.400972735E1,-3.596596420E-1,1.617869139E-1,1.077247858E-1
1.402999599E1,-2.014679909E-1,-1.502021700E-1,5.126581341E-2
1.405039599E1,-7.190529723E-3,-5.788376331E-1,-1.105211023E-2
1.407053328E1,7.643266767E-2,-5.122586489E-1,-5.419528857E-2
1.409080193E1,2.170474678E-1,-1.736379713E-1,-8.189214021E-2
1.411107058E1,4.071970284E-1,2.145174593E-1,-9.307741374E-2
1.413133922E1,5.173186660E-1,5.447492003E-1,-8.508793265E-2
1.415173922E1,5.103944540E-1,6.538055539E-1,-8.988162130E-2
1.417187651E1,4.428833723E-1,4.632565379E-1,-1.101216301E-1
1.419214516E1,3.427485824E-1,9.893636405E-2,-7.550056279E-2
1.421241380E1,2.292979956E-1,-2.359558940E-1,8.122635074E-3
1.423268245E1,1.707084924E-1,-4.548675716E-1,8.641951531E-2
1.425308245E1,1.946769357E-1,-5.681849718E-1,1.498026997E-1
1.427321969E1,2.724411786E-1,-5.495429039E-1,2.025332451E-1
1.429361969E1,3.869570196E-1,-3.717769980E-1,2.499374747E-1
1.431375703E1,5.253081322E-1,-1.134505793E-1,2.813627720E-1
1.433402563E1,6.669881940E-1,1.346226931E-1,2.786996067E-1
1.435429433E1,7.623292804E-1,3.050648868E-1,2.328932583E-1
1.437460229E1,7.878956199E-1,3.700459599E-1,1.178447902E-1
1.439483167E1,7.617966533E-1,3.545996249E-1,-1.318263728E-2
1.441510031E1,6.424871087E-1,3.492733240E-1,-4.567318037E-2
1.443536896E1,4.800344408E-1,3.572627902E-1,-1.691105962E-2
1.445563761E1,3.443464637E-1,3.402185738E-1,-3.555317223E-2
1.447590625E1,2.271674722E-1,3.109238148E-1,5.992108025E-3
1.449617484E1,1.110537350E-1,2.896185517E-1,3.315633163E-2
1.451644349E1,-2.103895694E-2,2.065279931E-1,4.394212738E-3
1.453671209E1,-1.764342934E-1,3.195791040E-3,-4.087949172E-2
1.455698073E1,-3.612575233E-1,-2.114548385E-1,-7.390266657E-2
1.457724938E1,-5.556681752E-1,-3.707117438E-1,-9.733846784E-2
1.459751797E1,-7.233139873E-1,-4.527370334E-1,-1.079910994E-1
1.461778662E1,-8.394277692E-1,-4.767054915E-1,-9.893636405E-2
1.463805526E1,-8.591351509E-1,-5.095955133E-1,-4.301001877E-2
1.465832391E1,-7.920235395E-1,-5.479449630E-1,-8.388951421E-3
1.467859250E1,-6.460824013E-1,-5.777723789E-1,-1.424790081E-2
1.469886115E1,-4.965460002E-1,-5.340965390E-1,-7.177213579E-2
1.471912979E1,-3.623228073E-1,-4.761728346E-1,-1.495363861E-1
1.473939839E1,-1.428784877E-1,-3.755054474E-1,-2.292979956E-1
1.475966703E1,1.089232042E-1,-4.846949503E-2,-3.043990731E-1
1.477993563E1,2.468748540E-1,4.211786091E-1,-3.150517344E-1
1.480020427E1,2.314285189E-1,7.981488109E-1,-2.207758874E-1
1.482047287E1,1.414137483E-1,9.355677962E-1,-7.763108611E-2
1.484074151E1,5.938844755E-2,8.764456511E-1,-2.010685205E-2
1.486101011E1,-2.476738021E-2,6.745781898E-1,-5.366265774E-2
1.488127875E1,-1.737711281E-1,4.648544192E-1,-2.756369673E-2
1.490154734E1,-3.484743834E-1,2.656501234E-1,1.557948068E-2
1.492181599E1,-4.810996950E-1,-1.033305749E-1,3.901528195E-2
1.494208459E1,-4.928175807E-1,-7.844334841E-1,4.647212476E-2
1.496235323E1,-4.970786572E-1,-1.266864777E0,-7.230477035E-2
1.498262182E1,-5.018723607E-1,-1.038498878E0,-1.745700836E-1
1.500289047E1,-3.543333113E-1,-4.532696903E-1,-1.989379823E-1
1.502315906E1,-8.388951421E-2,1.442100704E-1,-1.628521830E-1
1.504342771E1,1.525990218E-1,5.458144546E-1,-6.165213138E-2
1.506369630E1,2.548643351E-1,6.277065873E-1,1.398158539E-2
1.508396490E1,2.292979956E-1,4.595280886E-1,6.404897571E-2
1.510423354E1,1.238368973E-1,2.560627460E-1,9.600688517E-2
1.512450214E1,5.566002429E-2,1.740374416E-1,9.920267761E-2
1.514477073E1,5.619265884E-2,1.905490309E-1,7.683213800E-2
1.516503938E1,4.554001987E-2,2.134522051E-1,3.209106624E-2
1.518530797E1,-9.321057238E-3,1.543300748E-1,-9.454214945E-3
1.520557656E1,-8.548741043E-2,-5.326318205E-4,-4.780370742E-2
1.522584516E1,-1.609879732E-1,-1.896169335E-1,-6.484792382E-2
1.524611380E1,-1.972069293E-1,-3.281011879E-1,-5.632581562E-2
1.526638240E1,-1.977395564E-1,-3.542001545E-1,-3.608580679E-2
1.528665099E1,-1.673795432E-1,-2.364885211E-1,-8.388951421E-3
1.530691959E1,-1.071921512E-1,-1.970737800E-2,1.664474420E-2
1.532718818E1,-3.222422674E-2,1.665806025E-1,2.569948509E-2
1.534745682E1,1.784316637E-2,2.352901101E-1,2.143843099E-2
1.536772542E1,3.542001545E-2,1.841574460E-1,-3.595264861E-3
1.538799401E1,2.689790726E-2,9.201214463E-2,-3.555317223E-2
1.540826261E1,1.331579522E-3,3.821633384E-2,-5.739107728E-2
1.542853120E1,-2.103895694E-2,6.325002760E-2,-6.378266215E-2
1.544893120E1,-2.743053809E-2,1.245026886E-1,-4.567318037E-2
1.546906839E1,-2.583264373E-2,1.479384899E-1,-1.637842879E-2
1.548933698E1,-2.956106514E-2,1.015995219E-1,8.655266836E-3
1.550960558E1,-4.074633494E-2,1.384842768E-2,1.824264042E-2
1.552987417E1,-5.619265884E-2,-5.060002208E-2,9.187898599E-3
1.555027417E1,-6.258423626E-2,-5.805686861E-2,-4.127896391E-3
1.557041136E1,-5.033370852E-2,-1.917474531E-2,-1.371526904E-2
1.559068000E1,-2.370211668E-2,2.769685537E-2,-1.744369231E-2
1.561094860E1,-3.462106921E-3,6.165213138E-2,-1.691105962E-2
1.563121714E1,5.060002208E-3,8.988162130E-2,-1.371526904E-2
1.565161714E1,5.060002208E-3,1.111868918E-1,-1.051947847E-2
1.567175432E1,2.396843163E-3,1.095889956E-1,-8.388951421E-3
1.569202292E1,-7.723161485E-3,6.804371625E-2,-1.051947847E-2
1.571229151E1,-2.796317078E-2,-9.054740891E-3,-1.478053257E-2
1.573256011E1,-4.873581231E-2,-9.747162461E-2,-1.797632314E-2
1.575296011E1,-6.524740160E-2,-1.528653353E-1,-1.850895584E-2
1.577309729E1,-6.631266326E-2,-1.523326933E-1,-1.318263728E-2
1.579336589E1,-4.820318148E-2,-1.012000442E-1,1.731053460E-3
1.581363448E1,-1.677790284E-2,-2.556632832E-2,1.824264042E-2
1.583390308E1,1.624527015E-2,3.928159550E-2,2.942790836E-2
1.585417162E1,4.500738904E-2,5.366265774E-2,2.996053919E-2
1.587444021E1,5.459476262E-2,3.448791057E-2,2.090579830E-2
1.589470880E1,3.755054250E-2,1.065263641E-3,7.590003312E-3
1.591497740E1,8.255792782E-3,-4.261054471E-2,1.198421582E-3
1.593524594E1,-2.583264373E-2,-8.575372398E-2,-3.994738800E-4
1.595551453E1,-4.767054692E-2,-1.134505793E-1,-9.321057005E-4
1.597578313E1,-5.033370852E-2,-1.123853177E-1,3.861580743E-3
1.599605172E1,-3.169159219E-2,-7.510108501E-2,1.078579482E-2
1.601632031E1,-1.864211401E-3,-9.054740891E-3,1.824264042E-2
1.603658886E1,2.902843431E-2,5.792371184E-2,1.557948068E-2
1.605685745E1,5.139897019E-2,1.005342528E-1,3.328948980E-3
1.607712604E1,5.566002429E-2,1.079910994E-1,-9.454214945E-3
1.609739458E1,4.181159660E-2,9.041424841E-2,-1.691105962E-2
1.611766318E1,1.358211134E-2,5.739107728E-2,-2.010685205E-2
1.613793177E1,-1.837579720E-2,1.438105945E-2,-2.223737910E-2
1.615820037E1,-4.074633494E-2,-1.544632297E-2,-2.490053698E-2
1.617846891E1,-4.554001987E-2,-1.225053146E-2,-2.223737910E-2
1.619873750E1,-3.861580789E-2,1.012000442E-2,-2.063948289E-2
1.621888823E1,-2.636527456E-2,3.195790946E-2,-1.744369231E-2
1.623927542E1,-1.198421605E-2,4.993423447E-2,-1.371526904E-2
1.625954339E1,1.331579522E-3,6.325002760E-2,-7.856319658E-3
1.627981193E1,1.198421605E-2,7.070687413E-2,-5.725792143E-3
1.630008042E1,1.571263932E-2,6.857634336E-2,-5.725792143E-3
1.632034901E1,1.304947957E-2,5.366265774E-2,-4.660528619E-3
1.634061755E1,7.190529723E-3,4.460791498E-2,-4.127896391E-3
1.636088610E1,-2.663159103E-4,4.620581120E-2,1.331579551E-4
1.638115469E1,-1.864211401E-3,5.099949613E-2,7.590003312E-3
1.640142323E1,5.060002208E-3,4.940159991E-2,1.504684892E-2
1.642169182E1,1.038632076E-2,4.673844203E-2,1.824264042E-2
1.644196037E1,9.853689000E-3,4.247738793E-2,1.717737690E-2
1.646222891E1,1.331579522E-3,3.302317113E-2,1.131842658E-2
1.648249750E1,-7.190529723E-3,2.237053588E-2,3.328948980E-3
1.650276599E1,-1.518000662E-2,1.438105945E-2,-1.464737463E-3
1.652303458E1,-1.624527015E-2,5.326318089E-3,1.331579551E-4
1.654334245E1,-1.038632076E-2,2.130527282E-3,7.590003312E-3
1.656357177E1,-7.190529723E-3,1.065263641E-3,1.930790395E-2
1.658384031E1,-8.255792782E-3,-1.597895520E-3,2.889527567E-2
1.660410886E1,-8.788425475E-3,-7.456845604E-3,3.155843541E-2
1.662437745E1,-1.677790284E-2,-1.012000442E-2,3.155843541E-2
1.664464599E1,-2.210422046E-2,-9.054740891E-3,3.049317189E-2
1.666491453E1,-2.210422046E-2,-3.195791040E-3,3.475422785E-2
1.668518308E1,-1.837579720E-2,1.384842768E-2,4.114580899E-2
1.670545162E1,-7.190529723E-3,3.142527863E-2,4.221107066E-2
1.672572016E1,1.251684781E-2,3.981423005E-2,3.315633163E-2
1.674598875E1,2.316948399E-2,4.567318037E-2,2.090579830E-2
1.676625729E1,2.050632425E-2,4.301001877E-2,9.187898599E-3
1.678652584E1,7.723161485E-3,2.769685537E-2,4.926844500E-3
1.680679438E1,-6.657897960E-3,9.054740891E-3,7.590003312E-3
1.682706292E1,-1.624527015E-2,5.326318205E-4,1.451421715E-2
1.684733151E1,-2.263685316E-2,5.326318205E-4,2.197106183E-2
1.686760005E1,-2.263685316E-2,-5.326318089E-3,1.930790395E-2
1.688786860E1,-1.518000662E-2,-1.065263641E-3,1.078579482E-2
1.690813714E1,-7.190529723E-3,2.450106293E-2,3.861580743E-3
1.692840568E1,3.462106921E-3,5.099949613E-2,4.394212738E-3
1.694880568E1,4.527370445E-3,6.218476593E-2,1.025316212E-2
1.696894281E1,2.663159103E-4,4.886896908E-2,1.291632187E-2
1.698921136E1,-8.255792782E-3,1.544632297E-2,1.344895363E-2
1.700947990E1,-1.251684781E-2,-1.225053146E-2,8.122635074E-3
1.702974844E1,-8.788425475E-3,-3.195791040E-3,8.122635074E-3
1.705014844E1,7.989477599E-4,4.034686089E-2,1.291632187E-2
1.707028552E1,1.518000662E-2,8.242477477E-2,2.197106183E-2
1.709055406E1,2.956106514E-2,1.005342528E-1,2.836264484E-2
1.711082261E1,3.222422674E-2,9.147951752E-2,2.516685426E-2
1.713122261E1,2.743053809E-2,6.058686972E-2,1.504684892E-2
1.715151808E1,1.731053367E-2,2.769685537E-2,2.796316985E-3
1.717162927E1,4.527370445E-3,4.261054564E-3,-9.454214945E-3
1.719189761E1,-1.091895252E-2,-4.261054564E-3,-1.531316526E-2
1.721216594E1,-2.263685316E-2,5.326318205E-4,-8.388951421E-3
1.723243438E1,-2.316948399E-2,6.924213842E-3,1.331579551E-4
1.725283438E1,-1.784316637E-2,3.728422802E-3,3.328948980E-3
1.727297130E1,-1.091895252E-2,-4.793686327E-3,-9.321057005E-4
1.729323979E1,-3.462106921E-3,-1.597895520E-3,-1.997369342E-3
1.731350828E1,6.657897960E-3,1.384842768E-2,-2.530001104E-3
1.733377677E1,5.060002208E-3,1.970737800E-2,-1.464737463E-3
1.735404521E1,-8.788425475E-3,4.261054564E-3,-2.530001104E-3
1.737431370E1,-2.902843431E-2,-2.609895915E-2,-5.725792143E-3
1.739458224E1,-4.713791609E-2,-4.580633715E-2,-1.051947847E-2
1.741485073E1,-5.619265884E-2,-4.527370632E-2,-1.265000552E-2
1.743511927E1,-4.767054692E-2,-3.408843651E-2,-1.265000552E-2
1.745538781E1,-3.062633052E-2,-1.757685095E-2,-1.105211023E-2
1.747565636E1,-1.358211134E-2,-5.326318089E-3,-9.454214945E-3
1.749592484E1,-3.462106921E-3,9.054740891E-3,-6.791055668E-3
1.751619339E1,1.864211401E-3,1.597895473E-2,-5.725792143E-3
1.753646193E1,1.331579522E-3,1.118526794E-2,-9.321057005E-4
1.755673042E1,-1.464737486E-2,5.858949851E-3,6.657897611E-4
1.757699891E1,-2.157158963E-2,-7.989477366E-3,-3.595264861E-3
1.759726745E1,-2.210422046E-2,-2.130527236E-2,-8.921583183E-3
1.761753599E1,-1.731053367E-2,-1.544632297E-2,-1.051947847E-2
1.763780448E1,-6.657897960E-3,3.195791040E-3,-4.127896391E-3
1.765807302E1,1.331579522E-3,1.597895473E-2,7.057371549E-3
1.767834156E1,3.462106921E-3,1.012000442E-2,1.930790395E-2
1.769861011E1,3.462106921E-3,3.195791040E-3,1.930790395E-2
1.771887860E1,6.657897960E-3,6.924213842E-3,1.185105834E-2
1.773914709E1,8.255792782E-3,1.597895473E-2,4.926844500E-3
1.775941568E1,2.929474926E-3,1.118526794E-2,4.926844500E-3
1.777968417E1,-7.723161485E-3,-9.054740891E-3,3.328948980E-3
1.779995271E1,-1.731053367E-2,-2.876211889E-2,3.328948980E-3
1.782022125E1,-1.518000662E-2,-2.183790505E-2,6.524739787E-3
1.784048974E1,-5.592633970E-3,-5.326318205E-4,9.187898599E-3
1.786075828E1,2.663159103E-4,8.522109129E-3,7.590003312E-3
1.788102683E1,-7.989477599E-4,-3.728422802E-3,5.459476262E-3
1.790129531E1,-6.657897960E-3,-1.651158556E-2,2.796316985E-3
1.792156386E1,-9.853689000E-3,-1.704421826E-2,4.394212738E-3
1.794183234E1,-9.321057238E-3,-4.261054564E-3,5.459476262E-3
1.796210089E1,-6.125265732E-3,5.858949851E-3,6.524739787E-3
1.798236938E1,-5.060002208E-3,1.065263641E-3,4.926844500E-3
1.800263792E1,-5.060002208E-3,-1.438105945E-2,1.198421582E-3
1.802290641E1,-5.592633970E-3,-1.864211448E-2,-3.994738800E-4
1.804317495E1,-2.396843163E-3,-6.924213842E-3,1.731053460E-3
1.806344344E1,1.864211401E-3,7.989477366E-3,4.394212738E-3
1.808371198E1,3.994738683E-3,1.012000442E-2,4.394212738E-3
1.810398047E1,6.657897960E-3,4.261054564E-3,3.861580743E-3
1.812424901E1,8.788425475E-3,3.728422802E-3,3.328948980E-3
1.814451750E1,1.358211134E-2,6.924213842E-3,-4.660528619E-3
1.816478604E1,1.304947957E-2,1.278316416E-2,-1.850895584E-2
1.818505453E1,1.411474310E-2,1.438105945E-2,-2.543316968E-2
1.820532308E1,2.423474751E-2,2.663159044E-3,-2.543316968E-2
1.822559156E1,2.902843431E-2,-2.130527282E-3,-2.383527346E-2
1.824586011E1,1.251684781E-2,8.522109129E-3,-1.105211023E-2
1.826612860E1,-6.125265732E-3,1.331579592E-2,3.861580743E-3
1.828639714E1,-1.198421605E-2,4.261054564E-3,1.398158539E-2
1.830666563E1,-5.592633970E-3,-1.704421826E-2,9.720530361E-3
1.832693412E1,-1.331579522E-3,-3.781685978E-2,2.263685223E-3
1.834733412E1,-6.657897960E-3,-4.633896798E-2,-6.791055668E-3
1.836747115E1,-1.304947957E-2,-4.207791388E-2,-9.454214945E-3
1.838773969E1,-1.358211134E-2,-2.769685537E-2,-9.986846708E-3
1.840800818E1,-4.527370445E-3,-1.970737800E-2,-1.464737463E-3
1.842827672E1,1.038632076E-2,-2.343579940E-2,8.655266836E-3
1.844867672E1,2.103895694E-2,-3.036001325E-2,1.238369010E-2
1.846881370E1,2.370211668E-2,-2.716422267E-2,1.291632187E-2
1.848921370E1,1.997369342E-2,-2.077264152E-2,1.238369010E-2
1.850935068E1,1.304947957E-2,-1.331579592E-2,1.344895363E-2
1.852961922E1,3.462106921E-3,-7.456845604E-3,1.185105834E-2
1.855001922E1,-6.657897960E-3,-1.864211448E-2,7.057371549E-3
1.857015625E1,-1.038632076E-2,-4.900212586E-2,2.796316985E-3
1.859042474E1,-1.571263932E-2,-6.764423847E-2,-1.464737463E-3
1.861069328E1,-1.731053367E-2,-5.912213027E-2,-3.062632866E-3
1.863096177E1,-7.190529723E-3,-3.462106735E-2,6.657897611E-4
1.865136177E1,1.038632076E-2,-1.171789970E-2,1.078579482E-2
1.867149875E1,1.837579720E-2,4.261054564E-3,1.504684892E-2
1.869176729E1,1.145158429E-2,3.195791040E-3,1.078579482E-2
1.871203578E1,1.331579522E-3,-1.171789970E-2,6.657897611E-4
1.873230427E1,-9.321057238E-3,-1.810948178E-2,-1.691105962E-2
1.875270427E1,-1.677790284E-2,-5.858949851E-3,-2.490053698E-2
1.877284130E1,-1.411474310E-2,-1.065263641E-3,-2.277000993E-2
1.879310979E1,-1.145158429E-2,-1.278316416E-2,-1.744369231E-2
1.881337828E1,-1.677790284E-2,-2.343579940E-2,-1.531316526E-2
1.883364683E1,-2.796317078E-2,-2.822948620E-2,-1.371526904E-2
1.885404682E1,-3.062633052E-2,-2.450106293E-2,-1.691105962E-2
1.887418380E1,-2.157158963E-2,-1.065263618E-2,-1.797632314E-2
1.889445229E1,-6.657897960E-3,5.326318089E-3,-1.637842879E-2
1.891472078E1,5.060002208E-3,1.171789970E-2,-1.211737376E-2
1.893498932E1,1.038632076E-2,1.384842768E-2,-9.454214945E-3
1.895525781E1,8.255792782E-3,2.024000883E-2,-8.388951421E-3
1.897552630E1,-7.989477599E-4,3.249054030E-2,-5.193160381E-3
1.899579479E1,-1.251684781E-2,2.982738242E-2,-1.997369342E-3
1.901606328E1,-1.677790284E-2,1.597895520E-3,-3.595264861E-3
1.903633182E1,-1.837579720E-2,-3.302317113E-2,-1.105211023E-2
1.905660031E1,-1.571263932E-2,-3.728422895E-2,-1.797632314E-2
1.907686880E1,-5.060002208E-3,-1.171789970E-2,-1.318263728E-2
1.909713729E1,1.038632076E-2,2.769685537E-2,-2.530001104E-3
1.911740578E1,2.103895694E-2,5.153212696E-2,1.238369010E-2
1.913767427E1,2.689790726E-2,4.833633825E-2,2.410159074E-2
1.915794281E1,2.743053809E-2,3.355580568E-2,3.102580272E-2
1.917821130E1,2.423474751E-2,3.302317113E-2,2.889527567E-2
1.919847979E1,2.583264373E-2,4.141212255E-2,2.729738131E-2
1.921874828E1,3.328948840E-2,5.259739235E-2,2.729738131E-2
1.923901677E1,3.435475379E-2,5.632581562E-2,3.049317189E-2
1.925928526E1,2.157158963E-2,4.886896908E-2,3.422159329E-2
1.927955380E1,3.994738683E-3,2.450106293E-2,2.783001214E-2
1.929982229E1,-7.190529723E-3,6.924213842E-3,1.771000773E-2
1.932009078E1,-1.304947957E-2,-4.261054564E-3,1.078579482E-2
1.934035927E1,-1.304947957E-2,-1.171789970E-2,6.524739787E-3
1.936062776E1,-1.038632076E-2,-1.757685095E-2,5.992108025E-3
1.938089625E1,-7.190529723E-3,-1.544632297E-2,1.078579482E-2
1.940116474E1,1.331579522E-3,-5.326318205E-4,2.090579830E-2
1.942143323E1,9.321057238E-3,1.757685095E-2,2.996053919E-2
1.944170172E1,1.091895252E-2,1.597895473E-2,2.676474862E-2
1.946197021E1,1.304947957E-2,-8.522109129E-3,1.611211337E-2
1.948223870E1,9.853689000E-3,-2.290316857E-2,8.655266836E-3
1.950250719E1,5.060002208E-3,-1.438105945E-2,5.459476262E-3
1.952290719E1,2.396843163E-3,2.130527282E-3,5.459476262E-3
1.954304417E1,1.331579522E-3,3.728422802E-3,8.655266836E-3
1.956331266E1,-2.663159103E-4,-1.384842768E-2,7.590003312E-3
1.958358115E1,-1.331579522E-3,-3.462106735E-2,4.394212738E-3
1.960384964E1,2.663159103E-4,-3.781685978E-2,1.331579551E-4
1.962411813E1,-1.864211401E-3,-2.556632832E-2,6.657897611E-4
1.964438662E1,-7.190529723E-3,-1.810948178E-2,-2.530001104E-3
1.966465511E1,-7.723161485E-3,-2.450106293E-2,-5.193160381E-3
1.968492360E1,-6.125265732E-3,-3.036001325E-2,-1.211737376E-2
1.970519208E1,-1.331579522E-3,-2.450106293E-2,-2.170474641E-2
1.972546058E1,2.929474926E-3,-1.651158556E-2,-2.277000993E-2
1.974572906E1,4.527370445E-3,-8.522109129E-3,-2.596580051E-2
1.976599755E1,4.527370445E-3,-5.326318089E-3,-2.490053698E-2
1.978626604E1,4.527370445E-3,-6.391582079E-3,-2.383527346E-2
1.980653453E1,5.592633970E-3,-6.391582079E-3,-2.117211558E-2
1.982680302E1,2.663159103E-4,-3.728422802E-3,-1.957421936E-2
1.984707151E1,-9.853689000E-3,-1.012000442E-2,-1.850895584E-2
1.986734000E1,-2.157158963E-2,-2.609895915E-2,-2.277000993E-2
1.988760849E1,-2.796317078E-2,-3.142527863E-2,-2.490053698E-2
1.990787698E1,-2.210422046E-2,-2.343579940E-2,-1.850895584E-2
1.992814547E1,-2.396843163E-3,-5.326318205E-4,-8.388951421E-3
1.994854547E1,2.103895694E-2,2.503369562E-2,3.328948980E-3
1.996868245E1,3.062633052E-2,2.876211889E-2,9.187898599E-3
1.998895089E1,2.316948399E-2,1.544632297E-2,6.524739787E-3
2.000921938E1,6.657897960E-3,-5.326318205E-4,3.328948980E-3
2.002948787E1,-8.255792782E-3,-9.587372653E-3,3.328948980E-3
2.004988787E1,-8.255792782E-3,-1.757685095E-2,9.187898599E-3
2.007002485E1,-6.657897960E-3,-2.396843210E-2,1.664474420E-2
2.009029334E1,3.462106921E-3,-2.130527236E-2,1.504684892E-2
2.011056182E1,1.731053367E-2,5.858949851E-3,1.078579482E-2
2.013083026E1,2.689790726E-2,4.514054582E-2,1.771000773E-2
2.015123026E1,2.530001104E-2,5.845634267E-2,2.569948509E-2
2.017136724E1,1.997369342E-2,3.448791057E-2,3.209106624E-2
2.019163573E1,1.518000662E-2,-0.000000000E0,3.209106624E-2
2.021190417E1,1.518000662E-2,-1.171789970E-2,2.836264484E-2
2.023217266E1,1.198421605E-2,9.054740891E-3,2.090579830E-2
2.025257266E1,1.091895252E-2,3.036001325E-2,1.504684892E-2
2.027270964E1,9.321057238E-3,2.343579940E-2,1.291632187E-2
2.029297813E1,7.190529723E-3,-4.793686327E-3,1.025316212E-2
2.031324662E1,2.396843163E-3,-2.876211889E-2,1.198421582E-3
2.033351505E1,2.663159103E-4,-2.556632832E-2,-1.051947847E-2
2.035378354E1,1.331579522E-3,1.065263641E-3,-1.584579609E-2
2.037405203E1,3.994738683E-3,2.663159184E-2,-1.211737376E-2
2.039432047E1,6.125265732E-3,2.663159184E-2,-4.127896391E-3
2.041458896E1,5.592633970E-3,1.438105945E-2,-5.193160381E-3
2.043485745E1,4.527370445E-3,5.326318089E-3,-9.986846708E-3
2.045512589E1,1.038632076E-2,-5.326318205E-4,-1.584579609E-2
2.047552589E1,1.145158429E-2,2.663159044E-3,-2.170474641E-2
2.049566287E1,-2.663159103E-4,-6.924213842E-3,-2.063948289E-2
2.051593136E1,-6.125265732E-3,-3.302317113E-2,-2.170474641E-2
2.053619979E1,-3.994738683E-3,-4.740423337E-2,-1.531316526E-2
2.055646828E1,7.989477599E-4,-3.728422895E-2,-3.062632866E-3
2.057673677E1,5.060002208E-3,-1.118526794E-2,2.796316985E-3
2.059700521E1,8.788425475E-3,1.651158556E-2,-2.530001104E-3
2.061727370E1,8.788425475E-3,2.077264152E-2,-1.265000552E-2
2.063754219E1,2.396843163E-3,-2.130527282E-3,-2.543316968E-2
2.065781063E1,-5.060002208E-3,-3.462106735E-2,-3.235738352E-2
2.067807912E1,-3.462106921E-3,-5.166528746E-2,-2.596580051E-2
2.069834761E1,1.331579522E-3,-3.675159439E-2,-1.371526904E-2
2.071861604E1,2.396843163E-3,-4.793686327E-3,1.731053460E-3
2.073888453E1,3.994738683E-3,1.278316416E-2,1.238369010E-2
2.075915297E1,5.592633970E-3,5.326318205E-4,1.398158539E-2
2.077942146E1,7.190529723E-3,-2.237053588E-2,1.025316212E-2
2.079968995E1,6.125265732E-3,-4.101264849E-2,1.198421582E-3
2.081995839E1,5.592633970E-3,-4.527370632E-2,-5.193160381E-3
2.084022688E1,8.788425475E-3,-4.207791388E-2,-6.258423906E-3
2.086049531E1,1.464737486E-2,-3.994738683E-2,-4.127896391E-3
2.088076380E1,2.476738021E-2,-5.006739125E-2,-3.062632866E-3
2.090103229E1,3.382211924E-2,-7.297056168E-2,-6.791055668E-3
2.092130073E1,4.287686199E-2,-1.043958366E-1,-8.921583183E-3
2.094156922E1,5.246423557E-2,-1.171789989E-1,-1.211737376E-2
2.096183766E1,5.672528967E-2,-8.575372398E-2,-1.318263728E-2
2.098210615E1,5.619265884E-2,-1.917474531E-2,-7.323687430E-3
2.100237459E1,3.755054250E-2,4.194475710E-2,2.796316985E-3
2.102264308E1,1.331579522E-3,5.898897350E-2,7.057371549E-3
2.104291156E1,-3.275685757E-2,1.331579592E-2,2.263685223E-3
2.106318000E1,-5.779055133E-2,-5.752423778E-2,-8.388951421E-3
2.108344849E1,-6.258423626E-2,-9.001477808E-2,-7.323687430E-3
2.110371693E1,-4.500738904E-2,-6.711161137E-2,1.331579551E-4
2.112398542E1,-2.636527456E-2,-2.876211889E-2,6.657897611E-4
2.114438542E1,-2.370211668E-2,-7.989477366E-3,-1.464737463E-3
2.116452234E1,-3.169159219E-2,-1.970737800E-2,-4.660528619E-3
2.118479078E1,-3.275685757E-2,-5.060002208E-2,-1.211737376E-2
2.120505927E1,-3.542001545E-2,-5.805686861E-2,-2.010685205E-2
2.122532771E1,-3.648528084E-2,-3.036001325E-2,-2.170474641E-2
2.124559620E1,-2.636527456E-2,-2.663159044E-3,-2.330264263E-2
2.126599620E1,-2.929474926E-3,8.522109129E-3,-2.063948289E-2
2.128613308E1,1.464737486E-2,2.663159184E-2,-1.637842879E-2
2.130640156E1,2.050632425E-2,5.099949613E-2,-9.454214945E-3
2.132667000E1,2.263685316E-2,5.313002318E-2,-4.660528619E-3
2.134693849E1,1.784316637E-2,2.982738242E-2,-5.193160381E-3
2.136720693E1,7.989477599E-4,-1.810948178E-2,-7.323687430E-3
2.138747542E1,-2.796317078E-2,-7.456845790E-2,-1.051947847E-2
2.140774386E1,-5.725792050E-2,-1.139832065E-1,-1.371526904E-2
2.142801235E1,-7.163897902E-2,-1.214400530E-1,-1.584579609E-2
2.144841234E1,-6.418213248E-2,-9.800425172E-2,-1.531316526E-2
2.146854922E1,-3.701791167E-2,-5.273054913E-2,-1.105211023E-2
2.148881771E1,6.125265732E-3,4.793686327E-3,-5.193160381E-3
2.150908615E1,4.287686199E-2,5.206476152E-2,-9.321057005E-4
2.152935464E1,5.938844755E-2,6.804371625E-2,-1.464737463E-3
2.154975464E1,5.672528967E-2,4.620581120E-2,-7.323687430E-3
2.156989151E1,3.009369783E-2,2.130527282E-3,-7.856319658E-3
2.159015995E1,-1.837579720E-2,-4.207791388E-2,-9.986846708E-3
2.161042844E1,-6.364950538E-2,-9.054741263E-2,-1.424790081E-2
2.163069688E1,-8.442214131E-2,-1.294295341E-1,-2.277000993E-2
2.165109688E1,-7.962846011E-2,-1.347558498E-1,-2.756369673E-2
2.167123380E1,-5.406212807E-2,-8.894951642E-2,-2.330264263E-2
2.169150224E1,-1.358211134E-2,-9.587372653E-3,-1.637842879E-2
2.171177068E1,2.689790726E-2,6.644582003E-2,-6.791055668E-3
2.173203917E1,4.713791609E-2,1.031974182E-1,3.861580743E-3
2.175243917E1,4.660528526E-2,9.307741374E-2,8.655266836E-3
2.177257604E1,2.636527456E-2,4.087949172E-2,5.992108025E-3
2.179284448E1,-6.125265732E-3,-2.450106293E-2,-1.997369342E-3
2.181311297E1,-3.595264629E-2,-7.563371956E-2,-7.323687430E-3
2.183338141E1,-5.352949724E-2,-8.788424730E-2,-8.921583183E-3
2.185378141E1,-5.139897019E-2,-6.924213469E-2,-6.258423906E-3
2.187391834E1,-3.222422674E-2,-3.462106735E-2,2.263685223E-3
2.189418677E1,-1.864211401E-3,7.456845604E-3,8.655266836E-3
2.191445521E1,2.743053809E-2,4.514054582E-2,1.504684892E-2
2.193472365E1,4.980107397E-2,7.496792823E-2,1.557948068E-2
2.195499208E1,5.352949724E-2,9.307741374E-2,1.504684892E-2
2.197526058E1,4.554001987E-2,8.135951310E-2,1.025316212E-2
2.199552901E1,2.956106514E-2,3.502054140E-2,3.328948980E-3
2.201579745E1,-7.989477599E-4,-2.024000883E-2,-3.595264861E-3
2.203606589E1,-3.169159219E-2,-6.125266105E-2,-7.856319658E-3
2.205633432E1,-3.808317333E-2,-7.456845790E-2,-9.986846708E-3
2.207660276E1,-2.583264373E-2,-5.326318368E-2,-8.921583183E-3
2.209687120E1,-6.657897960E-3,5.326318089E-3,2.263685223E-3
2.211713969E1,2.210422046E-2,5.898897350E-2,1.398158539E-2
2.213740813E1,5.352949724E-2,8.349003643E-2,2.197106183E-2
2.215767651E1,7.057371736E-2,8.082687855E-2,2.250369452E-2
2.217794500E1,5.885581672E-2,6.325002760E-2,1.984053478E-2
2.219821344E1,2.902843431E-2,3.195790946E-2,1.611211337E-2
2.221848188E1,7.190529723E-3,-1.864211448E-2,1.771000773E-2
2.223875031E1,-1.038632076E-2,-5.699160323E-2,1.717737690E-2
2.225901875E1,-2.370211668E-2,-7.297056168E-2,1.398158539E-2
2.227928719E1,-2.103895694E-2,-7.297056168E-2,1.078579482E-2
2.229955568E1,-1.864211401E-3,-4.580633715E-2,9.720530361E-3
2.231982412E1,2.530001104E-2,5.326318089E-3,1.291632187E-2
2.234009255E1,4.980107397E-2,4.141212255E-2,1.771000773E-2
2.236036094E1,6.151897460E-2,4.194475710E-2,1.238369010E-2
2.238062943E1,5.619265884E-2,2.130527236E-2,7.057371549E-3
2.240089787E1,3.968106955E-2,-7.456845604E-3,2.263685223E-3
2.242116625E1,2.103895694E-2,-2.769685537E-2,-2.530001104E-3
2.244143474E1,-5.060002208E-3,-2.130527236E-2,-1.997369342E-3
2.246170318E1,-3.275685757E-2,4.793686327E-3,-9.321057005E-4
2.248197162E1,-4.021370411E-2,1.970737800E-2,-4.660528619E-3
2.250224000E1,-2.583264373E-2,2.822948620E-2,-1.797632314E-2
2.252250849E1,5.060002208E-3,4.940159991E-2,-1.957421936E-2
2.254277693E1,4.340949282E-2,1.000016257E-1,-3.062632866E-3
2.256304537E1,8.282424510E-2,1.649827063E-1,3.528685868E-2
2.258331380E1,1.083905771E-1,2.304964215E-1,7.416898012E-2
2.260358224E1,1.062600464E-1,2.826943398E-1,9.547425061E-2
2.262385068E1,9.986846894E-2,2.997385561E-1,9.600688517E-2
2.264411912E1,1.025316268E-1,2.773680091E-1,7.470161468E-2
2.266438755E1,9.827057272E-2,2.448774725E-1,4.434159771E-2
2.268465599E1,6.737792492E-2,2.086585164E-1,1.717737690E-2
2.270492438E1,2.263685316E-2,1.676458716E-1,1.331579551E-4
2.272519281E1,-1.997369342E-2,1.154479459E-1,-6.791055668E-3
2.274546125E1,-4.926844314E-2,7.337003201E-2,-2.010685205E-2
2.276572969E1,-6.098634377E-2,5.313002318E-2,-3.555317223E-2
2.278599813E1,-4.980107397E-2,3.981423005E-2,-4.780370742E-2
2.280626656E1,-2.476738021E-2,3.089264594E-2,-4.620581120E-2
2.282653500E1,-5.060002208E-3,2.876211889E-2,-3.502054140E-2
2.284693500E1,4.527370445E-3,2.024000883E-2,-1.637842879E-2
2.286707182E1,3.994738683E-3,-2.237053588E-2,-9.454214945E-3
2.288734021E1,-9.321057238E-3,-8.415582776E-2,-1.531316526E-2
2.290760870E1,-3.542001545E-2,-1.283642650E-1,-2.223737910E-2
2.292787714E1,-5.299686641E-2,-1.432779580E-1,-2.170474641E-2
2.294818484E1,-4.660528526E-2,-1.310274303E-1,-1.478053257E-2
2.296841406E1,-2.263685316E-2,-1.059937328E-1,-8.921583183E-3
2.298868250E1,7.989477599E-4,-1.027979404E-1,-1.464737463E-3
2.300895094E1,1.145158429E-2,-1.166463718E-1,5.459476262E-3
2.302921938E1,2.929474926E-3,-1.432779580E-1,1.025316212E-2
2.304961938E1,-1.944106072E-2,-1.736379713E-1,1.185105834E-2
2.306975620E1,-5.139897019E-2,-2.098569423E-1,1.717737690E-2
2.309002459E1,-8.442214131E-2,-2.439453751E-1,1.504684892E-2
2.311029308E1,-9.813741595E-2,-2.588590682E-1,1.291632187E-2
2.313056146E1,-9.440898895E-2,-2.412822098E-1,7.590003312E-3
2.315096146E1,-7.909582555E-2,-1.901495606E-1,7.057371549E-3
2.317109828E1,-4.926844314E-2,-1.182442605E-1,1.131842658E-2
2.319136672E1,-1.464737486E-2,-4.314317927E-2,1.717737690E-2
2.321163516E1,1.518000662E-2,1.597895473E-2,1.930790395E-2
2.323190360E1,3.382211924E-2,4.354264960E-2,1.451421715E-2
2.325230360E1,3.328948840E-2,4.141212255E-2,8.122635074E-3
2.327244042E1,1.890842989E-2,1.651158556E-2,1.198421582E-3
2.329270886E1,-5.592633970E-3,-1.118526794E-2,-4.127896391E-3
2.331297729E1,-2.423474751E-2,-1.757685095E-2,-7.856319658E-3
2.333324573E1,-2.263685316E-2,-5.326318089E-3,-6.791055668E-3
2.335351412E1,-9.853689000E-3,2.024000883E-2,-5.725792143E-3
2.337378255E1,6.125265732E-3,4.247738793E-2,-5.725792143E-3
2.339405099E1,2.689790726E-2,4.780370742E-2,-5.725792143E-3
2.341431943E1,3.861580789E-2,3.874896467E-2,-6.258423906E-3
2.343458787E1,3.275685757E-2,1.225053146E-2,-9.321057005E-4
2.345485625E1,1.731053367E-2,-2.769685537E-2,7.057371549E-3
2.347512469E1,-1.251684781E-2,-7.403582335E-2,1.504684892E-2
2.349539313E1,-4.447475821E-2,-1.241032109E-1,2.623211779E-2
2.351566151E1,-6.471476704E-2,-1.597895473E-1,3.475422785E-2
2.353592995E1,-6.151897460E-2,-1.512674391E-1,3.528685868E-2
2.355619839E1,-3.328948840E-2,-1.017326787E-1,2.889527567E-2
2.357646677E1,5.592633970E-3,-3.994738683E-2,2.410159074E-2
2.359673521E1,3.115896136E-2,-1.065263641E-3,2.676474862E-2
2.361700365E1,2.902843431E-2,-2.130527282E-3,2.729738131E-2
2.363727203E1,1.091895252E-2,-3.515370190E-2,2.569948509E-2
2.365754047E1,-7.723161485E-3,-5.752423778E-2,1.984053478E-2
2.367780891E1,-1.677790284E-2,-5.166528746E-2,1.131842658E-2
2.369807729E1,-9.321057238E-3,-2.237053588E-2,2.263685223E-3
2.371834573E1,5.592633970E-3,1.438105945E-2,-7.856319658E-3
2.373861412E1,1.784316637E-2,3.195790946E-2,-1.797632314E-2
2.375888255E1,2.476738021E-2,2.822948620E-2,-3.075948730E-2
2.377915099E1,2.316948399E-2,1.970737800E-2,-3.928159550E-2
2.379941938E1,1.358211134E-2,1.810948178E-2,-4.993423447E-2
2.381968781E1,-7.989477599E-4,2.077264152E-2,-6.431528926E-2
2.384008781E1,-1.304947957E-2,2.716422267E-2,-7.123950869E-2
2.386022464E1,-2.583264373E-2,2.769685537E-2,-6.378266215E-2
2.388049308E1,-3.222422674E-2,1.704421826E-2,-4.940159991E-2
2.390076146E1,-2.689790726E-2,8.522109129E-3,-3.235738352E-2
2.392102990E1,-1.464737486E-2,1.384842768E-2,-1.478053257E-2
2.394129828E1,2.929474926E-3,3.981423005E-2,-3.994738800E-4
2.396156672E1,1.890842989E-2,7.230477035E-2,9.720530361E-3
2.398183516E1,2.476738021E-2,7.816372067E-2,1.877527125E-2
2.400210354E1,1.784316637E-2,4.141212255E-2,1.824264042E-2
2.402237198E1,-7.989477599E-4,-1.225053146E-2,8.122635074E-3
2.404264037E1,-1.624527015E-2,-4.207791388E-2,1.731053460E-3
2.406290875E1,-1.358211134E-2,-4.048001766E-2,-9.321057005E-4
2.408317719E1,7.989477599E-4,-9.054740891E-3,3.328948980E-3
2.410344558E1,8.255792782E-3,2.503369562E-2,1.451421715E-2
2.412371401E1,1.304947957E-2,2.929474972E-2,2.356895804E-2
2.414398240E1,1.198421605E-2,1.491369121E-2,2.623211779E-2
2.416425084E1,1.251684781E-2,9.587372653E-3,2.410159074E-2
2.418451922E1,1.571263932E-2,9.054740891E-3,1.664474420E-2
2.420478766E1,1.677790284E-2,3.728422802E-3,7.590003312E-3
2.422505604E1,1.251684781E-2,-0.000000000E0,1.331579551E-4
2.424532443E1,1.331579522E-3,3.195791040E-3,-3.595264861E-3
2.426559287E1,-1.038632076E-2,4.793686327E-3,-3.595264861E-3
2.428586125E1,-1.784316637E-2,-5.326318089E-3,-4.660528619E-3
2.430626125E1,-2.423474751E-2,-2.343579940E-2,-8.921583183E-3
2.432639808E1,-3.275685757E-2,-4.101264849E-2,-1.105211023E-2
2.434666651E1,-2.902843431E-2,-4.687159881E-2,-1.584579609E-2
2.436693490E1,-1.890842989E-2,-3.089264594E-2,-1.797632314E-2
2.438720328E1,-5.592633970E-3,3.728422802E-3,-2.063948289E-2
2.440747172E1,1.091895252E-2,4.354264960E-2,-1.957421936E-2
2.442774011E1,2.583264373E-2,6.378266215E-2,-1.637842879E-2
2.444800849E1,3.968106955E-2,6.431528926E-2,-9.454214945E-3
2.446827693E1,4.127896577E-2,6.058686972E-2,-6.258423906E-3
2.448854531E1,3.542001545E-2,5.046686530E-2,-1.997369342E-3
2.450881370E1,2.689790726E-2,2.609895915E-2,-9.321057005E-4
2.452908214E1,1.571263932E-2,-1.597895520E-3,-9.321057005E-4
2.454948214E1,2.396843163E-3,-1.917474531E-2,1.198421582E-3
2.456961891E1,-8.788425475E-3,-2.503369562E-2,-1.997369342E-3
2.458988734E1,-1.464737486E-2,-2.716422267E-2,-5.725792143E-3
2.461015573E1,-1.251684781E-2,-2.290316857E-2,-8.921583183E-3
2.463042412E1,-1.358211134E-2,-1.917474531E-2,-1.158474199E-2
2.465082412E1,-1.198421605E-2,-1.491369121E-2,-8.388951421E-3
2.467096094E1,-1.864211401E-3,-1.331579592E-2,-3.062632866E-3
2.469122933E1,1.331579522E-3,4.793686327E-3,2.796316985E-3
2.471149776E1,-5.060002208E-3,2.290316857E-2,7.057371549E-3
2.473176615E1,-1.198421605E-2,2.077264152E-2,8.655266836E-3
2.475216615E1,-1.251684781E-2,-2.130527282E-3,1.344895363E-2
2.477230292E1,-9.853689000E-3,-2.130527236E-2,1.238369010E-2
2.479257130E1,-1.145158429E-2,-1.491369121E-2,7.590003312E-3
2.481283974E1,-7.723161485E-3,9.587372653E-3,8.122635074E-3
2.483310813E1,8.788425475E-3,3.821633384E-2,1.771000773E-2
2.485350813E1,2.636527456E-2,6.591318548E-2,2.516685426E-2
2.487364490E1,3.115896136E-2,7.337003201E-2,2.250369452E-2
2.489391334E1,3.009369783E-2,5.206476152E-2,1.664474420E-2
2.491418172E1,1.890842989E-2,2.290316857E-2,8.655266836E-3
2.493445011E1,-1.864211401E-3,-4.793686327E-3,3.328948980E-3
2.495471849E1,-2.050632425E-2,-2.290316857E-2,-1.997369342E-3
2.497498693E1,-3.275685757E-2,-3.675159439E-2,1.731053460E-3
2.499525531E1,-3.488738462E-2,-4.367581010E-2,6.524739787E-3
2.501552370E1,-2.530001104E-2,-2.929474972E-2,4.926844500E-3
2.503579208E1,-1.198421605E-2,3.728422802E-3,-9.321057005E-4
2.505606047E1,4.527370445E-3,3.928159550E-2,-1.211737376E-2
2.507632886E1,2.103895694E-2,5.845634267E-2,-1.797632314E-2
2.509659729E1,3.009369783E-2,6.591318548E-2,-2.170474641E-2
2.511686563E1,2.796317078E-2,6.271740049E-2,-1.584579609E-2
2.513713406E1,2.476738021E-2,5.206476152E-2,-8.388951421E-3
2.515740245E1,1.358211134E-2,4.034686089E-2,-4.660528619E-3
2.517767084E1,-5.592633970E-3,3.355580568E-2,-8.388951421E-3
2.519793927E1,-2.263685316E-2,2.556632832E-2,-1.478053257E-2
2.521820766E1,-3.542001545E-2,1.012000442E-2,-2.596580051E-2
2.523847604E1,-4.713791609E-2,-1.171789970E-2,-3.661843762E-2
2.525874443E1,-4.926844314E-2,-2.396843210E-2,-4.247738793E-2
2.527901281E1,-3.488738462E-2,-3.728422802E-3,-3.715106845E-2
2.529928120E1,-8.255792782E-3,4.301001877E-2,-2.010685205E-2
2.531954964E1,2.423474751E-2,8.988162130E-2,-2.530001104E-3
2.533981802E1,4.873581231E-2,1.069258377E-1,1.131842658E-2
2.536008641E1,5.086633936E-2,8.828372508E-2,8.122635074E-3
2.538035479E1,4.021370411E-2,3.981423005E-2,-3.595264861E-3
2.540062318E1,1.571263932E-2,-1.651158556E-2,-1.424790081E-2
2.542089162E1,-1.304947957E-2,-5.912213027E-2,-1.478053257E-2
2.544116000E1,-3.275685757E-2,-7.882951200E-2,-5.725792143E-3
2.546142839E1,-4.181159660E-2,-7.243792713E-2,7.057371549E-3
2.548169677E1,-3.488738462E-2,-5.592634156E-2,1.291632187E-2
2.550196516E1,-1.624527015E-2,-3.089264594E-2,4.926844500E-3
2.552223354E1,1.145158429E-2,4.261054564E-3,-1.997369342E-3
2.554250193E1,2.902843431E-2,3.715106845E-2,-4.127896391E-3
2.556277037E1,2.636527456E-2,4.301001877E-2,1.731053460E-3
2.558303875E1,9.853689000E-3,1.384842768E-2,9.187898599E-3
2.560330714E1,-2.396843163E-3,-1.917474531E-2,1.078579482E-2
2.562357552E1,1.864211401E-3,-2.716422267E-2,8.655266836E-3
2.564384391E1,1.464737486E-2,-2.077264152E-2,7.057371549E-3
2.566411229E1,1.731053367E-2,-8.522109129E-3,3.861580743E-3
2.568438068E1,2.929474926E-3,-8.522109129E-3,-4.127896391E-3
2.570464906E1,-8.255792782E-3,-3.089264594E-2,-9.986846708E-3
2.572491750E1,-7.190529723E-3,-5.805686861E-2,-7.323687430E-3
2.574518584E1,-1.331579522E-3,-6.498108059E-2,1.331579551E-4
2.576545427E1,4.527370445E-3,-5.592634156E-2,7.057371549E-3
2.578572266E1,6.657897960E-3,-3.408843651E-2,1.185105834E-2
2.580599104E1,1.464737486E-2,-6.391582079E-3,1.344895363E-2
2.582625943E1,2.583264373E-2,1.225053146E-2,1.185105834E-2
2.584652781E1,3.222422674E-2,7.456845604E-3,7.057371549E-3
2.586692781E1,2.157158963E-2,-2.183790505E-2,3.328948980E-3
2.588706458E1,-7.989477599E-4,-6.391581893E-2,1.198421582E-3
2.590733297E1,-2.849580161E-2,-1.038632020E-1,-9.321057005E-4
2.592760136E1,-4.926844314E-2,-1.320926845E-1,-5.193160381E-3
2.594786974E1,-5.566002429E-2,-1.480716467E-1,-9.454214945E-3
2.596817745E1,-4.873581231E-2,-1.368863732E-1,-9.454214945E-3
2.598840656E1,-2.689790726E-2,-9.161267430E-2,-4.127896391E-3
2.600867495E1,2.663159103E-4,-3.036001325E-2,1.731053460E-3
2.602894334E1,1.784316637E-2,2.396843210E-2,2.263685223E-3
2.604934334E1,2.157158963E-2,4.567318037E-2,-3.994738800E-4
2.606948011E1,1.411474310E-2,2.716422267E-2,-7.856319658E-3
2.608974849E1,5.060002208E-3,-6.924213842E-3,-1.691105962E-2
2.611001688E1,-3.462106921E-3,-2.024000883E-2,-1.691105962E-2
2.613028526E1,-3.994738683E-3,-6.391582079E-3,-1.265000552E-2
2.615068526E1,2.663159103E-4,1.810948178E-2,-7.323687430E-3
2.617082203E1,2.929474926E-3,3.821633384E-2,-5.193160381E-3
2.619109037E1,4.527370445E-3,4.673844203E-2,-7.856319658E-3
2.621135875E1,8.788425475E-3,3.981423005E-2,-1.158474199E-2
2.623162714E1,1.304947957E-2,3.089264594E-2,-1.158474199E-2
2.625202714E1,1.624527015E-2,3.555317223E-2,-1.997369342E-3
2.627216391E1,2.050632425E-2,5.046686530E-2,5.459476262E-3
2.629243229E1,3.115896136E-2,6.058686972E-2,1.025316212E-2
2.631270068E1,3.542001545E-2,6.644582003E-2,1.131842658E-2
2.633296906E1,2.583264373E-2,6.804371625E-2,7.057371549E-3
2.635323745E1,7.723161485E-3,5.366265774E-2,3.328948980E-3
2.637350584E1,1.331579522E-3,3.195790946E-2,3.861580743E-3
2.639377422E1,9.321057238E-3,2.183790505E-2,3.328948980E-3
2.641404261E1,1.677790284E-2,2.716422267E-2,1.198421582E-3
2.643431099E1,2.476738021E-2,3.874896467E-2,2.263685223E-3
2.645457938E1,2.636527456E-2,5.206476152E-2,7.057371549E-3
2.647484771E1,1.837579720E-2,5.739107728E-2,1.611211337E-2
2.649511610E1,7.723161485E-3,4.514054582E-2,1.877527125E-2
2.651538448E1,-4.527370445E-3,1.864211448E-2,1.557948068E-2
2.653565287E1,-9.853689000E-3,-9.054740891E-3,8.122635074E-3
2.655605287E1,-8.255792782E-3,-1.597895473E-2,1.331579551E-4
2.657618964E1,-1.864211401E-3,1.065263641E-3,-1.997369342E-3
2.659645802E1,7.723161485E-3,2.929474972E-2,2.263685223E-3
2.661672641E1,1.518000662E-2,4.727107286E-2,9.720530361E-3
2.663699474E1,1.784316637E-2,4.780370742E-2,1.131842658E-2
2.665726313E1,1.571263932E-2,3.302317113E-2,8.122635074E-3
2.667753151E1,1.251684781E-2,1.597895473E-2,1.198421582E-3
2.669779990E1,7.723161485E-3,8.522109129E-3,-7.323687430E-3
2.671806828E1,2.663159103E-4,6.391582079E-3,-9.986846708E-3
2.673833662E1,-1.251684781E-2,5.326318205E-4,-1.105211023E-2
2.675860500E1,-2.636527456E-2,-9.054740891E-3,-7.323687430E-3
2.677887339E1,-2.902843431E-2,-1.704421826E-2,-5.193160381E-3
2.679914177E1,-1.997369342E-2,-1.331579592E-2,-7.323687430E-3
2.681941016E1,-3.462106921E-3,5.326318205E-4,-8.921583183E-3
2.683967849E1,9.853689000E-3,2.503369562E-2,-5.725792143E-3
2.685994688E1,1.624527015E-2,4.460791498E-2,-3.994738800E-4
2.688021526E1,1.304947957E-2,5.099949613E-2,-3.994738800E-4
2.690048365E1,3.462106921E-3,4.514054582E-2,-1.464737463E-3
2.692075198E1,-6.657897960E-3,3.089264594E-2,-6.258423906E-3
2.694102037E1,-9.321057238E-3,8.522109129E-3,-9.986846708E-3
2.696128875E1,-1.145158429E-2,-3.728422802E-3,-9.986846708E-3
2.698155714E1,-1.624527015E-2,-4.793686327E-3,-6.791055668E-3
2.700182547E1,-1.518000662E-2,5.326318205E-4,-5.725792143E-3
2.702209386E1,-8.255792782E-3,8.522109129E-3,-5.725792143E-3
2.704236224E1,-3.462106921E-3,2.237053588E-2,-5.193160381E-3
2.706263063E1,3.994738683E-3,3.395527974E-2,-3.062632866E-3
2.708289901E1,1.145158429E-2,4.087949172E-2,-3.994738800E-4
2.710316735E1,1.731053367E-2,4.301001877E-2,5.459476262E-3
2.712343573E1,1.997369342E-2,4.514054582E-2,9.187898599E-3
2.714370412E1,1.731053367E-2,3.874896467E-2,1.185105834E-2
2.716397245E1,1.198421605E-2,2.556632832E-2,1.451421715E-2
2.718424084E1,6.657897960E-3,1.544632297E-2,1.824264042E-2
2.720450922E1,-2.396843163E-3,1.970737800E-2,1.664474420E-2
2.722477755E1,-5.592633970E-3,3.089264594E-2,1.185105834E-2
2.724504589E1,-2.663159103E-4,3.142527863E-2,8.655266836E-3
2.726531433E1,9.321057238E-3,2.237053588E-2,6.524739787E-3
2.728558266E1,9.321057238E-3,1.651158556E-2,3.861580743E-3
2.730585104E1,2.929474926E-3,5.858949851E-3,7.590003312E-3
2.732611938E1,-2.929474926E-3,-1.065263641E-3,1.238369010E-2
2.734651938E1,-7.190529723E-3,1.012000442E-2,1.344895363E-2
2.736665615E1,-9.321057238E-3,3.142527863E-2,9.720530361E-3
2.738692448E1,-2.396843163E-3,3.555317223E-2,5.992108025E-3
2.740719287E1,2.396843163E-3,3.249054030E-2,-1.464737463E-3
2.742746125E1,7.723161485E-3,3.821633384E-2,-6.258423906E-3
2.744772958E1,1.571263932E-2,4.833633825E-2,-1.464737463E-3
2.746799797E1,2.636527456E-2,6.644582003E-2,1.198421582E-3
2.748826630E1,2.849580161E-2,8.242477477E-2,-3.595264861E-3
2.750853469E1,1.624527015E-2,6.804371625E-2,-8.921583183E-3
2.752880308E1,4.527370445E-3,4.460791498E-2,-8.921583183E-3
2.754920308E1,-1.038632076E-2,-0.000000000E0,-5.193160381E-3
2.756933979E1,-2.476738021E-2,-4.687159881E-2,-3.994738800E-4
2.758960813E1,-3.382211924E-2,-5.379581451E-2,5.459476262E-3
2.760987651E1,-3.382211924E-2,-1.970737800E-2,7.057371549E-3
2.763014490E1,-1.997369342E-2,2.556632832E-2,4.926844500E-3
2.765054490E1,-2.396843163E-3,5.153212696E-2,-1.997369342E-3
2.767068162E1,8.788425475E-3,6.111950055E-2,-1.478053257E-2
2.769094995E1,2.210422046E-2,6.644582003E-2,-2.223737910E-2
2.771121828E1,3.595264629E-2,8.295740932E-2,-2.916159295E-2
2.773148667E1,4.074633494E-2,8.775109053E-2,-2.703106403E-2
2.775188667E1,1.944106072E-2,7.816372067E-2,-1.478053257E-2
2.777202339E1,-1.784316637E-2,9.147951752E-2,-8.921583183E-3
2.779229172E1,-3.968106955E-2,7.177213579E-2,-1.158474199E-2
2.781256005E1,-6.045371294E-2,3.768370301E-2,-2.277000993E-2
2.783282844E1,-7.749792933E-2,-3.195791040E-3,-4.833633825E-2
2.785322844E1,-7.004108280E-2,-6.551371515E-2,-6.111950055E-2
2.787336516E1,-3.701791167E-2,-9.693899006E-2,-4.141212255E-2
2.789363354E1,1.864211401E-3,-5.379581451E-2,-1.464737463E-3
2.791390188E1,3.169159219E-2,4.727107286E-2,2.143843099E-2
2.793417026E1,4.926844314E-2,1.170458421E-1,3.475422785E-2
2.795443860E1,4.713791609E-2,1.346226931E-1,2.410159074E-2
2.797470693E1,3.169159219E-2,8.828372508E-2,4.394212738E-3
2.799497531E1,8.255792782E-3,-1.597895520E-3,-1.105211023E-2
2.801524365E1,-1.518000662E-2,-7.350318879E-2,-1.637842879E-2
2.803551203E1,-1.944106072E-2,-1.006674170E-1,-9.454214945E-3
2.805578037E1,-1.198421605E-2,-9.321057051E-2,2.796316985E-3
2.807604870E1,-8.255792782E-3,-5.699160323E-2,7.590003312E-3
2.809631709E1,-2.929474926E-3,6.924213842E-3,6.657897611E-4
2.811658542E1,1.145158429E-2,5.898897350E-2,-3.595264861E-3
2.813685375E1,2.849580161E-2,6.484792382E-2,3.861580743E-3
2.815712214E1,3.914843872E-2,4.354264960E-2,1.398158539E-2
2.817739047E1,3.595264629E-2,-1.757685095E-2,2.516685426E-2
2.819765880E1,1.464737486E-2,-7.936213911E-2,2.942790836E-2
2.821792719E1,-3.462106921E-3,-9.587372839E-2,2.889527567E-2
2.823819547E1,-8.788425475E-3,-6.498108059E-2,2.516685426E-2
2.825846386E1,-9.853689000E-3,-1.012000442E-2,8.655266836E-3
2.827873224E1,-7.190529723E-3,2.663159184E-2,-7.323687430E-3
2.829900058E1,-7.989477599E-4,3.502054140E-2,-1.850895584E-2
2.831926891E1,6.125265732E-3,2.929474972E-2,-2.010685205E-2
2.833953729E1,7.723161485E-3,3.355580568E-2,-1.637842879E-2
2.835980563E1,1.091895252E-2,4.194475710E-2,-8.921583183E-3
2.838007396E1,2.263685316E-2,1.757685095E-2,6.524739787E-3
2.840034235E1,3.062633052E-2,-1.006674170E-1,1.238369010E-2
2.842061068E1,-1.198421605E-2,-1.086568907E-1,4.926844500E-3
2.844087901E1,-2.796317078E-2,-1.864211448E-2,-5.193160381E-3
2.846114734E1,1.331579522E-3,-5.326318089E-3,-1.584579609E-2
2.848141573E1,1.304947957E-2,3.728422802E-3,-1.265000552E-2
2.850168406E1,8.255792782E-3,2.024000883E-2,1.198421582E-3
2.852195240E1,2.210422046E-2,4.993423447E-2,1.664474420E-2
2.854222073E1,4.767054692E-2,1.005342528E-1,2.090579830E-2
2.856248912E1,6.151897460E-2,1.282311082E-1,2.796316985E-3
2.858275745E1,5.619265884E-2,1.324921697E-1,-1.637842879E-2
2.860302578E1,4.873581231E-2,1.404816359E-1,-3.022685647E-2
2.862329412E1,3.808317333E-2,1.649827063E-1,-4.141212255E-2
2.864356250E1,2.263685316E-2,1.724395454E-1,-3.502054140E-2
2.866383084E1,6.125265732E-3,1.436774284E-1,-2.596580051E-2
2.868409917E1,-3.462106921E-3,1.079910994E-1,-2.117211558E-2
2.870436750E1,-6.125265732E-3,8.562056720E-2,-1.637842879E-2
2.872463584E1,2.663159103E-4,1.202416345E-1,-2.010685205E-2
2.874503584E1,1.464737486E-2,1.308942735E-1,-2.330264263E-2
2.876517250E1,1.198421605E-2,1.864211448E-2,-1.691105962E-2
2.878544089E1,-1.864211401E-3,-1.059937328E-1,1.557948068E-2
2.880570922E1,-8.788425475E-3,-1.443432271E-1,3.848264739E-2
2.882597750E1,-1.304947957E-2,-1.107874215E-1,3.954791278E-2
2.884624589E1,-2.530001104E-2,-5.539371073E-2,9.720530361E-3
2.886651427E1,-3.968106955E-2,-2.290316857E-2,-1.265000552E-2
2.888678261E1,-4.394212365E-2,1.704421826E-2,-4.673844203E-2
2.890705094E1,-2.956106514E-2,5.685844645E-2,-8.668582886E-2
2.892731927E1,-8.255792782E-3,5.579318479E-2,-1.031974182E-1
2.894771927E1,1.198421605E-2,1.704421826E-2,-7.763108611E-2
2.896785594E1,3.755054250E-2,-2.769685537E-2,-3.289001435E-2
2.898812427E1,6.098634377E-2,-2.822948620E-2,4.394212738E-3
2.900839261E1,8.016108721E-2,3.555317223E-2,3.155843541E-2
2.902866094E1,9.507478029E-2,1.127847880E-1,2.569948509E-2
2.904906094E1,8.815056831E-2,1.063932031E-1,-4.660528619E-3
2.906919761E1,5.246423557E-2,4.793686327E-3,-3.502054140E-2
2.908946594E1,1.331579522E-3,-1.097221524E-1,-3.395527974E-2
2.910973427E1,-4.554001987E-2,-1.555284858E-1,-1.158474199E-2
2.913000261E1,-8.069372177E-2,-1.427453309E-1,2.090579830E-2
2.915040261E1,-8.708529919E-2,-1.454084814E-1,2.996053919E-2
2.917053933E1,-7.590003312E-2,-1.597895473E-1,1.131842658E-2
2.919080766E1,-5.885581672E-2,-1.235705838E-1,-5.193160381E-3
2.921107599E1,-2.530001104E-2,-5.592634156E-2,-3.994738800E-4
2.923134433E1,1.411474310E-2,-8.522109129E-3,4.394212738E-3
2.925174432E1,2.530001104E-2,1.065263618E-2,-5.193160381E-3
2.927188099E1,1.251684781E-2,-7.456845604E-3,-2.862896025E-2
2.929214932E1,-2.663159103E-4,-3.888212144E-2,-4.247738793E-2
2.931241766E1,-8.788425475E-3,-3.621896356E-2,-3.821633384E-2
2.933268599E1,-2.103895694E-2,-5.858949851E-3,-2.063948289E-2
2.935295433E1,-3.914843872E-2,-1.065263641E-3,-1.850895584E-2
2.937322266E1,-6.311687082E-2,-6.551371515E-2,-2.330264263E-2
2.939349099E1,-8.495477587E-2,-1.635179669E-1,-2.862896025E-2
2.941375932E1,-1.018658355E-1,-2.045306265E-1,-5.046686530E-2
2.943402766E1,-9.174583107E-2,-1.997369379E-1,-6.258423906E-3
2.945429599E1,-3.462106921E-3,-1.406148076E-1,9.174583107E-2
2.947456433E1,1.222390011E-1,2.130527236E-2,1.332911104E-1
2.949483266E1,1.930790395E-1,2.720417082E-1,9.653951973E-2
2.951510099E1,1.829590350E-1,4.850944281E-1,4.913528636E-2
2.953536932E1,1.552621722E-1,4.781702161E-1,1.198421582E-3
2.955563766E1,1.233042628E-1,2.528669536E-1,-4.407528415E-2
2.957590599E1,4.340949282E-2,3.195791040E-3,-7.177213579E-2
2.959617433E1,-5.619265884E-2,-1.443432271E-1,-7.070687413E-2
2.961644261E1,-1.077247858E-1,-2.045306265E-1,-4.034686089E-2
2.963671094E1,-1.066595241E-1,-1.912148297E-1,2.263685223E-3
2.965697927E1,-8.748477697E-2,-1.225053221E-1,2.250369452E-2
2.967724761E1,-7.110634446E-2,-6.817687303E-2,4.926844500E-3
2.969751594E1,-6.258423626E-2,-6.391581893E-2,-4.141212255E-2
2.971778427E1,-6.364950538E-2,-1.038632020E-1,-7.816372067E-2
2.973805261E1,-6.844318658E-2,-1.640505940E-1,-8.082687855E-2
2.975832094E1,-6.631266326E-2,-2.199769467E-1,-5.419528857E-2
2.977872094E1,-4.873581231E-2,-2.221074700E-1,-2.010685205E-2
2.979885761E1,-1.518000662E-2,-1.326253265E-1,7.057371549E-3
2.981912589E1,1.890842989E-2,3.395527974E-2,2.250369452E-2
2.983939422E1,4.554001987E-2,1.649827063E-1,4.221107066E-2
2.985966255E1,5.033370852E-2,1.964079887E-1,4.380896688E-2
2.987993089E1,2.902843431E-2,1.000016257E-1,2.250369452E-2
2.990019922E1,-9.853689000E-3,-6.551371515E-2,-8.388951421E-3
2.992046755E1,-2.902843431E-2,-1.608548164E-1,-1.957421936E-2
2.994073589E1,-7.723161485E-3,-1.107874215E-1,-2.010685205E-2
2.996100422E1,1.784316637E-2,3.089264594E-2,-1.158474199E-2
2.998127255E1,7.723161485E-3,1.506016403E-1,-1.637842879E-2
3.000154089E1,-2.423474751E-2,1.276984811E-1,-1.997369342E-3
3.002180922E1,-3.169159219E-2,-5.432844535E-2,5.712476373E-2
3.004220922E1,3.994738683E-3,-1.842906028E-1,1.167795286E-1
3.006234584E1,4.394212365E-2,-7.776424289E-2,1.231711060E-1
3.008261417E1,6.471476704E-2,1.756353378E-1,7.949529588E-2
3.010288250E1,9.081372619E-2,3.764375448E-1,3.155843541E-2
3.012315084E1,1.339569092E-1,3.961449265E-1,-1.464737463E-3
3.014341917E1,1.467400640E-1,2.640522122E-1,-1.265000552E-2
3.016368745E1,9.347688407E-2,1.213068962E-1,-1.691105962E-2
3.018395578E1,1.304947957E-2,1.278316416E-2,-1.211737376E-2
3.020422412E1,-3.222422674E-2,-3.834949061E-2,1.238369010E-2
3.022449245E1,-2.423474751E-2,-2.982738242E-2,3.262370080E-2
3.024476078E1,-1.464737486E-2,-3.408843651E-2,3.581948951E-2
3.026502912E1,-3.648528084E-2,-1.012000442E-1,6.524739787E-3
3.028529745E1,-7.483477145E-2,-1.709748209E-1,-2.649843320E-2
3.030556578E1,-9.653951973E-2,-1.906821877E-1,-4.514054582E-2
3.032583406E1,-1.002679393E-1,-1.960085034E-1,-6.165213138E-2
3.034610240E1,-9.707214683E-2,-2.157158852E-1,-4.301001877E-2
3.036637073E1,-8.442214131E-2,-2.194443047E-1,-5.193160381E-3
3.038663906E1,-5.246423557E-2,-1.778990328E-1,1.664474420E-2
3.040690740E1,-5.060002208E-3,-5.486107618E-2,1.331579551E-4
3.042717573E1,4.607265070E-2,1.074584723E-1,-1.424790081E-2
3.044744406E1,8.122635633E-2,1.937448233E-1,-6.791055668E-3
3.046771240E1,8.761793375E-2,1.527321786E-1,5.459476262E-3
3.048798068E1,5.512739345E-2,1.491369121E-2,2.796316985E-3
3.050824901E1,-2.396843163E-3,-1.299621612E-1,-1.371526904E-2
3.052851734E1,-3.222422674E-2,-1.906821877E-1,-2.170474641E-2
3.054891735E1,-2.316948399E-2,-1.400821656E-1,-1.797632314E-2
3.056905401E1,-3.542001545E-2,-2.290316857E-2,-3.768370301E-2
3.058932235E1,-7.590003312E-2,1.384842768E-2,-3.502054140E-2
3.060959068E1,-7.856319100E-2,-1.283642650E-1,2.889527567E-2
3.062985901E1,-1.624527015E-2,-2.545980215E-1,1.066595241E-1
3.065025901E1,5.352949724E-2,-1.278316379E-1,1.300953180E-1
3.067039563E1,9.241162241E-2,2.193111479E-1,9.494162351E-2
3.069066396E1,1.185105816E-1,5.324986577E-1,3.475422785E-2
3.071093229E1,1.536642760E-1,5.516734123E-1,-1.637842879E-2
3.073120063E1,1.643169224E-1,3.066627681E-1,-4.407528415E-2
3.075160063E1,1.158474237E-1,2.343579940E-2,-4.886896908E-2
3.077173729E1,2.476738021E-2,-1.448758543E-1,-3.022685647E-2
3.079200563E1,-4.926844314E-2,-2.114548385E-1,8.655266836E-3
3.081227396E1,-9.760478139E-2,-2.316948473E-1,2.197106183E-2
3.083254229E1,-1.295626909E-1,-2.386190593E-1,2.037316747E-2
3.085294229E1,-1.519332230E-1,-2.348906398E-1,7.057371549E-3
3.087307896E1,-1.695100814E-1,-2.652506530E-1,-2.223737910E-2
3.089334724E1,-1.817606091E-1,-3.126548827E-1,-5.526055023E-2
3.091361563E1,-1.679121852E-1,-3.318296373E-1,-5.579318479E-2
3.093388396E1,-9.494162351E-2,-3.185138404E-1,-2.330264263E-2
3.095415229E1,1.677790284E-2,-1.832253486E-1,-4.127896391E-3
3.097442063E1,1.083905771E-1,1.031974182E-1,3.328948980E-3
3.099468896E1,1.472726911E-1,3.769701719E-1,4.926844500E-3
3.101495729E1,1.568600684E-1,4.573975801E-1,4.394212738E-3
3.103522563E1,1.350221634E-1,3.146522343E-1,-6.791055668E-3
3.105562563E1,6.418213248E-2,5.419528857E-2,-2.596580051E-2
3.107576229E1,-3.275685757E-2,-1.789642870E-1,-3.448791057E-2
3.109603063E1,-1.034637317E-1,-2.599243224E-1,-2.916159295E-2
3.111629896E1,-1.189100519E-1,-2.130527347E-1,-2.063948289E-2
3.113656729E1,-1.050616279E-1,-1.272990108E-1,-2.330264263E-2
3.115683563E1,-8.748477697E-2,-7.297056168E-2,-2.916159295E-2
3.117710396E1,-7.323687524E-2,-7.936213911E-2,-2.703106403E-2
3.119737224E1,-6.578002870E-2,-1.033305749E-1,-4.087949172E-2
3.121764058E1,-4.820318148E-2,-1.065263674E-1,-3.395527974E-2
3.123790891E1,1.837579720E-2,-7.190529257E-2,3.368896246E-2
3.125817724E1,1.169126853E-1,5.366265774E-2,1.103879437E-1
3.127844563E1,1.909485012E-1,2.603237927E-1,1.253016293E-1
3.129871391E1,1.733716577E-1,4.419512451E-1,7.629951090E-2
3.131898224E1,1.035968885E-1,4.281028211E-1,2.942790836E-2
3.133925058E1,4.660528526E-2,2.209090441E-1,-1.158474199E-2
3.135951891E1,3.275685757E-2,9.054740891E-3,-2.010685205E-2
3.137978724E1,4.234423116E-2,-3.888212144E-2,-2.383527346E-2
3.140005558E1,3.701791167E-2,2.077264152E-2,-1.797632314E-2
3.142032391E1,-7.989477599E-4,1.597895473E-2,-6.791055668E-3
3.144059224E1,-5.193160102E-2,-8.628635854E-2,2.796316985E-3
3.146086063E1,-1.066595241E-1,-2.146506310E-1,-1.318263728E-2
3.148112891E1,-1.343563795E-1,-3.126548827E-1,-1.211737376E-2
3.150139729E1,-1.242363751E-1,-2.838927507E-1,-1.464737463E-3
3.152166563E1,-8.908267319E-2,-1.411474347E-1,1.291632187E-2
3.154193396E1,-3.488738462E-2,7.456845604E-3,1.877527125E-2
3.156220229E1,1.624527015E-2,6.484792382E-2,7.057371549E-3
3.158247063E1,3.755054250E-2,4.354264960E-2,-7.856319658E-3
3.160273896E1,3.169159219E-2,-1.118526794E-2,-9.321057005E-4
3.162300724E1,2.210422046E-2,-2.716422267E-2,9.187898599E-3
3.164327563E1,2.316948399E-2,2.929474972E-2,3.328948980E-3
3.166354396E1,1.890842989E-2,1.063932031E-1,-1.211737376E-2
3.168381229E1,3.994738683E-3,1.372858584E-1,-1.904158667E-2
3.170408068E1,-1.038632076E-2,6.111950055E-2,-1.637842879E-2
3.172434901E1,-1.784316637E-2,-8.255793154E-2,-1.265000552E-2
3.174461734E1,-1.997369342E-2,-1.390169114E-1,-2.530001104E-3
3.176488568E1,-3.462106921E-3,-4.900212586E-2,7.590003312E-3
3.178515401E1,2.743053809E-2,9.414267540E-2,2.263685223E-3
3.180542234E1,3.808317333E-2,1.772332340E-1,-2.543316968E-2
3.182569068E1,1.944106072E-2,1.426121742E-1,-4.780370742E-2
3.184609068E1,-1.784316637E-2,5.858949851E-3,-4.407528415E-2
3.186622735E1,-4.820318148E-2,-1.336905807E-1,-2.330264263E-2
3.188649573E1,-4.500738904E-2,-1.752358675E-1,1.131842658E-2
3.190689573E1,-7.723161485E-3,-1.097221524E-1,3.422159329E-2
3.192703240E1,3.328948840E-2,1.544632297E-2,3.422159329E-2
3.194730073E1,4.980107397E-2,1.111868918E-1,1.824264042E-2
3.196756906E1,4.021370411E-2,9.787109494E-2,-5.193160381E-3
3.198783745E1,7.190529723E-3,8.522109129E-3,-2.117211558E-2
3.200810578E1,-2.157158963E-2,-6.817687303E-2,-2.170474641E-2
3.202837412E1,-1.944106072E-2,-5.858949944E-2,-2.530001104E-3
3.204877412E1,2.929474926E-3,2.183790505E-2,2.463422157E-2
3.206891084E1,1.304947957E-2,8.402267098E-2,3.368896246E-2
3.208917917E1,-3.462106921E-3,5.952160433E-2,2.250369452E-2
3.210944750E1,-5.592633970E-3,-1.597895473E-2,2.263685223E-3
3.212971584E1,2.157158963E-2,-3.462106735E-2,-6.791055668E-3
3.215011584E1,5.033370852E-2,5.526055023E-2,-3.595264861E-3
3.217025255E1,5.992107838E-2,1.521995366E-1,2.796316985E-3
3.219052089E1,4.500738904E-2,1.468732208E-1,-9.321057005E-4
3.221078922E1,1.251684781E-2,3.249054030E-2,-7.323687430E-3
3.223105755E1,-2.530001104E-2,-9.001477808E-2,-5.193160381E-3
3.225145755E1,-5.033370852E-2,-1.257011145E-1,-3.062632866E-3
3.227159427E1,-5.566002429E-2,-9.054741263E-2,6.657897611E-4
3.229186261E1,-4.660528526E-2,-6.391581893E-2,-5.193160381E-3
3.231213099E1,-3.169159219E-2,-7.297056168E-2,-3.595264861E-3
3.233239933E1,-1.411474310E-2,-6.604634225E-2,1.331579551E-4
3.235266766E1,6.657897960E-3,-1.491369121E-2,2.796316985E-3
3.237293604E1,2.902843431E-2,3.142527863E-2,1.198421582E-3
3.239320438E1,4.074633494E-2,3.608580679E-2,-3.062632866E-3
3.241347271E1,3.062633052E-2,9.054740891E-3,-7.323687430E-3
3.243374110E1,9.853689000E-3,-1.225053146E-2,-3.595264861E-3
3.245414110E1,-8.788425475E-3,-2.024000883E-2,2.796316985E-3
3.247427781E1,-1.944106072E-2,-2.343579940E-2,3.328948980E-3
3.249454615E1,-2.636527456E-2,-3.728422895E-2,-4.660528619E-3
3.251481453E1,-3.435475379E-2,-5.326318368E-2,-1.531316526E-2
3.253508287E1,-3.062633052E-2,-4.527370632E-2,-7.856319658E-3
3.255535120E1,-1.731053367E-2,-3.195791040E-3,2.263685223E-3
3.257561959E1,-2.663159103E-4,3.928159550E-2,2.263685223E-3
3.259588792E1,4.527370445E-3,5.153212696E-2,-5.193160381E-3
3.261615630E1,-4.527370445E-3,3.768370301E-2,-1.531316526E-2
3.263642464E1,-1.198421605E-2,1.065263641E-3,-1.797632314E-2
3.265669302E1,-6.657897960E-3,-4.314317927E-2,1.131842658E-2
3.267696136E1,1.837579720E-2,-5.965476483E-2,5.179844424E-2
3.269722969E1,4.713791609E-2,-1.012000442E-2,8.801741153E-2
3.271749808E1,5.885581672E-2,9.361004084E-2,9.813741595E-2
3.273776641E1,5.193160102E-2,1.878858805E-1,7.949529588E-2
3.275803479E1,5.779055133E-2,1.878858805E-1,5.233107507E-2
3.277830313E1,6.950845569E-2,1.175784767E-1,2.516685426E-2
3.279857146E1,6.205160543E-2,6.111950055E-2,1.451421715E-2
3.281883984E1,3.542001545E-2,3.448791057E-2,4.394212738E-3
3.283910818E1,2.663159103E-4,2.237053588E-2,-8.921583183E-3
3.285937651E1,-2.849580161E-2,-1.065263641E-3,-2.063948289E-2
3.287964490E1,-4.820318148E-2,-4.580633715E-2,-2.649843320E-2
3.289991323E1,-6.151897460E-2,-1.001347825E-1,-2.862896025E-2
3.292018156E1,-8.335687965E-2,-1.304948032E-1,-2.170474641E-2
3.294044995E1,-9.600688517E-2,-1.326253265E-1,-9.454214945E-3
3.296071828E1,-7.057371736E-2,-1.246358454E-1,1.238369010E-2
3.298098667E1,-1.624527015E-2,-8.894951642E-2,1.984053478E-2
3.300125500E1,2.316948399E-2,-4.261054564E-3,4.926844500E-3
3.302152339E1,3.328948840E-2,7.230477035E-2,-3.595264861E-3
3.304179167E1,3.062633052E-2,7.070687413E-2,1.331579551E-4
3.306206005E1,1.731053367E-2,1.757685095E-2,-6.258423906E-3
3.308232844E1,-2.929474926E-3,-2.609895915E-2,-2.117211558E-2
3.310259677E1,-8.255792782E-3,-2.237053588E-2,-2.969422378E-2
3.312286516E1,5.592633970E-3,2.503369562E-2,-1.957421936E-2
3.314313349E1,-2.396843163E-3,8.615319431E-2,-3.395527974E-2
3.316353349E1,-2.423474751E-2,5.952160433E-2,5.459476262E-3
3.318367021E1,-3.115896136E-2,-4.101264849E-2,5.446160212E-2
3.320393854E1,-1.677790284E-2,-8.309056610E-2,6.884266436E-2
3.322420693E1,-2.396843163E-3,3.195791040E-3,5.179844424E-2
3.324447526E1,2.157158963E-2,1.303616315E-1,1.877527125E-2
3.326474365E1,5.938844755E-2,2.097237855E-1,-1.744369231E-2
3.328501198E1,7.803056389E-2,2.049300969E-1,-4.301001877E-2
3.330524099E1,6.471476704E-2,1.218395308E-1,-4.727107286E-2
3.332554865E1,2.583264373E-2,1.065263618E-2,-4.354264960E-2
3.334581698E1,-2.796317078E-2,-5.219791830E-2,-3.395527974E-2
3.336608542E1,-7.163897902E-2,-6.285055727E-2,-1.531316526E-2
3.338635375E1,-9.600688517E-2,-7.243792713E-2,-1.997369342E-3
3.340662214E1,-1.103879437E-1,-1.267663687E-1,-1.105211023E-2
3.342689047E1,-1.189100519E-1,-2.013348341E-1,-1.850895584E-2
3.344715880E1,-1.013332009E-1,-1.981390417E-1,-3.062632866E-3
3.346742719E1,-4.607265070E-2,-8.468846232E-2,2.143843099E-2
3.348769552E1,2.689790726E-2,4.886896908E-2,2.942790836E-2
3.350796386E1,6.950845569E-2,1.106542572E-1,1.611211337E-2
3.352823224E1,8.388951421E-2,9.574057162E-2,-8.388951421E-3
3.354863224E1,9.454214573E-2,6.804371625E-2,-2.383527346E-2
3.356876896E1,9.187898785E-2,7.283740491E-2,-2.703106403E-2
3.358903729E1,5.033370852E-2,8.668582886E-2,-3.874896467E-2
3.360930568E1,-1.145158429E-2,5.153212696E-2,-1.637842879E-2
3.362957401E1,-5.139897019E-2,-5.965476483E-2,3.049317189E-2
3.364997401E1,-4.926844314E-2,-1.406148076E-1,6.724476814E-2
3.367011073E1,-4.660528526E-2,-8.894951642E-2,5.233107507E-2
3.369037906E1,-6.631266326E-2,1.810948178E-2,3.328948980E-3
3.371064740E1,-8.335687965E-2,6.325002760E-2,-4.301001877E-2
3.373091578E1,-6.684529036E-2,1.331579592E-2,-5.099949613E-2
3.375131578E1,-2.902843431E-2,-5.965476483E-2,-3.395527974E-2
3.377145245E1,9.321057238E-3,-7.456845790E-2,2.796316985E-3
3.379172078E1,3.435475379E-2,5.326318205E-4,2.996053919E-2
3.381198917E1,4.500738904E-2,9.893636405E-2,3.475422785E-2
3.383225750E1,4.127896577E-2,1.106542572E-1,1.131842658E-2
3.385265750E1,2.157158963E-2,3.089264594E-2,-2.117211558E-2
3.387279422E1,2.929474926E-3,-4.314317927E-2,-2.330264263E-2
3.389306255E1,7.190529723E-3,-3.834949061E-2,-1.997369342E-3
3.391333089E1,3.328948840E-2,2.396843210E-2,1.238369010E-2
3.393359927E1,5.193160102E-2,8.721846342E-2,9.720530361E-3
3.395386761E1,4.660528526E-2,8.721846342E-2,5.992108025E-3
3.397413594E1,1.731053367E-2,2.609895915E-2,4.394212738E-3
3.399440433E1,-1.944106072E-2,-5.273054913E-2,1.025316212E-2
3.401467266E1,-4.074633494E-2,-1.150484756E-1,2.143843099E-2
3.403494099E1,-4.127896577E-2,-1.182442605E-1,2.676474862E-2
3.405534099E1,-2.689790726E-2,-5.805686861E-2,3.262370080E-2
3.407547771E1,-1.358211134E-2,1.331579592E-2,3.049317189E-2
3.409574604E1,-1.944106072E-2,2.183790505E-2,2.516685426E-2
3.411601438E1,-3.755054250E-2,-2.609895915E-2,1.611211337E-2
3.413628276E1,-4.287686199E-2,-7.936213911E-2,7.057371549E-3
3.415655110E1,-2.423474751E-2,-8.096003532E-2,5.992108025E-3
3.417695110E1,7.190529723E-3,-2.769685537E-2,7.590003312E-3
3.419708776E1,3.115896136E-2,3.448791057E-2,8.655266836E-3
3.421735610E1,4.021370411E-2,6.058686972E-2,1.131842658E-2
3.423762443E1,3.382211924E-2,4.993423447E-2,1.078579482E-2
3.425789281E1,2.157158963E-2,2.396843210E-2,1.238369010E-2
3.427816115E1,1.145158429E-2,8.522109129E-3,5.992108025E-3
3.429842948E1,7.190529723E-3,9.054740891E-3,-6.258423906E-3
3.431882948E1,7.723161485E-3,3.249054030E-2,-1.211737376E-2
3.433896615E1,8.788425475E-3,6.751108170E-2,-8.921583183E-3
3.435923453E1,-3.462106921E-3,9.414267540E-2,6.657897611E-4
3.437950287E1,-3.009369783E-2,1.005342528E-1,9.187898599E-3
3.439977120E1,-5.193160102E-2,7.123950869E-2,5.459476262E-3
3.442003953E1,-7.163897902E-2,1.864211448E-2,-1.371526904E-2
3.444030792E1,-8.961530030E-2,-3.888212144E-2,-4.514054582E-2
3.446057620E1,-9.227846563E-2,-1.043958366E-1,-6.165213138E-2
3.448084458E1,-7.430213690E-2,-1.438105851E-1,-5.313002318E-2
3.450111292E1,-4.500738904E-2,-1.134505793E-1,-2.010685205E-2
3.452138125E1,-6.125265732E-3,-1.225053146E-2,1.291632187E-2
3.454164958E1,3.648528084E-2,1.095889956E-1,2.143843099E-2
3.456191792E1,6.151897460E-2,1.964079887E-1,1.025316212E-2
3.458218625E1,6.844318658E-2,1.862879843E-1,-8.388951421E-3
3.460245464E1,5.459476262E-2,1.122521535E-1,-2.010685205E-2
3.462272297E1,2.530001104E-2,2.663159184E-2,-2.330264263E-2
3.464299130E1,-7.723161485E-3,-2.396843210E-2,-2.010685205E-2
3.466325964E1,-3.488738462E-2,-3.994738683E-2,-1.265000552E-2
3.468352797E1,-4.820318148E-2,-2.609895915E-2,1.198421582E-3
3.470379630E1,-3.968106955E-2,-1.225053146E-2,1.398158539E-2
3.472406464E1,-4.021370411E-2,-2.290316857E-2,2.037316747E-2
3.474433292E1,-5.619265884E-2,-7.829687744E-2,2.197106183E-2
3.476460130E1,-7.004108280E-2,-1.581916511E-1,2.090579830E-2
3.478486964E1,-6.897582114E-2,-2.125200927E-1,1.984053478E-2
3.480513797E1,-5.246423557E-2,-1.992042959E-1,1.504684892E-2
3.482540630E1,-2.103895694E-2,-1.347558498E-1,3.328948980E-3
3.484567464E1,1.145158429E-2,-5.432844535E-2,-8.388951421E-3
3.486594297E1,3.808317333E-2,1.384842768E-2,-1.105211023E-2
3.488621130E1,5.352949724E-2,5.046686530E-2,-9.321057005E-4
3.490647964E1,6.045371294E-2,6.325002760E-2,1.771000773E-2
3.492674802E1,5.672528967E-2,4.833633825E-2,3.741738573E-2
3.494701630E1,4.127896577E-2,1.491369121E-2,4.593949392E-2
3.496728469E1,1.145158429E-2,-2.929474972E-2,4.221107066E-2
3.498755297E1,-2.476738021E-2,-7.563371956E-2,2.516685426E-2
3.500782130E1,-5.086633936E-2,-1.251684725E-1,1.198421582E-3
3.502808959E1,-5.938844755E-2,-1.592569202E-1,-1.584579609E-2
3.504848958E1,-4.820318148E-2,-1.422126889E-1,-1.637842879E-2
3.506862636E1,-2.210422046E-2,-9.747162461E-2,-7.323687430E-3
3.508889464E1,6.657897960E-3,-5.752423778E-2,2.263685223E-3
3.510916297E1,2.423474751E-2,-2.024000883E-2,1.025316212E-2
3.512943130E1,3.488738462E-2,1.810948178E-2,1.930790395E-2
3.514983130E1,3.968106955E-2,3.874896467E-2,2.250369452E-2
3.517012578E1,3.169159219E-2,2.716422267E-2,1.557948068E-2
3.519023688E1,1.571263932E-2,-2.503369562E-2,8.655266836E-3
3.521050516E1,-7.190529723E-3,-8.468846232E-2,4.394212738E-3
3.523077339E1,-2.956106514E-2,-1.161137372E-1,2.796316985E-3
3.525117339E1,-4.074633494E-2,-1.033305749E-1,4.926844500E-3
3.527130995E1,-3.648528084E-2,-7.297056168E-2,1.185105834E-2
3.529157818E1,-2.316948399E-2,-5.326318368E-2,8.122635074E-3
3.531184646E1,-7.190529723E-3,-4.953476042E-2,-3.062632866E-3
3.533211474E1,7.723161485E-3,-4.314317927E-2,-8.921583183E-3
3.535251474E1,1.784316637E-2,-1.864211448E-2,-6.258423906E-3
3.537265136E1,1.837579720E-2,1.065263618E-2,5.992108025E-3
3.539291969E1,1.145158429E-2,1.810948178E-2,1.291632187E-2
3.541318797E1,-1.331579522E-3,-5.858949851E-3,6.524739787E-3
3.543345625E1,-1.251684781E-2,-3.888212144E-2,-5.725792143E-3
3.545385625E1,-1.624527015E-2,-5.006739125E-2,-1.211737376E-2
3.547399292E1,-8.255792782E-3,-2.396843210E-2,-8.388951421E-3
3.549426125E1,4.527370445E-3,1.597895473E-2,6.657897611E-4
3.551452959E1,1.731053367E-2,4.141212255E-2,9.720530361E-3
3.553479792E1,1.784316637E-2,4.620581120E-2,8.122635074E-3
3.555519792E1,8.788425475E-3,3.249054030E-2,1.331579551E-4
3.557533453E1,-5.592633970E-3,1.810948178E-2,-8.921583183E-3
3.559560287E1,-1.304947957E-2,1.278316416E-2,-1.318263728E-2
3.561587120E1,-1.251684781E-2,1.544632297E-2,-1.211737376E-2
3.563613948E1,-4.527370445E-3,1.597895473E-2,-8.388951421E-3
3.565640781E1,7.723161485E-3,2.503369562E-2,-3.595264861E-3
3.567667610E1,1.837579720E-2,5.366265774E-2,1.198421582E-3
3.569694443E1,2.849580161E-2,8.934898674E-2,6.524739787E-3
3.571721271E1,4.021370411E-2,1.117195264E-1,1.185105834E-2
3.573748104E1,4.447475821E-2,1.181111038E-1,1.344895363E-2
3.575774938E1,3.914843872E-2,1.058605760E-1,1.131842658E-2
3.577801766E1,3.062633052E-2,8.295740932E-2,7.057371549E-3
3.579828599E1,2.263685316E-2,5.685844645E-2,4.394212738E-3
3.581855432E1,1.890842989E-2,4.087949172E-2,3.328948980E-3
3.583882261E1,1.145158429E-2,3.874896467E-2,2.263685223E-3
3.585909094E1,3.462106921E-3,4.620581120E-2,2.796316985E-3
3.587935927E1,2.929474926E-3,5.153212696E-2,3.861580743E-3
3.589970630E1,7.190529723E-3,5.206476152E-2,2.796316985E-3
3.591989599E1,1.304947957E-2,5.153212696E-2,1.731053460E-3
3.594016427E1,1.731053367E-2,4.567318037E-2,-9.321057005E-4
3.596043261E1,1.571263932E-2,3.661843762E-2,1.331579551E-4
3.598070089E1,7.723161485E-3,2.716422267E-2,-1.464737463E-3
3.600096922E1,2.663159103E-4,1.757685095E-2,-1.997369342E-3
3.602123755E1,-6.657897960E-3,1.384842768E-2,-5.193160381E-3
3.604150584E1,-7.190529723E-3,1.278316416E-2,-6.258423906E-3
3.606177417E1,-7.989477599E-4,8.522109129E-3,-6.791055668E-3
3.608204245E1,1.518000662E-2,-0.000000000E0,-1.464737463E-3
3.610231078E1,2.476738021E-2,-5.326318205E-4,8.655266836E-3
3.612257912E1,1.997369342E-2,1.012000442E-2,1.877527125E-2
3.614284740E1,4.527370445E-3,1.544632297E-2,2.090579830E-2
3.616311568E1,-5.592633970E-3,-1.065263641E-3,1.930790395E-2
3.618338396E1,-3.994738683E-3,-3.568633273E-2,1.291632187E-2
3.620365229E1,2.396843163E-3,-6.285055727E-2,2.263685223E-3
3.622392058E1,5.060002208E-3,-6.604634225E-2,-5.725792143E-3
3.624418880E1,-1.331579522E-3,-4.314317927E-2,-5.725792143E-3
3.626445719E1,-1.091895252E-2,-1.491369121E-2,1.331579551E-4
3.628472552E1,-1.518000662E-2,-4.261054564E-3,7.590003312E-3
3.630499386E1,-1.464737486E-2,-1.491369121E-2,1.504684892E-2
3.632526214E1,-2.210422046E-2,-3.408843651E-2,1.877527125E-2
3.634566214E1,-3.382211924E-2,-4.953476042E-2,1.877527125E-2
3.636579875E1,-3.648528084E-2,-5.006739125E-2,1.717737690E-2
3.638606708E1,-2.263685316E-2,-3.302317113E-2,1.877527125E-2
3.640633537E1,-7.989477599E-4,1.597895520E-3,2.250369452E-2
3.642660370E1,2.636527456E-2,4.780370742E-2,2.410159074E-2
3.644687198E1,4.873581231E-2,9.254477918E-2,3.102580272E-2
3.646714031E1,6.791055948E-2,1.282311082E-1,4.167843983E-2
3.648740860E1,7.856319100E-2,1.314269006E-1,4.700475931E-2
3.650767693E1,7.643266767E-2,1.037300453E-1,4.753739014E-2
3.652794521E1,6.045371294E-2,6.591318548E-2,4.487423226E-2
3.654833229E1,4.287686199E-2,4.301001877E-2,4.860265180E-2
3.656863974E1,3.648528084E-2,5.313002318E-2,5.339634046E-2
3.658875073E1,3.968106955E-2,8.295740932E-2,5.552686751E-2
3.660901886E1,4.234423116E-2,1.133174226E-1,5.978792161E-2
3.662928714E1,4.500738904E-2,1.303616315E-1,6.298371404E-2
3.664968714E1,5.086633936E-2,1.372858584E-1,6.884266436E-2
3.666982365E1,6.258423626E-2,1.426121742E-1,6.990792602E-2
3.669009188E1,6.950845569E-2,1.537974328E-1,6.617950648E-2
3.671036011E1,6.258423626E-2,1.660479754E-1,5.872265995E-2
3.673062839E1,4.607265070E-2,1.671132296E-1,4.487423226E-2
3.675102839E1,3.648528084E-2,1.447426975E-1,2.569948509E-2
3.677116490E1,3.808317333E-2,1.133174226E-1,9.187898599E-3
3.679143318E1,3.382211924E-2,9.254477918E-2,-3.994738800E-4
3.681170146E1,2.796317078E-2,8.881635964E-2,-1.997369342E-3
3.683196974E1,1.944106072E-2,8.189214021E-2,1.185105834E-2
3.685236974E1,7.989477599E-4,3.608580679E-2,1.930790395E-2
3.687250636E1,-1.837579720E-2,-4.793686420E-2,2.263685223E-3
3.689277464E1,-3.382211924E-2,-1.512674391E-1,-2.756369673E-2
3.691304292E1,-5.406212807E-2,-2.258358896E-1,-4.460791498E-2
3.693331120E1,-7.430213690E-2,-2.854906619E-1,-4.727107286E-2
3.695357953E1,-8.495477587E-2,-3.579285741E-1,-4.620581120E-2
3.697384781E1,-8.122635633E-2,-3.968107104E-1,-3.821633384E-2
3.699411610E1,-7.323687524E-2,-4.032022953E-1,-1.371526904E-2
3.701438443E1,-7.110634446E-2,-3.739075363E-1,1.291632187E-2
3.703465271E1,-6.524740160E-2,-3.312969804E-1,3.901528195E-2
3.705492094E1,-5.033370852E-2,-2.886864543E-1,5.712476373E-2
3.707518922E1,-2.796317078E-2,-2.519348562E-1,6.138581783E-2
3.709545755E1,-1.198421605E-2,-2.428801060E-1,5.233107507E-2
3.711572584E1,-9.321057238E-3,-2.482064217E-1,3.901528195E-2
3.713599412E1,-1.837579720E-2,-2.119874656E-1,3.901528195E-2
3.715626240E1,-2.583264373E-2,-1.379516423E-1,3.954791278E-2
3.717666240E1,-3.755054250E-2,-6.285055727E-2,3.741738573E-2
3.719679896E1,-6.950845569E-2,-1.331579592E-2,3.049317189E-2
3.721706729E1,-9.920267761E-2,-2.503369562E-2,1.344895363E-2
3.723733558E1,-1.023984700E-1,-8.096003532E-2,-4.660528619E-3
3.725760386E1,-7.909582555E-2,-9.534109384E-2,-1.158474199E-2
3.727787219E1,-3.914843872E-2,-3.142527863E-2,-1.464737463E-3
3.729814047E1,1.571263932E-2,8.455529809E-2,1.664474420E-2
3.731840875E1,6.791055948E-2,2.145174593E-1,2.356895804E-2
3.733867703E1,1.046621501E-1,3.162501454E-1,1.344895363E-2
3.735894531E1,1.217063740E-1,3.705785871E-1,-8.388951421E-3
3.737921360E1,1.280979514E-1,3.732417524E-1,-3.289001435E-2
3.739948188E1,1.222390011E-1,3.338269889E-1,-5.366265774E-2
3.741975016E1,1.004010960E-1,2.645848691E-1,-6.058686972E-2
3.744001844E1,5.672528967E-2,1.772332340E-1,-5.952160433E-2
3.746028677E1,-1.864211401E-3,6.538055837E-2,-4.194475710E-2
3.748055505E1,-6.524740160E-2,-4.101264849E-2,-2.277000993E-2
3.750082334E1,-1.103879437E-1,-1.251684725E-1,-7.856319658E-3
3.752109162E1,-1.274321675E-1,-1.763011366E-1,-7.323687430E-3
3.754135990E1,-1.237037405E-1,-1.885516644E-1,-1.158474199E-2
3.756162818E1,-9.068056941E-2,-1.629853398E-1,-1.691105962E-2
3.758189646E1,-3.169159219E-2,-8.628635854E-2,-1.637842879E-2
3.760216469E1,3.488738462E-2,3.249054030E-2,-1.158474199E-2
3.762243308E1,8.548741043E-2,1.351553202E-1,-7.323687430E-3
3.764270136E1,1.046621501E-1,1.767006069E-1,-6.258423906E-3
3.766296964E1,9.507478029E-2,1.527321786E-1,-9.454214945E-3
3.768323792E1,6.418213248E-2,8.029424399E-2,-1.158474199E-2
3.770350620E1,2.689790726E-2,-5.858949851E-3,-5.725792143E-3
3.772377448E1,-1.198421605E-2,-8.841688186E-2,4.926844500E-3
3.774404276E1,-5.033370852E-2,-1.597895473E-1,1.238369010E-2
3.776431110E1,-7.376950979E-2,-2.221074700E-1,1.984053478E-2
3.778457938E1,-8.229161799E-2,-2.434127480E-1,2.197106183E-2
3.780484766E1,-7.270424068E-2,-2.183790505E-1,2.569948509E-2
3.782511594E1,-4.820318148E-2,-1.805621833E-1,2.250369452E-2
3.784538422E1,-2.689790726E-2,-1.560611278E-1,1.984053478E-2
3.786565250E1,-1.944106072E-2,-1.459411234E-1,1.557948068E-2
3.788592078E1,-1.677790284E-2,-1.411474347E-1,1.557948068E-2
3.790618906E1,-1.304947957E-2,-1.225053221E-1,1.717737690E-2
3.792645734E1,-4.527370445E-3,-9.321057051E-2,1.930790395E-2
3.794672568E1,2.929474926E-3,-5.539371073E-2,1.930790395E-2
3.796699396E1,8.788425475E-3,-2.077264152E-2,8.655266836E-3
3.798726224E1,1.624527015E-2,1.012000442E-2,-3.994738800E-4
3.800753052E1,3.275685757E-2,4.247738793E-2,1.198421582E-3
3.802779880E1,4.234423116E-2,6.325002760E-2,8.655266836E-3
3.804806714E1,3.542001545E-2,6.378266215E-2,4.394212738E-3
3.806833542E1,1.038632076E-2,4.301001877E-2,-9.454214945E-3
3.808860370E1,-1.677790284E-2,1.757685095E-2,-3.022685647E-2
3.810887198E1,-2.956106514E-2,1.225053146E-2,-4.993423447E-2
3.812914026E1,-2.583264373E-2,2.130527236E-2,-6.165213138E-2
3.814954026E1,-1.198421605E-2,3.036001325E-2,-6.910897791E-2
3.816967688E1,3.994738683E-3,3.661843762E-2,-6.591318548E-2
3.818994516E1,1.358211134E-2,4.407528415E-2,-6.058686972E-2
3.821021344E1,1.304947957E-2,6.058686972E-2,-5.632581562E-2
3.823048172E1,6.125265732E-3,8.295740932E-2,-5.153212696E-2
3.825088172E1,2.396843163E-3,8.934898674E-2,-3.715106845E-2
3.827101834E1,6.125265732E-3,7.283740491E-2,-1.637842879E-2
3.829128662E1,1.038632076E-2,4.514054582E-2,-3.994738800E-4
3.831155490E1,4.527370445E-3,2.609895915E-2,1.185105834E-2
3.833182323E1,-8.255792782E-3,2.716422267E-2,1.504684892E-2
3.835222323E1,-1.624527015E-2,4.247738793E-2,1.504684892E-2
3.837235979E1,-3.462106921E-3,4.460791498E-2,1.664474420E-2
3.839262808E1,2.636527456E-2,3.502054140E-2,2.143843099E-2
3.841289636E1,4.607265070E-2,5.739107728E-2,2.516685426E-2
3.843316469E1,5.352949724E-2,1.053279415E-1,1.238369010E-2
3.845356469E1,6.524740160E-2,1.479384899E-1,-8.921583183E-3
3.847370125E1,7.643266767E-2,1.713742912E-1,-1.637842879E-2
3.849396948E1,7.856319100E-2,1.687111259E-1,-2.223737910E-2
3.851423781E1,6.578002870E-2,1.261005849E-1,-1.744369231E-2
3.853450615E1,4.021370411E-2,4.940159991E-2,-2.530001104E-3
3.855477443E1,3.462106921E-3,-4.740423337E-2,1.185105834E-2
3.857504271E1,-3.861580789E-2,-1.241032109E-1,2.143843099E-2
3.859531099E1,-7.536740601E-2,-1.603221744E-1,2.463422157E-2
3.861557933E1,-9.121319652E-2,-1.656484902E-1,2.410159074E-2
3.863584761E1,-8.069372177E-2,-1.486042738E-1,1.930790395E-2
3.865611589E1,-5.139897019E-2,-1.017326787E-1,1.131842658E-2
3.867638417E1,-1.731053367E-2,-3.249054030E-2,1.731053460E-3
3.869665245E1,1.358211134E-2,3.928159550E-2,-1.105211023E-2
3.871692078E1,4.127896577E-2,9.201214463E-2,-2.436790615E-2
3.873718906E1,6.418213248E-2,1.165132076E-1,-2.916159295E-2
3.875745735E1,7.803056389E-2,1.223721579E-1,-2.277000993E-2
3.877772563E1,8.388951421E-2,1.037300453E-1,-1.051947847E-2
3.879799391E1,7.004108280E-2,7.496792823E-2,4.394212738E-3
3.881826224E1,3.595264629E-2,6.218476593E-2,1.238369010E-2
3.883853047E1,-5.060002208E-3,6.111950055E-2,1.025316212E-2
3.885879880E1,-2.902843431E-2,4.940159991E-2,-1.464737463E-3
3.887906714E1,-3.382211924E-2,1.651158556E-2,-1.637842879E-2
3.889933542E1,-3.435475379E-2,-3.888212144E-2,-2.756369673E-2
3.891960370E1,-2.956106514E-2,-1.033305749E-1,-2.969422378E-2
3.893987198E1,-2.849580161E-2,-1.475390196E-1,-2.596580051E-2
3.896014031E1,-3.275685757E-2,-1.432779580E-1,-1.744369231E-2
3.898040860E1,-3.488738462E-2,-1.091895252E-1,-2.530001104E-3
3.900067688E1,-2.636527456E-2,-7.137266546E-2,1.185105834E-2
3.902094516E1,-7.190529723E-3,-5.379581451E-2,2.143843099E-2
3.904121344E1,9.321057238E-3,-5.645897239E-2,2.250369452E-2
3.906148177E1,1.411474310E-2,-6.285055727E-2,1.398158539E-2
3.908175005E1,7.723161485E-3,-5.752423778E-2,-1.997369342E-3
3.910201834E1,-2.929474926E-3,-3.675159439E-2,-2.490053698E-2
3.912228662E1,-9.321057238E-3,-3.408843651E-2,-4.514054582E-2
3.914255490E1,-1.837579720E-2,-5.858949944E-2,-5.046686530E-2
3.916282323E1,-3.328948840E-2,-9.321057051E-2,-3.395527974E-2
3.918309151E1,-4.713791609E-2,-1.235705838E-1,-9.986846708E-3
3.920335979E1,-4.926844314E-2,-1.406148076E-1,1.451421715E-2
3.922362808E1,-4.287686199E-2,-1.422126889E-1,2.569948509E-2
3.924389636E1,-3.595264629E-2,-1.438105851E-1,2.143843099E-2
3.926416469E1,-2.849580161E-2,-1.539305896E-1,1.291632187E-2
3.928443297E1,-1.784316637E-2,-1.635179669E-1,8.655266836E-3
3.930470125E1,-7.190529723E-3,-1.448758543E-1,1.078579482E-2
3.932496953E1,3.462106921E-3,-8.575372398E-2,2.250369452E-2
3.934523781E1,1.411474310E-2,-6.924213842E-3,3.795001656E-2
3.936550615E1,2.050632425E-2,4.886896908E-2,4.380896688E-2
3.938577443E1,1.464737486E-2,5.259739235E-2,3.901528195E-2
3.940604271E1,-6.125265732E-3,1.651158556E-2,2.463422157E-2
3.942631099E1,-2.902843431E-2,-2.450106293E-2,1.331579551E-4
3.944657927E1,-3.222422674E-2,-4.687159881E-2,-1.637842879E-2
3.946684761E1,-1.518000662E-2,-3.781685978E-2,-2.170474641E-2
3.948711589E1,3.994738683E-3,-6.391582079E-3,-1.584579609E-2
3.950738417E1,1.571263932E-2,3.555317223E-2,-1.997369342E-3
3.952765245E1,2.050632425E-2,6.804371625E-2,1.291632187E-2
3.954788141E1,2.050632425E-2,7.230477035E-2,1.824264042E-2
3.956818901E1,1.890842989E-2,4.194475710E-2,1.025316212E-2
3.958845729E1,8.255792782E-3,-1.118526794E-2,6.657897611E-4
3.960872563E1,2.663159103E-4,-6.657897681E-2,-6.258423906E-3
3.962899391E1,-4.527370445E-3,-1.043958366E-1,-3.595264861E-3
3.964939391E1,-1.198421605E-2,-1.070589945E-1,6.657897611E-4
3.966953047E1,-1.784316637E-2,-9.001477808E-2,-3.994738800E-4
3.968979875E1,-1.624527015E-2,-8.149266988E-2,-1.464737463E-3
3.971006703E1,-1.145158429E-2,-7.616634667E-2,-4.127896391E-3
3.973033537E1,-1.358211134E-2,-7.403582335E-2,-6.258423906E-3
3.975073537E1,-1.890842989E-2,-7.403582335E-2,-8.921583183E-3
3.977087193E1,-2.263685316E-2,-7.563371956E-2,-1.211737376E-2
3.979114021E1,-2.050632425E-2,-6.870950758E-2,-1.584579609E-2
3.981140849E1,-1.358211134E-2,-5.166528746E-2,-1.904158667E-2
3.983167677E1,-7.190529723E-3,-2.769685537E-2,-2.223737910E-2
3.985207677E1,-2.663159103E-4,-2.130527282E-3,-2.383527346E-2
3.987221334E1,3.994738683E-3,2.556632832E-2,-1.957421936E-2
3.989248167E1,9.853689000E-3,5.632581562E-2,-1.531316526E-2
3.991274990E1,2.370211668E-2,8.562056720E-2,-1.051947847E-2
3.993301823E1,4.394212365E-2,1.085237339E-1,-9.321057005E-4
3.995328651E1,5.352949724E-2,1.319595277E-1,7.057371549E-3
3.997355479E1,5.193160102E-2,1.383511126E-1,1.238369010E-2
3.999382308E1,4.181159660E-2,1.186437383E-1,1.664474420E-2
4.001409136E1,2.583264373E-2,8.828372508E-2,1.504684892E-2
4.003435964E1,1.198421605E-2,5.472791940E-2,1.025316212E-2
4.005475964E1,5.060002208E-3,2.130527236E-2,7.057371549E-3
4.007489620E1,-2.396843163E-3,-5.326318205E-4,8.122635074E-3
4.009516448E1,-1.091895252E-2,-2.663159044E-3,1.131842658E-2
4.011543276E1,-1.145158429E-2,-5.326318205E-4,1.451421715E-2
4.013570110E1,4.527370445E-3,5.858949851E-3,1.398158539E-2
4.015596938E1,3.169159219E-2,2.982738242E-2,1.078579482E-2
4.017623766E1,6.045371294E-2,6.325002760E-2,2.796316985E-3
4.019650594E1,7.430213690E-2,8.295740932E-2,1.731053460E-3
4.021677422E1,7.430213690E-2,7.763108611E-2,9.187898599E-3
4.023704250E1,5.672528967E-2,6.218476593E-2,2.516685426E-2
4.025731078E1,2.636527456E-2,5.259739235E-2,3.741738573E-2
4.027757906E1,7.989477599E-4,5.259739235E-2,3.049317189E-2
4.029784734E1,-1.091895252E-2,5.739107728E-2,1.025316212E-2
4.031811563E1,-8.255792782E-3,6.751108170E-2,-9.454214945E-3
