"Time (s)","Acceleration x (m/s^2)","Acceleration y (m/s^2)","Acceleration z (m/s^2)"
1.009938200E-2,-9.189037323E0,5.484947681E0,1.515254974E0
3.030620500E-2,-8.355736732E0,5.372485161E0,1.809572101E0
5.071016300E-2,-7.285546780E0,5.334199905E0,2.492124796E0
7.085375700E-2,-7.149155617E0,5.327021599E0,2.786442041E0
9.112646500E-2,-7.321439266E0,5.401198864E0,2.834298372E0
1.113986530E-1,-7.354938507E0,5.496912003E0,3.220141172E0
1.316705280E-1,-6.574280262E0,5.537590027E0,3.497708559E0
1.519420900E-1,-5.822335720E0,5.805585861E0,3.722633839E0
1.722133400E-1,-5.161916733E0,5.800800323E0,3.911666870E0
1.924844340E-1,-4.730610371E0,6.008975983E0,3.911666870E0
2.127554240E-1,-3.847060680E0,6.138188362E0,3.985844374E0
2.330262050E-1,-2.638087034E0,5.748157978E0,5.578267574E0
2.532969860E-1,-2.066202402E0,5.027320385E0,7.316653252E0
2.735676110E-1,-2.197807550E0,4.129413605E0,9.030512810E0
2.938382360E-1,-2.183450699E0,4.069592953E0,1.025623608E1
3.141087570E-1,-1.479362607E0,5.017749310E0,1.120439243E1
3.343792780E-1,-3.661018610E-1,4.974678040E0,1.207837009E1
3.546496940E-1,7.016952634E-1,3.552743435E0,1.190608692E1
3.749201630E-1,1.386640668E0,3.064009428E0,1.133599758E1
3.951905280E-1,2.358724833E0,2.645265341E0,1.046261692E1
4.154609440E-1,3.637090445E0,2.024926186E0,9.421140671E0
4.357313090E-1,3.917050600E0,2.067996979E0,1.006959629E1
4.560016740E-1,2.648256540E0,2.786442041E0,1.081436157E1
4.762720380E-1,1.925025821E0,2.776870728E0,1.019641590E1
4.965424030E-1,9.888339639E-1,3.160320520E0,9.760921478E0
5.168127150E-1,2.307877541E0,4.881358147E0,8.304888725E0
5.372127150E-1,4.161118507E0,4.993820667E0,7.110272408E0
5.573533920E-1,4.475176334E0,4.639683247E0,8.192426682E0
5.776237570E-1,3.383451223E0,4.673182487E0,8.702695847E0
5.978940690E-1,6.514459848E-1,4.692325115E0,9.777671814E0
6.181643820E-1,3.044866920E-1,5.180460930E0,9.480961800E0
6.385643820E-1,3.205784082E0,3.658027649E0,6.325426579E0
6.587050070E-1,4.479962349E0,2.015354872E0,6.232106686E0
6.789753710E-1,2.906681299E0,2.784049034E0,9.032905579E0
6.992456840E-1,1.429711580E0,4.261617184E0,8.736195564E0
7.195159960E-1,1.499103427E0,4.007379532E0,7.350152969E0
7.399159960E-1,2.863610506E0,1.960319996E0,6.835097790E0
7.600566740E-1,4.496711731E0,2.000998020E0,8.242675781E0
7.803269860E-1,7.091728210E0,2.226521492E0,9.653244972E0
8.005972990E-1,7.345367432E0,3.210569859E0,8.839086533E0
8.208676110E-1,6.284748554E0,2.733799934E0,8.410771370E0
8.412676110E-1,5.782256126E0,2.733799934E0,7.524828911E0
8.614082360E-1,5.080560684E0,2.705085993E0,5.386841774E0
8.816785490E-1,6.174678802E0,2.207378864E0,4.278367043E0
9.019489130E-1,8.327022552E0,1.941177368E0,5.216951370E0
9.222192260E-1,8.810971260E0,3.241676569E0,6.643671989E0
9.426192260E-1,7.917850018E0,2.659622431E0,6.212365627E0
9.627598510E-1,6.866802692E0,5.862415433E-1,4.792823792E0
9.830301630E-1,5.834897995E0,4.761717021E-1,4.127020836E0
1.003300528E0,5.988038540E0,6.628118753E-1,4.074378967E0
1.023574799E0,7.604390144E0,9.690931439E-1,4.627718925E0
1.043879694E0,8.961718559E0,9.810572863E-1,5.360520840E0
1.064110892E0,8.470592499E0,7.106683254E-1,4.701896667E0
1.084381361E0,7.034300327E0,9.547362328E-1,3.715455294E0
1.104651778E0,6.912266254E0,1.555334777E-1,2.145165443E0
1.124922142E0,8.696115494E0,-9.152546525E-2,1.194616675E0
1.145192507E0,1.066421223E1,2.129612118E-1,3.075973511E0
1.165462924E0,1.094178009E1,8.374879509E-2,4.699503899E0
1.185733288E0,9.873982430E0,3.110669367E-2,3.032902718E0
1.206003653E0,9.222537041E0,3.206382394E-1,-1.154536903E-1
1.226274017E0,9.485747337E0,4.570291340E-1,-1.611566067E0
1.246544382E0,9.535996437E0,9.571290575E-3,-3.164508045E-1
1.266814694E0,9.644271851E0,-7.160521746E-1,2.440679073E-1
1.287085007E0,1.088913727E1,-1.252642632E0,7.776673436E-1
1.307355371E0,1.091306591E1,-2.272583246E0,2.678765059E0
1.327625788E0,9.773484230E0,-1.786242127E0,1.051047325E0
1.347896101E0,1.021854877E1,-1.869990945E0,-1.848455518E-1
1.368166465E0,1.046500969E1,-2.607578516E0,7.417750359E-2
1.388436778E0,1.146820068E1,-2.542972326E0,4.953143001E-1
1.408707090E0,9.948160172E0,-1.336391449E0,-3.738785386E-1
1.428977455E0,8.947361946E0,-7.567301393E-1,-8.309076428E-1
1.449247819E0,9.780662537E0,-2.138585329E0,-1.974078640E-2
1.469518132E0,9.004789352E0,-3.467200041E0,5.072783828E-1
1.489788496E0,8.001599312E0,-3.220739365E0,3.613162339E-1
1.510058861E0,1.190668583E1,-4.190430641E0,-7.064808607E-1
1.530329174E0,9.902696609E0,-5.114060402E0,-9.625129104E-1
1.550599538E0,8.722436905E0,-4.822135925E0,3.206382394E-1
1.570869903E0,9.033503532E0,-5.916254044E0,6.723831892E-1
1.591140215E0,8.528019905E0,-6.342774391E0,8.159525394E-1
1.611410580E0,9.296713829E0,-6.179464340E0,-9.571290575E-3
1.631680944E0,9.538389206E0,-5.519045353E0,1.746760458E-1
1.651951309E0,9.325428009E0,-5.370690346E0,2.871387079E-2
1.672221674E0,8.655437469E0,-4.551746845E0,-1.831705689E0
1.692492038E0,7.848458290E0,-4.077369690E0,-6.610172391E-1
1.712762403E0,6.692126751E0,-3.768695593E0,2.063211441E0
1.733032819E0,6.682555676E0,-2.686541557E0,2.518445730E0
1.753303236E0,7.628318787E0,-1.649851203E0,9.978070259E-1
1.773573601E0,7.874779224E0,-1.422533035E0,-1.255035520E0
1.793843965E0,7.836493969E0,-1.200000525E0,-2.621935368E0
1.814114382E0,8.715258598E0,-1.384247899E0,-2.631506681E0
1.834384746E0,9.559925079E0,-2.231905222E0,-1.628315806E0
1.854655111E0,1.107338524E1,-2.471187592E0,5.575276613E-1
1.874925528E0,9.876375198E0,-2.772683144E0,-3.379862010E-1
1.895195944E0,8.748757362E0,-2.748754978E0,-1.941775560E0
1.915466309E0,8.827720642E0,-3.536591768E0,-2.497508526E0
1.935736726E0,9.495318413E0,-3.952943087E0,-2.334796667E0
1.956007142E0,9.143573761E0,-4.238286972E0,-2.095514536E0
1.976277507E0,8.799007416E0,-4.477569580E0,-1.654636860E0
1.996547924E0,9.559925079E0,-5.464010715E0,-1.869990945E0
2.016818340E0,8.954540253E0,-5.149952412E0,-1.714457393E0
2.037088757E0,6.677769661E0,-5.092525005E0,-1.623530149E0
2.057359174E0,7.314260483E0,-5.318048477E0,-2.877967358E0
2.077629590E0,7.283154011E0,-4.956133842E0,-3.455235958E0
2.097900007E0,6.303891182E0,-5.770291805E0,-3.254238844E0
2.118170424E0,2.775076151E0,-7.867600918E0,-3.759124279E0
2.138570424E0,9.337990284E-1,-9.141180992E0,-3.797409534E0
2.158711309E0,1.297508121E0,-9.203393936E0,-2.638685226E0
2.178981726E0,4.402793884E0,-1.050150013E1,-2.581257343E0
2.199252142E0,6.866802692E0,-9.076574326E0,-2.351546526E0
2.219522611E0,6.582056999E0,-7.015157700E0,-3.254238844E0
2.239922611E0,6.251249313E0,-5.870790482E0,-5.997610092E0
2.260063496E0,4.513461590E0,-6.102894306E0,-7.185048103E0
2.280333965E0,3.131606579E0,-6.680162430E0,-6.450451851E0
2.300604382E0,3.375674486E0,-7.201797962E0,-4.489533424E0
2.320874851E0,3.878765583E0,-6.739983082E0,-2.796611547E0
2.341274851E0,3.407379389E0,-7.637889862E0,-1.769492388E0
2.361415736E0,1.752742529E0,-8.626724243E0,-1.240678549E0
2.381686205E0,1.122832060E0,-1.073121166E1,-1.664208174E0
2.401956674E0,1.791027784E0,-1.167218876E1,-1.834098577E0
2.422227142E0,2.796611547E0,-1.023051357E1,-1.879562140E0
2.442627142E0,4.060619831E0,-9.023932457E0,-1.266999602E0
2.462768080E0,3.864408493E0,-8.660223007E0,1.028913707E-1
2.483038549E0,3.419343472E0,-9.181859016E0,7.896314859E-1
2.503309069E0,3.634697676E0,-1.036451149E1,1.488933921E0
2.523579590E0,3.457628727E0,-1.198564816E1,2.286342144E0
2.543850059E0,2.899502754E0,-1.306301689E1,1.615753531E0
2.564257976E0,2.293520451E0,-1.238525009E1,1.524826288E0
2.584539590E0,1.664208174E0,-1.091306591E1,1.165902853E0
2.604654590E0,1.305284739E0,-6.629913330E0,3.828516304E-1
2.624925007E0,1.434497118E0,-6.964908600E0,-2.327020019E-1
2.645326517E0,9.266205430E-1,-1.138684464E1,-7.238288224E-2
2.665468601E0,1.185045362E0,-1.356132221E1,3.182454109E-1
2.685739955E0,1.678565025E0,-1.218185997E1,2.536391914E-1
2.706011153E0,1.141974568E0,-9.744770050E0,-9.672985673E-1
2.726282194E0,7.088736892E-1,-8.339585304E0,-1.250249863E0
2.746553132E0,6.849454641E-1,-8.751151085E0,2.847459018E-1
2.766824069E0,9.242277741E-1,-1.052542877E1,2.394019127E0
2.787094903E0,2.444866419E0,-8.755936623E0,4.503292084E0
2.807365632E0,1.719243050E0,-1.076949692E1,5.240880013E0
2.827636257E0,8.614161611E-2,-1.210289669E1,5.163711071E0
2.847906986E0,-1.363908947E-1,-9.107681274E0,4.426722050E0
2.868177611E0,3.619144261E-1,-8.667402267E0,2.614158630E0
2.888448184E0,4.097708762E-1,-8.897112846E0,-2.483151674E0
2.908718809E0,6.227321029E-1,-9.598808289E0,-5.263013363E0
2.928989382E0,1.372283816E0,-9.907482147E0,-2.593221426E0
2.949259955E0,2.519043922E0,-9.739984512E0,-3.882354796E-1
2.969530528E0,3.448057413E0,-8.952147484E0,1.254437327E0
2.989801101E0,2.609971285E0,-9.555737495E0,1.220339537E-1
3.010071674E0,2.145165443E0,-9.538987160E0,4.426721931E-1
3.030342194E0,2.468794823E0,-8.952147484E0,1.864607096E0
3.050612767E0,1.884347796E0,-1.001515961E1,7.968099117E-1
3.070883288E0,1.992024899E0,-1.037168980E1,1.156331539E0
3.091153861E0,1.444068432E0,-1.060199928E1,4.259224236E-1
3.111424382E0,1.108475089E0,-9.651450157E0,1.316052526E-1
3.131694955E0,1.975275040E0,-9.179466248E0,1.674975827E-2
3.151965476E0,2.413759947E0,-9.582057953E0,-6.394818425E-1
3.172236049E0,2.722434044E0,-8.614759445E0,-1.147358418E0
3.192506569E0,2.875574589E0,-7.201797962E0,-7.160521746E-1
3.212777142E0,1.814955950E0,-8.679366112E0,4.689932466E-1
3.233047663E0,9.290133715E-1,-1.027119160E1,3.421736360E-1
3.253318184E0,3.164508045E-1,-1.112841988E1,2.991028428E-1
3.273588757E0,-5.264210105E-1,-1.037168980E1,2.057827413E-1
3.293859278E0,-4.402793646E-1,-8.389834404E0,4.833501875E-1
3.314129851E0,-1.196411327E-1,-7.530212879E0,5.288137794E-1
3.334400319E0,2.709871531E-1,-7.719245911E0,4.211367965E-1
3.354670944E0,3.236292601E-1,-8.123632431E0,4.666004181E-1
3.374941517E0,-3.708875179E-1,-9.627521515E0,1.794617027E-1
3.395212038E0,-1.091725349E0,-1.011805058E1,3.637090325E-1
3.415486569E0,-1.881955028E0,-1.028076267E1,2.943171859E-1
3.435791726E0,-2.274377823E0,-7.762316704E0,9.260223508E-1
3.456023132E0,-3.155534744E0,-1.180379391E1,-3.332005441E-1
3.476293861E0,-3.984049797E0,-1.385324669E1,-6.825526357E-1
3.496564434E0,-2.137987137E0,-1.188754272E1,-3.888336942E-2
3.516835059E0,-6.460621208E-2,-8.408976555E0,5.623133183E-1
3.537105684E0,2.440679073E-1,-7.558926582E0,7.537391186E-1
3.557376309E0,-1.003190875E0,-9.318249702E0,6.029912829E-1
3.577646934E0,-2.271985054E0,-1.104706383E1,8.614161611E-1
3.597917507E0,-2.861217737E0,-1.151426220E1,1.182652593E0
3.618188080E0,-3.373281717E0,-1.111884880E1,1.756929994E0
3.638588080E0,-2.214557409E0,-1.006780148E1,1.764108539E0
3.658729278E0,-8.452646136E-1,-9.984052658E0,1.579262912E-1
3.678999851E0,-1.247258782E0,-9.359525681E0,-1.513460279E0
3.699270424E0,-1.723430514E0,-8.971290588E0,-1.010369420E0
3.719540996E0,-1.359721422E0,-9.840482712E0,-1.846062660E0
3.739941049E0,-3.038884699E-1,-1.131745243E1,-2.124228239E0
3.760082142E0,-6.077769399E-1,-1.022333431E1,-1.195214868E0
3.780352715E0,-1.735394597E0,-9.167501450E0,-2.781656384E-1
3.800623288E0,-1.701895118E0,-8.976076126E0,2.584248483E-1
3.820893861E0,-7.082754970E-1,-9.229715347E0,3.373879790E-1
3.841293861E0,-4.474578202E-1,-9.766305923E0,4.331009090E-1
3.861435059E0,-5.766702294E-1,-1.003190899E1,7.058826685E-1
3.881705580E0,-1.175474167E0,-1.094895840E1,9.667003751E-1
3.901976205E0,-1.701895118E0,-1.070010471E1,5.383850932E-1
3.922246778E0,-1.235294700E0,-1.006062317E1,-2.931207791E-2
3.942646778E0,-9.529415965E-1,-1.032144070E1,-3.643072546E-1
3.962787924E0,-7.417750359E-1,-1.121216869E1,-3.738785386E-1
3.983058496E0,-8.165507317E-1,-1.141555882E1,-3.212364316E-1
4.003329121E0,-1.072582722E0,-1.034297562E1,-4.606183618E-2
4.023599746E0,-1.345364571E0,-8.897112846E0,5.742774159E-2
4.043999746E0,-1.453041553E0,-7.958528042E0,2.392822690E-2
4.064140892E0,-1.450648785E0,-7.893921852E0,3.828516230E-2
4.084411465E0,-1.194616675E0,-8.502297401E0,1.651047617E-1
4.104682090E0,-7.657032609E-1,-9.507881165E0,3.326023519E-1
4.124952663E0,-3.230310678E-1,-1.029751205E1,5.192425251E-1
4.145223236E0,3.020938635E-1,-1.052303600E1,7.513462901E-1
4.165493809E0,8.189435601E-1,-1.028554821E1,7.369893789E-1
4.185764434E0,9.457631707E-1,-9.967302322E0,6.963114142E-1
4.206035007E0,7.160521746E-1,-9.763913155E0,7.585247755E-1
4.226305632E0,3.930211067E-1,-9.768698692E0,7.585247755E-1
4.246576205E0,2.321037948E-1,-9.833304405E0,6.843472719E-1
4.266846778E0,3.110669367E-2,-9.763913155E0,6.029912829E-1
4.287117403E0,-1.363908947E-1,-9.632308006E0,5.670989752E-1
4.307387924E0,-2.368894368E-1,-9.658628464E0,5.623133183E-1
4.327658601E0,-2.871387303E-1,-9.835697174E0,4.857429862E-1
4.347929174E0,-3.373879790E-1,-9.938589096E0,3.708875179E-1
4.368199799E0,-2.871387303E-1,-9.936196327E0,2.536391914E-1
4.388470371E0,-1.698904037E-1,-9.893125534E0,1.698904037E-1
4.408740996E0,-8.374879509E-2,-9.881160736E0,1.890329868E-1
4.429011569E0,-1.938186288E-1,-9.651450157E0,2.041675806E0
4.449282142E0,-8.237292171E-1,-9.567701340E0,3.880560160E0
4.469552767E0,3.092723191E-1,-1.061874866E1,-1.872383654E-1
4.489823340E0,1.244866014E0,-9.783055305E0,-2.418545485E0
4.510093965E0,6.346961856E-1,-9.577272415E0,-2.480758905E0
4.530364538E0,-3.684946895E-1,-9.840482712E0,-3.762713671E-1
4.550764538E0,-8.285148144E-1,-9.802198410E0,1.620539188E0
4.570905736E0,-6.556333899E-1,-9.749555588E0,2.405983210E0
4.591176309E0,-5.192425251E-1,-9.744770050E0,1.055832982E0
4.611446934E0,-1.914258152E-1,-9.766305923E0,-1.728814393E-1
4.631717507E0,-6.699903309E-2,-9.840482712E0,-4.313062727E-1
4.651988132E0,-7.657032460E-2,-9.888339996E0,-3.044866920E-1
4.672258705E0,-2.871387303E-1,-9.931410789E0,-1.417747438E-1
4.692529330E0,-3.924229145E-1,-9.893125534E0,9.571290575E-3
4.712799903E0,-1.483550072E-1,-9.945767403E0,-1.034895778E-1
4.733070528E0,2.685943544E-1,-1.001276588E1,7.178467698E-3
4.753341101E0,2.781656384E-1,-9.864411354E0,4.905286431E-1
4.773611726E0,1.052841991E-1,-9.637093544E0,9.571290612E-1
4.793882299E0,-4.785645381E-2,-9.759127617E0,1.182652593E0
4.814152924E0,-2.321037948E-1,-9.914660454E0,1.297508121E0
4.834423496E0,-3.589234054E-1,-9.919445992E0,1.362114310E0
4.854694121E0,-3.206382394E-1,-9.862018585E0,1.084546804E0
4.874964694E0,-1.387837082E-1,-9.771091461E0,7.465606928E-1
4.895235319E0,-1.674975827E-2,-9.778269768E0,4.761717021E-1
4.915505892E0,2.392822690E-2,-9.818947792E0,2.679961324E-1
4.935776517E0,-4.307080805E-2,-9.840482712E0,1.339980662E-1
4.956047142E0,-1.555334777E-1,-9.795019150E0,6.699903309E-2
4.976317715E0,-2.608176768E-1,-9.795019150E0,1.674975827E-2
4.996588288E0,-2.440679073E-1,-9.806983948E0,2.392822690E-2
5.016858913E0,-1.603191197E-1,-9.806983948E0,7.657032460E-2
5.037129538E0,-1.052841991E-1,-9.792626381E0,1.651047617E-1
5.057400163E0,-1.100698411E-1,-9.804591179E0,2.775674164E-1
5.077670736E0,-1.076770201E-1,-9.881160736E0,4.019941986E-1
5.097941361E0,-5.982056633E-2,-9.902696609E0,4.498506486E-1
5.118211934E0,4.785645287E-3,-9.852447510E0,4.833501875E-1
5.138611934E0,2.153540403E-2,-9.866804123E0,4.594219327E-1
5.158753132E0,-4.785645287E-3,-9.840482712E0,4.474578202E-1
5.179023757E0,-7.178468257E-2,-9.826126099E0,4.139583111E-1
5.199294382E0,-1.148554832E-1,-9.826126099E0,3.876372576E-1
5.219564955E0,-1.028913707E-1,-9.842875481E0,3.637090325E-1
5.239964955E0,-7.178468257E-2,-9.806983948E0,3.278166950E-1
5.260106205E0,-7.896314561E-2,-9.826126099E0,2.991028428E-1
5.280376778E0,-8.614161611E-2,-9.854840279E0,2.679961324E-1
5.300647403E0,-8.614161611E-2,-9.838089943E0,2.368894368E-1
5.320918028E0,-1.124626622E-1,-9.828518867E0,2.321037948E-1
5.341318028E0,-1.052841991E-1,-9.809376717E0,2.632105052E-1
5.361459226E0,-6.221338734E-2,-9.830911636E0,3.038884699E-1
5.381729851E0,-2.153540403E-2,-9.878767967E0,3.278166950E-1
5.402000476E0,-2.392822690E-2,-9.876375198E0,3.445664644E-1
5.422271049E0,-7.178467698E-3,-9.823733330E0,3.349951804E-1
5.442671049E0,-7.178467698E-3,-9.821340561E0,3.445664644E-1
5.462812299E0,-5.742774159E-2,-9.830911636E0,3.326023519E-1
5.483082924E0,-8.135596663E-2,-9.854840279E0,3.158525825E-1
5.503353496E0,-8.614161611E-2,-9.845269203E0,3.158525825E-1
5.523624121E0,-8.614161611E-2,-9.835697174E0,2.967100143E-1
5.543894746E0,-7.178468257E-2,-9.838089943E0,2.871387303E-1
5.564165371E0,-6.221338734E-2,-9.826126099E0,3.182454109E-1
5.584435996E0,-5.742774159E-2,-9.816555023E0,3.206382394E-1
5.604706569E0,-6.939185411E-2,-9.823733330E0,3.278166950E-1
5.624977194E0,-7.657032460E-2,-9.830911636E0,3.302095234E-1
5.645247819E0,-1.100698411E-1,-9.857233047E0,3.134597540E-1
5.665526413E0,-1.148554832E-1,-9.835697174E0,3.278166950E-1
5.685866257E0,-1.196411327E-1,-9.840482712E0,3.086741269E-1
5.706058496E0,-1.124626622E-1,-9.835697174E0,3.182454109E-1
5.726329330E0,-1.244267747E-1,-9.816555023E0,3.349951804E-1
5.746600163E0,-1.100698411E-1,-9.823733330E0,3.541377485E-1
5.766870944E0,-9.092725813E-2,-9.809376717E0,3.493520916E-1
5.787141674E0,-9.332008660E-2,-9.799804688E0,3.708875179E-1
5.807412351E0,-1.100698411E-1,-9.857233047E0,3.756731451E-1
5.827683028E0,-1.148554832E-1,-9.859625816E0,3.445664644E-1
5.847953705E0,-1.627119333E-1,-9.818947792E0,3.589234054E-1
5.868224382E0,-1.387837082E-1,-9.795019150E0,3.254238665E-1
5.888495059E0,-9.810572863E-2,-9.833304405E0,3.278166950E-1
5.908765684E0,-5.503492057E-2,-9.845269203E0,3.349951804E-1
5.929036361E0,-4.067798331E-2,-9.862018585E0,3.230310678E-1
5.949306934E0,-7.657032460E-2,-9.857233047E0,3.278166950E-1
5.969577611E0,-1.148554832E-1,-9.857233047E0,3.613162339E-1
5.989848236E0,-1.651047617E-1,-9.847661972E0,3.397808075E-1
6.010118861E0,-1.770688742E-1,-9.821340561E0,3.517449200E-1
6.030389486E0,-1.890329868E-1,-9.821340561E0,3.541377485E-1
6.050660111E0,-1.363908947E-1,-9.816555023E0,3.732803464E-1
6.070930736E0,-1.292124242E-1,-9.845269203E0,3.804588020E-1
6.091201361E0,-1.292124242E-1,-9.830911636E0,3.972085714E-1
6.111471986E0,-1.268195957E-1,-9.818947792E0,4.235295951E-1
6.131742611E0,-1.244267747E-1,-9.840482712E0,4.163511395E-1
6.152013236E0,-1.387837082E-1,-9.857233047E0,4.139583111E-1
6.172283861E0,-1.411765367E-1,-9.833304405E0,3.972085714E-1
6.192554434E0,-1.507478207E-1,-9.847661972E0,3.948157430E-1
6.212825059E0,-1.627119333E-1,-9.854840279E0,3.876372576E-1
6.233095684E0,-1.770688742E-1,-9.830911636E0,3.972085714E-1
6.253366309E0,-1.770688742E-1,-9.814162254E0,3.924229145E-1
6.273636882E0,-1.746760458E-1,-9.828518867E0,3.972085714E-1
6.293907507E0,-1.603191197E-1,-9.864411354E0,4.067798555E-1
6.314178132E0,-1.411765367E-1,-9.862018585E0,4.235295951E-1
6.334448757E0,-1.603191197E-1,-9.854840279E0,4.354937077E-1
6.354719330E0,-1.674975902E-1,-9.859625816E0,4.115654826E-1
6.374989955E0,-1.603191197E-1,-9.833304405E0,4.115654826E-1
6.395260580E0,-1.890329868E-1,-9.818947792E0,4.067798555E-1
6.415531153E0,-2.033899277E-1,-9.816555023E0,4.187439680E-1
6.435801778E0,-1.627119333E-1,-9.828518867E0,4.091726840E-1
6.456072351E0,-1.052841991E-1,-9.845269203E0,4.235295951E-1
6.476342976E0,-9.092725813E-2,-9.850054741E0,4.426721931E-1
6.496613601E0,-1.004985496E-1,-9.838089943E0,4.259224236E-1
6.516884174E0,-1.363908947E-1,-9.850054741E0,4.450650215E-1
6.537154799E0,-1.627119333E-1,-9.854840279E0,4.331009090E-1
6.557425424E0,-1.818545163E-1,-9.821340561E0,4.354937077E-1
6.577695996E0,-1.698904037E-1,-9.826126099E0,4.235295951E-1
6.597966621E0,-1.651047617E-1,-9.833304405E0,4.259224236E-1
6.618237194E0,-1.627119333E-1,-9.852447510E0,4.259224236E-1
6.638637194E0,-1.651047617E-1,-9.847661972E0,4.498506486E-1
6.658778444E0,-1.531406492E-1,-9.847661972E0,4.809573591E-1
6.679049017E0,-1.698904037E-1,-9.814162254E0,4.881358147E-1
6.699319642E0,-1.962114573E-1,-9.806983948E0,5.096712112E-1
6.719590215E0,-2.081755698E-1,-9.787840843E0,5.288137794E-1
6.739990215E0,-2.201396823E-1,-9.806983948E0,5.192425251E-1
6.760131465E0,-1.962114573E-1,-9.799804688E0,5.359922647E-1
6.780402038E0,-1.914258152E-1,-9.816555023E0,4.929214716E-1
6.800672611E0,-1.579262912E-1,-9.826126099E0,4.642075896E-1
6.820943236E0,-1.172483116E-1,-9.857233047E0,4.594219327E-1
6.841343236E0,-9.810572863E-2,-9.873982430E0,4.474578202E-1
6.861484434E0,-1.172483116E-1,-9.881160736E0,4.139583111E-1
6.881755007E0,-1.866401732E-1,-9.885947227E0,4.307080805E-1
6.902025632E0,-2.177468538E-1,-9.811769485E0,4.043870270E-1
6.922288288E0,-2.297109663E-1,-9.742377281E0,3.948157430E-1
6.942489799E0,-2.321037948E-1,-9.804591179E0,4.331009090E-1
6.962838549E0,-1.316052526E-1,-9.907482147E0,4.115654826E-1
6.983108965E0,-1.914258115E-2,-9.881160736E0,4.115654826E-1
7.003379330E0,-1.196411345E-2,-9.871589661E0,4.737788737E-1
7.023649799E0,-5.503492057E-2,-9.802198410E0,5.383850932E-1
7.043920267E0,-1.004985496E-1,-9.785448074E0,5.455635786E-1
7.064190788E0,-2.392822653E-1,-9.799804688E0,5.982056856E-1
7.084461257E0,-3.900300860E-1,-9.823733330E0,6.101697683E-1
7.104731830E0,-4.570291340E-1,-9.780662537E0,6.053841114E-1
7.125002455E0,-4.235295951E-1,-9.814162254E0,5.503492355E-1
7.145402403E0,-3.062812984E-1,-9.823733330E0,4.594219327E-1
7.165543496E0,-2.392822653E-1,-9.811769485E0,4.043870270E-1
7.185814121E0,-2.033899277E-1,-9.766305923E0,4.139583111E-1
7.206084694E0,-1.627119333E-1,-9.795019150E0,4.139583111E-1
7.226355319E0,-5.503492057E-2,-9.869196892E0,3.732803464E-1
7.246625892E0,2.632104978E-2,-9.988838196E0,3.110669553E-1
7.266896517E0,3.828516230E-2,-1.005344391E1,2.991028428E-1
7.287167090E0,-2.632104978E-2,-1.007976532E1,2.751746178E-1
7.307437611E0,-1.890329868E-1,-1.003190899E1,2.703889608E-1
7.327708236E0,-3.565305769E-1,-9.972088814E0,2.392822653E-1
7.347978861E0,-3.996013701E-1,-9.945767403E0,1.986042857E-1
7.368249434E0,-4.139583111E-1,-9.960124016E0,2.177468538E-1
7.388520059E0,-4.378865361E-1,-9.921838760E0,2.799602449E-1
7.408790684E0,-4.426721931E-1,-9.902696609E0,3.661018610E-1
7.429061257E0,-4.402793646E-1,-9.929018021E0,4.737788737E-1
7.449331882E0,-4.211367965E-1,-9.897911072E0,6.173482537E-1
7.469602507E0,-4.163511395E-1,-9.744770050E0,7.848458290E-1
7.489873080E0,-3.469592929E-1,-9.510273933E0,9.260223508E-1
7.510143705E0,-2.895315289E-1,-9.402596474E0,9.547362328E-1
7.530414278E0,-1.986042857E-1,-9.414560318E0,8.542376757E-1
7.550684903E0,-7.657032460E-2,-9.567701340E0,6.053841114E-1
7.570955528E0,8.135596663E-2,-9.818947792E0,2.991028428E-1
7.591226153E0,2.536391914E-1,-1.003669453E1,6.699903309E-2
7.611496726E0,3.571287692E-1,-1.001037312E1,-1.734796353E-2
7.631767351E0,3.786641955E-1,-9.873982430E0,6.221338734E-2
7.652037976E0,3.954139352E-1,-9.826126099E0,1.842473447E-1
7.672308601E0,3.116651475E-1,-9.893125534E0,3.445664644E-1
7.692579174E0,2.225325108E-1,-9.943374634E0,3.110669553E-1
7.712849799E0,1.507478207E-1,-9.991230965E0,1.651047617E-1
7.733120424E0,2.871387079E-2,-9.993623734E0,6.221338734E-2
7.753391049E0,-2.392822644E-3,-9.931410789E0,1.196411345E-2
7.773661674E0,3.828516230E-2,-9.897911072E0,1.196411327E-1
7.793932246E0,4.546362907E-2,-9.926624298E0,2.799602449E-1
7.814202871E0,1.435693540E-2,-9.862018585E0,4.785645306E-1
7.834473496E0,-5.264209956E-2,-9.682557106E0,5.694918036E-1
7.854744121E0,-3.589234129E-2,-9.591629982E0,5.742774606E-1
7.875014694E0,1.435693540E-2,-9.617950439E0,4.833501875E-1
7.895285319E0,3.349951655E-2,-9.668199539E0,3.326023519E-1
7.915563913E0,1.914258115E-2,-9.759127617E0,2.608176768E-1
7.935903705E0,-1.196411345E-2,-9.811769485E0,2.512463629E-1
7.956095996E0,-2.392822644E-3,-9.859625816E0,3.469592929E-1
7.976366830E0,4.307080805E-2,-9.838089943E0,3.756731451E-1
7.996637663E0,8.135596663E-2,-9.838089943E0,3.158525825E-1
8.016908444E0,2.153540403E-2,-9.838089943E0,2.536391914E-1
8.037179174E0,-3.110669367E-2,-9.814162254E0,1.962114573E-1
8.057449799E0,-7.896314561E-2,-9.842875481E0,1.914258152E-1
8.077720528E0,-2.392822690E-2,-9.857233047E0,2.297109663E-1
8.097991205E0,2.392822644E-3,-9.866804123E0,2.584248483E-1
8.118261778E0,2.871387079E-2,-9.850054741E0,2.871387303E-1
8.138661830E0,5.982056633E-2,-9.859625816E0,2.799602449E-1
8.158803132E0,7.896314561E-2,-9.859625816E0,2.536391914E-1
8.179073757E0,6.699903309E-2,-9.924231529E0,2.392822653E-1
8.199344382E0,1.914258115E-2,-9.814162254E0,2.584248483E-1
8.219615007E0,2.632104978E-2,-9.742377281E0,2.775674164E-1
8.240015007E0,5.024927482E-2,-9.756733894E0,3.158525825E-1
8.260156257E0,7.178468257E-2,-9.763913155E0,3.110669553E-1
8.280426882E0,1.076770201E-1,-9.742377281E0,2.967100143E-1
8.300697507E0,1.196411327E-1,-9.790233612E0,3.158525825E-1
8.320968080E0,1.459621787E-1,-9.881160736E0,2.991028428E-1
8.341368080E0,1.459621787E-1,-9.888339996E0,2.297109663E-1
8.361509278E0,1.459621787E-1,-9.816555023E0,1.555334777E-1
8.381779903E0,1.363908947E-1,-9.799804688E0,9.571290761E-2
8.402050528E0,1.172483116E-1,-9.864411354E0,7.896314561E-2
8.422321101E0,9.810572863E-2,-9.936196327E0,1.100698411E-1
8.442721153E0,9.332008660E-2,-9.917053223E0,1.962114573E-1
8.462862351E0,1.244267747E-1,-9.850054741E0,3.158525825E-1
8.483132976E0,1.459621787E-1,-9.838089943E0,4.163511395E-1
8.503403601E0,9.332008660E-2,-9.799804688E0,4.354937077E-1
8.523674174E0,-9.571290575E-3,-9.775876999E0,3.804588020E-1
8.543944746E0,-1.148554832E-1,-9.778269768E0,3.421736360E-1
8.564215371E0,-2.081755698E-1,-9.790233612E0,2.847459018E-1
8.584485944E0,-2.344966233E-1,-9.847661972E0,2.632105052E-1
8.604756569E0,-2.153540403E-1,-9.840482712E0,2.608176768E-1
8.625027142E0,-1.292124242E-1,-9.854840279E0,3.110669553E-1
8.645297767E0,-4.546362907E-2,-9.859625816E0,3.349951804E-1
8.665568340E0,2.632104978E-2,-9.854840279E0,3.613162339E-1
8.685838913E0,1.196411345E-2,-9.850054741E0,3.804588020E-1
8.706109538E0,7.178467698E-3,-9.862018585E0,3.637090325E-1
8.726380111E0,-2.632104978E-2,-9.850054741E0,3.445664644E-1
8.746650736E0,-1.196411345E-2,-9.830911636E0,3.541377485E-1
8.766921309E0,-1.914258115E-2,-9.816555023E0,3.469592929E-1
8.787191882E0,-2.871387079E-2,-9.814162254E0,3.445664644E-1
8.807462455E0,-1.196411345E-2,-9.816555023E0,3.349951804E-1
8.827733028E0,-2.632104978E-2,-9.806983948E0,3.565305769E-1
8.848003601E0,-4.785645381E-2,-9.866804123E0,3.900300860E-1
8.868274121E0,-9.092725813E-2,-9.881160736E0,3.924229145E-1
8.888544694E0,-1.172483116E-1,-9.821340561E0,3.804588020E-1
8.908815371E0,-1.316052526E-1,-9.823733330E0,3.373879790E-1
8.929085944E0,-1.411765367E-1,-9.835697174E0,3.254238665E-1
8.949356517E0,-1.435693651E-1,-9.830911636E0,3.086741269E-1
8.969627090E0,-1.124626622E-1,-9.842875481E0,3.038884699E-1
8.989897663E0,-9.571290761E-2,-9.869196892E0,3.038884699E-1
9.010168236E0,-1.004985496E-1,-9.859625816E0,2.991028428E-1
9.030438809E0,-9.332008660E-2,-9.828518867E0,3.254238665E-1
9.050709330E0,-8.614161611E-2,-9.840482712E0,3.469592929E-1
9.070979851E0,-1.148554832E-1,-9.814162254E0,3.708875179E-1
9.091250424E0,-1.196411327E-1,-9.802198410E0,3.541377485E-1
9.111520996E0,-6.939185411E-2,-9.830911636E0,3.349951804E-1
9.131791569E0,-2.392822690E-2,-9.866804123E0,2.536391914E-1
9.152062142E0,-2.632104978E-2,-9.919445992E0,2.368894368E-1
9.172332663E0,-3.828516230E-2,-9.902696609E0,2.416750938E-1
9.192603236E0,-6.460621208E-2,-9.854840279E0,3.206382394E-1
9.212873809E0,-7.657032460E-2,-9.811769485E0,3.302095234E-1
9.233144330E0,-8.853443712E-2,-9.749555588E0,3.565305769E-1
9.253414903E0,-6.939185411E-2,-9.704092026E0,3.254238665E-1
9.273685476E0,-7.178467698E-3,-9.780662537E0,2.919243574E-1
9.293955996E0,3.589234129E-2,-9.888339996E0,2.201396823E-1
9.314226569E0,1.674975827E-2,-9.976874352E0,1.770688742E-1
9.334497090E0,1.435693540E-2,-9.981659889E0,1.794617027E-1
9.354767663E0,2.153540403E-2,-9.955338478E0,1.842473447E-1
9.375038184E0,3.349951655E-2,-9.914660454E0,2.081755698E-1
9.395308757E0,6.221338734E-2,-9.835697174E0,2.584248483E-1
9.415579278E0,6.699903309E-2,-9.797411919E0,2.871387303E-1
9.435849799E0,6.939185411E-2,-9.857233047E0,2.703889608E-1
9.456120371E0,8.374879509E-2,-9.854840279E0,2.751746178E-1
9.476390892E0,6.699903309E-2,-9.828518867E0,3.445664644E-1
9.496661413E0,5.982056633E-2,-9.809376717E0,4.378865361E-1
9.516931934E0,4.307080805E-2,-9.814162254E0,4.785645306E-1
9.537202507E0,3.110669367E-2,-9.787840843E0,4.546363056E-1
9.557473028E0,3.110669367E-2,-9.787840843E0,3.613162339E-1
9.577743549E0,1.914258115E-2,-9.778269768E0,2.799602449E-1
9.598014069E0,-2.392822644E-3,-9.754341125E0,2.344966233E-1
9.618422038E0,1.674975827E-2,-9.742377281E0,2.823530734E-1
9.638703653E0,2.871387079E-2,-9.821340561E0,3.110669553E-1
9.658816830E0,6.939185411E-2,-9.847661972E0,3.158525825E-1
9.679218705E0,7.896314561E-2,-9.888339996E0,2.775674164E-1
9.699361153E0,1.172483116E-1,-9.885947227E0,2.608176768E-1
9.719631569E0,7.896314561E-2,-9.869196892E0,2.105683982E-1
9.740032767E0,2.153540403E-2,-9.826126099E0,2.488535494E-1
9.760174642E0,-3.349951655E-2,-9.797411919E0,2.775674164E-1
9.780445840E0,-5.982056633E-2,-9.840482712E0,2.703889608E-1
9.800716934E0,-2.392822690E-2,-9.871589661E0,2.584248483E-1
9.820987403E0,0.000000000E0,-9.864411354E0,2.632105052E-1
9.841387871E0,1.196411345E-2,-9.823733330E0,2.536391914E-1
9.861529278E0,-7.178467698E-3,-9.811769485E0,2.847459018E-1
9.881800111E0,-1.674975827E-2,-9.850054741E0,2.703889608E-1
9.902070840E0,-9.571290575E-3,-9.830911636E0,2.440679073E-1
9.922337507E0,1.196411345E-2,-9.835697174E0,2.679961324E-1
9.942573549E0,3.828516230E-2,-9.835697174E0,2.799602449E-1
9.962883340E0,3.589234129E-2,-9.847661972E0,2.895315289E-1
9.983153809E0,3.589234129E-2,-9.842875481E0,3.062812984E-1
1.000342423E1,2.392822644E-3,-9.823733330E0,2.943171859E-1
1.002369475E1,-2.871387079E-2,-9.847661972E0,2.632105052E-1
1.004409475E1,-2.871387079E-2,-9.833304405E0,2.249253243E-1
1.006423574E1,-4.785645287E-3,-9.816555023E0,2.129612118E-1
1.008450615E1,-2.392822644E-3,-9.842875481E0,2.560320199E-1
1.010477662E1,-1.674975827E-2,-9.840482712E0,3.086741269E-1
1.012504709E1,-5.264209956E-2,-9.821340561E0,3.445664644E-1
1.014531756E1,-4.307080805E-2,-9.804591179E0,3.517449200E-1
1.016558803E1,-4.785645381E-2,-9.818947792E0,3.326023519E-1
1.018597725E1,-5.024927482E-2,-9.835697174E0,2.919243574E-1
1.020612897E1,-6.460621208E-2,-9.847661972E0,2.727817893E-1
1.022639943E1,-5.742774159E-2,-9.833304405E0,2.847459018E-1
1.024666990E1,-6.460621208E-2,-9.845269203E0,2.799602449E-1
1.026694037E1,-5.503492057E-2,-9.857233047E0,3.062812984E-1
1.028721084E1,2.392822644E-3,-9.840482712E0,3.158525825E-1
1.030748131E1,4.785645287E-3,-9.830911636E0,3.349951804E-1
1.032775178E1,-3.349951655E-2,-9.840482712E0,3.206382394E-1
1.034802219E1,-4.067798331E-2,-9.816555023E0,3.062812984E-1
1.036829261E1,-5.264209956E-2,-9.838089943E0,3.062812984E-1
1.038856308E1,-3.110669367E-2,-9.840482712E0,3.206382394E-1
1.040883355E1,-1.196411345E-2,-9.842875481E0,3.661018610E-1
1.042910397E1,-3.110669367E-2,-9.818947792E0,3.756731451E-1
1.044937443E1,-4.067798331E-2,-9.821340561E0,3.756731451E-1
1.046964490E1,-8.135596663E-2,-9.833304405E0,3.517449200E-1
1.048991532E1,-1.196411327E-1,-9.869196892E0,3.397808075E-1
1.051018574E1,-1.363908947E-1,-9.804591179E0,3.397808075E-1
1.053058574E1,-1.698904037E-1,-9.814162254E0,3.780659735E-1
1.055072662E1,-1.603191197E-1,-9.866804123E0,4.163511395E-1
1.057099709E1,-9.571290761E-2,-9.864411354E0,3.996013701E-1
1.059126751E1,-1.435693540E-2,-9.802198410E0,3.302095234E-1
1.061153792E1,-2.632104978E-2,-9.818947792E0,2.847459018E-1
1.063180834E1,-7.657032460E-2,-9.871589661E0,3.038884699E-1
1.065207881E1,-1.028913707E-1,-9.871589661E0,3.086741269E-1
1.067234923E1,-6.939185411E-2,-9.852447510E0,3.230310678E-1
1.069261964E1,-4.785645381E-2,-9.890732765E0,3.278166950E-1
1.071289011E1,-2.632104978E-2,-9.881160736E0,3.086741269E-1
1.073316053E1,-3.349951655E-2,-9.802198410E0,3.684946895E-1
1.075343094E1,-5.264209956E-2,-9.728020668E0,4.283152521E-1
1.077370136E1,-8.374879509E-2,-9.747162819E0,4.498506486E-1
1.079397178E1,-6.939185411E-2,-9.826126099E0,4.211367965E-1
1.081424219E1,-4.785645381E-2,-9.857233047E0,3.278166950E-1
1.083451261E1,-1.435693540E-2,-9.876375198E0,2.919243574E-1
1.085478303E1,2.632104978E-2,-9.854840279E0,2.584248483E-1
1.087505339E1,7.178468257E-2,-9.833304405E0,2.416750938E-1
1.089532381E1,6.939185411E-2,-9.830911636E0,2.129612118E-1
1.091559423E1,5.503492057E-2,-9.871589661E0,2.321037948E-1
1.093586464E1,2.871387079E-2,-9.881160736E0,2.632105052E-1
1.095613501E1,6.699903309E-2,-9.864411354E0,3.038884699E-1
1.097640542E1,6.699903309E-2,-9.845269203E0,3.373879790E-1
1.099667584E1,6.699903309E-2,-9.821340561E0,3.326023519E-1
1.101694620E1,6.221338734E-2,-9.838089943E0,2.967100143E-1
1.103721662E1,9.332008660E-2,-9.814162254E0,2.703889608E-1
1.105748699E1,5.982056633E-2,-9.754341125E0,2.919243574E-1
1.107775740E1,7.178467698E-3,-9.713663101E0,3.517449200E-1
1.109802777E1,1.196411345E-2,-9.730413437E0,3.182454109E-1
1.111829818E1,5.503492057E-2,-9.775876999E0,2.440679073E-1
1.113869818E1,1.004985496E-1,-9.857233047E0,1.914258152E-1
1.115883897E1,1.124626622E-1,-9.919445992E0,1.842473447E-1
1.117910933E1,1.268195957E-1,-9.902696609E0,2.512463629E-1
1.119937969E1,9.332008660E-2,-9.816555023E0,2.656033039E-1
1.121965011E1,5.982056633E-2,-9.754341125E0,2.823530734E-1
1.124005011E1,3.349951655E-2,-9.787840843E0,2.392822653E-1
1.126019084E1,9.571290575E-3,-9.862018585E0,2.297109663E-1
1.128046120E1,1.196411345E-2,-9.909874916E0,2.416750938E-1
1.130073162E1,4.785645287E-3,-9.917053223E0,2.727817893E-1
1.132100199E1,-1.435693540E-2,-9.881160736E0,2.967100143E-1
1.134140199E1,-2.871387079E-2,-9.864411354E0,2.823530734E-1
1.136154272E1,-2.632104978E-2,-9.888339996E0,2.775674164E-1
1.138181308E1,-2.153540403E-2,-9.838089943E0,2.799602449E-1
1.140208344E1,0.000000000E0,-9.792626381E0,3.349951804E-1
1.142235381E1,4.785645287E-3,-9.780662537E0,3.302095234E-1
1.144275381E1,3.589234129E-2,-9.818947792E0,3.732803464E-1
1.146289449E1,3.349951655E-2,-9.835697174E0,3.876372576E-1
1.148316485E1,2.392822644E-3,-9.864411354E0,3.780659735E-1
1.150343522E1,-4.307080805E-2,-9.842875481E0,3.493520916E-1
1.152370553E1,-6.221338734E-2,-9.840482712E0,3.158525825E-1
1.154397584E1,-4.307080805E-2,-9.838089943E0,3.469592929E-1
1.156424620E1,-5.024927482E-2,-9.859625816E0,3.780659735E-1
1.158451657E1,-7.896314561E-2,-9.871589661E0,3.900300860E-1
1.160478688E1,-9.571290761E-2,-9.924231529E0,4.091726840E-1
1.162505725E1,-1.435693651E-1,-9.919445992E0,4.235295951E-1
1.164545725E1,-1.292124242E-1,-9.838089943E0,4.211367965E-1
1.166559792E1,-1.459621787E-1,-9.816555023E0,4.450650215E-1
1.168586824E1,-1.938186288E-1,-9.809376717E0,4.570291340E-1
1.170613860E1,-2.033899277E-1,-9.797411919E0,4.977070987E-1
1.172640891E1,-2.201396823E-1,-9.797411919E0,5.120640397E-1
1.174667923E1,-2.009970993E-1,-9.790233612E0,5.503492355E-1
1.176694959E1,-1.794617027E-1,-9.799804688E0,5.431707501E-1
1.178721990E1,-1.627119333E-1,-9.763913155E0,5.120640397E-1
1.180749022E1,-1.316052526E-1,-9.790233612E0,5.096712112E-1
1.182776053E1,-1.100698411E-1,-9.802198410E0,4.929214716E-1
1.184803084E1,-9.810572863E-2,-9.845269203E0,4.689932466E-1
1.186830120E1,-1.052841991E-1,-9.873982430E0,4.594219327E-1
1.188857152E1,-8.853443712E-2,-9.857233047E0,4.426721931E-1
1.190884183E1,-6.939185411E-2,-9.838089943E0,4.402793646E-1
1.192911214E1,-7.178468257E-2,-9.842875481E0,4.378865361E-1
1.194938246E1,-5.982056633E-2,-9.833304405E0,4.498506486E-1
1.196965277E1,-6.460621208E-2,-9.816555023E0,4.474578202E-1
1.198992303E1,-5.503492057E-2,-9.842875481E0,4.761717021E-1
1.201019334E1,-3.349951655E-2,-9.854840279E0,4.833501875E-1
1.203046365E1,0.000000000E0,-9.830911636E0,4.905286431E-1
1.205073397E1,1.914258115E-2,-9.838089943E0,5.048855543E-1
1.207100428E1,-1.435693540E-2,-9.857233047E0,5.048855543E-1
1.209127454E1,-2.153540403E-2,-9.847661972E0,4.905286431E-1
1.211154485E1,-4.067798331E-2,-9.847661972E0,4.809573591E-1
1.213181516E1,-4.785645381E-2,-9.818947792E0,5.000999570E-1
1.215208542E1,-3.589234129E-2,-9.818947792E0,5.192425251E-1
1.217235574E1,-2.871387079E-2,-9.809376717E0,5.551348329E-1
1.219262600E1,-2.153540403E-2,-9.775876999E0,5.862415433E-1
1.221289631E1,3.349951655E-2,-9.804591179E0,5.551348329E-1
1.223316657E1,3.349951655E-2,-9.823733330E0,5.503492355E-1
1.225343683E1,-1.196411345E-2,-9.826126099E0,5.670989752E-1
1.227370714E1,-6.460621208E-2,-9.790233612E0,5.647061467E-1
1.229397740E1,-9.571290575E-3,-9.814162254E0,4.857429862E-1
1.231424772E1,7.417750359E-2,-9.885947227E0,4.331009090E-1
1.233451798E1,9.332008660E-2,-9.847661972E0,4.522434771E-1
1.235478824E1,6.221338734E-2,-9.823733330E0,5.479564071E-1
1.237505855E1,3.349951655E-2,-9.799804688E0,5.862415433E-1
1.239532881E1,2.392822644E-3,-9.792626381E0,6.388836503E-1
1.241559907E1,5.982056633E-2,-9.816555023E0,5.527420044E-1
1.243599907E1,8.614161611E-2,-9.814162254E0,4.857429862E-1
1.245613959E1,8.614161611E-2,-9.797411919E0,4.785645306E-1
1.247640985E1,1.052841991E-1,-9.809376717E0,5.335994363E-1
1.249668011E1,1.052841991E-1,-9.804591179E0,5.264210105E-1
1.251695037E1,1.028913707E-1,-9.804591179E0,5.503492355E-1
1.253722063E1,1.196411327E-1,-9.818947792E0,5.623133183E-1
1.255749089E1,9.571290761E-2,-9.785448074E0,5.670989752E-1
1.257776115E1,6.939185411E-2,-9.787840843E0,5.862415433E-1
1.259803141E1,6.221338734E-2,-9.814162254E0,5.718846321E-1
1.261830167E1,8.135596663E-2,-9.873982430E0,5.910272002E-1
1.263870167E1,1.244267747E-1,-9.826126099E0,5.790630579E-1
1.265884214E1,1.531406492E-1,-9.814162254E0,5.838487148E-1
1.267911240E1,1.722832322E-1,-9.783055305E0,5.934200287E-1
1.269938261E1,2.009970993E-1,-9.823733330E0,5.958128572E-1
1.271965282E1,1.818545163E-1,-9.806983948E0,5.982056856E-1
1.274005282E1,1.818545163E-1,-9.799804688E0,5.958128572E-1
1.276019329E1,1.794617027E-1,-9.818947792E0,5.814558864E-1
1.278046355E1,2.033899277E-1,-9.804591179E0,5.694918036E-1
1.280086355E1,2.081755698E-1,-9.809376717E0,5.886343718E-1
1.282100402E1,2.057827413E-1,-9.816555023E0,6.436693072E-1
1.284140402E1,2.129612118E-1,-9.835697174E0,6.699903607E-1
1.286154449E1,2.033899277E-1,-9.792626381E0,6.604190469E-1
1.288181469E1,2.153540403E-1,-9.756733894E0,6.340979934E-1
1.290208490E1,2.392822653E-1,-9.694520950E0,6.197410822E-1
1.292235120E1,2.709871531E-1,-9.675378799E0,6.340979934E-1
1.294258688E1,2.685943544E-1,-9.739984512E0,6.580262184E-1
1.296289621E1,2.757728100E-1,-9.806983948E0,6.891329288E-1
1.298316631E1,2.614158690E-1,-9.814162254E0,7.322037220E-1
1.300343641E1,2.488535494E-1,-9.787840843E0,7.609176040E-1
1.302370662E1,2.177468538E-1,-9.771091461E0,7.657032609E-1
1.304410652E1,1.674975902E-1,-9.795019150E0,7.561319470E-1
1.306424688E1,1.722832322E-1,-9.804591179E0,7.369893789E-1
1.308451709E1,1.507478207E-1,-9.828518867E0,7.274180651E-1
1.310478725E1,1.292124242E-1,-9.847661972E0,6.604190469E-1
1.312505746E1,1.244267747E-1,-9.833304405E0,6.293123364E-1
1.314532761E1,1.890329868E-1,-9.838089943E0,5.742774606E-1
1.316559782E1,2.368894368E-1,-9.828518867E0,6.340979934E-1
1.318586798E1,2.829512656E-1,-9.878767967E0,6.963114142E-1
1.320613818E1,3.164508045E-1,-9.948160172E0,7.728816867E-1
1.322640839E1,3.164508045E-1,-9.924231529E0,8.422735929E-1
1.324667860E1,2.829512656E-1,-9.862018585E0,8.685946465E-1
1.326694876E1,1.962114573E-1,-9.775876999E0,8.494520187E-1
1.328721891E1,1.339980662E-1,-9.783055305E0,8.135597110E-1
1.330748912E1,1.531406492E-1,-9.790233612E0,7.752745152E-1
1.332775923E1,2.662015259E-1,-9.751948357E0,7.776673436E-1
1.334802949E1,3.547359705E-1,-9.737591743E0,8.303094506E-1
1.336829969E1,4.073780477E-1,-9.802198410E0,8.614161611E-1
1.338856985E1,4.025924206E-1,-9.907482147E0,8.805587292E-1
1.340884006E1,3.020938635E-1,-9.921838760E0,8.638089895E-1
1.342911022E1,2.177468538E-1,-9.859625816E0,8.111668825E-1
1.344938042E1,2.249253243E-1,-9.828518867E0,7.872386575E-1
1.346965058E1,2.614158690E-1,-9.842875481E0,8.111668825E-1
1.348992074E1,2.614158690E-1,-9.830911636E0,8.566305041E-1
1.351019094E1,2.560320199E-1,-9.773484230E0,8.949156404E-1
1.353046110E1,2.297109663E-1,-9.754341125E0,9.403793216E-1
1.355073126E1,2.273181528E-1,-9.854840279E0,9.571290612E-1
1.357100146E1,1.842473447E-1,-9.924231529E0,9.523434043E-1
1.359127162E1,1.387837082E-1,-9.847661972E0,9.523434043E-1
1.361154178E1,7.896314561E-2,-9.799804688E0,9.714859724E-1
1.363181193E1,3.589234129E-2,-9.773484230E0,9.954141974E-1
1.365208209E1,1.435693540E-2,-9.754341125E0,1.007378340E0
1.367235219E1,5.503492057E-2,-9.680164337E0,1.046261668E0
1.369262240E1,1.555334777E-1,-9.723235130E0,1.082154036E0
1.371289256E1,2.781656384E-1,-9.725627899E0,1.067797065E0
1.373316272E1,3.643072546E-1,-9.763913155E0,1.016949654E0
1.375343287E1,4.121637046E-1,-9.806983948E0,9.714859724E-1
1.377370303E1,4.049852192E-1,-9.816555023E0,8.829515576E-1
1.379397318E1,3.762713671E-1,-9.809376717E0,7.776673436E-1
1.381424329E1,3.643072546E-1,-9.878767967E0,6.987041831E-1
1.383451339E1,3.308077157E-1,-9.885947227E0,6.388836503E-1
1.385478355E1,2.949153781E-1,-9.876375198E0,6.699903607E-1
1.387505376E1,3.044866920E-1,-9.873982430E0,7.250252366E-1
1.389532391E1,2.853440940E-1,-9.866804123E0,7.920243144E-1
1.391559402E1,2.392822653E-1,-9.816555023E0,8.709874153E-1
1.393586412E1,2.344966233E-1,-9.811769485E0,9.260223508E-1
1.395613428E1,2.584248483E-1,-9.871589661E0,9.499505758E-1
1.397640443E1,2.949153781E-1,-9.838089943E0,9.523434043E-1
1.399667459E1,2.877369225E-1,-9.768698692E0,9.188438654E-1
1.401694469E1,2.536391914E-1,-9.792626381E0,8.853443861E-1
1.403721485E1,2.057827413E-1,-9.806983948E0,8.901300430E-1
1.405748496E1,1.914258152E-1,-9.754341125E0,8.925228715E-1
1.407775511E1,2.009970993E-1,-9.742377281E0,9.188438654E-1
1.409802522E1,2.321037948E-1,-9.744770050E0,9.284151793E-1
1.411829537E1,2.560320199E-1,-9.773484230E0,9.212366939E-1
1.413869537E1,2.733799815E-1,-9.763913155E0,9.260223508E-1
1.415883563E1,2.638086975E-1,-9.761520386E0,9.164510965E-1
1.417910574E1,2.488535494E-1,-9.749555588E0,8.877372146E-1
1.419937589E1,2.781656384E-1,-9.711270332E0,8.805587292E-1
1.421964600E1,3.379862010E-1,-9.704092026E0,8.566305041E-1
1.424004600E1,3.379862010E-1,-9.708877563E0,8.518448472E-1
1.426018631E1,3.355933726E-1,-9.747162819E0,8.279166222E-1
1.428045641E1,3.212364316E-1,-9.802198410E0,8.327022791E-1
1.430072652E1,3.236292601E-1,-9.826126099E0,8.207381964E-1
1.432099667E1,2.757728100E-1,-9.830911636E0,8.279166222E-1
1.434139667E1,2.129612118E-1,-9.830911636E0,8.111668825E-1
1.436153693E1,2.081755698E-1,-9.802198410E0,7.728816867E-1
1.438180704E1,1.818545163E-1,-9.785448074E0,7.322037220E-1
1.440207719E1,1.698904037E-1,-9.785448074E0,7.298108935E-1
1.442234730E1,1.459621787E-1,-9.804591179E0,7.369893789E-1
1.444274730E1,1.220339537E-1,-9.823733330E0,7.489534616E-1
1.446288756E1,1.100698411E-1,-9.845269203E0,7.465606928E-1
1.448315766E1,7.417750359E-2,-9.830911636E0,7.441678643E-1
1.450342782E1,4.546362907E-2,-9.823733330E0,7.513462901E-1
1.452369792E1,2.632104978E-2,-9.828518867E0,7.848458290E-1
1.454396803E1,3.828516230E-2,-9.799804688E0,8.111668825E-1
1.456423818E1,8.853443712E-2,-9.751948357E0,8.494520187E-1
1.458450829E1,1.244267747E-1,-9.771091461E0,8.231309652E-1
1.460477839E1,1.339980662E-1,-9.799804688E0,8.183453679E-1
1.462504855E1,1.220339537E-1,-9.809376717E0,8.135597110E-1
1.464531865E1,1.124626622E-1,-9.763913155E0,7.728816867E-1
1.466558876E1,8.374879509E-2,-9.735198975E0,7.441678643E-1
1.468597772E1,5.024927482E-2,-9.783055305E0,7.178468108E-1
1.470612902E1,4.307080805E-2,-9.866804123E0,6.771687865E-1
1.472639912E1,4.307080805E-2,-9.957731247E0,6.293123364E-1
1.474666923E1,5.503492057E-2,-9.924231529E0,6.173482537E-1
1.476693938E1,1.148554832E-1,-9.850054741E0,5.934200287E-1
1.478720949E1,1.674975902E-1,-9.792626381E0,6.221339107E-1
1.480747959E1,2.177468538E-1,-9.763913155E0,6.412764788E-1
1.482774975E1,2.560320199E-1,-9.737591743E0,6.628118753E-1
1.484801985E1,2.997010350E-1,-9.773484230E0,7.082754970E-1
1.486828996E1,2.512463629E-1,-9.859625816E0,7.250252366E-1
1.488856006E1,2.081755698E-1,-9.943374634E0,7.489534616E-1
1.490883022E1,2.249253243E-1,-9.952945709E0,7.489534616E-1
1.492910032E1,2.057827413E-1,-9.900303841E0,7.345965505E-1
1.494937042E1,1.866401732E-1,-9.806983948E0,7.082754970E-1
1.496964053E1,1.651047617E-1,-9.728020668E0,7.441678643E-1
1.498991063E1,1.172483116E-1,-9.711270332E0,7.896314859E-1
1.501018068E1,8.135596663E-2,-9.711270332E0,8.327022791E-1
1.503045089E1,4.546362907E-2,-9.759127617E0,8.614161611E-1
1.505072100E1,-5.982056633E-2,-9.814162254E0,8.542376757E-1
1.507099110E1,-2.009970993E-1,-9.854840279E0,8.183453679E-1
1.509126120E1,-3.086741269E-1,-9.818947792E0,7.202396393E-1
1.511153131E1,-3.302095234E-1,-9.751948357E0,5.958128572E-1
1.513180136E1,-2.440679073E-1,-9.809376717E0,4.666004181E-1
1.515207152E1,-1.076770201E-1,-9.969695091E0,4.570291340E-1
1.517234162E1,2.392822644E-3,-1.006780148E1,5.120640397E-1
1.519261173E1,1.818545163E-1,-9.926624298E0,5.742774606E-1
1.521288183E1,4.049852192E-1,-9.751948357E0,4.929214716E-1
1.523315193E1,6.586244106E-1,-9.773484230E0,3.876372576E-1
1.525342204E1,8.045865893E-1,-9.804591179E0,3.014956415E-1
1.527369214E1,7.328019142E-1,-9.806983948E0,3.708875179E-1
1.529396219E1,5.389832854E-1,-9.804591179E0,5.407779217E-1
1.531423230E1,2.973082066E-1,-9.713663101E0,6.891329288E-1
1.533450240E1,1.028913707E-1,-9.646664619E0,7.322037220E-1
1.535477251E1,2.871387079E-2,-9.696913719E0,6.652047038E-1
1.537504261E1,-5.982056633E-2,-9.742377281E0,6.508477330E-1
1.539531272E1,-1.962114573E-1,-9.761520386E0,6.723831892E-1
1.541558277E1,-2.488535494E-1,-9.783055305E0,6.508477330E-1
1.543585287E1,-2.105683982E-1,-9.857233047E0,5.575276613E-1
1.545612298E1,-1.387837082E-1,-9.938589096E0,4.761717021E-1
1.547639308E1,-2.392822644E-3,-9.938589096E0,4.905286431E-1
1.549666313E1,1.004985496E-1,-9.931410789E0,5.168496966E-1
1.551693324E1,1.579262912E-1,-9.912267685E0,5.647061467E-1
1.553720334E1,1.746760458E-1,-9.885947227E0,5.670989752E-1
1.555747339E1,1.890329868E-1,-9.804591179E0,5.455635786E-1
1.557774350E1,2.105683982E-1,-9.756733894E0,5.240281820E-1
1.559801360E1,2.440679073E-1,-9.754341125E0,5.240281820E-1
1.561828365E1,2.009970993E-1,-9.811769485E0,5.120640397E-1
1.563868365E1,1.196411327E-1,-9.862018585E0,4.761717021E-1
1.565882381E1,5.982056633E-2,-9.818947792E0,4.283152521E-1
1.567909391E1,6.460621208E-2,-9.814162254E0,4.019941986E-1
1.569936397E1,1.028913707E-1,-9.835697174E0,4.307080805E-1
1.571963407E1,1.292124242E-1,-9.828518867E0,5.120640397E-1
1.574003407E1,1.435693651E-1,-9.823733330E0,5.623133183E-1
1.576017423E1,1.268195957E-1,-9.833304405E0,5.958128572E-1
1.578044423E1,8.614161611E-2,-9.854840279E0,5.838487148E-1
1.580071438E1,7.417750359E-2,-9.840482712E0,5.168496966E-1
1.582098443E1,7.657032460E-2,-9.811769485E0,4.881358147E-1
1.584138443E1,1.004985496E-1,-9.823733330E0,4.474578202E-1
1.586152459E1,9.571290761E-2,-9.833304405E0,4.642075896E-1
1.588179464E1,1.028913707E-1,-9.802198410E0,4.761717021E-1
1.590206469E1,1.052841991E-1,-9.756733894E0,4.953143001E-1
1.592233079E1,7.657032460E-2,-9.742377281E0,5.048855543E-1
1.594256626E1,6.699903309E-2,-9.749555588E0,4.953143001E-1
1.596287548E1,6.939185411E-2,-9.802198410E0,4.929214716E-1
1.598314542E1,7.657032460E-2,-9.830911636E0,5.096712112E-1
1.600341537E1,1.172483116E-1,-9.826126099E0,4.881358147E-1
1.602368542E1,1.363908947E-1,-9.842875481E0,4.977070987E-1
1.604408532E1,1.292124242E-1,-9.885947227E0,4.905286431E-1
1.606422542E1,1.172483116E-1,-9.936196327E0,4.689932466E-1
1.608449548E1,7.896314561E-2,-9.902696609E0,4.402793646E-1
1.610476548E1,3.828516230E-2,-9.850054741E0,3.900300860E-1
1.612503553E1,-9.571290575E-3,-9.775876999E0,3.254238665E-1
1.614543548E1,-7.178467698E-3,-9.771091461E0,2.488535494E-1
1.616557558E1,5.503492057E-2,-9.799804688E0,2.392822653E-1
1.618584553E1,1.052841991E-1,-9.823733330E0,2.991028428E-1
1.620611563E1,1.148554832E-1,-9.842875481E0,4.091726840E-1
1.622638563E1,9.332008660E-2,-9.866804123E0,4.642075896E-1
1.624665563E1,9.092725813E-2,-9.909874916E0,5.024927258E-1
1.626692568E1,6.699903309E-2,-9.881160736E0,5.455635786E-1
1.628719574E1,5.982056633E-2,-9.828518867E0,5.335994363E-1
1.630746579E1,6.939185411E-2,-9.806983948E0,5.024927258E-1
1.632773584E1,8.614161611E-2,-9.799804688E0,4.618147612E-1
1.634800589E1,8.135596663E-2,-9.833304405E0,4.019941986E-1
1.636827589E1,3.828516230E-2,-9.799804688E0,3.684946895E-1
1.638854594E1,1.435693540E-2,-9.842875481E0,3.469592929E-1
1.640881600E1,0.000000000E0,-9.826126099E0,3.565305769E-1
1.642908600E1,7.896314561E-2,-9.842875481E0,3.732803464E-1
1.644935605E1,1.363908947E-1,-9.857233047E0,4.019941986E-1
1.646962605E1,1.268195957E-1,-9.850054741E0,4.187439680E-1
1.648989605E1,8.614161611E-2,-9.862018585E0,4.474578202E-1
1.651016610E1,1.196411345E-2,-9.828518867E0,4.785645306E-1
1.653043610E1,-9.571290575E-3,-9.799804688E0,5.024927258E-1
1.655070615E1,4.067798331E-2,-9.766305923E0,4.905286431E-1
1.657097615E1,8.614161611E-2,-9.787840843E0,4.642075896E-1
1.659124620E1,1.292124242E-1,-9.823733330E0,3.996013701E-1
1.661151620E1,1.220339537E-1,-9.871589661E0,3.661018610E-1
1.663178620E1,5.742774159E-2,-9.859625816E0,2.991028428E-1
1.665205620E1,2.871387079E-2,-9.852447510E0,2.943171859E-1
1.667232626E1,1.914258115E-2,-9.845269203E0,3.445664644E-1
1.669259626E1,4.546362907E-2,-9.806983948E0,4.091726840E-1
1.671286626E1,5.742774159E-2,-9.818947792E0,4.618147612E-1
1.673313631E1,4.785645381E-2,-9.806983948E0,4.761717021E-1
1.675340631E1,3.589234129E-2,-9.818947792E0,4.881358147E-1
1.677367631E1,1.914258115E-2,-9.797411919E0,4.426721931E-1
1.679394631E1,3.349951655E-2,-9.816555023E0,3.924229145E-1
1.681421631E1,1.435693540E-2,-9.873982430E0,3.589234054E-1
1.683448631E1,3.349951655E-2,-9.828518867E0,3.589234054E-1
1.685475631E1,5.024927482E-2,-9.826126099E0,3.541377485E-1
1.687502631E1,4.307080805E-2,-9.833304405E0,3.254238665E-1
1.689529631E1,2.632104978E-2,-9.835697174E0,3.182454109E-1
1.691556631E1,0.000000000E0,-9.854840279E0,3.014956415E-1
1.693595506E1,2.392822644E-3,-9.845269203E0,3.230310678E-1
1.695610631E1,1.435693540E-2,-9.828518867E0,3.828516304E-1
1.697637626E1,4.546362907E-2,-9.809376717E0,4.067798555E-1
1.699664626E1,5.264209956E-2,-9.795019150E0,4.115654826E-1
1.701691626E1,5.264209956E-2,-9.871589661E0,4.043870270E-1
1.703718626E1,4.307080805E-2,-9.828518867E0,3.661018610E-1
1.705745620E1,1.435693540E-2,-9.814162254E0,3.589234054E-1
1.707772620E1,1.914258115E-2,-9.826126099E0,3.732803464E-1
1.709799620E1,3.589234129E-2,-9.826126099E0,3.661018610E-1
1.711826615E1,5.742774159E-2,-9.821340561E0,3.517449200E-1
1.713866615E1,3.110669367E-2,-9.845269203E0,3.373879790E-1
1.715880615E1,0.000000000E0,-9.823733330E0,3.397808075E-1
1.717907610E1,-1.196411345E-2,-9.830911636E0,3.326023519E-1
1.719934610E1,-1.674975827E-2,-9.830911636E0,3.517449200E-1
1.721961605E1,-9.571290575E-3,-9.830911636E0,3.804588020E-1
1.724001605E1,-2.632104978E-2,-9.821340561E0,3.924229145E-1
1.726015600E1,-2.153540403E-2,-9.806983948E0,3.996013701E-1
1.728055600E1,-4.307080805E-2,-9.797411919E0,4.283152521E-1
1.730069594E1,-5.982056633E-2,-9.806983948E0,4.259224236E-1
1.732096594E1,-3.349951655E-2,-9.814162254E0,4.331009090E-1
1.734136594E1,-2.392822690E-2,-9.850054741E0,4.331009090E-1
1.736150584E1,-2.871387079E-2,-9.885947227E0,4.378865361E-1
1.738177579E1,-2.871387079E-2,-9.866804123E0,4.259224236E-1
1.740204579E1,-4.067798331E-2,-9.835697174E0,3.780659735E-1
1.742231574E1,-5.024927482E-2,-9.828518867E0,3.565305769E-1
1.744271574E1,-1.100698411E-1,-9.816555023E0,3.565305769E-1
1.746285568E1,-1.196411327E-1,-9.833304405E0,3.254238665E-1
1.748312563E1,-5.503492057E-2,-9.830911636E0,2.751746178E-1
1.750339558E1,2.871387079E-2,-9.850054741E0,2.656033039E-1
1.752366553E1,3.589234129E-2,-9.818947792E0,3.254238665E-1
1.754393548E1,1.196411345E-2,-9.852447510E0,3.876372576E-1
1.756420542E1,-5.503492057E-2,-9.814162254E0,4.713860750E-1
1.758447537E1,-7.178468257E-2,-9.773484230E0,4.953143001E-1
1.760474532E1,-1.028913707E-1,-9.792626381E0,5.000999570E-1
1.762501527E1,-9.571290761E-2,-9.838089943E0,4.666004181E-1
1.764528522E1,-6.460621208E-2,-9.830911636E0,4.498506486E-1
1.766555516E1,-7.178468257E-2,-9.826126099E0,4.163511395E-1
1.768582511E1,-6.221338734E-2,-9.835697174E0,3.804588020E-1
1.770609506E1,-8.853443712E-2,-9.830911636E0,3.445664644E-1
1.772636501E1,-1.292124242E-1,-9.830911636E0,3.565305769E-1
1.774663501E1,-1.363908947E-1,-9.878767967E0,3.493520916E-1
1.776690537E1,-7.657032460E-2,-9.847661972E0,3.589234054E-1
1.778717480E1,-3.349951655E-2,-9.826126099E0,3.828516304E-1
1.780744469E1,-3.110669367E-2,-9.833304405E0,4.091726840E-1
1.782771464E1,-3.110669367E-2,-9.826126099E0,4.881358147E-1
1.784798459E1,-7.417750359E-2,-9.806983948E0,4.929214716E-1
1.786825449E1,-1.220339537E-1,-9.799804688E0,4.881358147E-1
1.788852443E1,-1.100698411E-1,-9.835697174E0,4.546363056E-1
1.790879438E1,-7.657032460E-2,-9.823733330E0,4.283152521E-1
1.792906428E1,-5.503492057E-2,-9.814162254E0,3.804588020E-1
1.794933423E1,-6.699903309E-2,-9.838089943E0,4.043870270E-1
1.796973423E1,-6.939185411E-2,-9.830911636E0,4.067798555E-1
1.798987407E1,-1.196411327E-1,-9.828518867E0,4.331009090E-1
1.801014402E1,-1.076770201E-1,-9.826126099E0,4.474578202E-1
1.803041391E1,-8.135596663E-2,-9.797411919E0,4.450650215E-1
1.805068381E1,-6.460621208E-2,-9.830911636E0,4.450650215E-1
1.807095376E1,-5.503492057E-2,-9.818947792E0,4.642075896E-1
1.809122365E1,-5.024927482E-2,-9.854840279E0,4.474578202E-1
1.811149355E1,-1.052841991E-1,-9.823733330E0,4.546363056E-1
1.813176350E1,-1.483550072E-1,-9.823733330E0,4.498506486E-1
1.815203339E1,-1.411765367E-1,-9.835697174E0,4.354937077E-1
1.817230329E1,-6.221338734E-2,-9.821340561E0,4.283152521E-1
1.819257324E1,7.178467698E-3,-9.811769485E0,4.211367965E-1
1.821284313E1,7.178467698E-3,-9.838089943E0,4.211367965E-1
1.823311303E1,-7.178468257E-2,-9.859625816E0,4.498506486E-1
1.825338292E1,-1.196411327E-1,-9.845269203E0,4.450650215E-1
1.827365282E1,-1.507478207E-1,-9.821340561E0,4.522434771E-1
1.829392272E1,-1.292124242E-1,-9.826126099E0,4.426721931E-1
1.831419266E1,-1.220339537E-1,-9.806983948E0,4.713860750E-1
1.833446256E1,-1.148554832E-1,-9.804591179E0,4.785645306E-1
1.835473246E1,-1.220339537E-1,-9.814162254E0,4.881358147E-1
1.837500230E1,-1.028913707E-1,-9.835697174E0,4.977070987E-1
1.839527225E1,-8.853443712E-2,-9.828518867E0,4.953143001E-1
1.841554214E1,-5.503492057E-2,-9.842875481E0,5.024927258E-1
1.843581204E1,-5.742774159E-2,-9.873982430E0,4.977070987E-1
1.845608188E1,-5.742774159E-2,-9.833304405E0,4.977070987E-1
1.847635178E1,-6.460621208E-2,-9.830911636E0,4.642075896E-1
1.849662167E1,-8.135596663E-2,-9.830911636E0,4.426721931E-1
1.851689157E1,-1.100698411E-1,-9.816555023E0,4.546363056E-1
1.853716146E1,-1.100698411E-1,-9.816555023E0,4.618147612E-1
1.855743136E1,-5.264209956E-2,-9.818947792E0,4.833501875E-1
1.857782001E1,1.674975827E-2,-9.835697174E0,4.905286431E-1
1.859797110E1,-3.110669367E-2,-9.854840279E0,5.240281820E-1
1.861824100E1,-9.571290761E-2,-9.838089943E0,5.479564071E-1
1.863864100E1,-1.531406492E-1,-9.823733330E0,5.264210105E-1
1.865878074E1,-1.962114573E-1,-9.783055305E0,4.977070987E-1
1.867905058E1,-1.411765367E-1,-9.802198410E0,4.809573591E-1
1.869932048E1,-1.076770201E-1,-9.816555023E0,4.977070987E-1
1.871959032E1,-8.614161611E-2,-9.830911636E0,4.857429862E-1
1.873999032E1,-1.220339537E-1,-9.830911636E0,4.881358147E-1
1.876013006E1,-1.459621787E-1,-9.842875481E0,4.761717021E-1
1.878039996E1,-1.339980662E-1,-9.833304405E0,4.450650215E-1
1.880066980E1,-1.172483116E-1,-9.864411354E0,4.450650215E-1
1.882093969E1,-9.332008660E-2,-9.840482712E0,4.570291340E-1
1.884133969E1,-7.178468257E-2,-9.842875481E0,4.666004181E-1
1.886147938E1,-5.024927482E-2,-9.809376717E0,4.713860750E-1
1.888174928E1,-6.939185411E-2,-9.823733330E0,4.689932466E-1
1.890201912E1,-7.657032460E-2,-9.809376717E0,4.905286431E-1
1.892228896E1,-4.546362907E-2,-9.821340561E0,4.761717021E-1
1.894268897E1,-4.307080805E-2,-9.821340561E0,4.618147612E-1
1.896282870E1,-4.067798331E-2,-9.833304405E0,4.785645306E-1
1.898309855E1,-4.307080805E-2,-9.818947792E0,4.737788737E-1
1.900336844E1,-5.264209956E-2,-9.833304405E0,4.594219327E-1
1.902363829E1,-8.374879509E-2,-9.830911636E0,4.546363056E-1
1.904403829E1,-8.853443712E-2,-9.821340561E0,4.378865361E-1
1.906417798E1,-1.196411327E-1,-9.830911636E0,4.761717021E-1
1.908444782E1,-1.052841991E-1,-9.862018585E0,4.953143001E-1
1.910471766E1,-7.657032460E-2,-9.799804688E0,5.144568682E-1
1.912498756E1,-1.028913707E-1,-9.823733330E0,4.977070987E-1
1.914525740E1,-1.459621787E-1,-9.821340561E0,5.096712112E-1
1.916553516E1,-1.555334777E-1,-9.823733330E0,4.785645306E-1
1.918587423E1,-1.004985496E-1,-9.778269768E0,4.881358147E-1
1.920606579E1,-4.307080805E-2,-9.821340561E0,4.666004181E-1
1.922633589E1,-2.153540403E-2,-9.857233047E0,5.072783828E-1
1.924660594E1,-4.067798331E-2,-9.857233047E0,5.168496966E-1
1.926687589E1,-8.614161611E-2,-9.835697174E0,5.455635786E-1
1.928714589E1,-1.483550072E-1,-9.828518867E0,5.455635786E-1
1.930741584E1,-1.914258152E-1,-9.811769485E0,5.503492355E-1
1.932768574E1,-1.698904037E-1,-9.809376717E0,5.048855543E-1
1.934795563E1,-1.411765367E-1,-9.816555023E0,4.785645306E-1
1.936822558E1,-1.363908947E-1,-9.804591179E0,4.809573591E-1
1.938849542E1,-1.172483116E-1,-9.780662537E0,5.168496966E-1
1.940876527E1,-9.332008660E-2,-9.842875481E0,5.335994363E-1
1.942903516E1,-1.028913707E-1,-9.814162254E0,5.288137794E-1
1.944930501E1,-9.810572863E-2,-9.811769485E0,5.312066078E-1
1.946957485E1,-1.196411327E-1,-9.833304405E0,5.431707501E-1
1.948984469E1,-1.292124242E-1,-9.854840279E0,5.407779217E-1
1.951011459E1,-1.435693651E-1,-9.835697174E0,5.144568682E-1
1.953038443E1,-1.387837082E-1,-9.828518867E0,4.618147612E-1
1.955065428E1,-1.196411327E-1,-9.842875481E0,4.785645306E-1
1.957092412E1,-7.657032460E-2,-9.830911636E0,4.618147612E-1
1.959119397E1,-8.853443712E-2,-9.811769485E0,4.689932466E-1
1.961146381E1,-9.571290761E-2,-9.830911636E0,5.168496966E-1
1.963173365E1,-5.503492057E-2,-9.809376717E0,5.359922647E-1
1.965200350E1,-5.982056633E-2,-9.787840843E0,5.551348329E-1
1.967227334E1,-9.571290761E-2,-9.857233047E0,5.383850932E-1
1.969254318E1,-1.172483116E-1,-9.838089943E0,5.359922647E-1
1.971281303E1,-1.555334777E-1,-9.818947792E0,5.096712112E-1
1.973308287E1,-1.435693651E-1,-9.780662537E0,5.264210105E-1
1.975335266E1,-1.172483116E-1,-9.814162254E0,5.407779217E-1
1.977362256E1,-7.657032460E-2,-9.811769485E0,5.503492355E-1
1.979389240E1,-4.067798331E-2,-9.833304405E0,5.312066078E-1
1.981416219E1,-5.264209956E-2,-9.842875481E0,5.216353536E-1
1.983443204E1,-1.124626622E-1,-9.854840279E0,5.048855543E-1
1.985470188E1,-1.603191197E-1,-9.850054741E0,4.929214716E-1
1.987497173E1,-1.507478207E-1,-9.835697174E0,4.977070987E-1
1.989524157E1,-1.339980662E-1,-9.816555023E0,5.144568682E-1
1.991551141E1,-1.124626622E-1,-9.806983948E0,5.192425251E-1
1.993578126E1,-1.148554832E-1,-9.818947792E0,5.455635786E-1
1.995605110E1,-1.220339537E-1,-9.806983948E0,5.575276613E-1
1.997632094E1,-1.316052526E-1,-9.797411919E0,5.790630579E-1
1.999659079E1,-1.052841991E-1,-9.802198410E0,5.886343718E-1
2.001686063E1,-1.052841991E-1,-9.833304405E0,5.670989752E-1
2.003713048E1,-1.004985496E-1,-9.847661972E0,5.431707501E-1
2.005740032E1,-8.853443712E-2,-9.830911636E0,5.335994363E-1
2.007767016E1,-1.148554832E-1,-9.840482712E0,5.144568682E-1
2.009794001E1,-1.411765367E-1,-9.821340561E0,5.168496966E-1
2.011820985E1,-1.722832322E-1,-9.840482712E0,5.096712112E-1
2.013860985E1,-1.411765367E-1,-9.830911636E0,5.479564071E-1
2.015874954E1,-7.657032460E-2,-9.802198410E0,5.575276613E-1
2.017901938E1,-8.135596663E-2,-9.795019150E0,5.527420044E-1
2.019928923E1,-1.363908947E-1,-9.842875481E0,5.670989752E-1
2.021955907E1,-1.627119333E-1,-9.840482712E0,5.910272002E-1
2.023995907E1,-1.986042857E-1,-9.804591179E0,5.790630579E-1
2.026009876E1,-1.651047617E-1,-9.771091461E0,5.766702294E-1
2.028036865E1,-9.332008660E-2,-9.814162254E0,5.551348329E-1
2.030063855E1,-3.349951655E-2,-9.814162254E0,5.527420044E-1
2.032090839E1,-3.110669367E-2,-9.821340561E0,5.120640397E-1
2.034130839E1,-7.178468257E-2,-9.830911636E0,5.144568682E-1
2.036144808E1,-1.339980662E-1,-9.833304405E0,5.192425251E-1
2.038171792E1,-1.962114573E-1,-9.859625816E0,5.168496966E-1
2.040198777E1,-1.914258152E-1,-9.838089943E0,4.977070987E-1
2.042225761E1,-1.651047617E-1,-9.804591179E0,4.977070987E-1
2.044265761E1,-8.853443712E-2,-9.811769485E0,5.000999570E-1
2.046279730E1,-1.028913707E-1,-9.806983948E0,5.551348329E-1
2.048306714E1,-1.172483116E-1,-9.821340561E0,5.742774606E-1
2.050333704E1,-1.220339537E-1,-9.833304405E0,5.694918036E-1
2.052360688E1,-1.292124242E-1,-9.816555023E0,5.551348329E-1
2.054387673E1,-1.172483116E-1,-9.838089943E0,5.551348329E-1
2.056414657E1,-1.172483116E-1,-9.830911636E0,5.407779217E-1
2.058441641E1,-1.268195957E-1,-9.845269203E0,5.240281820E-1
2.060468626E1,-1.507478207E-1,-9.830911636E0,5.216353536E-1
2.062495610E1,-1.770688742E-1,-9.809376717E0,5.192425251E-1
2.064535610E1,-1.698904037E-1,-9.816555023E0,5.455635786E-1
2.066549579E1,-1.651047617E-1,-9.821340561E0,5.503492355E-1
2.068576563E1,-1.196411327E-1,-9.840482712E0,5.407779217E-1
2.070603548E1,-8.374879509E-2,-9.785448074E0,5.718846321E-1
2.072630537E1,-1.363908947E-1,-9.816555023E0,5.814558864E-1
2.074657522E1,-1.890329868E-1,-9.826126099E0,5.838487148E-1
2.076684506E1,-1.770688742E-1,-9.811769485E0,5.790630579E-1
2.078711490E1,-1.268195957E-1,-9.802198410E0,5.335994363E-1
2.080738475E1,-8.135596663E-2,-9.821340561E0,5.359922647E-1
2.082765459E1,-7.896314561E-2,-9.852447510E0,5.407779217E-1
2.084792443E1,-1.100698411E-1,-9.830911636E0,5.407779217E-1
2.086819428E1,-1.268195957E-1,-9.821340561E0,5.551348329E-1
2.088846412E1,-1.842473447E-1,-9.818947792E0,5.599204898E-1
2.090873396E1,-1.842473447E-1,-9.826126099E0,5.479564071E-1
2.092900381E1,-1.555334777E-1,-9.830911636E0,5.431707501E-1
2.094927365E1,-1.339980662E-1,-9.792626381E0,5.599204898E-1
2.096954350E1,-1.459621787E-1,-9.814162254E0,5.575276613E-1
2.098981334E1,-1.316052526E-1,-9.833304405E0,5.647061467E-1
2.101008318E1,-1.459621787E-1,-9.804591179E0,5.886343718E-1
2.103035303E1,-1.387837082E-1,-9.821340561E0,5.958128572E-1
2.105062287E1,-1.052841991E-1,-9.828518867E0,5.814558864E-1
2.107089272E1,-1.148554832E-1,-9.809376717E0,5.862415433E-1
2.109116256E1,-1.244267747E-1,-9.823733330E0,5.910272002E-1
2.111143240E1,-1.459621787E-1,-9.830911636E0,5.766702294E-1
2.113170225E1,-1.507478207E-1,-9.818947792E0,5.623133183E-1
2.115197209E1,-1.316052526E-1,-9.811769485E0,5.575276613E-1
2.117224193E1,-1.363908947E-1,-9.818947792E0,5.479564071E-1
2.119251178E1,-1.292124242E-1,-9.850054741E0,5.455635786E-1
2.121278162E1,-8.614161611E-2,-9.833304405E0,5.790630579E-1
2.123305147E1,-5.024927482E-2,-9.792626381E0,5.766702294E-1
2.125332131E1,-9.332008660E-2,-9.802198410E0,5.982056856E-1
2.127359110E1,-1.627119333E-1,-9.850054741E0,6.077769399E-1
2.129386094E1,-2.225325108E-1,-9.838089943E0,6.077769399E-1
2.131413079E1,-2.201396823E-1,-9.773484230E0,5.742774606E-1
2.133440058E1,-1.579262912E-1,-9.816555023E0,5.647061467E-1
2.135467042E1,-8.614161611E-2,-9.845269203E0,5.575276613E-1
2.137494027E1,-1.674975827E-2,-9.823733330E0,5.359922647E-1
2.139521011E1,1.674975827E-2,-9.833304405E0,5.503492355E-1
2.141548396E1,-5.264209956E-2,-9.833304405E0,5.958128572E-1
2.143578839E1,-1.316052526E-1,-9.840482712E0,6.173482537E-1
2.145601912E1,-1.794617027E-1,-9.830911636E0,6.053841114E-1
2.147628907E1,-1.914258152E-1,-9.818947792E0,5.623133183E-1
2.149655902E1,-1.459621787E-1,-9.797411919E0,5.431707501E-1
2.151682886E1,-1.196411327E-1,-9.811769485E0,5.359922647E-1
2.153709881E1,-1.004985496E-1,-9.818947792E0,5.527420044E-1
2.155736865E1,-1.100698411E-1,-9.830911636E0,5.838487148E-1
2.157763855E1,-1.124626622E-1,-9.833304405E0,5.910272002E-1
2.159790839E1,-1.268195957E-1,-9.828518867E0,6.317051649E-1
2.161817824E1,-1.028913707E-1,-9.830911636E0,6.221339107E-1
2.163857824E1,-1.172483116E-1,-9.826126099E0,6.029912829E-1
2.165871798E1,-1.387837082E-1,-9.826126099E0,5.790630579E-1
2.167898782E1,-1.268195957E-1,-9.821340561E0,5.359922647E-1
2.169925766E1,-1.004985496E-1,-9.826126099E0,5.264210105E-1
2.171952746E1,-9.810572863E-2,-9.804591179E0,5.288137794E-1
2.173992751E1,-8.135596663E-2,-9.814162254E0,5.312066078E-1
2.176006719E1,-4.307080805E-2,-9.814162254E0,5.718846321E-1
2.178033704E1,-4.307080805E-2,-9.818947792E0,5.982056856E-1
2.180060688E1,-7.178468257E-2,-9.842875481E0,5.958128572E-1
2.182087673E1,-1.124626622E-1,-9.852447510E0,5.910272002E-1
2.184127673E1,-1.579262912E-1,-9.806983948E0,5.599204898E-1
2.186141636E1,-1.220339537E-1,-9.761520386E0,5.216353536E-1
2.188168620E1,-8.853443712E-2,-9.802198410E0,5.192425251E-1
2.190195605E1,-4.307080805E-2,-9.830911636E0,5.168496966E-1
2.192222589E1,-2.632104978E-2,-9.826126099E0,5.096712112E-1
2.194262589E1,-1.435693540E-2,-9.838089943E0,5.288137794E-1
2.196276553E1,-3.828516230E-2,-9.842875481E0,5.431707501E-1
2.198303537E1,-9.092725813E-2,-9.818947792E0,5.431707501E-1
2.200330522E1,-9.571290761E-2,-9.816555023E0,5.048855543E-1
2.202357506E1,-8.135596663E-2,-9.806983948E0,4.929214716E-1
2.204397506E1,-5.264209956E-2,-9.806983948E0,4.953143001E-1
2.206411469E1,-5.264209956E-2,-9.811769485E0,4.953143001E-1
2.208438454E1,-4.546362907E-2,-9.830911636E0,5.048855543E-1
2.210465438E1,-4.307080805E-2,-9.835697174E0,5.048855543E-1
2.212492423E1,-1.674975827E-2,-9.830911636E0,5.120640397E-1
2.214519402E1,-2.153540403E-2,-9.859625816E0,5.096712112E-1
2.216546386E1,-1.674975827E-2,-9.823733330E0,4.809573591E-1
2.218573370E1,-1.435693540E-2,-9.816555023E0,5.024927258E-1
2.220600350E1,-7.417750359E-2,-9.838089943E0,4.977070987E-1
2.222627334E1,-8.614161611E-2,-9.814162254E0,4.713860750E-1
2.224654318E1,-6.460621208E-2,-9.821340561E0,4.570291340E-1
2.226681303E1,-6.221338734E-2,-9.823733330E0,4.737788737E-1
2.228708287E1,-4.785645381E-2,-9.857233047E0,4.929214716E-1
2.230735266E1,-4.067798331E-2,-9.811769485E0,5.168496966E-1
2.232762251E1,-5.264209956E-2,-9.802198410E0,5.072783828E-1
2.234789235E1,-8.135596663E-2,-9.840482712E0,5.072783828E-1
2.236816214E1,-1.292124242E-1,-9.840482712E0,5.048855543E-1
2.238843199E1,-1.627119333E-1,-9.787840843E0,5.216353536E-1
2.240870183E1,-1.435693651E-1,-9.792626381E0,5.216353536E-1
2.242897167E1,-5.982056633E-2,-9.806983948E0,4.833501875E-1
2.244924146E1,4.785645287E-3,-9.814162254E0,4.857429862E-1
2.246951131E1,7.178467698E-3,-9.852447510E0,4.857429862E-1
2.248978115E1,-3.110669367E-2,-9.840482712E0,5.072783828E-1
2.251005100E1,-8.853443712E-2,-9.828518867E0,4.761717021E-1
2.253032084E1,-1.052841991E-1,-9.821340561E0,4.953143001E-1
2.255059063E1,-1.028913707E-1,-9.830911636E0,4.929214716E-1
2.257086048E1,-1.220339537E-1,-9.809376717E0,4.881358147E-1
2.259113032E1,-8.614161611E-2,-9.823733330E0,4.857429862E-1
2.261140011E1,-6.221338734E-2,-9.797411919E0,4.833501875E-1
2.263166996E1,-5.503492057E-2,-9.830911636E0,4.977070987E-1
2.265193980E1,-6.221338734E-2,-9.823733330E0,5.048855543E-1
2.267220964E1,-6.939185411E-2,-9.821340561E0,5.048855543E-1
2.269247943E1,-5.264209956E-2,-9.833304405E0,4.905286431E-1
2.271274928E1,-4.785645381E-2,-9.842875481E0,4.833501875E-1
2.273301912E1,-5.742774159E-2,-9.821340561E0,4.713860750E-1
2.275328897E1,-8.853443712E-2,-9.845269203E0,4.666004181E-1
2.277355881E1,-9.810572863E-2,-9.821340561E0,4.642075896E-1
2.279382865E1,-1.220339537E-1,-9.806983948E0,4.498506486E-1
2.281409844E1,-1.220339537E-1,-9.828518867E0,4.761717021E-1
2.283436829E1,-8.135596663E-2,-9.842875481E0,4.881358147E-1
2.285463813E1,-5.982056633E-2,-9.797411919E0,4.761717021E-1
2.287490798E1,-8.135596663E-2,-9.835697174E0,4.570291340E-1
2.289517782E1,-1.100698411E-1,-9.840482712E0,4.809573591E-1
2.291544761E1,-1.387837082E-1,-9.802198410E0,4.809573591E-1
2.293571746E1,-1.363908947E-1,-9.806983948E0,4.761717021E-1
2.295598730E1,-9.571290761E-2,-9.816555023E0,4.785645306E-1
2.297625714E1,-4.785645381E-2,-9.840482712E0,4.905286431E-1
2.299652699E1,-2.153540403E-2,-9.850054741E0,4.642075896E-1
2.301679683E1,-5.503492057E-2,-9.816555023E0,4.713860750E-1
2.303706667E1,-1.220339537E-1,-9.778269768E0,5.048855543E-1
2.305733647E1,-1.603191197E-1,-9.811769485E0,4.905286431E-1
2.307773646E1,-1.603191197E-1,-9.816555023E0,4.881358147E-1
2.309787615E1,-1.555334777E-1,-9.830911636E0,4.809573591E-1
2.311814600E1,-1.531406492E-1,-9.818947792E0,4.689932466E-1
2.313854600E1,-1.507478207E-1,-9.823733330E0,4.666004181E-1
2.315868568E1,-1.220339537E-1,-9.816555023E0,4.546363056E-1
2.317895553E1,-9.571290761E-2,-9.806983948E0,4.474578202E-1
2.319922537E1,-9.571290761E-2,-9.804591179E0,4.737788737E-1
2.321949522E1,-1.339980662E-1,-9.845269203E0,4.833501875E-1
2.323989522E1,-1.794617027E-1,-9.862018585E0,5.000999570E-1
2.326003490E1,-1.866401732E-1,-9.842875481E0,4.737788737E-1
2.328030475E1,-1.962114573E-1,-9.823733330E0,4.785645306E-1
2.330057459E1,-1.866401732E-1,-9.814162254E0,4.905286431E-1
2.332084443E1,-1.746760458E-1,-9.790233612E0,5.072783828E-1
2.334124443E1,-1.339980662E-1,-9.763913155E0,5.264210105E-1
2.336138412E1,-1.076770201E-1,-9.826126099E0,5.431707501E-1
2.338165396E1,-5.024927482E-2,-9.833304405E0,5.455635786E-1
2.340192381E1,-3.828516230E-2,-9.823733330E0,5.288137794E-1
2.342219365E1,-4.785645381E-2,-9.873982430E0,5.096712112E-1
2.344259370E1,-1.052841991E-1,-9.845269203E0,4.785645306E-1
2.346273344E1,-1.507478207E-1,-9.761520386E0,4.833501875E-1
2.348300329E1,-1.722832322E-1,-9.763913155E0,4.953143001E-1
2.350327313E1,-1.124626622E-1,-9.787840843E0,5.048855543E-1
2.352354298E1,-4.546362907E-2,-9.802198410E0,4.809573591E-1
2.354381282E1,-3.589234129E-2,-9.835697174E0,5.048855543E-1
2.356408266E1,-6.221338734E-2,-9.847661972E0,5.431707501E-1
2.358435256E1,-7.896314561E-2,-9.828518867E0,5.527420044E-1
2.360462246E1,-1.363908947E-1,-9.833304405E0,5.742774606E-1
2.362489230E1,-1.698904037E-1,-9.852447510E0,5.479564071E-1
2.364516214E1,-1.962114573E-1,-9.816555023E0,5.240281820E-1
2.366543199E1,-1.651047617E-1,-9.778269768E0,4.929214716E-1
2.368570188E1,-1.148554832E-1,-9.795019150E0,5.048855543E-1
2.370597173E1,-7.417750359E-2,-9.821340561E0,5.096712112E-1
2.372624157E1,-4.785645381E-2,-9.826126099E0,5.383850932E-1
2.374651141E1,-6.460621208E-2,-9.811769485E0,5.742774606E-1
2.376678131E1,-1.220339537E-1,-9.835697174E0,6.053841114E-1
2.378705115E1,-1.292124242E-1,-9.847661972E0,6.173482537E-1
2.380732105E1,-1.435693651E-1,-9.809376717E0,5.814558864E-1
2.382759084E1,-1.579262912E-1,-9.811769485E0,5.647061467E-1
2.384786079E1,-1.387837082E-1,-9.816555023E0,5.623133183E-1
2.386813063E1,-1.292124242E-1,-9.859625816E0,5.312066078E-1
2.388840048E1,-9.810572863E-2,-9.835697174E0,5.407779217E-1
2.390867037E1,-5.264209956E-2,-9.823733330E0,5.599204898E-1
2.392894022E1,-1.914258115E-2,-9.795019150E0,5.718846321E-1
2.394921011E1,-6.699903309E-2,-9.802198410E0,5.862415433E-1
2.396948001E1,-1.411765367E-1,-9.847661972E0,5.886343718E-1
2.398974980E1,-1.986042857E-1,-9.787840843E0,6.125625968E-1
2.401001975E1,-2.249253243E-1,-9.816555023E0,6.245267391E-1
2.403028964E1,-1.842473447E-1,-9.845269203E0,6.173482537E-1
2.405055949E1,-1.483550072E-1,-9.802198410E0,6.484549642E-1
2.407082938E1,-1.148554832E-1,-9.802198410E0,6.508477330E-1
2.409109923E1,-1.028913707E-1,-9.821340561E0,6.340979934E-1
2.411136912E1,-1.411765367E-1,-9.804591179E0,6.340979934E-1
2.413163902E1,-1.962114573E-1,-9.792626381E0,6.269195080E-1
2.415190891E1,-2.081755698E-1,-9.818947792E0,6.125625968E-1
2.417217870E1,-1.698904037E-1,-9.847661972E0,6.101697683E-1
2.419244865E1,-1.459621787E-1,-9.821340561E0,5.934200287E-1
2.421271855E1,-1.339980662E-1,-9.828518867E0,6.221339107E-1
2.423298844E1,-1.316052526E-1,-9.806983948E0,6.364908218E-1
2.425325829E1,-1.244267747E-1,-9.804591179E0,6.340979934E-1
2.427352818E1,-1.196411327E-1,-9.771091461E0,6.340979934E-1
2.429379803E1,-1.292124242E-1,-9.814162254E0,6.388836503E-1
2.431406798E1,-1.316052526E-1,-9.842875481E0,6.317051649E-1
2.433433782E1,-1.339980662E-1,-9.842875481E0,6.221339107E-1
2.435460772E1,-1.387837082E-1,-9.818947792E0,6.221339107E-1
2.437487761E1,-1.363908947E-1,-9.792626381E0,6.029912829E-1
2.439514751E1,-1.196411327E-1,-9.780662537E0,6.293123364E-1
2.441541740E1,-1.100698411E-1,-9.792626381E0,6.436693072E-1
2.443568730E1,-1.363908947E-1,-9.835697174E0,6.412764788E-1
2.445595719E1,-8.853443712E-2,-9.840482712E0,6.460621357E-1
2.447622709E1,-8.853443712E-2,-9.806983948E0,6.173482537E-1
2.449662709E1,-1.339980662E-1,-9.847661972E0,6.149554253E-1
2.451676688E1,-1.579262912E-1,-9.852447510E0,6.173482537E-1
2.453703678E1,-2.057827413E-1,-9.783055305E0,6.101697683E-1
2.455730667E1,-2.392822653E-1,-9.749555588E0,6.221339107E-1
2.457757657E1,-2.392822653E-1,-9.802198410E0,6.388836503E-1
2.459784646E1,-1.531406492E-1,-9.806983948E0,6.652047038E-1
2.461811636E1,-8.135596663E-2,-9.828518867E0,6.556333899E-1
2.463851636E1,-9.571290761E-2,-9.821340561E0,6.628118753E-1
2.465865620E1,-1.292124242E-1,-9.809376717E0,6.628118753E-1
2.467892610E1,-1.818545163E-1,-9.826126099E0,6.604190469E-1
2.469919600E1,-1.794617027E-1,-9.838089943E0,6.317051649E-1
2.471946589E1,-1.938186288E-1,-9.790233612E0,6.173482537E-1
2.473986589E1,-2.057827413E-1,-9.790233612E0,6.364908218E-1
2.476000568E1,-2.129612118E-1,-9.797411919E0,6.221339107E-1
2.478027553E1,-1.818545163E-1,-9.804591179E0,6.269195080E-1
2.480054553E1,-1.411765367E-1,-9.833304405E0,6.077769399E-1
2.482081542E1,-1.028913707E-1,-9.811769485E0,6.388836503E-1
2.484121542E1,-1.316052526E-1,-9.818947792E0,6.460621357E-1
2.486135522E1,-1.698904037E-1,-9.814162254E0,6.412764788E-1
2.488162511E1,-1.842473447E-1,-9.802198410E0,6.221339107E-1
2.490189506E1,-1.962114573E-1,-9.816555023E0,6.005984545E-1
2.492216496E1,-2.009970993E-1,-9.838089943E0,6.149554253E-1
2.494256496E1,-1.794617027E-1,-9.838089943E0,6.293123364E-1
2.496270475E1,-1.746760458E-1,-9.809376717E0,6.364908218E-1
2.498297469E1,-1.435693651E-1,-9.821340561E0,6.101697683E-1
2.500324459E1,-1.028913707E-1,-9.833304405E0,6.460621357E-1
2.502351449E1,-1.028913707E-1,-9.804591179E0,6.556333899E-1
2.504391449E1,-1.268195957E-1,-9.828518867E0,6.652047038E-1
2.506405433E1,-1.507478207E-1,-9.838089943E0,6.484549642E-1
2.508432423E1,-1.962114573E-1,-9.795019150E0,6.699903607E-1
2.510459412E1,-2.297109663E-1,-9.773484230E0,6.556333899E-1
2.512486407E1,-2.416750938E-1,-9.761520386E0,6.723831892E-1
2.514526407E1,-1.579262912E-1,-9.790233612E0,6.699903607E-1
2.516540391E1,-9.571290761E-2,-9.828518867E0,6.604190469E-1
2.518567381E1,-8.374879509E-2,-9.830911636E0,6.747759581E-1
2.520594371E1,-1.292124242E-1,-9.852447510E0,6.652047038E-1
2.522621365E1,-2.009970993E-1,-9.833304405E0,6.460621357E-1
2.524648350E1,-1.962114573E-1,-9.806983948E0,6.221339107E-1
2.526675350E1,-1.746760458E-1,-9.814162254E0,5.934200287E-1
2.528702339E1,-1.890329868E-1,-9.821340561E0,6.245267391E-1
2.530729329E1,-1.674975902E-1,-9.840482712E0,6.412764788E-1
2.532756324E1,-1.770688742E-1,-9.830911636E0,6.580262184E-1
2.534783318E1,-1.818545163E-1,-9.811769485E0,6.963114142E-1
2.536810308E1,-1.459621787E-1,-9.802198410E0,6.987041831E-1
2.538837303E1,-1.459621787E-1,-9.780662537E0,7.106683254E-1
2.540864292E1,-1.890329868E-1,-9.809376717E0,6.939185858E-1
2.542891287E1,-2.081755698E-1,-9.826126099E0,6.867401004E-1
2.544918282E1,-2.081755698E-1,-9.818947792E0,6.843472719E-1
2.546945272E1,-2.105683982E-1,-9.826126099E0,6.843472719E-1
2.548972266E1,-2.057827413E-1,-9.838089943E0,6.795616150E-1
2.550999261E1,-2.153540403E-1,-9.821340561E0,7.034898400E-1
2.553026251E1,-2.009970993E-1,-9.773484230E0,7.106683254E-1
2.555053246E1,-1.674975902E-1,-9.797411919E0,7.322037220E-1
2.557080240E1,-1.627119333E-1,-9.799804688E0,7.226324677E-1
2.559107230E1,-1.483550072E-1,-9.802198410E0,7.106683254E-1
2.561134225E1,-1.603191197E-1,-9.828518867E0,6.795616150E-1
2.563161219E1,-1.555334777E-1,-9.814162254E0,6.843472719E-1
2.565188214E1,-1.674975902E-1,-9.799804688E0,6.867401004E-1
2.567215204E1,-1.531406492E-1,-9.804591179E0,6.915257573E-1
2.569242199E1,-1.507478207E-1,-9.802198410E0,6.771687865E-1
2.571269188E1,-1.603191197E-1,-9.797411919E0,6.915257573E-1
2.573296188E1,-1.986042857E-1,-9.799804688E0,6.556333899E-1
2.575323183E1,-2.608176768E-1,-9.816555023E0,6.556333899E-1
2.577350178E1,-2.512463629E-1,-9.818947792E0,6.460621357E-1
2.579377167E1,-1.746760458E-1,-9.816555023E0,6.101697683E-1
2.581404162E1,-1.196411327E-1,-9.821340561E0,6.005984545E-1
2.583431157E1,-1.363908947E-1,-9.773484230E0,6.077769399E-1
2.585458152E1,-1.962114573E-1,-9.778269768E0,5.934200287E-1
2.587485147E1,-2.344966233E-1,-9.881160736E0,5.790630579E-1
2.589512141E1,-1.794617027E-1,-9.931410789E0,5.383850932E-1
2.591539136E1,-1.124626622E-1,-9.924231529E0,5.240281820E-1
2.593566131E1,-1.004985496E-1,-9.883553505E0,5.838487148E-1
2.595593126E1,-1.818545163E-1,-9.799804688E0,6.963114142E-1
2.597620126E1,-2.823530734E-1,-9.756733894E0,7.704889178E-1
2.599647115E1,-3.254238665E-1,-9.739984512E0,7.896314859E-1
2.601674105E1,-2.943171859E-1,-9.723235130E0,7.417750359E-1
2.603701100E1,-2.368894368E-1,-9.797411919E0,6.963114142E-1
2.605728094E1,-2.273181528E-1,-9.869196892E0,6.652047038E-1
2.607755089E1,-1.794617027E-1,-9.895518303E0,6.675975323E-1
2.609782084E1,-8.135596663E-2,-9.828518867E0,6.484549642E-1
2.611809079E1,-4.067798331E-2,-9.775876999E0,6.364908218E-1
2.613849079E1,-9.332008660E-2,-9.783055305E0,6.556333899E-1
2.615863068E1,-2.297109663E-1,-9.814162254E0,6.843472719E-1
2.617890063E1,-3.206382394E-1,-9.783055305E0,6.795616150E-1
2.619917058E1,-2.799602449E-1,-9.787840843E0,6.293123364E-1
2.621944053E1,-2.057827413E-1,-9.821340561E0,6.149554253E-1
2.623984058E1,-8.853443712E-2,-9.835697174E0,6.269195080E-1
2.625998053E1,-3.828516230E-2,-9.816555023E0,6.197410822E-1
2.628025048E1,-5.024927482E-2,-9.809376717E0,6.532405615E-1
2.630052042E1,-1.316052526E-1,-9.873982430E0,6.652047038E-1
2.632079037E1,-1.603191197E-1,-9.816555023E0,6.652047038E-1
2.634119037E1,-1.603191197E-1,-9.795019150E0,6.675975323E-1
2.636133027E1,-2.201396823E-1,-9.828518867E0,6.532405615E-1
2.638160022E1,-2.368894368E-1,-9.826126099E0,6.197410822E-1
2.640187016E1,-1.555334777E-1,-9.833304405E0,5.575276613E-1
2.642214011E1,-1.196411327E-1,-9.821340561E0,5.718846321E-1
2.644254011E1,-1.363908947E-1,-9.797411919E0,6.245267391E-1
2.646268001E1,-1.603191197E-1,-9.811769485E0,6.604190469E-1
2.648295001E1,-1.842473447E-1,-9.797411919E0,6.939185858E-1
2.650321996E1,-2.321037948E-1,-9.802198410E0,6.987041831E-1
2.652348990E1,-2.392822653E-1,-9.799804688E0,6.915257573E-1
2.654375980E1,-2.488535494E-1,-9.816555023E0,6.604190469E-1
2.656402975E1,-2.297109663E-1,-9.840482712E0,6.364908218E-1
2.658429975E1,-1.890329868E-1,-9.838089943E0,6.149554253E-1
2.660456969E1,-1.627119333E-1,-9.811769485E0,6.101697683E-1
2.662483969E1,-1.746760458E-1,-9.804591179E0,6.484549642E-1
2.664510964E1,-1.579262912E-1,-9.802198410E0,6.675975323E-1
2.666537959E1,-1.914258152E-1,-9.751948357E0,6.843472719E-1
2.668564954E1,-2.081755698E-1,-9.838089943E0,6.460621357E-1
2.670591954E1,-2.297109663E-1,-9.842875481E0,5.934200287E-1
2.672618949E1,-1.890329868E-1,-9.854840279E0,5.647061467E-1
2.674645943E1,-1.220339537E-1,-9.826126099E0,5.623133183E-1
2.676672938E1,-5.503492057E-2,-9.783055305E0,5.455635786E-1
2.678699933E1,-5.024927482E-2,-9.806983948E0,5.670989752E-1
2.680726928E1,-9.571290761E-2,-9.850054741E0,5.766702294E-1
2.682753928E1,-1.603191197E-1,-9.842875481E0,5.766702294E-1
2.684780923E1,-1.962114573E-1,-9.804591179E0,5.790630579E-1
2.686807917E1,-1.890329868E-1,-9.838089943E0,5.455635786E-1
2.688834907E1,-1.435693651E-1,-9.823733330E0,5.503492355E-1
2.690861902E1,-1.172483116E-1,-9.816555023E0,5.335994363E-1
2.692888907E1,-1.124626622E-1,-9.809376717E0,5.503492355E-1
2.694915902E1,-1.244267747E-1,-9.814162254E0,5.503492355E-1
2.696942897E1,-1.220339537E-1,-9.828518867E0,5.647061467E-1
2.698969891E1,-1.004985496E-1,-9.809376717E0,5.670989752E-1
2.700996891E1,-1.028913707E-1,-9.778269768E0,5.742774606E-1
2.703023886E1,-1.076770201E-1,-9.802198410E0,5.551348329E-1
2.705050881E1,-1.459621787E-1,-9.816555023E0,5.527420044E-1
2.707077876E1,-1.555334777E-1,-9.833304405E0,5.359922647E-1
2.709104871E1,-1.531406492E-1,-9.828518867E0,5.312066078E-1
2.711131865E1,-1.459621787E-1,-9.847661972E0,5.120640397E-1
2.713158865E1,-1.722832322E-1,-9.809376717E0,5.000999570E-1
2.715185860E1,-1.579262912E-1,-9.816555023E0,5.168496966E-1
2.717212855E1,-1.363908947E-1,-9.835697174E0,5.359922647E-1
2.719239850E1,-8.853443712E-2,-9.799804688E0,5.527420044E-1
2.721266844E1,-1.244267747E-1,-9.799804688E0,5.599204898E-1
2.723293839E1,-1.674975902E-1,-9.852447510E0,5.694918036E-1
2.725320829E1,-1.842473447E-1,-9.823733330E0,5.647061467E-1
2.727347824E1,-1.866401732E-1,-9.790233612E0,5.862415433E-1
2.729374824E1,-1.579262912E-1,-9.809376717E0,5.694918036E-1
2.731401824E1,-1.052841991E-1,-9.806983948E0,5.694918036E-1
2.733428818E1,-7.896314561E-2,-9.816555023E0,5.647061467E-1
2.735455813E1,-7.657032460E-2,-9.818947792E0,5.718846321E-1
2.737482808E1,-1.435693651E-1,-9.840482712E0,5.814558864E-1
2.739509803E1,-1.962114573E-1,-9.830911636E0,5.742774606E-1
2.741536798E1,-2.033899277E-1,-9.816555023E0,5.599204898E-1
2.743563787E1,-1.914258152E-1,-9.806983948E0,5.647061467E-1
2.745590782E1,-1.316052526E-1,-9.787840843E0,5.551348329E-1
2.747617777E1,-1.100698411E-1,-9.790233612E0,5.838487148E-1
2.749644772E1,-1.244267747E-1,-9.811769485E0,6.053841114E-1
2.751671766E1,-1.531406492E-1,-9.814162254E0,5.934200287E-1
2.753698756E1,-1.316052526E-1,-9.840482712E0,6.053841114E-1
2.755725751E1,-1.100698411E-1,-9.847661972E0,5.862415433E-1
2.757752746E1,-7.657032460E-2,-9.854840279E0,5.599204898E-1
2.759779740E1,-8.614161611E-2,-9.833304405E0,5.647061467E-1
2.761806735E1,-1.004985496E-1,-9.806983948E0,5.527420044E-1
2.763845610E1,-1.196411327E-1,-9.783055305E0,5.694918036E-1
2.765860725E1,-1.435693651E-1,-9.797411919E0,5.623133183E-1
2.767887719E1,-1.459621787E-1,-9.809376717E0,5.694918036E-1
2.769914714E1,-1.674975902E-1,-9.821340561E0,5.647061467E-1
2.771941709E1,-1.004985496E-1,-9.826126099E0,5.862415433E-1
2.773981709E1,-7.657032460E-2,-9.809376717E0,6.005984545E-1
2.775995693E1,-8.374879509E-2,-9.811769485E0,6.173482537E-1
2.778022688E1,-1.172483116E-1,-9.862018585E0,6.005984545E-1
2.780049683E1,-1.555334777E-1,-9.838089943E0,6.053841114E-1
2.782076678E1,-1.866401732E-1,-9.783055305E0,5.910272002E-1
2.784116678E1,-1.794617027E-1,-9.766305923E0,5.934200287E-1
2.786130662E1,-1.076770201E-1,-9.816555023E0,5.766702294E-1
2.788157657E1,-3.589234129E-2,-9.840482712E0,5.934200287E-1
2.790184652E1,-9.571290575E-3,-9.859625816E0,6.029912829E-1
2.792211641E1,-4.307080805E-2,-9.828518867E0,6.101697683E-1
2.794251641E1,-1.363908947E-1,-9.818947792E0,6.340979934E-1
2.796265631E1,-2.009970993E-1,-9.802198410E0,6.005984545E-1
2.798292621E1,-2.033899277E-1,-9.811769485E0,5.934200287E-1
2.800319615E1,-1.627119333E-1,-9.823733330E0,5.718846321E-1
2.802346610E1,-1.292124242E-1,-9.840482712E0,5.766702294E-1
2.804386610E1,-1.100698411E-1,-9.850054741E0,6.029912829E-1
2.806400594E1,-9.810572863E-2,-9.833304405E0,6.149554253E-1
2.808427584E1,-1.268195957E-1,-9.826126099E0,6.484549642E-1
2.810454579E1,-1.842473447E-1,-9.818947792E0,6.963114142E-1
2.812481574E1,-2.368894368E-1,-9.795019150E0,7.106683254E-1
2.814508563E1,-2.584248483E-1,-9.768698692E0,7.106683254E-1
2.816535553E1,-2.297109663E-1,-9.732806206E0,6.652047038E-1
2.818562548E1,-1.890329868E-1,-9.747162819E0,6.604190469E-1
2.820589542E1,-1.363908947E-1,-9.778269768E0,6.173482537E-1
2.822616532E1,-1.124626622E-1,-9.780662537E0,6.317051649E-1
2.824643522E1,-6.939185411E-2,-9.811769485E0,6.221339107E-1
2.826670516E1,-2.632104978E-2,-9.814162254E0,6.628118753E-1
2.828697506E1,9.571290575E-3,-9.780662537E0,6.699903607E-1
2.830724501E1,2.871387079E-2,-9.792626381E0,6.484549642E-1
2.832751490E1,2.153540403E-2,-9.857233047E0,6.580262184E-1
2.834778480E1,4.785645287E-3,-9.881160736E0,6.388836503E-1
2.836805475E1,-2.871387079E-2,-9.847661972E0,6.125625968E-1
2.838832464E1,-3.349951655E-2,-9.826126099E0,5.886343718E-1
2.840872464E1,-1.674975827E-2,-9.866804123E0,5.742774606E-1
2.842886443E1,4.785645287E-3,-9.881160736E0,5.527420044E-1
2.844913438E1,0.000000000E0,-9.885947227E0,5.527420044E-1
2.846940428E1,-3.349951655E-2,-9.842875481E0,5.718846321E-1
2.848967417E1,-1.052841991E-1,-9.792626381E0,6.053841114E-1
2.850994407E1,-1.890329868E-1,-9.818947792E0,6.340979934E-1
2.853021396E1,-2.751746178E-1,-9.842875481E0,6.915257573E-1
2.855048386E1,-2.488535494E-1,-9.766305923E0,7.298108935E-1
2.857075376E1,-2.153540403E-1,-9.747162819E0,7.489534616E-1
2.859102370E1,-1.962114573E-1,-9.795019150E0,7.633104324E-1
2.861129360E1,-2.009970993E-1,-9.802198410E0,7.776673436E-1
2.863156350E1,-2.033899277E-1,-9.802198410E0,7.800601721E-1
2.865183339E1,-1.722832322E-1,-9.806983948E0,7.537391186E-1
2.867210329E1,-1.387837082E-1,-9.842875481E0,7.393822074E-1
2.869237318E1,-1.028913707E-1,-9.857233047E0,7.178468108E-1
2.871264308E1,-1.244267747E-1,-9.859625816E0,6.939185858E-1
2.873291298E1,-1.411765367E-1,-9.847661972E0,6.675975323E-1
2.875318287E1,-1.483550072E-1,-9.833304405E0,6.532405615E-1
2.877345277E1,-2.105683982E-1,-9.795019150E0,6.436693072E-1
2.879372266E1,-2.440679073E-1,-9.792626381E0,7.082754970E-1
2.881399251E1,-2.033899277E-1,-9.809376717E0,7.226324677E-1
2.883426240E1,-1.722832322E-1,-9.785448074E0,7.489534616E-1
2.885453230E1,-1.483550072E-1,-9.787840843E0,7.657032609E-1
2.887480219E1,-1.674975902E-1,-9.795019150E0,7.537391186E-1
2.889507204E1,-1.818545163E-1,-9.792626381E0,7.513462901E-1
2.891534193E1,-1.842473447E-1,-9.816555023E0,7.178468108E-1
2.893561183E1,-1.483550072E-1,-9.838089943E0,7.130611539E-1
2.895588173E1,-6.939185411E-2,-9.866804123E0,7.058826685E-1
2.897615157E1,-4.785645287E-3,-9.835697174E0,6.939185858E-1
2.899642146E1,0.000000000E0,-9.809376717E0,6.939185858E-1
2.901669136E1,-6.221338734E-2,-9.811769485E0,6.795616150E-1
2.903696120E1,-1.028913707E-1,-9.799804688E0,6.963114142E-1
2.905723110E1,-1.746760458E-1,-9.821340561E0,6.891329288E-1
2.907750094E1,-1.770688742E-1,-9.823733330E0,6.843472719E-1
2.909777084E1,-1.627119333E-1,-9.816555023E0,7.010970116E-1
2.911804068E1,-1.220339537E-1,-9.835697174E0,6.819544435E-1
2.913842938E1,-7.896314561E-2,-9.797411919E0,7.058826685E-1
2.915858042E1,-3.349951655E-2,-9.768698692E0,7.130611539E-1
2.917885032E1,-6.699903309E-2,-9.763913155E0,7.202396393E-1
2.919912016E1,-7.417750359E-2,-9.795019150E0,7.345965505E-1
2.921939001E1,-1.100698411E-1,-9.806983948E0,7.202396393E-1
2.923979001E1,-1.531406492E-1,-9.823733330E0,7.369893789E-1
2.925992975E1,-1.603191197E-1,-9.806983948E0,7.058826685E-1
2.928019959E1,-1.148554832E-1,-9.814162254E0,6.675975323E-1
2.930046949E1,-1.028913707E-1,-9.790233612E0,6.628118753E-1
2.932073933E1,-1.196411327E-1,-9.809376717E0,6.819544435E-1
2.934113933E1,-1.268195957E-1,-9.830911636E0,6.795616150E-1
2.936127907E1,-1.100698411E-1,-9.809376717E0,6.723831892E-1
2.938154891E1,-1.100698411E-1,-9.775876999E0,6.987041831E-1
2.940181876E1,-1.411765367E-1,-9.845269203E0,6.843472719E-1
2.942208860E1,-1.746760458E-1,-9.830911636E0,7.034898400E-1
2.944248860E1,-1.459621787E-1,-9.795019150E0,6.699903607E-1
2.946262824E1,-9.810572863E-2,-9.814162254E0,6.723831892E-1
2.948289808E1,-5.264209956E-2,-9.838089943E0,6.915257573E-1
2.950316798E1,-1.914258115E-2,-9.823733330E0,6.723831892E-1
2.952343782E1,-5.742774159E-2,-9.795019150E0,6.771687865E-1
2.954370772E1,-1.842473447E-1,-9.797411919E0,6.891329288E-1
2.956397756E1,-2.584248483E-1,-9.818947792E0,6.843472719E-1
2.958424735E1,-2.679961324E-1,-9.845269203E0,6.652047038E-1
2.960451719E1,-1.962114573E-1,-9.823733330E0,6.532405615E-1
2.962478704E1,-1.651047617E-1,-9.797411919E0,6.580262184E-1
2.964518704E1,-1.148554832E-1,-9.802198410E0,6.508477330E-1
2.966532673E1,-9.571290761E-2,-9.804591179E0,6.652047038E-1
2.968559657E1,-1.004985496E-1,-9.816555023E0,6.604190469E-1
2.970586636E1,-1.507478207E-1,-9.828518867E0,6.867401004E-1
2.972613615E1,-1.363908947E-1,-9.830911636E0,6.987041831E-1
2.974640600E1,-1.435693651E-1,-9.845269203E0,6.771687865E-1
2.976667584E1,-1.387837082E-1,-9.816555023E0,6.699903607E-1
2.978694568E1,-1.411765367E-1,-9.802198410E0,6.915257573E-1
2.980721548E1,-1.292124242E-1,-9.797411919E0,6.723831892E-1
2.982748532E1,-1.292124242E-1,-9.761520386E0,6.891329288E-1
2.984775516E1,-1.459621787E-1,-9.787840843E0,6.963114142E-1
2.986802496E1,-1.603191197E-1,-9.797411919E0,6.987041831E-1
2.988829480E1,-1.052841991E-1,-9.814162254E0,6.915257573E-1
2.990856459E1,-7.657032460E-2,-9.790233612E0,6.963114142E-1
2.992883443E1,-8.374879509E-2,-9.821340561E0,6.963114142E-1
2.994910428E1,-1.244267747E-1,-9.876375198E0,6.747759581E-1
2.996937407E1,-1.698904037E-1,-9.845269203E0,6.556333899E-1
2.998964391E1,-1.627119333E-1,-9.773484230E0,6.317051649E-1
3.000991371E1,-1.196411327E-1,-9.792626381E0,6.388836503E-1
3.003018350E1,-5.264209956E-2,-9.828518867E0,6.532405615E-1
3.005045334E1,-1.196411345E-2,-9.828518867E0,6.652047038E-1
3.007072313E1,-9.571290575E-3,-9.833304405E0,6.556333899E-1
3.009099292E1,-6.939185411E-2,-9.809376717E0,6.819544435E-1
3.011126277E1,-1.387837082E-1,-9.790233612E0,6.771687865E-1
3.013153261E1,-2.009970993E-1,-9.802198410E0,6.747759581E-1
3.015180240E1,-1.794617027E-1,-9.811769485E0,6.340979934E-1
3.017207219E1,-1.507478207E-1,-9.804591179E0,6.388836503E-1
3.019234204E1,-1.268195957E-1,-9.826126099E0,6.293123364E-1
3.021261183E1,-7.657032460E-2,-9.833304405E0,6.580262184E-1
3.023288162E1,-1.004985496E-1,-9.816555023E0,6.867401004E-1
3.025315141E1,-1.100698411E-1,-9.814162254E0,7.082754970E-1
3.027342126E1,-1.339980662E-1,-9.811769485E0,7.106683254E-1
3.029369105E1,-1.459621787E-1,-9.814162254E0,7.106683254E-1
3.031396084E1,-1.674975902E-1,-9.818947792E0,6.460621357E-1
3.033423063E1,-1.268195957E-1,-9.828518867E0,5.982056856E-1
3.035450042E1,-1.052841991E-1,-9.854840279E0,5.742774606E-1
3.037477022E1,-9.332008660E-2,-9.845269203E0,5.647061467E-1
3.039504001E1,-9.571290761E-2,-9.814162254E0,6.125625968E-1
3.041530980E1,-8.135596663E-2,-9.826126099E0,6.412764788E-1
3.043557959E1,-6.939185411E-2,-9.811769485E0,6.819544435E-1
3.045584938E1,-1.100698411E-1,-9.790233612E0,6.891329288E-1
3.047611917E1,-1.507478207E-1,-9.852447510E0,7.034898400E-1
3.049638896E1,-1.770688742E-1,-9.833304405E0,6.795616150E-1
3.051678897E1,-1.890329868E-1,-9.797411919E0,6.460621357E-1
3.053692855E1,-1.770688742E-1,-9.787840843E0,6.436693072E-1
3.055719834E1,-1.052841991E-1,-9.806983948E0,6.484549642E-1
3.057759834E1,-4.785645381E-2,-9.826126099E0,6.532405615E-1
3.059773792E1,-1.435693540E-2,-9.804591179E0,6.675975323E-1
3.061801558E1,-2.632104978E-2,-9.804591179E0,6.795616150E-1
3.063835464E1,-1.076770201E-1,-9.814162254E0,6.771687865E-1
3.065854615E1,-1.651047617E-1,-9.830911636E0,6.508477330E-1
3.067881615E1,-1.531406492E-1,-9.814162254E0,6.173482537E-1
3.069908610E1,-1.411765367E-1,-9.823733330E0,6.101697683E-1
3.071935584E1,-9.092725813E-2,-9.787840843E0,6.293123364E-1
3.073975600E1,-6.699903309E-2,-9.783055305E0,6.340979934E-1
3.075989568E1,-5.742774159E-2,-9.795019150E0,6.604190469E-1
3.078016553E1,-8.135596663E-2,-9.814162254E0,6.867401004E-1
3.080043542E1,-7.896314561E-2,-9.835697174E0,6.771687865E-1
3.082070516E1,-8.135596663E-2,-9.835697174E0,6.819544435E-1
3.084110522E1,-5.742774159E-2,-9.833304405E0,6.412764788E-1
3.086124485E1,-7.657032460E-2,-9.823733330E0,6.173482537E-1
3.088151464E1,-8.614161611E-2,-9.823733330E0,5.718846321E-1
3.090178443E1,-8.614161611E-2,-9.828518867E0,5.479564071E-1
3.092205412E1,-7.417750359E-2,-9.823733330E0,5.479564071E-1
3.094245417E1,-1.052841991E-1,-9.811769485E0,5.694918036E-1
3.096259371E1,-8.374879509E-2,-9.818947792E0,5.982056856E-1
3.098286350E1,-4.785645381E-2,-9.826126099E0,6.149554253E-1
3.100313329E1,-4.546362907E-2,-9.792626381E0,6.269195080E-1
3.102340303E1,-5.982056633E-2,-9.859625816E0,6.484549642E-1
3.104380303E1,-9.332008660E-2,-9.852447510E0,6.388836503E-1
3.106394256E1,-1.387837082E-1,-9.809376717E0,6.149554253E-1
3.108421230E1,-1.387837082E-1,-9.797411919E0,5.742774606E-1
3.110448209E1,-6.939185411E-2,-9.821340561E0,5.647061467E-1
3.112475183E1,2.153540403E-2,-9.816555023E0,5.479564071E-1
3.114502157E1,5.503492057E-2,-9.806983948E0,5.814558864E-1
3.116529136E1,1.196411345E-2,-9.823733330E0,6.005984545E-1
3.118556110E1,-6.460621208E-2,-9.826126099E0,5.958128572E-1
3.120583084E1,-1.363908947E-1,-9.845269203E0,5.718846321E-1
3.122610063E1,-1.387837082E-1,-9.869196892E0,5.479564071E-1
3.124637042E1,-1.244267747E-1,-9.845269203E0,5.623133183E-1
3.126664016E1,-8.614161611E-2,-9.804591179E0,5.503492355E-1
3.128690990E1,-5.024927482E-2,-9.828518867E0,5.670989752E-1
3.130717964E1,-4.546362907E-2,-9.845269203E0,5.479564071E-1
3.132744938E1,-5.503492057E-2,-9.816555023E0,5.694918036E-1
3.134771912E1,-3.828516230E-2,-9.818947792E0,5.647061467E-1
3.136811912E1,-3.828516230E-2,-9.830911636E0,5.910272002E-1
3.138825860E1,-3.589234129E-2,-9.818947792E0,6.077769399E-1
3.140865860E1,-6.939185411E-2,-9.818947792E0,5.886343718E-1
3.142879808E1,-7.657032460E-2,-9.814162254E0,5.694918036E-1
3.144906782E1,-8.853443712E-2,-9.821340561E0,5.455635786E-1
3.146933756E1,-6.460621208E-2,-9.845269203E0,5.431707501E-1
3.148960730E1,-5.264209956E-2,-9.818947792E0,5.407779217E-1
3.150987704E1,-5.503492057E-2,-9.792626381E0,5.431707501E-1
3.153014678E1,-1.674975827E-2,-9.790233612E0,5.742774606E-1
3.155041652E1,0.000000000E0,-9.763913155E0,5.958128572E-1
3.157068626E1,-3.349951655E-2,-9.790233612E0,6.293123364E-1
3.159095600E1,-8.614161611E-2,-9.840482712E0,5.982056856E-1
3.161135594E1,-1.100698411E-1,-9.809376717E0,5.934200287E-1
3.163149537E1,-1.124626622E-1,-9.785448074E0,5.623133183E-1
3.165176511E1,-3.589234129E-2,-9.823733330E0,5.455635786E-1
3.167203485E1,6.939185411E-2,-9.795019150E0,5.144568682E-1
3.169230459E1,1.052841991E-1,-9.850054741E0,5.144568682E-1
3.171257428E1,5.024927482E-2,-9.838089943E0,4.929214716E-1
3.173284402E1,-3.349951655E-2,-9.854840279E0,5.000999570E-1
3.175311376E1,-8.614161611E-2,-9.840482712E0,4.713860750E-1
3.177338344E1,-8.374879509E-2,-9.823733330E0,4.833501875E-1
3.179365318E1,-5.503492057E-2,-9.821340561E0,5.000999570E-1
3.181392287E1,-1.914258115E-2,-9.783055305E0,5.120640397E-1
3.183419261E1,-1.914258115E-2,-9.799804688E0,5.479564071E-1
3.185446235E1,-4.546362907E-2,-9.806983948E0,5.455635786E-1
3.187473204E1,-4.546362907E-2,-9.818947792E0,5.551348329E-1
3.189500178E1,-5.264209956E-2,-9.840482712E0,5.455635786E-1
3.191527147E1,-3.589234129E-2,-9.811769485E0,5.312066078E-1
3.193554121E1,-2.392822690E-2,-9.830911636E0,5.048855543E-1
3.195581089E1,-5.982056633E-2,-9.814162254E0,5.000999570E-1
3.197608063E1,-1.100698411E-1,-9.828518867E0,4.737788737E-1
3.199635032E1,-1.172483116E-1,-9.835697174E0,4.809573591E-1
3.201662001E1,-1.052841991E-1,-9.826126099E0,4.498506486E-1
3.203688975E1,-1.124626622E-1,-9.797411919E0,4.977070987E-1
3.205715943E1,-1.076770201E-1,-9.814162254E0,5.288137794E-1
3.207742917E1,-8.374879509E-2,-9.847661972E0,5.359922647E-1
3.209769886E1,-7.417750359E-2,-9.828518867E0,5.599204898E-1
3.211797251E1,-1.148554832E-1,-9.838089943E0,5.599204898E-1
3.213827688E1,-1.579262912E-1,-9.828518867E0,5.527420044E-1
3.215850740E1,-1.962114573E-1,-9.806983948E0,5.407779217E-1
3.217877725E1,-1.531406492E-1,-9.804591179E0,5.264210105E-1
3.219904704E1,-9.571290761E-2,-9.828518867E0,5.120640397E-1
3.221931678E1,-3.349951655E-2,-9.847661972E0,5.144568682E-1
3.223971683E1,-3.828516230E-2,-9.840482712E0,5.120640397E-1
3.225985626E1,-7.178468257E-2,-9.852447510E0,5.312066078E-1
3.228012600E1,-1.603191197E-1,-9.821340561E0,5.551348329E-1
3.230039574E1,-2.057827413E-1,-9.838089943E0,5.479564071E-1
3.232066548E1,-2.057827413E-1,-9.823733330E0,5.527420044E-1
3.234106553E1,-1.818545163E-1,-9.809376717E0,5.599204898E-1
3.236120490E1,-1.555334777E-1,-9.811769485E0,5.670989752E-1
3.238147459E1,-1.124626622E-1,-9.826126099E0,5.240281820E-1
3.240174428E1,-1.076770201E-1,-9.814162254E0,5.216353536E-1
3.242201397E1,-1.124626622E-1,-9.823733330E0,5.551348329E-1
3.244241396E1,-1.124626622E-1,-9.818947792E0,5.623133183E-1
3.246255334E1,-1.268195957E-1,-9.830911636E0,5.862415433E-1
3.248282303E1,-1.339980662E-1,-9.833304405E0,5.647061467E-1
3.250309277E1,-1.244267747E-1,-9.818947792E0,5.383850932E-1
3.252336246E1,-1.148554832E-1,-9.811769485E0,5.503492355E-1
3.254363214E1,-1.196411327E-1,-9.823733330E0,5.359922647E-1
3.256390183E1,-1.268195957E-1,-9.809376717E0,5.503492355E-1
3.258417152E1,-1.435693651E-1,-9.792626381E0,5.527420044E-1
3.260444120E1,-1.363908947E-1,-9.816555023E0,5.670989752E-1
3.262471089E1,-9.810572863E-2,-9.847661972E0,5.862415433E-1
3.264498058E1,-8.853443712E-2,-9.787840843E0,5.814558864E-1
3.266525022E1,-1.459621787E-1,-9.816555023E0,5.670989752E-1
3.268551990E1,-1.914258152E-1,-9.847661972E0,5.575276613E-1
3.270578959E1,-2.177468538E-1,-9.806983948E0,5.192425251E-1
3.272605928E1,-1.746760458E-1,-9.802198410E0,5.216353536E-1
3.274632891E1,-5.264209956E-2,-9.833304405E0,5.120640397E-1
3.276659860E1,4.546362907E-2,-9.857233047E0,5.359922647E-1
3.278686829E1,7.417750359E-2,-9.806983948E0,5.623133183E-1
3.280713798E1,3.589234129E-2,-9.790233612E0,5.790630579E-1
3.282740766E1,-6.939185411E-2,-9.780662537E0,6.077769399E-1
3.284767730E1,-1.651047617E-1,-9.811769485E0,5.862415433E-1
3.286794699E1,-2.105683982E-1,-9.809376717E0,5.694918036E-1
3.288821662E1,-1.962114573E-1,-9.840482712E0,5.527420044E-1
3.290848631E1,-1.770688742E-1,-9.826126099E0,5.575276613E-1
3.292875600E1,-1.196411327E-1,-9.835697174E0,5.455635786E-1
3.294902563E1,-1.220339537E-1,-9.828518867E0,5.455635786E-1
3.296929532E1,-1.148554832E-1,-9.821340561E0,5.647061467E-1
3.298956496E1,-1.411765367E-1,-9.816555023E0,5.742774606E-1
3.300983464E1,-1.579262912E-1,-9.802198410E0,5.814558864E-1
3.303010428E1,-1.603191197E-1,-9.840482712E0,5.790630579E-1
3.305037396E1,-1.555334777E-1,-9.830911636E0,5.718846321E-1
3.307064365E1,-1.220339537E-1,-9.823733330E0,5.312066078E-1
3.309091324E1,-1.052841991E-1,-9.838089943E0,5.383850932E-1
3.311118298E1,-8.135596663E-2,-9.854840279E0,5.575276613E-1
3.313145261E1,-6.460621208E-2,-9.811769485E0,5.814558864E-1
3.315172230E1,-9.092725813E-2,-9.809376717E0,5.886343718E-1
3.317199193E1,-8.374879509E-2,-9.818947792E0,6.149554253E-1
3.319226162E1,-1.004985496E-1,-9.768698692E0,6.412764788E-1
3.321253126E1,-1.244267747E-1,-9.804591179E0,6.245267391E-1
3.323280089E1,-1.459621787E-1,-9.857233047E0,6.053841114E-1
3.325307058E1,-1.818545163E-1,-9.830911636E0,5.982056856E-1
3.327334022E1,-1.746760458E-1,-9.783055305E0,6.101697683E-1
3.329374022E1,-1.603191197E-1,-9.785448074E0,6.005984545E-1
3.331387954E1,-1.076770201E-1,-9.811769485E0,6.173482537E-1
3.333414917E1,-3.828516230E-2,-9.833304405E0,6.125625968E-1
3.335441881E1,-2.871387079E-2,-9.850054741E0,5.910272002E-1
3.337468850E1,-5.024927482E-2,-9.850054741E0,6.005984545E-1
3.339495813E1,-1.100698411E-1,-9.828518867E0,5.814558864E-1
3.341522777E1,-1.579262912E-1,-9.811769485E0,5.790630579E-1
3.343563568E1,-1.411765367E-1,-9.816555023E0,5.670989752E-1
3.345591568E1,-1.316052526E-1,-9.797411919E0,5.694918036E-1
3.347602985E1,-9.810572863E-2,-9.811769485E0,5.718846321E-1
3.349630089E1,-1.052841991E-1,-9.806983948E0,5.910272002E-1
3.351657162E1,-1.172483116E-1,-9.821340561E0,6.197410822E-1
3.353684209E1,-1.220339537E-1,-9.833304405E0,6.149554253E-1
3.355711246E1,-8.374879509E-2,-9.842875481E0,6.101697683E-1
3.357738261E1,-6.939185411E-2,-9.833304405E0,5.910272002E-1
3.359765272E1,-1.004985496E-1,-9.828518867E0,6.005984545E-1
3.361792261E1,-1.028913707E-1,-9.838089943E0,5.862415433E-1
3.363819261E1,-1.268195957E-1,-9.828518867E0,5.599204898E-1
3.365846251E1,-1.316052526E-1,-9.826126099E0,5.551348329E-1
3.367873235E1,-1.507478207E-1,-9.828518867E0,5.670989752E-1
3.369900214E1,-1.555334777E-1,-9.809376717E0,5.718846321E-1
3.371927173E1,-9.810572863E-2,-9.826126099E0,5.814558864E-1
3.373967188E1,-3.349951655E-2,-9.809376717E0,6.005984545E-1
3.375981126E1,-5.264209956E-2,-9.802198410E0,6.197410822E-1
3.378008094E1,-8.135596663E-2,-9.859625816E0,6.173482537E-1
3.380035058E1,-1.579262912E-1,-9.847661972E0,5.838487148E-1
3.382062027E1,-1.435693651E-1,-9.778269768E0,5.647061467E-1
3.384102032E1,-1.244267747E-1,-9.804591179E0,5.431707501E-1
3.386115964E1,-3.828516230E-2,-9.840482712E0,5.551348329E-1
3.388142933E1,1.914258115E-2,-9.814162254E0,5.910272002E-1
3.390169891E1,9.571290575E-3,-9.830911636E0,5.934200287E-1
3.392196855E1,-5.742774159E-2,-9.828518867E0,6.197410822E-1
3.394236860E1,-1.339980662E-1,-9.816555023E0,5.862415433E-1
3.396250787E1,-1.722832322E-1,-9.799804688E0,5.862415433E-1
3.398277746E1,-1.531406492E-1,-9.787840843E0,5.527420044E-1
3.400304709E1,-1.124626622E-1,-9.814162254E0,5.694918036E-1
3.402331673E1,-7.178468257E-2,-9.799804688E0,5.718846321E-1
3.404371673E1,-4.307080805E-2,-9.823733330E0,5.766702294E-1
3.406385600E1,-4.307080805E-2,-9.833304405E0,6.005984545E-1
3.408412558E1,-5.982056633E-2,-9.857233047E0,6.364908218E-1
3.410439522E1,-8.135596663E-2,-9.823733330E0,6.388836503E-1
3.412466485E1,-9.092725813E-2,-9.811769485E0,6.029912829E-1
3.414506485E1,-1.052841991E-1,-9.821340561E0,5.766702294E-1
3.416520407E1,-1.124626622E-1,-9.804591179E0,5.431707501E-1
3.418547370E1,-1.244267747E-1,-9.821340561E0,5.312066078E-1
3.420574329E1,-1.028913707E-1,-9.830911636E0,5.312066078E-1
3.422601292E1,-9.810572863E-2,-9.823733330E0,5.383850932E-1
3.424628256E1,-1.220339537E-1,-9.809376717E0,5.934200287E-1
3.426655214E1,-9.571290761E-2,-9.826126099E0,6.173482537E-1
3.428682178E1,-8.135596663E-2,-9.830911636E0,6.245267391E-1
3.430709136E1,-8.135596663E-2,-9.799804688E0,6.197410822E-1
3.432736100E1,-1.244267747E-1,-9.857233047E0,6.077769399E-1
3.434763058E1,-1.507478207E-1,-9.852447510E0,5.742774606E-1
3.436790022E1,-1.435693651E-1,-9.797411919E0,5.312066078E-1
3.438816980E1,-1.004985496E-1,-9.771091461E0,5.264210105E-1
3.440843943E1,-6.460621208E-2,-9.828518867E0,5.766702294E-1
3.442870902E1,-3.589234129E-2,-9.850054741E0,5.982056856E-1
3.444897865E1,-4.785645381E-2,-9.838089943E0,6.077769399E-1
3.446924824E1,-9.810572863E-2,-9.845269203E0,6.101697683E-1
3.448951787E1,-1.459621787E-1,-9.821340561E0,6.125625968E-1
3.450978746E1,-1.698904037E-1,-9.830911636E0,5.742774606E-1
3.453005704E1,-1.579262912E-1,-9.799804688E0,5.455635786E-1
3.455032662E1,-1.196411327E-1,-9.821340561E0,5.599204898E-1
3.457059626E1,-9.810572863E-2,-9.809376717E0,6.005984545E-1
3.459086584E1,-9.092725813E-2,-9.814162254E0,6.005984545E-1
3.461113542E1,-5.024927482E-2,-9.826126099E0,6.053841114E-1
3.463140506E1,-5.024927482E-2,-9.814162254E0,6.101697683E-1
3.465167464E1,-6.460621208E-2,-9.821340561E0,6.125625968E-1
3.467194423E1,-6.699903309E-2,-9.823733330E0,6.077769399E-1
3.469221381E1,-7.417750359E-2,-9.845269203E0,5.790630579E-1
3.471248344E1,-9.810572863E-2,-9.821340561E0,5.647061467E-1
3.473288344E1,-1.028913707E-1,-9.830911636E0,5.359922647E-1
3.475302261E1,-1.411765367E-1,-9.842875481E0,5.359922647E-1
3.477329219E1,-1.220339537E-1,-9.835697174E0,5.240281820E-1
3.479356178E1,-1.363908947E-1,-9.795019150E0,5.551348329E-1
3.481383136E1,-1.363908947E-1,-9.828518867E0,5.670989752E-1
3.483410100E1,-8.374879509E-2,-9.830911636E0,5.790630579E-1
3.485437058E1,-4.785645381E-2,-9.816555023E0,5.958128572E-1
3.487464016E1,-5.982056633E-2,-9.814162254E0,5.862415433E-1
3.489490975E1,-1.004985496E-1,-9.840482712E0,5.862415433E-1
3.491517933E1,-1.507478207E-1,-9.804591179E0,5.862415433E-1
3.493544891E1,-1.627119333E-1,-9.783055305E0,5.479564071E-1
3.495571850E1,-1.220339537E-1,-9.814162254E0,5.240281820E-1
3.497598808E1,-4.307080805E-2,-9.830911636E0,5.335994363E-1
3.499625766E1,-7.178467698E-3,-9.854840279E0,5.479564071E-1
3.501652725E1,-4.067798331E-2,-9.842875481E0,5.766702294E-1
3.503679683E1,-1.076770201E-1,-9.804591179E0,5.862415433E-1
3.505706641E1,-1.698904037E-1,-9.818947792E0,6.005984545E-1
3.507733600E1,-1.818545163E-1,-9.818947792E0,5.694918036E-1
3.509760553E1,-1.555334777E-1,-9.804591179E0,5.551348329E-1
3.511787511E1,-1.268195957E-1,-9.780662537E0,5.742774606E-1
3.513814469E1,-6.699903309E-2,-9.797411919E0,5.599204898E-1
3.515841428E1,-6.460621208E-2,-9.826126099E0,6.029912829E-1
3.517868386E1,-5.982056633E-2,-9.852447510E0,6.029912829E-1
3.519895344E1,-7.896314561E-2,-9.838089943E0,5.886343718E-1
3.521922298E1,-1.124626622E-1,-9.826126099E0,6.005984545E-1
3.523962298E1,-1.459621787E-1,-9.809376717E0,5.934200287E-1
3.525976214E1,-1.746760458E-1,-9.814162254E0,5.647061467E-1
3.528003173E1,-2.225325108E-1,-9.816555023E0,5.503492355E-1
3.530030131E1,-2.033899277E-1,-9.833304405E0,5.407779217E-1
3.532057084E1,-1.938186288E-1,-9.823733330E0,5.479564071E-1
3.534097084E1,-1.627119333E-1,-9.799804688E0,5.790630579E-1
3.536111001E1,-1.698904037E-1,-9.816555023E0,5.982056856E-1
3.538137959E1,-1.148554832E-1,-9.847661972E0,6.125625968E-1
3.540164912E1,-8.374879509E-2,-9.840482712E0,6.221339107E-1
3.542191870E1,-6.221338734E-2,-9.790233612E0,5.982056856E-1
3.544231871E1,-1.004985496E-1,-9.826126099E0,5.670989752E-1
3.546245782E1,-1.172483116E-1,-9.823733330E0,5.527420044E-1
3.548285782E1,-1.028913707E-1,-9.785448074E0,5.264210105E-1
3.550299693E1,-6.221338734E-2,-9.804591179E0,5.264210105E-1
3.552326652E1,-3.349951655E-2,-9.845269203E0,5.455635786E-1
3.554353605E1,-1.914258115E-2,-9.826126099E0,5.551348329E-1
3.556380563E1,-7.417750359E-2,-9.811769485E0,5.934200287E-1
3.558407516E1,-1.603191197E-1,-9.797411919E0,6.173482537E-1
3.560434475E1,-1.890329868E-1,-9.806983948E0,5.886343718E-1
3.562461428E1,-1.483550072E-1,-9.814162254E0,5.216353536E-1
3.564488381E1,-8.853443712E-2,-9.828518867E0,5.168496966E-1
3.566515339E1,-3.349951655E-2,-9.814162254E0,5.455635786E-1
3.568542298E1,7.178467698E-3,-9.816555023E0,5.623133183E-1
3.570569251E1,2.392822644E-3,-9.802198410E0,5.790630579E-1
3.572596204E1,-4.546362907E-2,-9.797411919E0,5.934200287E-1
3.574623162E1,-7.896314561E-2,-9.809376717E0,5.838487148E-1
3.576650115E1,-1.339980662E-1,-9.833304405E0,5.814558864E-1
3.578677068E1,-1.172483116E-1,-9.816555023E0,5.527420044E-1
3.580704022E1,-1.196411327E-1,-9.830911636E0,5.192425251E-1
3.582730980E1,-1.100698411E-1,-9.845269203E0,5.000999570E-1
3.584757933E1,-1.028913707E-1,-9.811769485E0,5.240281820E-1
3.586784886E1,-1.220339537E-1,-9.823733330E0,5.479564071E-1
3.588811839E1,-1.172483116E-1,-9.809376717E0,5.766702294E-1
3.590838792E1,-1.579262912E-1,-9.792626381E0,6.077769399E-1
3.592865746E1,-1.818545163E-1,-9.804591179E0,6.005984545E-1
3.594892699E1,-1.196411327E-1,-9.845269203E0,6.029912829E-1
3.596919657E1,-7.657032460E-2,-9.811769485E0,5.718846321E-1
3.598946610E1,-1.004985496E-1,-9.840482712E0,5.575276613E-1
3.600973563E1,-1.387837082E-1,-9.866804123E0,5.407779217E-1
3.603000516E1,-1.674975902E-1,-9.811769485E0,5.479564071E-1
3.605027469E1,-1.794617027E-1,-9.785448074E0,5.623133183E-1
3.607054423E1,-1.722832322E-1,-9.806983948E0,5.647061467E-1
3.609081376E1,-7.896314561E-2,-9.818947792E0,5.694918036E-1
3.611108329E1,-3.589234129E-2,-9.830911636E0,5.862415433E-1
3.613135282E1,-4.546362907E-2,-9.866804123E0,5.838487148E-1
3.615162235E1,-8.614161611E-2,-9.842875481E0,5.742774606E-1
3.617189188E1,-1.339980662E-1,-9.842875481E0,5.742774606E-1
3.619216141E1,-1.435693651E-1,-9.809376717E0,5.575276613E-1
3.621243089E1,-1.268195957E-1,-9.814162254E0,5.575276613E-1
3.623270042E1,-1.268195957E-1,-9.806983948E0,5.647061467E-1
3.625297001E1,-9.571290761E-2,-9.787840843E0,5.575276613E-1
3.627323949E1,-8.374879509E-2,-9.802198410E0,5.599204898E-1
3.629350896E1,-6.460621208E-2,-9.795019150E0,5.814558864E-1
3.631377850E1,-7.417750359E-2,-9.826126099E0,5.982056856E-1
3.633404803E1,-5.982056633E-2,-9.814162254E0,5.982056856E-1
3.635431756E1,-5.982056633E-2,-9.850054741E0,6.245267391E-1
3.637458704E1,-7.657032460E-2,-9.842875481E0,6.125625968E-1
3.639485657E1,-6.460621208E-2,-9.821340561E0,5.886343718E-1
3.641512610E1,-8.614161611E-2,-9.811769485E0,5.623133183E-1
3.643539558E1,-9.332008660E-2,-9.804591179E0,5.431707501E-1
3.645566511E1,-9.092725813E-2,-9.804591179E0,5.335994363E-1
3.647593464E1,-9.332008660E-2,-9.809376717E0,5.551348329E-1
3.649620417E1,-6.939185411E-2,-9.840482712E0,5.718846321E-1
3.651647365E1,-3.589234129E-2,-9.838089943E0,5.886343718E-1
3.653674318E1,-5.742774159E-2,-9.797411919E0,6.125625968E-1
3.655701272E1,-8.374879509E-2,-9.842875481E0,6.149554253E-1
3.657728219E1,-1.268195957E-1,-9.833304405E0,5.958128572E-1
3.659755173E1,-1.555334777E-1,-9.773484230E0,5.623133183E-1
3.661782121E1,-1.411765367E-1,-9.775876999E0,5.599204898E-1
3.663809074E1,-9.571290761E-2,-9.823733330E0,5.551348329E-1
3.665836022E1,-1.674975827E-2,-9.842875481E0,5.551348329E-1
3.667862975E1,2.392822644E-3,-9.840482712E0,5.814558864E-1
3.669889923E1,-3.349951655E-2,-9.835697174E0,6.197410822E-1
3.671916876E1,-1.268195957E-1,-9.838089943E0,5.838487148E-1
3.673956876E1,-1.818545163E-1,-9.816555023E0,5.790630579E-1
3.675970777E1,-1.890329868E-1,-9.802198410E0,5.479564071E-1
3.678010777E1,-1.507478207E-1,-9.787840843E0,5.359922647E-1
3.680024673E1,-1.244267747E-1,-9.821340561E0,5.647061467E-1
3.682051626E1,-9.332008660E-2,-9.814162254E0,5.862415433E-1
3.684091626E1,-8.614161611E-2,-9.828518867E0,6.101697683E-1
3.686105527E1,-1.172483116E-1,-9.835697174E0,6.340979934E-1
3.688132475E1,-1.100698411E-1,-9.823733330E0,6.556333899E-1
3.690159423E1,-1.100698411E-1,-9.811769485E0,6.269195080E-1
3.692186370E1,-1.148554832E-1,-9.823733330E0,6.125625968E-1
3.694226370E1,-1.028913707E-1,-9.826126099E0,5.599204898E-1
3.696240272E1,-1.148554832E-1,-9.818947792E0,5.479564071E-1
3.698267219E1,-1.363908947E-1,-9.828518867E0,5.312066078E-1
3.700294173E1,-1.316052526E-1,-9.845269203E0,5.479564071E-1
3.702321120E1,-1.435693651E-1,-9.823733330E0,5.742774606E-1
3.704361121E1,-1.531406492E-1,-9.818947792E0,6.101697683E-1
3.706375016E1,-1.052841991E-1,-9.840482712E0,6.197410822E-1
3.708401969E1,-9.571290761E-2,-9.795019150E0,6.197410822E-1
3.710428917E1,-1.316052526E-1,-9.790233612E0,6.460621357E-1
3.712455865E1,-1.698904037E-1,-9.835697174E0,6.269195080E-1
3.714482813E1,-2.033899277E-1,-9.804591179E0,5.934200287E-1
3.716509766E1,-1.842473447E-1,-9.761520386E0,5.694918036E-1
3.718536714E1,-1.746760458E-1,-9.787840843E0,5.838487148E-1
3.720563662E1,-1.028913707E-1,-9.833304405E0,5.742774606E-1
3.722590610E1,0.000000000E0,-9.809376717E0,5.718846321E-1
3.724617558E1,4.307080805E-2,-9.804591179E0,5.599204898E-1
3.726644506E1,4.307080805E-2,-9.816555023E0,5.623133183E-1
3.728671454E1,1.435693540E-2,-9.857233047E0,5.431707501E-1
3.730698402E1,0.000000000E0,-9.885947227E0,5.288137794E-1
3.732725350E1,0.000000000E0,-9.852447510E0,5.192425251E-1
3.734752298E1,-1.914258115E-2,-9.826126099E0,5.216353536E-1
3.736779246E1,-7.178467698E-3,-9.802198410E0,5.120640397E-1
3.738806193E1,-5.503492057E-2,-9.818947792E0,5.383850932E-1
3.740846193E1,-8.374879509E-2,-9.838089943E0,5.647061467E-1
3.742860084E1,-8.614161611E-2,-9.828518867E0,5.934200287E-1
3.744887032E1,-8.614161611E-2,-9.814162254E0,6.508477330E-1
3.746913980E1,-5.742774159E-2,-9.814162254E0,6.580262184E-1
3.748940928E1,-5.982056633E-2,-9.811769485E0,6.580262184E-1
3.750967876E1,-8.614161611E-2,-9.775876999E0,6.771687865E-1
3.752994824E1,-1.220339537E-1,-9.785448074E0,6.532405615E-1
3.755021772E1,-1.507478207E-1,-9.818947792E0,6.604190469E-1
3.757048719E1,-1.531406492E-1,-9.818947792E0,6.508477330E-1
3.759075667E1,-1.579262912E-1,-9.811769485E0,6.077769399E-1
3.761102615E1,-1.555334777E-1,-9.823733330E0,5.982056856E-1
3.763129563E1,-1.316052526E-1,-9.835697174E0,5.934200287E-1
3.765156506E1,-1.100698411E-1,-9.818947792E0,5.694918036E-1
3.767183454E1,-1.220339537E-1,-9.835697174E0,5.886343718E-1
3.769210396E1,-1.722832322E-1,-9.838089943E0,6.053841114E-1
3.771237344E1,-2.344966233E-1,-9.785448074E0,6.221339107E-1
3.773264292E1,-2.392822653E-1,-9.771091461E0,6.053841114E-1
3.775291235E1,-1.555334777E-1,-9.814162254E0,6.173482537E-1
3.777318183E1,-5.264209956E-2,-9.847661972E0,6.077769399E-1
3.779345126E1,-9.571290575E-3,-9.830911636E0,6.221339107E-1
3.781372074E1,-2.632104978E-2,-9.835697174E0,5.934200287E-1
3.783399016E1,-1.028913707E-1,-9.811769485E0,6.005984545E-1
3.785425964E1,-1.627119333E-1,-9.809376717E0,5.527420044E-1
3.787452907E1,-1.794617027E-1,-9.814162254E0,5.335994363E-1
3.789479855E1,-1.698904037E-1,-9.795019150E0,5.168496966E-1
3.791506798E1,-1.268195957E-1,-9.814162254E0,5.383850932E-1
3.793533746E1,-8.853443712E-2,-9.838089943E0,5.312066078E-1
3.795560688E1,-4.546362907E-2,-9.852447510E0,5.503492355E-1
3.797587631E1,-5.024927482E-2,-9.818947792E0,5.790630579E-1
3.799614579E1,-5.024927482E-2,-9.830911636E0,5.886343718E-1
3.801641522E1,-5.742774159E-2,-9.826126099E0,6.005984545E-1
3.803668469E1,-6.221338734E-2,-9.830911636E0,5.742774606E-1
3.805695412E1,-4.546362907E-2,-9.785448074E0,5.527420044E-1
3.807722355E1,-5.024927482E-2,-9.814162254E0,5.192425251E-1
3.809749298E1,-4.307080805E-2,-9.814162254E0,5.216353536E-1
3.811776240E1,-3.349951655E-2,-9.816555023E0,5.240281820E-1
3.813803188E1,-4.546362907E-2,-9.818947792E0,5.359922647E-1
3.815830131E1,-7.896314561E-2,-9.828518867E0,5.575276613E-1
3.817857074E1,-7.896314561E-2,-9.859625816E0,5.503492355E-1
3.819884022E1,-3.828516230E-2,-9.814162254E0,5.742774606E-1
3.821910964E1,-8.374879509E-2,-9.771091461E0,5.766702294E-1
3.823950964E1,-1.387837082E-1,-9.811769485E0,6.005984545E-1
3.825964850E1,-1.627119333E-1,-9.806983948E0,6.101697683E-1
3.827991792E1,-1.435693651E-1,-9.785448074E0,5.455635786E-1
3.830018740E1,-8.853443712E-2,-9.799804688E0,5.383850932E-1
3.832045683E1,-1.914258115E-2,-9.845269203E0,5.503492355E-1
3.834085683E1,1.435693540E-2,-9.873982430E0,5.718846321E-1
3.836099568E1,-3.349951655E-2,-9.823733330E0,5.790630579E-1
3.838126511E1,-1.052841991E-1,-9.806983948E0,6.173482537E-1
3.840153454E1,-1.890329868E-1,-9.773484230E0,6.005984545E-1
3.842180396E1,-2.464607358E-1,-9.806983948E0,5.670989752E-1
3.844220397E1,-2.129612118E-1,-9.845269203E0,5.479564071E-1
3.846234282E1,-1.435693651E-1,-9.847661972E0,5.527420044E-1
3.848261225E1,-1.076770201E-1,-9.840482712E0,5.718846321E-1
3.850288167E1,-8.135596663E-2,-9.830911636E0,5.910272002E-1
3.852315110E1,-9.810572863E-2,-9.823733330E0,6.101697683E-1
3.854342053E1,-1.507478207E-1,-9.811769485E0,6.388836503E-1
3.856368996E1,-2.009970993E-1,-9.816555023E0,6.364908218E-1
3.858395938E1,-2.105683982E-1,-9.811769485E0,6.317051649E-1
3.860422881E1,-1.938186288E-1,-9.838089943E0,6.077769399E-1
3.862449824E1,-1.579262912E-1,-9.816555023E0,5.694918036E-1
3.864489824E1,-1.292124242E-1,-9.804591179E0,5.503492355E-1
3.866503704E1,-1.244267747E-1,-9.814162254E0,5.694918036E-1
3.868530641E1,-1.363908947E-1,-9.806983948E0,5.910272002E-1
3.870557584E1,-1.651047617E-1,-9.799804688E0,6.293123364E-1
3.872584527E1,-2.009970993E-1,-9.809376717E0,6.293123364E-1
3.874611469E1,-1.698904037E-1,-9.845269203E0,6.197410822E-1
3.876638412E1,-8.614161611E-2,-9.826126099E0,6.221339107E-1
3.878665350E1,-6.460621208E-2,-9.795019150E0,5.910272002E-1
3.880692292E1,-8.374879509E-2,-9.850054741E0,5.670989752E-1
3.882719235E1,-1.268195957E-1,-9.835697174E0,5.623133183E-1
3.884746173E1,-1.674975902E-1,-9.785448074E0,5.503492355E-1
3.886773115E1,-1.435693651E-1,-9.783055305E0,5.455635786E-1
3.888800058E1,-7.657032460E-2,-9.816555023E0,5.479564071E-1
3.890827001E1,4.785645287E-3,-9.838089943E0,5.670989752E-1
3.892853938E1,2.871387079E-2,-9.845269203E0,5.862415433E-1
3.894880881E1,-1.914258115E-2,-9.850054741E0,5.958128572E-1
3.896907818E1,-8.614161611E-2,-9.833304405E0,5.838487148E-1
3.898934761E1,-1.363908947E-1,-9.799804688E0,5.575276613E-1
3.900961704E1,-1.411765367E-1,-9.811769485E0,5.814558864E-1
3.902988587E1,-1.339980662E-1,-9.802198410E0,5.599204898E-1
3.905015524E1,-9.092725813E-2,-9.795019150E0,5.599204898E-1
3.907042467E1,-6.939185411E-2,-9.799804688E0,5.718846321E-1
3.909069405E1,-4.785645381E-2,-9.816555023E0,5.862415433E-1
3.911096342E1,-8.135596663E-2,-9.847661972E0,6.005984545E-1
3.913123285E1,-9.810572863E-2,-9.840482712E0,6.149554253E-1
3.915150222E1,-9.810572863E-2,-9.830911636E0,5.910272002E-1
3.917177165E1,-8.135596663E-2,-9.823733330E0,5.623133183E-1
3.919204103E1,-8.614161611E-2,-9.818947792E0,5.479564071E-1
3.921231045E1,-9.332008660E-2,-9.818947792E0,5.455635786E-1
3.923257983E1,-1.052841991E-1,-9.809376717E0,5.479564071E-1
3.925284920E1,-1.268195957E-1,-9.821340561E0,5.503492355E-1
3.927311863E1,-1.172483116E-1,-9.804591179E0,5.934200287E-1
3.929338801E1,-1.579262912E-1,-9.814162254E0,6.221339107E-1
3.931365743E1,-1.148554832E-1,-9.840482712E0,6.317051649E-1
3.933392681E1,-7.178468257E-2,-9.804591179E0,6.340979934E-1
3.935419618E1,-8.374879509E-2,-9.795019150E0,6.173482537E-1
3.937446556E1,-1.196411327E-1,-9.857233047E0,5.910272002E-1
3.939473498E1,-1.698904037E-1,-9.835697174E0,5.647061467E-1
3.941500436E1,-1.603191197E-1,-9.790233612E0,5.455635786E-1
3.943527374E1,-1.363908947E-1,-9.814162254E0,5.431707501E-1
3.945554311E1,-4.785645381E-2,-9.835697174E0,5.790630579E-1
3.947581254E1,-7.178467698E-3,-9.811769485E0,5.934200287E-1
3.949608191E1,-2.871387079E-2,-9.828518867E0,6.340979934E-1
3.951635129E1,-1.028913707E-1,-9.830911636E0,6.388836503E-1
3.953675129E1,-1.555334777E-1,-9.830911636E0,6.125625968E-1
3.955689004E1,-1.842473447E-1,-9.799804688E0,5.694918036E-1
3.957715936E1,-1.435693651E-1,-9.799804688E0,5.647061467E-1
3.959742884E1,-9.571290761E-2,-9.799804688E0,5.766702294E-1
3.961769821E1,-5.742774159E-2,-9.823733330E0,5.862415433E-1
3.963796754E1,-5.503492057E-2,-9.818947792E0,6.029912829E-1
3.965823696E1,-6.221338734E-2,-9.835697174E0,6.197410822E-1
3.967850634E1,-9.092725813E-2,-9.830911636E0,6.364908218E-1
3.969877566E1,-7.657032460E-2,-9.823733330E0,6.388836503E-1
3.971904509E1,-7.896314561E-2,-9.811769485E0,6.197410822E-1
3.973944509E1,-1.028913707E-1,-9.823733330E0,5.910272002E-1
3.975958379E1,-9.571290761E-2,-9.811769485E0,5.527420044E-1
3.977985316E1,-8.374879509E-2,-9.802198410E0,5.527420044E-1
3.980012254E1,-8.853443712E-2,-9.811769485E0,5.551348329E-1
3.982039191E1,-8.853443712E-2,-9.833304405E0,5.814558864E-1
3.984079191E1,-9.332008660E-2,-9.830911636E0,6.197410822E-1
3.986093061E1,-1.076770201E-1,-9.802198410E0,6.317051649E-1
3.988119998E1,-7.417750359E-2,-9.830911636E0,6.364908218E-1
3.990146936E1,-4.546362907E-2,-9.802198410E0,6.412764788E-1
3.992173874E1,-6.699903309E-2,-9.792626381E0,6.388836503E-1
3.994213874E1,-1.076770201E-1,-9.850054741E0,6.317051649E-1
3.996227743E1,-1.459621787E-1,-9.840482712E0,6.053841114E-1
3.998254681E1,-1.507478207E-1,-9.768698692E0,5.766702294E-1
4.000281618E1,-1.244267747E-1,-9.799804688E0,5.670989752E-1
4.002308545E1,-6.699903309E-2,-9.850054741E0,5.862415433E-1
4.004348545E1,-1.196411345E-2,-9.847661972E0,6.029912829E-1
4.006362420E1,-2.153540403E-2,-9.840482712E0,6.340979934E-1
4.008389358E1,-6.460621208E-2,-9.838089943E0,6.388836503E-1
4.010416295E1,-1.244267747E-1,-9.818947792E0,6.604190469E-1
4.012443233E1,-1.698904037E-1,-9.811769485E0,6.173482537E-1
4.014470165E1,-1.842473447E-1,-9.811769485E0,5.910272002E-1
4.016497103E1,-1.627119333E-1,-9.811769485E0,5.958128572E-1
4.018524035E1,-1.052841991E-1,-9.806983948E0,6.005984545E-1
4.020550972E1,-7.178468257E-2,-9.816555023E0,6.005984545E-1
4.022577910E1,-6.460621208E-2,-9.828518867E0,6.149554253E-1
4.024604842E1,-8.135596663E-2,-9.850054741E0,6.508477330E-1
4.026631774E1,-8.135596663E-2,-9.835697174E0,6.484549642E-1
4.028658712E1,-7.417750359E-2,-9.830911636E0,6.197410822E-1
4.030685644E1,-9.571290761E-2,-9.838089943E0,5.982056856E-1
4.032712582E1,-1.124626622E-1,-9.833304405E0,6.029912829E-1
4.034739514E1,-1.004985496E-1,-9.795019150E0,5.599204898E-1
4.036766452E1,-1.124626622E-1,-9.816555023E0,5.670989752E-1
4.038793384E1,-1.148554832E-1,-9.830911636E0,5.670989752E-1
4.040820321E1,-1.028913707E-1,-9.818947792E0,5.958128572E-1
4.042847254E1,-1.052841991E-1,-9.804591179E0,6.197410822E-1
4.044874186E1,-8.853443712E-2,-9.838089943E0,6.269195080E-1
4.046901118E1,-5.503492057E-2,-9.809376717E0,6.340979934E-1
4.048928056E1,-6.460621208E-2,-9.802198410E0,6.484549642E-1
4.050954988E1,-8.853443712E-2,-9.864411354E0,5.982056856E-1
4.052981926E1,-1.196411327E-1,-9.840482712E0,5.694918036E-1
4.055008858E1,-1.363908947E-1,-9.756733894E0,5.216353536E-1
4.057035790E1,-1.076770201E-1,-9.751948357E0,5.096712112E-1
4.059062722E1,-3.828516230E-2,-9.826126099E0,5.407779217E-1
4.061089655E1,4.307080805E-2,-9.830911636E0,5.694918036E-1
4.063116592E1,2.632104978E-2,-9.857233047E0,5.766702294E-1
4.065143524E1,-1.914258115E-2,-9.852447510E0,6.077769399E-1
4.067170457E1,-1.172483116E-1,-9.847661972E0,5.934200287E-1
4.069197389E1,-1.627119333E-1,-9.811769485E0,5.670989752E-1
4.071224321E1,-1.698904037E-1,-9.804591179E0,5.359922647E-1
4.073251254E1,-1.244267747E-1,-9.787840843E0,5.240281820E-1
4.075278186E1,-9.092725813E-2,-9.787840843E0,5.264210105E-1
