"Time (s)","Acceleration x (m/s^2)","Acceleration y (m/s^2)","Acceleration z (m/s^2)"
2.019084000E-2,-7.488784790E0,5.667151451E0,2.823456049E0
4.059084000E-2,-7.356854439E0,5.735888481E0,3.024345398E0
6.073125700E-2,-7.227301121E0,5.779049873E0,3.246398449E0
8.100146500E-2,-7.095390320E0,5.800618649E0,3.489793301E0
1.012716210E-1,-6.936992645E0,5.817406178E0,3.769125700E0
1.215418300E-1,-6.708456039E0,5.856246471E0,4.107480526E0
1.418120900E-1,-6.415536404E0,5.900280476E0,4.494215012E0
1.620823510E-1,-6.072435379E0,5.934591770E0,4.906783104E0
1.823526110E-1,-5.662073135E0,5.927904606E0,5.382495880E0
2.026229240E-1,-5.109209538E0,5.844460964E0,5.992383003E0
2.228931840E-1,-4.431335926E0,5.662680149E0,6.668411732E0
2.431634960E-1,-3.693039179E0,5.395151615E0,7.309184551E0
2.634338090E-1,-3.034189463E0,5.087962151E0,7.815159321E0
2.837041740E-1,-2.346621990E0,4.770943165E0,8.240258217E0
3.039744340E-1,-1.639385462E0,4.456165791E0,8.580523491E0
3.242447990E-1,-1.017621160E0,4.176586151E0,8.814247131E0
3.445151110E-1,-4.897987545E-1,3.970668793E0,8.953450203E0
3.647854240E-1,1.083959863E-1,3.848014832E0,9.019501686E0
3.850557360E-1,7.997143865E-1,3.806097984E0,9.002470016E0
4.053260490E-1,1.413503408E0,3.783957958E0,8.936110497E0
4.255963610E-1,1.695242524E0,3.749403000E0,8.901602745E0
4.458666740E-1,1.709031105E0,3.765803337E0,8.892037392E0
4.661370380E-1,1.673331738E0,3.835294962E0,8.869095802E0
4.864073510E-1,1.746175170E0,3.956379652E0,8.801609039E0
5.066776630E-1,1.978888631E0,4.114285469E0,8.679115295E0
5.270776630E-1,2.391714334E0,4.211503506E0,8.527211189E0
5.472182880E-1,2.693627596E0,4.231057644E0,8.426916122E0
5.674886530E-1,2.841791630E0,4.259604931E0,8.363634109E0
5.877589650E-1,3.013575315E0,4.303680420E0,8.280523300E0
6.080292780E-1,3.349127769E0,4.352549553E0,8.124594688E0
6.284292780E-1,3.898857355E0,4.353939533E0,7.874802113E0
6.485699030E-1,4.351167202E0,4.251515388E0,7.691706657E0
6.688402150E-1,4.499386311E0,4.073644161E0,7.702682495E0
6.891105280E-1,4.548720837E0,3.897410154E0,7.764645576E0
7.093808400E-1,4.641485214E0,3.738209009E0,7.787990093E0
7.297808400E-1,4.804968834E0,3.536412001E0,7.783087254E0
7.499215170E-1,5.107180595E0,3.241035938E0,7.718988895E0
7.701918300E-1,5.476176262E0,2.890918732E0,7.604238987E0
7.904621420E-1,5.853183270E0,2.598207951E0,7.426973343E0
8.107324550E-1,6.197404385E0,2.435204983E0,7.199467182E0
8.311324550E-1,6.496709824E0,2.339830637E0,6.963356972E0
8.512730800E-1,6.760354519E0,2.257292747E0,6.735919952E0
8.715433920E-1,6.941856861E0,2.095352888E0,6.602311134E0
8.918137570E-1,6.992883682E0,1.826976657E0,6.628130913E0
9.120840690E-1,6.905836105E0,1.593068004E0,6.778048992E0
9.324840690E-1,6.887965202E0,1.453831196E0,6.827348709E0
9.526246940E-1,7.059559822E0,1.409656763E0,6.659270763E0
9.728950070E-1,7.362932682E0,1.433700323E0,6.316812038E0
9.931653710E-1,7.698324203E0,1.411531687E0,5.908787727E0
1.013435684E0,7.965662956E0,1.300847888E0,5.570134163E0
1.033745319E0,8.168646812E0,1.141763926E0,5.304711342E0
1.053976361E0,8.390666962E0,1.042755961E0,4.967872143E0
1.074246674E0,8.620796204E0,1.011539936E0,4.563886166E0
1.094517038E0,8.830383301E0,9.577602744E-1,4.156612396E0
1.114787299E0,9.021430016E0,7.720537186E-1,3.766711950E0
1.135057611E0,9.170074463E0,4.804975092E-1,3.442273140E0
1.155327976E0,9.271874428E0,2.125869840E-1,3.187089443E0
1.175598288E0,9.385856628E0,5.697784573E-2,2.841273069E0
1.195868601E0,9.517518997E0,-9.878065437E-3,2.363709211E0
1.216138965E0,9.630396843E0,-1.075563207E-1,1.847776175E0
1.236409278E0,9.688194275E0,-3.020297885E-1,1.489313960E0
1.256679590E0,9.709409714E0,-5.494980812E-1,1.263250947E0
1.276949903E0,9.720674515E0,-7.972384691E-1,1.021418691E0
1.297220267E0,9.722070694E0,-1.001771212E0,8.050960898E-1
1.317490632E0,9.704849243E0,-1.220662236E0,7.044683099E-1
1.337760944E0,9.684660912E0,-1.444019914E0,5.408620238E-1
1.358031309E0,9.657242775E0,-1.653250217E0,4.181049764E-1
1.378301621E0,9.617495537E0,-1.892559648E0,3.039495647E-1
1.398571934E0,9.580590248E0,-2.088932276E0,1.380567253E-1
1.418842299E0,9.542637825E0,-2.259654999E0,4.903496429E-2
1.439112663E0,9.489501953E0,-2.469854355E0,1.398441792E-1
1.459382976E0,9.433908463E0,-2.671601534E0,1.852298677E-1
1.479653340E0,9.378909111E0,-2.859756708E0,1.680663973E-1
1.499923705E0,9.297376633E0,-3.117658377E0,9.683745354E-2
1.520194017E0,9.217464447E0,-3.347636461E0,4.548727348E-2
1.540464382E0,9.148690224E0,-3.528467894E0,1.475484073E-1
1.560734746E0,9.066048622E0,-3.729985714E0,2.537021935E-1
1.581005059E0,8.997474670E0,-3.891074657E0,2.745690346E-1
1.601275424E0,8.949332237E0,-4.003707409E0,2.239976525E-1
1.621545788E0,8.926306725E0,-4.059092045E0,1.232741475E-1
1.641816153E0,8.931142807E0,-4.050319672E0,3.417519474E-5
1.662086517E0,8.957514763E0,-3.988160849E0,-1.670735627E-1
1.682356882E0,8.997837067E0,-3.878282785E0,-4.101750553E-1
1.702627246E0,9.034433365E0,-3.757834911E0,-6.542767882E-1
1.722897611E0,9.045083046E0,-3.696689367E0,-8.314671516E-1
1.743168028E0,9.039958000E0,-3.701254368E0,-8.661779165E-1
1.763438392E0,9.030134201E0,-3.729831696E0,-8.458330035E-1
1.783708757E0,9.010291100E0,-3.773934841E0,-8.616607189E-1
1.803979174E0,8.976328850E0,-3.831729174E0,-9.559110403E-1
1.824249538E0,8.935116768E0,-3.883697271E0,-1.118468642E0
1.844519903E0,8.901376724E0,-3.928668022E0,-1.225336671E0
1.864790319E0,8.890622139E0,-3.935913324E0,-1.278987527E0
1.885060736E0,8.882401466E0,-3.941721916E0,-1.317629576E0
1.905331101E0,8.863039970E0,-3.958086967E0,-1.396590590E0
1.925601517E0,8.830597878E0,-3.996606112E0,-1.489314198E0
1.945871934E0,8.802621841E0,-4.033149242E0,-1.554976702E0
1.966142299E0,8.780283928E0,-4.084392548E0,-1.547496438E0
1.986412715E0,8.760807991E0,-4.137527943E0,-1.516412854E0
2.006683132E0,8.753824234E0,-4.155797482E0,-1.506749511E0
2.026953549E0,8.715709686E0,-4.207478523E0,-1.582376838E0
2.047223965E0,8.579273224E0,-4.406843662E0,-1.773748875E0
2.067494382E0,8.351197243E0,-4.721924305E0,-2.032568693E0
2.087764799E0,8.018094063E0,-5.116622925E0,-2.387617588E0
2.108035215E0,7.497756004E0,-5.594732285E0,-2.941598892E0
2.128435215E0,6.596110344E0,-6.242198944E0,-3.700901508E0
2.148576101E0,5.489374638E0,-6.848527908E0,-4.374335289E0
2.168846517E0,4.510078907E0,-7.305041790E0,-4.739823818E0
2.189116934E0,4.049571991E0,-7.641513824E0,-4.623702049E0
2.209387403E0,3.937151670E0,-7.906668186E0,-4.260731697E0
2.229787403E0,3.894411564E0,-8.087365150E0,-3.949492693E0
2.249928288E0,3.983897686E0,-8.186207771E0,-3.644854546E0
2.270198757E0,4.121787548E0,-8.205098152E0,-3.443487883E0
2.290469174E0,4.193234444E0,-8.170022964E0,-3.440623045E0
2.310739642E0,4.162351131E0,-8.152312279E0,-3.519236565E0
2.331139642E0,4.024387360E0,-8.205573082E0,-3.555735350E0
2.351280528E0,3.872791767E0,-8.316741943E0,-3.464631319E0
2.371550996E0,3.807677984E0,-8.460123062E0,-3.177781343E0
2.391821465E0,3.821853161E0,-8.611652374E0,-2.720895767E0
2.412091934E0,3.905999422E0,-8.734561920E0,-2.149647236E0
2.432491934E0,3.831360579E0,-8.914793015E0,-1.420397162E0
2.452632871E0,3.483652592E0,-9.149713516E0,-5.632939339E-1
2.472903340E0,3.035902977E0,-9.323536873E0,1.591481566E-1
2.493173809E0,2.616304159E0,-9.433435440E0,5.793392658E-1
2.513444330E0,2.286650658E0,-9.510193825E0,7.055785060E-1
2.533714799E0,2.059392691E0,-9.559787750E0,7.346768379E-1
2.554114799E0,1.940936446E0,-9.586747169E0,7.052845955E-1
2.574413705E0,1.867431641E0,-9.605965614E0,6.391410828E-1
2.594526830E0,1.837817311E0,-9.614727020E0,5.914635658E-1
2.614797246E0,1.717683911E0,-9.636488914E0,5.983597040E-1
2.635197246E0,1.533377886E0,-9.665334702E0,6.328083873E-1
2.655338132E0,1.376887798E0,-9.685828209E0,6.777232885E-1
2.675608549E0,1.295731664E0,-9.689674377E0,7.756750584E-1
2.695878965E0,1.335895181E0,-9.664446831E0,9.920831919E-1
2.716149382E0,1.334131479E0,-9.633565903E0,1.258928776E0
2.736419851E0,1.202828050E0,-9.618386269E0,1.486684322E0
2.756690371E0,1.063202977E0,-9.613874435E0,1.616605759E0
2.776960892E0,1.060343742E0,-9.620605469E0,1.577973366E0
2.797231361E0,1.138402104E0,-9.641547203E0,1.383830547E0
2.817501830E0,1.288156986E0,-9.651427269E0,1.166614056E0
2.837772351E0,1.505082607E0,-9.637510300E0,1.011683106E0
2.858042871E0,1.709586740E0,-9.626238823E0,7.637017965E-1
2.878313340E0,1.893872261E0,-9.607378960E0,5.309420228E-1
2.898583861E0,2.062283993E0,-9.580766678E0,3.553546071E-1
2.918854382E0,2.178220987E0,-9.560547829E0,1.471607238E-1
2.939124903E0,2.232002974E0,-9.549242973E0,-2.225352079E-2
2.959395424E0,2.213485956E0,-9.553318977E0,-7.038518041E-2
2.979665944E0,2.228142977E0,-9.549628258E0,1.018091738E-1
2.999936517E0,2.292414427E0,-9.527838707E0,3.681181073E-1
3.020207038E0,2.299425602E0,-9.521569252E0,4.719652832E-1
3.040477559E0,2.316287279E0,-9.514510155E0,5.284636617E-1
3.060748080E0,2.336837530E0,-9.512017250E0,4.807160795E-1
3.081018653E0,2.350460291E0,-9.516655922E0,2.810136080E-1
3.101289174E0,2.363430738E0,-9.517582893E0,1.351017039E-2
3.121559694E0,2.323041439E0,-9.525273323E0,-2.074416876E-1
3.141830215E0,2.279085875E0,-9.533607483E0,-2.940868139E-1
3.162100788E0,2.270714521E0,-9.536463737E0,-2.647987306E-1
3.182371309E0,2.230600357E0,-9.548339844E0,-1.549866945E-1
3.202641882E0,2.003718853E0,-9.599583626E0,-5.912568793E-2
3.222912403E0,1.610777974E0,-9.673282623E0,5.833792686E-2
3.243182924E0,1.139740825E0,-9.737946510E0,2.092418671E-1
3.263453496E0,7.703049779E-1,-9.770612717E0,3.349007070E-1
3.283724017E0,4.436646998E-1,-9.787768364E0,4.161052704E-1
3.303994590E0,3.834516183E-2,-9.794279099E0,4.909221530E-1
3.324265059E0,-4.273508787E-1,-9.782443047E0,5.399670601E-1
3.344535684E0,-8.326312304E-1,-9.756477356E0,5.368999243E-1
3.364806257E0,-1.120495677E0,-9.730669975E0,4.784745872E-1
3.385076778E0,-1.259277582E0,-9.719471931E0,3.412932456E-1
3.405347351E0,-1.288111091E0,-9.720071793E0,1.771253347E-1
3.425657246E0,-1.390346646E0,-9.707457542E0,5.087090284E-2
3.445888496E0,-1.547207594E0,-9.683600426E0,6.631629914E-2
3.466159069E0,-1.583126307E0,-9.677577019E0,9.290041775E-2
3.486429538E0,-1.588562965E0,-9.676952362E0,5.863171071E-2
3.506700111E0,-1.626304030E0,-9.670858383E0,-5.241799634E-3
3.526970684E0,-1.624859571E0,-9.670969009E0,-5.080905929E-2
3.547241257E0,-1.505372763E0,-9.690317154E0,-4.464864358E-2
3.567511830E0,-1.283529639E0,-9.722246170E0,-2.926439047E-2
3.587782351E0,-1.076726198E0,-9.747327805E0,-2.537627704E-2
3.608052924E0,-9.258676171E-1,-9.762749672E0,-4.326878116E-2
3.628452924E0,-8.745639324E-1,-9.767377853E0,-6.212576106E-2
3.648594069E0,-9.009490013E-1,-9.764964104E0,-6.444027275E-2
3.668864642E0,-8.396500945E-1,-9.769376755E0,-1.570140123E-1
3.689135215E0,-7.500494719E-1,-9.777382851E0,-1.029399633E-1
3.709405788E0,-7.537242174E-1,-9.777029991E0,1.094636545E-1
3.729805788E0,-8.426855803E-1,-9.767632484E0,2.315896302E-1
3.749946882E0,-8.802250028E-1,-9.765045166E0,1.986856759E-1
3.770217455E0,-8.302004337E-1,-9.770615578E0,1.274141073E-1
3.790488028E0,-8.097352982E-1,-9.772890091E0,7.304283977E-2
3.810758601E0,-8.440606594E-1,-9.770207405E0,3.146837652E-2
3.831158601E0,-8.911803961E-1,-9.766043663E0,-2.406125702E-2
3.851299799E0,-9.292750955E-1,-9.761806488E0,-1.181981862E-1
3.871570319E0,-9.491963983E-1,-9.757893562E0,-2.300460637E-1
3.891840944E0,-9.286148548E-1,-9.758923531E0,-2.673585415E-1
3.912111517E0,-9.158800840E-1,-9.760857582E0,-2.392009348E-1
3.932511517E0,-9.033585787E-1,-9.763216019E0,-1.842310727E-1
3.952652663E0,-8.893949986E-1,-9.765720367E0,-1.003091037E-1
3.972923236E0,-8.483999968E-1,-9.769841194E0,2.843165025E-2
3.993193809E0,-7.613568306E-1,-9.775508881E0,1.736072302E-1
4.013464434E0,-6.178119779E-1,-9.781810760E0,3.238459229E-1
4.033864434E0,-4.252972901E-1,-9.785964012E0,4.737344682E-1
4.054005580E0,-2.201156318E-1,-9.785794258E0,6.001375318E-1
4.074276153E0,-4.667757079E-2,-9.781897545E0,6.947566271E-1
4.094546778E0,6.390721351E-2,-9.777993202E0,7.464202642E-1
4.114817351E0,1.068339422E-1,-9.777635574E0,7.461983562E-1
4.135087924E0,9.003530443E-2,-9.781595230E0,6.947472095E-1
4.155358496E0,4.359521717E-2,-9.787648201E0,6.086336970E-1
4.175629121E0,9.373041801E-3,-9.793594360E0,5.057731271E-1
4.195899694E0,7.234813529E-4,-9.798249245E0,4.058265984E-1
4.216170319E0,7.618902018E-4,-9.800861359E0,3.369191289E-1
4.236440892E0,-1.203133143E-3,-9.801573753E0,3.154889643E-1
4.256711465E0,4.421580583E-3,-9.801013947E0,3.324152827E-1
4.276982090E0,1.613203809E-2,-9.799798012E0,3.662026525E-1
4.297252611E0,2.483038418E-2,-9.798376083E0,4.020082355E-1
4.317523288E0,2.831148729E-2,-9.796957970E0,4.349816442E-1
4.337793861E0,3.051329590E-2,-9.795643806E0,4.634727240E-1
4.358064486E0,3.226742893E-2,-9.794519424E0,4.865681827E-1
4.378335059E0,3.332713246E-2,-9.793659210E0,5.035046935E-1
4.398605684E0,3.451315314E-2,-9.793212891E0,5.120354295E-1
4.418876257E0,3.562488034E-2,-9.793235779E0,5.115028620E-1
4.439146830E0,5.754072964E-2,-9.796635628E0,4.393298030E-1
4.459417455E0,8.112240583E-2,-9.798189163E0,3.991360068E-1
4.479688028E0,6.116727740E-2,-9.793909073E0,4.959706366E-1
4.499958653E0,3.779691458E-2,-9.789335251E0,5.812595487E-1
4.520229226E0,4.227902368E-2,-9.791514397E0,5.430056453E-1
4.540629226E0,6.081126258E-2,-9.796568871E0,4.403685331E-1
4.560770424E0,6.801600754E-2,-9.798930168E0,3.830496371E-1
4.581040996E0,7.199861854E-2,-9.798120499E0,4.025415778E-1
4.601311621E0,6.968199462E-2,-9.796057701E0,4.503107667E-1
4.621582194E0,6.839858741E-2,-9.795064926E0,4.716083407E-1
4.641852819E0,6.696641445E-2,-9.795790672E0,4.564785361E-1
4.662123392E0,6.365252286E-2,-9.797001839E0,4.302002788E-1
4.682394017E0,5.715889856E-2,-9.797750473E0,4.137666523E-1
4.702664590E0,5.378250405E-2,-9.797527313E0,4.194541276E-1
4.722935215E0,5.277976021E-2,-9.795768738E0,4.588065445E-1
4.743205788E0,4.732109606E-2,-9.794745445E0,4.807329178E-1
4.763476413E0,4.524727538E-2,-9.795760155E0,4.597999156E-1
4.783746986E0,4.115457833E-2,-9.797836304E0,4.136507511E-1
4.804017611E0,3.978781775E-2,-9.799990654E0,3.591514826E-1
4.824288184E0,4.598159343E-2,-9.801569939E0,3.122218847E-1
4.844558809E0,5.339511856E-2,-9.802237511E0,2.892910540E-1
4.864829382E0,6.071625277E-2,-9.802178383E0,2.897978425E-1
4.885100007E0,6.923525035E-2,-9.801664352E0,3.049133718E-1
4.905370580E0,7.673856616E-2,-9.800796509E0,3.299534023E-1
4.925641205E0,8.526307344E-2,-9.799650192E0,3.605181277E-1
4.945911830E0,9.474729747E-2,-9.798357964E0,3.919048309E-1
4.966182403E0,1.022653878E-1,-9.797079086E0,4.209267795E-1
4.986452976E0,1.050507426E-1,-9.796109200E0,4.422492981E-1
5.006723601E0,1.028732955E-1,-9.795752525E0,4.505967498E-1
5.026994226E0,9.751418978E-2,-9.796167374E0,4.427038729E-1
5.047264851E0,9.060927480E-2,-9.797147751E0,4.219748378E-1
5.067535424E0,8.240557462E-2,-9.798293114E0,3.963118494E-1
5.087806049E0,6.862995028E-2,-9.799285889E0,3.737171590E-1
5.108076621E0,5.827443674E-2,-9.799897194E0,3.591631651E-1
5.128476621E0,5.274638906E-2,-9.800177574E0,3.523059785E-1
5.148617819E0,5.034927279E-2,-9.800281525E0,3.497597575E-1
5.168888444E0,4.896967113E-2,-9.800266266E0,3.503731191E-1
5.189159069E0,4.619637132E-2,-9.800191879E0,3.528415859E-1
5.209429642E0,4.177176580E-2,-9.800068855E0,3.567932546E-1
5.229829642E0,3.729904443E-2,-9.799940109E0,3.608160317E-1
5.249970892E0,3.326362371E-2,-9.799840927E0,3.638877273E-1
5.270241465E0,2.807523496E-2,-9.799797058E0,3.655036986E-1
5.290512090E0,2.275318094E-2,-9.799795151E0,3.659117818E-1
5.310782715E0,1.689942926E-2,-9.799878120E0,3.639785349E-1
5.331182715E0,9.365474805E-3,-9.800039291E0,3.599241972E-1
5.351323913E0,1.944659976E-3,-9.800236702E0,3.546107113E-1
5.371594538E0,-3.856072668E-3,-9.800436020E0,3.490396440E-1
5.391865163E0,-7.512297016E-3,-9.800608635E0,3.440833390E-1
5.412135736E0,-1.036878675E-2,-9.800694466E0,3.415893018E-1
5.432535736E0,-1.197593007E-2,-9.800713539E0,3.409636021E-1
5.452676986E0,-1.300679892E-2,-9.800701141E0,3.412928879E-1
5.472947611E0,-1.555661764E-2,-9.800706863E0,3.410004973E-1
5.493218184E0,-1.876165532E-2,-9.800721169E0,3.404430449E-1
5.513488809E0,-2.249855176E-2,-9.800699234E0,3.408370316E-1
5.533759434E0,-2.663016506E-2,-9.800669670E0,3.414112329E-1
5.554030059E0,-3.046447411E-2,-9.800653458E0,3.415425718E-1
5.574300684E0,-3.341302276E-2,-9.800642014E0,3.415933251E-1
5.594571257E0,-3.556928039E-2,-9.800640106E0,3.414286077E-1
5.614841882E0,-3.794466332E-2,-9.800621033E0,3.417043686E-1
5.635112507E0,-4.048924521E-2,-9.800596237E0,3.421432376E-1
5.655383132E0,-4.382884502E-2,-9.800580025E0,3.421885371E-1
5.675732455E0,-4.713488743E-2,-9.800553322E0,3.425312936E-1
5.695924434E0,-5.061559007E-2,-9.800539970E0,3.424145877E-1
5.716195007E0,-5.386687443E-2,-9.800533295E0,3.421151340E-1
5.736465632E0,-5.769629031E-2,-9.800511360E0,3.421000838E-1
5.756736257E0,-6.087696180E-2,-9.800495148E0,3.420042396E-1
5.777006882E0,-6.268021464E-2,-9.800503731E0,3.414675891E-1
5.797277455E0,-6.435753405E-2,-9.800420761E0,3.435054421E-1
5.817548028E0,-6.675481796E-2,-9.800251007E0,3.478947282E-1
5.837818653E0,-6.926506013E-2,-9.800078392E0,3.522194922E-1
5.858089278E0,-7.404093444E-2,-9.799898148E0,3.562218249E-1
5.878359903E0,-7.897786051E-2,-9.799794197E0,3.580096364E-1
5.898630528E0,-8.293412626E-2,-9.799715996E0,3.592754900E-1
5.918901153E0,-8.479669690E-2,-9.799619675E0,3.614436090E-1
5.939171726E0,-8.487626165E-2,-9.799531937E0,3.638164699E-1
5.959442351E0,-8.502327651E-2,-9.799427986E0,3.665572405E-1
5.979712976E0,-8.595333993E-2,-9.799280167E0,3.703115880E-1
5.999983601E0,-8.894636482E-2,-9.799180031E0,3.722119629E-1
6.020254226E0,-9.301276505E-2,-9.799091339E0,3.735700548E-1
6.040524851E0,-9.812054038E-2,-9.798995018E0,3.747666478E-1
6.060795476E0,-1.022308096E-1,-9.798908234E0,3.759515882E-1
6.081066049E0,-1.058020443E-1,-9.798822403E0,3.771820664E-1
6.101336674E0,-1.088898629E-1,-9.798706055E0,3.793429136E-1
6.121607299E0,-1.114030406E-1,-9.798524857E0,3.832364976E-1
6.141877924E0,-1.137020662E-1,-9.798316956E0,3.878707886E-1
6.162148549E0,-1.163510978E-1,-9.798098564E0,3.925678432E-1
6.182419121E0,-1.189643294E-1,-9.797929764E0,3.959816098E-1
6.202689746E0,-1.218067557E-1,-9.797790527E0,3.985679448E-1
6.222960371E0,-1.249655187E-1,-9.797657967E0,4.008146226E-1
6.243230996E0,-1.284373254E-1,-9.797506332E0,4.034277499E-1
6.263501569E0,-1.321798712E-1,-9.797358513E0,4.057944119E-1
6.283772194E0,-1.357336342E-1,-9.797245026E0,4.073953629E-1
6.304042819E0,-1.384113133E-1,-9.797167778E0,4.083096385E-1
6.324313444E0,-1.396744400E-1,-9.797101974E0,4.094715714E-1
6.344584017E0,-1.409467459E-1,-9.796994209E0,4.116054773E-1
6.364854642E0,-1.417249292E-1,-9.796884537E0,4.139479697E-1
6.385125267E0,-1.418103576E-1,-9.796804428E0,4.158166349E-1
6.405395840E0,-1.441660821E-1,-9.796725273E0,4.168761671E-1
6.425666465E0,-1.477458924E-1,-9.796644211E0,4.175142944E-1
6.445937038E0,-1.503236443E-1,-9.796604156E0,4.175395072E-1
6.466207663E0,-1.503009647E-1,-9.796617508E0,4.172314107E-1
6.486478288E0,-1.483989209E-1,-9.796632767E0,4.175506830E-1
6.506748861E0,-1.456428468E-1,-9.796624184E0,4.187203050E-1
6.527019486E0,-1.439719349E-1,-9.796505928E0,4.220642745E-1
6.547290111E0,-1.431763321E-1,-9.796395302E0,4.248764813E-1
6.567560684E0,-1.434467733E-1,-9.796324730E0,4.264351428E-1
6.587831309E0,-1.440821588E-1,-9.796336174E0,4.259522557E-1
6.608101882E0,-1.445963681E-1,-9.796384811E0,4.246482253E-1
6.628501882E0,-1.452720016E-1,-9.796441078E0,4.231255651E-1
6.648643132E0,-1.455981284E-1,-9.796483040E0,4.220317900E-1
6.668913705E0,-1.454331279E-1,-9.796496391E0,4.217818677E-1
6.689184330E0,-1.458286196E-1,-9.796497345E0,4.216271639E-1
6.709454903E0,-1.473993063E-1,-9.796462059E0,4.218932986E-1
6.729854903E0,-1.504468769E-1,-9.796353340E0,4.233131707E-1
6.749996153E0,-1.548549831E-1,-9.796191216E0,4.254962802E-1
6.770266726E0,-1.592809558E-1,-9.795952797E0,4.293209612E-1
6.790537299E0,-1.638401747E-1,-9.795756340E0,4.321012497E-1
6.810807924E0,-1.669155061E-1,-9.795614243E0,4.341348708E-1
6.831207924E0,-1.679796576E-1,-9.795521736E0,4.358193576E-1
6.851349121E0,-1.660982221E-1,-9.795491219E0,4.372159839E-1
6.871619694E0,-1.636397094E-1,-9.795537949E0,4.370847642E-1
6.891890319E0,-1.630933732E-1,-9.795475960E0,4.386778772E-1
6.912160892E0,-1.646459848E-1,-9.795405388E0,4.396918714E-1
6.932352871E0,-1.682921648E-1,-9.795383453E0,4.387889802E-1
6.952701934E0,-1.743124127E-1,-9.795262337E0,4.391408861E-1
6.972972611E0,-1.785630137E-1,-9.795270920E0,4.372188151E-1
6.993243184E0,-1.775075793E-1,-9.795569420E0,4.309110940E-1
7.013513809E0,-1.742391437E-1,-9.795835495E0,4.261628687E-1
7.033784434E0,-1.698447019E-1,-9.795883179E0,4.268763959E-1
7.054055059E0,-1.644871235E-1,-9.795787811E0,4.311371148E-1
7.074325632E0,-1.646724939E-1,-9.795423508E0,4.392730892E-1
7.094596257E0,-1.731484383E-1,-9.794904709E0,4.475129545E-1
7.114866882E0,-1.878834367E-1,-9.794296265E0,4.548024833E-1
7.135266882E0,-2.052092552E-1,-9.793723106E0,4.596386552E-1
7.155408028E0,-2.195010781E-1,-9.793457985E0,4.586765468E-1
7.175678653E0,-2.289251387E-1,-9.793590546E0,4.511975944E-1
7.195949278E0,-2.339352816E-1,-9.793694496E0,4.463303983E-1
7.216219903E0,-2.348608375E-1,-9.793480873E0,4.505078793E-1
7.236490528E0,-2.301880866E-1,-9.793134689E0,4.603441358E-1
7.256761153E0,-2.209621817E-1,-9.793109894E0,4.653608799E-1
7.277031726E0,-2.084695101E-1,-9.793557167E0,4.616890848E-1
7.297302299E0,-1.933412552E-1,-9.794227600E0,4.539875090E-1
7.317572924E0,-1.783729643E-1,-9.794724464E0,4.493924677E-1
7.337843549E0,-1.666570306E-1,-9.795025826E0,4.473078251E-1
7.358114121E0,-1.553347111E-1,-9.795487404E0,4.412216544E-1
7.378384746E0,-1.446077973E-1,-9.796232224E0,4.281626642E-1
7.398655371E0,-1.356594414E-1,-9.797140121E0,4.099050164E-1
7.418925944E0,-1.296262443E-1,-9.798098564E0,3.883884847E-1
7.439196569E0,-1.283437312E-1,-9.799009323E0,3.651219904E-1
7.459467194E0,-1.316645890E-1,-9.799792290E0,3.422253430E-1
7.479737767E0,-1.388221234E-1,-9.800222397E0,3.267002702E-1
7.500008392E0,-1.447101235E-1,-9.800125122E0,3.271018565E-1
7.520278965E0,-1.494683176E-1,-9.799474716E0,3.440229297E-1
7.540549590E0,-1.507505476E-1,-9.798461914E0,3.712249696E-1
7.560820215E0,-1.459304392E-1,-9.797428131E0,3.993658125E-1
7.581090840E0,-1.375476420E-1,-9.796483994E0,4.247146547E-1
7.601361413E0,-1.218420342E-1,-9.795799255E0,4.448095262E-1
7.621632038E0,-9.822144359E-2,-9.795700073E0,4.527727664E-1
7.641902663E0,-7.596422732E-2,-9.796117783E0,4.479835033E-1
7.662173288E0,-5.279861763E-2,-9.796970367E0,4.323952794E-1
7.682443861E0,-3.142563254E-2,-9.797791481E0,4.155469239E-1
7.702714486E0,-1.239475794E-2,-9.798471451E0,4.002305865E-1
7.722985111E0,5.047235638E-3,-9.799026489E0,3.865821660E-1
7.743255736E0,1.665966772E-2,-9.799478531E0,3.746182919E-1
7.763526361E0,2.243591659E-2,-9.800086975E0,3.580163419E-1
7.783796934E0,2.575746737E-2,-9.800919533E0,3.342077732E-1
7.804067559E0,2.699937299E-2,-9.801808357E0,3.069253862E-1
7.824338184E0,2.656045370E-2,-9.802426338E0,2.865450084E-1
7.844608809E0,2.341467142E-2,-9.802672386E0,2.782989144E-1
7.864879382E0,2.063616179E-2,-9.802562714E0,2.823683918E-1
7.885150007E0,2.074542269E-2,-9.802273750E0,2.922095060E-1
7.905420632E0,2.397430129E-2,-9.802041054E0,2.996699214E-1
7.925769955E0,2.649443410E-2,-9.801935196E0,3.029014766E-1
7.945961934E0,2.722139657E-2,-9.801994324E0,3.009187579E-1
7.966232507E0,2.746529877E-2,-9.802051544E0,2.990429103E-1
7.986503132E0,2.892376669E-2,-9.802060127E0,2.986032963E-1
8.006773757E0,3.272631392E-2,-9.802052498E0,2.984398007E-1
8.027044382E0,3.477227688E-2,-9.802067757E0,2.977521718E-1
8.047314903E0,3.447505832E-2,-9.802150726E0,2.949998975E-1
8.067585528E0,3.024432994E-2,-9.802293777E0,2.907077372E-1
8.087856153E0,2.644287422E-2,-9.802459717E0,2.854583263E-1
8.108126726E0,2.317230403E-2,-9.802627563E0,2.798977792E-1
8.128526726E0,2.001120336E-2,-9.802744865E0,2.759771049E-1
8.148667976E0,1.836824976E-2,-9.802841187E0,2.727055252E-1
8.168938601E0,1.770986617E-2,-9.802968025E0,2.681376934E-1
8.189209174E0,1.828039251E-2,-9.803117752E0,2.625755668E-1
8.209479799E0,1.671645790E-2,-9.803229332E0,2.584438026E-1
8.229879799E0,1.437797118E-2,-9.803322792E0,2.550175190E-1
8.250020996E0,1.314654574E-2,-9.803360939E0,2.536258101E-1
8.270291621E0,1.189837139E-2,-9.803335190E0,2.546519339E-1
8.290562246E0,1.167446561E-2,-9.803271294E0,2.571339011E-1
8.310832819E0,1.275843754E-2,-9.803188324E0,2.602314949E-1
8.331232819E0,1.530040707E-2,-9.803070068E0,2.645471394E-1
8.351374017E0,1.793389581E-2,-9.802950859E0,2.687956393E-1
8.371644642E0,2.054133266E-2,-9.802882195E0,2.710387707E-1
8.391915267E0,2.277784236E-2,-9.802923203E0,2.693831027E-1
8.412185840E0,2.357837185E-2,-9.803073883E0,2.637851834E-1
8.432585840E0,2.360403910E-2,-9.803308487E0,2.549208999E-1
8.452727038E0,2.352668904E-2,-9.803524971E0,2.464213371E-1
8.472997663E0,2.461926453E-2,-9.803669930E0,2.405420989E-1
8.493268288E0,2.890890278E-2,-9.803716660E0,2.380858213E-1
8.513538861E0,3.480190039E-2,-9.803630829E0,2.408618480E-1
8.533809434E0,3.848294914E-2,-9.803418159E0,2.488076091E-1
8.554080059E0,3.761106357E-2,-9.803109169E0,2.607861459E-1
8.574350632E0,3.189802170E-2,-9.802819252E0,2.722277045E-1
8.594621257E0,2.314107120E-2,-9.802590370E0,2.811966538E-1
8.614891830E0,1.348658372E-2,-9.802469254E0,2.860020101E-1
8.635162455E0,6.489500869E-3,-9.802433014E0,2.875048518E-1
8.655433028E0,1.855076058E-3,-9.802452087E0,2.869002223E-1
8.675703601E0,5.184235633E-4,-9.802460670E0,2.865922451E-1
8.695974226E0,4.020551278E-4,-9.802400589E0,2.886749804E-1
8.716244799E0,5.607564817E-4,-9.802293777E0,2.922671437E-1
8.736515424E0,-2.426841529E-4,-9.802181244E0,2.960352600E-1
8.756785996E0,-2.202732430E-4,-9.802078247E0,2.994020879E-1
8.777056569E0,-4.784333578E-4,-9.802006721E0,3.017169833E-1
8.797327142E0,-1.404524664E-3,-9.801957130E0,3.033672571E-1
8.817597715E0,-1.148622134E-3,-9.801930428E0,3.042344451E-1
8.837868288E0,-2.511396888E-4,-9.801875114E0,3.060011566E-1
8.858138861E0,-9.003399464E-5,-9.801758766E0,3.096784949E-1
8.878409382E0,-1.584707294E-3,-9.801611900E0,3.143192232E-1
8.898680059E0,-4.499533214E-3,-9.801483154E0,3.182687759E-1
8.918950632E0,-8.251631632E-3,-9.801416397E0,3.202491999E-1
8.939221205E0,-1.216700673E-2,-9.801352501E0,3.220659196E-1
8.959491778E0,-1.663176157E-2,-9.801333427E0,3.224554062E-1
8.979762351E0,-1.996361464E-2,-9.801366806E0,3.212307394E-1
9.000032924E0,-2.395973168E-2,-9.801418304E0,3.194085956E-1
9.020303496E0,-2.864391170E-2,-9.801470757E0,3.173972070E-1
9.040574069E0,-3.297437727E-2,-9.801500320E0,3.160540164E-1
9.060844590E0,-3.679923713E-2,-9.801526070E0,3.148384392E-1
9.081115163E0,-4.142469168E-2,-9.801499367E0,3.150925040E-1
9.101385736E0,-4.626492783E-2,-9.801394463E0,3.176593184E-1
9.121656309E0,-4.823244736E-2,-9.801262856E0,3.214204311E-1
9.141926882E0,-4.701760411E-2,-9.801256180E0,3.217991889E-1
9.162197403E0,-4.498330876E-2,-9.801344872E0,3.193916380E-1
9.182467976E0,-4.267940670E-2,-9.801501274E0,3.148659766E-1
9.202738549E0,-4.054694250E-2,-9.801581383E0,3.126357794E-1
9.223009069E0,-3.817595914E-2,-9.801605225E0,3.121620715E-1
9.243279642E0,-3.593123704E-2,-9.801547050E0,3.142666817E-1
9.263550215E0,-3.419315442E-2,-9.801426888E0,3.181825578E-1
9.283820736E0,-3.175702319E-2,-9.801237106E0,3.242555857E-1
9.304091309E0,-2.839520760E-2,-9.801114082E0,3.282390237E-1
9.324361830E0,-2.601164579E-2,-9.801135063E0,3.278132975E-1
9.344632403E0,-2.453897707E-2,-9.801278114E0,3.236189485E-1
9.364902924E0,-2.312983759E-2,-9.801589012E0,3.141538203E-1
9.385173496E0,-2.080867812E-2,-9.801990509E0,3.015539646E-1
9.405444017E0,-1.715767756E-2,-9.802300453E0,2.915267646E-1
9.425714538E0,-1.315906923E-2,-9.802464485E0,2.861932516E-1
9.445985111E0,-9.821697138E-3,-9.802546501E0,2.834899426E-1
9.466255632E0,-6.368050352E-3,-9.802652359E0,2.799141407E-1
9.486526153E0,-2.991276095E-3,-9.802778244E0,2.755168378E-1
9.506796674E0,-7.533031749E-5,-9.802878380E0,2.719295919E-1
9.527067246E0,1.902134740E-3,-9.802884102E0,2.717515230E-1
9.547337767E0,2.335660160E-3,-9.802795410E0,2.749019563E-1
9.567608288E0,2.111883136E-3,-9.802664757E0,2.795577347E-1
9.587878809E0,1.384562929E-3,-9.802556992E0,2.833118439E-1
9.608278809E0,-9.194713202E-4,-9.802538872E0,2.839333713E-1
9.628577767E0,-3.904355690E-3,-9.802542686E0,2.837654650E-1
9.648690944E0,-6.901947781E-3,-9.802535057E0,2.839740217E-1
9.669090944E0,-8.245359175E-3,-9.802492142E0,2.854318321E-1
9.689231882E0,-7.341112942E-3,-9.802466393E0,2.863368988E-1
9.709502299E0,-4.144051578E-3,-9.802419662E0,2.879969776E-1
9.729902299E0,-1.434744219E-3,-9.802427292E0,2.877607048E-1
9.750043236E0,-1.124304370E-3,-9.802426338E0,2.877998054E-1
9.770313653E0,-4.193914589E-3,-9.802433968E0,2.874987125E-1
9.790584121E0,-9.386599995E-3,-9.802461624E0,2.864176929E-1
9.810854590E0,-1.338972710E-2,-9.802500725E0,2.849481404E-1
9.831254590E0,-1.571169123E-2,-9.802520752E0,2.841012776E-1
9.851395580E0,-1.696031913E-2,-9.802538872E0,2.834092081E-1
9.871666101E0,-1.832163520E-2,-9.802501678E0,2.846043110E-1
9.891936569E0,-2.058172598E-2,-9.802460670E0,2.858586013E-1
9.912207038E0,-2.244499139E-2,-9.802470207E0,2.853958905E-1
9.932438132E0,-2.399435081E-2,-9.802487373E0,2.847192883E-1
9.952747976E0,-2.405887097E-2,-9.802503586E0,2.841600478E-1
9.973018444E0,-2.357024141E-2,-9.802510262E0,2.839273214E-1
9.993288913E0,-2.167818882E-2,-9.802469254E0,2.854892015E-1
1.001355943E1,-2.075285837E-2,-9.802406311E0,2.877452374E-1
1.003395943E1,-2.107354067E-2,-9.802331924E0,2.902217209E-1
1.005410042E1,-2.218694612E-2,-9.802311897E0,2.908088863E-1
1.007437089E1,-2.341698483E-2,-9.802392006E0,2.880462706E-1
1.009464136E1,-2.494058572E-2,-9.802480698E0,2.848368883E-1
1.011491183E1,-2.626005001E-2,-9.802480698E0,2.847144008E-1
1.013518230E1,-2.854618616E-2,-9.802392006E0,2.875435948E-1
1.015545277E1,-3.010786884E-2,-9.802274704E0,2.913550138E-1
1.017584199E1,-3.166181967E-2,-9.802156448E0,2.951219678E-1
1.019599371E1,-3.305939957E-2,-9.802076340E0,2.976694107E-1
1.021626417E1,-3.456532955E-2,-9.802042961E0,2.985702753E-1
1.023653464E1,-3.561688215E-2,-9.802031517E0,2.988259792E-1
1.025680511E1,-3.720231727E-2,-9.802035332E0,2.984898388E-1
1.027707558E1,-3.870930895E-2,-9.802003860E0,2.993350625E-1
1.029734605E1,-3.782852367E-2,-9.801991463E0,2.998761535E-1
1.031761652E1,-3.670356795E-2,-9.801965714E0,3.008388579E-1
1.033788699E1,-3.614655510E-2,-9.801932335E0,3.020020127E-1
1.035815740E1,-3.584653884E-2,-9.801897049E0,3.031859100E-1
1.037842787E1,-3.680146113E-2,-9.801874161E0,3.037929535E-1
1.039869834E1,-3.722561523E-2,-9.801865578E0,3.040343821E-1
1.041896876E1,-3.714640439E-2,-9.801826477E0,3.052706122E-1
1.043923923E1,-3.698037565E-2,-9.801779747E0,3.068096936E-1
1.045950969E1,-3.626506776E-2,-9.801703453E0,3.093120456E-1
1.047978011E1,-3.638207912E-2,-9.801636696E0,3.114270866E-1
1.050005053E1,-3.721204400E-2,-9.801597595E0,3.125178218E-1
1.052045053E1,-3.840708360E-2,-9.801584244E0,3.128128350E-1
1.054059141E1,-4.125491157E-2,-9.801543236E0,3.137506843E-1
1.056086188E1,-4.533315077E-2,-9.801444054E0,3.162812293E-1
1.058113230E1,-4.644989595E-2,-9.801346779E0,3.191156685E-1
1.060140272E1,-4.446971044E-2,-9.801316261E0,3.203290105E-1
1.062167313E1,-4.294064641E-2,-9.801321983E0,3.203569949E-1
1.064194360E1,-4.387659952E-2,-9.801255226E0,3.222740293E-1
1.066221402E1,-4.707922041E-2,-9.801194191E0,3.236716986E-1
1.068248443E1,-4.994901270E-2,-9.801202774E0,3.229802847E-1
1.070275490E1,-5.203779787E-2,-9.801283836E0,3.201876283E-1
1.072302532E1,-5.175235495E-2,-9.801417351E0,3.161224127E-1
1.074329574E1,-5.032495037E-2,-9.801442146E0,3.155541718E-1
1.076356615E1,-4.925350472E-2,-9.801332474E0,3.190923035E-1
1.078383657E1,-5.020430312E-2,-9.801082611E0,3.265828788E-1
1.080410699E1,-5.212238431E-2,-9.800790787E0,3.349376917E-1
1.082437740E1,-5.458497629E-2,-9.800642014E0,3.388701677E-1
1.084464782E1,-5.679751560E-2,-9.800608635E0,3.394374251E-1
1.086491818E1,-5.713629723E-2,-9.800684929E0,3.371829093E-1
1.088518860E1,-5.512649938E-2,-9.800792694E0,3.343719840E-1
1.090545902E1,-5.253451690E-2,-9.800900459E0,3.316110075E-1
1.092572943E1,-5.061348900E-2,-9.800998688E0,3.290045261E-1
1.094599980E1,-4.903493822E-2,-9.801114082E0,3.257845044E-1
1.096627022E1,-4.499566182E-2,-9.801296234E0,3.209064603E-1
1.098654063E1,-3.925279155E-2,-9.801515579E0,3.148856759E-1
1.100681100E1,-3.302085400E-2,-9.801643372E0,3.116005659E-1
1.102708141E1,-2.710324898E-2,-9.801689148E0,3.106879294E-1
1.104735178E1,-2.074195631E-2,-9.801756859E0,3.090533018E-1
1.106762219E1,-1.558564231E-2,-9.801846504E0,3.065150380E-1
1.108789256E1,-1.370613836E-2,-9.801826477E0,3.072255552E-1
1.110816298E1,-1.337629650E-2,-9.801732063E0,3.102696538E-1
1.112856298E1,-1.286472101E-2,-9.801632881E0,3.133974373E-1
1.114870376E1,-1.208658423E-2,-9.801608086E0,3.142104745E-1
1.116897412E1,-1.108913124E-2,-9.801661491E0,3.125789165E-1
1.118924449E1,-8.926168084E-3,-9.801710129E0,3.111064732E-1
1.120951490E1,-7.134197745E-3,-9.801734924E0,3.103550375E-1
1.122991490E1,-6.421896163E-3,-9.801667213E0,3.125180006E-1
1.125005563E1,-7.377821021E-3,-9.801552773E0,3.160497248E-1
1.127032600E1,-9.768085554E-3,-9.801418304E0,3.201286495E-1
1.129059641E1,-1.161278784E-2,-9.801353455E0,3.220700622E-1
1.131086678E1,-1.285062172E-2,-9.801380157E0,3.211958706E-1
1.133126678E1,-1.409650315E-2,-9.801432610E0,3.195506036E-1
1.135140751E1,-1.528731082E-2,-9.801493645E0,3.176148236E-1
1.137167787E1,-1.647910289E-2,-9.801518440E0,3.167804778E-1
1.139194824E1,-1.746684127E-2,-9.801526070E0,3.165149987E-1
1.141221860E1,-1.817098632E-2,-9.801470757E0,3.181399405E-1
1.143261860E1,-1.941790991E-2,-9.801442146E0,3.189630210E-1
1.145275928E1,-1.941972598E-2,-9.801346779E0,3.218597174E-1
1.147302964E1,-1.857175678E-2,-9.801146507E0,3.279881477E-1
1.149330001E1,-1.769732125E-2,-9.800827026E0,3.374396563E-1
1.151357037E1,-1.771081425E-2,-9.800458908E0,3.479903638E-1
1.153384068E1,-1.810748316E-2,-9.800160408E0,3.562571704E-1
1.155411105E1,-1.721318625E-2,-9.799931526E0,3.625234365E-1
1.157438141E1,-1.622928865E-2,-9.799762726E0,3.671313524E-1
1.159465173E1,-1.504858397E-2,-9.799608231E0,3.712454140E-1
1.161492209E1,-1.432720944E-2,-9.799406052E0,3.765980303E-1
1.163532209E1,-1.500196476E-2,-9.799169540E0,3.826822340E-1
1.165546277E1,-1.461548079E-2,-9.798972130E0,3.877138197E-1
1.167573308E1,-1.484148577E-2,-9.798772812E0,3.927086890E-1
1.169600344E1,-1.703358069E-2,-9.798566818E0,3.977404237E-1
1.171627376E1,-2.017163113E-2,-9.798296928E0,4.041739702E-1
1.173654407E1,-2.527300641E-2,-9.797980309E0,4.114829004E-1
1.175681443E1,-3.116631135E-2,-9.797578812E0,4.205508530E-1
1.177708475E1,-3.608341515E-2,-9.797183037E0,4.292790294E-1
1.179735506E1,-4.048687220E-2,-9.796804428E0,4.374582469E-1
1.181762537E1,-4.364697263E-2,-9.796370506E0,4.467712045E-1
1.183789568E1,-4.616291448E-2,-9.795933723E0,4.560022652E-1
1.185816605E1,-4.763846099E-2,-9.795586586E0,4.632411599E-1
1.187843636E1,-4.882644489E-2,-9.795348167E0,4.681440890E-1
1.189870667E1,-4.908420518E-2,-9.795242310E0,4.703136384E-1
1.191897699E1,-4.807807878E-2,-9.795193672E0,4.714328349E-1
1.193924730E1,-4.729771987E-2,-9.795140266E0,4.726207554E-1
1.195951761E1,-4.662556946E-2,-9.795049667E0,4.745832682E-1
1.197978787E1,-4.625526071E-2,-9.794991493E0,4.758135378E-1
1.200005818E1,-4.602167755E-2,-9.794894218E0,4.778164029E-1
1.202032850E1,-4.516108707E-2,-9.794823647E0,4.793600142E-1
1.204059881E1,-4.253461212E-2,-9.794774055E0,4.806156754E-1
1.206086912E1,-3.795325756E-2,-9.794705391E0,4.823947847E-1
1.208113938E1,-3.341533989E-2,-9.794567108E0,4.855150282E-1
1.210140969E1,-2.871764824E-2,-9.794465065E0,4.878643453E-1
1.212168001E1,-2.490585670E-2,-9.794404030E0,4.893098772E-1
1.214195027E1,-2.236153744E-2,-9.794376373E0,4.899609685E-1
1.216222058E1,-2.015330084E-2,-9.794410706E0,4.893891513E-1
1.218249084E1,-1.736122370E-2,-9.794418335E0,4.893275201E-1
1.220276115E1,-1.403191965E-2,-9.794229507E0,4.932203293E-1
1.222303141E1,-9.340742603E-3,-9.793974876E0,4.983593822E-1
1.224330167E1,-4.393502139E-3,-9.793727875E0,5.032370090E-1
1.226357199E1,-8.248983067E-4,-9.793499947E0,5.076860189E-1
1.228384225E1,4.663053260E-4,-9.793211937E0,5.131964087E-1
1.230411256E1,2.828805475E-3,-9.793109894E0,5.151472092E-1
1.232438282E1,8.653117344E-3,-9.793292999E0,5.115840435E-1
1.234465308E1,1.554084383E-2,-9.793491364E0,5.076122880E-1
1.236492339E1,2.204075456E-2,-9.793499947E0,5.071983933E-1
1.238519365E1,2.793689445E-2,-9.793341637E0,5.099651814E-1
1.240546391E1,3.158749640E-2,-9.792835236E0,5.193958282E-1
1.242586391E1,3.689999878E-2,-9.792440414E0,5.264340639E-1
1.244600443E1,4.358089343E-2,-9.792320251E0,5.281684399E-1
1.246627469E1,5.022829026E-2,-9.792252541E0,5.288245678E-1
1.248654496E1,5.789921060E-2,-9.792065620E0,5.314854383E-1
1.250681522E1,6.555006653E-2,-9.791828156E0,5.349637866E-1
1.252708548E1,7.239856571E-2,-9.791411400E0,5.416626930E-1
1.254735574E1,7.962368429E-2,-9.790960312E0,5.487884283E-1
1.256762600E1,8.605279028E-2,-9.790523529E0,5.555652976E-1
1.258789626E1,9.193429351E-2,-9.790105820E0,5.619173646E-1
1.260816652E1,9.777823091E-2,-9.789738655E0,5.673211217E-1
1.262856652E1,1.041289419E-1,-9.789379120E0,5.723613501E-1
1.264870699E1,1.108056232E-1,-9.789066315E0,5.764424205E-1
1.266897725E1,1.178608611E-1,-9.788768768E0,5.800719857E-1
1.268924751E1,1.245542839E-1,-9.788437843E0,5.842684507E-1
1.270951772E1,1.325403750E-1,-9.788053513E0,5.889118314E-1
1.272991772E1,1.414145529E-1,-9.787617683E0,5.940983295E-1
1.275005818E1,1.511472911E-1,-9.787071228E0,6.006383300E-1
1.277032844E1,1.599167585E-1,-9.786417961E0,6.089681983E-1
1.279072844E1,1.675996035E-1,-9.785818100E0,6.164909601E-1
1.281086891E1,1.731630415E-1,-9.785452843E0,6.207413077E-1
1.283126891E1,1.782466620E-1,-9.785178185E0,6.236187816E-1
1.285140938E1,1.841682941E-1,-9.784735680E0,6.288228035E-1
1.287167959E1,1.892338842E-1,-9.784141541E0,6.365088224E-1
1.289194980E1,1.933631450E-1,-9.783547401E0,6.443526745E-1
1.291222006E1,1.971383989E-1,-9.782999039E0,6.515005231E-1
1.293245094E1,2.008232772E-1,-9.782418251E0,6.590400934E-1
1.295276042E1,2.044727951E-1,-9.781802177E0,6.670351624E-1
1.297303068E1,2.100497186E-1,-9.781108856E0,6.754093766E-1
1.299330089E1,2.162006944E-1,-9.780219078E0,6.862626076E-1
1.301357110E1,2.233184725E-1,-9.779063225E0,7.003049850E-1
1.303397110E1,2.295908481E-1,-9.777598381E0,7.185052037E-1
1.305411152E1,2.336309701E-1,-9.775979042E0,7.389455438E-1
1.307438178E1,2.377291471E-1,-9.774362564E0,7.587492466E-1
1.309465199E1,2.409586906E-1,-9.772940636E0,7.758517861E-1
1.311492219E1,2.435534447E-1,-9.771960258E0,7.873111367E-1
1.313519240E1,2.451495975E-1,-9.771331787E0,7.945761681E-1
1.315546261E1,2.478412688E-1,-9.770988464E0,7.979559302E-1
1.317573282E1,2.523200214E-1,-9.770564079E0,8.017509580E-1
1.319600303E1,2.566863000E-1,-9.770076752E0,8.062949777E-1
1.321627324E1,2.600651383E-1,-9.769438744E0,8.129232526E-1
1.323654344E1,2.628221214E-1,-9.768545151E0,8.227015734E-1
1.325681365E1,2.656149268E-1,-9.767486572E0,8.342942595E-1
1.327708381E1,2.662212551E-1,-9.766547203E0,8.450291753E-1
1.329735402E1,2.640429139E-1,-9.765964508E0,8.524203300E-1
1.331762412E1,2.609903216E-1,-9.765576363E0,8.577837348E-1
1.333789438E1,2.610367835E-1,-9.765024185E0,8.640323877E-1
1.335816459E1,2.649003863E-1,-9.764155388E0,8.726295233E-1
1.337843475E1,2.722427547E-1,-9.763093948E0,8.821989298E-1
1.339870496E1,2.816091478E-1,-9.762009621E0,8.912073374E-1
1.341897511E1,2.886665165E-1,-9.761046410E0,8.994664550E-1
1.343924532E1,2.918309271E-1,-9.760314941E0,9.063526392E-1
1.345951548E1,2.928571701E-1,-9.759872437E0,9.107756019E-1
1.347978563E1,2.941115201E-1,-9.759717941E0,9.120230675E-1
1.350005584E1,2.946823835E-1,-9.759767532E0,9.113084674E-1
1.352032600E1,2.946967185E-1,-9.759699821E0,9.120236039E-1
1.354059615E1,2.937005162E-1,-9.759276390E0,9.168658853E-1
1.356086636E1,2.925347984E-1,-9.758645058E0,9.239236116E-1
1.358113652E1,2.903270125E-1,-9.758152962E0,9.298126101E-1
1.360140667E1,2.877723873E-1,-9.757993698E0,9.322721362E-1
1.362167683E1,2.835455239E-1,-9.758104324E0,9.324065447E-1
1.364194699E1,2.772600353E-1,-9.758392334E0,9.312765002E-1
1.366221709E1,2.688838840E-1,-9.758737564E0,9.301323295E-1
1.368248730E1,2.605106235E-1,-9.758855820E0,9.312588573E-1
1.370275746E1,2.534868419E-1,-9.758742332E0,9.343884587E-1
1.372302761E1,2.496977448E-1,-9.758571625E0,9.371815920E-1
1.374329777E1,2.476128489E-1,-9.758628845E0,9.371445179E-1
1.376356792E1,2.475732565E-1,-9.758911133E0,9.342086911E-1
1.378383808E1,2.489260435E-1,-9.759409904E0,9.286238551E-1
1.380410824E1,2.504608035E-1,-9.760141373E0,9.204813242E-1
1.382437834E1,2.523714304E-1,-9.761107445E0,9.096571207E-1
1.384464850E1,2.538456619E-1,-9.762213707E0,8.972940445E-1
1.386491865E1,2.524518669E-1,-9.763107300E0,8.879143596E-1
1.388518881E1,2.508440018E-1,-9.763821602E0,8.804829121E-1
1.390545897E1,2.499122173E-1,-9.764636040E0,8.716823459E-1
1.392572907E1,2.488534451E-1,-9.765420914E0,8.631415367E-1
1.394599923E1,2.474221587E-1,-9.766019821E0,8.567553759E-1
1.396626938E1,2.472308129E-1,-9.766448021E0,8.519118428E-1
1.398653954E1,2.487868816E-1,-9.766714096E0,8.484011889E-1
1.400680964E1,2.509607673E-1,-9.766978264E0,8.447182775E-1
1.402707980E1,2.525924742E-1,-9.767400742E0,8.393234015E-1
1.404734990E1,2.530696690E-1,-9.767950058E0,8.327580094E-1
1.406762006E1,2.528050244E-1,-9.768333435E0,8.283298612E-1
1.408789016E1,2.516624629E-1,-9.768405914E0,8.278317451E-1
1.410816032E1,2.505813241E-1,-9.768339157E0,8.289359808E-1
1.412856032E1,2.497305423E-1,-9.768430710E0,8.281163573E-1
1.414870058E1,2.489383668E-1,-9.768718719E0,8.249537349E-1
1.416897068E1,2.470082343E-1,-9.769126892E0,8.206962347E-1
1.418924084E1,2.431325167E-1,-9.769575119E0,8.164972067E-1
1.420951094E1,2.388654351E-1,-9.769960403E0,8.131436706E-1
1.422991094E1,2.360145301E-1,-9.770316124E0,8.096982837E-1
1.425005126E1,2.327923030E-1,-9.770553589E0,8.077620864E-1
1.427032136E1,2.297735810E-1,-9.770693779E0,8.069282174E-1
1.429059146E1,2.261326462E-1,-9.770826340E0,8.063645363E-1
1.431086162E1,2.228873819E-1,-9.771058083E0,8.044399619E-1
1.433126162E1,2.189908773E-1,-9.771270752E0,8.029270172E-1
1.435140188E1,2.128774524E-1,-9.771385193E0,8.031774759E-1
1.437167199E1,2.078283280E-1,-9.771484375E0,8.033041954E-1
1.439194214E1,2.018412650E-1,-9.771819115E0,8.007447720E-1
1.441221225E1,1.952176243E-1,-9.772394180E0,7.953491211E-1
1.443261225E1,1.879276484E-1,-9.773169518E0,7.875393629E-1
1.445275251E1,1.803866774E-1,-9.773965836E0,7.793806791E-1
1.447302261E1,1.731864363E-1,-9.774778366E0,7.707892060E-1
1.449329277E1,1.656311601E-1,-9.775619507E0,7.617190480E-1
1.451356287E1,1.574686319E-1,-9.776487350E0,7.522476315E-1
1.453383298E1,1.487243772E-1,-9.777340889E0,7.428721189E-1
1.455410313E1,1.402832568E-1,-9.778076172E0,7.347937822E-1
1.457437324E1,1.328132600E-1,-9.778485298E0,7.307388783E-1
1.459464334E1,1.254549026E-1,-9.778776169E0,7.281325459E-1
1.461491350E1,1.179062054E-1,-9.779012680E0,7.262276411E-1
1.463518360E1,1.110455170E-1,-9.779174805E0,7.251231074E-1
1.465545371E1,1.052542403E-1,-9.779274940E0,7.246281505E-1
1.467584266E1,9.921527654E-2,-9.779290199E0,7.252835035E-1
1.469599397E1,9.142807126E-2,-9.779252052E0,7.268303633E-1
1.471626407E1,8.167266846E-2,-9.779304504E0,7.272684574E-1
1.473653417E1,7.059140503E-2,-9.779600143E0,7.244448662E-1
1.475680433E1,5.872296542E-2,-9.780106544E0,7.186476588E-1
1.477707443E1,4.816689342E-2,-9.780871391E0,7.089591622E-1
1.479734454E1,3.920467570E-2,-9.781691551E0,6.981161237E-1
1.481761469E1,3.293474764E-2,-9.782487869E0,6.871933937E-1
1.483788480E1,3.104552999E-2,-9.783226967E0,6.766838431E-1
1.485815490E1,3.406019881E-2,-9.783817291E0,6.679434180E-1
1.487842501E1,3.856191039E-2,-9.784328461E0,6.601707339E-1
1.489869516E1,4.482980072E-2,-9.784655571E0,6.548986435E-1
1.491896527E1,5.488024279E-2,-9.784764290E0,6.525090337E-1
1.493923537E1,6.614898890E-2,-9.784812927E0,6.507275701E-1
1.495950548E1,7.624441385E-2,-9.784997940E0,6.468188167E-1
1.497977558E1,8.452673256E-2,-9.785208702E0,6.425974965E-1
1.500004563E1,8.970103413E-2,-9.785355568E0,6.396583915E-1
1.502031584E1,9.321422875E-2,-9.785296440E0,6.400555968E-1
1.504058594E1,9.689050913E-2,-9.785001755E0,6.439931989E-1
1.506085605E1,9.762412310E-2,-9.784526825E0,6.510750651E-1
1.508112615E1,9.378366172E-2,-9.783884048E0,6.612144113E-1
1.510139626E1,8.540996909E-2,-9.783293724E0,6.710011959E-1
1.512166631E1,7.278326154E-2,-9.783214569E0,6.736446023E-1
1.514193646E1,6.031673402E-2,-9.784049988E0,6.626545191E-1
1.516220657E1,5.371158198E-2,-9.785616875E0,6.396895647E-1
1.518247667E1,5.089922994E-2,-9.787136078E0,6.162527204E-1
1.520274678E1,5.318134278E-2,-9.787728310E0,6.065785289E-1
1.522301688E1,6.139781326E-2,-9.787628174E0,6.074219942E-1
1.524328699E1,7.939965278E-2,-9.787677765E0,6.045160294E-1
1.526355709E1,1.090855822E-1,-9.788578033E0,5.850144625E-1
1.528382714E1,1.380184740E-1,-9.790085793E0,5.527819395E-1
1.530409725E1,1.594041586E-1,-9.791259766E0,5.255596638E-1
1.532436735E1,1.708695889E-1,-9.791284561E0,5.214695930E-1
1.534463746E1,1.734616905E-1,-9.790184021E0,5.409008265E-1
1.536490756E1,1.732923537E-1,-9.788934708E0,5.631234050E-1
1.538517766E1,1.711393744E-1,-9.788266182E0,5.752797723E-1
1.540544772E1,1.642721146E-1,-9.788145065E0,5.793323517E-1
1.542571782E1,1.528336108E-1,-9.788203239E0,5.814697146E-1
1.544598792E1,1.392839998E-1,-9.788446426E0,5.807890892E-1
1.546625803E1,1.252093017E-1,-9.789055824E0,5.736607909E-1
1.548652808E1,1.136669442E-1,-9.789818764E0,5.629630089E-1
1.550679818E1,1.056990474E-1,-9.790497780E0,5.525999069E-1
1.552706829E1,1.024626270E-1,-9.790892601E0,5.461667180E-1
1.554733834E1,1.029577181E-1,-9.791048050E0,5.433009863E-1
1.556760844E1,1.065941602E-1,-9.791105270E0,5.415591598E-1
1.558787855E1,1.122937948E-1,-9.791189194E0,5.388613939E-1
1.560814860E1,1.194922626E-1,-9.791223526E0,5.366975665E-1
1.562854860E1,1.256627291E-1,-9.791219711E0,5.353591442E-1
1.564868876E1,1.273026764E-1,-9.791293144E0,5.336124897E-1
1.566895886E1,1.242270172E-1,-9.791522026E0,5.301488042E-1
1.568922891E1,1.192599759E-1,-9.791980743E0,5.227699876E-1
1.570949902E1,1.153915301E-1,-9.792656898E0,5.108092427E-1
1.572989902E1,1.138722152E-1,-9.793283463E0,4.990132451E-1
1.575003917E1,1.141093448E-1,-9.793634415E0,4.920224845E-1
1.577030917E1,1.147664785E-1,-9.793675423E0,4.910574853E-1
1.579057933E1,1.153078452E-1,-9.793600082E0,4.924433827E-1
1.581084938E1,1.157160029E-1,-9.793666840E0,4.910099208E-1
1.583124938E1,1.152678505E-1,-9.793886185E0,4.867078960E-1
1.585138954E1,1.144282445E-1,-9.794271469E0,4.791177809E-1
1.587165959E1,1.127979159E-1,-9.794680595E0,4.710880518E-1
1.589192964E1,1.108184755E-1,-9.795045853E0,4.638830423E-1
1.591219969E1,1.081038937E-1,-9.795380592E0,4.574124217E-1
1.593243042E1,1.032675579E-1,-9.795679092E0,4.521082044E-1
1.595273980E1,9.676759690E-2,-9.795880318E0,4.491723478E-1
1.597300985E1,8.873093128E-2,-9.796008110E0,4.480183125E-1
1.599327990E1,8.078370243E-2,-9.796095848E0,4.476175904E-1
1.601354996E1,7.434032112E-2,-9.796202660E0,4.464026093E-1
1.603394996E1,6.881707162E-2,-9.796241760E0,4.464266002E-1
1.605409011E1,6.526989490E-2,-9.796195030E0,4.479924142E-1
1.607436022E1,6.348783523E-2,-9.796132088E0,4.496292770E-1
1.609463027E1,6.365071982E-2,-9.796023369E0,4.519331157E-1
1.611490032E1,6.416387111E-2,-9.795900345E0,4.545223117E-1
1.613530032E1,6.230023876E-2,-9.795788765E0,4.572135806E-1
1.615544042E1,5.752208829E-2,-9.795879364E0,4.558996260E-1
1.617571042E1,5.253134668E-2,-9.796234131E0,4.487977624E-1
1.619598053E1,4.829099774E-2,-9.796764374E0,4.375441670E-1
1.621625053E1,4.467327893E-2,-9.797256470E0,4.268046319E-1
1.623652058E1,4.102277383E-2,-9.797639847E0,4.183103442E-1
1.625679063E1,3.894477338E-2,-9.797865868E0,4.131473899E-1
1.627706068E1,3.802612051E-2,-9.797892570E0,4.125852883E-1
1.629733074E1,3.763889894E-2,-9.797798157E0,4.148756564E-1
1.631760079E1,3.863644600E-2,-9.797669411E0,4.178234637E-1
1.633787084E1,4.104671627E-2,-9.797559738E0,4.201554656E-1
1.635814084E1,4.317662492E-2,-9.797487259E0,4.216092825E-1
1.637841089E1,4.338661581E-2,-9.797454834E0,4.223733544E-1
1.639868094E1,4.162834585E-2,-9.797489166E0,4.217359424E-1
1.641895094E1,3.778903559E-2,-9.797587395E0,4.198255837E-1
1.643922100E1,3.651373833E-2,-9.797748566E0,4.161349535E-1
1.645949105E1,3.889330849E-2,-9.797959328E0,4.109290242E-1
1.647976105E1,4.162817076E-2,-9.798171997E0,4.055598676E-1
1.650003110E1,4.330917448E-2,-9.798283577E0,4.026715159E-1
1.652030110E1,4.186513647E-2,-9.798288345E0,4.027085602E-1
1.654057115E1,3.793331236E-2,-9.798223495E0,4.046755433E-1
1.656084115E1,3.525518626E-2,-9.798136711E0,4.070142806E-1
1.658111121E1,3.446673602E-2,-9.798015594E0,4.099908173E-1
1.660138121E1,3.661930189E-2,-9.797931671E0,4.117940068E-1
1.662165121E1,3.981313109E-2,-9.797870636E0,4.129784107E-1
1.664192121E1,4.133420438E-2,-9.797928810E0,4.114302397E-1
1.666219126E1,4.074869677E-2,-9.798106194E0,4.072490633E-1
1.668246126E1,3.789686412E-2,-9.798392296E0,4.005924463E-1
1.670273126E1,3.530429304E-2,-9.798686981E0,3.935699761E-1
1.672300131E1,3.304385021E-2,-9.798900604E0,3.883946240E-1
1.674327131E1,3.141184151E-2,-9.798998833E0,3.860343993E-1
1.676354131E1,2.995637991E-2,-9.798913002E0,3.883330822E-1
1.678381131E1,2.795817330E-2,-9.798742294E0,3.927495182E-1
1.680408131E1,2.605787292E-2,-9.798644066E0,3.953193128E-1
1.682435131E1,2.278184146E-2,-9.798662186E0,3.950787187E-1
1.684462131E1,2.029642463E-2,-9.798707962E0,3.940855563E-1
1.686489131E1,1.860276051E-2,-9.798760414E0,3.928644657E-1
1.688516131E1,1.738904975E-2,-9.798827171E0,3.912346661E-1
1.690543131E1,1.545491256E-2,-9.798899651E0,3.895238638E-1
1.692582006E1,1.223001629E-2,-9.799060822E0,3.855498433E-1
1.694597131E1,8.192795329E-3,-9.799269676E0,3.803097308E-1
1.696624126E1,4.814341199E-3,-9.799438477E0,3.759996295E-1
1.698651126E1,3.287832253E-3,-9.799524307E0,3.737726212E-1
1.700678126E1,1.906165504E-3,-9.799505234E0,3.742507696E-1
1.702705126E1,1.274537761E-3,-9.799427032E0,3.763200939E-1
1.704732120E1,8.398216451E-4,-9.799368858E0,3.778198957E-1
1.706759120E1,-9.365667938E-4,-9.799392700E0,3.772090375E-1
1.708786120E1,-3.017007839E-3,-9.799428940E0,3.762611747E-1
1.710813115E1,-4.451555200E-3,-9.799433708E0,3.761298954E-1
1.712853115E1,-4.467039369E-3,-9.799432755E0,3.761504889E-1
1.714867115E1,-3.943279386E-3,-9.799417496E0,3.765648901E-1
1.716894110E1,-4.649379291E-3,-9.799372673E0,3.776968122E-1
1.718921110E1,-6.618499290E-3,-9.799409866E0,3.767027557E-1
1.720948105E1,-9.498025291E-3,-9.799510956E0,3.740263283E-1
1.722988105E1,-1.292162016E-2,-9.799595833E0,3.716611862E-1
1.725002100E1,-1.720849611E-2,-9.799613953E0,3.710324466E-1
1.727042100E1,-2.123472467E-2,-9.799576759E0,3.717901409E-1
1.729056094E1,-2.611536533E-2,-9.799453735E0,3.747063279E-1
1.731083094E1,-3.248468414E-2,-9.799318314E0,3.777486086E-1
1.733123094E1,-3.788740933E-2,-9.799202919E0,3.802154362E-1
1.735137084E1,-4.232307523E-2,-9.799118042E0,3.819447160E-1
1.737164079E1,-4.563516378E-2,-9.799009323E0,3.843462765E-1
1.739191079E1,-4.759854451E-2,-9.798827171E0,3.887379766E-1
1.741218074E1,-4.872575030E-2,-9.798666000E0,3.926430047E-1
1.743258074E1,-4.957358167E-2,-9.798545837E0,3.955284953E-1
1.745272068E1,-5.285001174E-2,-9.798436165E0,3.977766037E-1
1.747299063E1,-5.708898604E-2,-9.798366547E0,3.989253640E-1
1.749326058E1,-5.995788425E-2,-9.798441887E0,3.966476023E-1
1.751353053E1,-5.951758474E-2,-9.798670769E0,3.910385370E-1
1.753380048E1,-5.819962174E-2,-9.798906326E0,3.852667212E-1
1.755407042E1,-5.724999681E-2,-9.799060822E0,3.814814985E-1
1.757434037E1,-5.834352598E-2,-9.799026489E0,3.821882308E-1
1.759461032E1,-6.077568233E-2,-9.798854828E0,3.861891329E-1
1.761488027E1,-6.540017575E-2,-9.798596382E0,3.919423521E-1
1.763515022E1,-6.892380863E-2,-9.798378944E0,3.967538178E-1
1.765542016E1,-7.097639889E-2,-9.798116684E0,4.028213024E-1
1.767569011E1,-7.217243314E-2,-9.797860146E0,4.088086784E-1
1.769596006E1,-7.279884815E-2,-9.797659874E0,4.134767354E-1
1.771623001E1,-7.376305014E-2,-9.797551155E0,4.158673286E-1
1.773649996E1,-7.647400349E-2,-9.797502518E0,4.165271223E-1
1.775677042E1,-7.959654927E-2,-9.797575951E0,4.142064750E-1
1.777703985E1,-8.099511266E-2,-9.797703743E0,4.109031558E-1
1.779730975E1,-8.091653883E-2,-9.797819138E0,4.081263840E-1
1.781757969E1,-8.020474762E-2,-9.797901154E0,4.062938690E-1
1.783784964E1,-7.901914418E-2,-9.797802925E0,4.088884592E-1
1.785811954E1,-7.888032496E-2,-9.797622681E0,4.132217765E-1
1.787838949E1,-8.057308942E-2,-9.797385216E0,4.185025692E-1
1.789865943E1,-8.188383281E-2,-9.797173500E0,4.231839776E-1
1.791892933E1,-8.258160949E-2,-9.796989441E0,4.272763133E-1
1.793919928E1,-8.220438659E-2,-9.796920776E0,4.289291799E-1
1.795959928E1,-8.224372566E-2,-9.796862602E0,4.302561879E-1
1.797973912E1,-8.237963915E-2,-9.796837807E0,4.307642579E-1
1.800000907E1,-8.387915790E-2,-9.796761513E0,4.322426617E-1
1.802027897E1,-8.503677696E-2,-9.796669960E0,4.340684712E-1
1.804054886E1,-8.534387499E-2,-9.796607971E0,4.354172647E-1
1.806081881E1,-8.495787531E-2,-9.796564102E0,4.364701807E-1
1.808108871E1,-8.398352563E-2,-9.796453476E0,4.391391575E-1
1.810135860E1,-8.186303824E-2,-9.796327591E0,4.423143268E-1
1.812162855E1,-8.138728887E-2,-9.796156883E0,4.461715519E-1
1.814189844E1,-8.374005556E-2,-9.795973778E0,4.497501850E-1
1.816216834E1,-8.744785935E-2,-9.795840263E0,4.519276321E-1
1.818243829E1,-8.897516131E-2,-9.795794487E0,4.526213109E-1
1.820270818E1,-8.668810129E-2,-9.795860291E0,4.516443312E-1
1.822297808E1,-8.207993209E-2,-9.795956612E0,4.504216909E-1
1.824324798E1,-7.911853492E-2,-9.795942307E0,4.512454569E-1
1.826351787E1,-7.782918960E-2,-9.795863152E0,4.532197714E-1
1.828378777E1,-7.884340733E-2,-9.795804977E0,4.542971253E-1
1.830405772E1,-8.036245406E-2,-9.795832634E0,4.534087479E-1
1.832432761E1,-8.219184726E-2,-9.795831680E0,4.531270564E-1
1.834459751E1,-8.487688005E-2,-9.795753479E0,4.542994797E-1
1.836486735E1,-8.807898313E-2,-9.795607567E0,4.568287730E-1
1.838513730E1,-9.087893367E-2,-9.795454025E0,4.595690072E-1
1.840540719E1,-9.305001050E-2,-9.795364380E0,4.610575438E-1
1.842567709E1,-9.285912663E-2,-9.795325279E0,4.619253576E-1
1.844594693E1,-9.217428416E-2,-9.795258522E0,4.634673297E-1
1.846621683E1,-9.111998975E-2,-9.795074463E0,4.675550461E-1
1.848648673E1,-9.028764069E-2,-9.794912338E0,4.710848033E-1
1.850675662E1,-8.967115730E-2,-9.794892311E0,4.716288447E-1
1.852702652E1,-9.045118093E-2,-9.794931412E0,4.706501961E-1
1.854729641E1,-9.138406813E-2,-9.794976234E0,4.695579112E-1
1.856768506E1,-9.093064070E-2,-9.795015335E0,4.688103199E-1
1.858783615E1,-8.764834702E-2,-9.795098305E0,4.677068293E-1
1.860810605E1,-8.578526229E-2,-9.795101166E0,4.679904282E-1
1.862850605E1,-8.616144210E-2,-9.794953346E0,4.710046649E-1
1.864864579E1,-8.908669651E-2,-9.794717789E0,4.753457904E-1
1.866891563E1,-9.453461319E-2,-9.794498444E0,4.788028896E-1
1.868918553E1,-9.837946296E-2,-9.794408798E0,4.798620939E-1
1.870945537E1,-1.005137041E-1,-9.794380188E0,4.800010622E-1
1.872985537E1,-1.008725688E-1,-9.794351578E0,4.805079401E-1
1.874999511E1,-1.017471775E-1,-9.794218063E0,4.830482304E-1
1.877026501E1,-1.039111689E-1,-9.794008255E0,4.868143201E-1
1.879053485E1,-1.067860276E-1,-9.793896675E0,4.884270132E-1
1.881080475E1,-1.096661985E-1,-9.793957710E0,4.865717590E-1
1.883120475E1,-1.114379168E-1,-9.794081688E0,4.836778641E-1
1.885134443E1,-1.118607074E-1,-9.794152260E0,4.821393490E-1
1.887161433E1,-1.106260195E-1,-9.794195175E0,4.815590084E-1
1.889188417E1,-1.095873788E-1,-9.794203758E0,4.816025794E-1
1.891215402E1,-1.092976630E-1,-9.794128418E0,4.832091630E-1
1.893255402E1,-1.085718200E-1,-9.794062614E0,4.846940637E-1
1.895269376E1,-1.081793159E-1,-9.794035912E0,4.853264093E-1
1.897296360E1,-1.071961373E-1,-9.793989182E0,4.864874482E-1
1.899323350E1,-1.055696979E-1,-9.793942451E0,4.877916276E-1
1.901350334E1,-1.038663536E-1,-9.793891907E0,4.891732931E-1
1.903390334E1,-1.028953269E-1,-9.793858528E0,4.900496006E-1
1.905404303E1,-1.020367816E-1,-9.793888092E0,4.896166623E-1
1.907431287E1,-1.028628126E-1,-9.793868065E0,4.898436964E-1
1.909458272E1,-1.035968512E-1,-9.793840408E0,4.902560115E-1
1.911485261E1,-1.028829068E-1,-9.793805122E0,4.911036491E-1
1.913512246E1,-1.032333076E-1,-9.793766022E0,4.918233454E-1
1.915539230E1,-1.056386977E-1,-9.793566704E0,4.952432513E-1
1.917574084E1,-1.093627661E-1,-9.793399811E0,4.977403879E-1
1.919593209E1,-1.120471805E-1,-9.793360710E0,4.979245067E-1
1.921620193E1,-1.123636514E-1,-9.793484688E0,4.954144657E-1
1.923647178E1,-1.108322144E-1,-9.793513298E0,4.951932132E-1
1.925674157E1,-1.082226411E-1,-9.793497086E0,4.960730076E-1
1.927701146E1,-1.059900001E-1,-9.793398857E0,4.984791279E-1
1.929728131E1,-1.064031720E-1,-9.793208122E0,5.021469593E-1
1.931755115E1,-1.090657115E-1,-9.792927742E0,5.070226789E-1
1.933782094E1,-1.118692383E-1,-9.792779922E0,5.092503428E-1
1.935809084E1,-1.142685041E-1,-9.792779922E0,5.086964965E-1
1.937836068E1,-1.169542149E-1,-9.792798996E0,5.077262521E-1
1.939863048E1,-1.188288108E-1,-9.792748451E0,5.082780719E-1
1.941890032E1,-1.196037084E-1,-9.792678833E0,5.094432831E-1
1.943917016E1,-1.197646484E-1,-9.792585373E0,5.111992955E-1
1.945944001E1,-1.195638552E-1,-9.792454720E0,5.137182474E-1
1.947970985E1,-1.198452041E-1,-9.792279243E0,5.170051455E-1
1.949997969E1,-1.203036457E-1,-9.792079926E0,5.206590295E-1
1.952024954E1,-1.210069433E-1,-9.791922569E0,5.234587193E-1
1.954051938E1,-1.218423098E-1,-9.791895866E0,5.237402916E-1
1.956078923E1,-1.222371757E-1,-9.791924477E0,5.231304169E-1
1.958105907E1,-1.211561784E-1,-9.792057991E0,5.208685994E-1
1.960132891E1,-1.207556203E-1,-9.792195320E0,5.183867812E-1
1.962159876E1,-1.209413931E-1,-9.792238235E0,5.175315738E-1
1.964186860E1,-1.195880175E-1,-9.792243958E0,5.177288651E-1
1.966213844E1,-1.181723252E-1,-9.792149544E0,5.198346376E-1
1.968240829E1,-1.176640540E-1,-9.792015076E0,5.224964619E-1
1.970267813E1,-1.171725020E-1,-9.791852951E0,5.256157517E-1
1.972294798E1,-1.186084524E-1,-9.791790009E0,5.264601111E-1
1.974321777E1,-1.198327169E-1,-9.791769028E0,5.265910029E-1
1.976348766E1,-1.206996664E-1,-9.791716576E0,5.273709893E-1
1.978375751E1,-1.202165931E-1,-9.791580200E0,5.299964547E-1
1.980402730E1,-1.176479161E-1,-9.791484833E0,5.323449373E-1
1.982429714E1,-1.146157011E-1,-9.791416168E0,5.342631340E-1
1.984456699E1,-1.134204566E-1,-9.791336060E0,5.359579325E-1
1.986483683E1,-1.144665629E-1,-9.791265488E0,5.370255113E-1
1.988510667E1,-1.155007854E-1,-9.791319847E0,5.358064175E-1
1.990537652E1,-1.161669493E-1,-9.791462898E0,5.330704451E-1
1.992564636E1,-1.162214950E-1,-9.791591644E0,5.306773782E-1
1.994591620E1,-1.167463735E-1,-9.791605949E0,5.302962065E-1
1.996618605E1,-1.174665913E-1,-9.791567802E0,5.308403969E-1
1.998645589E1,-1.191636696E-1,-9.791466713E0,5.323320627E-1
2.000672574E1,-1.201362014E-1,-9.791312218E0,5.349453688E-1
2.002699558E1,-1.210078299E-1,-9.791148186E0,5.377355218E-1
2.004726542E1,-1.210040003E-1,-9.791017532E0,5.401165485E-1
2.006753527E1,-1.202120259E-1,-9.790886879E0,5.426399708E-1
2.008780511E1,-1.202154830E-1,-9.790850639E0,5.433027744E-1
2.010807496E1,-1.209594980E-1,-9.790890694E0,5.424091220E-1
2.012847496E1,-1.230076849E-1,-9.790964127E0,5.406333804E-1
2.014861464E1,-1.248995438E-1,-9.790967941E0,5.401248932E-1
2.016888449E1,-1.239273623E-1,-9.791007042E0,5.396293402E-1
2.018915433E1,-1.228197515E-1,-9.791063309E0,5.388841629E-1
2.020942417E1,-1.237716898E-1,-9.791004181E0,5.397278666E-1
2.022982417E1,-1.258333027E-1,-9.790798187E0,5.429717898E-1
2.024996386E1,-1.305315197E-1,-9.790615082E0,5.451731086E-1
2.027023371E1,-1.355109960E-1,-9.790489197E0,5.462188721E-1
2.029050360E1,-1.385537535E-1,-9.790419579E0,5.466898084E-1
2.031077344E1,-1.382344067E-1,-9.790333748E0,5.483065248E-1
2.033117344E1,-1.351688355E-1,-9.790287018E0,5.499085188E-1
2.035131313E1,-1.320610046E-1,-9.790233612E0,5.516240597E-1
2.037158298E1,-1.306357533E-1,-9.790171623E0,5.530391335E-1
2.039185282E1,-1.320508122E-1,-9.790163040E0,5.528661013E-1
2.041212266E1,-1.344530135E-1,-9.790228844E0,5.511180758E-1
2.043252266E1,-1.373179108E-1,-9.790342331E0,5.483720303E-1
2.045266235E1,-1.373933256E-1,-9.790562630E0,5.444329381E-1
2.047293219E1,-1.377904564E-1,-9.790622711E0,5.432237387E-1
2.049320209E1,-1.385591179E-1,-9.790547371E0,5.443948507E-1
2.051347193E1,-1.391325891E-1,-9.790433884E0,5.462957621E-1
2.053374178E1,-1.390763372E-1,-9.790366173E0,5.475201607E-1
2.055401162E1,-1.380575001E-1,-9.790328026E0,5.484713316E-1
2.057428147E1,-1.372126639E-1,-9.790262222E0,5.498387218E-1
2.059455131E1,-1.364990026E-1,-9.790191650E0,5.512690544E-1
2.061482115E1,-1.364141256E-1,-9.790154457E0,5.519586205E-1
2.063522115E1,-1.367573589E-1,-9.790189743E0,5.512460470E-1
2.065536084E1,-1.374051571E-1,-9.790205002E0,5.508174300E-1
2.067563068E1,-1.388195604E-1,-9.790204048E0,5.504664779E-1
2.069590053E1,-1.388586760E-1,-9.790298462E0,5.487831831E-1
2.071617042E1,-1.369343400E-1,-9.790359497E0,5.481817722E-1
2.073644027E1,-1.371571720E-1,-9.790274620E0,5.496357083E-1
2.075671011E1,-1.392681897E-1,-9.790037155E0,5.533111095E-1
2.077697996E1,-1.421594620E-1,-9.789781570E0,5.570857525E-1
2.079724980E1,-1.438668817E-1,-9.789756775E0,5.570874214E-1
2.081751964E1,-1.428593248E-1,-9.789848328E0,5.557337999E-1
2.083778949E1,-1.410228759E-1,-9.789871216E0,5.558137894E-1
2.085805933E1,-1.392022222E-1,-9.789812088E0,5.572999716E-1
2.087832917E1,-1.375565976E-1,-9.789761543E0,5.586014986E-1
2.089859902E1,-1.384508461E-1,-9.789688110E0,5.596473217E-1
2.091886886E1,-1.397848278E-1,-9.789650917E0,5.599763989E-1
2.093913870E1,-1.404535174E-1,-9.789673805E0,5.594057441E-1
2.095940855E1,-1.399787664E-1,-9.789684296E0,5.593581796E-1
2.097967839E1,-1.401934028E-1,-9.789673805E0,5.594777465E-1
2.099994824E1,-1.396254599E-1,-9.789675713E0,5.595867038E-1
2.102021808E1,-1.394235939E-1,-9.789623260E0,5.605492592E-1
2.104048792E1,-1.391334832E-1,-9.789555550E0,5.618013740E-1
2.106075777E1,-1.374618709E-1,-9.789530754E0,5.626426339E-1
2.108102761E1,-1.361058801E-1,-9.789463997E0,5.641525984E-1
2.110129746E1,-1.353086680E-1,-9.789336205E0,5.665360093E-1
2.112156730E1,-1.352690011E-1,-9.789202690E0,5.688562393E-1
2.114183714E1,-1.355347037E-1,-9.789099693E0,5.705597401E-1
2.116210699E1,-1.351714879E-1,-9.789081573E0,5.709599257E-1
2.118237683E1,-1.347661912E-1,-9.789125443E0,5.703020096E-1
2.120264667E1,-1.344996095E-1,-9.789235115E0,5.684887767E-1
2.122291652E1,-1.324279159E-1,-9.789333344E0,5.672861934E-1
2.124318636E1,-1.277672052E-1,-9.789461136E0,5.661351085E-1
2.126345620E1,-1.248344555E-1,-9.789431572E0,5.672940016E-1
2.128372600E1,-1.241802052E-1,-9.789222717E0,5.710234642E-1
2.130399589E1,-1.264988929E-1,-9.788947105E0,5.752550960E-1
2.132426568E1,-1.299897581E-1,-9.788851738E0,5.760841370E-1
2.134453553E1,-1.324259043E-1,-9.788957596E0,5.737127066E-1
2.136480537E1,-1.322279125E-1,-9.789127350E0,5.708598495E-1
2.138507522E1,-1.285203248E-1,-9.789313316E0,5.685063004E-1
2.140534506E1,-1.220536008E-1,-9.789489746E0,5.669084787E-1
2.142565423E1,-1.165308952E-1,-9.789513588E0,5.676521659E-1
2.144588480E1,-1.135889664E-1,-9.789381027E0,5.705270171E-1
2.146615464E1,-1.128284037E-1,-9.789228439E0,5.732800364E-1
2.148642449E1,-1.135244220E-1,-9.789228439E0,5.731459260E-1
2.150669428E1,-1.136630848E-1,-9.789376259E0,5.705974698E-1
2.152696417E1,-1.134576723E-1,-9.789574623E0,5.672298670E-1
2.154723391E1,-1.124482900E-1,-9.789740562E0,5.645710230E-1
2.156750381E1,-1.116256043E-1,-9.789846420E0,5.628771186E-1
2.158777360E1,-1.105607748E-1,-9.789945602E0,5.613793135E-1
2.160804344E1,-1.098453999E-1,-9.789920807E0,5.619332194E-1
2.162844344E1,-1.081941873E-1,-9.789892197E0,5.627637506E-1
2.164858313E1,-1.067125127E-1,-9.789855957E0,5.636609197E-1
2.166885298E1,-1.067000553E-1,-9.789775848E0,5.650604367E-1
2.168912282E1,-1.065267846E-1,-9.789840698E0,5.639688373E-1
2.170939261E1,-1.062824503E-1,-9.790045738E0,5.604462028E-1
2.172979261E1,-1.061121672E-1,-9.790283203E0,5.563174486E-1
2.174993230E1,-1.060290858E-1,-9.790538788E0,5.518109202E-1
2.177020214E1,-1.034478918E-1,-9.790800095E0,5.476571321E-1
2.179047199E1,-1.004733443E-1,-9.790932655E0,5.458270907E-1
2.181074183E1,-9.828349203E-2,-9.790942192E0,5.460527539E-1
2.183114183E1,-9.713165462E-2,-9.790860176E0,5.477248430E-1
2.185128147E1,-9.846744686E-2,-9.790825844E0,5.481060743E-1
2.187155131E1,-9.984217584E-2,-9.790959358E0,5.454808474E-1
2.189182115E1,-1.007873937E-1,-9.791131020E0,5.421895981E-1
2.191209100E1,-9.998160601E-2,-9.791335106E0,5.386714935E-1
2.193249100E1,-9.800200909E-2,-9.791527748E0,5.355073810E-1
2.195263063E1,-9.492141753E-2,-9.791658401E0,5.336703658E-1
2.197290048E1,-9.220188856E-2,-9.791710854E0,5.331743360E-1
2.199317032E1,-9.137340635E-2,-9.791769028E0,5.322553515E-1
2.201344016E1,-9.144481272E-2,-9.791901588E0,5.298138261E-1
2.203384016E1,-9.154243767E-2,-9.792049408E0,5.270665884E-1
2.205397980E1,-9.111002833E-2,-9.792162895E0,5.250123739E-1
2.207424964E1,-9.088586271E-2,-9.792262077E0,5.232007504E-1
2.209451949E1,-9.026885778E-2,-9.792367935E0,5.213158131E-1
2.211478933E1,-8.925732225E-2,-9.792490005E0,5.191836953E-1
2.213505912E1,-8.698539436E-2,-9.792600632E0,5.174916983E-1
2.215532897E1,-8.497221768E-2,-9.792673111E0,5.164533257E-1
2.217559881E1,-8.201244473E-2,-9.792777061E0,5.149599910E-1
2.219586860E1,-7.893351465E-2,-9.792845726E0,5.141302347E-1
2.221613844E1,-7.795085013E-2,-9.792879105E0,5.136406422E-1
2.223640829E1,-7.785183191E-2,-9.792910576E0,5.130611658E-1
2.225667813E1,-7.747451961E-2,-9.793036461E0,5.106956959E-1
2.227694798E1,-7.705123723E-2,-9.793231964E0,5.070155859E-1
2.229721777E1,-7.581305504E-2,-9.793420792E0,5.035305023E-1
2.231748761E1,-7.336764783E-2,-9.793516159E0,5.020537972E-1
2.233775746E1,-7.119681686E-2,-9.793552399E0,5.016385913E-1
2.235802725E1,-6.989938021E-2,-9.793576241E0,5.013533235E-1
2.237829709E1,-7.038520277E-2,-9.793607712E0,5.006850958E-1
2.239856693E1,-7.372088730E-2,-9.793634415E0,4.996746182E-1
2.241883678E1,-7.789462060E-2,-9.793656349E0,4.986096919E-1
2.243910657E1,-7.978956401E-2,-9.793748856E0,4.965028167E-1
2.245937641E1,-7.848586142E-2,-9.793828011E0,4.951418638E-1
2.247964626E1,-7.532377541E-2,-9.793882370E0,4.945587218E-1
2.249991610E1,-7.239448279E-2,-9.793834686E0,4.959437251E-1
2.252018594E1,-7.164922357E-2,-9.793807030E0,4.965820014E-1
2.254045574E1,-7.251285017E-2,-9.793840408E0,4.958162904E-1
2.256072558E1,-7.452204078E-2,-9.793985367E0,4.926410615E-1
2.258099542E1,-7.783745229E-2,-9.794067383E0,4.904683530E-1
2.260126522E1,-8.030030876E-2,-9.794113159E0,4.891615808E-1
2.262153506E1,-8.185680956E-2,-9.794135094E0,4.884644151E-1
2.264180490E1,-8.268895000E-2,-9.794131279E0,4.884180427E-1
2.266207475E1,-8.334589005E-2,-9.794114113E0,4.886368513E-1
2.268234454E1,-8.417977393E-2,-9.794080734E0,4.891832173E-1
2.270261438E1,-8.456354588E-2,-9.794049263E0,4.897382855E-1
2.272288423E1,-8.472155780E-2,-9.794044495E0,4.898077250E-1
2.274315407E1,-8.483620733E-2,-9.794062614E0,4.894033372E-1
2.276342391E1,-8.599482477E-2,-9.794073105E0,4.890144765E-1
2.278369376E1,-8.728671819E-2,-9.794092178E0,4.883854389E-1
2.280396355E1,-8.937132359E-2,-9.794126511E0,4.873180687E-1
2.282423339E1,-9.219696373E-2,-9.794125557E0,4.868168235E-1
2.284450324E1,-9.402184188E-2,-9.794137001E0,4.862261415E-1
2.286477308E1,-9.423274547E-2,-9.794218063E0,4.845427871E-1
2.288504292E1,-9.490428865E-2,-9.794323921E0,4.822859168E-1
2.290531272E1,-9.630902857E-2,-9.794290543E0,4.826874435E-1
2.292558256E1,-9.948243201E-2,-9.794145584E0,4.849707782E-1
2.294585240E1,-1.033042744E-1,-9.794038773E0,4.863338768E-1
2.296612225E1,-1.059305519E-1,-9.794019699E0,4.861290753E-1
2.298639209E1,-1.061550602E-1,-9.794039726E0,4.856997728E-1
2.300666193E1,-1.041136086E-1,-9.794112206E0,4.846692681E-1
2.302693178E1,-1.022320390E-1,-9.794123650E0,4.848431349E-1
2.304720157E1,-1.024430469E-1,-9.793990135E0,4.874926209E-1
2.306760157E1,-1.050996408E-1,-9.793818474E0,4.903655350E-1
2.308774126E1,-1.086969376E-1,-9.793669701E0,4.925500453E-1
2.310801110E1,-1.123576760E-1,-9.793580055E0,4.935118258E-1
2.312841110E1,-1.160821319E-1,-9.793519020E0,4.938599467E-1
2.314855079E1,-1.194135621E-1,-9.793437004E0,4.946931601E-1
2.316882063E1,-1.214466840E-1,-9.793395996E0,4.950105548E-1
2.318909048E1,-1.216574237E-1,-9.793404579E0,4.947804213E-1
2.320936032E1,-1.212496459E-1,-9.793372154E0,4.955118895E-1
2.322976032E1,-1.217101142E-1,-9.793287277E0,4.970668554E-1
2.324990001E1,-1.230262145E-1,-9.793170929E0,4.990512133E-1
2.327016985E1,-1.241837665E-1,-9.793147087E0,4.992340803E-1
2.329043969E1,-1.263125539E-1,-9.793173790E0,4.981783032E-1
2.331070954E1,-1.292781383E-1,-9.793204308E0,4.968294799E-1
2.333110954E1,-1.322735697E-1,-9.793164253E0,4.968066812E-1
2.335124923E1,-1.341350675E-1,-9.793053627E0,4.984772205E-1
2.337151907E1,-1.351385564E-1,-9.792939186E0,5.004734397E-1
2.339178891E1,-1.329479665E-1,-9.792825699E0,5.032755733E-1
2.341205876E1,-1.298705786E-1,-9.792683601E0,5.068148375E-1
2.343245876E1,-1.261720210E-1,-9.792534828E0,5.106070042E-1
2.345259850E1,-1.236494631E-1,-9.792431831E0,5.132080913E-1
2.347286834E1,-1.245104373E-1,-9.792356491E0,5.144341588E-1
2.349313818E1,-1.279729754E-1,-9.792279243E0,5.150455236E-1
2.351340803E1,-1.305192113E-1,-9.792169571E0,5.164839029E-1
2.353367787E1,-1.300465614E-1,-9.792147636E0,5.170282722E-1
2.355394772E1,-1.274501085E-1,-9.792101860E0,5.185357332E-1
2.357421761E1,-1.240731329E-1,-9.791942596E0,5.223646760E-1
2.359448751E1,-1.203612685E-1,-9.791742325E0,5.269489884E-1
2.361475735E1,-1.191658974E-1,-9.791478157E0,5.321124196E-1
2.363502719E1,-1.200583503E-1,-9.791220665E0,5.366204977E-1
2.365529704E1,-1.226200238E-1,-9.790955544E0,5.408644676E-1
2.367556693E1,-1.247461289E-1,-9.790782928E0,5.435080528E-1
2.369583678E1,-1.253941953E-1,-9.790707588E0,5.447031260E-1
2.371610662E1,-1.245140731E-1,-9.790660858E0,5.457511544E-1
2.373637647E1,-1.219286248E-1,-9.790620804E0,5.470566154E-1
2.375664636E1,-1.191289574E-1,-9.790556908E0,5.488061309E-1
2.377691621E1,-1.182529479E-1,-9.790359497E0,5.525184870E-1
2.379718610E1,-1.185495332E-1,-9.789995193E0,5.588530302E-1
2.381745589E1,-1.200786605E-1,-9.789635658E0,5.647915602E-1
2.383772584E1,-1.235263422E-1,-9.789304733E0,5.697770119E-1
2.385799568E1,-1.271792054E-1,-9.789003372E0,5.741375685E-1
2.387826553E1,-1.310365647E-1,-9.788823128E0,5.763334036E-1
2.389853542E1,-1.338359714E-1,-9.788705826E0,5.776794553E-1
2.391880527E1,-1.341931820E-1,-9.788602829E0,5.793413520E-1
2.393907516E1,-1.320655793E-1,-9.788514137E0,5.813090205E-1
2.395934506E1,-1.314043552E-1,-9.788368225E0,5.839255452E-1
2.397961485E1,-1.320804954E-1,-9.788189888E0,5.867589116E-1
2.399988480E1,-1.346780807E-1,-9.787880898E0,5.913026929E-1
2.402015469E1,-1.395867467E-1,-9.787611008E0,5.946253538E-1
2.404042454E1,-1.430298090E-1,-9.787504196E0,5.955571532E-1
2.406069443E1,-1.442492753E-1,-9.787362099E0,5.976058841E-1
2.408096428E1,-1.436434537E-1,-9.787136078E0,6.014450788E-1
2.410123417E1,-1.415354013E-1,-9.786940575E0,6.051004529E-1
2.412150407E1,-1.403579265E-1,-9.786719322E0,6.089539528E-1
2.414177397E1,-1.416255534E-1,-9.786486626E0,6.123727560E-1
2.416204376E1,-1.448842883E-1,-9.786302567E0,6.145542860E-1
2.418231371E1,-1.471367478E-1,-9.786221504E0,6.153032780E-1
2.420258360E1,-1.484499574E-1,-9.786260605E0,6.143749952E-1
2.422285350E1,-1.492404491E-1,-9.786279678E0,6.138720512E-1
2.424312334E1,-1.495588422E-1,-9.786241531E0,6.144084930E-1
2.426339324E1,-1.493807733E-1,-9.786164284E0,6.156805754E-1
2.428366308E1,-1.488053203E-1,-9.786051750E0,6.176075339E-1
2.430393303E1,-1.485141367E-1,-9.785940170E0,6.194444299E-1
2.432420287E1,-1.482860148E-1,-9.785862923E0,6.207209826E-1
2.434447277E1,-1.474880725E-1,-9.785815239E0,6.216487885E-1
2.436474266E1,-1.474488527E-1,-9.785767555E0,6.224042177E-1
2.438501256E1,-1.484425664E-1,-9.785769463E0,6.221535802E-1
2.440528246E1,-1.495336741E-1,-9.785736084E0,6.224077940E-1
2.442555235E1,-1.502200663E-1,-9.785636902E0,6.238046885E-1
2.444582225E1,-1.520306617E-1,-9.785468102E0,6.260076761E-1
2.446609214E1,-1.513004303E-1,-9.785342216E0,6.281492710E-1
2.448649214E1,-1.494355202E-1,-9.785297394E0,6.292850375E-1
2.450663193E1,-1.486163586E-1,-9.785226822E0,6.305761933E-1
2.452690183E1,-1.475552320E-1,-9.785120964E0,6.324782372E-1
2.454717173E1,-1.487553716E-1,-9.785018921E0,6.337733865E-1
2.456744162E1,-1.534945369E-1,-9.784934998E0,6.339366436E-1
2.458771152E1,-1.601225436E-1,-9.784867287E0,6.333500743E-1
2.460798141E1,-1.644941866E-1,-9.784783363E0,6.335164905E-1
2.462838141E1,-1.649591476E-1,-9.784796715E0,6.331970692E-1
2.464852126E1,-1.638859212E-1,-9.784703255E0,6.349084377E-1
2.466879115E1,-1.631203443E-1,-9.784477234E0,6.385661960E-1
2.468906105E1,-1.640991420E-1,-9.784216881E0,6.423237920E-1
2.470933094E1,-1.647146791E-1,-9.784160614E0,6.430261135E-1
2.472973094E1,-1.659598947E-1,-9.784237862E0,6.415069103E-1
2.474987074E1,-1.678783447E-1,-9.784230232E0,6.411304474E-1
2.477014058E1,-1.707722247E-1,-9.784125328E0,6.419597268E-1
2.479041058E1,-1.730353236E-1,-9.784024239E0,6.429057121E-1
2.481068048E1,-1.733669937E-1,-9.784121513E0,6.413358450E-1
2.483108048E1,-1.719028205E-1,-9.784207344E0,6.404139400E-1
2.485122027E1,-1.706196219E-1,-9.784182549E0,6.411452293E-1
2.487149016E1,-1.703749597E-1,-9.784016609E0,6.437147856E-1
2.489176011E1,-1.707881987E-1,-9.783871651E0,6.458051801E-1
2.491203001E1,-1.720695347E-1,-9.783843994E0,6.458878517E-1
2.493243001E1,-1.735199094E-1,-9.783897400E0,6.446979046E-1
2.495256980E1,-1.743348688E-1,-9.783966064E0,6.434342265E-1
2.497283975E1,-1.756293327E-1,-9.783946037E0,6.433913112E-1
2.499310964E1,-1.760150343E-1,-9.783996582E0,6.425077319E-1
2.501337954E1,-1.744159609E-1,-9.784050941E0,6.421307921E-1
2.503377954E1,-1.718057990E-1,-9.784058571E0,6.427009702E-1
2.505391938E1,-1.695646644E-1,-9.783906937E0,6.456151009E-1
2.507418928E1,-1.667613387E-1,-9.783772469E0,6.483524442E-1
2.509445917E1,-1.659948677E-1,-9.783632278E0,6.506819725E-1
2.511472912E1,-1.680754572E-1,-9.783542633E0,6.514943838E-1
2.513512912E1,-1.720666587E-1,-9.783400536E0,6.525733471E-1
2.515526896E1,-1.743959934E-1,-9.783283234E0,6.537099481E-1
2.517553886E1,-1.740164310E-1,-9.783194542E0,6.551406384E-1
2.519580876E1,-1.716711819E-1,-9.783050537E0,6.578977704E-1
2.521607870E1,-1.698425561E-1,-9.782825470E0,6.617103219E-1
2.523634855E1,-1.704848558E-1,-9.782561302E0,6.654371619E-1
2.525661855E1,-1.712287366E-1,-9.782411575E0,6.674510241E-1
2.527688844E1,-1.715836674E-1,-9.782534599E0,6.655619740E-1
2.529715834E1,-1.723088771E-1,-9.782691956E0,6.630604267E-1
2.531742829E1,-1.721285284E-1,-9.782798767E0,6.615234017E-1
2.533769824E1,-1.726937294E-1,-9.782831192E0,6.608905196E-1
2.535796813E1,-1.734969765E-1,-9.782762527E0,6.616939902E-1
2.537823808E1,-1.728805751E-1,-9.782685280E0,6.630080938E-1
2.539850798E1,-1.716497689E-1,-9.782568932E0,6.650381088E-1
2.541877792E1,-1.719034016E-1,-9.782451630E0,6.666790843E-1
2.543904787E1,-1.724136174E-1,-9.782345772E0,6.681054235E-1
2.545931777E1,-1.728273183E-1,-9.782260895E0,6.692386866E-1
2.547958772E1,-1.737525165E-1,-9.782234192E0,6.693884730E-1
2.549985766E1,-1.753095090E-1,-9.782298088E0,6.680670381E-1
2.552012756E1,-1.771365553E-1,-9.782296181E0,6.675928235E-1
2.554039751E1,-1.790246814E-1,-9.782269478E0,6.674908996E-1
2.556066746E1,-1.801458448E-1,-9.782164574E0,6.687150598E-1
2.558093735E1,-1.811760068E-1,-9.781995773E0,6.709299088E-1
2.560120730E1,-1.822987050E-1,-9.781832695E0,6.729784608E-1
2.562147725E1,-1.836400479E-1,-9.781813622E0,6.728828549E-1
2.564174719E1,-1.849104911E-1,-9.781886101E0,6.715013385E-1
2.566201709E1,-1.874996573E-1,-9.781928062E0,6.701661348E-1
2.568228704E1,-1.896973401E-1,-9.781925201E0,6.695881486E-1
2.570255693E1,-1.909907609E-1,-9.781867027E0,6.700733900E-1
2.572282693E1,-1.915297508E-1,-9.781681061E0,6.726353168E-1
2.574309688E1,-1.935483068E-1,-9.781535149E0,6.741586924E-1
2.576336683E1,-1.981269866E-1,-9.781358719E0,6.753976345E-1
2.578363673E1,-2.033025473E-1,-9.781198502E0,6.761744618E-1
2.580390667E1,-2.060026377E-1,-9.781273842E0,6.742687821E-1
2.582417662E1,-2.055782229E-1,-9.781477928E0,6.714211106E-1
2.584444657E1,-2.046302408E-1,-9.781485558E0,6.716141105E-1
2.586471652E1,-2.048344612E-1,-9.781311989E0,6.740611196E-1
2.588498646E1,-2.064366043E-1,-9.781155586E0,6.758481264E-1
2.590525641E1,-2.050731927E-1,-9.781389236E0,6.728833914E-1
2.592552636E1,-1.992911547E-1,-9.782196999E0,6.627910137E-1
2.594579626E1,-1.907892227E-1,-9.783217430E0,6.501147747E-1
2.596606626E1,-1.847296953E-1,-9.783877373E0,6.418848038E-1
2.598633620E1,-1.843134612E-1,-9.783833504E0,6.426795125E-1
2.600660610E1,-1.889025271E-1,-9.783256531E0,6.500742435E-1
2.602687605E1,-1.947527230E-1,-9.782671928E0,6.571110487E-1
2.604714600E1,-1.989969909E-1,-9.782494545E0,6.584656835E-1
2.606741594E1,-2.022629678E-1,-9.782674789E0,6.547904611E-1
2.608768589E1,-2.036434412E-1,-9.782846451E0,6.517952681E-1
2.610795584E1,-2.001547515E-1,-9.783043861E0,6.499115825E-1
2.612835584E1,-1.939695776E-1,-9.783314705E0,6.476916671E-1
2.614849574E1,-1.883336455E-1,-9.783461571E0,6.471453905E-1
2.616876568E1,-1.870069355E-1,-9.783238411E0,6.508952975E-1
2.618903563E1,-1.903769076E-1,-9.782885551E0,6.552080512E-1
2.620930558E1,-1.946574450E-1,-9.782932281E0,6.532493830E-1
2.622970558E1,-1.979274899E-1,-9.783292770E0,6.468275189E-1
2.624984553E1,-1.966905892E-1,-9.783660889E0,6.416109204E-1
2.627011548E1,-1.923035383E-1,-9.783955574E0,6.384390593E-1
2.629038542E1,-1.873698384E-1,-9.784016609E0,6.389877796E-1
2.631065537E1,-1.839995533E-1,-9.783927917E0,6.413177252E-1
2.633105537E1,-1.800798774E-1,-9.783910751E0,6.426931620E-1
2.635119527E1,-1.760236472E-1,-9.783996582E0,6.425048709E-1
2.637146522E1,-1.745127738E-1,-9.784004211E0,6.427980065E-1
2.639173516E1,-1.748507470E-1,-9.783949852E0,6.435313225E-1
2.641200511E1,-1.730445027E-1,-9.784224510E0,6.398322582E-1
2.643240511E1,-1.702920794E-1,-9.784688950E0,6.334431171E-1
2.645254501E1,-1.679639369E-1,-9.785026550E0,6.288381219E-1
2.647281501E1,-1.664608717E-1,-9.785159111E0,6.271774173E-1
2.649308496E1,-1.654013991E-1,-9.785127640E0,6.279361844E-1
2.651335490E1,-1.663683504E-1,-9.785018921E0,6.293820739E-1
2.653362485E1,-1.671618223E-1,-9.784952164E0,6.301853061E-1
2.655389475E1,-1.691609323E-1,-9.784955025E0,6.296162605E-1
2.657416475E1,-1.710833460E-1,-9.785024643E0,6.280137897E-1
2.659443469E1,-1.715128273E-1,-9.785223007E0,6.248067617E-1
2.661470469E1,-1.705825776E-1,-9.785563469E0,6.197043657E-1
2.663497464E1,-1.700273007E-1,-9.785844803E0,6.154004335E-1
2.665524459E1,-1.686848849E-1,-9.785967827E0,6.138036847E-1
2.667551454E1,-1.681968719E-1,-9.785840988E0,6.159611940E-1
2.669578454E1,-1.686378121E-1,-9.785741806E0,6.174176335E-1
2.671605449E1,-1.701021343E-1,-9.785791397E0,6.162312031E-1
2.673632443E1,-1.719897985E-1,-9.786053658E0,6.115146875E-1
2.675659438E1,-1.724488586E-1,-9.786463737E0,6.047871709E-1
2.677686433E1,-1.699314862E-1,-9.786920547E0,5.980797410E-1
2.679713428E1,-1.658242643E-1,-9.787249565E0,5.938266516E-1
2.681740428E1,-1.614364386E-1,-9.787439346E0,5.919214487E-1
2.683767423E1,-1.582748890E-1,-9.787537575E0,5.911305547E-1
2.685794417E1,-1.567630768E-1,-9.787627220E0,5.900596380E-1
2.687821412E1,-1.563502103E-1,-9.787836075E0,5.866833925E-1
2.689848402E1,-1.554365009E-1,-9.788093567E0,5.826225877E-1
2.691875407E1,-1.542972922E-1,-9.788395882E0,5.778230429E-1
2.693902402E1,-1.531607062E-1,-9.788621902E0,5.743053555E-1
2.695929396E1,-1.523777246E-1,-9.788826942E0,5.709912181E-1
2.697956391E1,-1.510832012E-1,-9.788999557E0,5.683761835E-1
2.699983391E1,-1.485923976E-1,-9.789134026E0,5.667130947E-1
2.702010386E1,-1.463932395E-1,-9.789159775E0,5.668295622E-1
2.704037381E1,-1.445820630E-1,-9.789179802E0,5.669598579E-1
2.706064376E1,-1.441754848E-1,-9.789190292E0,5.668818355E-1
2.708091370E1,-1.441004276E-1,-9.789228439E0,5.662429929E-1
2.710118365E1,-1.441626251E-1,-9.789252281E0,5.658063293E-1
2.712145365E1,-1.435612142E-1,-9.789378166E0,5.637961030E-1
2.714172360E1,-1.440235674E-1,-9.789484024E0,5.618228912E-1
2.716199355E1,-1.450087875E-1,-9.789566994E0,5.601253510E-1
2.718226350E1,-1.449495256E-1,-9.789702415E0,5.577766299E-1
2.720253344E1,-1.423357129E-1,-9.789861679E0,5.556359291E-1
2.722280339E1,-1.408080757E-1,-9.789897919E0,5.553821921E-1
2.724307334E1,-1.403782219E-1,-9.789774895E0,5.576652884E-1
2.726334324E1,-1.403327137E-1,-9.789643288E0,5.599965453E-1
2.728361324E1,-1.419626325E-1,-9.789583206E0,5.606151819E-1
2.730388324E1,-1.437568516E-1,-9.789602280E0,5.598428845E-1
2.732415318E1,-1.435322911E-1,-9.789588928E0,5.601260066E-1
2.734442313E1,-1.415541619E-1,-9.789544106E0,5.614131093E-1
2.736469308E1,-1.381141990E-1,-9.789486885E0,5.632517934E-1
2.738496303E1,-1.363328546E-1,-9.789388657E0,5.653962493E-1
2.740523298E1,-1.366978586E-1,-9.789292336E0,5.669603944E-1
2.742550292E1,-1.381817460E-1,-9.789274216E0,5.669330359E-1
2.744577282E1,-1.407313794E-1,-9.789269447E0,5.663748384E-1
2.746604282E1,-1.417926103E-1,-9.789290428E0,5.657448173E-1
2.748631272E1,-1.421577930E-1,-9.789232254E0,5.666564703E-1
2.750658272E1,-1.429269314E-1,-9.789110184E0,5.685795546E-1
2.752685261E1,-1.442892998E-1,-9.788986206E0,5.703502893E-1
2.754712256E1,-1.446990520E-1,-9.788841248E0,5.727592707E-1
2.756739251E1,-1.439987868E-1,-9.788767815E0,5.741772056E-1
2.758766246E1,-1.412684321E-1,-9.788778305E0,5.746669173E-1
2.760793240E1,-1.382907331E-1,-9.788735390E0,5.761202574E-1
2.762832115E1,-1.356484592E-1,-9.788645744E0,5.782820582E-1
2.764847230E1,-1.339907646E-1,-9.788511276E0,5.809324980E-1
2.766874225E1,-1.338016391E-1,-9.788436890E0,5.822439194E-1
2.768901219E1,-1.345927268E-1,-9.788390160E0,5.828346014E-1
2.770928214E1,-1.367161274E-1,-9.788360596E0,5.828295350E-1
2.772968214E1,-1.364960372E-1,-9.788363457E0,5.828272700E-1
2.774982199E1,-1.345629245E-1,-9.788372040E0,5.831333399E-1
2.777009193E1,-1.322546154E-1,-9.788276672E0,5.852729082E-1
2.779036188E1,-1.305353642E-1,-9.788112640E0,5.883914232E-1
2.781063183E1,-1.303559244E-1,-9.787859917E0,5.926337838E-1
2.783103183E1,-1.320613921E-1,-9.787655830E0,5.955926180E-1
2.785117167E1,-1.354025006E-1,-9.787520409E0,5.970525742E-1
2.787144162E1,-1.368765682E-1,-9.787520409E0,5.967363119E-1
2.789171157E1,-1.352718920E-1,-9.787529945E0,5.969441533E-1
2.791198146E1,-1.306191981E-1,-9.787503242E0,5.984140635E-1
2.793238147E1,-1.253649443E-1,-9.787375450E0,6.016236544E-1
2.795252136E1,-1.226401478E-1,-9.787096977E0,6.066901684E-1
2.797279126E1,-1.227569133E-1,-9.786823273E0,6.110688448E-1
2.799306120E1,-1.239733174E-1,-9.786638260E0,6.137760878E-1
2.801333115E1,-1.246907488E-1,-9.786649704E0,6.134550571E-1
2.803373115E1,-1.241643578E-1,-9.786770821E0,6.116318703E-1
2.805387100E1,-1.232459694E-1,-9.786854744E0,6.104801893E-1
2.807414089E1,-1.217726618E-1,-9.786900520E0,6.100351810E-1
2.809441084E1,-1.208953410E-1,-9.786896706E0,6.102595925E-1
2.811468079E1,-1.211727038E-1,-9.786743164E0,6.126618981E-1
2.813495068E1,-1.229792982E-1,-9.786437988E0,6.171652675E-1
2.815522058E1,-1.249246001E-1,-9.786080360E0,6.224338412E-1
2.817549053E1,-1.256811768E-1,-9.785866737E0,6.256248951E-1
2.819576048E1,-1.256048530E-1,-9.785741806E0,6.275957823E-1
2.821603037E1,-1.243213415E-1,-9.785733223E0,6.279809475E-1
2.823630027E1,-1.232968345E-1,-9.785707474E0,6.285818815E-1
2.825657022E1,-1.220995262E-1,-9.785736084E0,6.283698082E-1
2.827684011E1,-1.196138933E-1,-9.785722733E0,6.290577650E-1
2.829711006E1,-1.156561822E-1,-9.785670280E0,6.306153536E-1
2.831737996E1,-1.117048040E-1,-9.785538673E0,6.333574653E-1
2.833764985E1,-1.078861281E-1,-9.785239220E0,6.386343837E-1
2.835791980E1,-1.060337275E-1,-9.784768105E0,6.461132169E-1
2.837818969E1,-1.058817357E-1,-9.784210205E0,6.545301080E-1
2.839858969E1,-1.064777747E-1,-9.783710480E0,6.618524194E-1
2.841872949E1,-1.060921028E-1,-9.783434868E0,6.659811735E-1
2.843899943E1,-1.034120321E-1,-9.783356667E0,6.675628424E-1
2.845926933E1,-9.865912050E-2,-9.783347130E0,6.684066057E-1
2.847953923E1,-9.326675534E-2,-9.783329010E0,6.694552898E-1
2.849980912E1,-8.951205015E-2,-9.783312798E0,6.701990962E-1
2.852007902E1,-8.937407285E-2,-9.783373833E0,6.693130732E-1
2.854034891E1,-9.341571480E-2,-9.783338547E0,6.692807078E-1
2.856061881E1,-9.815233201E-2,-9.783137321E0,6.715450287E-1
2.858088876E1,-1.040592343E-1,-9.782877922E0,6.744194627E-1
2.860115865E1,-1.108353138E-1,-9.782651901E0,6.766225696E-1
2.862142855E1,-1.183776483E-1,-9.782292366E0,6.805386543E-1
2.864169844E1,-1.256759465E-1,-9.781743050E0,6.870918274E-1
2.866196834E1,-1.313998252E-1,-9.781186104E0,6.939126253E-1
2.868223824E1,-1.355913132E-1,-9.780689240E0,7.000746131E-1
2.870250813E1,-1.369204223E-1,-9.780370712E0,7.042662501E-1
2.872277803E1,-1.371835321E-1,-9.780208588E0,7.064598799E-1
2.874304792E1,-1.375106573E-1,-9.780090332E0,7.080398202E-1
2.876331782E1,-1.370466202E-1,-9.780050278E0,7.086797357E-1
2.878358772E1,-1.388359964E-1,-9.780165672E0,7.067376971E-1
2.880385756E1,-1.433878243E-1,-9.780211449E0,7.051901221E-1
2.882412746E1,-1.469745487E-1,-9.780287743E0,7.033846378E-1
2.884439735E1,-1.495127082E-1,-9.780294418E0,7.027704716E-1
2.886466725E1,-1.510382891E-1,-9.780230522E0,7.033208013E-1
2.888493709E1,-1.529069692E-1,-9.780091286E0,7.048527598E-1
2.890520699E1,-1.559725851E-1,-9.779858589E0,7.074107528E-1
2.892547688E1,-1.598502994E-1,-9.779781342E0,7.076099515E-1
2.894574678E1,-1.625375003E-1,-9.779934883E0,7.048737407E-1
2.896601662E1,-1.616467535E-1,-9.780162811E0,7.019020915E-1
2.898628652E1,-1.570682973E-1,-9.780407906E0,6.995399594E-1
2.900655641E1,-1.510911882E-1,-9.780556679E0,6.987749338E-1
2.902682626E1,-1.469423324E-1,-9.780632973E0,6.985732913E-1
2.904709615E1,-1.438437998E-1,-9.780653000E0,6.989497542E-1
2.906736600E1,-1.436971128E-1,-9.780772209E0,6.973196864E-1
2.908763589E1,-1.438660026E-1,-9.780989647E0,6.942080259E-1
2.910790574E1,-1.446632594E-1,-9.781162262E0,6.916118264E-1
2.912829443E1,-1.439267397E-1,-9.781435013E0,6.878843904E-1
2.914844548E1,-1.418497711E-1,-9.781647682E0,6.852922440E-1
2.916871537E1,-1.378263831E-1,-9.781825066E0,6.835856438E-1
2.918898522E1,-1.348611265E-1,-9.781865120E0,6.836106777E-1
2.920925506E1,-1.327122450E-1,-9.781786919E0,6.851447225E-1
2.922965506E1,-1.317459792E-1,-9.781727791E0,6.861588955E-1
2.924979480E1,-1.317956001E-1,-9.781611443E0,6.878214478E-1
2.927006464E1,-1.328350455E-1,-9.781483650E0,6.894286275E-1
2.929033454E1,-1.321787387E-1,-9.781489372E0,6.894860864E-1
2.931060438E1,-1.306001097E-1,-9.781581879E0,6.884705424E-1
2.933100438E1,-1.298279762E-1,-9.781579018E0,6.886522174E-1
2.935114412E1,-1.297871768E-1,-9.781576157E0,6.886992455E-1
2.937141397E1,-1.283747703E-1,-9.781665802E0,6.877017021E-1
2.939168381E1,-1.275914013E-1,-9.781699181E0,6.873683333E-1
2.941195365E1,-1.282580048E-1,-9.781687737E0,6.873891950E-1
2.943235365E1,-1.306464076E-1,-9.781500816E0,6.896161437E-1
2.945249334E1,-1.333198845E-1,-9.781490326E0,6.892413497E-1
2.947276313E1,-1.344618201E-1,-9.781622887E0,6.871331930E-1
2.949303303E1,-1.327734143E-1,-9.781709671E0,6.862347126E-1
2.951330287E1,-1.278955191E-1,-9.781744957E0,6.866627336E-1
2.953357277E1,-1.225884333E-1,-9.781725883E0,6.879041195E-1
2.955384261E1,-1.218062416E-1,-9.781540871E0,6.906554699E-1
2.957411240E1,-1.246392876E-1,-9.781309128E0,6.934267282E-1
2.959438225E1,-1.293861866E-1,-9.781290054E0,6.928166747E-1
2.961465209E1,-1.326438487E-1,-9.781524658E0,6.888763905E-1
2.963505209E1,-1.356597841E-1,-9.781773567E0,6.847489476E-1
2.965519178E1,-1.369397044E-1,-9.781925201E0,6.823257804E-1
2.967546162E1,-1.366049200E-1,-9.782008171E0,6.812058091E-1
2.969573146E1,-1.353971511E-1,-9.782172203E0,6.791037321E-1
2.971600126E1,-1.352167428E-1,-9.782297134E0,6.773144007E-1
2.973627110E1,-1.339682043E-1,-9.782378197E0,6.764008403E-1
2.975654094E1,-1.330188811E-1,-9.782469749E0,6.752578020E-1
2.977681079E1,-1.317331344E-1,-9.782576561E0,6.739649177E-1
2.979708058E1,-1.311872900E-1,-9.782626152E0,6.733586788E-1
2.981735042E1,-1.305845380E-1,-9.782751083E0,6.716374755E-1
2.983762027E1,-1.302483231E-1,-9.782855034E0,6.701955795E-1
2.985789006E1,-1.305767745E-1,-9.782899857E0,6.694883704E-1
2.987815990E1,-1.321070492E-1,-9.782872200E0,6.695911288E-1
2.989842969E1,-1.318321675E-1,-9.782947540E0,6.685414910E-1
2.991869954E1,-1.303204149E-1,-9.783048630E0,6.673510075E-1
2.993896938E1,-1.289934218E-1,-9.783041000E0,6.677207947E-1
2.995923917E1,-1.281869709E-1,-9.782967567E0,6.689430475E-1
2.997950902E1,-1.290327460E-1,-9.782898903E0,6.697846055E-1
2.999977881E1,-1.310466081E-1,-9.783010483E0,6.677674055E-1
3.002004860E1,-1.320590675E-1,-9.783293724E0,6.633997560E-1
3.004031844E1,-1.301675141E-1,-9.783549309E0,6.600064635E-1
3.006058824E1,-1.253635883E-1,-9.783678055E0,6.590195298E-1
3.008085803E1,-1.188737005E-1,-9.783727646E0,6.595034599E-1
3.010112787E1,-1.139593720E-1,-9.783602715E0,6.622103453E-1
3.012139772E1,-1.122494340E-1,-9.783435822E0,6.649494171E-1
3.014166751E1,-1.137520000E-1,-9.783355713E0,6.658961177E-1
3.016193730E1,-1.159852892E-1,-9.783481598E0,6.636469364E-1
3.018220714E1,-1.175448820E-1,-9.783644676E0,6.609623432E-1
3.020247693E1,-1.182655916E-1,-9.783857346E0,6.576769948E-1
3.022274673E1,-1.173459515E-1,-9.783994675E0,6.557987928E-1
3.024301652E1,-1.166611761E-1,-9.784014702E0,6.556270719E-1
3.026328636E1,-1.159370095E-1,-9.783903122E0,6.573994160E-1
3.028355615E1,-1.156644076E-1,-9.783714294E0,6.602645516E-1
3.030382594E1,-1.159576327E-1,-9.783471107E0,6.637864113E-1
3.032409574E1,-1.171020344E-1,-9.783343315E0,6.654776335E-1
3.034436553E1,-1.167621836E-1,-9.783372879E0,6.651164293E-1
3.036463532E1,-1.160986051E-1,-9.783601761E0,6.618607640E-1
3.038490511E1,-1.148855016E-1,-9.783972740E0,6.565414071E-1
3.040517490E1,-1.140988767E-1,-9.784254074E0,6.524899006E-1
3.042544469E1,-1.128481403E-1,-9.784469604E0,6.494630575E-1
3.044571449E1,-1.099863350E-1,-9.784630775E0,6.475309730E-1
3.046598428E1,-1.083623990E-1,-9.784670830E0,6.471923590E-1
3.048625407E1,-1.078625843E-1,-9.784562111E0,6.489307284E-1
3.050665407E1,-1.081612110E-1,-9.784447670E0,6.505944133E-1
3.052679365E1,-1.098063663E-1,-9.784479141E0,6.498431563E-1
3.054706344E1,-1.127454713E-1,-9.784647942E0,6.468066573E-1
3.056746344E1,-1.139318421E-1,-9.784839630E0,6.436786056E-1
3.058760303E1,-1.124407127E-1,-9.784997940E0,6.415218115E-1
3.060787272E1,-1.086781174E-1,-9.785058975E0,6.412526369E-1
3.062822126E1,-1.039171368E-1,-9.785028458E0,6.424913406E-1
3.064841246E1,-1.013065279E-1,-9.784971237E0,6.437938213E-1
3.066868225E1,-1.009371355E-1,-9.784982681E0,6.436577439E-1
3.068895199E1,-1.014988273E-1,-9.785154343E0,6.409570575E-1
3.070922173E1,-1.026009619E-1,-9.785444260E0,6.363466978E-1
3.072962173E1,-1.026483476E-1,-9.785716057E0,6.321477890E-1
3.074976131E1,-1.020778492E-1,-9.785905838E0,6.292928457E-1
3.077003105E1,-1.008926108E-1,-9.786018372E0,6.277369261E-1
3.079030084E1,-9.981738776E-2,-9.786051750E0,6.273873448E-1
3.081057058E1,-9.826905280E-2,-9.786030769E0,6.279633045E-1
3.083097058E1,-9.668164700E-2,-9.785959244E0,6.293140054E-1
3.085111016E1,-9.443741292E-2,-9.785951614E0,6.297782063E-1
3.087137990E1,-9.250967950E-2,-9.785958290E0,6.299479604E-1
3.089164969E1,-9.106080234E-2,-9.786052704E0,6.287097335E-1
3.091191938E1,-8.981115371E-2,-9.786283493E0,6.252881289E-1
3.093231938E1,-8.838216960E-2,-9.786618233E0,6.202281713E-1
3.095245891E1,-8.810859919E-2,-9.786933899E0,6.152707338E-1
3.097272870E1,-8.743223548E-2,-9.787196159E0,6.111738682E-1
3.099299844E1,-8.508391678E-2,-9.787435532E0,6.076650023E-1
3.101326818E1,-8.216158301E-2,-9.787597656E0,6.054489613E-1
3.103366818E1,-7.925043255E-2,-9.787618637E0,6.054986119E-1
3.105380772E1,-7.734574378E-2,-9.787535667E0,6.070908904E-1
3.107407746E1,-7.814305276E-2,-9.787501335E0,6.075332761E-1
3.109434725E1,-8.055976033E-2,-9.787643433E0,6.049273014E-1
3.111461699E1,-8.119285107E-2,-9.787945747E0,5.999268293E-1
3.113488673E1,-7.774861902E-2,-9.788325310E0,5.941568613E-1
3.115515652E1,-7.196082175E-2,-9.788585663E0,5.905875564E-1
3.117542626E1,-6.641459465E-2,-9.788639069E0,5.903487206E-1
3.119569600E1,-6.233249977E-2,-9.788616180E0,5.911749005E-1
3.121596574E1,-6.114443019E-2,-9.788686752E0,5.901363492E-1
3.123623553E1,-6.174011528E-2,-9.788939476E0,5.858692527E-1
3.125650527E1,-6.315650046E-2,-9.789204597E0,5.812698603E-1
3.127677501E1,-6.339727342E-2,-9.789455414E0,5.770047307E-1
3.129704475E1,-6.257099658E-2,-9.789639473E0,5.739655495E-1
3.131731449E1,-6.156020239E-2,-9.789856911E0,5.703446865E-1
3.133758423E1,-6.059963629E-2,-9.790056229E0,5.670115948E-1
3.135798423E1,-5.881907418E-2,-9.790316582E0,5.626896024E-1
3.137812371E1,-5.732767284E-2,-9.790490150E0,5.598189235E-1
3.139852371E1,-5.554793030E-2,-9.790524483E0,5.594181418E-1
3.141866324E1,-5.534021184E-2,-9.790524483E0,5.594284534E-1
3.143893292E1,-5.588284507E-2,-9.790573120E0,5.585113764E-1
3.145920266E1,-5.706673488E-2,-9.790738106E0,5.555047393E-1
3.147947240E1,-5.791012570E-2,-9.791013718E0,5.505346656E-1
3.149974214E1,-5.867976695E-2,-9.791337967E0,5.446629524E-1
3.152001188E1,-5.992562696E-2,-9.791671753E0,5.384771228E-1
3.154028162E1,-5.963232368E-2,-9.791928291E0,5.338400006E-1
3.156055136E1,-5.814786255E-2,-9.792016983E0,5.323705673E-1
3.158082110E1,-5.788487196E-2,-9.791893005E0,5.346525311E-1
3.160122110E1,-5.929750949E-2,-9.791759491E0,5.369614363E-1
3.162136053E1,-6.252867728E-2,-9.791654587E0,5.384930372E-1
3.164163027E1,-6.781108677E-2,-9.791602135E0,5.387989879E-1
3.166190001E1,-7.193663716E-2,-9.791585922E0,5.385921001E-1
3.168216975E1,-7.145081460E-2,-9.791663170E0,5.372322202E-1
3.170243943E1,-6.776478142E-2,-9.791739464E0,5.363238454E-1
3.172270917E1,-6.390291452E-2,-9.791769981E0,5.362436771E-1
3.174297891E1,-6.292773038E-2,-9.791695595E0,5.376931429E-1
3.176324860E1,-6.411513686E-2,-9.791756630E0,5.364475846E-1
3.178351834E1,-6.617747247E-2,-9.791961670E0,5.324292779E-1
3.180378803E1,-6.774188578E-2,-9.792208672E0,5.276859403E-1
3.182405777E1,-6.819712371E-2,-9.792361259E0,5.247755647E-1
3.184432751E1,-6.874406338E-2,-9.792348862E0,5.249333382E-1
3.186459719E1,-6.995330751E-2,-9.792255402E0,5.265247226E-1
3.188486693E1,-7.101853937E-2,-9.792153358E0,5.282840133E-1
3.190513662E1,-7.181821018E-2,-9.792083740E0,5.294592977E-1
3.192540636E1,-7.186113298E-2,-9.792011261E0,5.307950974E-1
3.194567605E1,-7.075963914E-2,-9.791943550E0,5.321901441E-1
3.196594579E1,-7.059986144E-2,-9.791840553E0,5.341089964E-1
3.198621548E1,-7.302644849E-2,-9.791753769E0,5.353715420E-1
3.200648516E1,-7.660777122E-2,-9.791695595E0,5.359014273E-1
3.202675490E1,-7.972667366E-2,-9.791793823E0,5.336719155E-1
3.204702459E1,-8.345336467E-2,-9.791885376E0,5.314109921E-1
3.206729433E1,-8.699773252E-2,-9.791935921E0,5.299045444E-1
3.208756402E1,-8.899421245E-2,-9.791932106E0,5.296506882E-1
3.210783371E1,-8.961971104E-2,-9.791805267E0,5.318800211E-1
3.212814282E1,-9.151545167E-2,-9.791633606E0,5.347116590E-1
3.214837318E1,-9.468083829E-2,-9.791434288E0,5.378133655E-1
3.216864287E1,-1.008798704E-1,-9.791213989E0,5.406771898E-1
3.218891256E1,-1.066398919E-1,-9.791097641E0,5.416712761E-1
3.220918230E1,-1.100917831E-1,-9.791108131E0,5.408061147E-1
3.222958230E1,-1.098130569E-1,-9.791149139E0,5.401252508E-1
3.224972167E1,-1.080513522E-1,-9.791166306E0,5.401673317E-1
3.226999136E1,-1.059795693E-1,-9.791125298E0,5.413070917E-1
3.229026105E1,-1.068283468E-1,-9.790997505E0,5.434420705E-1
3.231053079E1,-1.107380837E-1,-9.790900230E0,5.444284081E-1
3.233093079E1,-1.150236428E-1,-9.790882111E0,5.438481569E-1
3.235107016E1,-1.190950349E-1,-9.790838242E0,5.437815785E-1
3.237133980E1,-1.224449873E-1,-9.790708542E0,5.453618169E-1
3.239160949E1,-1.237421036E-1,-9.790666580E0,5.458202362E-1
3.241187917E1,-1.246209890E-1,-9.790698051E0,5.450628996E-1
3.243227917E1,-1.251250505E-1,-9.790734291E0,5.442913175E-1
3.245241855E1,-1.252355129E-1,-9.790740967E0,5.441241264E-1
3.247268824E1,-1.258741766E-1,-9.790671349E0,5.452498794E-1
3.249295792E1,-1.271101385E-1,-9.790571213E0,5.467496514E-1
3.251322761E1,-1.278745830E-1,-9.790527344E0,5.473577976E-1
3.253349730E1,-1.283040494E-1,-9.790488243E0,5.479456186E-1
3.255376699E1,-1.290270239E-1,-9.790522575E0,5.471863151E-1
3.257403667E1,-1.301293671E-1,-9.790560722E0,5.462257266E-1
3.259430636E1,-1.322131157E-1,-9.790556908E0,5.458042026E-1
3.261457605E1,-1.351977438E-1,-9.790513992E0,5.458286405E-1
3.263484574E1,-1.365110725E-1,-9.790449142E0,5.466791987E-1
3.265511537E1,-1.365310848E-1,-9.790329933E0,5.487914085E-1
3.267538506E1,-1.388403326E-1,-9.790135384E0,5.516853929E-1
3.269565475E1,-1.433258504E-1,-9.789875984E0,5.551162362E-1
3.271592443E1,-1.501004547E-1,-9.789700508E0,5.564443469E-1
3.273619407E1,-1.565666646E-1,-9.789650917E0,5.555171967E-1
3.275646376E1,-1.575206369E-1,-9.789849281E0,5.517538190E-1
3.277673344E1,-1.528989673E-1,-9.790076256E0,5.490058064E-1
3.279700313E1,-1.444581598E-1,-9.790211678E0,5.488839149E-1
3.281727282E1,-1.354435980E-1,-9.790166855E0,5.519713163E-1
3.283754246E1,-1.293256432E-1,-9.789865494E0,5.587387681E-1
3.285781214E1,-1.269728690E-1,-9.789533615E0,5.650748014E-1
3.287808178E1,-1.270745248E-1,-9.789328575E0,5.685852766E-1
3.289835147E1,-1.273642331E-1,-9.789242744E0,5.699865222E-1
3.291862115E1,-1.274218708E-1,-9.789152145E0,5.715281367E-1
3.293889079E1,-1.258512288E-1,-9.789105415E0,5.726659298E-1
3.295916048E1,-1.243847981E-1,-9.789092064E0,5.732310414E-1
3.297943011E1,-1.231034771E-1,-9.789069176E0,5.739011168E-1
3.299969980E1,-1.223815754E-1,-9.789008141E0,5.750911236E-1
3.301996943E1,-1.221025288E-1,-9.788939476E0,5.763332844E-1
3.304023912E1,-1.220407709E-1,-9.788846970E0,5.779032707E-1
3.306050881E1,-1.219582185E-1,-9.788753510E0,5.795018673E-1
3.308077839E1,-1.210213527E-1,-9.788770676E0,5.793977380E-1
3.310104813E1,-1.202859133E-1,-9.788840294E0,5.783799887E-1
3.312131777E1,-1.181053147E-1,-9.788973808E0,5.765800476E-1
3.314158746E1,-1.143518016E-1,-9.789074898E0,5.756111741E-1
3.316185709E1,-1.110219061E-1,-9.789149284E0,5.749916434E-1
3.318212678E1,-1.072838306E-1,-9.789181709E0,5.751589537E-1
3.320239641E1,-1.036137640E-1,-9.789092064E0,5.773530602E-1
3.322266605E1,-1.018401682E-1,-9.788926125E0,5.804695487E-1
3.324293574E1,-1.010836810E-1,-9.788739204E0,5.837373734E-1
3.326320537E1,-1.033339873E-1,-9.788550377E0,5.864977241E-1
3.328360537E1,-1.068515927E-1,-9.788440704E0,5.877147317E-1
3.330374469E1,-1.111970544E-1,-9.788418770E0,5.872597694E-1
3.332401433E1,-1.136621758E-1,-9.788392067E0,5.872530937E-1
3.334428396E1,-1.122139692E-1,-9.788345337E0,5.882892609E-1
3.336455365E1,-1.084963903E-1,-9.788285255E0,5.899635553E-1
3.338482329E1,-1.037831232E-1,-9.788166046E0,5.927972198E-1
3.340509292E1,-1.009265706E-1,-9.788048744E0,5.952307582E-1
3.342549292E1,-1.004806235E-1,-9.787975311E0,5.965245962E-1
3.344579022E1,-1.012903228E-1,-9.787989616E0,5.961591005E-1
3.346590251E1,-1.026625484E-1,-9.788043976E0,5.950257182E-1
3.348617204E1,-1.034650281E-1,-9.788124084E0,5.935572982E-1
3.350644157E1,-1.042520329E-1,-9.788170815E0,5.926481485E-1
3.352671110E1,-1.051787883E-1,-9.788134575E0,5.930855870E-1
3.354698068E1,-1.058923826E-1,-9.788105965E0,5.934333205E-1
3.356725027E1,-1.045634598E-1,-9.788103104E0,5.937176943E-1
3.358751985E1,-1.025454774E-1,-9.788106918E0,5.940004587E-1
3.360778938E1,-1.013797000E-1,-9.788015366E0,5.957132578E-1
3.362805907E1,-1.002434269E-1,-9.787907600E0,5.976709723E-1
3.364832871E1,-9.996311367E-2,-9.787896156E0,5.978905559E-1
3.366859834E1,-1.003898680E-1,-9.787987709E0,5.963277817E-1
3.368886798E1,-1.020314768E-1,-9.788138390E0,5.935770869E-1
3.370913756E1,-1.044181138E-1,-9.788288116E0,5.906848311E-1
3.372953756E1,-1.053957343E-1,-9.788417816E0,5.883527398E-1
3.374967683E1,-1.029874161E-1,-9.788530350E0,5.869074464E-1
3.376994647E1,-1.010930389E-1,-9.788491249E0,5.878834724E-1
3.379021605E1,-9.959889948E-2,-9.788389206E0,5.898386836E-1
3.381048574E1,-1.009436846E-1,-9.788295746E0,5.911639929E-1
3.383088574E1,-1.032891050E-1,-9.788282394E0,5.909567475E-1
3.385102501E1,-1.060904562E-1,-9.788439751E0,5.878739953E-1
3.387129464E1,-1.058260873E-1,-9.788667679E0,5.841084123E-1
3.389156423E1,-1.023269072E-1,-9.788800240E0,5.825115442E-1
3.391183386E1,-9.729537368E-2,-9.788876534E0,5.820865035E-1
3.393223386E1,-9.387262911E-2,-9.788748741E0,5.847850442E-1
3.395237313E1,-9.349732101E-2,-9.788599968E0,5.873274207E-1
3.397264272E1,-9.570101649E-2,-9.788530350E0,5.881346464E-1
3.399291230E1,-9.811495990E-2,-9.788645744E0,5.858209729E-1
3.401318193E1,-1.001344174E-1,-9.788795471E0,5.829614997E-1
3.403358193E1,-1.015381515E-1,-9.788880348E0,5.812901258E-1
3.405372120E1,-1.012469307E-1,-9.788942337E0,5.802828074E-1
3.407399079E1,-9.993363172E-2,-9.788969994E0,5.800634623E-1
3.409426042E1,-9.834019095E-2,-9.788874626E0,5.819396973E-1
3.411453006E1,-9.673789889E-2,-9.788680077E0,5.854593515E-1
3.413493006E1,-9.552676231E-2,-9.788507462E0,5.885424614E-1
3.415506928E1,-9.500486404E-2,-9.788382530E0,5.906900167E-1
3.417533891E1,-9.516610205E-2,-9.788381577E0,5.906820893E-1
3.419560850E1,-9.621306509E-2,-9.788472176E0,5.890209079E-1
3.421587813E1,-9.673573077E-2,-9.788686752E0,5.853502750E-1
3.423614777E1,-9.687775373E-2,-9.788939476E0,5.811016560E-1
3.425641735E1,-9.791743755E-2,-9.789028168E0,5.794238448E-1
3.427668699E1,-9.837162495E-2,-9.788995743E0,5.798855424E-1
3.429695657E1,-9.759159386E-2,-9.788943291E0,5.809058547E-1
3.431722621E1,-9.577104449E-2,-9.788858414E0,5.826382041E-1
3.433749579E1,-9.537687898E-2,-9.788720131E0,5.850185752E-1
3.435776542E1,-9.588473290E-2,-9.788625717E0,5.865231156E-1
3.437803501E1,-9.792255610E-2,-9.788689613E0,5.851232409E-1
3.439830464E1,-9.975676984E-2,-9.788897514E0,5.813042521E-1
3.441857423E1,-1.005504504E-1,-9.789052010E0,5.785465837E-1
3.443884386E1,-9.882324934E-2,-9.789121628E0,5.776763558E-1
3.445911344E1,-9.631805867E-2,-9.789104462E0,5.783857703E-1
3.447938308E1,-9.460375458E-2,-9.789029121E0,5.799435973E-1
3.449965266E1,-9.403394908E-2,-9.788919449E0,5.818985105E-1
3.451992225E1,-9.530880302E-2,-9.788906097E0,5.819025636E-1
3.454019183E1,-9.731406718E-2,-9.789031029E0,5.794786811E-1
3.456046146E1,-9.898782521E-2,-9.789186478E0,5.765489936E-1
3.458073105E1,-1.005298048E-1,-9.789234161E0,5.754921436E-1
3.460100063E1,-1.022667885E-1,-9.789251328E0,5.748738647E-1
3.462127027E1,-1.021327227E-1,-9.789263725E0,5.747089386E-1
3.464153985E1,-1.009078771E-1,-9.789243698E0,5.752560496E-1
3.466180943E1,-9.954974055E-2,-9.789179802E0,5.765712261E-1
3.468207902E1,-9.800307453E-2,-9.789069176E0,5.787193775E-1
3.470234865E1,-9.685923904E-2,-9.788985252E0,5.803269148E-1
3.472274865E1,-9.686271101E-2,-9.788911819E0,5.815652609E-1
3.474288782E1,-9.745860100E-2,-9.788924217E0,5.812566280E-1
3.476315740E1,-9.975685924E-2,-9.788963318E0,5.802207589E-1
3.478342699E1,-1.015562266E-1,-9.789080620E0,5.779000521E-1
3.480369657E1,-1.037205011E-1,-9.789210320E0,5.753115416E-1
3.482396621E1,-1.057821661E-1,-9.789333344E0,5.728366971E-1
3.484423579E1,-1.062296927E-1,-9.789408684E0,5.714875460E-1
3.486450537E1,-1.047304422E-1,-9.789416313E0,5.716081262E-1
3.488477496E1,-1.031733081E-1,-9.789394379E0,5.722924471E-1
3.490504454E1,-1.024871543E-1,-9.789288521E0,5.741952658E-1
3.492531412E1,-1.041320413E-1,-9.789062500E0,5.777541399E-1
3.494558371E1,-1.075821146E-1,-9.788964272E0,5.787748694E-1
3.496585329E1,-1.104186252E-1,-9.789091110E0,5.760982633E-1
3.498612287E1,-1.101170108E-1,-9.789294243E0,5.726961493E-1
3.500639246E1,-1.069301218E-1,-9.789475441E0,5.701979995E-1
3.502666204E1,-1.028189063E-1,-9.789512634E0,5.703142881E-1
3.504693162E1,-1.004109532E-1,-9.789372444E0,5.731416941E-1
3.506720120E1,-1.010191813E-1,-9.789190292E0,5.761441588E-1
3.508747074E1,-1.032074317E-1,-9.789149284E0,5.764389634E-1
3.510774032E1,-1.057451218E-1,-9.789201736E0,5.750952363E-1
3.512800990E1,-1.080163121E-1,-9.789232254E0,5.741638541E-1
3.514827949E1,-1.083073691E-1,-9.789300919E0,5.729258060E-1
3.516854907E1,-1.086114496E-1,-9.789235115E0,5.739983320E-1
3.518881865E1,-1.082681194E-1,-9.789155960E0,5.754038095E-1
3.520908818E1,-1.078872159E-1,-9.789117813E0,5.761246085E-1
3.522948818E1,-1.077393070E-1,-9.789022446E0,5.777711272E-1
3.524962735E1,-1.077994779E-1,-9.788874626E0,5.802624226E-1
3.526989693E1,-1.090802401E-1,-9.788769722E0,5.817922354E-1
3.529016652E1,-1.125224158E-1,-9.788745880E0,5.815449953E-1
3.531043605E1,-1.161203384E-1,-9.788840294E0,5.792210102E-1
3.533083605E1,-1.198259667E-1,-9.789018631E0,5.754523873E-1
3.535097522E1,-1.220444664E-1,-9.789194107E0,5.719679594E-1
3.537124480E1,-1.247284263E-1,-9.789249420E0,5.704611540E-1
3.539151433E1,-1.254125684E-1,-9.789254189E0,5.702283382E-1
3.541178391E1,-1.235736161E-1,-9.789268494E0,5.703884363E-1
3.543218391E1,-1.201619208E-1,-9.789281845E0,5.708702803E-1
3.545232303E1,-1.177516431E-1,-9.789278030E0,5.714361072E-1
3.547272303E1,-1.163878515E-1,-9.789236069E0,5.724655390E-1
3.549286214E1,-1.161420718E-1,-9.789327621E0,5.709378123E-1
3.551313173E1,-1.151111200E-1,-9.789562225E0,5.671055913E-1
3.553340126E1,-1.126282439E-1,-9.789806366E0,5.633670688E-1
3.555367084E1,-1.084982827E-1,-9.789989471E0,5.609924197E-1
3.557394037E1,-1.053157151E-1,-9.789997101E0,5.614669323E-1
3.559420996E1,-1.051909029E-1,-9.789809227E0,5.647746325E-1
3.561447949E1,-1.075633541E-1,-9.789597511E0,5.679761767E-1
3.563474902E1,-1.097354665E-1,-9.789661407E0,5.664615631E-1
3.565501860E1,-1.100520343E-1,-9.789931297E0,5.617054105E-1
3.567528818E1,-1.086217314E-1,-9.790171623E0,5.577852130E-1
3.569555772E1,-1.053727791E-1,-9.790266991E0,5.567336082E-1
3.571582725E1,-1.016766578E-1,-9.790171623E0,5.591011643E-1
3.573609683E1,-9.885019809E-2,-9.790006638E0,5.624932647E-1
3.575636636E1,-9.656704217E-2,-9.789862633E0,5.653739572E-1
3.577663589E1,-9.618670493E-2,-9.789721489E0,5.678784847E-1
3.579690542E1,-9.565786272E-2,-9.789609909E0,5.699107647E-1
3.581717501E1,-9.553181380E-2,-9.789567947E0,5.706169009E-1
3.583744454E1,-9.526019543E-2,-9.789649963E0,5.692809224E-1
3.585771407E1,-9.487712383E-2,-9.789744377E0,5.677058101E-1
3.587798360E1,-9.503011405E-2,-9.789817810E0,5.664262772E-1
3.589825313E1,-9.520207345E-2,-9.789831161E0,5.661558509E-1
3.591852266E1,-9.658063948E-2,-9.789693832E0,5.682746768E-1
3.593879219E1,-9.965587407E-2,-9.789535522E0,5.704823136E-1
3.595906178E1,-1.001400650E-1,-9.789456367E0,5.717519522E-1
3.597933131E1,-9.829897434E-2,-9.789439201E0,5.723505616E-1
3.599960084E1,-9.754358232E-2,-9.789400101E0,5.731546283E-1
3.601987037E1,-9.739781171E-2,-9.789353371E0,5.739821792E-1
3.604013990E1,-9.880597889E-2,-9.789332390E0,5.740938187E-1
3.606040943E1,-1.019616500E-1,-9.789358139E0,5.731002688E-1
3.608067897E1,-1.062568426E-1,-9.789443016E0,5.708740354E-1
3.610094850E1,-1.070742980E-1,-9.789514542E0,5.694950819E-1
3.612121803E1,-1.051225811E-1,-9.789560318E0,5.690801740E-1
3.614148756E1,-1.025003269E-1,-9.789562225E0,5.695179701E-1
3.616175709E1,-1.003116891E-1,-9.789516449E0,5.706909299E-1
3.618202662E1,-9.963175654E-2,-9.789433479E0,5.722427964E-1
3.620229615E1,-9.947289526E-2,-9.789483070E0,5.714204311E-1
3.622256563E1,-9.941603988E-2,-9.789588928E0,5.696052313E-1
3.624283522E1,-1.004676074E-1,-9.789654732E0,5.682919025E-1
3.626310475E1,-1.010870412E-1,-9.789728165E0,5.669202805E-1
3.628337423E1,-1.012943387E-1,-9.789829254E0,5.651330948E-1
3.630364376E1,-1.009262502E-1,-9.789948463E0,5.631180406E-1
3.632391329E1,-1.007807702E-1,-9.789999008E0,5.622777343E-1
3.634418282E1,-9.985448420E-2,-9.789977074E0,5.628175139E-1
3.636445230E1,-9.849134833E-2,-9.789849281E0,5.652754307E-1
3.638472183E1,-9.698953480E-2,-9.789724350E0,5.676819086E-1
3.640499136E1,-9.489770234E-2,-9.789606094E0,5.700994730E-1
3.642526084E1,-9.400426596E-2,-9.789514542E0,5.718030334E-1
3.644553037E1,-9.400637448E-2,-9.789502144E0,5.720102191E-1
3.646579990E1,-9.409099072E-2,-9.789604187E0,5.702490807E-1
3.648606943E1,-9.476033598E-2,-9.789698601E0,5.685192347E-1
3.650633891E1,-9.459546208E-2,-9.789810181E0,5.666288137E-1
3.652660844E1,-9.255065024E-2,-9.789872169E0,5.658991337E-1
3.654687798E1,-9.083869308E-2,-9.789742470E0,5.684052110E-1
3.656714746E1,-8.971207589E-2,-9.789487839E0,5.729352832E-1
3.658741699E1,-9.010697156E-2,-9.789238930E0,5.771145821E-1
3.660768646E1,-9.268753976E-2,-9.789160728E0,5.780480504E-1
3.662795600E1,-9.637461603E-2,-9.789188385E0,5.769541860E-1
3.664822548E1,-9.876698256E-2,-9.789290428E0,5.748400092E-1
3.666849501E1,-9.733108431E-2,-9.789391518E0,5.733561516E-1
3.668876449E1,-9.322789311E-2,-9.789388657E0,5.740799308E-1
3.670903402E1,-8.867151290E-2,-9.789201736E0,5.779720545E-1
3.672943402E1,-8.680998534E-2,-9.789010048E0,5.814853311E-1
3.674957303E1,-8.785207570E-2,-9.788830757E0,5.843371153E-1
3.676997303E1,-9.086120129E-2,-9.788805008E0,5.843206048E-1
3.679011199E1,-9.387984872E-2,-9.788975716E0,5.809879899E-1
3.681038152E1,-9.670893848E-2,-9.789112091E0,5.782059431E-1
3.683078152E1,-9.813453257E-2,-9.789175034E0,5.768958926E-1
3.685092053E1,-9.852072597E-2,-9.789130211E0,5.775999427E-1
3.687119001E1,-9.927617759E-2,-9.789005280E0,5.795744658E-1
3.689145949E1,-9.918238968E-2,-9.788823128E0,5.826593637E-1
3.691172896E1,-9.905166179E-2,-9.788657188E0,5.854707956E-1
3.693212897E1,-9.937104583E-2,-9.788494110E0,5.881289840E-1
3.695226798E1,-9.875421226E-2,-9.788477898E0,5.885074139E-1
3.697253746E1,-9.873186052E-2,-9.788503647E0,5.880614519E-1
3.699280699E1,-9.926414490E-2,-9.788640976E0,5.857036114E-1
3.701307647E1,-9.997409582E-2,-9.788799286E0,5.829155445E-1
3.703347646E1,-1.011103615E-1,-9.788912773E0,5.808085203E-1
3.705361542E1,-1.033965945E-1,-9.788950920E0,5.797793269E-1
3.707388496E1,-1.041851640E-1,-9.789014816E0,5.785411596E-1
3.709415443E1,-1.038334519E-1,-9.789066315E0,5.777570009E-1
3.711442391E1,-1.040570214E-1,-9.788959503E0,5.794990063E-1
3.713469339E1,-1.042583063E-1,-9.788792610E0,5.822878480E-1
3.715496292E1,-1.060478911E-1,-9.788649559E0,5.843503475E-1
3.717523240E1,-1.089011729E-1,-9.788640022E0,5.840004086E-1
3.719550188E1,-1.134580001E-1,-9.788661957E0,5.827596784E-1
3.721577136E1,-1.174024269E-1,-9.788756371E0,5.803754330E-1
3.723604084E1,-1.173695028E-1,-9.788868904E0,5.784960985E-1
3.725631032E1,-1.145921797E-1,-9.789007187E0,5.766989589E-1
3.727657980E1,-1.103168726E-1,-9.789019585E0,5.773355365E-1
3.729684928E1,-1.060192212E-1,-9.788964272E0,5.790709853E-1
3.731711876E1,-1.016593948E-1,-9.788953781E0,5.800416470E-1
3.733738824E1,-9.657238424E-2,-9.789082527E0,5.787324309E-1
3.735765772E1,-9.188628942E-2,-9.789236069E0,5.768964291E-1
3.737792719E1,-8.722014725E-2,-9.789363861E0,5.754364133E-1
3.739832719E1,-8.510018885E-2,-9.789423943E0,5.747322440E-1
3.741846610E1,-8.411475271E-2,-9.789519310E0,5.732542276E-1
3.743873558E1,-8.300603926E-2,-9.789649010E0,5.711879730E-1
3.745900506E1,-8.227727562E-2,-9.789663315E0,5.710432529E-1
3.747927454E1,-8.028052747E-2,-9.789610863E0,5.722541213E-1
3.749954402E1,-7.762882859E-2,-9.789474487E0,5.749427080E-1
3.751981350E1,-7.561029494E-2,-9.789155960E0,5.805972815E-1
3.754008298E1,-7.557150722E-2,-9.788786888E0,5.867944360E-1
3.756035246E1,-7.719325274E-2,-9.788389206E0,5.931728482E-1
3.758062193E1,-7.932908088E-2,-9.788078308E0,5.980170965E-1
3.760089141E1,-8.172298223E-2,-9.787913322E0,6.003750563E-1
3.762116089E1,-8.453772962E-2,-9.787821770E0,6.014893055E-1
3.764143032E1,-8.583161235E-2,-9.787780762E0,6.019662023E-1
3.766169980E1,-8.604919910E-2,-9.787823677E0,6.012349725E-1
3.768196923E1,-8.653733134E-2,-9.787886620E0,6.001526713E-1
3.770223870E1,-8.818081021E-2,-9.787910461E0,5.995076895E-1
3.772250818E1,-9.341430664E-2,-9.787830353E0,6.000348926E-1
3.774277761E1,-1.005376205E-1,-9.787822723E0,5.990156531E-1
3.776304709E1,-1.052436978E-1,-9.787941933E0,5.962442160E-1
3.778331652E1,-1.054530665E-1,-9.788161278E0,5.926048756E-1
3.780358600E1,-1.025306582E-1,-9.788277626E0,5.911877155E-1
3.782385542E1,-9.792722762E-2,-9.788327217E0,5.911504626E-1
3.784412490E1,-9.590715170E-2,-9.788233757E0,5.930222273E-1
3.786439433E1,-9.730172157E-2,-9.788217545E0,5.930584669E-1
3.788466381E1,-1.003534347E-1,-9.788339615E0,5.905371904E-1
3.790493324E1,-1.041494161E-1,-9.788569450E0,5.860615373E-1
3.792520272E1,-1.074978858E-1,-9.788811684E0,5.813714266E-1
3.794547214E1,-1.096805781E-1,-9.789110184E0,5.759159327E-1
3.796574157E1,-1.102353930E-1,-9.789372444E0,5.713335872E-1
3.798601105E1,-1.101038754E-1,-9.789544106E0,5.684145093E-1
3.800628048E1,-1.094237342E-1,-9.789668083E0,5.664049983E-1
3.802654996E1,-1.086241156E-1,-9.789675713E0,5.664349198E-1
3.804681938E1,-1.077359021E-1,-9.789655685E0,5.669438243E-1
3.806708881E1,-1.063864306E-1,-9.789624214E0,5.677393079E-1
3.808735824E1,-1.052845865E-1,-9.789654732E0,5.674350858E-1
3.810762766E1,-1.042336375E-1,-9.789711952E0,5.666175485E-1
3.812789714E1,-1.024898216E-1,-9.789866447E0,5.642678142E-1
3.814816657E1,-1.009470150E-1,-9.790055275E0,5.612547994E-1
3.816843600E1,-1.007142887E-1,-9.790120125E0,5.601525903E-1
3.818870548E1,-1.007704511E-1,-9.790168762E0,5.593223572E-1
3.820897490E1,-9.865888208E-2,-9.790224075E0,5.587235093E-1
3.822937490E1,-9.747043252E-2,-9.790219307E0,5.590081811E-1
3.824951376E1,-9.871187806E-2,-9.790019035E0,5.622916818E-1
3.826978318E1,-1.011118144E-1,-9.789691925E0,5.675415397E-1
3.829005266E1,-1.048339009E-1,-9.789546967E0,5.693482757E-1
3.831032209E1,-1.074306518E-1,-9.789601326E0,5.679429173E-1
3.833072209E1,-1.068180501E-1,-9.789744377E0,5.655781031E-1
3.835086094E1,-1.028009355E-1,-9.789813042E0,5.651391149E-1
3.837113037E1,-9.836302698E-2,-9.789727211E0,5.674219728E-1
3.839139980E1,-9.542272985E-2,-9.789434433E0,5.729394555E-1
3.841166923E1,-9.615893662E-2,-9.789093018E0,5.786223412E-1
3.843206923E1,-1.010021269E-1,-9.788856506E0,5.817891955E-1
3.845220808E1,-1.054145247E-1,-9.788844109E0,5.812005401E-1
3.847247751E1,-1.079180464E-1,-9.788938522E0,5.791561604E-1
3.849274693E1,-1.087478101E-1,-9.789004326E0,5.778748989E-1
3.851301636E1,-1.074658707E-1,-9.789021492E0,5.778428316E-1
3.853328579E1,-1.060470417E-1,-9.788989067E0,5.786496401E-1
3.855355522E1,-1.055580527E-1,-9.788883209E0,5.805157423E-1
3.857382464E1,-1.067295969E-1,-9.788737297E0,5.827636123E-1
3.859409407E1,-1.091838330E-1,-9.788551331E0,5.854221582E-1
3.861436350E1,-1.116311029E-1,-9.788450241E0,5.866509676E-1
3.863476350E1,-1.129867285E-1,-9.788498878E0,5.855770111E-1
3.865490235E1,-1.135972291E-1,-9.788628578E0,5.832980275E-1
3.867517173E1,-1.140988469E-1,-9.788714409E0,5.817708969E-1
3.869544115E1,-1.148284897E-1,-9.788757324E0,5.808899999E-1
3.871571058E1,-1.162378639E-1,-9.788746834E0,5.807986856E-1
3.873598001E1,-1.190418452E-1,-9.788718224E0,5.807007551E-1
3.875624943E1,-1.214164644E-1,-9.788713455E0,5.802807212E-1
3.877651881E1,-1.201465651E-1,-9.788730621E0,5.802558661E-1
3.879678824E1,-1.178809032E-1,-9.788716316E0,5.809622407E-1
3.881705766E1,-1.160936132E-1,-9.788659096E0,5.822961926E-1
3.883732704E1,-1.159321740E-1,-9.788586617E0,5.835322142E-1
3.885759646E1,-1.185590848E-1,-9.788603783E0,5.827164650E-1
3.887786589E1,-1.218687743E-1,-9.788762093E0,5.793774128E-1
3.889813532E1,-1.228915527E-1,-9.788994789E0,5.751940608E-1
3.891840469E1,-1.195150688E-1,-9.789227486E0,5.719529986E-1
3.893867412E1,-1.137634367E-1,-9.789338112E0,5.712257028E-1
3.895894350E1,-1.078992933E-1,-9.789275169E0,5.734360814E-1
3.897921292E1,-1.038774326E-1,-9.789136887E0,5.765337944E-1
3.899948235E1,-1.023941487E-1,-9.789081573E0,5.777364969E-1
3.901975113E1,-1.023697108E-1,-9.789086342E0,5.776747465E-1
3.904002056E1,-1.031805053E-1,-9.789180756E0,5.759266615E-1
3.906028999E1,-1.035510749E-1,-9.789262772E0,5.744392872E-1
3.908055936E1,-1.034616232E-1,-9.789279938E0,5.741760135E-1
3.910082874E1,-1.019495055E-1,-9.789298058E0,5.741402507E-1
3.912109816E1,-1.010019183E-1,-9.789279938E0,5.746185184E-1
3.914136754E1,-9.998463094E-2,-9.789160728E0,5.768220425E-1
3.916163696E1,-9.895019233E-2,-9.789029121E0,5.792260766E-1
3.918190634E1,-9.743711352E-2,-9.788961411E0,5.806228518E-1
3.920217577E1,-9.594283998E-2,-9.788972855E0,5.806869268E-1
3.922244514E1,-9.497775137E-2,-9.789001465E0,5.803562999E-1
3.924271452E1,-9.507159889E-2,-9.789032936E0,5.798091888E-1
3.926298394E1,-9.596531093E-2,-9.789113998E0,5.782995224E-1
3.928325332E1,-9.631172568E-2,-9.789154053E0,5.775682330E-1
3.930352274E1,-9.854821116E-2,-9.789070129E0,5.786032081E-1
3.932379212E1,-9.976143390E-2,-9.788932800E0,5.807071328E-1
3.934406150E1,-9.828683734E-2,-9.788797379E0,5.832332373E-1
3.936433087E1,-9.741853923E-2,-9.788601875E0,5.866612792E-1
3.938460030E1,-9.708200395E-2,-9.788406372E0,5.899752975E-1
3.940486967E1,-9.835719317E-2,-9.788286209E0,5.917316079E-1
3.942513905E1,-1.008596495E-1,-9.788345337E0,5.903434753E-1
3.944540842E1,-1.038437486E-1,-9.788524628E0,5.868430138E-1
3.946567785E1,-1.038138717E-1,-9.788696289E0,5.839885473E-1
3.948594722E1,-1.009894088E-1,-9.788793564E0,5.828437805E-1
3.950621660E1,-9.716309607E-2,-9.788706779E0,5.849518180E-1
3.952661660E1,-9.457403421E-2,-9.788489342E0,5.889998674E-1
3.954675535E1,-9.463579208E-2,-9.788298607E0,5.921504498E-1
3.956702467E1,-9.691481292E-2,-9.788282394E0,5.920507312E-1
3.958729415E1,-9.899527580E-2,-9.788417816E0,5.894643068E-1
3.960756353E1,-1.002173051E-1,-9.788544655E0,5.871433616E-1
3.962783285E1,-1.003871635E-1,-9.788597107E0,5.862475634E-1
3.964810228E1,-9.990053624E-2,-9.788597107E0,5.863125324E-1
3.966837165E1,-9.936265647E-2,-9.788561821E0,5.869984627E-1
3.968864097E1,-9.886381775E-2,-9.788478851E0,5.884673595E-1
3.970891040E1,-9.739191085E-2,-9.788370132E0,5.905268192E-1
3.972931040E1,-9.544719756E-2,-9.788254738E0,5.927464366E-1
3.974944910E1,-9.480628371E-2,-9.788160324E0,5.944027305E-1
3.976971847E1,-9.431513399E-2,-9.788130760E0,5.949658751E-1
3.978998785E1,-9.400595725E-2,-9.788155556E0,5.946026444E-1
3.981025722E1,-9.409215301E-2,-9.788260460E0,5.928775668E-1
3.983065722E1,-9.419766814E-2,-9.788366318E0,5.910905004E-1
3.985079592E1,-9.399607033E-2,-9.788389206E0,5.907466412E-1
3.987106530E1,-9.422481805E-2,-9.788342476E0,5.914825797E-1
3.989133467E1,-9.343218058E-2,-9.788293839E0,5.924292803E-1
3.991160405E1,-9.081984311E-2,-9.788241386E0,5.936920047E-1
3.993200405E1,-8.853897452E-2,-9.788073540E0,5.967793465E-1
3.995214274E1,-8.766494691E-2,-9.787817955E0,6.010864973E-1
3.997241212E1,-8.831146359E-2,-9.787594795E0,6.046339273E-1
3.999268150E1,-9.053579718E-2,-9.787543297E0,6.051308513E-1
4.001295077E1,-9.349416941E-2,-9.787703514E0,6.020722985E-1
4.003335077E1,-9.428147972E-2,-9.787901878E0,5.987220407E-1
4.005348952E1,-9.196689725E-2,-9.788037300E0,5.968760848E-1
4.007375889E1,-8.773636818E-2,-9.788048744E0,5.973127484E-1
4.009402827E1,-8.403145522E-2,-9.787921906E0,5.999296904E-1
4.011429764E1,-8.255472779E-2,-9.787700653E0,6.037348509E-1
4.013456696E1,-8.363899589E-2,-9.787600517E0,6.052008867E-1
4.015483634E1,-8.633473516E-2,-9.787662506E0,6.038276553E-1
4.017510566E1,-8.948379010E-2,-9.787755966E0,6.018528938E-1
4.019537504E1,-9.135308117E-2,-9.787839890E0,6.001988053E-1
4.021564441E1,-9.191264957E-2,-9.787941933E0,5.984526277E-1
4.023591374E1,-9.130803496E-2,-9.788042068E0,5.968915224E-1
4.025618306E1,-9.042477608E-2,-9.788053513E0,5.968388319E-1
4.027645243E1,-8.899030089E-2,-9.787991524E0,5.980763435E-1
4.029672176E1,-8.719021827E-2,-9.787961006E0,5.988534093E-1
4.031699113E1,-8.623098582E-2,-9.787979126E0,5.986919403E-1
4.033726045E1,-8.638088405E-2,-9.788012505E0,5.981042385E-1
4.035752983E1,-8.636961132E-2,-9.788142204E0,5.959798098E-1
4.037779915E1,-8.732090145E-2,-9.788273811E0,5.936882496E-1
4.039806853E1,-8.855421096E-2,-9.788473129E0,5.901986361E-1
4.041833785E1,-8.960479498E-2,-9.788669586E0,5.867714286E-1
4.043860717E1,-9.086032212E-2,-9.788795471E0,5.844749808E-1
4.045887650E1,-9.147584438E-2,-9.788900375E0,5.826357007E-1
4.047914587E1,-8.950977027E-2,-9.788955688E0,5.820056200E-1
4.049941519E1,-8.704507351E-2,-9.788850784E0,5.841429830E-1
4.051968457E1,-8.496747166E-2,-9.788761139E0,5.859318972E-1
4.053995389E1,-8.405337483E-2,-9.788695335E0,5.871723890E-1
4.056022321E1,-8.597986400E-2,-9.788795471E0,5.852186680E-1
4.058049254E1,-8.932400495E-2,-9.789107323E0,5.794724822E-1
4.060076186E1,-9.066047519E-2,-9.789459229E0,5.732845664E-1
4.062103124E1,-8.762526512E-2,-9.789744377E0,5.688576102E-1
4.064130056E1,-8.237308264E-2,-9.789964676E0,5.658577085E-1
4.066156988E1,-7.678200305E-2,-9.789994240E0,5.661251545E-1
4.068183920E1,-7.439488173E-2,-9.789900780E0,5.680673122E-1
4.070210853E1,-7.457743585E-2,-9.789859772E0,5.687527061E-1
4.072237785E1,-7.684819400E-2,-9.789961815E0,5.666866899E-1
4.074264717E1,-7.902309299E-2,-9.790134430E0,5.634137392E-1
