"Time (s)","Gyroscope x (rad/s)","Gyroscope y (rad/s)","Gyroscope z (rad/s)"
4.059084000E-2,-5.897566080E-1,-9.428914785E-1,7.111966610E-1
6.073125700E-2,-8.896282911E-1,-8.294408917E-1,6.829671264E-1
8.100146500E-2,-1.067527294E0,-8.315714002E-1,6.574008465E-1
1.012716210E-1,-1.177648902E0,-1.017459989E0,7.351650596E-1
1.215418300E-1,-1.237836361E0,-1.417865872E0,1.005209446E0
1.418120900E-1,-1.187236309E0,-1.872067690E0,1.109072566E0
1.620823510E-1,-1.107874155E0,-2.240648985E0,1.089365244E0
1.823526110E-1,-1.218128920E0,-2.803507566E0,9.860346317E-1
2.026229240E-1,-1.594699621E0,-3.900462866E0,8.731167316E-1
2.228931840E-1,-2.102697372E0,-4.527237415E0,8.347672224E-1
2.431634960E-1,-2.473275900E0,-4.445211887E0,9.428914785E-1
2.634338090E-1,-2.507896900E0,-3.496727943E0,1.122255206E0
2.837041740E-1,-2.350237846E0,-3.431879997E0,1.277783751E0
3.039744340E-1,-2.138916254E0,-3.406313658E0,1.365667939E0
3.242447990E-1,-1.818804502E0,-2.740657091E0,1.595764875E0
3.445151110E-1,-1.299621701E0,-2.012149811E0,1.989779353E0
3.647854240E-1,-6.829671264E-1,-2.363154173E0,2.079794168E0
3.850557360E-1,-1.057274193E-1,-3.038797617E0,1.725061297E0
4.053260490E-1,5.179844424E-2,-2.894587517E0,1.084038854E0
4.255963610E-1,-3.701791167E-2,-1.251817942E0,5.998765826E-1
4.458666740E-1,2.488722205E-1,2.046637833E-1,5.291697383E-1
4.661370380E-1,5.315665603E-1,4.426170290E-1,5.243760347E-1
4.864073510E-1,8.335688114E-1,-1.415469050E-1,5.998765826E-1
5.066776630E-1,1.087501049E0,-9.844367504E-1,7.783082724E-1
5.270776630E-1,7.675224543E-1,-1.910417199E0,9.189230204E-1
5.472182880E-1,3.793670237E-1,-1.237436891E0,9.721862078E-1
5.674886530E-1,4.123901725E-1,-4.450138807E-1,7.548724413E-1
5.877589650E-1,4.331628382E-1,-7.571361065E-1,4.982770681E-1
6.080292780E-1,6.695181727E-1,-1.592569113E0,9.721862078E-1
6.284292780E-1,9.214530587E-1,-2.362621546E0,2.054760456E0
6.485699030E-1,7.131940126E-1,-1.467400670E0,2.579269648E0
6.688402150E-1,2.579269707E-1,3.536675274E-1,2.350770473E0
6.891105280E-1,2.781669796E-1,8.404930234E-1,2.334791660E0
7.093808400E-1,5.279712677E-1,6.130592227E-1,2.639989614E0
7.297808400E-1,4.033354521E-1,2.099900991E-1,2.816157579E0
7.499215170E-1,-1.091895252E-2,-6.900244951E-1,2.920553446E0
7.701918300E-1,-2.639190555E-1,-1.260340095E0,2.847050190E0
7.904621420E-1,-2.069274634E-1,-1.662343860E0,2.234656811E0
8.107324550E-1,1.567269117E-1,-1.800295591E0,1.536642790E0
8.311324550E-1,4.470112622E-1,-1.684181809E0,1.240499496E0
8.512730800E-1,5.363602638E-1,-1.547295451E0,1.189366817E0
8.715433920E-1,4.331628382E-1,-8.294408917E-1,1.621863842E0
8.918137570E-1,2.659164369E-1,2.904174924E-1,2.176200390E0
9.120840690E-1,3.814975321E-1,1.212136865E0,2.038248777E0
9.324840690E-1,2.957438231E-1,4.591286182E-1,1.339036345E0
9.526246940E-1,3.852259517E-1,-1.089897871E0,7.330345511E-1
9.728950070E-1,5.215796828E-1,-2.220408916E0,2.857569754E-1
9.931653710E-1,3.724428117E-1,-2.596313715E0,4.301002026E-1
1.013435684E0,2.845585644E-1,-2.081924677E0,8.944219947E-1
1.033745319E0,3.601922691E-1,-1.559013367E0,1.209606886E0
1.053976361E0,4.683165252E-1,-1.950364590E0,8.784430027E-1
1.074246674E0,5.864276290E-1,-2.277400494E0,5.020055175E-1
1.094517038E0,6.119939685E-1,-2.242246866E0,6.142576337E-1
1.114787299E0,2.254364192E-1,-2.114947796E0,1.115464211E0
1.135057611E0,-3.842938542E-1,-1.735847116E0,1.416267991E0
1.155327976E0,-5.323655009E-1,-1.370461702E0,1.241564751E0
1.175598288E0,-1.515337527E-1,-1.864610791E0,7.735145688E-1
1.195868601E0,1.087900475E-1,-2.506299019E0,3.795001805E-1
1.216138965E0,-2.724411786E-1,-2.609097004E0,4.556665123E-1
1.236409278E0,-9.471525550E-1,-1.733183980E0,8.507461548E-1
1.256679590E0,-1.104678392E0,-1.062201023E0,1.116529465E0
1.276949903E0,-1.037167311E0,-1.136769414E0,1.137168884E0
1.297220267E0,-9.013462067E-1,-1.011068344E0,9.498156905E-1
1.317490632E0,-5.259739161E-1,-4.993423223E-1,1.048885226E0
1.337760944E0,-4.807002246E-1,-7.793735266E-1,1.097354650E0
1.358031309E0,-5.046686530E-1,-5.291697383E-1,1.039297819E0
1.378301621E0,-5.275717974E-1,-4.807002246E-1,1.191497326E0
1.398571934E0,-5.142560005E-1,-7.544729710E-1,9.961546659E-1
1.418842299E0,-4.237086177E-1,-3.518033028E-1,9.018788338E-1
1.439112663E0,-3.512706757E-1,5.832318664E-1,1.124918461E0
1.459382976E0,-2.277000993E-1,3.037332892E-1,1.063266277E0
1.479653340E0,6.245107949E-2,-1.181111038E-1,9.705883265E-1
1.499923705E0,3.516701460E-1,-4.966791868E-1,1.354482770E0
1.520194017E0,3.708449006E-1,-3.826959729E-1,1.231444716E0
1.540464382E0,-1.731053367E-2,5.864276290E-1,9.402283430E-1
1.560734746E0,-2.596580088E-1,6.769750714E-1,1.056874633E0
1.581005059E0,-3.480748832E-1,2.504701018E-1,8.230493069E-1
1.601275424E0,-4.593949318E-1,-9.201214463E-2,5.483444333E-1
1.621545788E0,-7.724493146E-1,-2.033322006E-1,2.458095849E-1
1.641816153E0,-9.247819781E-1,-2.655169666E-1,-8.215846121E-2
1.662086517E0,-9.013462067E-1,-5.222455263E-1,-3.628554344E-1
1.682356882E0,-1.144093156E0,-7.953524590E-1,-5.858950019E-1
1.702627246E0,-1.161669970E0,-8.416914344E-1,-6.093307734E-1
1.722897611E0,-7.186535001E-1,-7.443529963E-1,-3.010701239E-1
1.743168028E0,-1.089232042E-1,-2.303632647E-1,3.342264518E-2
1.763438392E0,3.149185777E-1,-6.378266215E-2,1.595232338E-1
1.783708757E0,2.355564237E-1,-1.692437679E-1,2.633864284E-1
1.803979174E0,-2.074600905E-1,-3.779022694E-1,3.901528120E-1
1.824249538E0,-6.712492704E-1,-5.605949759E-1,4.221107066E-1
1.844519903E0,-9.807083607E-1,-1.495363861E-1,4.253064990E-1
1.864790319E0,-8.837693334E-1,3.848264739E-2,2.191779912E-1
1.885060736E0,-6.488786936E-1,4.487423226E-2,1.632516533E-1
1.905331101E0,-7.021418810E-1,-1.090563685E-1,2.261022031E-1
1.925601517E0,-8.821714520E-1,-9.201214463E-2,3.709780574E-1
1.945871934E0,-8.661925197E-1,4.593949392E-2,3.645864725E-1
1.966142299E0,-7.617966533E-1,4.069307148E-1,4.237086177E-1
1.986412715E0,-5.934849977E-1,4.559328258E-1,3.954791129E-1
2.006683132E0,-5.807018280E-1,3.339601457E-1,1.818937659E-1
2.026953549E0,-8.560724854E-1,-1.691105962E-2,4.237086177E-1
2.047223965E0,-1.241032124E0,-4.721781015E-1,1.339568973E0
2.067494382E0,-1.882720351E0,-4.657865167E-1,2.235189438E0
2.087764799E0,-2.703772306E0,-4.775044322E-1,3.105376720E0
2.108035215E0,-3.161835670E0,-1.324655294E0,4.098468781E0
2.128435215E0,-3.142660856E0,-2.625075817E0,5.870667934E0
2.148576101E0,-2.400837898E0,-2.933336496E0,6.431396008E0
2.168846517E0,-1.063798904E0,-2.179396152E0,5.326983929E0
2.189116934E0,9.273120165E-1,-4.396875799E-1,2.761296511E0
2.209387403E0,1.865543008E0,7.004108429E-1,1.192562699E0
2.229787403E0,1.774462938E0,2.275669426E-1,4.652538896E-1
2.249928288E0,1.294162154E0,1.320261121E0,1.371526867E-1
2.270198757E0,5.061333776E-1,1.663675547E0,-9.920267761E-2
2.290469174E0,-2.468748540E-1,7.137266397E-1,-1.561942846E-1
2.310739642E0,-2.681801319E-1,-3.299654126E-1,3.182475269E-2
2.331139642E0,2.941459119E-1,-1.036634684E0,3.928159773E-1
2.351280528E0,8.378298283E-1,-6.831002831E-1,6.217144728E-1
2.371550996E0,1.496029615E0,3.201117218E-1,4.620580971E-1
2.391821465E0,2.236654282E0,8.250467181E-1,1.185105816E-1
2.412091934E0,2.881005526E0,7.808382511E-1,-3.378217220E-1
2.432491934E0,3.518965244E0,1.231844187E0,6.227797270E-1
2.452632871E0,3.653721094E0,2.655169725E0,2.205894709E0
2.472903340E0,3.028011799E0,2.347974300E0,2.465286493E0
2.493173809E0,1.799496651E0,1.336240053E0,2.175667763E0
2.513444330E0,6.210486889E-1,5.819002539E-2,1.742105484E0
2.533714799E0,3.351585865E-1,-9.775125384E-1,1.271392107E0
2.554114799E0,4.860265180E-2,-1.038232565E0,6.909566522E-1
2.574413705E0,-1.611211300E-1,-9.913609624E-1,4.439486265E-1
2.594526830E0,-1.145158429E-2,-1.289102197E0,2.245043069E-1
2.614797246E0,2.595248520E-1,-1.204413652E0,6.925545335E-1
2.635197246E0,2.984069884E-1,-6.213150024E-1,9.839041233E-1
2.655338132E0,3.005374968E-1,-3.161169887E-1,8.070703745E-1
2.675608549E0,5.869602561E-1,-5.025381446E-1,4.354265034E-1
2.695878965E0,1.195625305E0,-4.993423223E-1,-1.593900770E-1
2.716149382E0,1.272856951E0,1.064597845E0,-1.231711060E-1
2.736419851E0,8.170571923E-1,3.127480984E0,2.122537792E-1
2.756690371E0,2.872217000E-1,3.469963074E0,1.451421678E-1
2.776960892E0,-3.970770240E-1,1.666338682E0,-2.712427676E-1
2.797231361E0,-1.041960955E0,-2.846917212E-1,-3.250385821E-1
2.817501830E0,-1.129179478E0,-6.420876384E-1,-6.764423847E-1
2.837772351E0,-6.366282105E-1,-1.748097658E0,-9.629983306E-1
2.858042871E0,-7.218492627E-1,-3.815774441E0,-7.456845641E-1
2.878313340E0,-5.796365738E-1,-3.564372063E0,-7.414234877E-1
2.898583861E0,-5.562008023E-1,-1.345427990E0,-8.372972012E-1
2.918854382E0,-1.120657325E0,8.298403621E-1,-6.551371217E-1
2.939124903E0,-9.886978269E-1,7.787077427E-1,-3.063964546E-1
2.959395424E0,-2.522011697E-1,4.966791719E-2,1.019989923E-1
2.979665944E0,8.825709224E-1,-1.000016257E-1,-4.221107066E-2
2.999936517E0,1.329848528E0,2.265016884E-1,-3.308975101E-1
3.020207038E0,4.326302111E-1,4.388886094E-1,-6.032055244E-2
3.040477559E0,3.862912357E-1,-5.307676196E-1,-5.233107507E-2
3.060748080E0,-1.137168929E-1,-5.787044764E-1,-8.961530030E-2
3.081018653E0,-8.214514256E-1,-9.578051567E-1,-4.593949392E-2
3.101289174E0,-1.210139513E0,-7.550055981E-1,-8.375635743E-2
3.121559694E0,-1.153680563E0,1.198421582E-3,1.802958697E-1
3.141830215E0,-5.392897129E-1,3.435475230E-1,2.319611609E-1
3.162100788E0,1.519332230E-1,3.848264739E-2,4.767054692E-2
3.182371309E0,5.842971206E-1,3.954791278E-2,2.255695760E-1
3.202641882E0,4.203796685E-1,4.127896726E-1,1.206943750E0
3.222912403E0,6.647245288E-1,-4.077296555E-1,2.021204710E0
3.243182924E0,7.467498183E-1,1.348890066E-1,2.384326458E0
3.263453496E0,5.029376149E-1,1.427186966E0,1.812412977E0
3.283724017E0,2.712427676E-1,2.371410131E0,1.529718637E0
3.303994590E0,3.133206666E-1,2.450239420E0,1.916276097E0
3.324265059E0,2.882869840E-1,2.300570011E0,2.230395794E0
3.344535684E0,1.332911104E-1,2.283525705E0,1.942907691E0
3.364806257E0,-1.067926809E-1,1.890043974E0,1.389636397E0
3.385076778E0,-4.759065211E-1,1.746766090E0,6.510092616E-1
3.405347351E0,-6.046702862E-1,1.765408158E0,1.051947847E-1
3.425657246E0,-4.423507154E-1,1.486841679E0,4.908202291E-1
3.445888496E0,1.881521940E-1,8.787093163E-1,7.697861195E-1
3.466159069E0,4.038680792E-1,1.580052257E0,1.392832249E-1
3.486429538E0,1.343563795E-1,1.767538667E0,-2.996053919E-2
3.506700111E0,-2.026664019E-1,7.392929792E-1,1.861548275E-1
3.526970684E0,-2.191779912E-1,1.705753356E-1,2.649843320E-2
3.547241257E0,6.937529147E-2,3.579285741E-1,-5.715139508E-1
3.567511830E0,1.439437568E-1,5.688507557E-1,-1.119458914E0
3.587782351E0,2.569948509E-2,2.323606312E-1,-1.073652625E0
3.608052924E0,-1.786979735E-1,-5.707150102E-1,-8.096003532E-1
3.628452924E0,-2.953443527E-1,-1.711346030E0,-3.271690905E-1
3.648594069E0,-2.681801319E-1,-2.333859444E0,8.495477587E-2
3.668864642E0,-5.430181623E-1,-7.406245470E-1,-3.159838319E-1
3.689135215E0,4.906870723E-1,2.263818502E0,-4.347607195E-1
3.709405788E0,1.251019001E0,1.995904565E0,-5.459476262E-3
3.729805788E0,6.817687154E-1,2.265016884E-1,4.311654568E-1
3.749946882E0,-1.664474458E-1,-6.617950201E-1,2.245043069E-1
3.770217455E0,-3.411506712E-1,-1.644500792E-1,-2.430132627E-1
3.790488028E0,-2.138516754E-1,6.231792569E-1,-1.338237375E-1
3.810758601E0,-1.446095407E-1,8.458193541E-1,1.456748098E-1
3.831158601E0,-2.287653685E-1,6.652571559E-1,2.394180000E-1
3.851299799E0,-4.546012580E-1,4.095938802E-1,2.085253596E-1
3.871570319E0,-5.902892351E-1,-1.105211023E-2,1.099884734E-1
3.891840944E0,-2.580601275E-1,-3.874896467E-1,-1.178447902E-1
3.912111517E0,1.023984700E-1,-2.075932473E-1,-8.748477697E-2
3.932511517E0,2.723080218E-1,3.861580743E-3,-7.044056058E-2
3.952652663E0,4.352933466E-1,2.143843099E-2,-7.097318769E-2
3.972923236E0,6.689855456E-1,9.600688517E-2,-2.009353489E-1
3.993193809E0,7.605982423E-1,1.764342934E-1,-4.395544231E-1
4.013464434E0,7.819035053E-1,2.004027218E-1,-7.398256063E-1
4.033864434E0,7.787077427E-1,3.483411968E-1,-1.002945662E0
4.054005580E0,6.711161137E-1,5.635244846E-1,-1.104545236E0
4.074276153E0,4.997417927E-1,7.510108948E-1,-9.603351951E-1
4.094546778E0,2.712427676E-1,8.218508959E-1,-6.503434777E-1
4.114817351E0,1.198421582E-3,7.850993276E-1,-2.989396155E-1
4.135087924E0,-2.607232630E-1,6.066676378E-1,2.916159295E-2
4.155358496E0,-4.386222959E-1,2.600574791E-1,2.229064107E-1
4.175629121E0,-5.233107805E-1,-1.415469050E-1,2.005358785E-1
4.195899694E0,-5.105276108E-1,-4.423507154E-1,8.761793375E-2
4.216170319E0,-3.576622605E-1,-5.430181623E-1,3.821633384E-2
4.236440892E0,-1.190432087E-1,-3.470096290E-1,3.129211813E-2
4.256711465E0,7.629951090E-2,4.700475931E-2,-2.410159074E-2
4.276982090E0,1.636511236E-1,3.787012100E-1,-7.203845680E-2
4.297252611E0,1.748363972E-1,4.958802164E-1,-6.724476814E-2
4.317523288E0,1.615206003E-1,3.984085917E-1,-4.114580899E-2
4.337793861E0,1.423458606E-1,1.924132407E-1,-2.783001214E-2
4.358064486E0,1.194426864E-1,-1.850895584E-2,-1.717737690E-2
4.378335059E0,9.227846563E-2,-1.559279710E-1,-5.459476262E-3
4.398605684E0,5.233107507E-2,-1.900164038E-1,-1.198421582E-3
4.418876257E0,5.992108025E-3,-1.404816359E-1,-1.198421582E-3
4.439146830E0,-4.013380706E-1,-5.600623488E-1,-8.961530030E-2
4.459417455E0,-2.756369710E-1,-1.962082505E0,-6.032055244E-2
4.479688028E0,5.135902166E-1,-9.807083607E-1,1.494032294E-1
4.499958653E0,5.045354962E-1,1.892174482E-1,1.366200596E-1
4.520229226E0,-1.185105816E-1,4.149201810E-1,-3.209106624E-2
4.540629226E0,-4.945486486E-1,2.472743243E-1,-1.162468940E-1
4.560770424E0,-3.225085735E-1,1.018658355E-1,-6.351634115E-2
4.581040996E0,4.860265180E-2,-1.330247968E-1,-3.315633163E-2
4.601311621E0,2.270343155E-1,-2.415485233E-1,7.323687430E-3
4.621582194E0,1.253016293E-1,-2.671148479E-1,1.265000552E-2
4.641852819E0,-5.139897019E-2,-3.384875357E-1,2.010685205E-2
4.662123392E0,-1.115863696E-1,-3.150517344E-1,2.756369673E-2
4.682394017E0,-6.791055948E-2,-1.053279415E-1,2.862896025E-2
4.702664590E0,3.741738573E-2,2.771016955E-1,-5.992108025E-3
4.722935215E0,2.067943066E-1,1.034237862E0,-4.647212476E-2
4.743205788E0,1.146489978E-1,1.558747053E0,-4.221107066E-2
4.763476413E0,-1.126516312E-1,1.418664813E0,-5.233107507E-2
4.783746986E0,-2.500706315E-1,8.664588332E-1,-1.664474420E-2
4.804017611E0,-2.964096069E-1,3.063964546E-1,-7.590003312E-3
4.824288184E0,-2.607232630E-1,-4.194475710E-2,-3.688475490E-2
4.844558809E0,-1.408811212E-1,-2.708432674E-1,-3.954791278E-2
4.864829382E0,-1.518000662E-2,-3.640538454E-1,-3.581948951E-2
4.885100007E0,6.724476814E-2,-3.539338410E-1,-3.741738573E-2
4.905370580E0,1.247690022E-1,-3.299654126E-1,-2.942790836E-2
4.925641205E0,1.583248079E-1,-2.596580088E-1,-3.528685868E-2
4.945911830E0,1.657816470E-1,-1.372858584E-1,-4.593949392E-2
4.966182403E0,1.551290154E-1,-1.265000552E-2,-4.380896688E-2
4.986452976E0,1.173121557E-1,6.831002980E-2,-2.623211779E-2
5.006723601E0,5.179844424E-2,8.748477697E-2,-1.731053460E-3
5.026994226E0,-3.115896136E-2,6.777740270E-2,1.744369231E-2
5.047264851E0,-9.827057272E-2,4.061317816E-2,2.809632942E-2
5.067535424E0,-1.265000552E-1,3.581948951E-2,3.502054140E-2
5.087806049E0,-1.185105816E-1,5.659212917E-2,3.661843762E-2
5.108076621E0,-8.868319541E-2,6.777740270E-2,2.916159295E-2
5.128476621E0,-5.672528967E-2,5.552686751E-2,1.744369231E-2
5.148617819E0,-3.169159219E-2,4.008054361E-2,5.725792143E-3
5.168888444E0,-1.358211134E-2,4.380896688E-2,-3.861580743E-3
5.189159069E0,1.731053460E-3,4.860265180E-2,-8.122635074E-3
5.209429642E0,1.451421715E-2,3.422159329E-2,-5.992108025E-3
5.229829642E0,1.984053478E-2,1.731053460E-3,-1.731053460E-3
5.249970892E0,2.197106183E-2,-3.661843762E-2,3.595264861E-3
5.270241465E0,1.984053478E-2,-3.342264518E-2,8.921583183E-3
5.290512090E0,1.930790395E-2,-9.986846708E-3,8.388951421E-3
5.310782715E0,1.238369010E-2,1.771000773E-2,1.105211023E-2
5.331182715E0,1.731053460E-3,4.061317816E-2,1.531316526E-2
5.351323913E0,-1.091895252E-2,4.274370521E-2,1.744369231E-2
5.371594538E0,-1.997369342E-2,3.368896246E-2,1.797632314E-2
5.391865163E0,-2.157158963E-2,2.143843099E-2,1.531316526E-2
5.412135736E0,-1.251684781E-2,1.557948068E-2,1.158474199E-2
5.432535736E0,-1.997369342E-3,1.611211337E-2,8.388951421E-3
5.452676986E0,1.198421582E-3,1.717737690E-2,5.725792143E-3
5.472947611E0,1.331579551E-4,1.398158539E-2,5.193160381E-3
5.493218184E0,1.731053460E-3,5.992108025E-3,5.193160381E-3
5.513488809E0,6.524739787E-3,1.198421582E-3,7.856319658E-3
5.533759434E0,1.078579482E-2,2.263685223E-3,1.051947847E-2
5.554030059E0,1.025316212E-2,3.861580743E-3,1.211737376E-2
5.574300684E0,4.394212738E-3,-9.321057005E-4,9.986846708E-3
5.594571257E0,2.796316985E-3,-4.660528619E-3,7.323687430E-3
5.614841882E0,3.861580743E-3,-5.193160381E-3,6.791055668E-3
5.635112507E0,4.394212738E-3,-3.595264861E-3,6.791055668E-3
5.655383132E0,5.459476262E-3,-7.323687430E-3,5.725792143E-3
5.675732455E0,4.394212738E-3,-5.193160381E-3,5.193160381E-3
5.695924434E0,5.459476262E-3,-3.994738800E-4,5.725792143E-3
5.716195007E0,2.796316985E-3,2.263685223E-3,6.258423906E-3
5.736465632E0,1.198421582E-3,-9.321057005E-4,7.856319658E-3
5.756736257E0,-2.530001104E-3,-7.323687430E-3,7.856319658E-3
5.777006882E0,-4.127896391E-3,-1.105211023E-2,4.660528619E-3
5.797277455E0,5.459476262E-3,-2.530001104E-3,3.595264861E-3
5.817548028E0,1.771000773E-2,1.664474420E-2,4.127896391E-3
5.837818653E0,2.356895804E-2,2.143843099E-2,4.127896391E-3
5.858089278E0,1.984053478E-2,1.131842658E-2,8.388951421E-3
5.878359903E0,1.451421715E-2,-5.725792143E-3,1.478053257E-2
5.898630528E0,1.185105834E-2,-1.531316526E-2,1.797632314E-2
5.918901153E0,1.557948068E-2,-1.744369231E-2,1.531316526E-2
5.939171726E0,1.930790395E-2,-4.660528619E-3,8.388951421E-3
5.959442351E0,2.090579830E-2,9.720530361E-3,1.997369342E-3
5.979712976E0,2.090579830E-2,1.344895363E-2,-6.657897611E-4
5.999983601E0,1.557948068E-2,1.504684892E-2,1.464737463E-3
6.020254226E0,1.078579482E-2,8.122635074E-3,5.725792143E-3
6.040524851E0,9.720530361E-3,2.796316985E-3,9.986846708E-3
6.060795476E0,6.524739787E-3,2.796316985E-3,1.478053257E-2
6.081066049E0,5.992108025E-3,9.720530361E-3,1.371526904E-2
6.101336674E0,8.122635074E-3,1.504684892E-2,1.158474199E-2
6.121607299E0,1.291632187E-2,1.664474420E-2,9.454214945E-3
6.141877924E0,1.877527125E-2,1.078579482E-2,9.454214945E-3
6.162148549E0,2.037316747E-2,4.926844500E-3,9.454214945E-3
6.182419121E0,1.717737690E-2,1.331579551E-4,9.454214945E-3
6.202689746E0,1.398158539E-2,6.657897611E-4,9.454214945E-3
6.222960371E0,1.398158539E-2,2.796316985E-3,9.454214945E-3
6.243230996E0,1.451421715E-2,7.057371549E-3,8.921583183E-3
6.263501569E0,1.451421715E-2,1.611211337E-2,1.051947847E-2
6.283772194E0,1.025316212E-2,1.877527125E-2,1.051947847E-2
6.304042819E0,5.459476262E-3,1.131842658E-2,9.454214945E-3
6.324313444E0,3.861580743E-3,1.731053460E-3,6.258423906E-3
6.344584017E0,7.057371549E-3,4.926844500E-3,3.062632866E-3
6.364854642E0,1.291632187E-2,2.090579830E-2,-1.198421582E-3
6.385125267E0,1.078579482E-2,2.942790836E-2,-3.861580743E-3
6.405395840E0,7.590003312E-3,2.729738131E-2,3.062632866E-3
6.425666465E0,3.328948980E-3,1.557948068E-2,7.856319658E-3
6.445937038E0,1.731053460E-3,-1.464737463E-3,1.105211023E-2
6.466207663E0,-2.530001104E-3,-1.211737376E-2,8.388951421E-3
6.486478288E0,-2.530001104E-3,-8.388951421E-3,9.321057005E-4
6.506748861E0,4.926844500E-3,2.263685223E-3,-5.992108025E-3
6.527019486E0,1.344895363E-2,1.611211337E-2,-7.590003312E-3
6.547290111E0,1.344895363E-2,2.197106183E-2,-8.122635074E-3
6.567560684E0,6.524739787E-3,7.057371549E-3,-5.459476262E-3
6.587831309E0,-1.997369342E-3,-1.051947847E-2,-6.657897611E-4
6.608101882E0,-6.791055668E-3,-1.531316526E-2,-1.331579551E-4
6.628501882E0,-7.856319658E-3,-7.856319658E-3,9.321057005E-4
6.648643132E0,-9.853689000E-3,4.394212738E-3,-1.731053460E-3
6.668913705E0,-1.091895252E-2,7.057371549E-3,-2.263685223E-3
6.689184330E0,-1.198421605E-2,4.926844500E-3,-2.263685223E-3
6.709454903E0,-1.358211134E-2,5.459476262E-3,-6.657897611E-4
6.729854903E0,-1.091895252E-2,4.394212738E-3,5.193160381E-3
6.749996153E0,-5.193160381E-3,6.657897611E-4,1.105211023E-2
6.770266726E0,6.657897611E-4,-8.921583183E-3,1.637842879E-2
6.790537299E0,3.328948980E-3,-1.637842879E-2,1.904158667E-2
6.810807924E0,4.926844500E-3,-1.744369231E-2,1.797632314E-2
6.831207924E0,4.394212738E-3,-2.277000993E-2,1.531316526E-2
6.851349121E0,5.459476262E-3,-2.223737910E-2,3.595264861E-3
6.871619694E0,3.861580743E-3,-4.127896391E-3,-3.861580743E-3
6.891890319E0,1.025316212E-2,1.238369010E-2,-7.057371549E-3
6.912160892E0,1.185105834E-2,3.422159329E-2,-2.796316985E-3
6.932352871E0,3.328948980E-3,4.327633604E-2,5.725792143E-3
6.952701934E0,3.328948980E-3,2.889527567E-2,1.904158667E-2
6.972972611E0,-4.127896391E-3,1.771000773E-2,2.916159295E-2
6.993243184E0,-2.743053809E-2,1.611211337E-2,2.170474641E-2
7.013513809E0,-3.115896136E-2,1.984053478E-2,1.105211023E-2
7.033784434E0,-1.464737486E-2,5.126581341E-2,-4.394212738E-3
7.054055059E0,3.328948980E-3,1.034637317E-1,-2.037316747E-2
7.074325632E0,1.611211337E-2,1.561942846E-1,-1.877527125E-2
7.094596257E0,1.664474420E-2,1.806953400E-1,-2.796316985E-3
7.114866882E0,1.291632187E-2,1.306279600E-1,2.170474641E-2
7.135266882E0,9.187898599E-3,2.143843099E-2,4.820318148E-2
7.155408028E0,-5.725792143E-3,-4.247738793E-2,5.938844755E-2
7.175678653E0,-2.956106514E-2,-8.388951421E-3,4.607265070E-2
7.195949278E0,-1.784316637E-2,5.179844424E-2,2.809632942E-2
7.216219903E0,2.942790836E-2,8.801741153E-2,1.318263728E-2
7.236490528E0,6.724476814E-2,8.748477697E-2,3.062632866E-3
7.256761153E0,5.499423668E-2,6.564687192E-2,-5.992108025E-3
7.277031726E0,1.238369010E-2,3.475422785E-2,-2.090579830E-2
7.297302299E0,-5.193160381E-3,2.569948509E-2,-4.753739014E-2
7.317572924E0,1.078579482E-2,6.511423737E-2,-7.949529588E-2
7.337843549E0,2.889527567E-2,1.258342713E-1,-9.707214683E-2
7.358114121E0,1.504684892E-2,1.721732318E-1,-1.066595241E-1
7.378384746E0,-2.530001104E-2,1.945437789E-1,-1.087900475E-1
7.398655371E0,-6.578002870E-2,2.025332451E-1,-1.055942550E-1
7.418925944E0,-1.009337306E-1,2.137185186E-1,-9.281109273E-2
7.439196569E0,-1.318263710E-1,2.478069514E-1,-6.937529147E-2
7.459467194E0,-1.584579647E-1,2.771016955E-1,-4.274370521E-2
7.479737767E0,-1.536642760E-1,2.723080218E-1,-2.090579830E-2
7.500008392E0,-9.986846894E-2,2.025332451E-1,-1.238369010E-2
7.520278965E0,-2.050632425E-2,1.306279600E-1,-5.459476262E-3
7.540549590E0,5.286370963E-2,1.221058443E-1,-7.057371549E-3
7.560820215E0,1.071921512E-1,1.817606091E-1,-1.984053478E-2
7.581090840E0,1.540637612E-1,3.074617088E-1,-1.717737690E-2
7.601361413E0,1.743037701E-1,4.245075583E-1,-3.262370080E-2
7.621632038E0,1.284974217E-1,4.617917836E-1,-6.138581783E-2
7.641902663E0,4.700475931E-2,4.058654606E-1,-5.233107507E-2
7.662173288E0,-3.328948840E-2,2.792322338E-1,-5.179844424E-2
7.682443861E0,-7.110634446E-2,1.434111148E-1,-5.446160212E-2
7.702714486E0,-6.045371294E-2,6.191844866E-2,-5.765739456E-2
7.722985111E0,-2.902843431E-2,7.629951090E-2,-6.564687192E-2
7.743255736E0,-5.193160381E-3,1.141163707E-1,-6.085318699E-2
7.763526361E0,-2.316948399E-2,1.071921512E-1,-3.741738573E-2
7.783796934E0,-8.229161799E-2,4.434159771E-2,-1.611211337E-2
7.804067559E0,-1.318263710E-1,-4.034686089E-2,-1.731053460E-3
7.824338184E0,-1.350221634E-1,-1.154479459E-1,3.595264861E-3
7.844608809E0,-9.187898785E-2,-1.404816359E-1,6.791055668E-3
7.864879382E0,-3.062633052E-2,-1.053279415E-1,7.323687430E-3
7.885150007E0,1.557948068E-2,-2.916159295E-2,-6.657897611E-4
7.905420632E0,3.102580272E-2,3.688475490E-2,-1.557948068E-2
7.925769955E0,2.303632535E-2,5.765739456E-2,-1.557948068E-2
7.945961934E0,-1.464737463E-3,2.942790836E-2,-1.131842658E-2
7.966232507E0,-1.731053367E-2,-1.158474199E-2,-5.992108025E-3
7.986503132E0,-1.518000662E-2,-3.182475269E-2,-3.861580743E-3
8.006773757E0,-3.595264861E-3,-3.075948730E-2,-9.720530361E-3
8.027044382E0,4.394212738E-3,-2.223737910E-2,-1.185105834E-2
8.047314903E0,3.328948980E-3,-1.957421936E-2,-9.187898599E-3
8.067585528E0,-4.127896391E-3,-3.821633384E-2,3.595264861E-3
8.087856153E0,-1.624527015E-2,-5.579318479E-2,1.211737376E-2
8.108126726E0,-2.370211668E-2,-6.431528926E-2,1.478053257E-2
8.128526726E0,-2.103895694E-2,-7.763108611E-2,1.957421936E-2
8.148667976E0,-1.731053367E-2,-8.455529809E-2,1.797632314E-2
8.168938601E0,-1.997369342E-2,-8.668582886E-2,1.637842879E-2
8.189209174E0,-2.316948399E-2,-8.295740932E-2,7.856319658E-3
8.209479799E0,-2.050632425E-2,-8.082687855E-2,1.051947847E-2
8.229879799E0,-2.103895694E-2,-9.680583328E-2,1.637842879E-2
8.250020996E0,-1.784316637E-2,-1.181111038E-1,1.584579609E-2
8.270291621E0,-4.660528619E-3,-1.303616315E-1,2.010685205E-2
8.290562246E0,5.459476262E-3,-1.276984811E-1,2.117211558E-2
8.310832819E0,5.992108025E-3,-1.229047924E-1,1.637842879E-2
8.331232819E0,1.611211337E-2,-1.250353158E-1,1.318263728E-2
8.351374017E0,2.889527567E-2,-1.324921697E-1,1.265000552E-2
8.371644642E0,3.155843541E-2,-1.431448013E-1,1.265000552E-2
8.391915267E0,2.197106183E-2,-1.484711170E-1,1.265000552E-2
8.412185840E0,4.394212738E-3,-1.495363861E-1,1.637842879E-2
8.432585840E0,-1.837579720E-2,-1.564605981E-1,1.691105962E-2
8.452727038E0,-3.328948840E-2,-1.889511347E-1,1.744369231E-2
8.472997663E0,-4.181159660E-2,-2.267680019E-1,1.744369231E-2
8.493268288E0,-4.234423116E-2,-2.458095849E-1,4.660528619E-3
8.513538861E0,-1.890842989E-2,-2.273006290E-1,-1.398158539E-2
8.533809434E0,1.771000773E-2,-1.719069183E-1,-2.250369452E-2
8.554080059E0,4.647212476E-2,-1.010668874E-1,-1.930790395E-2
8.574350632E0,5.552686751E-2,-5.206476152E-2,-1.131842658E-2
8.594621257E0,4.860265180E-2,-4.993423447E-2,9.321057005E-4
8.614891830E0,2.889527567E-2,-8.775109053E-2,1.158474199E-2
8.635162455E0,3.861580743E-3,-1.202416345E-1,1.531316526E-2
8.655433028E0,-1.091895252E-2,-1.308942735E-1,1.904158667E-2
8.675703601E0,-1.411474310E-2,-1.202416345E-1,1.478053257E-2
8.695974226E0,-5.193160381E-3,-1.047953144E-1,5.725792143E-3
8.716244799E0,5.992108025E-3,-8.934898674E-2,3.062632866E-3
8.736515424E0,1.078579482E-2,-7.976161689E-2,1.997369342E-3
8.756785996E0,7.590003312E-3,-8.135951310E-2,3.994738800E-4
8.777056569E0,3.861580743E-3,-9.094688296E-2,9.321057005E-4
8.797327142E0,1.198421582E-3,-9.893636405E-2,3.062632866E-3
8.817597715E0,-9.321057005E-4,-9.520793706E-2,-1.331579551E-4
8.837868288E0,1.331579551E-4,-7.816372067E-2,-6.524739787E-3
8.858138861E0,4.926844500E-3,-6.218476593E-2,-7.057371549E-3
8.878409382E0,1.025316212E-2,-5.898897350E-2,-5.992108025E-3
8.898680059E0,9.187898599E-3,-6.111950055E-2,-2.796316985E-3
8.918950632E0,7.057371549E-3,-6.910897791E-2,-1.331579551E-4
8.939221205E0,8.655266836E-3,-7.337003201E-2,-1.331579551E-4
8.959491778E0,4.394212738E-3,-5.898897350E-2,2.530001104E-3
8.979762351E0,-3.062632866E-3,-5.099949613E-2,2.530001104E-3
9.000032924E0,-6.258423906E-3,-5.046686530E-2,9.454214945E-3
9.020303496E0,-6.791055668E-3,-4.301001877E-2,1.265000552E-2
9.040574069E0,-8.388951421E-3,-3.715106845E-2,1.265000552E-2
9.060844590E0,-1.145158429E-2,-2.383527346E-2,1.158474199E-2
9.081115163E0,-8.388951421E-3,-1.211737376E-2,1.105211023E-2
9.101385736E0,6.524739787E-3,-1.158474199E-2,1.211737376E-2
9.121656309E0,1.664474420E-2,-1.371526904E-2,6.791055668E-3
9.141926882E0,1.398158539E-2,-7.856319658E-3,-1.731053460E-3
9.162197403E0,2.796316985E-3,6.524739787E-3,-7.057371549E-3
9.182467976E0,-9.321057238E-3,3.581948951E-2,-1.185105834E-2
9.202738549E0,-1.198421605E-2,5.819002539E-2,-1.664474420E-2
9.223009069E0,-5.193160381E-3,7.576687634E-2,-2.090579830E-2
9.243279642E0,3.328948980E-3,1.008005738E-1,-2.356895804E-2
9.263550215E0,1.824264042E-2,1.061268896E-1,-1.824264042E-2
9.283820736E0,3.635212034E-2,1.029310971E-1,-1.131842658E-2
9.304091309E0,3.954791278E-2,1.050616279E-1,-9.187898599E-3
9.324361830E0,2.516685426E-2,9.334372729E-2,-7.590003312E-3
9.344632403E0,4.926844500E-3,5.179844424E-2,-2.263685223E-3
9.364902924E0,-2.423474751E-2,1.131842658E-2,3.994738800E-4
9.385173496E0,-4.660528526E-2,2.796316985E-3,-2.263685223E-3
9.405444017E0,-4.447475821E-2,1.185105834E-2,-4.926844500E-3
9.425714538E0,-2.689790726E-2,2.942790836E-2,-7.057371549E-3
9.445985111E0,-1.091895252E-2,4.753739014E-2,-4.394212738E-3
9.466255632E0,-1.677790284E-2,5.605949834E-2,-3.328948980E-3
9.486526153E0,-3.382211924E-2,4.167843983E-2,-5.992108025E-3
9.506796674E0,-4.660528526E-2,5.459476262E-3,-4.394212738E-3
9.527067246E0,-3.648528084E-2,-1.797632314E-2,-2.263685223E-3
9.547337767E0,-1.518000662E-2,-6.791055668E-3,3.062632866E-3
9.567608288E0,9.187898599E-3,1.771000773E-2,5.725792143E-3
9.587878809E0,1.930790395E-2,3.795001656E-2,5.725792143E-3
9.608278809E0,1.131842658E-2,4.700475931E-2,9.986846708E-3
9.628577767E0,-9.321057005E-4,4.167843983E-2,1.744369231E-2
9.648690944E0,-3.595264861E-3,2.996053919E-2,2.063948289E-2
9.669090944E0,2.263685223E-3,2.037316747E-2,1.957421936E-2
9.689231882E0,6.524739787E-3,1.930790395E-2,9.986846708E-3
9.709502299E0,1.344895363E-2,1.185105834E-2,4.660528619E-3
9.729902299E0,1.238369010E-2,1.664474420E-2,-1.331579551E-4
9.750043236E0,7.057371549E-3,1.557948068E-2,1.997369342E-3
9.770313653E0,1.331579551E-4,-1.997369342E-3,1.051947847E-2
9.790584121E0,-2.530001104E-3,-1.637842879E-2,1.797632314E-2
9.810854590E0,-2.530001104E-3,-2.117211558E-2,1.904158667E-2
9.831254590E0,-3.994738800E-4,-1.265000552E-2,1.478053257E-2
9.851395580E0,1.731053460E-3,-4.660528619E-3,1.158474199E-2
9.871666101E0,5.992108025E-3,-1.997369342E-3,8.921583183E-3
9.891936569E0,9.187898599E-3,6.657897611E-4,1.211737376E-2
9.912207038E0,4.926844500E-3,3.861580743E-3,1.158474199E-2
9.932438132E0,-3.994738800E-4,-3.595264861E-3,1.424790081E-2
9.952747976E0,-1.997369342E-3,-1.371526904E-2,1.158474199E-2
9.973018444E0,-1.997369342E-3,-1.584579609E-2,8.388951421E-3
9.993288913E0,4.394212738E-3,-1.371526904E-2,9.321057005E-4
1.001355943E1,1.025316212E-2,-1.478053257E-2,-1.331579551E-4
1.003395943E1,1.717737690E-2,-1.850895584E-2,9.321057005E-4
1.005410042E1,1.451421715E-2,-2.010685205E-2,5.193160381E-3
1.007437089E1,-9.321057005E-4,-1.637842879E-2,9.986846708E-3
1.009464136E1,-1.091895252E-2,-1.531316526E-2,1.211737376E-2
1.011491183E1,-4.660528619E-3,-1.850895584E-2,8.921583183E-3
1.013518230E1,4.394212738E-3,-1.478053257E-2,7.856319658E-3
1.015545277E1,8.655266836E-3,-1.904158667E-2,6.258423906E-3
1.017584199E1,1.238369010E-2,-2.170474641E-2,5.725792143E-3
1.019599371E1,1.398158539E-2,-1.584579609E-2,4.660528619E-3
1.021626417E1,9.187898599E-3,-1.464737463E-3,2.530001104E-3
1.023653464E1,3.861580743E-3,4.926844500E-3,1.464737463E-3
1.025680511E1,1.731053460E-3,9.187898599E-3,3.062632866E-3
1.027707558E1,3.328948980E-3,7.057371549E-3,4.660528619E-3
1.029734605E1,1.331579551E-4,3.328948980E-3,2.530001104E-3
1.031761652E1,-9.321057005E-4,4.926844500E-3,1.464737463E-3
1.033788699E1,2.796316985E-3,6.657897611E-4,-2.263685223E-3
1.035815740E1,5.459476262E-3,1.331579551E-4,-2.263685223E-3
1.037842787E1,2.796316985E-3,5.459476262E-3,1.997369342E-3
1.039869834E1,-1.464737463E-3,7.590003312E-3,3.062632866E-3
1.041896876E1,-4.127896391E-3,-1.997369342E-3,4.127896391E-3
1.043923923E1,-4.127896391E-3,-4.127896391E-3,3.994738800E-4
1.045950969E1,1.198421582E-3,3.861580743E-3,-4.394212738E-3
1.047978011E1,3.861580743E-3,1.557948068E-2,-7.590003312E-3
1.050005053E1,1.198421582E-3,2.569948509E-2,-1.078579482E-2
1.052045053E1,-3.062632866E-3,3.315633163E-2,-1.185105834E-2
1.054059141E1,-6.258423906E-3,4.061317816E-2,-9.187898599E-3
1.056086188E1,-4.127896391E-3,2.783001214E-2,-1.331579551E-4
1.058113230E1,6.657897611E-4,6.657897611E-4,-2.796316985E-3
1.060140272E1,4.394212738E-3,7.590003312E-3,-4.926844500E-3
1.062167313E1,6.524739787E-3,3.848264739E-2,-5.992108025E-3
1.064194360E1,1.344895363E-2,6.032055244E-2,-2.796316985E-3
1.066221402E1,1.025316212E-2,5.872265995E-2,4.660528619E-3
1.068248443E1,-3.062632866E-3,3.688475490E-2,9.986846708E-3
1.070275490E1,-1.464737486E-2,2.676474862E-2,1.051947847E-2
1.072302532E1,-1.837579720E-2,5.073318258E-2,1.464737463E-3
1.074329574E1,-1.145158429E-2,8.908267319E-2,-7.057371549E-3
1.076356615E1,-9.321057005E-4,1.167795286E-1,-9.720530361E-3
1.078383657E1,1.664474420E-2,1.205079481E-1,-4.926844500E-3
1.080410699E1,2.783001214E-2,1.103879437E-1,3.062632866E-3
1.082437740E1,2.250369452E-2,9.227846563E-2,1.051947847E-2
1.084464782E1,1.185105834E-2,6.511423737E-2,1.637842879E-2
1.086491818E1,2.796316985E-3,4.327633604E-2,1.478053257E-2
1.088518860E1,2.263685223E-3,4.167843983E-2,1.051947847E-2
1.090545902E1,7.057371549E-3,5.552686751E-2,6.258423906E-3
1.092572943E1,4.394212738E-3,7.363634557E-2,6.258423906E-3
1.094599980E1,-4.660528619E-3,6.138581783E-2,3.595264861E-3
1.096627022E1,-2.103895694E-2,2.729738131E-2,-1.731053460E-3
1.098654063E1,-3.382211924E-2,1.131842658E-2,-1.078579482E-2
1.100681100E1,-1.997369342E-2,1.331579551E-4,-1.398158539E-2
1.102708141E1,-1.997369342E-3,8.655266836E-3,-1.451421715E-2
1.104735178E1,-1.464737463E-3,2.250369452E-2,-1.291632187E-2
1.106762219E1,-1.038632076E-2,1.930790395E-2,-1.344895363E-2
1.108789256E1,-4.660528619E-3,-1.051947847E-2,-5.459476262E-3
1.110816298E1,1.344895363E-2,-4.247738793E-2,4.127896391E-3
1.112856298E1,2.729738131E-2,-5.792371184E-2,1.105211023E-2
1.114870376E1,2.569948509E-2,-5.153212696E-2,1.744369231E-2
1.116897412E1,1.451421715E-2,-6.271740049E-2,1.850895584E-2
1.118924449E1,3.328948980E-3,-9.787109494E-2,1.584579609E-2
1.120951490E1,3.861580743E-3,-1.319595277E-1,1.265000552E-2
1.122991490E1,1.557948068E-2,-1.490037590E-1,1.265000552E-2
1.125005563E1,3.102580272E-2,-1.511342824E-1,1.691105962E-2
1.127032600E1,3.635212034E-2,-1.420795321E-1,2.010685205E-2
1.129059641E1,2.410159074E-2,-1.367532164E-1,1.797632314E-2
1.131086678E1,4.394212738E-3,-1.474058628E-1,1.424790081E-2
1.133126678E1,-4.127896391E-3,-1.617869139E-1,1.158474199E-2
1.135140751E1,-3.595264861E-3,-1.575258672E-1,8.921583183E-3
1.137167787E1,2.796316985E-3,-1.394163817E-1,8.921583183E-3
1.139194824E1,4.926844500E-3,-1.245026886E-1,8.388951421E-3
1.141221860E1,4.926844500E-3,-1.324921697E-1,1.105211023E-2
1.143261860E1,1.731053460E-3,-1.490037590E-1,1.531316526E-2
1.145275928E1,5.459476262E-3,-1.548627019E-1,1.478053257E-2
1.147302964E1,2.037316747E-2,-1.559279710E-1,9.986846708E-3
1.149330001E1,4.061317816E-2,-1.463405937E-1,4.127896391E-3
1.151357037E1,5.286370963E-2,-1.324921697E-1,3.994738800E-4
1.153384068E1,4.860265180E-2,-1.207742617E-1,-1.198421582E-3
1.155411105E1,3.422159329E-2,-1.223721579E-1,-4.394212738E-3
1.157438141E1,2.143843099E-2,-1.276984811E-1,-5.992108025E-3
1.159465173E1,1.771000773E-2,-1.202416345E-1,-1.238369010E-2
1.161492209E1,2.197106183E-2,-9.520793706E-2,-1.398158539E-2
1.163532209E1,2.410159074E-2,-6.484792382E-2,-1.611211337E-2
1.165546277E1,1.984053478E-2,-5.046686530E-2,-1.984053478E-2
1.167573308E1,1.611211337E-2,-5.419528857E-2,-1.930790395E-2
1.169600344E1,1.504684892E-2,-5.685844645E-2,-1.717737690E-2
1.171627376E1,1.611211337E-2,-4.514054582E-2,-1.398158539E-2
1.173654407E1,1.930790395E-2,-3.448791057E-2,-6.524739787E-3
1.175681443E1,2.303632535E-2,-3.874896467E-2,1.997369342E-3
1.177708475E1,2.410159074E-2,-4.567318037E-2,1.997369342E-3
1.179735506E1,2.783001214E-2,-4.514054582E-2,3.062632866E-3
1.181762537E1,3.581948951E-2,-2.756369673E-2,1.997369342E-3
1.183789568E1,4.008054361E-2,-6.791055668E-3,1.997369342E-3
1.185816605E1,3.581948951E-2,1.331579551E-4,-1.198421582E-3
1.187843636E1,2.676474862E-2,-6.791055668E-3,-3.328948980E-3
1.189870667E1,1.611211337E-2,-9.986846708E-3,-4.926844500E-3
1.191897699E1,1.131842658E-2,1.331579551E-4,-8.655266836E-3
1.193924730E1,1.238369010E-2,1.238369010E-2,-8.655266836E-3
1.195951761E1,1.451421715E-2,1.984053478E-2,-6.524739787E-3
1.197978787E1,1.131842658E-2,2.143843099E-2,-5.992108025E-3
1.200005818E1,1.078579482E-2,1.451421715E-2,-3.328948980E-3
1.202032850E1,7.590003312E-3,1.238369010E-2,-2.796316985E-3
1.204059881E1,4.926844500E-3,1.557948068E-2,-6.524739787E-3
1.206086912E1,5.459476262E-3,1.824264042E-2,-1.398158539E-2
1.208113938E1,1.291632187E-2,1.877527125E-2,-2.037316747E-2
1.210140969E1,1.185105834E-2,2.516685426E-2,-2.356895804E-2
1.212168001E1,9.187898599E-3,2.410159074E-2,-2.303632535E-2
1.214195027E1,1.731053460E-3,2.197106183E-2,-1.824264042E-2
1.216222058E1,-7.856319658E-3,1.504684892E-2,-1.451421715E-2
1.218249084E1,-1.145158429E-2,1.398158539E-2,-1.664474420E-2
1.220276115E1,3.328948980E-3,4.926844500E-3,-1.824264042E-2
1.222303141E1,1.611211337E-2,-3.994738800E-4,-1.611211337E-2
1.224330167E1,1.664474420E-2,9.720530361E-3,-1.877527125E-2
1.226357199E1,1.238369010E-2,2.090579830E-2,-2.090579830E-2
1.228384225E1,1.877527125E-2,-9.986846708E-3,-1.717737690E-2
1.230411256E1,1.504684892E-2,-5.046686530E-2,-1.131842658E-2
1.232438282E1,-3.595264861E-3,-5.472791940E-2,-1.504684892E-2
1.234465308E1,-9.853689000E-3,-3.555317223E-2,-1.930790395E-2
1.236492339E1,-8.921583183E-3,-3.994738800E-4,-2.569948509E-2
1.238519365E1,6.657897611E-4,3.528685868E-2,-3.049317189E-2
1.240546391E1,2.676474862E-2,1.398158539E-2,-2.410159074E-2
1.242586391E1,3.102580272E-2,-4.141212255E-2,-2.037316747E-2
1.244600443E1,1.664474420E-2,-8.189214021E-2,-2.197106183E-2
1.246627469E1,1.238369010E-2,-8.668582886E-2,-2.250369452E-2
1.248654496E1,1.344895363E-2,-5.685844645E-2,-2.729738131E-2
1.250681522E1,1.930790395E-2,-3.981423005E-2,-2.942790836E-2
1.252708548E1,3.262370080E-2,-4.354264960E-2,-2.676474862E-2
1.254735574E1,3.422159329E-2,-5.739107728E-2,-2.623211779E-2
1.256762600E1,3.262370080E-2,-6.857634336E-2,-2.676474862E-2
1.258789626E1,2.836264484E-2,-7.070687413E-2,-2.942790836E-2
1.260816652E1,2.729738131E-2,-6.964161247E-2,-3.155843541E-2
1.262856652E1,2.356895804E-2,-7.283740491E-2,-3.155843541E-2
1.264870699E1,2.143843099E-2,-8.029424399E-2,-2.676474862E-2
1.266897725E1,1.877527125E-2,-8.082687855E-2,-2.463422157E-2
1.268924751E1,2.037316747E-2,-7.496792823E-2,-2.090579830E-2
1.270951772E1,2.356895804E-2,-8.029424399E-2,-2.356895804E-2
1.272991772E1,2.676474862E-2,-9.733846784E-2,-3.155843541E-2
1.275005818E1,3.581948951E-2,-1.159805804E-1,-3.688475490E-2
1.277032844E1,4.913528636E-2,-1.324921697E-1,-3.262370080E-2
1.279072844E1,4.807002097E-2,-1.303616315E-1,-2.410159074E-2
1.281086891E1,2.942790836E-2,-1.197090000E-1,-1.451421715E-2
1.283126891E1,1.344895363E-2,-1.229047924E-1,-1.291632187E-2
1.285140938E1,2.250369452E-2,-1.490037590E-1,-1.557948068E-2
1.287167959E1,3.795001656E-2,-1.729721874E-1,-1.185105834E-2
1.289194980E1,4.434159771E-2,-1.735048145E-1,-5.459476262E-3
1.291222006E1,4.380896688E-2,-1.687111259E-1,-1.331579551E-4
1.293245094E1,4.434159771E-2,-1.596563905E-1,4.660528619E-3
1.295276042E1,4.434159771E-2,-1.500690132E-1,3.062632866E-3
1.297303068E1,4.327633604E-2,-1.500690132E-1,-6.524739787E-3
1.299330089E1,5.073318258E-2,-1.649827063E-1,-1.185105834E-2
1.301357110E1,6.458161026E-2,-1.862879843E-1,-1.824264042E-2
1.303397110E1,8.748477697E-2,-1.942774504E-1,-1.930790395E-2
1.305411152E1,1.050616279E-1,-1.713742912E-1,-1.930790395E-2
1.307438178E1,1.077247858E-1,-1.527321786E-1,-2.037316747E-2
1.309465199E1,9.920267761E-2,-1.559279710E-1,-1.984053478E-2
1.311492219E1,8.535424620E-2,-1.857553422E-1,-1.824264042E-2
1.313519240E1,7.150582224E-2,-2.193111479E-1,-1.131842658E-2
1.315546261E1,6.191844866E-2,-2.123869359E-1,-6.524739787E-3
1.317573282E1,5.339634046E-2,-1.777658761E-1,-1.078579482E-2
1.319600303E1,4.700475931E-2,-1.383511126E-1,-6.524739787E-3
1.321627324E1,4.540686309E-2,-9.574057162E-2,-1.331579551E-4
1.323654344E1,5.020054802E-2,-7.496792823E-2,9.321057005E-4
1.325681365E1,5.605949834E-2,-7.816372067E-2,-4.926844500E-3
1.327708381E1,5.605949834E-2,-9.414267540E-2,-7.057371549E-3
1.329735402E1,4.807002097E-2,-1.431448013E-1,9.321057005E-4
1.331762412E1,4.647212476E-2,-1.814942956E-1,1.265000552E-2
1.333789438E1,5.073318258E-2,-1.708416492E-1,1.584579609E-2
1.335816459E1,5.392897129E-2,-1.367532164E-1,8.388951421E-3
1.337843475E1,5.552686751E-2,-1.106542572E-1,-3.861580743E-3
1.339870496E1,5.233107507E-2,-9.680583328E-2,-1.824264042E-2
1.341897511E1,5.286370963E-2,-8.615319431E-2,-2.623211779E-2
1.343924532E1,5.499423668E-2,-7.816372067E-2,-2.197106183E-2
1.345951548E1,4.700475931E-2,-7.976161689E-2,-9.720530361E-3
1.347978563E1,2.729738131E-2,-7.976161689E-2,-4.926844500E-3
1.350005584E1,8.655266836E-3,-6.058686972E-2,-3.328948980E-3
1.352032600E1,7.590003312E-3,-3.075948730E-2,-3.861580743E-3
1.354059615E1,2.037316747E-2,-5.193160381E-3,-5.459476262E-3
1.356086636E1,3.049317189E-2,2.996053919E-2,-8.655266836E-3
1.358113652E1,2.623211779E-2,7.416898012E-2,-1.504684892E-2
1.360140667E1,7.057371549E-3,1.077247858E-1,-2.356895804E-2
1.362167683E1,-9.321057238E-3,1.311605871E-1,-2.676474862E-2
1.364194699E1,-2.103895694E-2,1.524658650E-1,-2.463422157E-2
1.366221709E1,-2.370211668E-2,1.567269117E-1,-1.664474420E-2
1.368248730E1,-1.944106072E-2,1.487374306E-1,-7.057371549E-3
1.370275746E1,-1.358211134E-2,1.306279600E-1,6.258423906E-3
1.372302761E1,-1.145158429E-2,1.039963663E-1,1.424790081E-2
1.374329777E1,-1.518000662E-2,5.552686751E-2,2.543316968E-2
1.376356792E1,-2.050632425E-2,4.926844500E-3,2.809632942E-2
1.378383808E1,-1.890842989E-2,-1.744369231E-2,2.170474641E-2
1.380410824E1,-1.518000662E-2,-2.010685205E-2,1.584579609E-2
1.382437834E1,-1.624527015E-2,-6.791055668E-3,9.986846708E-3
1.384464850E1,-1.677790284E-2,3.155843541E-2,2.530001104E-3
1.386491865E1,-1.038632076E-2,9.014793485E-2,5.725792143E-3
1.388518881E1,-1.251684781E-2,1.359542757E-1,4.660528619E-3
1.390545897E1,-3.275685757E-2,1.412805915E-1,-2.263685223E-3
1.392572907E1,-4.660528526E-2,1.135837361E-1,-6.524739787E-3
1.394599923E1,-4.554001987E-2,8.109319210E-2,-2.263685223E-3
1.396626938E1,-4.127896577E-2,6.085318699E-2,-2.796316985E-3
1.398653954E1,-3.542001545E-2,3.581948951E-2,-3.328948980E-3
1.400680964E1,-3.169159219E-2,1.557948068E-2,-5.992108025E-3
1.402707980E1,-3.542001545E-2,2.516685426E-2,-1.025316212E-2
1.404734990E1,-4.394212365E-2,5.712476373E-2,-1.557948068E-2
1.406762006E1,-3.542001545E-2,6.937529147E-2,-1.504684892E-2
1.408789016E1,-2.050632425E-2,7.523424178E-2,-9.187898599E-3
1.410816032E1,-1.411474310E-2,8.695214242E-2,-4.926844500E-3
1.412856032E1,-2.210422046E-2,8.428898454E-2,-1.731053460E-3
1.414870058E1,-3.488738462E-2,4.913528636E-2,4.127896391E-3
1.416897068E1,-3.808317333E-2,1.331579551E-4,1.265000552E-2
1.418924084E1,-3.328948840E-2,-1.797632314E-2,2.223737910E-2
1.420951094E1,-2.902843431E-2,-1.318263728E-2,2.969422378E-2
1.422991094E1,-2.583264373E-2,-1.531316526E-2,3.342264518E-2
1.425005126E1,-1.784316637E-2,-1.957421936E-2,3.661843762E-2
1.427032136E1,-7.856319658E-3,-1.584579609E-2,3.502054140E-2
1.429059146E1,-6.791055668E-3,-9.454214945E-3,3.555317223E-2
1.431086162E1,-1.145158429E-2,-9.986846708E-3,3.448791057E-2
1.433126162E1,-1.038632076E-2,-2.649843320E-2,3.129211813E-2
1.435140188E1,1.731053460E-3,-4.940159991E-2,3.502054140E-2
1.437167199E1,7.590003312E-3,-6.325002760E-2,3.075948730E-2
1.439194214E1,1.331579551E-4,-5.419528857E-2,3.129211813E-2
1.441221225E1,-1.518000662E-2,-2.649843320E-2,3.129211813E-2
1.443261225E1,-3.009369783E-2,2.263685223E-3,2.916159295E-2
1.445275251E1,-3.595264629E-2,2.623211779E-2,2.596580051E-2
1.447302261E1,-3.914843872E-2,5.179844424E-2,2.117211558E-2
1.449329277E1,-4.340949282E-2,8.109319210E-2,1.584579609E-2
1.451356287E1,-4.873581231E-2,1.034637317E-1,1.371526904E-2
1.453383298E1,-5.566002429E-2,1.125184745E-1,1.424790081E-2
1.455410313E1,-5.512739345E-2,9.920267761E-2,1.744369231E-2
1.457437324E1,-4.234423116E-2,7.736477256E-2,2.436790615E-2
1.459464334E1,-3.062633052E-2,7.736477256E-2,3.129211813E-2
1.461491350E1,-2.636527456E-2,9.387636185E-2,3.395527974E-2
1.463518360E1,-2.157158963E-2,9.973530471E-2,2.916159295E-2
1.465545371E1,-1.198421605E-2,9.121319652E-2,2.383527346E-2
1.467584266E1,-1.464737463E-3,8.215846121E-2,2.170474641E-2
1.469599397E1,8.655266836E-3,7.257108390E-2,2.703106403E-2
1.471626407E1,1.131842658E-2,6.458161026E-2,3.768370301E-2
1.473653417E1,3.861580743E-3,6.458161026E-2,4.607265070E-2
1.475680433E1,-1.038632076E-2,7.470161468E-2,5.352949724E-2
1.477707443E1,-2.849580161E-2,8.748477697E-2,5.832318589E-2
1.479734454E1,-4.181159660E-2,9.653951973E-2,6.045371294E-2
1.481761469E1,-4.767054692E-2,9.760478139E-2,5.672528967E-2
1.483788480E1,-5.139897019E-2,1.039963663E-1,4.141212255E-2
1.485815490E1,-5.139897019E-2,1.023984700E-1,2.383527346E-2
1.487842501E1,-4.980107397E-2,1.018658355E-1,7.323687430E-3
1.489869516E1,-4.127896577E-2,8.748477697E-2,-9.187898599E-3
1.491896527E1,-2.689790726E-2,4.221107066E-2,-2.410159074E-2
1.493923537E1,-2.210422046E-2,7.057371549E-3,-3.315633163E-2
1.495950548E1,-3.009369783E-2,1.344895363E-2,-3.262370080E-2
1.497977558E1,-3.968106955E-2,3.528685868E-2,-2.996053919E-2
1.500004563E1,-4.181159660E-2,3.741738573E-2,-2.356895804E-2
1.502031584E1,-3.222422674E-2,2.037316747E-2,-2.090579830E-2
1.504058594E1,-1.784316637E-2,-8.921583183E-3,-2.676474862E-2
1.506085605E1,1.198421582E-3,-3.182475269E-2,-2.889527567E-2
1.508112615E1,2.516685426E-2,-4.354264960E-2,-2.889527567E-2
1.510139626E1,4.167843983E-2,-5.259739235E-2,-2.250369452E-2
1.512166631E1,2.676474862E-2,-5.526055023E-2,-2.263685223E-3
1.514193646E1,-2.103895694E-2,-2.862896025E-2,1.211737376E-2
1.516220657E1,-8.229161799E-2,2.463422157E-2,3.595264861E-3
1.518247667E1,-9.720530361E-2,2.303632535E-2,4.127896391E-3
1.520274678E1,-4.127896577E-2,-7.337003201E-2,1.531316526E-2
1.522301688E1,2.463422157E-2,-2.038648278E-1,3.075948730E-2
1.524328699E1,2.410159074E-2,-2.458095849E-1,2.490053698E-2
1.526355709E1,-4.767054692E-2,-1.697763950E-1,-1.877527125E-2
1.528382714E1,-1.312937438E-1,4.434159771E-2,-4.540686309E-2
1.530409725E1,-1.430116445E-1,2.350237966E-1,-5.499423668E-2
1.532436735E1,-5.459476262E-2,2.637858987E-1,-4.966791719E-2
1.534463746E1,6.032055244E-2,1.759016514E-1,-3.422159329E-2
1.536490756E1,9.174583107E-2,9.014793485E-2,-2.889527567E-2
1.538517766E1,4.700475931E-2,3.528685868E-2,-3.102580272E-2
1.540544772E1,4.394212738E-3,-2.596580051E-2,-2.623211779E-2
1.542571782E1,1.331579551E-4,-9.147951752E-2,-6.524739787E-3
1.544598792E1,2.796316985E-3,-1.042626798E-1,1.371526904E-2
1.546625803E1,-1.677790284E-2,-5.366265774E-2,2.809632942E-2
1.548652808E1,-3.968106955E-2,-1.531316526E-2,3.874896467E-2
1.550679818E1,-4.447475821E-2,-1.265000552E-2,3.981423005E-2
1.552706829E1,-3.435475379E-2,-3.062632866E-3,2.596580051E-2
1.554733834E1,-1.784316637E-2,2.623211779E-2,8.388951421E-3
1.556760844E1,-9.853689000E-3,5.552686751E-2,-7.057371549E-3
1.558787855E1,-1.198421605E-2,6.351634115E-2,-1.504684892E-2
1.560814860E1,-9.321057238E-3,2.889527567E-2,-1.611211337E-2
1.562854860E1,-2.530001104E-3,-3.062632866E-3,-1.771000773E-2
1.564868876E1,1.731053460E-3,1.331579551E-4,-9.720530361E-3
1.566895886E1,1.331579551E-4,1.451421715E-2,3.595264861E-3
1.568922891E1,-1.624527015E-2,1.557948068E-2,1.478053257E-2
1.570949902E1,-4.607265070E-2,8.122635074E-3,1.691105962E-2
1.572989902E1,-6.098634377E-2,5.459476262E-3,9.986846708E-3
1.575003917E1,-4.767054692E-2,2.836264484E-2,2.530001104E-3
1.577030917E1,-2.316948399E-2,5.286370963E-2,-3.861580743E-3
1.579057933E1,-8.921583183E-3,4.860265180E-2,-1.025316212E-2
1.581084938E1,-1.145158429E-2,1.984053478E-2,-1.025316212E-2
1.583124938E1,-2.157158963E-2,6.657897611E-4,-4.394212738E-3
1.585138954E1,-3.275685757E-2,8.122635074E-3,1.464737463E-3
1.587165959E1,-3.914843872E-2,2.356895804E-2,4.127896391E-3
1.589192964E1,-3.861580789E-2,2.836264484E-2,7.323687430E-3
1.591219969E1,-3.968106955E-2,2.623211779E-2,1.211737376E-2
1.593243042E1,-3.648528084E-2,1.984053478E-2,1.904158667E-2
1.595273980E1,-2.316948399E-2,1.451421715E-2,2.703106403E-2
1.597300985E1,-1.358211134E-2,1.291632187E-2,3.661843762E-2
1.599327990E1,-1.251684781E-2,1.291632187E-2,3.874896467E-2
1.601354996E1,-1.304947957E-2,2.796316985E-3,3.981423005E-2
1.603394996E1,-8.388951421E-3,6.657897611E-4,3.928159550E-2
1.605409011E1,1.198421582E-3,-9.321057005E-4,2.916159295E-2
1.607436022E1,5.992108025E-3,-6.258423906E-3,1.850895584E-2
1.609463027E1,1.451421715E-2,-1.584579609E-2,2.530001104E-3
1.611490032E1,2.463422157E-2,-1.105211023E-2,-6.524739787E-3
1.613530032E1,3.581948951E-2,8.655266836E-3,-3.328948980E-3
1.615544042E1,2.889527567E-2,3.155843541E-2,1.158474199E-2
1.617571042E1,1.331579551E-4,5.073318258E-2,2.330264263E-2
1.619598053E1,-3.275685757E-2,5.872265995E-2,2.862896025E-2
1.621625053E1,-5.086633936E-2,5.286370963E-2,2.809632942E-2
1.623652058E1,-5.033370852E-2,4.753739014E-2,2.543316968E-2
1.625679063E1,-4.074633494E-2,4.807002097E-2,1.744369231E-2
1.627706068E1,-2.530001104E-2,4.327633604E-2,7.856319658E-3
1.629733074E1,-8.921583183E-3,2.836264484E-2,4.660528619E-3
1.631760079E1,1.331579551E-4,2.463422157E-2,-6.657897611E-4
1.633787084E1,4.394212738E-3,2.836264484E-2,-5.459476262E-3
1.635814084E1,1.078579482E-2,3.262370080E-2,-5.459476262E-3
1.637841089E1,1.291632187E-2,4.647212476E-2,-3.861580743E-3
1.639868094E1,9.720530361E-3,6.298371404E-2,1.464737463E-3
1.641895094E1,1.198421582E-3,6.671213359E-2,9.986846708E-3
1.643922100E1,-1.091895252E-2,4.008054361E-2,1.211737376E-2
1.645949105E1,-2.423474751E-2,1.930790395E-2,4.127896391E-3
1.647976105E1,-2.902843431E-2,4.061317816E-2,-6.657897611E-4
1.650003110E1,-2.210422046E-2,8.215846121E-2,-4.394212738E-3
1.652030110E1,-1.304947957E-2,9.494162351E-2,-1.731053460E-3
1.654057115E1,-7.323687430E-3,6.671213359E-2,8.921583183E-3
1.656084115E1,-3.062632866E-3,3.262370080E-2,1.318263728E-2
1.658111121E1,5.459476262E-3,8.655266836E-3,1.265000552E-2
1.660138121E1,1.131842658E-2,1.731053460E-3,5.193160381E-3
1.662165121E1,1.451421715E-2,1.078579482E-2,-2.263685223E-3
1.664192121E1,1.185105834E-2,4.008054361E-2,-6.524739787E-3
1.666219126E1,-1.464737463E-3,6.298371404E-2,-1.731053460E-3
1.668246126E1,-2.370211668E-2,6.724476814E-2,8.388951421E-3
1.670273126E1,-3.808317333E-2,4.221107066E-2,1.318263728E-2
1.672300131E1,-3.861580789E-2,2.250369452E-2,1.478053257E-2
1.674327131E1,-2.743053809E-2,2.942790836E-2,9.986846708E-3
1.676354131E1,-5.725792143E-3,4.167843983E-2,6.791055668E-3
1.678381131E1,1.344895363E-2,3.262370080E-2,7.323687430E-3
1.680408131E1,1.344895363E-2,2.356895804E-2,9.986846708E-3
1.682435131E1,5.459476262E-3,2.090579830E-2,1.424790081E-2
1.684462131E1,1.198421582E-3,1.557948068E-2,1.424790081E-2
1.686489131E1,6.657897611E-4,9.187898599E-3,1.371526904E-2
1.688516131E1,3.328948980E-3,1.611211337E-2,9.986846708E-3
1.690543131E1,3.861580743E-3,2.942790836E-2,1.051947847E-2
1.692582006E1,-5.193160381E-3,5.020054802E-2,1.211737376E-2
1.694597131E1,-1.624527015E-2,5.286370963E-2,1.744369231E-2
1.696624126E1,-2.263685316E-2,3.368896246E-2,1.744369231E-2
1.698651126E1,-1.677790284E-2,7.590003312E-3,1.478053257E-2
1.700678126E1,-4.127896391E-3,1.344895363E-2,1.531316526E-2
1.702705126E1,5.992108025E-3,2.889527567E-2,1.105211023E-2
1.704732120E1,9.720530361E-3,3.102580272E-2,8.388951421E-3
1.706759120E1,1.331579551E-4,2.996053919E-2,1.051947847E-2
1.708786120E1,-4.127896391E-3,1.771000773E-2,1.371526904E-2
1.710813115E1,1.198421582E-3,1.198421582E-3,1.424790081E-2
1.712853115E1,4.394212738E-3,7.590003312E-3,1.051947847E-2
1.714867115E1,9.187898599E-3,2.623211779E-2,2.530001104E-3
1.716894110E1,1.238369010E-2,3.581948951E-2,3.062632866E-3
1.718921110E1,2.796316985E-3,3.155843541E-2,7.856319658E-3
1.720948105E1,-9.321057238E-3,1.771000773E-2,1.265000552E-2
1.722988105E1,-1.304947957E-2,9.187898599E-3,1.744369231E-2
1.725002100E1,-6.791055668E-3,1.717737690E-2,1.957421936E-2
1.727042100E1,-9.321057005E-4,2.996053919E-2,1.904158667E-2
1.729056094E1,5.459476262E-3,3.209106624E-2,2.063948289E-2
1.731083094E1,7.057371549E-3,2.410159074E-2,2.649843320E-2
1.733123094E1,3.328948980E-3,8.122635074E-3,2.756369673E-2
1.735137084E1,1.331579551E-4,-4.127896391E-3,2.596580051E-2
1.737164079E1,3.328948980E-3,-8.921583183E-3,2.010685205E-2
1.739191079E1,1.611211337E-2,2.796316985E-3,1.318263728E-2
1.741218074E1,2.250369452E-2,2.303632535E-2,6.258423906E-3
1.743258074E1,2.143843099E-2,2.889527567E-2,3.062632866E-3
1.745272068E1,1.877527125E-2,2.463422157E-2,5.725792143E-3
1.747299063E1,1.877527125E-2,1.557948068E-2,9.986846708E-3
1.749326058E1,9.720530361E-3,2.263685223E-3,1.531316526E-2
1.751353053E1,-6.258423906E-3,1.331579551E-4,1.318263728E-2
1.753380048E1,-1.837579720E-2,2.090579830E-2,8.921583183E-3
1.755407042E1,-1.944106072E-2,4.114580899E-2,5.725792143E-3
1.757434037E1,-1.145158429E-2,3.901528195E-2,4.660528619E-3
1.759461032E1,1.198421582E-3,2.410159074E-2,9.454214945E-3
1.761488027E1,1.025316212E-2,1.238369010E-2,1.637842879E-2
1.763515022E1,1.238369010E-2,1.198421582E-3,1.318263728E-2
1.765542016E1,2.250369452E-2,-1.371526904E-2,1.211737376E-2
1.767569011E1,2.889527567E-2,-1.424790081E-2,6.791055668E-3
1.769596006E1,2.942790836E-2,-1.997369342E-3,5.193160381E-3
1.771623001E1,2.463422157E-2,9.720530361E-3,1.997369342E-3
1.773649996E1,1.398158539E-2,1.185105834E-2,4.127896391E-3
1.775677042E1,1.331579551E-4,8.122635074E-3,5.725792143E-3
1.777703985E1,-7.323687430E-3,2.263685223E-3,7.856319658E-3
1.779730975E1,-9.321057238E-3,1.731053460E-3,7.856319658E-3
1.781757969E1,-9.321057238E-3,9.187898599E-3,4.660528619E-3
1.783784964E1,-3.994738800E-4,1.078579482E-2,1.997369342E-3
1.785811954E1,8.122635074E-3,8.122635074E-3,-1.331579551E-4
1.787838949E1,1.451421715E-2,-9.321057005E-4,1.464737463E-3
1.789865943E1,1.824264042E-2,-1.584579609E-2,2.530001104E-3
1.791892933E1,2.037316747E-2,-2.436790615E-2,5.725792143E-3
1.793919928E1,1.664474420E-2,-1.584579609E-2,3.595264861E-3
1.795959928E1,1.131842658E-2,-2.530001104E-3,3.062632866E-3
1.797973912E1,7.057371549E-3,1.238369010E-2,2.530001104E-3
1.800000907E1,7.590003312E-3,1.238369010E-2,9.321057005E-4
1.802027897E1,7.057371549E-3,6.657897611E-4,1.997369342E-3
1.804054886E1,4.926844500E-3,-1.691105962E-2,3.062632866E-3
1.806081881E1,3.861580743E-3,-1.850895584E-2,2.530001104E-3
1.808108871E1,9.187898599E-3,-4.127896391E-3,3.994738800E-4
1.810135860E1,1.557948068E-2,9.187898599E-3,-5.459476262E-3
1.812162855E1,1.824264042E-2,1.398158539E-2,-7.057371549E-3
1.814189844E1,1.824264042E-2,8.122635074E-3,3.994738800E-4
1.816216834E1,1.398158539E-2,-1.051947847E-2,9.986846708E-3
1.818243829E1,7.590003312E-3,-2.756369673E-2,1.371526904E-2
1.820270818E1,1.331579551E-4,-3.075948730E-2,6.258423906E-3
1.822297808E1,-9.321057005E-4,-1.211737376E-2,-7.057371549E-3
1.824324798E1,4.926844500E-3,1.078579482E-2,-1.398158539E-2
1.826351787E1,1.185105834E-2,1.984053478E-2,-1.451421715E-2
1.828378777E1,5.992108025E-3,7.590003312E-3,-7.590003312E-3
1.830405772E1,-2.530001104E-3,-1.211737376E-2,-1.331579551E-4
1.832432761E1,-4.660528619E-3,-1.424790081E-2,3.062632866E-3
1.834459751E1,1.731053460E-3,6.657897611E-4,8.388951421E-3
1.836486735E1,7.590003312E-3,1.930790395E-2,9.454214945E-3
1.838513730E1,7.590003312E-3,1.238369010E-2,1.158474199E-2
1.840540719E1,1.731053460E-3,-5.725792143E-3,1.211737376E-2
1.842567709E1,-2.530001104E-3,-2.223737910E-2,6.791055668E-3
1.844594693E1,2.263685223E-3,-1.744369231E-2,3.595264861E-3
1.846621683E1,1.557948068E-2,-5.725792143E-3,9.321057005E-4
1.848648673E1,1.930790395E-2,1.078579482E-2,-1.331579551E-4
1.850675662E1,8.122635074E-3,1.504684892E-2,-2.263685223E-3
1.852702652E1,-1.997369342E-3,4.926844500E-3,3.994738800E-4
1.854729641E1,-4.127896391E-3,-8.921583183E-3,1.997369342E-3
1.856768506E1,-6.258423906E-3,-1.584579609E-2,5.193160381E-3
1.858783615E1,-9.321057238E-3,-1.744369231E-2,2.530001104E-3
1.860810605E1,-7.856319658E-3,-3.062632866E-3,3.994738800E-4
1.862850605E1,2.263685223E-3,1.078579482E-2,-1.331579551E-4
1.864864579E1,1.344895363E-2,1.504684892E-2,3.062632866E-3
1.866891563E1,1.398158539E-2,-1.997369342E-3,9.986846708E-3
1.868918553E1,4.926844500E-3,-2.330264263E-2,1.318263728E-2
1.870945537E1,-2.530001104E-3,-2.916159295E-2,1.105211023E-2
1.872985537E1,1.731053460E-3,-1.478053257E-2,5.193160381E-3
1.874999511E1,1.238369010E-2,1.291632187E-2,3.994738800E-4
1.877026501E1,2.143843099E-2,2.516685426E-2,2.530001104E-3
1.879053485E1,1.611211337E-2,1.984053478E-2,8.921583183E-3
1.881080475E1,-1.464737463E-3,1.504684892E-2,1.265000552E-2
1.883120475E1,-9.321057238E-3,1.131842658E-2,1.158474199E-2
1.885134443E1,-4.660528619E-3,7.590003312E-3,8.921583183E-3
1.887161433E1,-9.321057005E-4,1.504684892E-2,3.595264861E-3
1.889188417E1,2.796316985E-3,1.877527125E-2,9.321057005E-4
1.891215402E1,7.057371549E-3,1.451421715E-2,3.595264861E-3
1.893255402E1,9.187898599E-3,1.131842658E-2,6.791055668E-3
1.895269376E1,7.590003312E-3,1.131842658E-2,8.921583183E-3
1.897296360E1,7.590003312E-3,9.187898599E-3,6.258423906E-3
1.899323350E1,9.187898599E-3,4.394212738E-3,2.530001104E-3
1.901350334E1,1.238369010E-2,6.657897611E-4,3.994738800E-4
1.903390334E1,1.078579482E-2,5.992108025E-3,-1.731053460E-3
1.905404303E1,7.057371549E-3,7.590003312E-3,-2.263685223E-3
1.907431287E1,3.861580743E-3,9.187898599E-3,9.321057005E-4
1.909458272E1,1.731053460E-3,1.331579551E-4,3.595264861E-3
1.911485261E1,1.331579551E-4,-8.388951421E-3,1.464737463E-3
1.913512246E1,2.796316985E-3,-9.321057005E-4,1.997369342E-3
1.915539230E1,1.504684892E-2,1.185105834E-2,4.660528619E-3
1.917574084E1,1.611211337E-2,6.524739787E-3,1.051947847E-2
1.919593209E1,2.263685223E-3,-1.478053257E-2,1.637842879E-2
1.921620193E1,-7.856319658E-3,-3.129211813E-2,1.531316526E-2
1.923647178E1,-3.062632866E-3,-2.969422378E-2,9.454214945E-3
1.925674157E1,1.198421582E-3,-1.158474199E-2,-6.657897611E-4
1.927701146E1,4.394212738E-3,9.187898599E-3,-8.122635074E-3
1.929728131E1,1.131842658E-2,8.122635074E-3,-5.459476262E-3
1.931755115E1,1.717737690E-2,-1.464737463E-3,-6.657897611E-4
1.933782094E1,1.185105834E-2,-1.957421936E-2,5.193160381E-3
1.935809084E1,2.263685223E-3,-2.649843320E-2,8.921583183E-3
1.937836068E1,-3.994738800E-4,-1.531316526E-2,1.105211023E-2
1.939863048E1,1.198421582E-3,5.992108025E-3,9.454214945E-3
1.941890032E1,2.263685223E-3,1.504684892E-2,7.856319658E-3
1.943917016E1,5.992108025E-3,4.926844500E-3,3.595264861E-3
1.945944001E1,9.720530361E-3,-4.660528619E-3,3.062632866E-3
1.947970985E1,1.238369010E-2,2.796316985E-3,1.464737463E-3
1.949997969E1,1.557948068E-2,1.078579482E-2,3.994738800E-4
1.952024954E1,1.611211337E-2,8.655266836E-3,-6.657897611E-4
1.954051938E1,1.238369010E-2,-9.321057005E-4,1.464737463E-3
1.956078923E1,4.926844500E-3,-8.388951421E-3,3.062632866E-3
1.958105907E1,-9.321057005E-4,-1.997369342E-3,2.530001104E-3
1.960132891E1,-3.595264861E-3,2.143843099E-2,2.530001104E-3
1.962159876E1,-3.595264861E-3,2.516685426E-2,4.127896391E-3
1.964186860E1,-1.997369342E-3,6.524739787E-3,4.127896391E-3
1.966213844E1,4.394212738E-3,-3.994738800E-4,3.062632866E-3
1.968240829E1,1.131842658E-2,9.720530361E-3,9.321057005E-4
1.970267813E1,1.451421715E-2,1.877527125E-2,-3.328948980E-3
1.972294798E1,7.590003312E-3,2.037316747E-2,-1.331579551E-4
1.974321777E1,6.657897611E-4,1.185105834E-2,1.464737463E-3
1.976348766E1,1.731053460E-3,-1.997369342E-3,5.193160381E-3
1.978375751E1,9.720530361E-3,-8.921583183E-3,5.725792143E-3
1.980402730E1,1.238369010E-2,2.796316985E-3,3.994738800E-4
1.982429714E1,1.238369010E-2,1.025316212E-2,-4.926844500E-3
1.984456699E1,1.451421715E-2,5.992108025E-3,-5.992108025E-3
1.986483683E1,1.344895363E-2,-4.127896391E-3,-2.263685223E-3
1.988510667E1,6.657897611E-4,-1.105211023E-2,-1.331579551E-4
1.990537652E1,-1.038632076E-2,-9.986846708E-3,9.321057005E-4
1.992564636E1,-9.853689000E-3,1.731053460E-3,9.321057005E-4
1.994591620E1,-4.127896391E-3,2.037316747E-2,1.997369342E-3
1.996618605E1,-1.464737463E-3,2.729738131E-2,1.464737463E-3
1.998645589E1,-3.994738800E-4,1.398158539E-2,5.725792143E-3
2.000672574E1,3.861580743E-3,-5.193160381E-3,7.856319658E-3
2.002699558E1,9.187898599E-3,-1.051947847E-2,7.856319658E-3
2.004726542E1,1.185105834E-2,-7.323687430E-3,4.127896391E-3
2.006753527E1,1.451421715E-2,-6.258423906E-3,1.997369342E-3
2.008780511E1,8.655266836E-3,-6.258423906E-3,1.464737463E-3
2.010807496E1,1.331579551E-4,-3.994738800E-4,3.994738800E-4
2.012847496E1,-3.062632866E-3,8.655266836E-3,1.464737463E-3
2.014861464E1,-3.595264861E-3,2.263685223E-3,6.791055668E-3
2.016888449E1,-5.725792143E-3,-1.318263728E-2,4.127896391E-3
2.018915433E1,-6.258423906E-3,-5.725792143E-3,1.997369342E-3
2.020942417E1,1.331579551E-4,1.451421715E-2,1.997369342E-3
2.022982417E1,8.655266836E-3,1.984053478E-2,3.062632866E-3
2.024996386E1,5.459476262E-3,8.655266836E-3,1.158474199E-2
2.027023371E1,-3.994738800E-4,-1.158474199E-2,2.063948289E-2
2.029050360E1,6.657897611E-4,-2.862896025E-2,2.490053698E-2
2.031077344E1,7.057371549E-3,-3.289001435E-2,1.850895584E-2
2.033117344E1,1.451421715E-2,-1.584579609E-2,3.595264861E-3
2.035131313E1,1.557948068E-2,6.524739787E-3,-5.459476262E-3
2.037158298E1,1.344895363E-2,9.187898599E-3,-8.122635074E-3
2.039185282E1,5.992108025E-3,1.731053460E-3,-3.861580743E-3
2.041212266E1,6.657897611E-4,-1.158474199E-2,3.062632866E-3
2.043252266E1,-5.193160381E-3,-1.531316526E-2,1.051947847E-2
2.045266235E1,-1.198421605E-2,1.731053460E-3,8.921583183E-3
2.047293219E1,-7.856319658E-3,1.504684892E-2,7.323687430E-3
2.049320209E1,1.198421582E-3,1.664474420E-2,6.791055668E-3
2.051347193E1,5.992108025E-3,5.459476262E-3,5.725792143E-3
2.053374178E1,4.926844500E-3,-7.856319658E-3,1.997369342E-3
2.055401162E1,3.861580743E-3,-1.211737376E-2,-6.657897611E-4
2.057428147E1,8.655266836E-3,-8.921583183E-3,-1.331579551E-4
2.059455131E1,1.238369010E-2,1.331579551E-4,-1.731053460E-3
2.061482115E1,9.187898599E-3,1.025316212E-2,-3.328948980E-3
2.063522115E1,2.263685223E-3,1.557948068E-2,-5.992108025E-3
2.065536084E1,-9.321057005E-4,9.720530361E-3,-2.796316985E-3
2.067563068E1,-1.464737463E-3,3.328948980E-3,2.530001104E-3
2.069590053E1,-6.791055668E-3,-7.323687430E-3,4.127896391E-3
2.071617042E1,-7.323687430E-3,-5.193160381E-3,-1.331579551E-4
2.073644027E1,2.263685223E-3,1.771000773E-2,3.994738800E-4
2.075671011E1,1.398158539E-2,3.155843541E-2,3.994738800E-4
2.077697996E1,1.557948068E-2,1.398158539E-2,7.856319658E-3
2.079724980E1,3.861580743E-3,-1.744369231E-2,1.265000552E-2
2.081751964E1,-3.595264861E-3,-2.809632942E-2,7.323687430E-3
2.083778949E1,3.328948980E-3,-1.424790081E-2,2.530001104E-3
2.085805933E1,1.078579482E-2,7.590003312E-3,-4.394212738E-3
2.087832917E1,7.590003312E-3,1.344895363E-2,-7.057371549E-3
2.089859902E1,5.459476262E-3,6.657897611E-4,-3.328948980E-3
2.091886886E1,3.861580743E-3,-1.211737376E-2,-1.331579551E-4
2.093913870E1,1.331579551E-4,-9.454214945E-3,1.464737463E-3
2.095940855E1,-3.994738800E-4,-1.464737463E-3,-1.198421582E-3
2.097967839E1,1.198421582E-3,5.992108025E-3,-1.331579551E-4
2.099994824E1,1.331579551E-4,7.590003312E-3,-1.731053460E-3
2.102021808E1,1.331579551E-4,3.861580743E-3,-2.263685223E-3
2.104048792E1,6.657897611E-4,-9.321057005E-4,-1.198421582E-3
2.106075777E1,1.198421582E-3,-7.323687430E-3,-2.263685223E-3
2.108102761E1,3.861580743E-3,-4.127896391E-3,-2.796316985E-3
2.110129746E1,8.122635074E-3,4.926844500E-3,-2.263685223E-3
2.112156730E1,1.078579482E-2,6.524739787E-3,-2.263685223E-3
2.114183714E1,1.025316212E-2,6.657897611E-4,-1.198421582E-3
2.116210699E1,4.394212738E-3,-7.323687430E-3,-6.657897611E-4
2.118237683E1,6.657897611E-4,-7.856319658E-3,-1.731053460E-3
2.120264667E1,-4.660528619E-3,-1.464737463E-3,-1.331579551E-4
2.122291652E1,-7.856319658E-3,-8.921583183E-3,-1.731053460E-3
2.124318636E1,-7.856319658E-3,-1.371526904E-2,-9.187898599E-3
2.126345620E1,6.657897611E-4,8.655266836E-3,-9.720530361E-3
2.128372600E1,1.344895363E-2,3.581948951E-2,-1.185105834E-2
2.130399589E1,1.664474420E-2,3.901528195E-2,-7.057371549E-3
2.132426568E1,4.394212738E-3,9.187898599E-3,1.464737463E-3
2.134453553E1,-1.038632076E-2,-2.490053698E-2,9.454214945E-3
2.136480537E1,-1.198421605E-2,-3.874896467E-2,9.454214945E-3
2.138507522E1,-6.258423906E-3,-2.010685205E-2,1.997369342E-3
2.140534506E1,-4.660528619E-3,1.398158539E-2,-9.187898599E-3
2.142565423E1,-3.994738800E-4,2.889527567E-2,-1.824264042E-2
2.144588480E1,7.057371549E-3,1.664474420E-2,-1.877527125E-2
2.146615464E1,8.655266836E-3,-3.062632866E-3,-1.504684892E-2
2.148642449E1,1.198421582E-3,-2.063948289E-2,-8.655266836E-3
2.150669428E1,-8.388951421E-3,-2.543316968E-2,-3.328948980E-3
2.152696417E1,-1.145158429E-2,-1.371526904E-2,-1.198421582E-3
2.154723391E1,-1.091895252E-2,7.590003312E-3,-3.328948980E-3
2.156750381E1,-1.145158429E-2,2.090579830E-2,-4.926844500E-3
2.158777360E1,-1.198421605E-2,1.717737690E-2,-6.524739787E-3
2.160804344E1,-8.921583183E-3,2.263685223E-3,-6.524739787E-3
2.162844344E1,-5.725792143E-3,-2.530001104E-3,-7.057371549E-3
2.164858313E1,-1.997369342E-3,-3.994738800E-4,-9.187898599E-3
2.166885298E1,4.926844500E-3,-3.994738800E-4,-5.459476262E-3
2.168912282E1,-3.994738800E-4,2.263685223E-3,-4.394212738E-3
2.170939261E1,-1.145158429E-2,6.657897611E-4,-1.331579551E-4
2.172979261E1,-1.571263932E-2,3.861580743E-3,3.994738800E-4
2.174993230E1,-1.890842989E-2,7.057371549E-3,3.595264861E-3
2.177020214E1,-2.476738021E-2,6.524739787E-3,-2.796316985E-3
2.179047199E1,-1.784316637E-2,9.720530361E-3,-5.459476262E-3
2.181074183E1,-6.791055668E-3,2.356895804E-2,-7.590003312E-3
2.183114183E1,1.731053460E-3,2.676474862E-2,-9.720530361E-3
2.185128147E1,1.331579551E-4,1.611211337E-2,-4.394212738E-3
2.187155131E1,-9.321057238E-3,6.657897611E-4,3.062632866E-3
2.189182115E1,-1.251684781E-2,-6.258423906E-3,7.323687430E-3
2.191209100E1,-1.358211134E-2,-5.725792143E-3,6.258423906E-3
2.193249100E1,-1.091895252E-2,1.025316212E-2,1.997369342E-3
2.195263063E1,-7.856319658E-3,2.516685426E-2,-2.796316985E-3
2.197290048E1,-3.595264861E-3,2.303632535E-2,-5.459476262E-3
2.199317032E1,-6.258423906E-3,7.590003312E-3,-4.394212738E-3
2.201344016E1,-7.856319658E-3,-2.530001104E-3,-1.331579551E-4
2.203384016E1,-7.856319658E-3,-3.595264861E-3,2.530001104E-3
2.205397980E1,-5.193160381E-3,-9.321057005E-4,4.660528619E-3
2.207424964E1,-4.127896391E-3,7.590003312E-3,5.193160381E-3
2.209451949E1,-6.258423906E-3,1.238369010E-2,4.127896391E-3
2.211478933E1,-7.856319658E-3,9.720530361E-3,2.530001104E-3
2.213505912E1,-7.323687430E-3,-1.464737463E-3,9.321057005E-4
2.215532897E1,-3.595264861E-3,-8.388951421E-3,1.464737463E-3
2.217559881E1,-1.464737463E-3,-3.062632866E-3,-3.328948980E-3
2.219586860E1,-1.997369342E-3,3.328948980E-3,-4.394212738E-3
2.221613844E1,6.657897611E-4,4.394212738E-3,-4.394212738E-3
2.223640829E1,4.394212738E-3,-1.997369342E-3,-1.731053460E-3
2.225667813E1,-2.530001104E-3,-9.454214945E-3,9.321057005E-4
2.227694798E1,-1.251684781E-2,-7.323687430E-3,9.321057005E-4
2.229721777E1,-1.518000662E-2,-1.105211023E-2,-6.657897611E-4
2.231748761E1,-9.853689000E-3,-1.105211023E-2,-5.992108025E-3
2.233775746E1,-3.062632866E-3,-9.321057005E-4,-7.590003312E-3
2.235802725E1,-1.997369342E-3,1.557948068E-2,-9.187898599E-3
2.237829709E1,-3.595264861E-3,2.037316747E-2,-8.655266836E-3
2.239856693E1,-8.921583183E-3,1.025316212E-2,9.321057005E-4
2.241883678E1,-9.321057238E-3,-5.193160381E-3,9.986846708E-3
2.243910657E1,-8.388951421E-3,-1.211737376E-2,1.371526904E-2
2.245937641E1,-5.193160381E-3,-8.388951421E-3,8.388951421E-3
2.247964626E1,-9.321057005E-4,4.926844500E-3,-1.731053460E-3
2.249991610E1,5.459476262E-3,1.291632187E-2,-8.122635074E-3
2.252018594E1,7.057371549E-3,9.720530361E-3,-7.057371549E-3
2.254045574E1,-3.595264861E-3,-3.994738800E-4,-1.198421582E-3
2.256072558E1,-1.571263932E-2,-7.856319658E-3,5.725792143E-3
2.258099542E1,-1.038632076E-2,-6.258423906E-3,9.454214945E-3
2.260126522E1,-5.725792143E-3,9.187898599E-3,1.105211023E-2
2.262153506E1,-2.530001104E-3,1.611211337E-2,1.051947847E-2
2.264180490E1,-1.464737463E-3,1.451421715E-2,8.388951421E-3
2.266207475E1,-1.464737463E-3,5.992108025E-3,6.791055668E-3
2.268234454E1,1.331579551E-4,-8.921583183E-3,7.323687430E-3
2.270261438E1,2.796316985E-3,-1.584579609E-2,8.388951421E-3
2.272288423E1,1.731053460E-3,-1.051947847E-2,7.856319658E-3
2.274315407E1,1.198421582E-3,-5.725792143E-3,5.725792143E-3
2.276342391E1,2.263685223E-3,-3.595264861E-3,5.725792143E-3
2.278369376E1,1.198421582E-3,1.731053460E-3,4.660528619E-3
2.280396355E1,1.198421582E-3,5.459476262E-3,4.660528619E-3
2.282423339E1,-3.994738800E-4,5.459476262E-3,8.921583183E-3
2.284450324E1,-3.062632866E-3,-1.158474199E-2,1.211737376E-2
2.286477308E1,-7.323687430E-3,-2.596580051E-2,8.388951421E-3
2.288504292E1,-6.791055668E-3,-7.856319658E-3,6.258423906E-3
2.290531272E1,2.796316985E-3,1.451421715E-2,4.127896391E-3
2.292558256E1,1.238369010E-2,1.771000773E-2,8.388951421E-3
2.294585240E1,8.655266836E-3,-1.997369342E-3,1.371526904E-2
2.296612225E1,1.331579551E-4,-2.543316968E-2,1.637842879E-2
2.298639209E1,-3.062632866E-3,-3.608580679E-2,1.318263728E-2
2.300666193E1,-1.464737463E-3,-2.010685205E-2,5.193160381E-3
2.302693178E1,3.328948980E-3,1.331579551E-4,-1.198421582E-3
2.304720157E1,1.025316212E-2,1.025316212E-2,-2.796316985E-3
2.306760157E1,1.451421715E-2,5.992108025E-3,3.595264861E-3
2.308774126E1,1.185105834E-2,-1.265000552E-2,9.986846708E-3
2.310801110E1,7.057371549E-3,-2.010685205E-2,1.211737376E-2
2.312841110E1,5.992108025E-3,-1.584579609E-2,1.318263728E-2
2.314855079E1,9.187898599E-3,-1.105211023E-2,1.211737376E-2
2.316882063E1,8.655266836E-3,-5.193160381E-3,1.051947847E-2
2.318909048E1,7.057371549E-3,-1.464737463E-3,5.725792143E-3
2.320936032E1,7.590003312E-3,9.187898599E-3,1.997369342E-3
2.322976032E1,1.078579482E-2,2.037316747E-2,-6.657897611E-4
2.324990001E1,1.078579482E-2,2.836264484E-2,-4.394212738E-3
2.327016985E1,5.992108025E-3,2.303632535E-2,-5.992108025E-3
2.329043969E1,-1.464737463E-3,1.984053478E-2,-2.263685223E-3
2.331070954E1,-5.193160381E-3,2.996053919E-2,3.595264861E-3
2.333110954E1,-1.464737463E-3,4.008054361E-2,5.725792143E-3
2.335124923E1,3.861580743E-3,4.221107066E-2,7.323687430E-3
2.337151907E1,3.328948980E-3,3.102580272E-2,8.388951421E-3
2.339178891E1,7.057371549E-3,-2.530001104E-3,3.595264861E-3
2.341205876E1,1.398158539E-2,-1.850895584E-2,1.464737463E-3
2.343245876E1,1.984053478E-2,2.796316985E-3,-4.926844500E-3
2.345259850E1,1.984053478E-2,1.611211337E-2,-1.025316212E-2
2.347286834E1,1.131842658E-2,8.655266836E-3,-6.657897611E-4
2.349313818E1,5.992108025E-3,-1.424790081E-2,1.051947847E-2
2.351340803E1,8.655266836E-3,-3.715106845E-2,1.797632314E-2
2.353367787E1,8.655266836E-3,-2.543316968E-2,1.371526904E-2
2.355394772E1,1.025316212E-2,-1.997369342E-3,3.062632866E-3
2.357421761E1,1.611211337E-2,-1.997369342E-3,-5.992108025E-3
2.359448751E1,1.877527125E-2,-1.105211023E-2,-1.078579482E-2
2.361475735E1,1.877527125E-2,-2.330264263E-2,-7.590003312E-3
2.363502719E1,2.090579830E-2,-3.075948730E-2,-2.263685223E-3
2.365529704E1,2.410159074E-2,-3.129211813E-2,1.997369342E-3
2.367556693E1,2.143843099E-2,-3.555317223E-2,5.725792143E-3
2.369583678E1,1.238369010E-2,-3.874896467E-2,7.323687430E-3
2.371610662E1,1.131842658E-2,-3.289001435E-2,6.258423906E-3
2.373637647E1,8.122635074E-3,-1.744369231E-2,9.321057005E-4
2.375664636E1,4.394212738E-3,-1.211737376E-2,-3.861580743E-3
2.377691621E1,9.720530361E-3,-1.850895584E-2,-3.861580743E-3
2.379718610E1,2.197106183E-2,-2.862896025E-2,1.464737463E-3
2.381745589E1,2.676474862E-2,-3.448791057E-2,5.725792143E-3
2.383772584E1,2.569948509E-2,-3.768370301E-2,1.371526904E-2
2.385799568E1,2.356895804E-2,-5.206476152E-2,1.957421936E-2
2.387826553E1,1.877527125E-2,-5.632581562E-2,2.330264263E-2
2.389853542E1,1.291632187E-2,-4.780370742E-2,2.330264263E-2
2.391880527E1,1.131842658E-2,-4.993423447E-2,1.904158667E-2
2.393907516E1,1.078579482E-2,-5.366265774E-2,1.211737376E-2
2.395934506E1,1.238369010E-2,-3.448791057E-2,9.986846708E-3
2.397961485E1,1.451421715E-2,6.657897611E-4,1.997369342E-3
2.399988480E1,1.930790395E-2,1.025316212E-2,1.464737463E-3
2.402015469E1,1.185105834E-2,1.731053460E-3,9.986846708E-3
2.404042454E1,1.198421582E-3,-1.904158667E-2,1.158474199E-2
2.406069443E1,1.198421582E-3,-2.916159295E-2,7.323687430E-3
2.408096428E1,1.078579482E-2,-7.856319658E-3,2.530001104E-3
2.410123417E1,1.398158539E-2,1.877527125E-2,-4.926844500E-3
2.412150407E1,1.557948068E-2,2.623211779E-2,-7.590003312E-3
2.414177397E1,1.504684892E-2,2.250369452E-2,-4.394212738E-3
2.416204376E1,1.185105834E-2,1.504684892E-2,4.660528619E-3
2.418231371E1,5.459476262E-3,1.344895363E-2,6.791055668E-3
2.420258360E1,-3.994738800E-4,2.356895804E-2,5.725792143E-3
2.422285350E1,-3.062632866E-3,3.422159329E-2,4.660528619E-3
2.424312334E1,-3.994738800E-4,3.688475490E-2,2.530001104E-3
2.426339324E1,3.861580743E-3,3.315633163E-2,1.464737463E-3
2.428366308E1,7.057371549E-3,2.836264484E-2,3.994738800E-4
2.430393303E1,6.524739787E-3,2.569948509E-2,3.994738800E-4
2.432420287E1,5.459476262E-3,2.463422157E-2,3.994738800E-4
2.434447277E1,5.459476262E-3,2.090579830E-2,-2.796316985E-3
2.436474266E1,4.394212738E-3,1.664474420E-2,3.994738800E-4
2.438501256E1,2.263685223E-3,1.451421715E-2,6.258423906E-3
2.440528246E1,1.331579551E-4,1.185105834E-2,9.986846708E-3
2.442555235E1,3.861580743E-3,1.664474420E-2,9.454214945E-3
2.444582225E1,9.187898599E-3,1.557948068E-2,1.105211023E-2
2.446609214E1,8.122635074E-3,-6.791055668E-3,7.856319658E-3
2.448649214E1,7.590003312E-3,-1.957421936E-2,2.530001104E-3
2.450663193E1,9.720530361E-3,-1.105211023E-2,-6.657897611E-4
2.452690183E1,1.291632187E-2,2.263685223E-3,-7.057371549E-3
2.454717173E1,1.078579482E-2,1.771000773E-2,-4.926844500E-3
2.456744162E1,2.796316985E-3,2.569948509E-2,7.323687430E-3
2.458771152E1,-3.595264861E-3,1.185105834E-2,1.904158667E-2
2.460798141E1,-4.660528619E-3,-1.158474199E-2,2.490053698E-2
2.462838141E1,-5.193160381E-3,-7.856319658E-3,1.744369231E-2
2.464852126E1,4.394212738E-3,1.398158539E-2,5.725792143E-3
2.466879115E1,1.504684892E-2,3.528685868E-2,-1.331579551E-4
2.468906105E1,1.664474420E-2,2.516685426E-2,3.994738800E-4
2.470933094E1,5.992108025E-3,-2.530001104E-3,9.321057005E-4
2.472973094E1,-3.595264861E-3,-7.323687430E-3,1.997369342E-3
2.474987074E1,-9.321057005E-4,1.025316212E-2,2.530001104E-3
2.477014058E1,8.122635074E-3,2.516685426E-2,5.725792143E-3
2.479041058E1,8.122635074E-3,2.463422157E-2,8.388951421E-3
2.481068048E1,-1.464737463E-3,1.025316212E-2,6.791055668E-3
2.483108048E1,-4.127896391E-3,6.657897611E-4,4.660528619E-3
2.485122027E1,3.328948980E-3,9.187898599E-3,-1.331579551E-4
2.487149016E1,1.398158539E-2,1.930790395E-2,-2.263685223E-3
2.489176011E1,1.504684892E-2,1.611211337E-2,-1.198421582E-3
2.491203001E1,8.655266836E-3,6.524739787E-3,1.997369342E-3
2.493243001E1,-3.994738800E-4,-4.660528619E-3,3.062632866E-3
2.495256980E1,-3.595264861E-3,-9.986846708E-3,4.127896391E-3
2.497283975E1,1.198421582E-3,6.657897611E-4,6.791055668E-3
2.499310964E1,1.731053460E-3,1.451421715E-2,6.791055668E-3
2.501337954E1,-1.997369342E-3,6.524739787E-3,4.127896391E-3
2.503377954E1,6.657897611E-4,-6.258423906E-3,-6.657897611E-4
2.505391938E1,1.185105834E-2,2.263685223E-3,-3.861580743E-3
2.507418928E1,1.451421715E-2,1.078579482E-2,-1.185105834E-2
2.509445917E1,8.655266836E-3,1.078579482E-2,-9.720530361E-3
2.511472912E1,3.328948980E-3,7.590003312E-3,-6.657897611E-4
2.513512912E1,1.731053460E-3,2.263685223E-3,7.856319658E-3
2.515526896E1,2.796316985E-3,-7.856319658E-3,1.531316526E-2
2.517553886E1,6.524739787E-3,-1.158474199E-2,1.265000552E-2
2.519580876E1,1.131842658E-2,-7.323687430E-3,4.127896391E-3
2.521607870E1,1.930790395E-2,-2.530001104E-3,-1.731053460E-3
2.523634855E1,2.250369452E-2,-9.454214945E-3,-1.198421582E-3
2.525661855E1,1.771000773E-2,-2.809632942E-2,1.464737463E-3
2.527688844E1,2.796316985E-3,-2.436790615E-2,3.062632866E-3
2.529715834E1,-5.725792143E-3,-7.856319658E-3,1.464737463E-3
2.531742829E1,-3.595264861E-3,3.861580743E-3,-1.331579551E-4
2.533769824E1,-1.997369342E-3,1.238369010E-2,1.464737463E-3
2.535796813E1,-1.464737463E-3,1.131842658E-2,1.997369342E-3
2.537823808E1,6.657897611E-4,3.328948980E-3,1.464737463E-3
2.539850798E1,2.263685223E-3,6.657897611E-4,-1.731053460E-3
2.541877792E1,3.861580743E-3,2.796316985E-3,-1.731053460E-3
2.543904787E1,4.394212738E-3,-1.464737463E-3,-3.328948980E-3
2.545931777E1,3.328948980E-3,-7.856319658E-3,-3.328948980E-3
2.547958772E1,-1.464737463E-3,-4.660528619E-3,-1.198421582E-3
2.549985766E1,-7.856319658E-3,1.185105834E-2,1.997369342E-3
2.552012756E1,-7.856319658E-3,1.930790395E-2,1.464737463E-3
2.554039751E1,-7.856319658E-3,1.611211337E-2,4.660528619E-3
2.556066746E1,-4.660528619E-3,1.731053460E-3,7.856319658E-3
2.558093735E1,2.263685223E-3,-5.725792143E-3,8.921583183E-3
2.560120730E1,3.861580743E-3,-6.258423906E-3,1.211737376E-2
2.562147725E1,-1.464737463E-3,-1.584579609E-2,1.211737376E-2
2.564174719E1,-9.321057238E-3,-2.969422378E-2,1.371526904E-2
2.566201709E1,-9.853689000E-3,-2.703106403E-2,1.850895584E-2
2.568228704E1,-6.791055668E-3,-1.371526904E-2,1.850895584E-2
2.570255693E1,1.198421582E-3,-8.921583183E-3,1.424790081E-2
2.572282693E1,9.720530361E-3,-1.997369342E-3,8.388951421E-3
2.574309688E1,1.131842658E-2,1.504684892E-2,8.388951421E-3
2.576336683E1,1.025316212E-2,1.185105834E-2,1.158474199E-2
2.578363673E1,9.187898599E-3,-1.531316526E-2,1.904158667E-2
2.580390667E1,1.198421582E-3,-2.809632942E-2,2.117211558E-2
2.582417662E1,-1.997369342E-3,-1.105211023E-2,1.371526904E-2
2.584444657E1,1.238369010E-2,2.729738131E-2,5.193160381E-3
2.586471652E1,2.729738131E-2,5.446160212E-2,-1.198421582E-3
2.588498646E1,2.783001214E-2,4.647212476E-2,3.994738800E-4
2.590525641E1,1.025316212E-2,1.344895363E-2,-2.796316985E-3
2.592552636E1,-2.530001104E-2,-1.997369342E-3,-1.344895363E-2
2.594579626E1,-5.086633936E-2,2.250369452E-2,-2.836264484E-2
2.596606626E1,-4.926844314E-2,7.310371846E-2,-3.475422785E-2
2.598633620E1,-1.624527015E-2,1.093226820E-1,-2.623211779E-2
2.600660610E1,1.451421715E-2,9.867004305E-2,-7.057371549E-3
2.602687605E1,2.090579830E-2,4.008054361E-2,9.454214945E-3
2.604714600E1,1.331579551E-4,-1.318263728E-2,1.584579609E-2
2.606741594E1,-1.997369342E-2,-3.395527974E-2,1.478053257E-2
2.608768589E1,-1.731053367E-2,-3.928159550E-2,1.424790081E-2
2.610795584E1,-9.321057238E-3,-2.969422378E-2,5.193160381E-3
2.612835584E1,-9.321057238E-3,-2.530001104E-3,-4.394212738E-3
2.614849574E1,-3.595264861E-3,3.848264739E-2,-1.451421715E-2
2.616876568E1,1.451421715E-2,5.712476373E-2,-1.771000773E-2
2.618903563E1,1.824264042E-2,3.901528195E-2,-8.122635074E-3
2.620930558E1,-5.725792143E-3,1.198421582E-3,6.791055668E-3
2.622970558E1,-2.689790726E-2,-3.342264518E-2,1.744369231E-2
2.624984553E1,-2.423474751E-2,-4.567318037E-2,1.584579609E-2
2.627011548E1,-1.251684781E-2,-6.791055668E-3,5.193160381E-3
2.629038542E1,1.198421582E-3,3.635212034E-2,-3.328948980E-3
2.631065537E1,9.187898599E-3,3.315633163E-2,-9.720530361E-3
2.633105537E1,3.328948980E-3,6.657897611E-4,-1.611211337E-2
2.635119527E1,-5.725792143E-3,-2.490053698E-2,-1.611211337E-2
2.637146522E1,-3.994738800E-4,-2.862896025E-2,-1.344895363E-2
2.639173516E1,7.590003312E-3,-3.555317223E-2,-6.524739787E-3
2.641200511E1,-4.660528619E-3,-3.874896467E-2,-3.328948980E-3
2.643240511E1,-2.157158963E-2,-3.235738352E-2,-2.796316985E-3
2.645254501E1,-2.263685316E-2,-1.158474199E-2,-5.459476262E-3
2.647281501E1,-1.358211134E-2,1.078579482E-2,-7.057371549E-3
2.649308496E1,-7.323687430E-3,1.078579482E-2,-9.187898599E-3
2.651335490E1,-4.660528619E-3,-6.258423906E-3,-5.992108025E-3
2.653362485E1,-6.791055668E-3,-2.063948289E-2,-7.057371549E-3
2.655389475E1,-8.388951421E-3,-2.862896025E-2,-1.731053460E-3
2.657416475E1,-9.321057238E-3,-2.649843320E-2,1.464737463E-3
2.659443469E1,-1.411474310E-2,-1.637842879E-2,3.994738800E-4
2.661470469E1,-2.370211668E-2,2.263685223E-3,-3.328948980E-3
2.663497464E1,-2.689790726E-2,1.451421715E-2,-4.394212738E-3
2.665524459E1,-1.677790284E-2,1.930790395E-2,-5.992108025E-3
2.667551454E1,-9.321057005E-4,2.569948509E-2,-8.122635074E-3
2.669578454E1,3.328948980E-3,2.516685426E-2,-5.992108025E-3
2.671605449E1,-1.464737463E-3,1.198421582E-3,-2.796316985E-3
2.673632443E1,-1.518000662E-2,-1.637842879E-2,7.856319658E-3
2.675659438E1,-2.636527456E-2,-1.424790081E-2,1.211737376E-2
2.677686433E1,-2.476738021E-2,-9.321057005E-4,7.323687430E-3
2.679713428E1,-1.624527015E-2,1.930790395E-2,-1.731053460E-3
2.681740428E1,-5.725792143E-3,4.008054361E-2,-1.291632187E-2
2.683767423E1,-3.994738800E-4,3.581948951E-2,-1.824264042E-2
2.685794417E1,-3.062632866E-3,2.037316747E-2,-1.557948068E-2
2.687821412E1,-9.321057238E-3,6.657897611E-4,-7.590003312E-3
2.689848402E1,-1.464737486E-2,-1.105211023E-2,-1.731053460E-3
2.691875407E1,-1.624527015E-2,-1.997369342E-3,9.321057005E-4
2.693902402E1,-1.304947957E-2,1.771000773E-2,3.994738800E-4
2.695929396E1,-1.251684781E-2,1.984053478E-2,-1.331579551E-4
2.697956391E1,-1.198421605E-2,7.057371549E-3,-1.731053460E-3
2.699983391E1,-8.388951421E-3,-4.127896391E-3,-3.861580743E-3
2.702010386E1,-9.321057005E-4,-3.062632866E-3,-3.328948980E-3
2.704037381E1,2.796316985E-3,2.796316985E-3,-2.796316985E-3
2.706064376E1,2.263685223E-3,6.657897611E-4,-2.263685223E-3
2.708091370E1,2.263685223E-3,-7.856319658E-3,-1.731053460E-3
2.710118365E1,3.861580743E-3,-1.637842879E-2,-1.331579551E-4
2.712145365E1,-9.321057005E-4,-1.691105962E-2,-2.263685223E-3
2.714172360E1,6.657897611E-4,-1.265000552E-2,-1.731053460E-3
2.716199355E1,-9.321057005E-4,-3.595264861E-3,3.062632866E-3
2.718226350E1,-7.856319658E-3,-1.105211023E-2,1.997369342E-3
2.720253344E1,-1.038632076E-2,-1.691105962E-2,-2.796316985E-3
2.722280339E1,-1.997369342E-3,2.796316985E-3,-4.926844500E-3
2.724307334E1,1.025316212E-2,1.664474420E-2,-7.590003312E-3
2.726334324E1,1.131842658E-2,7.590003312E-3,-8.122635074E-3
2.728361324E1,-1.464737463E-3,-6.791055668E-3,9.321057005E-4
2.730388324E1,-5.725792143E-3,-2.010685205E-2,7.856319658E-3
2.732415318E1,-3.994738800E-4,-2.063948289E-2,6.791055668E-3
2.734442313E1,5.992108025E-3,-7.856319658E-3,1.464737463E-3
2.736469308E1,8.122635074E-3,9.187898599E-3,-7.057371549E-3
2.738496303E1,8.655266836E-3,1.291632187E-2,-1.078579482E-2
2.740523298E1,7.057371549E-3,5.992108025E-3,-8.655266836E-3
2.742550292E1,1.198421582E-3,-6.258423906E-3,-3.328948980E-3
2.744577282E1,-2.530001104E-3,-8.388951421E-3,4.660528619E-3
2.746604282E1,-1.464737463E-3,-2.530001104E-3,7.323687430E-3
2.748631272E1,1.731053460E-3,1.185105834E-2,6.791055668E-3
2.750658272E1,3.861580743E-3,2.569948509E-2,5.725792143E-3
2.752685261E1,5.459476262E-3,2.303632535E-2,4.127896391E-3
2.754712256E1,7.057371549E-3,7.057371549E-3,4.127896391E-3
2.756739251E1,5.459476262E-3,-8.388951421E-3,3.062632866E-3
2.758766246E1,5.459476262E-3,-9.986846708E-3,-1.731053460E-3
2.760793240E1,9.720530361E-3,3.328948980E-3,-5.992108025E-3
2.762832115E1,1.557948068E-2,1.771000773E-2,-8.122635074E-3
2.764847230E1,1.557948068E-2,2.037316747E-2,-7.057371549E-3
2.766874225E1,1.025316212E-2,1.291632187E-2,-3.328948980E-3
2.768901219E1,5.459476262E-3,2.263685223E-3,1.997369342E-3
2.770928214E1,3.328948980E-3,-3.595264861E-3,5.725792143E-3
2.772968214E1,-3.994738800E-4,-7.856319658E-3,5.725792143E-3
2.774982199E1,-1.464737463E-3,-8.388951421E-3,9.321057005E-4
2.777009193E1,5.459476262E-3,3.861580743E-3,-3.328948980E-3
2.779036188E1,1.451421715E-2,1.557948068E-2,-7.057371549E-3
2.781063183E1,1.984053478E-2,1.504684892E-2,-5.992108025E-3
2.783103183E1,1.557948068E-2,6.524739787E-3,-1.198421582E-3
2.785117167E1,7.590003312E-3,-1.158474199E-2,9.986846708E-3
2.787144162E1,1.731053460E-3,-2.649843320E-2,1.424790081E-2
2.789171157E1,1.731053460E-3,-2.809632942E-2,1.105211023E-2
2.791198146E1,7.057371549E-3,-1.691105962E-2,-1.198421582E-3
2.793238147E1,1.504684892E-2,6.524739787E-3,-1.238369010E-2
2.795252136E1,2.143843099E-2,1.771000773E-2,-1.717737690E-2
2.797279126E1,2.410159074E-2,9.187898599E-3,-1.344895363E-2
2.799306120E1,1.717737690E-2,-1.584579609E-2,-6.524739787E-3
2.801333115E1,5.459476262E-3,-3.448791057E-2,-6.657897611E-4
2.803373115E1,-3.062632866E-3,-3.395527974E-2,-1.198421582E-3
2.805387100E1,-4.127896391E-3,-1.531316526E-2,-1.198421582E-3
2.807414089E1,-2.530001104E-3,1.131842658E-2,-3.861580743E-3
2.809441084E1,-4.660528619E-3,3.688475490E-2,-7.590003312E-3
2.811468079E1,-1.464737463E-3,4.807002097E-2,-1.238369010E-2
2.813495068E1,7.057371549E-3,3.795001656E-2,-1.291632187E-2
2.815522058E1,1.131842658E-2,1.930790395E-2,-1.451421715E-2
2.817549053E1,8.655266836E-3,3.861580743E-3,-1.451421715E-2
2.819576048E1,3.861580743E-3,7.057371549E-3,-1.185105834E-2
2.821603037E1,3.861580743E-3,1.877527125E-2,-9.720530361E-3
2.823630027E1,2.796316985E-3,3.475422785E-2,-5.459476262E-3
2.825657022E1,6.657897611E-4,3.581948951E-2,9.321057005E-4
2.827684011E1,-1.997369342E-3,1.131842658E-2,3.062632866E-3
2.829711006E1,6.657897611E-4,-1.904158667E-2,3.062632866E-3
2.831737996E1,1.078579482E-2,-3.502054140E-2,6.791055668E-3
2.833764985E1,2.356895804E-2,-3.555317223E-2,5.725792143E-3
2.835791980E1,3.954791278E-2,-3.821633384E-2,1.265000552E-2
2.837818969E1,4.966791719E-2,-6.165213138E-2,1.691105962E-2
2.839858969E1,4.860265180E-2,-9.680583328E-2,2.223737910E-2
2.841872949E1,3.635212034E-2,-1.308942735E-1,2.277000993E-2
2.843899943E1,2.729738131E-2,-1.436774284E-1,1.531316526E-2
2.845926933E1,2.410159074E-2,-1.181111038E-1,1.464737463E-3
2.847953923E1,2.197106183E-2,-7.816372067E-2,-1.131842658E-2
2.849980912E1,1.451421715E-2,-4.886896908E-2,-1.824264042E-2
2.852007902E1,1.731053460E-3,-2.543316968E-2,-1.611211337E-2
2.854034891E1,-3.595264861E-3,-2.596580051E-2,-9.187898599E-3
2.856061881E1,6.657897611E-4,-4.567318037E-2,9.321057005E-4
2.858088876E1,6.657897611E-4,-4.673844203E-2,1.371526904E-2
2.860115865E1,-4.127896391E-3,-3.235738352E-2,2.170474641E-2
2.862142855E1,2.796316985E-3,-3.075948730E-2,2.596580051E-2
2.864169844E1,1.664474420E-2,-4.354264960E-2,2.649843320E-2
2.866196834E1,2.356895804E-2,-5.739107728E-2,2.596580051E-2
2.868223824E1,2.410159074E-2,-6.484792382E-2,2.543316968E-2
2.870250813E1,1.877527125E-2,-6.378266215E-2,1.744369231E-2
2.872277803E1,1.344895363E-2,-4.886896908E-2,7.323687430E-3
2.874304792E1,1.504684892E-2,-4.727107286E-2,4.660528619E-3
2.876331782E1,1.291632187E-2,-3.289001435E-2,-1.731053460E-3
2.878358772E1,1.198421582E-3,1.331579551E-4,-3.328948980E-3
2.880385756E1,-7.856319658E-3,2.783001214E-2,3.595264861E-3
2.882412746E1,-1.145158429E-2,3.795001656E-2,5.725792143E-3
2.884439735E1,-1.038632076E-2,3.741738573E-2,6.258423906E-3
2.886466725E1,-7.323687430E-3,4.274370521E-2,5.193160381E-3
2.888493709E1,1.331579551E-4,4.753739014E-2,3.595264861E-3
2.890520699E1,5.992108025E-3,3.741738573E-2,8.388951421E-3
2.892547688E1,1.331579551E-4,3.209106624E-2,1.318263728E-2
2.894574678E1,-1.411474310E-2,2.037316747E-2,1.478053257E-2
2.896601662E1,-1.464737486E-2,-4.127896391E-3,1.211737376E-2
2.898628652E1,-1.038632076E-2,-8.388951421E-3,4.127896391E-3
2.900655641E1,-2.530001104E-3,1.557948068E-2,-4.926844500E-3
2.902682626E1,3.328948980E-3,5.073318258E-2,-9.720530361E-3
2.904709615E1,3.328948980E-3,5.552686751E-2,-1.238369010E-2
2.906736600E1,-5.725792143E-3,4.540686309E-2,-9.187898599E-3
2.908763589E1,-1.304947957E-2,2.516685426E-2,-6.524739787E-3
2.910790574E1,-1.411474310E-2,9.187898599E-3,3.994738800E-4
2.912829443E1,-1.677790284E-2,1.344895363E-2,-6.657897611E-4
2.914844548E1,-1.624527015E-2,1.717737690E-2,-6.657897611E-4
2.916871537E1,-1.358211134E-2,1.664474420E-2,-3.328948980E-3
2.918898522E1,-6.258423906E-3,1.771000773E-2,-4.394212738E-3
2.920925506E1,-3.994738800E-4,2.410159074E-2,-2.263685223E-3
2.922965506E1,-3.994738800E-4,1.078579482E-2,-1.731053460E-3
2.924979480E1,1.331579551E-4,-1.478053257E-2,-2.263685223E-3
2.927006464E1,4.926844500E-3,-4.247738793E-2,3.595264861E-3
2.929033454E1,3.861580743E-3,-3.821633384E-2,2.530001104E-3
2.931060438E1,-9.321057005E-4,-1.904158667E-2,-1.731053460E-3
2.933100438E1,2.263685223E-3,-3.595264861E-3,-1.731053460E-3
2.935114412E1,2.263685223E-3,-6.258423906E-3,9.321057005E-4
2.937141397E1,-2.530001104E-3,-2.969422378E-2,-1.731053460E-3
2.939168381E1,-4.127896391E-3,-2.543316968E-2,9.321057005E-4
2.941195365E1,1.198421582E-3,-9.454214945E-3,1.997369342E-3
2.943235365E1,9.187898599E-3,-8.921583183E-3,5.193160381E-3
2.945249334E1,1.198421582E-3,-2.436790615E-2,1.318263728E-2
2.947276313E1,-8.388951421E-3,-4.407528415E-2,1.531316526E-2
2.949303303E1,-5.725792143E-3,-6.271740049E-2,9.986846708E-3
2.951330287E1,4.394212738E-3,-4.727107286E-2,-2.263685223E-3
2.953357277E1,8.122635074E-3,-4.660528619E-3,-1.504684892E-2
2.955384261E1,1.451421715E-2,2.037316747E-2,-1.611211337E-2
2.957411240E1,1.611211337E-2,1.344895363E-2,-9.720530361E-3
2.959438225E1,2.263685223E-3,-1.158474199E-2,9.321057005E-4
2.961465209E1,-1.358211134E-2,-3.235738352E-2,7.856319658E-3
2.963505209E1,-1.624527015E-2,-2.809632942E-2,1.211737376E-2
2.965519178E1,-6.791055668E-3,-8.388951421E-3,1.105211023E-2
2.967546162E1,-2.530001104E-3,1.238369010E-2,4.660528619E-3
2.969573146E1,-6.791055668E-3,1.877527125E-2,-1.198421582E-3
2.971600126E1,-9.853689000E-3,1.398158539E-2,-4.394212738E-3
2.973627110E1,-7.856319658E-3,7.590003312E-3,-7.057371549E-3
2.975654094E1,-5.193160381E-3,1.717737690E-2,-7.590003312E-3
2.977681079E1,-5.193160381E-3,2.356895804E-2,-9.187898599E-3
2.979708058E1,-5.725792143E-3,2.356895804E-2,-5.992108025E-3
2.981735042E1,-8.388951421E-3,2.463422157E-2,-4.394212738E-3
2.983762027E1,-1.038632076E-2,2.676474862E-2,-3.328948980E-3
2.985789006E1,-7.856319658E-3,2.729738131E-2,-2.796316985E-3
2.987815990E1,-4.127896391E-3,2.143843099E-2,1.464737463E-3
2.989842969E1,-8.921583183E-3,4.394212738E-3,3.062632866E-3
2.991869954E1,-1.091895252E-2,-3.062632866E-3,1.997369342E-3
2.993896938E1,-2.530001104E-3,1.344895363E-2,3.994738800E-4
2.995923917E1,6.524739787E-3,2.623211779E-2,-4.926844500E-3
2.997950902E1,7.590003312E-3,1.824264042E-2,-3.861580743E-3
2.999977881E1,-4.127896391E-3,6.657897611E-4,4.660528619E-3
3.002004860E1,-1.784316637E-2,-1.531316526E-2,8.388951421E-3
3.004031844E1,-1.571263932E-2,-2.436790615E-2,5.725792143E-3
3.006058824E1,-5.725792143E-3,-7.856319658E-3,-3.861580743E-3
3.008085803E1,3.861580743E-3,2.143843099E-2,-1.504684892E-2
3.010112787E1,1.078579482E-2,2.729738131E-2,-1.877527125E-2
3.012139772E1,1.185105834E-2,1.238369010E-2,-1.398158539E-2
3.014166751E1,3.328948980E-3,-5.725792143E-3,-7.057371549E-3
3.016193730E1,-6.258423906E-3,-2.383527346E-2,1.997369342E-3
3.018220714E1,-9.853689000E-3,-3.608580679E-2,4.660528619E-3
3.020247693E1,-1.145158429E-2,-2.703106403E-2,4.127896391E-3
3.022274673E1,-9.321057238E-3,-6.791055668E-3,3.062632866E-3
3.024301652E1,-5.725792143E-3,1.824264042E-2,-1.731053460E-3
3.026328636E1,6.657897611E-4,2.037316747E-2,-3.861580743E-3
3.028355615E1,5.992108025E-3,-3.994738800E-4,-4.394212738E-3
3.030382594E1,9.720530361E-3,-1.957421936E-2,-2.263685223E-3
3.032409574E1,1.185105834E-2,-3.182475269E-2,-6.657897611E-4
3.034436553E1,9.720530361E-3,-3.874896467E-2,-6.657897611E-4
3.036463532E1,-9.321057005E-4,-3.235738352E-2,9.321057005E-4
3.038490511E1,-1.038632076E-2,-1.478053257E-2,-1.198421582E-3
3.040517490E1,-1.304947957E-2,8.122635074E-3,-1.198421582E-3
3.042544469E1,-1.304947957E-2,2.356895804E-2,-2.263685223E-3
3.044571449E1,-1.518000662E-2,1.291632187E-2,-8.122635074E-3
3.046598428E1,-8.921583183E-3,3.861580743E-3,-8.655266836E-3
3.048625407E1,1.331579551E-4,7.590003312E-3,-1.025316212E-2
3.050665407E1,3.861580743E-3,6.657897611E-4,-1.025316212E-2
3.052679365E1,-3.062632866E-3,1.198421582E-3,-5.459476262E-3
3.054706344E1,-1.464737486E-2,2.263685223E-3,3.595264861E-3
3.056746344E1,-1.624527015E-2,-4.660528619E-3,7.856319658E-3
3.058760303E1,-1.251684781E-2,-4.127896391E-3,4.127896391E-3
3.060787272E1,-5.725792143E-3,4.394212738E-3,-2.796316985E-3
3.062822126E1,1.331579551E-4,1.398158539E-2,-1.131842658E-2
3.064841246E1,1.198421582E-3,1.291632187E-2,-1.504684892E-2
3.066868225E1,-1.464737463E-3,1.198421582E-3,-1.291632187E-2
3.068895199E1,-9.321057238E-3,-1.637842879E-2,-4.926844500E-3
3.070922173E1,-1.837579720E-2,-1.318263728E-2,-1.331579551E-4
3.072962173E1,-2.050632425E-2,-3.062632866E-3,2.530001104E-3
3.074976131E1,-1.518000662E-2,1.185105834E-2,2.530001104E-3
3.077003105E1,-1.304947957E-2,2.783001214E-2,-1.331579551E-4
3.079030084E1,-1.145158429E-2,1.930790395E-2,-3.328948980E-3
3.081057058E1,-5.193160381E-3,-6.791055668E-3,-3.861580743E-3
3.083097058E1,-1.997369342E-3,-2.010685205E-2,-3.861580743E-3
3.085111016E1,6.657897611E-4,-1.424790081E-2,-3.861580743E-3
3.087137990E1,3.328948980E-3,-4.660528619E-3,-6.524739787E-3
3.089164969E1,3.861580743E-3,-5.193160381E-3,-5.992108025E-3
3.091191938E1,-3.595264861E-3,-9.454214945E-3,-4.926844500E-3
3.093231938E1,-1.251684781E-2,-3.062632866E-3,-4.394212738E-3
3.095245891E1,-1.677790284E-2,1.025316212E-2,-4.926844500E-3
3.097272870E1,-1.784316637E-2,1.930790395E-2,-3.861580743E-3
3.099299844E1,-1.837579720E-2,1.185105834E-2,-5.992108025E-3
3.101326818E1,-1.464737486E-2,1.451421715E-2,-9.187898599E-3
3.103366818E1,-6.258423906E-3,2.143843099E-2,-1.238369010E-2
3.105380772E1,3.328948980E-3,1.877527125E-2,-1.344895363E-2
3.107407746E1,1.198421582E-3,1.078579482E-2,-7.057371549E-3
3.109434725E1,-7.856319658E-3,-5.725792143E-3,2.530001104E-3
3.111461699E1,-1.890842989E-2,-2.330264263E-2,6.791055668E-3
3.113488673E1,-2.103895694E-2,-3.342264518E-2,1.997369342E-3
3.115515652E1,-1.624527015E-2,-8.921583183E-3,-6.524739787E-3
3.117542626E1,-2.530001104E-3,2.197106183E-2,-1.557948068E-2
3.119569600E1,3.861580743E-3,2.729738131E-2,-2.250369452E-2
3.121596574E1,-1.464737463E-3,1.557948068E-2,-1.984053478E-2
3.123623553E1,-1.411474310E-2,-7.856319658E-3,-9.720530361E-3
3.125650527E1,-1.944106072E-2,-2.703106403E-2,-1.731053460E-3
3.127677501E1,-1.677790284E-2,-1.531316526E-2,-1.731053460E-3
3.129704475E1,-1.358211134E-2,1.504684892E-2,-2.796316985E-3
3.131731449E1,-1.358211134E-2,2.889527567E-2,-3.861580743E-3
3.133758423E1,-1.677790284E-2,1.984053478E-2,-4.926844500E-3
3.135798423E1,-2.157158963E-2,1.238369010E-2,-5.992108025E-3
3.137812371E1,-1.944106072E-2,1.398158539E-2,-4.926844500E-3
3.139852371E1,-9.853689000E-3,1.930790395E-2,-6.524739787E-3
3.141866324E1,-4.660528619E-3,2.676474862E-2,-4.926844500E-3
3.143893292E1,-6.258423906E-3,1.717737690E-2,-1.731053460E-3
3.145920266E1,-1.304947957E-2,3.861580743E-3,3.994738800E-4
3.147947240E1,-2.316948399E-2,2.796316985E-3,3.062632866E-3
3.149974214E1,-2.849580161E-2,1.611211337E-2,4.127896391E-3
3.152001188E1,-3.169159219E-2,3.635212034E-2,5.193160381E-3
3.154028162E1,-3.009369783E-2,3.475422785E-2,4.127896391E-3
3.156055136E1,-1.837579720E-2,3.155843541E-2,9.321057005E-4
3.158082110E1,-4.660528619E-3,4.753739014E-2,3.994738800E-4
3.160122110E1,1.731053460E-3,4.966791719E-2,-1.331579551E-4
3.162136053E1,-1.464737463E-3,3.528685868E-2,6.258423906E-3
3.164163027E1,-2.530001104E-3,1.771000773E-2,1.797632314E-2
3.166190001E1,-1.997369342E-3,2.263685223E-3,2.703106403E-2
3.168216975E1,-3.062632866E-3,-1.318263728E-2,2.277000993E-2
3.170243943E1,-3.994738800E-4,-9.986846708E-3,1.211737376E-2
3.172270917E1,7.590003312E-3,2.037316747E-2,-6.657897611E-4
3.174297891E1,1.451421715E-2,2.783001214E-2,-1.198421582E-3
3.176324860E1,5.459476262E-3,1.504684892E-2,1.464737463E-3
3.178351834E1,-1.145158429E-2,-7.323687430E-3,7.856319658E-3
3.180378803E1,-1.890842989E-2,-1.584579609E-2,1.105211023E-2
3.182405777E1,-1.251684781E-2,-3.595264861E-3,1.105211023E-2
3.184432751E1,-3.062632866E-3,1.717737690E-2,1.051947847E-2
3.186459719E1,4.926844500E-3,1.824264042E-2,9.454214945E-3
3.188486693E1,4.394212738E-3,-1.464737463E-3,9.986846708E-3
3.190513662E1,3.328948980E-3,-2.649843320E-2,8.921583183E-3
3.192540636E1,6.524739787E-3,-3.395527974E-2,8.388951421E-3
3.194567605E1,1.185105834E-2,-2.649843320E-2,4.127896391E-3
3.196594579E1,1.557948068E-2,-1.531316526E-2,1.997369342E-3
3.198621548E1,1.717737690E-2,-1.584579609E-2,6.791055668E-3
3.200648516E1,1.238369010E-2,-1.797632314E-2,1.211737376E-2
3.202675490E1,3.328948980E-3,-2.277000993E-2,1.265000552E-2
3.204702459E1,-5.725792143E-3,-1.744369231E-2,1.478053257E-2
3.206729433E1,-7.323687430E-3,-7.323687430E-3,1.478053257E-2
3.208756402E1,-1.997369342E-3,-8.388951421E-3,1.158474199E-2
3.210783371E1,6.524739787E-3,-1.531316526E-2,6.791055668E-3
3.212814282E1,1.025316212E-2,-1.464737463E-3,5.725792143E-3
3.214837318E1,1.344895363E-2,8.655266836E-3,4.660528619E-3
3.216864287E1,1.451421715E-2,6.657897611E-4,1.478053257E-2
3.218891256E1,7.590003312E-3,-1.158474199E-2,2.170474641E-2
3.220918230E1,6.657897611E-4,-2.063948289E-2,2.117211558E-2
3.222958230E1,1.198421582E-3,-2.277000993E-2,1.318263728E-2
3.224972167E1,5.459476262E-3,-3.595264861E-3,3.595264861E-3
3.226999136E1,8.122635074E-3,1.078579482E-2,-4.926844500E-3
3.229026105E1,9.187898599E-3,2.037316747E-2,-5.992108025E-3
3.231053079E1,4.926844500E-3,1.557948068E-2,2.530001104E-3
3.233093079E1,-4.127896391E-3,4.394212738E-3,5.725792143E-3
3.235107016E1,-3.062632866E-3,-3.062632866E-3,9.986846708E-3
3.237133980E1,4.394212738E-3,3.861580743E-3,1.105211023E-2
3.239160949E1,6.524739787E-3,1.398158539E-2,7.856319658E-3
3.241187917E1,6.657897611E-4,2.197106183E-2,6.258423906E-3
3.243227917E1,-5.193160381E-3,2.250369452E-2,3.595264861E-3
3.245241855E1,-3.595264861E-3,1.664474420E-2,1.997369342E-3
3.247268824E1,-9.321057005E-4,1.238369010E-2,2.530001104E-3
3.249295792E1,4.926844500E-3,9.720530361E-3,4.660528619E-3
3.251322761E1,4.926844500E-3,8.122635074E-3,4.127896391E-3
3.253349730E1,2.796316985E-3,8.655266836E-3,4.127896391E-3
3.255376699E1,-1.464737463E-3,1.344895363E-2,4.660528619E-3
3.257403667E1,-5.193160381E-3,1.877527125E-2,5.193160381E-3
3.259430636E1,-3.062632866E-3,2.303632535E-2,7.323687430E-3
3.261457605E1,-3.062632866E-3,2.250369452E-2,1.371526904E-2
3.263484574E1,-1.997369342E-3,5.459476262E-3,1.318263728E-2
3.265511537E1,4.926844500E-3,1.731053460E-3,8.388951421E-3
3.267538506E1,1.238369010E-2,1.930790395E-2,9.454214945E-3
3.269565475E1,1.771000773E-2,2.303632535E-2,1.318263728E-2
3.271592443E1,1.344895363E-2,1.451421715E-2,2.170474641E-2
3.273619407E1,1.198421582E-3,-2.530001104E-3,2.969422378E-2
3.275646376E1,-1.198421605E-2,-2.117211558E-2,2.436790615E-2
3.277673344E1,-1.145158429E-2,-3.289001435E-2,1.318263728E-2
3.279700313E1,-3.062632866E-3,-1.211737376E-2,-3.861580743E-3
3.281727282E1,1.131842658E-2,3.635212034E-2,-1.771000773E-2
3.283754246E1,2.623211779E-2,5.605949834E-2,-2.356895804E-2
3.285781214E1,2.889527567E-2,3.528685868E-2,-2.037316747E-2
3.287808178E1,1.771000773E-2,2.263685223E-3,-1.398158539E-2
3.289835147E1,1.025316212E-2,-1.904158667E-2,-9.187898599E-3
3.291862115E1,1.025316212E-2,-1.904158667E-2,-7.057371549E-3
3.293889079E1,1.078579482E-2,-2.530001104E-3,-6.524739787E-3
3.295916048E1,8.122635074E-3,1.291632187E-2,-7.590003312E-3
3.297943011E1,5.459476262E-3,1.877527125E-2,-5.992108025E-3
3.299969980E1,6.524739787E-3,1.398158539E-2,-7.590003312E-3
3.301996943E1,5.459476262E-3,1.198421582E-3,-7.590003312E-3
3.304023912E1,8.122635074E-3,-4.127896391E-3,-6.524739787E-3
3.306050881E1,9.720530361E-3,-1.464737463E-3,-5.992108025E-3
3.308077839E1,8.122635074E-3,2.796316985E-3,-4.926844500E-3
3.310104813E1,2.263685223E-3,4.394212738E-3,-1.198421582E-3
3.312131777E1,-5.193160381E-3,-3.994738800E-4,-4.394212738E-3
3.314158746E1,-5.725792143E-3,1.198421582E-3,-1.025316212E-2
3.316185709E1,-5.193160381E-3,1.344895363E-2,-1.398158539E-2
3.318212678E1,-5.725792143E-3,7.057371549E-3,-1.504684892E-2
3.320239641E1,-3.994738800E-4,-1.265000552E-2,-1.717737690E-2
3.322266605E1,8.122635074E-3,-6.258423906E-3,-1.238369010E-2
3.324293574E1,1.344895363E-2,7.590003312E-3,-1.185105834E-2
3.326320537E1,1.238369010E-2,1.131842658E-2,-2.796316985E-3
3.328360537E1,2.263685223E-3,1.344895363E-2,5.193160381E-3
3.330374469E1,-4.660528619E-3,5.992108025E-3,1.318263728E-2
3.332401433E1,-5.193160381E-3,-1.105211023E-2,1.424790081E-2
3.334428396E1,1.198421582E-3,-1.850895584E-2,6.791055668E-3
3.336455365E1,8.655266836E-3,-1.424790081E-2,-3.861580743E-3
3.338482329E1,1.344895363E-2,-5.193160381E-3,-1.398158539E-2
3.340509292E1,1.504684892E-2,4.394212738E-3,-1.611211337E-2
3.342549292E1,9.720530361E-3,5.992108025E-3,-1.238369010E-2
3.344579022E1,3.328948980E-3,-7.323687430E-3,-2.263685223E-3
3.346590251E1,-1.464737463E-3,-1.744369231E-2,3.062632866E-3
3.348617204E1,-3.595264861E-3,-1.051947847E-2,5.725792143E-3
3.350644157E1,-4.127896391E-3,4.926844500E-3,3.595264861E-3
3.352671110E1,-1.997369342E-3,1.185105834E-2,1.997369342E-3
3.354698068E1,-1.464737463E-3,9.187898599E-3,3.994738800E-4
3.356725027E1,-9.321057005E-4,-1.997369342E-3,-2.796316985E-3
3.358751985E1,2.263685223E-3,-6.791055668E-3,-3.861580743E-3
3.360778938E1,8.122635074E-3,-1.997369342E-3,-5.459476262E-3
3.362805907E1,1.238369010E-2,8.122635074E-3,-6.524739787E-3
3.364832871E1,8.122635074E-3,9.720530361E-3,-6.524739787E-3
3.366859834E1,-3.994738800E-4,3.328948980E-3,-3.328948980E-3
3.368886798E1,-8.921583183E-3,1.731053460E-3,-1.331579551E-4
3.370913756E1,-1.091895252E-2,1.238369010E-2,2.530001104E-3
3.372953756E1,-9.853689000E-3,1.824264042E-2,5.193160381E-3
3.374967683E1,-9.321057238E-3,1.131842658E-2,-6.657897611E-4
3.376994647E1,-3.994738800E-4,1.131842658E-2,-1.731053460E-3
3.379021605E1,5.992108025E-3,2.143843099E-2,-5.459476262E-3
3.381048574E1,8.655266836E-3,1.557948068E-2,-3.861580743E-3
3.383088574E1,3.328948980E-3,3.328948980E-3,4.660528619E-3
3.385102501E1,-7.856319658E-3,-7.856319658E-3,1.158474199E-2
3.387129464E1,-1.358211134E-2,-1.744369231E-2,1.158474199E-2
3.389156423E1,-9.321057238E-3,-9.986846708E-3,4.127896391E-3
3.391183386E1,-3.595264861E-3,1.504684892E-2,-7.590003312E-3
3.393223386E1,8.122635074E-3,2.783001214E-2,-1.238369010E-2
3.395237313E1,1.344895363E-2,1.451421715E-2,-9.720530361E-3
3.397264272E1,4.394212738E-3,-5.725792143E-3,-1.731053460E-3
3.399291230E1,-6.258423906E-3,-2.383527346E-2,4.127896391E-3
3.401318193E1,-1.198421605E-2,-2.170474641E-2,9.454214945E-3
3.403358193E1,-6.791055668E-3,-6.791055668E-3,1.265000552E-2
3.405372120E1,-4.127896391E-3,7.057371549E-3,8.388951421E-3
3.407399079E1,-4.127896391E-3,1.451421715E-2,2.530001104E-3
3.409426042E1,6.657897611E-4,6.657897611E-4,-1.198421582E-3
3.411453006E1,8.655266836E-3,-1.478053257E-2,-4.394212738E-3
3.413493006E1,1.291632187E-2,-2.170474641E-2,-3.861580743E-3
3.415506928E1,1.344895363E-2,-1.637842879E-2,-3.328948980E-3
3.417533891E1,8.122635074E-3,-1.478053257E-2,-1.198421582E-3
3.419560850E1,1.731053460E-3,-1.584579609E-2,1.464737463E-3
3.421587813E1,-8.921583183E-3,-1.371526904E-2,2.530001104E-3
3.423614777E1,-1.358211134E-2,3.861580743E-3,3.994738800E-4
3.425641735E1,-1.038632076E-2,2.197106183E-2,-1.331579551E-4
3.427668699E1,-3.595264861E-3,2.410159074E-2,1.464737463E-3
3.429695657E1,-1.997369342E-3,3.861580743E-3,-1.198421582E-3
3.431722621E1,2.263685223E-3,-9.986846708E-3,-5.992108025E-3
3.433749579E1,8.655266836E-3,-5.193160381E-3,-6.524739787E-3
3.435776542E1,1.025316212E-2,-4.127896391E-3,-6.524739787E-3
3.437803501E1,2.263685223E-3,-1.464737463E-3,2.530001104E-3
3.439830464E1,-9.853689000E-3,3.861580743E-3,8.921583183E-3
3.441857423E1,-1.304947957E-2,6.524739787E-3,9.986846708E-3
3.443884386E1,-7.323687430E-3,6.524739787E-3,1.997369342E-3
3.445911344E1,-9.321057005E-4,1.451421715E-2,-4.926844500E-3
3.447938308E1,3.328948980E-3,1.984053478E-2,-1.025316212E-2
3.449965266E1,4.926844500E-3,1.078579482E-2,-1.238369010E-2
3.451992225E1,1.731053460E-3,2.796316985E-3,-6.524739787E-3
3.454019183E1,-6.258423906E-3,5.992108025E-3,-6.657897611E-4
3.456046146E1,-1.145158429E-2,5.459476262E-3,4.660528619E-3
3.458073105E1,-9.321057238E-3,7.590003312E-3,7.856319658E-3
3.460100063E1,-7.323687430E-3,5.459476262E-3,1.051947847E-2
3.462127027E1,-5.725792143E-3,1.025316212E-2,7.856319658E-3
3.464153985E1,-3.062632866E-3,3.328948980E-3,2.530001104E-3
3.466180943E1,6.657897611E-4,1.331579551E-4,-6.657897611E-4
3.468207902E1,5.992108025E-3,-9.454214945E-3,-1.731053460E-3
3.470234865E1,8.655266836E-3,-1.691105962E-2,-6.657897611E-4
3.472274865E1,9.187898599E-3,-1.691105962E-2,9.321057005E-4
3.474288782E1,6.524739787E-3,-1.424790081E-2,3.062632866E-3
3.476315740E1,2.796316985E-3,-1.051947847E-2,5.193160381E-3
3.478342699E1,-1.997369342E-3,-9.321057005E-4,5.725792143E-3
3.480369657E1,-9.321057238E-3,1.131842658E-2,4.660528619E-3
3.482396621E1,-1.091895252E-2,9.720530361E-3,4.660528619E-3
3.484423579E1,-7.856319658E-3,-8.388951421E-3,6.791055668E-3
3.486450537E1,-3.595264861E-3,-2.010685205E-2,3.595264861E-3
3.488477496E1,1.198421582E-3,-1.464737463E-3,-1.331579551E-4
3.490504454E1,8.122635074E-3,1.557948068E-2,-3.861580743E-3
3.492531412E1,1.664474420E-2,7.590003312E-3,-1.331579551E-4
3.494558371E1,1.025316212E-2,-8.388951421E-3,8.388951421E-3
3.496585329E1,-4.660528619E-3,-3.129211813E-2,1.424790081E-2
3.498612287E1,-1.038632076E-2,-4.087949172E-2,1.265000552E-2
3.500639246E1,-8.388951421E-3,-1.904158667E-2,2.530001104E-3
3.502666204E1,1.331579551E-4,1.717737690E-2,-1.078579482E-2
3.504693162E1,1.238369010E-2,2.996053919E-2,-1.504684892E-2
3.506720120E1,1.131842658E-2,1.664474420E-2,-9.720530361E-3
3.508747074E1,2.796316985E-3,-1.265000552E-2,-1.731053460E-3
3.510774032E1,-3.595264861E-3,-3.395527974E-2,6.258423906E-3
3.512800990E1,-5.193160381E-3,-2.969422378E-2,9.986846708E-3
3.514827949E1,-4.127896391E-3,-1.265000552E-2,9.454214945E-3
3.516854907E1,6.657897611E-4,-2.530001104E-3,9.454214945E-3
3.518881865E1,2.796316985E-3,-7.856319658E-3,7.323687430E-3
3.520908818E1,1.731053460E-3,-1.478053257E-2,4.127896391E-3
3.522948818E1,4.394212738E-3,-2.170474641E-2,-1.331579551E-4
3.524962735E1,1.025316212E-2,-2.223737910E-2,-4.926844500E-3
3.526989693E1,1.078579482E-2,-6.791055668E-3,-4.394212738E-3
3.529016652E1,4.394212738E-3,2.263685223E-3,-1.731053460E-3
3.531043605E1,-4.660528619E-3,1.731053460E-3,3.062632866E-3
3.533083605E1,-1.358211134E-2,1.291632187E-2,5.193160381E-3
3.535097522E1,-1.837579720E-2,2.942790836E-2,2.530001104E-3
3.537124480E1,-1.145158429E-2,4.753739014E-2,3.062632866E-3
3.539151433E1,-7.323687430E-3,5.073318258E-2,2.530001104E-3
3.541178391E1,-7.323687430E-3,2.889527567E-2,-3.861580743E-3
3.543218391E1,-1.997369342E-3,2.783001214E-2,-8.655266836E-3
3.545232303E1,4.394212738E-3,3.848264739E-2,-1.131842658E-2
3.547272303E1,9.187898599E-3,3.102580272E-2,-8.655266836E-3
3.549286214E1,1.331579551E-4,2.143843099E-2,-1.331579551E-4
3.551313173E1,-1.198421605E-2,8.122635074E-3,3.595264861E-3
3.553340126E1,-1.518000662E-2,-1.464737463E-3,1.464737463E-3
3.555367084E1,-1.038632076E-2,1.398158539E-2,-5.992108025E-3
3.557394037E1,-2.530001104E-3,4.167843983E-2,-1.291632187E-2
3.559420996E1,8.122635074E-3,4.913528636E-2,-1.291632187E-2
3.561447949E1,1.291632187E-2,2.197106183E-2,-3.328948980E-3
3.563474902E1,1.331579551E-4,-1.424790081E-2,5.193160381E-3
3.565501860E1,-1.624527015E-2,-4.141212255E-2,7.856319658E-3
3.567528818E1,-1.784316637E-2,-4.301001877E-2,8.388951421E-3
3.569555772E1,-6.258423906E-3,-1.531316526E-2,4.127896391E-3
3.571582725E1,8.655266836E-3,1.238369010E-2,-1.198421582E-3
3.573609683E1,1.185105834E-2,9.720530361E-3,-5.459476262E-3
3.575636636E1,1.131842658E-2,-1.318263728E-2,-7.590003312E-3
3.577663589E1,1.025316212E-2,-4.034686089E-2,-5.992108025E-3
3.579690542E1,1.291632187E-2,-5.099949613E-2,-3.328948980E-3
3.581717501E1,1.238369010E-2,-4.141212255E-2,-2.263685223E-3
3.583744454E1,5.459476262E-3,-2.596580051E-2,-2.263685223E-3
3.585771407E1,-3.994738800E-4,-1.637842879E-2,-2.263685223E-3
3.587798360E1,-3.062632866E-3,-7.856319658E-3,-3.328948980E-3
3.589825313E1,-3.062632866E-3,-9.321057005E-4,-2.796316985E-3
3.591852266E1,3.861580743E-3,4.394212738E-3,-3.861580743E-3
3.593879219E1,5.992108025E-3,-1.997369342E-3,1.464737463E-3
3.595906178E1,1.198421582E-3,-2.916159295E-2,9.321057005E-4
3.597933131E1,2.796316985E-3,-4.460791498E-2,-2.796316985E-3
3.599960084E1,7.057371549E-3,-1.424790081E-2,-3.328948980E-3
3.601987037E1,1.078579482E-2,1.611211337E-2,-8.655266836E-3
3.604013990E1,5.459476262E-3,2.197106183E-2,-5.992108025E-3
3.606040943E1,-3.062632866E-3,1.824264042E-2,1.464737463E-3
3.608067897E1,-9.853689000E-3,5.459476262E-3,9.986846708E-3
3.610094850E1,-6.791055668E-3,-5.725792143E-3,9.454214945E-3
3.612121803E1,-4.660528619E-3,5.459476262E-3,1.997369342E-3
3.614148756E1,6.657897611E-4,2.197106183E-2,-4.394212738E-3
3.616175709E1,5.992108025E-3,2.250369452E-2,-9.720530361E-3
3.618202662E1,8.122635074E-3,1.771000773E-2,-1.025316212E-2
3.620229615E1,-1.464737463E-3,1.451421715E-2,-9.187898599E-3
3.622256563E1,-6.791055668E-3,9.187898599E-3,-5.459476262E-3
3.624283522E1,-5.725792143E-3,1.664474420E-2,-1.331579551E-4
3.626310475E1,-5.193160381E-3,1.824264042E-2,3.062632866E-3
3.628337423E1,-7.856319658E-3,1.930790395E-2,3.062632866E-3
3.630364376E1,-1.304947957E-2,1.611211337E-2,3.595264861E-3
3.632391329E1,-9.853689000E-3,1.664474420E-2,3.062632866E-3
3.634418282E1,-3.062632866E-3,1.611211337E-2,1.464737463E-3
3.636445230E1,2.796316985E-3,1.185105834E-2,-6.657897611E-4
3.638472183E1,4.926844500E-3,9.187898599E-3,-4.394212738E-3
3.640499136E1,9.187898599E-3,-4.127896391E-3,-4.926844500E-3
3.642526084E1,1.025316212E-2,-1.318263728E-2,-2.263685223E-3
3.644553037E1,5.992108025E-3,-1.211737376E-2,9.321057005E-4
3.646579990E1,-2.530001104E-3,-6.791055668E-3,1.464737463E-3
3.648606943E1,-6.258423906E-3,2.263685223E-3,3.595264861E-3
3.650633891E1,-9.853689000E-3,1.731053460E-3,3.595264861E-3
3.652660844E1,-7.323687430E-3,-1.265000552E-2,3.994738800E-4
3.654687798E1,4.926844500E-3,-8.388951421E-3,-2.263685223E-3
3.656714746E1,1.611211337E-2,7.590003312E-3,-4.926844500E-3
3.658741699E1,1.824264042E-2,2.796316985E-3,-4.394212738E-3
3.660768646E1,7.057371549E-3,-1.531316526E-2,3.062632866E-3
3.662795600E1,-3.062632866E-3,-3.022685647E-2,1.265000552E-2
3.664822548E1,-7.323687430E-3,-3.502054140E-2,1.478053257E-2
3.666849501E1,-4.127896391E-3,-2.543316968E-2,8.388951421E-3
3.668876449E1,2.796316985E-3,-1.464737463E-3,-3.861580743E-3
3.670903402E1,1.291632187E-2,1.238369010E-2,-1.398158539E-2
3.672943402E1,1.771000773E-2,9.720530361E-3,-1.664474420E-2
3.674957303E1,1.557948068E-2,-3.595264861E-3,-1.078579482E-2
3.676997303E1,5.992108025E-3,-2.703106403E-2,-1.331579551E-4
3.679011199E1,-9.321057238E-3,-3.129211813E-2,7.323687430E-3
3.681038152E1,-1.145158429E-2,-1.584579609E-2,1.051947847E-2
3.683078152E1,-7.856319658E-3,1.291632187E-2,7.323687430E-3
3.685092053E1,-1.464737463E-3,2.942790836E-2,2.530001104E-3
3.687119001E1,1.198421582E-3,2.569948509E-2,-6.657897611E-4
3.689145949E1,3.328948980E-3,9.720530361E-3,-2.796316985E-3
3.691172896E1,7.057371549E-3,-1.211737376E-2,-1.731053460E-3
3.693212897E1,9.187898599E-3,-2.223737910E-2,3.994738800E-4
3.695226798E1,7.057371549E-3,-1.531316526E-2,-2.796316985E-3
3.697253746E1,4.926844500E-3,1.331579551E-4,-2.796316985E-3
3.699280699E1,-1.997369342E-3,1.291632187E-2,-4.394212738E-3
3.701307647E1,-7.323687430E-3,1.771000773E-2,-2.796316985E-3
3.703347646E1,-8.921583183E-3,2.197106183E-2,-2.796316985E-3
3.705361542E1,-9.853689000E-3,2.676474862E-2,1.464737463E-3
3.707388496E1,-1.251684781E-2,2.410159074E-2,2.530001104E-3
3.709415443E1,-1.091895252E-2,1.557948068E-2,-1.198421582E-3
3.711442391E1,-2.530001104E-3,2.303632535E-2,-4.926844500E-3
3.713469339E1,7.057371549E-3,2.783001214E-2,-1.185105834E-2
3.715496292E1,9.187898599E-3,2.410159074E-2,-9.187898599E-3
3.717523240E1,6.657897611E-4,2.463422157E-2,-1.331579551E-4
3.719550188E1,-6.258423906E-3,2.303632535E-2,1.105211023E-2
3.721577136E1,-1.038632076E-2,5.459476262E-3,2.223737910E-2
3.723604084E1,-8.388951421E-3,-1.478053257E-2,2.117211558E-2
3.725631032E1,-6.258423906E-3,-1.371526904E-2,1.424790081E-2
3.727657980E1,5.992108025E-3,-3.994738800E-4,5.193160381E-3
3.729684928E1,1.557948068E-2,1.198421582E-3,-6.657897611E-4
3.731711876E1,1.451421715E-2,-1.318263728E-2,-3.328948980E-3
3.733738824E1,3.861580743E-3,-3.715106845E-2,-6.524739787E-3
3.735765772E1,1.331579551E-4,-4.673844203E-2,-8.122635074E-3
3.737792719E1,3.328948980E-3,-3.342264518E-2,-7.590003312E-3
3.739832719E1,2.796316985E-3,-1.584579609E-2,-4.394212738E-3
3.741846610E1,-5.725792143E-3,-1.584579609E-2,-3.861580743E-3
3.743873558E1,-1.411474310E-2,-3.661843762E-2,-3.861580743E-3
3.745900506E1,-1.464737486E-2,-5.206476152E-2,-1.198421582E-3
3.747927454E1,-8.921583183E-3,-4.567318037E-2,-3.328948980E-3
3.749954402E1,-9.321057005E-4,-3.502054140E-2,-8.122635074E-3
3.751981350E1,1.131842658E-2,-3.768370301E-2,-9.720530361E-3
3.754008298E1,1.930790395E-2,-4.567318037E-2,-5.459476262E-3
3.756035246E1,2.037316747E-2,-5.419528857E-2,-1.198421582E-3
3.758062193E1,1.504684892E-2,-6.431528926E-2,1.997369342E-3
3.760089141E1,1.025316212E-2,-6.697845459E-2,3.062632866E-3
3.762116089E1,5.992108025E-3,-6.058686972E-2,5.725792143E-3
3.764143032E1,3.861580743E-3,-5.313002318E-2,1.997369342E-3
3.766169980E1,1.731053460E-3,-3.715106845E-2,-6.657897611E-4
3.768196923E1,-3.062632866E-3,-3.595264861E-3,-3.328948980E-3
3.770223870E1,-3.595264861E-3,2.356895804E-2,-7.590003312E-3
3.772250818E1,-9.321057005E-4,3.475422785E-2,-1.331579551E-4
3.774277761E1,-6.258423906E-3,2.250369452E-2,1.051947847E-2
3.776304709E1,-1.731053367E-2,-3.062632866E-3,1.531316526E-2
3.778331652E1,-2.050632425E-2,-1.957421936E-2,1.158474199E-2
3.780358600E1,-1.198421605E-2,1.198421582E-3,1.464737463E-3
3.782385542E1,1.331579551E-4,2.889527567E-2,-1.238369010E-2
3.784412490E1,8.655266836E-3,3.581948951E-2,-1.344895363E-2
3.786439433E1,7.590003312E-3,2.942790836E-2,-5.992108025E-3
3.788466381E1,-2.530001104E-3,1.398158539E-2,9.321057005E-4
3.790493324E1,-1.038632076E-2,8.122635074E-3,7.323687430E-3
3.792520272E1,-1.571263932E-2,1.664474420E-2,1.265000552E-2
3.794547214E1,-1.890842989E-2,2.783001214E-2,1.318263728E-2
3.796574157E1,-1.837579720E-2,3.581948951E-2,1.211737376E-2
3.798601105E1,-1.571263932E-2,4.327633604E-2,7.323687430E-3
3.800628048E1,-1.304947957E-2,4.008054361E-2,4.660528619E-3
3.802654996E1,-5.193160381E-3,2.410159074E-2,3.595264861E-3
3.804681938E1,1.731053460E-3,8.655266836E-3,3.062632866E-3
3.806708881E1,6.524739787E-3,3.861580743E-3,3.595264861E-3
3.808735824E1,7.057371549E-3,8.655266836E-3,3.595264861E-3
3.810762766E1,3.861580743E-3,3.861580743E-3,5.193160381E-3
3.812789714E1,-4.660528619E-3,3.861580743E-3,3.062632866E-3
3.814816657E1,-1.038632076E-2,8.655266836E-3,1.464737463E-3
3.816843600E1,-4.660528619E-3,1.291632187E-2,1.997369342E-3
3.818870548E1,-1.997369342E-3,2.263685223E-3,4.127896391E-3
3.820897490E1,-5.725792143E-3,-1.744369231E-2,9.321057005E-4
3.822937490E1,-1.997369342E-3,-1.318263728E-2,-2.796316985E-3
3.824951376E1,1.025316212E-2,1.078579482E-2,-1.198421582E-3
3.826978318E1,1.930790395E-2,1.025316212E-2,9.321057005E-4
3.829005266E1,1.291632187E-2,-1.850895584E-2,1.318263728E-2
3.831032209E1,-2.530001104E-3,-5.366265774E-2,1.957421936E-2
3.833072209E1,-9.321057238E-3,-6.271740049E-2,1.584579609E-2
3.835086094E1,-3.062632866E-3,-3.874896467E-2,2.530001104E-3
3.837113037E1,9.720530361E-3,-3.595264861E-3,-1.078579482E-2
3.839139980E1,2.037316747E-2,1.291632187E-2,-1.717737690E-2
3.841166923E1,2.463422157E-2,6.657897611E-4,-1.238369010E-2
3.843206923E1,1.824264042E-2,-2.756369673E-2,9.321057005E-4
3.845220808E1,2.796316985E-3,-5.046686530E-2,6.791055668E-3
3.847247751E1,-5.725792143E-3,-4.780370742E-2,9.454214945E-3
3.849274693E1,-5.193160381E-3,-2.010685205E-2,5.725792143E-3
3.851301636E1,-1.997369342E-3,8.122635074E-3,-2.263685223E-3
3.853328579E1,-9.321057005E-4,1.504684892E-2,-6.524739787E-3
3.855355522E1,-3.994738800E-4,1.025316212E-2,-1.078579482E-2
3.857382464E1,2.263685223E-3,-9.321057005E-4,-1.025316212E-2
3.859409407E1,5.459476262E-3,-1.158474199E-2,-4.394212738E-3
3.861436350E1,2.796316985E-3,-1.797632314E-2,-6.657897611E-4
3.863476350E1,-2.530001104E-3,-1.158474199E-2,-1.331579551E-4
3.865490235E1,-5.725792143E-3,1.198421582E-3,3.994738800E-4
3.867517173E1,-5.193160381E-3,1.664474420E-2,-1.331579551E-4
3.869544115E1,-5.725792143E-3,2.996053919E-2,-1.731053460E-3
3.871571058E1,-8.388951421E-3,3.475422785E-2,-3.328948980E-3
3.873598001E1,-8.388951421E-3,2.996053919E-2,-1.731053460E-3
3.875624943E1,-8.388951421E-3,2.796316985E-3,3.595264861E-3
3.877651881E1,-7.323687430E-3,-2.170474641E-2,9.321057005E-4
3.879678824E1,1.731053460E-3,-6.258423906E-3,-1.731053460E-3
3.881705766E1,1.025316212E-2,2.889527567E-2,-4.926844500E-3
3.883732704E1,1.078579482E-2,4.008054361E-2,-4.926844500E-3
3.885759646E1,1.731053460E-3,2.942790836E-2,3.062632866E-3
3.887786589E1,-1.091895252E-2,5.459476262E-3,1.265000552E-2
3.889813532E1,-1.624527015E-2,-1.584579609E-2,1.424790081E-2
3.891840469E1,-1.518000662E-2,-1.744369231E-2,5.725792143E-3
3.893867412E1,-5.725792143E-3,4.926844500E-3,-4.394212738E-3
3.895894350E1,8.122635074E-3,2.729738131E-2,-1.557948068E-2
3.897921292E1,1.504684892E-2,2.942790836E-2,-1.877527125E-2
3.899948235E1,9.720530361E-3,1.185105834E-2,-1.398158539E-2
3.901975173E1,-9.321057005E-4,-1.265000552E-2,-5.992108025E-3
3.904002056E1,-6.258423906E-3,-2.649843320E-2,3.994738800E-4
3.906028999E1,-5.193160381E-3,-1.797632314E-2,5.193160381E-3
3.908055936E1,-9.321057005E-4,-3.062632866E-3,5.725792143E-3
3.910082874E1,-1.997369342E-3,7.057371549E-3,1.464737463E-3
3.912109816E1,-1.464737463E-3,9.187898599E-3,-1.731053460E-3
3.914136754E1,4.926844500E-3,-4.127896391E-3,-4.394212738E-3
3.916163696E1,1.025316212E-2,-1.797632314E-2,-3.861580743E-3
3.918190634E1,1.025316212E-2,-2.330264263E-2,-3.328948980E-3
3.920217577E1,5.992108025E-3,-2.223737910E-2,-4.394212738E-3
3.922244514E1,4.394212738E-3,-1.904158667E-2,-3.328948980E-3
3.924271452E1,2.796316985E-3,-8.921583183E-3,-6.657897611E-4
3.926298394E1,-2.530001104E-3,-9.321057005E-4,-6.657897611E-4
3.928325332E1,-6.258423906E-3,8.122635074E-3,-2.263685223E-3
3.930352274E1,-1.997369342E-3,1.185105834E-2,3.994738800E-4
3.932379212E1,2.263685223E-3,1.198421582E-3,3.595264861E-3
3.934406150E1,3.861580743E-3,-1.691105962E-2,-1.731053460E-3
3.936433087E1,1.185105834E-2,-1.211737376E-2,-1.198421582E-3
3.938460030E1,1.717737690E-2,6.657897611E-4,-5.459476262E-3
3.940486967E1,1.398158539E-2,2.796316985E-3,-5.992108025E-3
3.942513905E1,6.657897611E-4,-2.530001104E-3,2.530001104E-3
3.944540842E1,-9.853689000E-3,-7.856319658E-3,9.986846708E-3
3.946567785E1,-1.304947957E-2,-4.660528619E-3,9.986846708E-3
3.948594722E1,-7.323687430E-3,1.131842658E-2,1.464737463E-3
3.950621660E1,2.796316985E-3,3.209106624E-2,-9.187898599E-3
3.952661660E1,1.238369010E-2,3.102580272E-2,-1.611211337E-2
3.954675535E1,1.291632187E-2,1.025316212E-2,-1.078579482E-2
3.956702467E1,3.328948980E-3,-1.265000552E-2,-2.796316985E-3
3.958729415E1,-8.921583183E-3,-2.117211558E-2,4.127896391E-3
3.960756353E1,-9.853689000E-3,-1.371526904E-2,7.856319658E-3
3.962783285E1,-4.127896391E-3,9.720530361E-3,7.856319658E-3
3.964810228E1,-1.997369342E-3,3.102580272E-2,3.595264861E-3
3.966837165E1,-1.464737463E-3,3.155843541E-2,1.997369342E-3
3.968864097E1,-3.994738800E-4,1.238369010E-2,-1.731053460E-3
3.970891040E1,2.263685223E-3,-5.725792143E-3,-3.328948980E-3
3.972931040E1,6.524739787E-3,-1.318263728E-2,-5.992108025E-3
3.974944910E1,9.187898599E-3,-1.105211023E-2,-3.861580743E-3
3.976971847E1,1.025316212E-2,-5.725792143E-3,-2.263685223E-3
3.978998785E1,5.459476262E-3,-1.464737463E-3,3.994738800E-4
3.981025722E1,-1.997369342E-3,6.657897611E-4,1.464737463E-3
3.983065722E1,-6.791055668E-3,1.185105834E-2,9.321057005E-4
3.985079592E1,-6.258423906E-3,1.611211337E-2,-1.731053460E-3
3.987106530E1,-3.062632866E-3,1.078579482E-2,-1.731053460E-3
3.989133467E1,-2.530001104E-3,-6.258423906E-3,-1.331579551E-4
3.991160405E1,-1.997369342E-3,-2.223737910E-2,-3.861580743E-3
3.993200405E1,8.122635074E-3,-9.454214945E-3,-7.057371549E-3
3.995214274E1,1.717737690E-2,5.992108025E-3,-8.122635074E-3
3.997241212E1,1.824264042E-2,-9.321057005E-4,-6.524739787E-3
3.999268150E1,7.057371549E-3,-1.051947847E-2,1.464737463E-3
4.001295077E1,-9.321057238E-3,-1.424790081E-2,1.051947847E-2
4.003335077E1,-1.411474310E-2,-1.904158667E-2,9.986846708E-3
4.005348952E1,-9.853689000E-3,-1.105211023E-2,3.062632866E-3
4.007375889E1,-3.595264861E-3,9.187898599E-3,-1.025316212E-2
4.009402827E1,7.057371549E-3,1.557948068E-2,-1.611211337E-2
4.011429764E1,9.720530361E-3,7.590003312E-3,-1.504684892E-2
4.013456696E1,5.459476262E-3,-3.062632866E-3,-9.187898599E-3
4.015483634E1,-4.660528619E-3,-1.637842879E-2,-2.263685223E-3
4.017510566E1,-8.921583183E-3,-2.223737910E-2,4.660528619E-3
4.019537504E1,-8.388951421E-3,-1.211737376E-2,7.856319658E-3
4.021564441E1,-8.921583183E-3,2.796316985E-3,6.258423906E-3
4.023591374E1,-1.038632076E-2,1.291632187E-2,9.321057005E-4
4.025618306E1,-8.921583183E-3,1.025316212E-2,-3.328948980E-3
4.027645243E1,-1.997369342E-3,3.861580743E-3,-5.992108025E-3
4.029672176E1,6.657897611E-4,-2.530001104E-3,-6.524739787E-3
4.031699113E1,-3.994738800E-4,-1.424790081E-2,-5.459476262E-3
4.033726045E1,-3.595264861E-3,-2.223737910E-2,-2.263685223E-3
