"Time (s)","Acceleration x (m/s^2)","Acceleration y (m/s^2)","Acceleration z (m/s^2)"
1.215568500E-2,-1.063624144E0,-2.278082848E0,7.262810707E0
3.234120600E-2,-1.417966008E0,-3.214215755E0,8.926780701E0
5.252761300E-2,-1.528099179E0,-3.865438700E0,9.573215485E0
7.271495600E-2,-1.568800688E0,-4.468777657E0,8.421604156E0
9.290323800E-2,-1.269525409E0,-4.823119164E0,7.159860134E0
1.130924560E-1,-1.255160213E0,-5.105635166E0,6.898892403E0
1.332825600E-1,-2.191293001E0,-5.328295708E0,7.382521152E0
1.534734980E-1,-2.945466757E0,-4.203021049E0,8.491036415E0
1.736651650E-1,-2.248754025E0,-3.405751944E0,8.883685112E0
1.938574040E-1,-1.506551385E0,-3.108870983E0,8.519766808E0
2.140500600E-1,-1.559223890E0,-3.135207176E0,8.577227592E0
2.342429770E-1,-2.073977232E0,-2.905363798E0,1.025556278E1
2.544414150E-1,-2.452261209E0,-2.639607430E0,1.180700588E1
2.746328730E-1,-2.241571426E0,-2.776076794E0,1.272637939E1
2.948120920E-1,-1.738788962E0,-3.056198359E0,1.323394966E1
3.149918310E-1,-7.930793166E-1,-4.128800869E0,1.270722580E1
3.351724560E-1,-1.154603720E0,-4.159925461E0,9.996989250E0
3.553542270E-1,-1.631049871E0,-4.906916618E0,7.909245491E0
3.755374040E-1,-2.368463993E0,-6.453570843E0,6.606799603E0
3.957221960E-1,-4.075530052E0,-6.271611214E0,5.483919144E0
4.159086540E-1,-5.629366875E0,-5.242104530E0,6.324283600E0
4.360967790E-1,-5.272630692E0,-5.170278549E0,7.468712330E0
4.562865710E-1,-5.248688698E0,-5.134365559E0,7.964312077E0
4.764779250E-1,-5.691616058E0,-5.110423565E0,7.916428089E0
4.966706850E-1,-6.282983780E0,-4.959589005E0,8.019378662E0
5.168646440E-1,-7.310096264E0,-4.456806660E0,8.378508568E0
5.370595400E-1,-7.614160061E0,-2.665943623E0,8.412027359E0
5.572551130E-1,-5.277419090E0,-5.351040959E-1,8.069656372E0
5.774510500E-1,-8.529343605E-1,8.559271097E-1,6.192602634E0
5.976467790E-1,-1.394023895E0,1.689109325E0,4.143166065E0
6.178389150E-1,-2.955043554E0,4.465186298E-1,6.333860397E0
6.380250600E-1,-5.018845081E0,-3.676296711E0,6.364984989E0
6.582087060E-1,-5.624578476E0,-4.624400616E0,3.848679304E0
6.783928210E-1,-8.030751228E0,-7.408857346E0,4.590881824E0
6.985775600E-1,-9.496002197E0,-8.744821548E0,4.152742863E0
7.187630810E-1,-8.571840286E0,-7.593210697E0,3.901351690E0
7.389494880E-1,-5.600636482E0,-7.629123688E0,4.978742599E0
7.591368310E-1,-3.773860455E0,-7.547720909E0,4.985925198E0
7.793251130E-1,-3.864840031E0,-6.307524204E0,4.272452831E0
7.995143310E-1,-5.928641796E0,-4.365826607E0,4.796782970E0
8.197044350E-1,-6.972513676E0,-3.424905539E0,3.317166567E0
8.398953210E-1,-7.013215542E0,-4.305971622E0,1.768117905E0
8.600868830E-1,-5.535993099E0,-4.317942619E0,1.592144072E-1
8.802790190E-1,-6.706757545E0,-5.076904774E0,8.367735147E-1
9.004715710E-1,-7.417835236E0,-5.553350925E0,1.847126603E0
9.206643830E-1,-6.237493992E0,-6.602011204E0,2.610877037E0
9.408627170E-1,-3.251924515E0,-8.299500465E0,4.066551685E0
9.610543830E-1,-1.463455796E0,-1.106480312E1,4.267664433E0
9.812341230E-1,-2.277484417E0,-9.525331497E0,2.129642487E0
1.001414331E0,-2.100313425E0,-7.540538311E0,1.899798989E0
1.021595321E0,-1.599925280E0,-7.734468460E0,2.586935043E0
1.041777404E0,-1.008557439E0,-8.965087891E0,3.786429882E0
1.061960842E0,-1.480215192E0,-9.503783226E0,3.168725967E0
1.082145790E0,-2.270301819E0,-1.128506947E1,2.349909067E0
1.102332352E0,-3.347692490E0,-1.587236023E1,4.776432514E-1
1.122520581E0,-4.176086426E0,-1.904707146E1,-9.804255962E-1
1.142710425E0,-5.157709122E0,-1.636556625E1,-1.557428241E0
1.162901779E0,-2.897582531E0,-1.223317337E1,1.595735431E0
1.183094488E0,-1.054047346E0,-8.629899979E0,6.539762020E0
1.203288342E0,-7.954735160E-1,-7.238868713E0,5.764040470E0
1.223483081E0,-1.808220863E0,-7.380126953E0,2.950853586E0
1.243678394E0,-3.012504339E0,-8.005013466E0,5.853823423E-1
1.263874019E0,-3.115454912E0,-8.972270966E0,-6.667851806E-1
1.284069019E0,-2.804208755E0,-9.805453300E0,1.325190663E0
1.304260581E0,-3.675698042E0,-9.855731010E0,3.872621298E0
1.324446727E0,-4.350862980E0,-9.963470459E0,3.815160513E0
1.344630373E0,-4.235941410E0,-9.285911560E0,2.266111851E0
1.364814488E0,-4.585494995E0,-8.081627846E0,1.499967337E0
1.384999227E0,-5.703587055E0,-6.963535786E0,1.787271619E0
1.405184748E0,-5.770624638E0,-6.891709805E0,1.691503525E0
1.425371154E0,-5.629366875E0,-6.803123951E0,1.440112352E0
1.445558498E0,-5.284601688E0,-6.338648796E0,1.061828494E0
1.465746779E0,-5.241506100E0,-6.065710068E0,1.497573137E0
1.485935998E0,-5.229535103E0,-6.403292656E0,2.462436438E0
1.506126102E0,-5.267842293E0,-6.738480568E0,3.381809950E0
1.526316988E0,-5.447407246E0,-6.836642742E0,3.630806923E0
1.546508550E0,-5.947795391E0,-6.872556210E0,3.714603901E0
1.566700685E0,-6.371569157E0,-6.527791023E0,4.016273499E0
1.586893238E0,-6.534375191E0,-6.269217014E0,4.425682068E0
1.607086050E0,-6.177639008E0,-6.494272232E0,4.712985992E0
1.627284383E0,-6.002861977E0,-6.999448776E0,5.857414246E0
1.647475998E0,-5.547964096E0,-8.151060104E0,4.475960255E0
1.667655633E0,-4.846462727E0,-9.903614998E0,-5.997475386E-1
1.687835790E0,-5.375581264E0,-1.093072796E1,-1.825578809E0
1.708016779E0,-5.521627903E0,-1.057638645E1,-1.291671872E0
1.728198863E0,-4.602254391E0,-8.692149162E0,-8.248024583E-1
1.748382300E0,-4.233547211E0,-7.700949669E0,-7.457938194E-1
1.768567248E0,-4.736329556E0,-7.645883083E0,-9.516952038E-1
1.788753810E0,-5.615001678E0,-8.249221802E0,-1.128866076E0
1.808942040E0,-5.866392612E0,-9.048885345E0,-7.122750282E-1
1.829131883E0,-5.854421616E0,-8.979453087E0,6.428431273E-1
1.849323238E0,-5.509656429E0,-8.447940826E0,2.597708702E-1
1.869515946E0,-5.248688698E0,-8.160636902E0,-4.704606235E-1
1.889709800E0,-5.461772442E0,-8.431180954E0,-2.908954918E-1
1.909904540E0,-5.521627903E0,-8.804677010E0,-3.591302549E-3
1.930099852E0,-4.937442303E0,-8.526948929E0,5.422866940E-1
1.950295477E0,-4.492120743E0,-7.820659637E0,1.193509579E0
1.970490529E0,-4.681262970E0,-7.679401875E0,1.349132657E0
1.990682144E0,-5.059546947E0,-7.794323444E0,1.152808070E0
2.010868290E0,-5.181651115E0,-7.535749912E0,1.069011092E0
2.031051935E0,-5.313332081E0,-6.965929985E0,1.159990668E0
2.051236050E0,-5.674856663E0,-6.288370609E0,1.646013618E0
2.071420790E0,-5.830479622E0,-5.515043736E0,2.835932016E0
2.091606310E0,-5.677250862E0,-5.230133533E0,2.565387011E0
2.111792717E0,-4.693233967E0,-5.622782707E0,1.078587890E0
2.131980060E0,-3.699640274E0,-6.154295444E0,1.200692177E0
2.152168342E0,-3.194463730E0,-6.427234650E0,1.193509579E0
2.172357560E0,-2.945466757E0,-6.233304024E0,1.835155606E0
2.192547665E0,-3.457825899E0,-6.307524204E0,9.732429981E-1
2.212738550E0,-4.432265759E0,-6.879738808E0,-1.807622313E-1
2.232930113E0,-5.691616058E0,-7.269993305E0,-9.696517140E-2
2.253122248E0,-6.352415562E0,-6.613982201E0,8.535329103E-1
2.273314800E0,-6.275801182E0,-5.486313343E0,2.311601639E0
2.293507613E0,-5.366004467E0,-5.218162537E0,1.550245643E0
2.313705946E0,-4.192845821E0,-5.297171116E0,1.033097982E0
2.333897613E0,-4.200028419E0,-6.443994045E0,2.621650994E-1
2.354077352E0,-5.459378242E0,-8.842984200E0,2.232593060E0
2.374257560E0,-7.559093475E0,-1.248695850E1,4.961983204E0
2.394438550E0,-9.867103577E0,-1.643021011E1,4.198232651E0
2.414620633E0,-1.193808842E1,-1.981082153E1,3.556586742E0
2.434804071E0,-1.298196030E1,-1.784996986E1,5.931634903E0
2.454989019E0,-1.108335781E1,-1.153646088E1,5.213374138E0
2.475175581E0,-7.769783020E0,-7.269993305E0,2.313995838E0
2.495363810E0,-4.920682907E0,-5.531803131E0,1.090558887E0
2.515553654E0,-3.115454912E0,-5.091269970E0,1.662773132E0
2.535745008E0,-2.485780001E0,-5.823895454E0,1.413776159E0
2.555937717E0,-2.548029184E0,-6.702567577E0,1.047463298E0
2.576131571E0,-2.093130827E0,-6.460753441E0,1.397016644E0
2.596326310E0,-1.291073322E0,-5.385756493E0,1.059434295E0
2.616521623E0,-7.284358740E-1,-4.368220806E0,3.986345828E-1
2.636717248E0,-9.008184075E-1,-3.556586742E0,-1.975216419E-1
2.656912248E0,-1.858499050E0,-3.525461912E0,-3.363853395E-1
2.677103863E0,-2.904765129E0,-4.428076267E0,1.304839998E-1
2.697292769E0,-4.365228176E0,-5.656301498E0,9.636662006E-1
2.717478915E0,-5.784989834E0,-5.953182697E0,1.423352957E0
2.737662560E0,-6.280589581E0,-4.679467201E0,2.182314873E0
2.757846675E0,-7.484873295E0,-3.276464939E0,3.547009706E0
2.778031415E0,-8.772953987E0,-3.259705544E0,4.447229862E0
2.798216935E0,-9.311649323E0,-5.467159748E0,5.112817764E0
2.818403342E0,-8.717886925E0,-8.251616478E0,5.093664169E0
2.838590685E0,-6.670844555E0,-9.151836395E0,4.042609692E0
2.858778967E0,-4.468178749E0,-8.747216225E0,3.372233152E0
2.878968185E0,-4.326920986E0,-8.625111580E0,3.578134537E0
2.899158290E0,-6.242282391E0,-1.004487324E1,2.024297476E0
2.919349175E0,-7.867945194E0,-1.164898872E1,-2.430114746E-1
2.939540738E0,-1.115039539E1,-1.393066216E1,2.603694439E0
2.959732873E0,-1.426285839E1,-1.530253983E1,4.595670223E0
2.979925425E0,-1.125334644E1,-1.324592113E1,7.122750282E-1
3.000118238E0,-7.281365871E0,-9.084798813E0,-3.037044764E0
3.020316571E0,-4.903923512E0,-7.212532520E0,-3.312378168E0
3.040508238E0,-4.487332344E0,-7.123947144E0,-2.780865192E0
3.060687977E0,-5.799355030E0,-8.632294655E0,-2.127248287E0
3.080868185E0,-5.938218594E0,-9.204508781E0,-1.437718153E0
3.101049175E0,-5.325303078E0,-8.146271706E0,-8.152256608E-1
3.121231258E0,-4.350862980E0,-6.771999359E0,-2.789244950E-1
3.141414696E0,-3.613448858E0,-5.972336292E0,8.750807047E-1
3.161599644E0,-3.680486679E0,-5.620388508E0,7.641094685E0
3.181786206E0,-4.674080372E0,-5.625176907E0,5.024232388E0
3.201974435E0,-4.686051369E0,-5.505466938E0,1.528697729E0
3.222164279E0,-5.272630692E0,-5.148730755E0,5.207388401E-1
3.242355633E0,-5.576694489E0,-5.342660904E0,3.004723191E-1
3.262548342E0,-5.610213280E0,-5.519832134E0,3.531447649E-1
3.282742196E0,-6.385934353E0,-5.249287128E0,9.469067454E-1
3.302936935E0,-6.419453144E0,-5.550956726E0,1.564610839E0
3.323132248E0,-5.265448093E0,-6.211756229E0,2.765302956E-1
3.343327873E0,-3.797802448E0,-6.499060631E0,2.992752194E-2
3.363522925E0,-3.237559319E0,-6.685808182E0,4.189852998E-2
3.383714540E0,-3.761889458E0,-6.721721172E0,-6.584054977E-2
3.403900685E0,-6.192004204E0,-6.953958988E0,1.152808070E0
3.424084331E0,-9.419387817E0,-7.334636688E0,3.348291159E0
3.444268446E0,-1.013525391E1,-7.868544102E0,2.697068214E0
3.464453185E0,-9.426570892E0,-9.779116631E0,3.338714361E0
3.484638706E0,-9.941324234E0,-1.289157867E1,3.338714361E0
3.504825113E0,-1.132277870E1,-1.659301567E1,3.001131773E0
3.525012456E0,-1.197160721E1,-1.800080490E1,3.001131773E0
3.545200738E0,-1.012567711E1,-1.427063942E1,3.891774893E0
3.565389956E0,-7.293336868E0,-9.400833130E0,2.692279816E0
3.585580060E0,-5.459378242E0,-6.597222805E0,1.684320927E0
3.605770998E0,-4.152144432E0,-5.610811710E0,1.387439847E0
3.625962665E0,-3.426701069E0,-5.230133533E0,1.341950059E0
3.646154904E0,-3.321356297E0,-5.000290394E0,1.248576164E0
3.666347560E0,-2.777872562E0,-4.626794815E0,7.864952683E-1
3.686540477E0,-1.968632340E0,-4.131195068E0,3.770867586E-1
3.706738915E0,-1.678933978E0,-3.807977915E0,1.316810958E-2
3.726930373E0,-1.865681648E0,-4.092887878E0,-4.584896266E-1
3.747109592E0,-2.258330822E0,-4.753687382E0,-6.332663298E-1
3.767289331E0,-2.619855165E0,-5.222950935E0,-1.496376097E-1
3.787469956E0,-2.591124773E0,-5.002684593E0,7.864952683E-1
3.807651727E0,-3.230376720E0,-4.313154221E0,1.578976035E0
3.827834852E0,-5.136161327E0,-3.649960518E0,1.131260276E0
3.848019540E0,-7.827243805E0,-4.284423828E0,1.854309201E0
3.868205946E0,-1.034833813E1,-5.965153694E0,4.559757233E0
3.888394071E0,-1.115997314E1,-6.884527206E0,4.947618008E0
3.908583863E0,-9.517550468E0,-6.783970356E0,3.515885115E0
3.928775217E0,-7.374739647E0,-6.606799603E0,2.943670988E0
3.948967977E0,-5.052364349E0,-6.625953197E0,3.726574898E0
3.969161935E0,-4.982932091E0,-7.562086105E0,4.270058632E0
3.989356831E0,-6.857592106E0,-1.005445004E1,1.217451572E0
4.009552404E0,-9.879075050E0,-1.296819305E1,8.894459605E-1
4.029748342E0,-1.216314316E1,-1.534803009E1,2.610877037E0
4.049944175E0,-1.214638424E1,-1.594179249E1,-4.848258495E-1
4.070136415E0,-1.074098778E1,-1.239597893E1,-1.095347285E0
4.090322560E0,-7.367557049E0,-9.087192535E0,-2.689885616E0
4.110506206E0,-5.509656429E0,-8.486248016E0,-2.596511841E0
4.130690321E0,-4.614225388E0,-8.895656586E0,-2.074575663E0
4.150875060E0,-4.719570160E0,-9.630676270E0,-1.205480576E0
4.171060581E0,-4.439448357E0,-9.453505516E0,3.232172132E-2
4.191246988E0,-3.642179251E0,-8.079233170E0,8.367735147E-1
4.211434331E0,-2.727594376E0,-6.487089634E0,1.262941360E0
4.231622613E0,-2.260725021E0,-5.304353714E0,1.164779186E0
4.251811831E0,-2.919130325E0,-4.923676014E0,1.808819413E0
4.272001935E0,-5.021239281E0,-5.553350925E0,2.912546396E0
4.292192873E0,-6.101024628E0,-5.692214489E0,2.776076794E0
4.312384540E0,-5.210381508E0,-5.380968094E0,6.715735793E-1
4.332576779E0,-4.451419353E0,-4.282029629E0,-9.217676520E-2
4.352769435E0,-6.053140640E0,-3.321954966E0,2.472013235E0
4.372962352E0,-7.132925510E0,-4.557363033E0,3.592499733E0
4.393160790E0,-5.751471043E0,-6.250063419E0,3.076549172E-1
4.413352248E0,-5.686827660E0,-6.858190536E0,4.776432514E-1
4.433531467E0,-5.377975464E0,-7.114370346E0,2.334346622E-1
4.453711206E0,-4.793790340E0,-6.913257599E0,1.448491961E-1
4.473891831E0,-4.853645325E0,-6.305130005E0,5.949591398E-1
4.494073602E0,-5.828085423E0,-6.144718647E0,7.817068696E-1
4.514256727E0,-7.745841026E0,-6.788758755E0,2.127248287E0
4.534441415E0,-1.048720169E1,-8.864531517E0,4.114435673E0
4.554627821E0,-1.249833107E1,-1.186925507E1,3.262099743E0
4.574815946E0,-1.455734444E1,-1.579813957E1,2.285265446E0
4.595005738E0,-1.518702030E1,-1.886989975E1,4.392162800E0
4.615197092E0,-1.147600746E1,-1.523071384E1,5.189432144E0
4.635389852E0,-6.369174957E0,-9.022548676E0,3.221398354E0
4.655583810E0,-3.175309896E0,-5.412093163E0,1.507149935E0
4.675778706E0,-1.461061597E0,-4.212597847E0,1.097741485E0
4.695974279E0,-1.022922635E0,-4.825513363E0,5.183446407E-1
4.716170217E0,-1.496974587E0,-5.735310078E0,2.454056740E-1
4.736366050E0,-1.269525409E0,-6.092046261E0,8.271966577E-1
4.756558290E0,-1.851316452E0,-6.082469463E0,9.157821536E-1
4.776744435E0,-3.426701069E0,-5.534197330E0,4.129997790E-1
4.796928081E0,-3.879205227E0,-4.432864666E0,3.507505357E-1
4.817112196E0,-4.264671803E0,-3.558980942E0,8.152256608E-1
4.837296935E0,-4.437054157E0,-3.855861902E0,1.212663174E0
4.857482456E0,-4.681262970E0,-4.789600372E0,1.363497853E0
4.877668863E0,-5.167285919E0,-6.015431881E0,1.265335560E0
4.897856206E0,-5.528810501E0,-6.879738808E0,1.499967337E0
4.918044488E0,-6.237493992E0,-6.666654587E0,2.797624588E0
4.938233706E0,-6.907870293E0,-5.493495941E0,3.511096716E0
4.958423810E0,-6.761824131E0,-4.650736809E0,2.900575399E0
4.978614696E0,-6.704363346E0,-5.517437935E0,2.038662672E0
4.998806258E0,-6.634931564E0,-7.301117897E0,2.033874273E0
5.018998394E0,-6.103418827E0,-8.596381187E0,2.912546396E0
5.039190946E0,-5.277419090E0,-9.405621529E0,4.736927986E0
5.059383758E0,-5.926247597E0,-1.113184071E1,4.569334030E0
5.079582092E0,-9.146449089E0,-1.356913853E1,3.962403834E-1
5.099773758E0,-1.289816284E1,-1.541027927E1,6.907271743E-1
5.119953498E0,-1.483746624E1,-1.430655193E1,3.319560766E0
5.140133706E0,-1.232116032E1,-1.042076302E1,1.839944005E0
5.160314696E0,-6.934206486E0,-7.416039944E0,-3.089717388E0
5.180496779E0,-4.686051369E0,-5.629965305E0,-2.874239206E0
5.200680217E0,-5.181651115E0,-6.625953197E0,-2.316390038E0
5.220865165E0,-6.917447090E0,-1.009994030E1,-2.170343876E0
5.241051727E0,-7.010821342E0,-1.202248383E1,-1.710657120E0
5.261239956E0,-5.433042049E0,-1.014542961E1,-9.014169574E-1
5.281429800E0,-3.654150248E0,-6.769605160E0,-2.525882721E-1
5.301621154E0,-2.301426411E0,-4.593276024E0,9.696517140E-2
5.321813863E0,-1.753154159E0,-4.013879299E0,3.938461840E-1
5.342007717E0,-1.650203466E0,-4.629189014E0,5.398924947E-1
5.362202456E0,-2.241571426E0,-5.323507309E0,2.477998734E-1
5.382397769E0,-4.645349979E0,-5.979518890E0,4.394556999E0
5.402593394E0,-7.044340134E0,-6.554127216E0,7.753622055E0
5.422788446E0,-6.390722752E0,-6.716932774E0,4.896142483E-1
5.442980060E0,-5.713163853E0,-6.499060631E0,-1.875856996E0
5.463166206E0,-4.932653904E0,-5.670666695E0,-9.469067454E-1
5.483349852E0,-5.416282654E0,-5.289988518E0,5.566518903E-1
5.503533967E0,-5.780201435E0,-5.479130745E0,1.083376288E0
5.523718706E0,-5.133767128E0,-5.440823555E0,2.621650994E-1
5.543904227E0,-5.126584530E0,-5.122394562E0,-8.020575345E-2
5.564090633E0,-6.455366135E0,-4.847061157E0,3.144783974E0
5.584277977E0,-8.236652374E0,-6.036979675E0,4.358644009E0
5.604466258E0,-8.710704803E0,-9.412803650E0,3.099294186E0
5.624655477E0,-1.052790356E1,-1.479975796E1,2.098517895E0
5.644845581E0,-1.417666721E1,-2.043331528E1,1.795651205E-2
5.665036467E0,-1.572810936E1,-2.065358162E1,3.120841980E0
5.685228029E0,-1.067395020E1,-1.460582733E1,5.462371349E0
5.705420165E0,-5.435436249E0,-9.827000618E0,2.792836189E0
5.725612717E0,-3.134608507E0,-6.975506783E0,1.150413871E0
5.745805529E0,-1.982997537E0,-5.474342346E0,1.107318282E0
5.766003863E0,-1.678933978E0,-4.629189014E0,8.008604646E-1
5.786195581E0,-1.456273198E0,-3.810372114E0,2.717418969E-1
5.806375425E0,-8.170213103E-1,-2.912546396E0,-3.232172132E-2
5.826555738E0,-4.938040972E-1,-2.359485865E0,-4.537012279E-1
5.846736831E0,-1.130661726E0,-2.400187254E0,-9.397241473E-1
5.866919019E0,-2.801814556E0,-2.953247786E0,-1.368286252E0
5.887102560E0,-4.259883404E0,-4.056974888E0,-4.106055796E-1
5.907287613E0,-5.164891720E0,-6.218938828E0,1.938106298E0
5.927474227E0,-7.116166115E0,-7.169436932E0,3.076549172E-1
5.947662404E0,-6.912658691E0,-6.453570843E0,-8.415619135E-1
5.967852144E0,-6.946177483E0,-5.309142113E0,1.023521185E0
5.988043342E0,-9.498396873E0,-3.333925962E0,5.364208698E0
6.008235842E0,-1.154065037E1,-8.271966577E-1,1.128028107E1
6.028429488E0,-8.617330551E0,-2.287659645E0,6.180631638E0
6.048624019E0,-4.403535366E0,-6.566098213E0,-2.876633406E0
6.068819175E0,-6.084265232E0,-1.198178196E1,-1.885433793E0
6.089014696E0,-1.060451794E1,-1.734000587E1,7.302315533E-2
6.109209956E0,-1.575923443E1,-2.265034485E1,4.667496204E0
6.129401779E0,-1.605132675E1,-2.228642654E1,2.088941097E0
6.149587821E0,-1.004427433E1,-1.468004799E1,-5.005078793E0
6.169771363E0,-6.091447830E0,-9.738415718E0,-4.207809448E0
6.189955425E0,-4.669291973E0,-6.867767811E0,-2.304419041E0
6.210140165E0,-3.809773445E0,-6.874950409E0,-2.211045265E0
6.230325685E0,-4.827309132E0,-8.979453087E0,-2.867056608E0
6.250512092E0,-5.133767128E0,-1.030344677E1,-2.972401381E0
6.270699435E0,-4.721964359E0,-9.051279068E0,-2.304419041E0
6.290887769E0,-3.486556292E0,-6.953958988E0,-1.555034041E0
6.311077092E0,-1.394023895E0,-6.432023048E0,5.081693172E0
6.331267300E0,-2.069188833E0,-7.293935299E0,1.027471638E1
6.351458290E0,-4.022857189E0,-7.511807919E0,6.811503768E-1
6.371649956E0,-5.097854137E0,-6.388927460E0,-6.344634295E-2
6.391842196E0,-7.810484409E0,-4.763264179E0,4.607641220E0
6.412034852E0,-8.452130318E0,-3.254917145E0,6.266822815E0
6.432227769E0,-6.845621109E0,-3.693056107E0,3.219004154E0
6.452426206E0,-6.316502571E0,-4.674678802E0,8.990227580E-1
6.472617613E0,-6.093842030E0,-5.471948147E0,1.017535701E-1
6.492796727E0,-5.911882401E0,-5.646724701E0,-2.262520641E-1
6.512976363E0,-6.108207226E0,-5.237316132E0,-2.286462635E-1
6.533156883E0,-6.498462200E0,-5.175066948E0,-1.711854190E-1
6.553338602E0,-6.764218330E0,-5.622782707E0,-2.430114746E-1
6.573521779E0,-6.745064735E0,-5.682637691E0,-2.454056740E-1
6.593706571E0,-6.385934353E0,-5.424064159E0,6.105214357E-2
6.613893029E0,-6.450577736E0,-5.024232388E0,2.382230759E-1
6.634081154E0,-6.869563103E0,-4.806359768E0,4.201824069E-1
6.654270946E0,-6.903081894E0,-4.353855610E0,1.294066072E0
6.674462300E0,-6.826467514E0,-4.207809448E0,3.721786499E0
6.694655060E0,-7.688380241E0,-5.112817764E0,4.689043999E0
6.714849019E0,-1.020468616E1,-6.803123951E0,2.325966835E0
6.735043915E0,-1.120546246E1,-1.018373680E1,3.232172132E-2
6.755239488E0,-1.155980396E1,-1.482130527E1,-3.388992548E0
6.775435425E0,-1.395879459E1,-2.302623558E1,-5.946000099E0
6.795631206E0,-1.531391239E1,-2.986646843E1,-6.159083843E0
6.815823394E0,-1.168190861E1,-2.304299355E1,3.752911091E0
6.836009540E0,-6.271012783E0,-1.373673248E1,4.677073002E0
6.856193185E0,-4.403535366E0,-1.058596325E1,-3.891774893E0
6.876377300E0,-3.192069530E0,-9.491812706E0,-5.639542103E0
6.896562040E0,-1.587954283E0,-8.297105789E0,-6.185420036E0
6.916747560E0,-9.941922426E-1,-6.920440197E0,-4.564545631E0
6.936933967E0,-4.058770657E0,-4.631583214E0,5.438429356E0
6.957121310E0,-5.164891720E0,-4.452018261E0,5.285200119E0
6.977309592E0,-3.455431700E0,-8.012195587E0,-4.106055796E-1
6.997498810E0,-1.753154159E0,-1.095466995E1,-1.985990286E0
7.017688915E0,4.255693555E-1,-1.120845509E1,-9.588778019E-1
7.037879800E0,1.129464626E0,-9.503783226E0,1.179144382E0
7.058071363E0,1.622670174E0,-7.516596317E0,2.572569609E0
7.078263498E0,1.392826796E0,-5.649118900E0,2.005143881E0
7.098456050E0,-1.176151633E0,-5.656301498E0,1.097741485E0
7.118648863E0,-4.779425144E0,-6.451176643E0,3.101688385E0
7.138847196E0,-7.820061207E0,-6.597222805E0,4.657919407E0
7.159038863E0,-1.125334644E1,-6.250063419E0,3.118447781E0
7.179218602E0,-1.465550709E1,-6.331466198E0,1.080982089E0
7.199398810E0,-1.443284607E1,-6.125565052E0,6.308721304E-1
7.219579800E0,-1.295322990E1,-3.377021551E0,2.426523447E0
7.239761883E0,-1.045128918E1,-1.507149935E0,2.579752445E0
7.259945321E0,-8.296507835E0,-2.460042238E0,9.588778019E-1
7.280130269E0,-9.251793861E0,-8.311470985E0,-1.197100850E-3
7.300316831E0,-1.283830833E1,-1.624824905E1,2.191891670E0
7.320505060E0,-1.141136360E1,-1.930564499E1,8.816647530E0
7.340694904E0,-3.031657934E0,-1.256357384E1,1.879448295E-1
7.360886258E0,-9.558850527E-1,-7.174225330E0,-2.167949677E0
7.381078967E0,-1.243189216E0,-5.646724701E0,-2.491166830E0
7.401272821E0,-2.880823135E0,-5.876567841E0,-3.063380957E0
7.421467560E0,-3.941454649E0,-8.469488144E0,-3.781641483E0
7.441662873E0,-3.476979494E0,-1.070567322E1,-4.736927986E0
7.461858498E0,-4.331709385E0,-1.062187576E1,-5.055356979E0
7.482053498E0,-4.848856926E0,-8.541314125E0,-4.231751442E0
7.502245060E0,-4.561553001E0,-6.982689381E0,-3.142389774E0
7.522431206E0,-4.511274338E0,-6.065710068E0,-2.211045265E0
7.542614852E0,-4.530427933E0,-5.895721912E0,-1.827973008E0
7.562798967E0,-4.836885929E0,-6.194996834E0,-1.636436820E0
7.582983706E0,-5.713163853E0,-7.210138321E0,-1.382651448E0
7.603169227E0,-6.596624374E0,-8.756793022E0,-9.301473498E-1
7.623355633E0,-5.823297024E0,-1.017894840E1,2.481590033E0
7.643542977E0,-4.956595898E0,-1.019570827E1,6.546944618E0
7.663731258E0,-6.170456409E0,-9.106346130E0,4.523844242E0
7.683920477E0,-5.840056419E0,-8.356961250E0,5.207388401E-1
7.704110581E0,-5.634155273E0,-7.969100475E0,-1.248576164E0
7.724301467E0,-5.184045315E0,-7.399280548E0,-1.483207941E0
7.744493029E0,-4.650138378E0,-6.855796337E0,-1.025915384E0
7.764685165E0,-4.901529312E0,-6.733692169E0,-5.279214978E-1
7.784877717E0,-5.133767128E0,-6.968324184E0,-2.310404629E-1
7.805070529E0,-5.296572685E0,-7.497442722E0,-1.400607973E-1
7.825268863E0,-5.370792866E0,-8.007407188E0,-2.286462635E-1
7.845460477E0,-4.786607742E0,-8.234856606E0,-2.717418969E-1
7.865640113E0,-4.769848347E0,-8.342596054E0,-3.315969408E-1
7.885820269E0,-5.576694489E0,-8.864531517E0,-5.135562420E-1
7.906001258E0,-7.199963093E0,-9.906009674E0,-8.319851160E-1
7.926183342E0,-9.220669746E0,-1.102649593E1,-1.234210968E0
7.946366779E0,-1.088463974E1,-1.197938824E1,-1.516726732E0
7.966551727E0,-1.130841351E1,-1.093791008E1,4.129997790E-1
7.986738290E0,-9.287707329E0,-7.542932510E0,8.175002098E0
8.006926519E0,-6.467337132E0,-7.332242489E0,4.189852998E-2
8.027116363E0,-5.490502834E0,-7.449558735E0,-3.242946148E0
8.047307717E0,-5.286995888E0,-9.242815971E0,-3.386598349E0
8.067500425E0,-6.364386559E0,-1.226669216E1,-4.102464676E0
8.087694279E0,-6.862380505E0,-1.374152088E1,-5.222950935E0
8.107889019E0,-6.036381245E0,-1.274553299E1,-5.019443989E0
8.128084331E0,-6.462548733E0,-9.525331497E0,3.794809580E-1
8.148279956E0,-5.907094002E0,-7.047332764E0,8.391677141E-1
8.168474956E0,-5.049970150E0,-6.139930248E0,-1.847126603E0
8.188666519E0,-5.559935093E0,-5.701791286E0,-1.571793437E0
8.208852665E0,-5.344456673E0,-6.458359241E0,-1.176750183E0
8.229036310E0,-3.826532841E0,-7.767987251E0,-1.389834046E0
8.249220425E0,-2.387617588E0,-8.759186745E0,-1.538274646E0
8.269405165E0,-1.192911029E0,-8.977059364E0,-1.267729759E0
8.289590685E0,-2.088941038E-1,-8.201337814E0,-1.080982089E0
8.309777092E0,6.027402878E-1,-7.006631374E0,-8.726865053E-1
8.329964435E0,1.261145711E0,-6.329071999E0,2.274491638E-2
8.350152717E0,1.292270422E0,-6.240486622E0,1.875856996E0
8.370341935E0,-1.360505104E0,-6.721721172E0,4.928464413E0
8.390532040E0,-7.403470039E0,-7.595604897E0,1.091396809E1
8.410722925E0,-1.419342613E1,-7.760804653E0,1.216374207E1
8.430914488E0,-1.427482891E1,-8.883685112E0,9.588778019E-1
8.451106623E0,-1.238340950E1,-7.648277283E0,-5.985504016E-3
8.471299175E0,-1.083675575E1,-5.910087109E0,3.475183725E0
8.491491988E0,-1.323814011E1,-8.431180954E0,4.722562790E0
8.511690321E0,-1.231876659E1,-1.232654762E1,-2.981978178E0
8.531881935E0,-5.811326027E0,-9.400833130E0,-7.625532150E-1
8.552061571E0,-1.513733983E0,-6.932411194E0,6.029797077E0
8.572241675E0,-2.899976730E0,-8.383296967E0,-7.266402245E-1
8.592422613E0,-4.987720490E0,-1.043752193E1,-3.982754469E0
8.612604696E0,-4.985326290E0,-1.038484955E1,-3.412934542E0
8.632788133E0,-3.936666250E0,-8.931569099E0,-4.559757233E0
8.652973081E0,-3.826532841E0,-7.190984726E0,-4.181473255E0
8.673159644E0,-4.211999416E0,-5.560533524E0,-2.847903013E0
8.693347873E0,-4.683657169E0,-5.282805920E0,-2.457648039E0
8.713537717E0,-5.579088688E0,-6.573280811E0,-2.088941097E0
8.733729071E0,-6.654085159E0,-8.177395821E0,-1.550245643E0
8.753921779E0,-7.231087685E0,-9.321824074E0,-8.942343593E-1
8.774115633E0,-5.373187065E0,-9.652224541E0,3.793612480E0
8.794310373E0,-4.702810764E0,-8.675390244E0,4.875791550E0
8.814505685E0,-4.669291973E0,-7.447164536E0,3.223792553E0
8.834701310E0,-5.380369663E0,-6.659471989E0,9.756371975E-1
8.854896363E0,-6.373963356E0,-6.415263653E0,-1.713051319E0
8.875087977E0,-6.797737122E0,-6.515820026E0,-3.052607179E-1
8.895274123E0,-7.202357292E0,-6.297947407E0,1.258152962E0
8.915457769E0,-6.984484673E0,-6.127959251E0,6.308721304E-1
8.935641883E0,-6.081871033E0,-5.816712856E0,-2.310404629E-1
8.955826623E0,-4.628590584E0,-5.395333767E0,3.363853395E-1
8.976012144E0,-3.529651880E0,-5.373785496E0,1.440112352E0
8.996198550E0,-3.544017076E0,-6.075286865E0,8.415619135E-1
9.016385894E0,-3.297414303E0,-6.779181957E0,-4.429273307E-2
9.036574175E0,-2.859275341E0,-6.664260387E0,-4.872200489E-1
9.056763394E0,-2.856881142E0,-6.070498466E0,-1.193509579E0
9.076953498E0,-3.479373693E0,-6.101623058E0,-1.375468850E0
9.097144383E0,-5.758653641E0,-7.533355713E0,-4.668693244E-2
9.117335946E0,-7.934982777E0,-8.299500465E0,2.421735048E0
9.137528081E0,-6.146514416E0,-6.702567577E0,6.643909812E-1
9.157720633E0,-4.470572948E0,-5.421669960E0,-9.876081944E-1
9.177913446E0,-3.807379246E0,-4.813542366E0,2.430114746E-1
9.198111779E0,-5.306149483E0,-5.646724701E0,2.050633669E0
9.218303342E0,-6.941389084E0,-7.820659637E0,2.589329243E0
9.238482873E0,-8.222287178E0,-1.182615948E1,3.915716887E0
9.258662925E0,-1.068113232E1,-1.678694534E1,3.654748917E0
9.278843863E0,-1.224694061E1,-2.133353424E1,2.902969599E0
9.299025946E0,-1.076971817E1,-2.130241013E1,6.745663166E0
9.319209383E0,-6.783371925E0,-1.441907978E1,5.177461147E0
9.339394331E0,-4.856039524E0,-8.706514359E0,3.257311344E0
9.359580894E0,-4.267066002E0,-6.771999359E0,3.341108561E0
9.379769123E0,-3.934272051E0,-6.827065945E0,2.127248287E0
9.399958967E0,-4.061164856E0,-6.333860397E0,2.043451071E0
9.420150321E0,-4.051588058E0,-5.627571106E0,2.203862667E0
9.440343029E0,-3.220799923E0,-5.807136059E0,1.191115379E0
9.460536883E0,-2.145803213E0,-5.878962040E0,8.391677141E-1
9.480731623E0,-1.698087573E0,-5.787982464E0,1.104924083E0
9.500926935E0,-1.475426793E0,-5.828683853E0,9.900023937E-1
9.521122560E0,-1.303044319E0,-5.457582951E0,-1.304839998E-1
9.541317560E0,-7.930793166E-1,-4.772840977E0,-6.787561774E-1
9.561509123E0,-7.715315223E-1,-4.313154221E0,-5.901707411E-1
9.581695269E0,-1.805826664E0,-4.461595058E0,-1.759738177E-1
9.601878915E0,-3.824138641E0,-5.804741859E0,4.225766063E-1
9.622063029E0,-6.601412773E0,-7.456741333E0,1.215057373E0
9.642247769E0,-8.954913139E0,-8.038532257E0,2.074575663E0
9.662433290E0,-1.041058731E1,-7.092822552E0,3.075352192E0
9.682619696E0,-1.031242561E1,-5.136759758E0,2.962824583E0
9.702807040E0,-8.665214539E0,-3.774458885E0,2.395398855E0
9.722995321E0,-7.008427143E0,-4.234145641E0,1.890222192E0
9.743184540E0,-5.931035995E0,-5.749675274E0,3.056198359E0
9.763374644E0,-6.376357555E0,-7.734468460E0,4.389768600E0
9.783565529E0,-7.116166115E0,-1.013824749E1,1.832761407E0
9.803757092E0,-8.002020836E0,-1.293706894E1,1.033097982E0
9.823949227E0,-8.914211273E0,-1.490749645E1,2.776076794E0
9.844141779E0,-7.927800179E0,-1.380855846E1,-7.146692276E-1
9.864334592E0,-8.813654900E0,-1.324831486E1,-9.923965931E-1
9.884532925E0,-9.694721222E0,-1.200572395E1,-1.787271619E0
9.904724435E0,-8.571840286E0,-1.052850151E1,-2.938882589E0
9.924903863E0,-6.773795128E0,-9.017760277E0,-2.981978178E0
9.945083810E0,-5.773018837E0,-8.582015991E0,-2.115277290E0
9.965264644E0,-5.423465252E0,-8.881291389E0,-1.389834046E0
9.985446623E0,-5.478531837E0,-9.082404137E0,-5.063736439E-1
1.000562996E1,-3.984550238E0,-8.287528992E0,1.780089021E0
1.002581480E1,-3.141791105E0,-6.726509571E0,2.153584480E0
1.004600126E1,-2.464232206E0,-5.510255337E0,1.341950059E0
1.006618938E1,-2.188898802E0,-5.376179695E0,1.423352957E0
1.008637912E1,-4.200028419E0,-6.022614479E0,2.184709072E0
1.010657037E1,-6.098630428E0,-6.278793812E0,3.230975151E0
1.012676298E1,-6.124966621E0,-5.922058105E0,2.249352455E0
1.014695673E1,-5.392340660E0,-5.615600109E0,-1.783680320E-1
1.016715142E1,-5.449801445E0,-4.868608952E0,-5.015852451E-1
1.018734678E1,-6.045958042E0,-4.176684856E0,1.092953086E0
1.020754251E1,-6.831255913E0,-4.389768600E0,2.376245260E0
1.022773808E1,-6.180033207E0,-5.989095688E0,-9.696517140E-2
1.024793017E1,-5.588665485E0,-7.248445511E0,-9.852139950E-1
1.026811631E1,-5.406705856E0,-7.404068947E0,7.781155407E-2
1.028829996E1,-5.253477097E0,-6.673837185E0,1.262941360E0
1.030848407E1,-4.786607742E0,-6.807912350E0,-6.907271743E-1
1.032866881E1,-4.925471306E0,-7.258022308E0,-1.698686123E0
1.034885433E1,-6.180033207E0,-7.332242489E0,-1.116895080E0
1.036904074E1,-8.557475090E0,-8.016983986E0,3.175908566E0
1.038922808E1,-1.068113232E1,-1.035372543E1,3.637989521E0
1.040941636E1,-1.024778175E1,-1.282214737E1,2.242169857E0
1.042960558E1,-8.851962090E0,-1.337041950E1,1.681926727E0
1.044979568E1,-8.071452141E0,-1.328901672E1,4.490325451E0
1.046998657E1,-8.923788071E0,-1.456033802E1,3.549403906E0
1.049017813E1,-9.206304550E0,-1.360265732E1,2.721010208E0
1.051037027E1,-7.415441036E0,-9.242815971E0,2.735375404E0
1.053056282E1,-5.028422356E0,-6.424840450E0,1.296460271E0
1.055075563E1,-3.737947464E0,-4.942829609E0,2.813186944E-1
1.057095397E1,-2.888005733E0,-4.346673012E0,5.626374111E-2
1.059114542E1,-2.212841034E0,-5.323507309E0,6.787561774E-1
1.061132475E1,-2.028487444E0,-6.293159008E0,6.452373862E-1
1.063150459E1,-1.994968534E0,-6.764816761E0,7.769184709E-1
1.065168532E1,-2.164956808E0,-7.387309551E0,1.346738458E0
1.067186720E1,-2.555211782E0,-6.721721172E0,8.224082589E-1
1.069205043E1,-2.911947727E0,-5.641936302E0,6.691793799E-1
1.071223522E1,-3.615843058E0,-5.019443989E0,3.148375154E-1
1.073242168E1,-4.544793606E0,-5.076904774E0,4.345476031E-1
1.075260980E1,-5.722740650E0,-5.445611954E0,1.545457244E0
1.077279954E1,-7.480084896E0,-5.234921932E0,3.288435936E0
1.079299079E1,-8.124124527E0,-5.649118900E0,3.396175146E0
1.081318339E1,-7.738658428E0,-7.502231121E0,2.455253839E0
1.083337714E1,-7.911040783E0,-7.739256859E0,1.346738458E0
1.085357183E1,-8.262989044E0,-4.758475780E0,1.899798989E0
1.087376720E1,-8.459313393E0,-5.074510574E0,2.337938070E0
1.089396292E1,-7.456142426E0,-7.700949669E0,2.038662672E0
1.091415871E1,-6.977302074E0,-8.239645004E0,1.136048675E0
1.093435100E1,-5.401917458E0,-9.091980934E0,1.088164687E0
1.095453980E1,-3.120243311E0,-1.018852520E1,2.021903276E0
1.097472584E1,-3.388393879E0,-1.089481449E1,2.895787001E0
1.099490938E1,-4.025251389E0,-1.136647224E1,2.292448044E0
1.101509345E1,-6.036381245E0,-1.150773048E1,1.224634171E0
1.103527819E1,-8.528744698E0,-1.176630402E1,3.507505357E-1
1.105546371E1,-9.596558571E0,-1.120606136E1,-1.193509579E0
1.107565011E1,-8.662819862E0,-1.196502304E1,-1.198297977E0
1.109583746E1,-7.073070526E0,-1.193150425E1,-7.074866295E-1
1.111602574E1,-5.914276600E0,-1.116535950E1,-7.529764175E-1
1.113621496E1,-4.793790340E0,-9.882067680E0,-4.584896266E-1
1.115640506E1,-4.374804974E0,-6.719326973E0,-1.520318091E-1
1.117659595E1,-4.702810764E0,-5.273229122E0,-6.093243361E-1
1.119678751E1,-5.737105846E0,-8.349778175E0,-8.008604646E-1
1.121697964E1,-6.350021362E0,-1.042076302E1,-2.501940727E-1
1.123717220E1,-5.131372929E0,-1.006642151E1,6.260837317E-1
1.125736501E1,-2.093130827E0,-9.017760277E0,6.284779310E-1
1.127756334E1,-1.365293503E0,-8.210914612E0,1.121683478E0
1.129775490E1,-2.076371431E0,-6.681019783E0,1.753752708E0
1.131793444E1,-1.944690347E0,-5.713762283E0,2.345120668E0
1.133811449E1,-1.303044319E0,-5.404910564E0,2.488772631E0
1.135829537E1,-2.076371431E0,-5.582081318E0,2.230198860E0
1.137847735E1,-4.757877350E0,-7.049726963E0,2.179920673E0
1.139866069E1,-7.164050102E0,-6.939593792E0,3.412934542E0
1.141884553E1,-5.404311657E0,-5.981913090E0,3.719392300E0
1.143903199E1,-2.691681147E0,-6.058527470E0,2.306813240E0
1.145922011E1,-3.156156301E0,-7.085639954E0,1.009155989E0
1.147940985E1,-5.533598900E0,-7.281964302E0,8.870517015E-1
1.149960110E1,-5.643732071E0,-7.849390507E0,1.332373261E0
1.151979371E1,-4.614225388E0,-8.886079788E0,1.179144382E0
1.153998746E1,-4.310161591E0,-8.989029884E0,1.152808070E0
1.156018209E1,-4.200028419E0,-8.749609947E0,2.100912094E0
1.158037735E1,-3.242347717E0,-9.798270226E0,2.802412987E0
1.160057298E1,-2.174533606E0,-1.165617085E1,1.952471495E0
1.162076839E1,-2.038064241E0,-1.344463921E1,3.456030130E0
1.164096037E1,-4.259883404E0,-1.391629696E1,7.200561523E0
1.166114652E1,-4.911106110E0,-1.342548561E1,5.270834923E0
1.168133016E1,-3.388393879E0,-1.264497662E1,3.350685358E0
1.170151428E1,-1.777096152E0,-1.121324348E1,3.101688385E0
1.172169902E1,7.703344226E-1,-1.308550930E1,2.199074268E0
1.174188454E1,2.803011656E0,-1.420839024E1,5.446808934E-1
1.176207095E1,3.703231573E0,-1.234330654E1,2.512714624E0
1.178225829E1,3.798999548E0,-9.386467934E0,5.333084106E0
1.180244657E1,2.860472441E0,-7.789535046E0,3.491943121E0
1.182263579E1,2.156577110E0,-7.918822289E0,1.511938334E0
1.184282589E1,1.225232720E0,-6.101623058E0,8.020575345E-2
1.186301678E1,-2.272696018E0,-6.704961777E0,1.107318282E0
1.188320834E1,-2.045246840E0,-7.310694695E0,2.558204412E0
1.190340048E1,-8.200141042E-2,-8.452729225E0,2.361880064E0
1.192359303E1,1.107916832E0,-8.177395821E0,2.792836189E0
1.194378584E1,2.709637880E0,-7.887697697E0,1.576581836E0
1.196398418E1,4.062361717E0,-9.917980194E0,1.136048675E0
1.198417568E1,3.988141537E0,-1.121803188E1,3.216609955E0
1.200435511E1,1.072003841E0,-8.110358238E0,3.731363297E0
1.202453506E1,-1.238400817E0,-3.846285105E0,3.444059134E0
1.204471589E1,-1.463455796E0,-2.682703018E0,3.116053581E0
1.206489787E1,-7.116764784E-1,-3.513490915E0,3.760093689E0
1.208508121E1,7.655459642E-1,-5.584475517E0,2.888604403E0
1.210526605E1,1.941099048E0,-6.166266441E0,2.862268209E0
1.212545251E1,3.207631826E0,-7.181407928E0,2.170343876E0
1.214564063E1,3.796605349E0,-7.583633900E0,7.338228226E-1
1.216583037E1,4.924274445E0,-8.282740593E0,-2.118868530E-1
1.218602162E1,5.982511520E0,-9.496601105E0,4.034229815E-1
1.220621423E1,5.793369770E0,-1.075834560E1,1.152808070E0
1.222640798E1,5.067926407E0,-1.072961521E1,1.511938334E0
1.224660267E1,4.474164486E0,-1.124436855E1,1.150413871E0
1.226679803E1,3.380014181E0,-1.030823517E1,1.507149935E0
1.228699376E1,1.943493247E0,-9.017760277E0,1.847126603E0
1.230718944E1,8.062474132E-1,-1.079904652E1,1.813607812E0
1.232738162E1,-2.088941038E-1,-1.505114937E1,2.421735048E0
1.234756777E1,-1.473032594E0,-1.905904198E1,2.166752517E-1
1.236775142E1,-4.769848347E0,-1.848443413E1,-2.129642487E0
1.238793553E1,-6.747458935E0,-1.391629696E1,-1.799242616E0
1.240812027E1,-4.947019100E0,-1.089720917E1,5.985504016E-3
1.242830579E1,-2.433107376E0,-8.989029884E0,1.061828494E0
1.244849220E1,-1.083376259E-1,-8.730456352E0,1.954865694E0
1.246867954E1,8.421604633E-1,-8.701725960E0,2.965218782E0
1.248886782E1,1.043273449E0,-8.400056839E0,3.592499733E0
1.250905704E1,4.854243994E-1,-7.827842236E0,4.176684856E0
1.252924714E1,-5.249287486E-1,-6.575675011E0,4.042609692E0
1.254943803E1,-1.070806742E0,-7.542932510E0,3.484760523E0
1.256962959E1,-9.558850527E-1,-8.644265175E0,2.682703018E0
1.258982173E1,7.122749835E-2,-8.895656586E0,2.608482838E0
1.261001428E1,1.100734234E0,-8.644265175E0,2.926911592E0
1.263020709E1,9.259575009E-1,-7.835024834E0,2.515108824E0
1.265040542E1,4.686649740E-1,-7.870938301E0,1.957259893E0
1.267059714E1,5.021837950E-1,-8.445546150E0,1.253364563E0
1.269077699E1,8.397662640E-1,-8.692149162E0,6.284779310E-1
1.271095730E1,7.392097712E-1,-9.647436142E0,8.750807047E-1
1.273113839E1,7.176619768E-1,-1.010951710E1,2.084152699E0
1.275132058E1,1.378461599E0,-9.625887871E0,3.290830135E0
1.277150412E1,1.890820742E0,-1.009275723E1,3.520673513E0
1.279168918E1,-3.142389655E-1,-1.145266342E1,3.786429882E0
1.281187579E1,-6.518214345E-1,-1.356435013E1,3.772064686E0
1.283206397E1,9.810241461E-1,-1.354998493E1,5.141548157E0
1.285225371E1,7.128735781E-1,-1.145026970E1,4.329913616E0
1.287244490E1,2.113481522E0,-1.113902378E1,1.768117905E0
1.289263740E1,2.551620483E0,-1.189319706E1,1.832761407E0
1.291283105E1,1.076792240E0,-1.276468658E1,3.803189516E0
1.293302558E1,-9.295488000E-1,-1.273595619E1,6.032191277E0
1.295322074E1,-1.276708007E0,-1.108874512E1,4.837484360E0
1.297341626E1,-3.190273643E-1,-9.190143585E0,2.452859640E0
1.299361162E1,9.762357473E-1,-7.214926720E0,1.203086376E0
1.301380365E1,1.656189084E0,-6.048950672E0,1.382651448E0
1.303399251E1,1.230021119E0,-5.823895454E0,1.583764434E0
1.305417855E1,7.601590455E-2,-6.628347397E0,1.732204914E0
1.307436209E1,-1.156997919E0,-7.851784706E0,1.837549806E0
1.309454615E1,-3.333925903E-1,-8.409633636E0,2.237381458E0
1.311473089E1,1.222838521E0,-7.779958248E0,2.100912094E0
1.313491642E1,9.139865041E-1,-7.619546890E0,2.560598612E0
1.315510282E1,-1.035492271E-1,-8.534132004E0,2.536656618E0
1.317529022E1,-2.950853705E-1,-9.319430351E0,2.594117641E0
1.319547865E1,-1.037287831E0,-7.279570103E0,2.900575399E0
1.321566808E1,-1.899200439E0,-4.456806660E0,2.876633406E0
1.323585839E1,-2.931101322E0,-2.788047791E0,1.847126603E0
1.325604949E1,-1.324592113E0,-4.744110584E0,1.569399238E0
1.327624126E1,1.016937137E0,-9.403226852E0,1.868674397E0
1.329643360E1,1.550245583E-1,-1.033457184E1,1.935712099E0
1.331662636E1,-1.087566137E0,-1.001135445E1,2.998737574E0
1.333681933E1,-6.374561787E-1,-9.721655846E0,5.313930511E0
1.335701777E1,-2.807201445E-1,-9.345766068E0,7.356184959E0
1.337720892E1,-1.125873327E0,-7.684190273E0,6.596025825E-1
1.339738756E1,-3.309983909E-1,-8.474276543E0,-1.033097982E0
1.341756678E1,1.289876223E0,-1.244386292E1,1.286883354E0
1.343774694E1,1.198896527E0,-1.502481270E1,-1.568202078E-1
1.345792834E1,2.484582901E0,-1.656428528E1,-8.008604646E-1
1.347811121E1,1.732803464E0,-1.791700935E1,-1.448491961E-1
1.349829574E1,-2.950853705E-1,-1.639669037E1,-1.696291924E0
1.351848204E1,1.991377234E0,-1.218528938E1,-8.750807047E-1
1.353867011E1,2.867655039E0,-1.062427044E1,-1.203086376E0
1.355885996E1,2.589927673E0,-9.443928719E0,-1.981201887E0
1.357905147E1,1.833359957E0,-8.534132004E0,-9.684545994E-1
1.359924444E1,6.362590790E-1,-8.900444984E0,1.167173386E0
1.361943865E1,5.668272376E-1,-9.817423820E0,1.502361536E0
1.363963386E1,1.634641171E0,-9.661801338E0,2.045845270E0
1.365982975E1,1.871667147E0,-8.912415504E0,1.370680451E0
1.368002600E1,1.286883354E-1,-7.607575893E0,3.699041605E-1
1.370022230E1,-1.097142935E0,-6.309918404E0,3.986345828E-1
1.372041490E1,-1.836951256E0,-4.495113850E0,1.593341231E0
1.374060381E1,-2.378040791E0,-5.359420300E0,2.364274263E0
1.376078996E1,-1.429937005E0,-7.466318130E0,2.103306293E0
1.378097360E1,-5.105634928E-1,-8.445546150E0,7.362170219E-1
1.380115772E1,-3.357867897E-1,-8.033743858E0,2.214636505E-1
1.382134246E1,-4.531026781E-1,-7.832630634E0,6.189011335E-1
1.384152798E1,-6.805518270E-1,-8.555679321E0,5.758054852E-1
1.386171438E1,-3.477577865E-1,-9.915586472E0,1.663970202E-1
1.388190173E1,-3.621230125E-1,-1.028189945E1,-1.233013868E-1
1.390209001E1,-8.672995567E-1,-1.027232265E1,-5.147533491E-2
1.392227923E1,-1.781884670E0,-9.367314339E0,2.956839204E-1
1.394246938E1,-3.924695253E0,-8.835801125E0,1.267729759E0
1.396266037E1,-5.801749229E0,-1.044470501E1,1.624465823E0
1.398285204E1,-3.369240284E0,-1.168490124E1,1.174355984E0
1.400304428E1,-8.840589523E-1,-1.311902809E1,9.109937549E-1
1.402323694E1,-5.895721912E-1,-1.505114937E1,-1.735796183E-1
1.404342985E1,-1.355716705E0,-1.646372795E1,-1.308431268E0
1.406362829E1,-2.251148224E0,-1.790503693E1,-1.952471495E0
1.408381980E1,-2.739565372E0,-1.819952393E1,-1.831564307E-1
1.410399912E1,-1.722029567E0,-1.476145077E1,2.946065187E0
1.412417897E1,-3.262099922E-1,-1.103367901E1,2.778470993E0
1.414435970E1,-7.499836683E-1,-9.467870712E0,1.406593442E0
1.416454157E1,-1.133055925E0,-8.728062630E0,7.194576263E-1
1.418472480E1,-3.549404144E-1,-9.053673744E0,7.003039718E-1
1.420490959E1,-3.812766075E-1,-8.845377922E0,7.218518257E-1
1.422509605E1,-2.735375464E-1,-8.280346870E0,5.207388401E-1
1.424528418E1,8.319851011E-2,-7.796717644E0,9.935937077E-2
1.426547397E1,3.393780887E-1,-7.298723698E0,1.472434103E-1
1.428566532E1,4.279635549E-1,-7.310694695E0,5.303156972E-1
1.430585803E1,-3.597288132E-1,-7.700949669E0,1.923741102E0
1.432605188E1,-3.840898037E0,-9.106346130E0,4.363432407E0
1.434624668E1,-6.946177483E0,-1.064102936E1,5.230133533E0
1.436644214E1,-7.312490463E0,-1.085890198E1,1.294066072E0
1.438663798E1,-6.505644798E0,-9.683348656E0,-1.914164305E0
1.440683381E1,-4.992508888E0,-8.045714378E0,-1.057040095E0
1.442702610E1,-4.032433987E0,-8.744821548E0,-7.266402245E-1
1.444721225E1,-2.763507366E0,-1.217331886E1,-6.548141837E-1
1.446739589E1,-1.729810685E-1,-1.417726517E1,1.352723986E-1
1.448758001E1,1.241992116E0,-1.319324875E1,1.013944387E0
1.450776475E1,2.316390127E-1,-1.103367901E1,-2.142810524E-1
1.452795027E1,-5.201402903E-1,-9.889249802E0,-9.900023937E-1
1.454813668E1,-1.042076349E0,-9.573215485E0,-1.102529883E0
1.456832402E1,-1.240795016E0,-9.360131264E0,-9.900023937E-1
1.458851230E1,-1.365293503E0,-8.732851028E0,-9.828197956E-1
1.460870152E1,-1.410783410E0,-8.361749649E0,-1.116895080E0
1.462889162E1,-1.432331204E0,-8.689755440E0,-1.385045648E0
1.464908256E1,-1.346139908E0,-9.460687637E0,-2.050633669E0
1.466927423E1,-1.092354536E0,-9.944316864E0,-2.531868219E0
1.468946647E1,-4.459200799E-1,-9.819818497E0,-3.130418777E0
1.470965912E1,-1.993172914E-1,-9.470264435E0,-3.223792553E0
1.472985204E1,-1.753752679E-1,-9.221267700E0,-2.606088638E0
1.475005048E1,-1.586158574E-1,-9.096769333E0,-1.940500498E0
1.477024199E1,-3.453635871E-1,-9.408015251E0,-1.526303530E0
1.479042131E1,-6.590040326E-1,-1.002811337E1,-1.370680451E0
1.481060115E1,-4.914098978E-1,-1.037527275E1,-3.387795389E-1
1.483078188E1,3.202244639E-1,-1.025556278E1,3.345896959E0
1.485096376E1,-1.735796221E-2,-1.001853657E1,2.931699991E0
1.487114699E1,-7.547720671E-1,-9.827000618E0,3.232172132E-2
1.489133178E1,-1.063624144E0,-9.467870712E0,-1.133654475E0
1.491151824E1,-1.130661726E0,-9.029731750E0,-1.140837073E0
1.493170636E1,-1.226429820E0,-8.912415504E0,-1.057040095E0
1.495189615E1,-1.410783410E0,-9.161413193E0,-1.183932781E0
1.497208751E1,-1.511339784E0,-9.487024307E0,-1.346738458E0
1.499228022E1,-1.518522382E0,-9.714473724E0,-1.250970364E0
1.501247407E1,-1.666962981E0,-9.434351921E0,-8.918401599E-1
1.503266886E1,-1.875258446E0,-8.586804390E0,-3.818751574E-1
1.505286433E1,-2.411559582E0,-9.223662376E0,1.999158412E-1
1.507306017E1,-3.292625904E0,-1.160349846E1,7.218518257E-1
1.509325595E1,-3.426701069E0,-1.340872669E1,2.118868530E-1
1.511344819E1,-2.548029184E0,-1.315015316E1,-1.428141356E0
1.513363433E1,-8.481459618E-1,-1.146942329E1,-9.660604000E-1
1.515381798E1,2.555810213E-1,-1.007839203E1,1.097741485E0
1.517400209E1,-2.352303118E-1,-9.142259598E0,7.577648163E-1
1.519418683E1,-7.882909179E-1,-8.713697433E0,-1.113303825E-1
1.521437235E1,-1.410783410E0,-9.008183479E0,-3.627215624E-1
1.523455876E1,-1.592742682E0,-9.819818497E0,-1.155202270E0
1.525474610E1,-1.657386184E0,-1.129704094E1,-1.590947032E0
1.527493438E1,-1.485003591E0,-1.302804852E1,-1.648407817E0
1.529512360E1,-9.870096445E-1,-1.376067448E1,-1.736993313E0
1.531531371E1,-7.284358740E-1,-1.304001999E1,-2.122459888E0
1.533550464E1,-1.109113932E0,-1.157716274E1,-1.914164305E0
1.535569631E1,-2.023699045E0,-9.812635422E0,-7.625532150E-1
1.537588855E1,-2.490568399E0,-8.730456352E0,-1.759738177E-1
1.539608121E1,-2.962226152E0,-8.316259384E0,-1.137245819E-1
1.541627412E1,-2.820968151E0,-8.359354973E0,3.651157618E-1
1.543647256E1,-1.398812294E0,-8.735244751E0,1.352723986E-1
1.545666402E1,-1.083376259E-1,-9.199720383E0,-3.507505357E-1
1.547684324E1,5.686229095E-2,-9.712079048E0,-7.170634270E-1
1.549702298E1,5.787982345E-1,-9.922768593E0,-6.859387755E-1
1.551720360E1,1.416768909E0,-9.285911560E0,-4.560954273E-1
1.553738537E1,1.732803464E0,-8.000225067E0,4.106055796E-1
1.555756855E1,1.644217968E0,-7.076063156E0,1.138442874E0
1.557775334E1,6.362590790E-1,-6.285976410E0,1.545457244E0
1.559793980E1,-1.137844324E0,-6.403292656E0,2.309207439E0
1.561812793E1,-3.144185305E0,-7.399280548E0,3.628412724E0
1.563831772E1,-5.057152748E0,-8.854954720E0,5.273229122E0
1.565850907E1,-6.201581001E0,-1.002093124E1,4.655525208E0
1.567870183E1,-6.062717438E0,-1.037287903E1,2.072181463E0
1.569889579E1,-4.803367138E0,-9.992200851E0,1.600523829E0
1.571909069E1,-3.275866508E0,-9.068038940E0,2.021903276E0
1.573928626E1,-1.520916581E0,-9.487024307E0,2.804807186E0
1.575948220E1,-1.022922635E0,-1.151730728E1,4.492719650E0
1.577967793E1,-2.734776974E0,-1.314536476E1,4.854243755E0
1.579987006E1,-2.492962599E0,-1.159392166E1,1.200692177E0
1.582005621E1,-3.238157928E-1,-9.087192535E0,-1.277306557E0
1.584023985E1,-6.045359373E-2,-8.043320656E0,-9.923965931E-1
1.586042397E1,-6.781576276E-1,-8.522160530E0,-3.100491166E-1
1.588060871E1,-1.346139908E0,-1.032978344E1,-4.680664241E-1
1.590079423E1,-1.963843942E0,-1.152927876E1,-5.734112859E-1
1.592098063E1,-2.215235233E0,-1.110789871E1,-3.292027414E-1
1.594116798E1,-1.473032594E0,-9.704896927E0,1.376665980E-1
1.596135626E1,-7.020996213E-1,-8.950722694E0,4.417302012E-1
1.598154548E1,-3.070563674E-1,-8.684967041E0,-2.597708702E-1
1.600173558E1,-1.203086376E-1,-8.718485832E0,-9.373299479E-1
1.602192647E1,-4.195838571E-1,-9.058462143E0,-1.351526856E0
1.604211803E1,-9.510966539E-1,-9.628282547E0,-1.598129630E0
1.606231016E1,-1.271919608E0,-9.929951668E0,-1.516726732E0
1.608250272E1,-1.647809267E0,-9.630676270E0,-1.296460271E0
1.610269553E1,-2.014122248E0,-9.077615738E0,-1.095347285E0
1.612289386E1,-2.109890223E0,-8.713697433E0,-1.006761789E0
1.614308553E1,-2.023699045E0,-8.816647530E0,-4.249708056E-1
1.616326527E1,-1.868075848E0,-9.240421295E0,1.373074651E0
1.618344548E1,-1.504157186E0,-9.214085579E0,2.864662409E0
1.620362647E1,-1.415571809E0,-9.065644264E0,2.033874273E0
1.622380855E1,-1.736394763E0,-9.360131264E0,9.828197956E-1
1.624399199E1,-1.961449742E0,-9.642647743E0,1.356315255E0
1.626417694E1,-1.975814939E0,-9.261969566E0,1.337161660E0
1.628436350E1,-1.587954283E0,-8.591592789E0,5.985504016E-3
1.630455173E1,-1.329380512E0,-7.526173115E0,-2.765302956E-1
1.632474157E1,-1.556829691E0,-6.580463409E0,1.392228246E0
1.634493293E1,-2.270301819E0,-7.597999096E0,2.498349428E0
1.636512563E1,-1.549647093E0,-8.665813446E0,4.345476031E-1
1.638531949E1,-6.829460263E-1,-8.620323181E0,-7.003039718E-1
1.640551423E1,-1.035492271E-1,-8.038532257E0,-7.577648163E-1
1.642570954E1,3.800795078E-1,-7.248445511E0,-8.248024583E-1
1.644590517E1,6.404489279E-2,-7.284358501E0,-6.284779310E-1
1.646610016E1,-1.324592113E0,-9.340977669E0,8.607155085E-1
1.648629173E1,-2.955043554E0,-1.044231033E1,1.614889026E0
1.650647787E1,-2.586336374E0,-9.247604370E0,-6.212953329E-1
1.652666152E1,-2.469020605E0,-7.897274494E0,-4.632780254E-1
1.654684563E1,-2.974197149E0,-7.528567314E0,6.212953329E-1
1.656703037E1,-3.560776472E0,-8.060079575E0,7.553706169E-1
1.658721589E1,-3.572747469E0,-9.570821762E0,6.500257850E-1
1.660740230E1,-3.848080635E0,-1.273595619E1,1.734599113E0
1.662758964E1,-4.116231441E0,-1.599685860E1,2.699462414E0
1.664777792E1,-3.903147221E0,-1.662413979E1,3.056198359E0
1.666796714E1,-2.986168146E0,-1.529535770E1,3.879803896E0
1.668815725E1,-2.483385801E0,-1.490989113E1,2.582146645E0
1.670834813E1,-2.306214809E0,-1.468244171E1,2.208651066E0
1.672853970E1,-2.380434990E0,-1.230260563E1,2.807201385E0
1.674873183E1,-3.316567898E0,-9.987412453E0,2.381033659E0
1.676892438E1,-2.698863983E0,-8.823830605E0,1.526303530E0
1.678911720E1,-1.054047346E0,-7.784746647E0,1.049857497E0
1.680931553E1,-7.835025191E-1,-7.205349922E0,8.152256608E-1
1.682950720E1,-1.288679123E0,-7.394492149E0,1.241393566E0
1.684968694E1,-1.585560083E0,-7.696161270E0,1.334767461E0
1.686986714E1,-9.127894044E-1,-7.332242489E0,5.925649405E-1
1.689004813E1,-9.487023950E-1,-6.973112583E0,9.780313969E-1
1.691023022E1,-9.630676508E-1,-7.212532520E0,1.408987641E0
1.693041365E1,-7.092822790E-1,-7.430405140E0,8.271966577E-1
1.695059860E1,-6.254851818E-1,-7.523778915E0,2.573766708E-1
1.697078517E1,-8.625111580E-1,-7.542932510E0,2.477998734E-1
1.699097339E1,-1.465849996E0,-7.528567314E0,5.566518903E-1
1.701116324E1,-2.413953781E0,-7.578845501E0,1.210268974E0
1.703135459E1,-3.407547474E0,-7.526173115E0,1.835155606E0
1.705154730E1,-4.070741653E0,-7.648277283E0,2.340332270E0
1.707174115E1,-4.216787815E0,-8.158242226E0,2.742558002E0
1.709193589E1,-3.666121244E0,-8.845377922E0,2.562992811E0
1.711213121E1,-3.110666513E0,-9.173383713E0,1.887827992E0
1.713232683E1,-2.751536369E0,-8.850166321E0,1.248576164E0
1.715252178E1,-2.545634985E0,-8.471882820E0,1.061828494E0
1.717271329E1,-2.670133352E0,-8.488641739E0,1.349132657E0
1.719289944E1,-2.605489969E0,-9.024943352E0,1.952471495E0
1.721308308E1,-1.602319479E0,-9.314641953E0,2.735375404E0
1.723326720E1,-5.991489887E-1,-8.907627106E0,3.025073767E0
1.725345194E1,-4.100070298E-1,-8.136694908E0,2.601300240E0
1.727363746E1,-1.039682031E0,-8.203732491E0,1.480813742E0
1.729382386E1,-2.196081400E0,-9.736021042E0,2.382230759E-1
1.731401121E1,-3.165733099E0,-1.242710400E1,-4.704606235E-1
1.733419949E1,-3.953425646E0,-1.532887650E1,-4.273650050E-1
1.735438871E1,-4.583100796E0,-1.503678417E1,9.876081944E-1
1.737457881E1,-3.910329819E0,-1.167532444E1,1.545457244E0
1.739476970E1,-2.255936623E0,-1.203445530E1,-1.795651205E-2
1.741496126E1,-7.356184721E-1,-1.497453499E1,-4.058171809E-1
1.743515339E1,2.699462473E-1,-1.467765331E1,-3.722983599E-1
1.745534595E1,4.973953962E-1,-1.159392166E1,-7.673416734E-1
1.747553876E1,2.723404467E-1,-9.214085579E0,-1.078587890E0
1.749573709E1,-2.256535143E-1,-8.591592789E0,-1.377863050E0
1.751592876E1,-4.961982965E-1,-8.874108315E0,-1.770512104E0
1.753610850E1,-8.601169586E-1,-9.082404137E0,-2.026691675E0
1.755628871E1,-1.063624144E0,-9.508571625E0,-1.897404790E0
1.757646970E1,-1.360505104E0,-9.558850288E0,-1.358709455E0
1.759665178E1,-1.382052898E0,-8.524555206E0,-8.942343593E-1
1.761683522E1,-1.207276225E0,-7.835024834E0,8.978256583E-2
1.763702017E1,-2.023699045E0,-7.789535046E0,2.850297213E0
1.765720673E1,-2.595913172E0,-7.811082840E0,3.432088137E0
1.767739496E1,-2.806602955E0,-7.748833656E0,2.448071241E0
1.769758480E1,-3.714005470E0,-8.337807655E0,2.567781210E0
1.771777615E1,-2.749142170E0,-8.876502991E0,1.162384868E0
1.773796886E1,-1.748365760E0,-8.311470985E0,-7.338228226E-1
1.775816272E1,-2.428318977E0,-7.219715118E0,-5.147533491E-2
1.777835746E1,-2.684498549E0,-6.194996834E0,1.504755735E0
1.779855277E1,-1.070806742E0,-5.977124691E0,5.207388401E-1
1.781874839E1,2.531868219E-1,-6.218938828E0,-5.853823423E-1
1.783894334E1,4.447229803E-1,-8.067262650E0,-5.470750928E-1
1.785913485E1,-6.709750295E-1,-1.002811337E1,1.448491961E-1
1.787932100E1,-1.889623642E0,-1.047822380E1,3.220201433E-1
1.789950464E1,-2.890399933E0,-9.343372345E0,4.429273307E-2
1.791968876E1,-3.680486679E0,-8.388085365E0,-3.866635859E-1
1.793987350E1,-4.144961834E0,-8.931569099E0,-8.990227580E-1
1.796005902E1,-3.733159065E0,-1.046385860E1,-6.093243361E-1
1.798024542E1,-3.759495258E0,-1.402882481E1,1.514332533E0
1.800043277E1,-2.785055161E0,-1.756266594E1,2.637213230E0
1.802062105E1,-7.763199210E-1,-1.730409241E1,5.100846767E0
1.804081027E1,-9.397241473E-2,-1.501523590E1,4.839878559E0
1.806100037E1,-9.678560495E-1,-1.442865658E1,2.737769604E0
1.808119126E1,-2.509721994E0,-1.367927170E1,2.014720678E0
1.810138282E1,-2.727594376E0,-1.135210705E1,1.559822440E0
1.812157496E1,-2.294243813E0,-8.807070732E0,2.007538080E0
1.814176751E1,-1.789067268E0,-7.200561523E0,2.151190281E0
1.816196032E1,-1.257554412E0,-6.652289391E0,1.368286252E0
1.818215865E1,-3.932476342E-1,-6.496666431E0,5.063736439E-1
1.820235022E1,1.478419602E-1,-7.126341343E0,6.404489279E-1
1.822252975E1,2.196680009E-1,-8.196549416E0,8.319851160E-1
1.824270980E1,-6.524199992E-2,-8.093599319E0,6.787561774E-1
1.826289074E1,-4.243722558E-1,-7.487865925E0,7.697358727E-1
1.828307282E1,-3.669114113E-1,-7.107187748E0,4.321534038E-1
1.830325626E1,1.478419602E-1,-6.934805393E0,-4.920084476E-1
1.832344121E1,-7.960720360E-2,-6.949170589E0,-5.781996846E-1
1.834362777E1,-6.159083843E-1,-6.659471989E0,4.668693244E-2
1.836381600E1,-2.095525026E0,-6.654683590E0,1.291671872E0
1.838400584E1,-4.693233967E0,-7.937975883E0,2.634819031E0
1.840419720E1,-6.682815552E0,-9.482235909E0,4.085705280E0
1.842438990E1,-6.900687695E0,-9.180566788E0,4.337096214E0
1.844458376E1,-5.085883141E0,-7.425616741E0,2.735375404E0
1.846477850E1,-3.347692490E0,-7.291541100E0,1.227028370E0
1.848497381E1,-2.715623379E0,-8.512583733E0,5.925649405E-1
1.850516944E1,-2.112284422E0,-9.819818497E0,1.246181965E0
1.852536449E1,-8.744821548E-1,-1.004726696E1,2.345120668E0
1.854555610E1,-1.256955881E-2,-9.101557732E0,1.935712099E0
1.856574225E1,-2.376245260E-1,-9.245209694E0,1.696291924E0
1.858592589E1,-7.523778677E-1,-1.139759731E1,1.207874775E0
1.860611001E1,-1.355716705E0,-1.431134033E1,6.859387755E-1
1.862629475E1,-2.370858192E0,-1.617163467E1,7.098808289E-1
1.864648027E1,-2.363675594E0,-1.344942760E1,-2.070984542E-1
1.866666668E1,-1.437119603E0,-1.068173122E1,-1.368286252E0
1.868685402E1,-2.296638012E0,-1.142153931E1,-2.072181463E0
1.870704230E1,-3.498527288E0,-1.437837791E1,-1.207874775E0
1.872723152E1,-3.280654907E0,-1.465849972E1,-9.373299479E-1
1.874742162E1,-1.868075848E0,-1.173996830E1,-6.572083831E-1
1.876761251E1,-6.183025837E-1,-9.815030098E0,-3.148375154E-1
1.878780407E1,-1.562216580E-1,-9.249998093E0,-8.439561129E-1
1.880799621E1,-1.825578809E-1,-9.257181168E0,-1.155202270E0
1.882818876E1,-2.759317458E-1,-8.986636162E0,-1.116895080E0
1.884838157E1,-1.155202314E-1,-7.954735279E0,-8.990227580E-1
1.886857990E1,1.502361596E-1,-6.640318394E0,-6.428431273E-1
1.888877147E1,2.412158251E-1,-5.656301498E0,2.214636505E-1
1.890895100E1,-6.135141850E-1,-6.010643482E0,1.432929754E0
1.892913105E1,-9.008184075E-1,-6.417657852E0,4.680664241E-1
1.894931199E1,-1.298255920E0,-6.118382454E0,-2.992752194E-2
1.896949407E1,-3.132214308E0,-6.920440197E0,8.583213091E-1
1.898967751E1,-4.709993362E0,-8.392873764E0,2.637213230E0
1.900986246E1,-3.783437252E0,-9.214085579E0,2.318784237E0
1.903004902E1,-2.330156803E0,-9.080010414E0,1.272518158E0
1.905023725E1,-6.398503780E-1,-7.947552681E0,2.358288616E-1
1.907042709E1,-1.735796221E-2,-7.253233910E0,-4.393360019E-1
1.909061845E1,-6.613982320E-1,-7.688978672E0,-9.852139950E-1
1.911081115E1,-2.236783028E0,-8.783128738E0,-7.649474144E-1
1.913100501E1,-3.443460703E0,-9.764751434E0,6.548141837E-1
1.915119975E1,-3.002927542E0,-1.057399178E1,1.556231081E-2
1.917139506E1,-3.026869535E0,-1.326507473E1,8.798691034E-1
1.919159068E1,-2.844910145E0,-1.661216927E1,1.895010591E0
1.921178574E1,-2.373252392E0,-1.734239960E1,2.701856613E0
1.923197735E1,-2.224812031E0,-1.603755951E1,4.674678802E0
1.925216350E1,-2.138620615E0,-1.584123516E1,2.014720678E0
1.927234714E1,-2.421136379E0,-1.588672543E1,1.520318091E-1
1.929253126E1,-2.176927805E0,-1.414614105E1,1.592144072E-1
1.931271600E1,-1.748365760E0,-1.058117485E1,1.016338587E0
1.933290152E1,-1.082777739E0,-7.753622055E0,1.614889026E0
1.935308792E1,-5.249287486E-1,-5.991489887E0,1.054645896E0
1.937327527E1,2.316390127E-1,-5.110423565E0,-1.280897856E-1
1.939346355E1,7.775170207E-1,-4.847061157E0,-2.813186944E-1
1.941365277E1,5.787982345E-1,-5.421669960E0,1.352723986E-1
1.943384287E1,7.176619768E-1,-6.604405403E0,4.273650050E-1
1.945403376E1,4.375403523E-1,-7.097610950E0,1.376665980E-1
1.947422532E1,4.967968538E-2,-6.695384979E0,-1.496376097E-1
1.949441746E1,-4.746504724E-1,-6.003460884E0,7.541735470E-2
1.951461001E1,-8.984242082E-1,-5.881356239E0,6.260837317E-1
1.953480282E1,-1.925536752E0,-6.673837185E0,1.909375906E0
1.955500115E1,-3.474585295E0,-8.141483307E0,3.044227362E0
1.957519267E1,-5.210381508E0,-8.900444984E0,3.513490915E0
1.959537209E1,-6.508038998E0,-8.299500465E0,2.795230389E0
1.961555204E1,-6.287772179E0,-7.921216488E0,1.329979062E0
1.963573287E1,-4.686051369E0,-7.969100475E0,9.852139950E-1
1.965591485E1,-2.567182779E0,-8.143877029E0,2.579752445E0
1.967609818E1,-1.477820992E0,-9.340977669E0,3.360262156E0
1.969628303E1,-1.310226917E0,-1.196262836E1,2.043451071E0
1.971646949E1,-1.178545833E0,-1.550365353E1,1.076193690E0
1.973665761E1,-1.470638394E0,-1.779729843E1,-2.573766708E-1
1.975684735E1,-1.190516829E0,-1.574067879E1,-2.385822058E0
1.977703860E1,-7.356184721E-1,-1.387559605E1,-2.972401381E0
1.979723121E1,-1.597531080E0,-1.544379807E1,-1.856703401E0
1.981742496E1,-2.016516447E0,-1.510621548E1,1.197100850E-3
1.983761964E1,-1.185728431E0,-1.136886692E1,8.894459605E-1
1.985781501E1,-7.475894690E-1,-9.247604370E0,-4.441244006E-1
1.987801074E1,-5.201402903E-1,-8.488641739E0,-1.681926727E0
1.989820631E1,-4.124012291E-1,-8.285135269E0,-2.069787264E0
1.991839839E1,-4.914098978E-1,-8.450334549E0,-2.036268473E0
1.993858454E1,-5.321113467E-1,-8.783128738E0,-1.782483220E0
1.995876818E1,-5.249287486E-1,-8.459911346E0,-1.310825467E0
1.997895230E1,-3.046621680E-1,-7.487865925E0,-7.577648163E-1
1.999913704E1,-1.082777739E0,-6.958747387E0,3.242946148E0
2.001932256E1,-3.230376720E0,-7.808688641E0,6.762422562E0
2.003950897E1,-2.440289974E0,-8.380903244E0,2.282871246E0
2.005969631E1,-2.622249365E0,-7.559691906E0,6.500257850E-1
2.007988459E1,-2.923918724E0,-6.065710068E0,1.472434103E-1
2.010007381E1,-2.552817583E0,-5.163095951E0,-1.009155989E0
2.012026392E1,-2.016516447E0,-5.792770863E0,1.975216419E-1
2.014045480E1,-2.253542423E0,-7.885303497E0,8.008604646E-1
2.016064636E1,-2.148197412E0,-9.829395294E0,-3.339911401E-1
2.018083850E1,-1.652597666E0,-1.047343540E1,-2.549824715E-1
2.020103105E1,-6.566098332E-1,-9.015366554E0,1.328781992E-1
2.022122386E1,-3.453635871E-1,-7.813477039E0,-4.513070285E-1
2.024142220E1,-1.032499433E0,-7.607575893E0,-7.194576263E-1
2.026161376E1,-3.122637510E0,-8.450334549E0,-2.430114746E-1
2.028179329E1,-5.452195644E0,-9.238027573E0,1.777694821E0
2.030197334E1,-5.114613533E0,-1.037766743E1,2.661155224E0
2.032215428E1,-4.001309395E0,-1.431134033E1,2.548627615E0
2.034233636E1,-3.335721493E0,-1.881243896E1,3.511096716E0
2.036251980E1,-2.935889721E0,-2.096003914E1,4.452018261E0
2.038270475E1,-2.126649618E0,-1.934634590E1,2.294842243E0
2.040289131E1,-1.777096152E0,-1.394263363E1,1.440112352E0
2.042307954E1,-1.128267527E0,-9.326612473E0,5.159504414E-1
2.044326938E1,-5.225345492E-1,-7.143100739E0,2.214636505E-1
2.046346074E1,-5.057750940E-1,-7.322665691E0,-7.781155407E-2
2.048365345E1,-7.164648771E-1,-8.127118111E0,-6.739677787E-1
2.050384730E1,-5.608417392E-1,-7.990648270E0,-3.387795389E-1
2.052404204E1,-5.321113467E-1,-7.507019520E0,6.643909812E-1
2.054423735E1,-1.059434265E-1,-7.126341343E0,1.179144382E0
2.056443298E1,8.559270948E-2,-6.709750175E0,1.102529883E0
2.058462803E1,9.277531505E-2,-6.194996834E0,1.073799491E0
2.060481964E1,-1.897404790E-1,-5.847837448E0,7.146692276E-1
2.062500579E1,-7.882909179E-1,-5.354631901E0,-3.711012751E-2
2.064518944E1,-1.322197914E0,-4.952406406E0,3.938461840E-1
2.066537355E1,-2.435501575E0,-5.627571106E0,1.995567083E0
2.068555829E1,-4.750694752E0,-8.172607422E0,3.750516891E0
2.070574381E1,-5.863998413E0,-9.750386238E0,4.947618008E0
2.072593022E1,-4.982932091E0,-8.249221802E0,3.738545895E0
2.074611756E1,-3.287837505E0,-6.151901245E0,8.631097078E-1
2.076630584E1,-2.320580006E0,-5.910087109E0,-8.978256583E-2
2.078649506E1,-1.456273198E0,-8.459911346E0,8.200140595E-1
2.080668516E1,-1.849520802E-1,-1.330817032E1,2.888604403E0
2.082687605E1,-3.573346138E-1,-1.651879501E1,3.013102770E0
2.084706761E1,-1.994968534E0,-1.735915947E1,-5.865794048E-2
2.086725975E1,-2.797026157E0,-1.660977364E1,-2.606088638E0
2.088745230E1,-3.881599426E0,-1.404558468E1,-2.201468468E0
2.090764511E1,-3.749918461E0,-1.143350983E1,5.985504016E-3
2.092784345E1,-2.823362350E0,-1.245104599E1,-7.433996201E-1
2.094803496E1,-1.532887697E0,-1.433288860E1,-1.971625090E0
2.096821438E1,-8.457517624E-1,-1.365532970E1,-2.074575663E0
2.098839433E1,-8.481459618E-1,-1.137844372E1,-1.715445518E0
2.100857516E1,-9.630676508E-1,-9.652224541E0,-1.296460271E0
2.102875714E1,-1.087566137E0,-9.130288124E0,-1.004367590E0
2.104894048E1,-1.140238523E0,-8.735244751E0,-7.122750282E-1
2.106912532E1,-1.075595140E0,-7.976283073E0,-4.106055796E-1
2.108931178E1,-4.554968774E-1,-7.231686115E0,3.240551949E0
2.110949990E1,-3.788824081E-1,-7.147889137E0,4.902127743E0
2.112968964E1,-1.444302201E0,-6.800729752E0,5.829881430E-1
2.114988089E1,-1.288679123E0,-5.457582951E0,-3.232172132E-2
2.117007350E1,-1.571194887E0,-4.624400616E0,-3.196259141E-1
2.119026725E1,-2.718017578E0,-5.907692909E0,-3.363853395E-1
2.121046194E1,-3.816956043E0,-7.933187485E0,-3.124433160E-1
2.123065730E1,-3.702034473E0,-8.079233170E0,-1.424549967E-1
2.125085303E1,-2.172139406E0,-6.171054840E0,2.430114746E-1
2.127104860E1,-1.475426793E0,-5.538985729E0,-2.549824715E-1
2.129124068E1,-1.580771685E0,-7.528567314E0,-9.469067454E-1
2.131142683E1,-1.798644066E0,-1.021486187E1,-1.301248670E0
2.133161048E1,-1.346139908E0,-1.021246719E1,-7.146692276E-1
2.135179459E1,-7.739257216E-1,-9.606734276E0,2.639607430E0
2.137197933E1,-2.674921751E0,-1.042794514E1,1.200692177E0
2.139216485E1,-3.553593874E0,-1.220683765E1,1.950077295E0
2.141235126E1,-4.494514942E0,-1.378701019E1,1.715445518E0
2.143253860E1,-4.762665749E0,-1.485003567E1,-5.374982953E-1
2.145272688E1,-4.621407986E0,-1.678215599E1,-1.533486247E0
2.147291610E1,-3.697246075E0,-1.953309441E1,-2.572569609E0
2.149310621E1,-2.279878616E0,-2.210686111E1,-4.344278812E0
2.151329709E1,-2.097919226E0,-2.139817810E1,-3.731363297E0
2.153348865E1,-2.720411777E0,-1.657146645E1,-6.524199843E-1
2.155368079E1,-3.946243048E0,-1.124915695E1,7.541735470E-2
2.157387334E1,-2.995744944E0,-7.942764282E0,6.979097724E-1
2.159406615E1,-8.439560980E-2,-6.666654587E0,1.382651448E0
2.161426449E1,1.081580639E0,-6.853402138E0,2.717418969E-1
2.163445595E1,9.929951429E-1,-7.691372871E0,-1.088164687E0
2.165463527E1,1.225232720E0,-7.964312077E0,-1.811213613E0
2.167481511E1,2.417545080E0,-7.365761757E0,-2.053027868E0
2.169499584E1,3.159747601E0,-6.391321659E0,-1.856703401E0
2.171517772E1,3.715202570E0,-5.285200119E0,-1.021126986E0
2.173536095E1,4.711190224E0,-4.703409195E0,6.356605291E-1
2.175554574E1,2.771887064E0,-4.866214752E0,2.211045265E0
2.177573220E1,-2.962226152E0,-7.284358501E0,6.645106792E0
2.179592032E1,-8.152854919E0,-1.098818874E1,8.167819023E0
2.181611006E1,-1.137305641E1,-1.305438519E1,4.339490414E0
2.183630131E1,-1.141136360E1,-1.189080238E1,-8.918401599E-1
2.185649392E1,-8.689156532E0,-8.639476776E0,-4.369418025E-1
2.187668767E1,-6.701969147E0,-5.912481308E0,-1.717839718E0
2.189688235E1,-3.620631456E0,-6.403292656E0,-4.100070477E0
2.191707772E1,-1.532887697E0,-1.313339329E1,3.770867586E-1
2.193727345E1,-5.136161327E0,-2.208770752E1,1.106719780E1
2.195746923E1,-2.859275341E0,-2.005981827E1,1.693897724E0
2.197766152E1,1.081580639E0,-1.154364395E1,-2.527079821E0
2.199784767E1,1.292270422E0,-7.135918140E0,-2.215833664E0
2.201803131E1,7.200561762E-1,-5.239710331E0,-1.265335560E0
2.203821542E1,-8.200141042E-2,-4.368220806E0,-6.715735793E-1
2.205840017E1,-1.145026922E0,-5.677849293E0,-1.472434103E-1
2.207858568E1,-1.219247222E0,-8.883685112E0,-9.397241473E-1
2.209877209E1,-1.537676096E0,-1.167053604E1,-3.180696964E0
2.211895944E1,-2.129043818E0,-1.254681396E1,-5.225345135E0
2.213914772E1,-1.822586060E0,-1.094269848E1,-4.710591793E0
2.215933694E1,-1.010951638E0,-8.845377922E0,-3.077746391E0
2.217952704E1,-4.626794755E-1,-8.103176117E0,-1.945288897E0
2.219971792E1,-6.045359373E-2,-8.134300232E0,-1.440112352E0
2.221990949E1,2.573766746E-2,-8.890868187E0,-1.179144382E0
2.224010162E1,-1.059434265E-1,-1.008318043E1,-9.014169574E-1
2.226029418E1,1.179742932E0,-1.135210705E1,2.553416014E0
2.228048699E1,2.113481522E0,-1.137844372E1,7.183802128E0
2.230068532E1,-9.397241473E-2,-1.038963795E1,2.771288395E0
2.232087678E1,-1.355716705E0,-9.733627319E0,-5.542576909E-1
2.234105610E1,-1.362899303E0,-9.542090416E0,-1.243787766E0
2.236123595E1,-1.118690729E0,-9.355342865E0,-1.037886381E0
2.238141668E1,-1.197699428E0,-9.424775124E0,-8.032546639E-1
2.240159855E1,-1.659780383E0,-9.692925453E0,-6.691793799E-1
2.242178178E1,-2.150591612E0,-9.779116631E0,-7.481880188E-1
2.244196657E1,-2.449866772E0,-9.630676270E0,-9.684545994E-1
2.246215303E1,-2.684498549E0,-9.276334763E0,-1.136048675E0
2.248234115E1,-2.799420357E0,-9.233239174E0,-1.207874775E0
2.250253089E1,-2.294243813E0,-9.099164009E0,-1.243787766E0
2.252272214E1,-1.506551385E0,-8.871714592E0,-1.047463298E0
2.254291475E1,-1.147421122E0,-9.369708061E0,-8.104372621E-1
2.256310850E1,-1.226429820E0,-1.023880386E1,-7.577648163E-1
2.258330319E1,-1.911171556E0,-1.093312168E1,-7.314286232E-1
2.260349855E1,-2.916736126E0,-1.164659405E1,5.087678432E-1
2.262369428E1,-4.164115429E0,-1.138323212E1,6.212953329E-1
2.264389001E1,-4.786607742E0,-1.052610779E1,-4.489128292E-1
2.266408225E1,-5.421071053E0,-9.319430351E0,1.315613866E0
2.268426839E1,-5.303755283E0,-8.498218536E0,2.136825085E0
2.270445204E1,-3.991732836E0,-8.900444984E0,8.463503122E-1
2.272463615E1,-1.686116576E0,-9.360131264E0,9.205705523E-1
2.274482089E1,-4.195838571E-1,-1.084693050E1,-9.828197956E-1
2.276500642E1,-4.794389009E-1,-1.323634434E1,-3.417722940E0
2.278519282E1,-2.783259451E-1,-1.581011105E1,-4.112041473E0
2.280538017E1,2.196680009E-1,-1.758181953E1,-2.493561029E0
2.282556845E1,1.534084797E0,-1.740464973E1,1.018732786E0
2.284575766E1,1.902791858E0,-1.414374638E1,7.577648163E-1
2.286594777E1,1.239597917E0,-1.086129570E1,-1.001973391E0
2.288613865E1,7.511807680E-1,-8.749609947E0,-1.837549806E0
2.290633022E1,2.029085904E-1,-7.442376137E0,-1.555034041E0
2.292652235E1,-3.429693878E-1,-7.186196327E0,7.457938194E-1
2.294671490E1,-7.356184721E-1,-7.590816498E0,1.562216640E0
2.296690772E1,-1.403600693E0,-7.868544102E0,1.186326981E0
2.298710605E1,-2.287061214E0,-7.471106529E0,2.885012925E-1
2.300729746E1,-2.344521999E0,-6.851007938E0,7.781155407E-2
2.302747668E1,-1.865681648E0,-6.611588001E0,4.680664241E-1
2.304765642E1,-1.693299174E0,-7.411251545E0,1.069011092E0
2.306783704E1,-1.650203466E0,-8.570044518E0,2.007538080E0
2.308801881E1,-1.121084929E0,-8.989029884E0,2.474407434E0
2.310820194E1,-4.650736749E-1,-8.701725960E0,2.194285870E0
2.312838662E1,-5.991489887E-1,-8.009801865E0,1.035492182E0
2.314857298E1,-1.200093627E0,-7.365761757E0,2.693476975E-1
2.316876100E1,-1.786673069E0,-7.020996571E0,5.518634915E-1
2.318895069E1,-2.485780001E0,-6.939593792E0,1.337161660E0
2.320914194E1,-3.077147722E0,-6.781576157E0,1.727416515E0
2.322933459E1,-3.400364876E0,-6.135141850E0,2.043451071E0
2.324952845E1,-3.563170671E0,-5.459977150E0,2.388216257E0
2.326972324E1,-3.529651880E0,-5.285200119E0,2.321178436E0
2.328991871E1,-3.168127298E0,-5.658695698E0,2.026691675E0
2.331011454E1,-2.959831953E0,-6.029797077E0,1.808819413E0
2.333030777E1,-2.749142170E0,-6.089652061E0,1.057040095E0
2.335049834E1,-2.198475599E0,-6.396110058E0,1.783680320E-1
2.337069438E1,-1.487397790E0,-7.698555470E0,-1.568202078E-1
2.339088501E1,-5.560533404E-1,-9.750386238E0,7.577648163E-1
2.341106496E1,1.385644197E0,-1.194347477E1,4.612429619E0
2.343124537E1,2.376843691E0,-1.456991482E1,7.471106529E0
2.345142657E1,7.056909800E-1,-1.620276070E1,3.640383720E0
2.347160886E1,-1.317409515E0,-1.528817463E1,-6.787561774E-1
2.349179246E1,-2.021304846E0,-1.362420464E1,-1.487996340E0
2.351197751E1,-3.407547474E0,-1.395699883E1,-2.268506050E0
2.353216412E1,-6.400299549E0,-1.746689796E1,-2.718616009E0
2.355235230E1,-8.880692482E0,-1.608304977E1,1.885433793E0
2.357254199E1,-6.084265232E0,-1.114860058E1,2.445677042E0
2.359273308E1,-3.247136116E0,-8.773551941E0,-3.722983599E-1
2.361292548E1,-1.350928307E0,-8.582015991E0,-1.265335560E0
2.363311897E1,-8.672995567E-1,-9.925163269E0,-1.775300503E0
2.365331329E1,-1.255160213E0,-1.115338898E1,-1.906981707E0
2.367350824E1,-8.194155097E-1,-1.112705231E1,-1.753752708E0
2.369370355E1,-4.004302323E-1,-9.242815971E0,-1.322796464E0
2.371389876E1,-2.256535143E-1,-7.217320919E0,-8.774749041E-1
2.373409068E1,-2.855085433E-1,-6.336254597E0,-5.662286878E-1
2.375427683E1,-4.339490533E-1,-6.925228596E0,-5.422866940E-1
2.377446048E1,-5.057750940E-1,-8.153453827E0,-7.362170219E-1
2.379464459E1,-2.328361124E-1,-8.574832916E0,-8.583213091E-1
2.381482933E1,4.489128292E-2,-7.753622055E0,-7.433996201E-1
2.383501485E1,-1.310226917E0,-8.282740593E0,7.358579159E0
2.385520126E1,-2.689286947E0,-1.022683239E1,1.209670448E1
2.387538860E1,-1.010951638E0,-9.963470459E0,1.100135684E0
2.389557688E1,-8.960300088E-1,-9.300276756E0,-8.726865053E-1
2.391576610E1,-1.099537134E0,-7.710526466E0,-1.306037068E0
2.393595621E1,-9.846154451E-1,-5.780799866E0,-1.368286252E0
2.395614709E1,-1.473032594E0,-5.234921932E0,-1.155202270E0
2.397633865E1,-3.405153275E0,-7.135918140E0,-5.901707411E-1
2.399653079E1,-4.702810764E0,-8.711302757E0,-7.194576263E-1
2.401672334E1,-4.547187805E0,-8.802282333E0,-8.200140595E-1
2.403691615E1,-3.306991100E0,-8.421604156E0,-2.035071515E-2
2.405711449E1,-1.774701953E0,-8.086416245E0,1.113303825E-1
2.407730579E1,-9.032126069E-1,-7.815871239E0,1.016338587E0
2.409748480E1,-1.348534107E0,-7.942764282E0,4.286818027E0
2.411766433E1,-3.766677856E0,-8.601169586E0,5.309142113E0
2.413784475E1,-5.373187065E0,-1.050455952E1,4.856637955E0
2.415802636E1,-5.066729546E0,-1.399530602E1,2.941276789E0
2.417820944E1,-3.259107113E0,-1.697129822E1,1.935712099E0
2.419839412E1,-2.382829189E0,-1.926015472E1,1.930923700E0
2.421858053E1,-2.761113167E0,-1.704073143E1,2.249352455E0
2.423876871E1,-3.409941673E0,-1.259230423E1,1.181538582E0
2.425895860E1,-3.093907118E0,-1.041118622E1,1.109712481E0
2.427915006E1,-3.740341663E0,-9.352949142E0,2.242169857E0
2.429934292E1,-3.393182278E0,-9.929951668E0,1.253364563E0
2.431953699E1,-2.009333849E0,-1.067933655E1,2.220622063E0
2.433973199E1,-1.231218219E0,-9.898826599E0,2.936488390E0
2.435992766E1,-7.212532759E-1,-8.323442459E0,2.917334795E0
2.438012371E1,-2.352303118E-1,-7.207744122E0,1.667561531E0
2.440031912E1,-1.514332592E-1,-6.592434406E0,3.435679376E-1
2.442051089E1,-3.142389655E-1,-6.300341606E0,-2.382230759E-1
2.444069970E1,-5.805939063E-2,-6.420052052E0,-5.111620426E-1
2.446088574E1,4.782418013E-1,-6.534973621E0,-3.842693865E-1
2.448106928E1,8.900445104E-1,-6.599617004E0,-5.386953801E-2
2.450125334E1,1.040879130E0,-6.831854343E0,-5.147533491E-2
2.452143808E1,-2.136825025E-1,-7.214926720E0,-7.302315533E-2
2.454162360E1,-2.279878616E0,-7.744045258E0,1.296460271E0
2.456181001E1,-4.561553001E0,-7.856573105E0,4.449624062E0
2.458199735E1,-5.172074318E0,-6.846219540E0,2.644395828E0
2.460218563E1,-5.157709122E0,-6.125565052E0,1.447294950E0
2.462237485E1,-4.707599163E0,-6.870162010E0,1.672349930E0
2.464256496E1,-3.632602453E0,-8.720879555E0,2.014720678E0
2.466275584E1,-2.648585558E0,-9.898826599E0,1.935712099E0
2.468294740E1,-1.896806240E0,-9.575610161E0,1.782483220E0
2.470313954E1,-2.021304846E0,-9.278728485E0,1.883039594E0
2.472333209E1,-2.926312923E0,-1.137365532E1,1.600523829E0
2.474352490E1,-3.259107113E0,-1.453400135E1,1.511938334E0
2.476372324E1,-3.036446333E0,-1.579335117E1,2.929305792E0
2.478391459E1,-2.516904593E0,-1.246301651E1,-7.984662652E-1
2.480409371E1,-2.842515945E0,-1.149815369E1,-2.208651066E0
2.482427334E1,-3.790619850E0,-1.393305683E1,-2.024297476E0
2.484445386E1,-4.798578739E0,-1.767040634E1,-2.038662672E0
2.486463558E1,-3.907935619E0,-1.729212189E1,-1.073799491E0
2.488481876E1,-1.104325533E0,-1.246541119E1,4.417302012E-1
2.490500355E1,-3.549404144E-1,-9.479841232E0,-3.315969408E-1
2.492519001E1,9.516951442E-2,-7.796717644E0,-7.218518257E-1
2.494537813E1,3.585317135E-1,-6.839036942E0,-9.540894032E-1
2.496556793E1,5.404910445E-1,-6.417657852E0,-1.155202270E0
2.498575928E1,5.093663931E-1,-7.030573368E0,-1.303642869E0
2.500595199E1,1.406593472E-1,-8.270770073E0,-1.277306557E0
2.502614584E1,2.029085904E-1,-8.838195801E0,-1.033097982E0
2.504634063E1,3.321954906E-1,-8.311470985E0,-8.295909166E-1
2.506653610E1,3.052607179E-2,-6.894104004E0,-6.452373862E-1
2.508673194E1,-2.567781210E-1,-5.270834923E0,-4.441244006E-1
2.510692756E1,-2.267907619E0,-6.372167587E0,7.523778915E0
2.512711964E1,-4.228758812E0,-9.554061890E0,1.090439129E1
2.514730845E1,-1.836951256E0,-9.812635422E0,7.673416734E-1
2.516749449E1,-1.073200941E0,-9.269151688E0,-7.673416734E-1
2.518767803E1,-6.254851818E-1,-7.109581947E0,-1.806425214E0
2.520786209E1,-7.595604658E-1,-5.438429356E0,-2.476801634E0
2.522804683E1,-9.726444483E-1,-5.527014732E0,-2.388216257E0
2.524823235E1,-1.671751380E0,-7.420828342E0,-1.772906303E0
2.526841876E1,-3.706822872E0,-8.763975143E0,1.480813742E0
2.528860610E1,-3.323750496E0,-7.767987251E0,-1.113303825E-1
2.530879438E1,-3.177704096E0,-7.329848289E0,-8.080430627E-1
2.532898360E1,-4.063559055E0,-8.804677010E0,1.638831019E0
2.534917371E1,-4.956595898E0,-1.149815369E1,4.102464676E0
2.536936459E1,-5.128978729E0,-1.609980965E1,5.646724701E0
2.538955615E1,-4.537611008E0,-1.983955193E1,6.025008678E0
2.540974829E1,-3.151367903E0,-2.037106514E1,3.551798105E0
2.542994084E1,-2.411559582E0,-1.824980164E1,1.526303530E0
2.545013365E1,-3.551199675E0,-1.456273174E1,1.978807688E0
2.547033199E1,-3.620631456E0,-1.067694283E1,2.500743628E0
2.549052329E1,-1.508945584E0,-8.119935036E0,2.402581453E0
2.551070230E1,-2.304419130E-1,-7.722497463E0,1.332373261E0
2.553088183E1,-7.020996213E-1,-8.210914612E0,6.428431273E-1
2.555106225E1,-3.046621680E-1,-7.753622055E0,1.358709455E0
2.557124386E1,3.920505345E-1,-6.506243229E0,1.483207941E0
2.559142694E1,7.894880176E-1,-5.424064159E0,5.853823423E-1
2.561161162E1,7.416039705E-1,-5.134365559E0,-1.711854190E-1
2.563179803E1,1.024119735E0,-5.682637691E0,6.584054977E-2
2.565198621E1,7.703344226E-1,-6.194996834E0,7.302315533E-2
2.567217610E1,-4.387374520E-1,-6.314706802E0,7.541735470E-2
2.569236756E1,-1.947084546E0,-6.269217014E0,9.109937549E-1
2.571256043E1,-4.058770657E0,-7.169436932E0,1.504755735E0
2.573275449E1,-5.569511890E0,-9.115922928E0,1.813607812E0
2.575294949E1,-5.631761074E0,-1.056680965E1,2.816778183E0
2.577314517E1,-5.325303078E0,-9.633070946E0,3.853467703E0
2.579334121E1,-4.389170170E0,-7.782352448E0,3.740940094E0
2.581353652E1,-3.309385300E0,-7.734468460E0,2.682703018E0
2.583372813E1,-2.514510393E0,-8.459911346E0,1.775300503E0
2.585391418E1,-2.004545450E0,-9.300276756E0,1.258152962E0
2.587409772E1,-2.035670042E0,-1.043033981E1,9.205705523E-1
2.589428178E1,-1.841739655E0,-1.218050098E1,4.632780254E-1
2.591446652E1,-1.453878999E0,-1.408389187E1,1.332373261E0
2.593465204E1,-1.003769040E0,-1.260188103E1,5.111620426E-1
2.595483845E1,-1.104325533E0,-1.224035645E1,-1.483207941E0
2.597502579E1,-2.471414804E0,-1.477820969E1,-7.841010690E-1
2.599521407E1,-4.396352768E0,-1.677736855E1,1.490390539E0
2.601540329E1,-4.178480625E0,-1.438077259E1,3.699041605E-1
2.603559339E1,-1.501762986E0,-1.141435623E1,-2.397793055E0
2.605578428E1,-1.514332592E-1,-1.037287903E1,-2.709039211E0
2.607597584E1,8.080431074E-2,-1.010951710E1,-2.072181463E0
2.609616798E1,-2.639607489E-1,-9.209297180E0,-1.411381960E0
2.611636053E1,-5.464765429E-1,-8.304288864E0,-9.540894032E-1
2.613655329E1,-4.818331003E-1,-7.959523678E0,-7.481880188E-1
2.615675152E1,-3.525462151E-1,-7.372944355E0,-6.883329749E-1
2.617694277E1,-8.313865662E-1,-6.898892403E0,6.380547285E-1
2.619712178E1,-1.741183162E0,-6.896498203E0,1.375468850E0
2.621730131E1,-2.050035238E0,-7.035361767E0,1.069011092E0
2.623748173E1,-3.527257681E0,-7.899668694E0,2.709039211E0
2.625766334E1,-5.284601688E0,-8.347384453E0,5.407304764E0
2.627784642E1,-3.249530315E0,-7.799111843E0,1.483207941E0
2.629803110E1,-1.745971560E0,-7.720103264E0,-1.329979062E0
2.631821751E1,-2.021304846E0,-8.579621315E0,-2.685097218E0
2.633840568E1,-2.275090218E0,-8.124723434E0,-1.514332533E0
2.635859558E1,-2.085948229E0,-7.286752701E0,3.531447649E-1
2.637878704E1,-2.141014814E0,-7.959523678E0,2.443282843E0
2.639897985E1,-1.564012289E0,-8.646659851E0,2.035071515E-2
2.641917381E1,-1.683722377E0,-8.960299492E0,-1.385045648E0
2.643936871E1,-2.540846586E0,-8.955511093E0,-5.279214978E-1
2.645956428E1,-3.711611271E0,-8.483853340E0,1.837549806E0
2.647976022E1,-4.049193859E0,-7.988254070E0,1.428141356E0
2.649995569E1,-3.187281132E0,-9.178172112E0,1.401805043E0
2.652014751E1,-2.993350744E0,-1.305438519E1,1.736993313E0
2.654033355E1,-2.780266762E0,-1.745014000E1,3.575740337E0
2.656051709E1,-7.523778677E-1,-1.893214989E1,5.371391296E0
2.658070115E1,8.493430614E-1,-1.678694534E1,3.142389774E0
2.660088589E1,-1.657984704E-1,-1.540070248E1,8.032546639E-1
2.662107142E1,-1.762730956E0,-1.503678417E1,1.855506301E-1
2.664125782E1,-3.081936121E0,-1.284608936E1,6.404489279E-1
2.666144516E1,-3.273472309E0,-9.233239174E0,1.861491799E0
2.668163345E1,-2.732382774E0,-6.867767811E0,2.132036686E0
2.670182266E1,-1.820191860E0,-5.407304764E0,1.736993313E0
2.672201277E1,-8.242039084E-1,-5.026626587E0,1.286883354E0
2.674220365E1,-2.687491477E-1,-5.318718910E0,5.638344884E-1
2.676239522E1,-4.129998013E-2,-5.625176907E0,-2.789244950E-1
2.678258735E1,5.446808785E-2,-5.632359505E0,-6.428431273E-1
2.680277990E1,7.392097712E-1,-5.675455093E0,-3.076549172E-1
2.682297266E1,1.334767491E-1,-5.517437935E0,-3.459621370E-1
2.684317089E1,-1.051653147E0,-5.227739334E0,3.890577853E-1
2.686336209E1,-4.190451622E0,-6.274005413E0,1.669955730E0
2.688354100E1,-9.309254646E0,-7.914033890E0,3.661931515E0
2.690372043E1,-1.153586197E1,-7.815871239E0,4.308365822E0
2.692390074E1,-1.036270332E1,-6.496666431E0,2.682703018E0
2.694408225E1,-7.705139637E0,-5.167884350E0,2.191891670E0
2.696426522E1,-5.677250862E0,-5.984307289E0,1.284489155E0
2.698444980E1,-3.922300816E0,-8.696937561E0,-1.556231081E-2
2.700463610E1,-1.992574334E0,-1.259709263E1,-4.944026470E-1
2.702482418E1,1.517325282E0,-1.833838844E1,4.100070477E0
2.704501397E1,1.182137132E0,-1.948042297E1,8.990227580E-1
2.706520537E1,5.740098357E-1,-1.510861015E1,-3.903745890E0
2.708539824E1,1.088763237E0,-1.172560310E1,-3.772064686E0
2.710559230E1,2.292448133E-1,-1.303523159E1,-3.858256102E0
2.712578730E1,-1.839345455E0,-1.608544350E1,-2.888604403E0
2.714598298E1,-3.840898037E0,-1.383250046E1,1.638831019E0
2.716617902E1,-3.637390852E0,-1.029147625E1,1.744175911E0
2.718637464E1,-1.485003591E0,-8.598775864E0,-1.787271619E0
2.720656662E1,-4.890156984E-1,-8.172607422E0,-1.660378933E0
2.722675542E1,-1.350928307E0,-1.000417137E1,-4.201824069E-1
2.724694147E1,-1.700481772E0,-9.649829865E0,4.497508049E0
2.726712501E1,-1.610100716E-1,-7.942764282E0,3.128024578E0
2.728730907E1,-1.250970364E-1,-7.188590527E0,-3.579331636E-1
2.730749381E1,-6.733692288E-1,-6.475118637E0,-7.553706169E-1
2.732767933E1,-1.188122630E0,-5.816712856E0,-5.135562420E-1
2.734786574E1,-3.304596901E0,-6.259640217E0,2.258929253E0
2.736805308E1,-5.964554787E0,-7.332242489E0,4.880579948E0
2.738824136E1,-4.252700806E0,-7.092822552E0,-8.738835901E-2
2.740843058E1,-2.552817583E0,-6.760028362E0,-1.365892053E0
2.742862069E1,-2.047641039E0,-6.774393559E0,-9.157821536E-1
2.744881157E1,-2.933495522E0,-7.660248280E0,9.157821536E-1
2.746900313E1,-4.231153011E0,-8.476671219E0,2.098517895E0
2.748919527E1,-3.369240284E0,-8.163030624E0,2.837128937E-1
2.750938782E1,-2.107496023E0,-8.388085365E0,-1.001973391E0
2.752958058E1,-2.758718967E0,-9.927556992E0,-5.303156972E-1
2.754977881E1,-3.589506865E0,-1.187164879E1,3.671508312E0
2.756996996E1,-3.536834478E0,-1.273834991E1,3.508702517E0
2.759014876E1,-3.129820108E0,-1.328662205E1,1.634042621E0
2.761032808E1,-3.374028683E0,-1.523789692E1,-9.301473498E-1
2.763050829E1,-3.670909643E0,-1.911650276E1,-3.515885115E0
2.765068970E1,-4.571129799E0,-2.164478111E1,-1.183932781E0
2.767087256E1,-4.870404720E0,-1.661216927E1,4.820724964E0
2.769105704E1,-3.091512918E0,-1.092115116E1,5.819107056E0
2.771124324E1,-1.061229944E0,-7.911639690E0,3.671508312E0
2.773143121E1,1.047463268E-1,-6.843825340E0,1.057040095E0
2.775162089E1,6.578069329E-1,-5.902904510E0,3.711012751E-2
2.777181220E1,1.055244446E0,-4.732139587E0,-5.386953801E-2
2.779200496E1,1.256357312E0,-3.702632904E0,-2.430114746E-1
2.781219897E1,1.026513934E0,-3.587711334E0,-4.991910458E-1
2.783239397E1,4.997895956E-1,-4.483142853E0,-7.601590157E-1
2.785258964E1,7.655459642E-1,-5.749675274E0,-6.452373862E-1
2.787278568E1,7.727286220E-1,-6.625953197E0,-2.047042400E-1
2.789297912E1,-5.087678507E-2,-7.693767071E0,1.593341231E0
2.791316990E1,-1.394023895E0,-1.077510452E1,6.618770599E0
2.793336615E1,-4.571129799E0,-1.341351509E1,5.151124954E0
2.795355668E1,-5.638943672E0,-1.246541119E1,2.172738075E0
2.797373621E1,-6.290166378E0,-8.297105789E0,2.031480074E0
2.799391621E1,-8.583811760E0,-5.649118900E0,3.204638958E0
2.801409704E1,-8.981248856E0,-6.120776653E0,1.952471495E0
2.803427902E1,-6.994061947E0,-8.672995567E0,2.091335297E0
2.805446235E1,-4.741117954E0,-1.309987450E1,5.718550682E0
2.807464720E1,-2.409165382E0,-1.417247677E1,3.118447781E0
2.809483365E1,-1.228824019E0,-1.469201851E1,-1.464054346E0
2.811502178E1,3.968389332E-1,-1.547252846E1,-2.179920673E0
2.813521152E1,6.482301354E-1,-1.582208157E1,-2.491166830E0
2.815540277E1,-6.661866307E-1,-1.624824905E1,-3.060986757E0
2.817559537E1,-1.530493379E0,-1.511579227E1,-2.981978178E0
2.819578912E1,-1.288679123E0,-1.275510979E1,-2.689885616E0
2.821598376E1,-6.566098332E-1,-1.060751057E1,-2.409764051E0
2.823617902E1,-3.549404144E-1,-8.821435928E0,-1.950077295E0
2.825637464E1,-1.011550203E-1,-7.751227856E0,-1.746570110E0
2.827656970E1,-2.376245260E-1,-7.643488884E0,-1.720233917E0
2.829676126E1,-2.879027426E-1,-8.249221802E0,-1.705868721E0
2.831694730E1,-1.735796221E-2,-8.457517624E0,-1.583764434E0
2.833713084E1,8.978256024E-3,-8.086416245E0,-1.380257249E0
2.835731485E1,-6.045359373E-2,-7.844601631E0,-9.876081944E-1
2.837749949E1,-3.046621680E-1,-8.352172852E0,-6.117185354E-1
2.839768490E1,-8.242039084E-1,-9.331400871E0,-3.890577853E-1
2.841787121E1,-1.403600693E0,-1.005684471E1,-3.699041605E-1
2.843805845E1,-1.911171556E0,-1.002093124E1,-3.483563364E-1
2.845824662E1,-2.390011787E0,-9.439140320E0,-1.711854190E-1
2.847843574E1,-2.739565372E0,-9.338583946E0,4.129997790E-1
2.849862579E1,-4.370016575E0,-9.709685326E0,5.524620533E0
2.851881668E1,-4.410717964E0,-1.003290176E1,4.447229862E0
2.853900824E1,-2.832939148E0,-1.047343540E1,3.004723191E-1
2.855920037E1,-2.145803213E0,-1.118690777E1,-8.499415964E-2
2.857939292E1,-2.492962599E0,-1.136407852E1,1.758541107E0
2.859958574E1,-3.646967649E0,-1.159392166E1,2.596511841E0
2.861978407E1,-4.925471306E0,-1.204403210E1,1.705868721E0
2.863997548E1,-5.696404457E0,-1.183334160E1,1.126471877E0
2.866015470E1,-4.381987572E0,-1.043273354E1,-4.189852998E-2
2.868033444E1,-3.259107113E0,-9.436745644E0,-3.363853395E-1
2.870051506E1,-2.524087191E0,-1.051653099E1,-1.272518158E0
2.872069683E1,-2.311003208E0,-1.261385155E1,-3.204638958E0
2.874087996E1,-2.303820610E0,-1.479496956E1,-4.303577423E0
2.876106464E1,-3.393182278E0,-1.543182659E1,-3.326743364E0
2.878125100E1,-4.748300552E0,-1.325789165E1,-1.890222192E0
2.880143902E1,-4.659715176E0,-1.043033981E1,-2.155978680E0
2.882162871E1,-3.216011524E0,-8.787917137E0,-1.717839718E0
2.884181996E1,-1.219247222E0,-8.222886086E0,-1.085770488E0
2.886201256E1,-5.847837925E-1,-8.201337814E0,-1.028309584E0
2.888220631E1,-4.171896577E-1,-8.356961250E0,-1.286883354E0
2.890240100E1,1.143231317E-1,-8.294712067E0,-1.780089021E0
2.892259636E1,8.254010081E-1,-8.100781441E0,-1.667561531E0
2.894279209E1,1.246780515E0,-7.957129478E0,-8.774749041E-1
2.896298772E1,1.826177359E0,-7.959523678E0,5.063736439E-1
2.898317985E1,2.240374327E0,-8.045714378E0,1.478419542E0
2.900336865E1,2.182913303E0,-8.309077263E0,1.435323954E0
2.902355470E1,1.754351258E0,-8.507795334E0,1.499967337E0
2.904373824E1,8.948329091E-1,-8.639476776E0,2.012326479E0
2.906392225E1,-3.094505668E-1,-8.479064941E0,2.383427858E0
2.908410688E1,-1.918354154E0,-8.270770073E0,2.936488390E0
2.910429230E1,-3.936666250E0,-8.725667953E0,5.048174381E0
2.912447860E1,-6.941389084E0,-1.029147625E1,8.016983986E0
2.914466584E1,-8.540716171E0,-1.175912189E1,6.439205647E0
2.916485402E1,-8.090605736E0,-1.146942329E1,2.407369852E0
2.918504313E1,-6.783371925E0,-9.161413193E0,1.964442492E0
2.920523313E1,-5.830479622E0,-7.104793549E0,2.943670988E0
2.922542397E1,-5.279813290E0,-9.628282547E0,1.212663174E0
2.924561553E1,-3.682880878E0,-1.422754383E1,-1.136048675E0
2.926580766E1,-8.146271110E-1,-1.614290428E1,4.875791550E0
2.928600022E1,7.870938182E-1,-1.269286060E1,2.941276789E0
2.930619303E1,4.662707746E-1,-9.685743332E0,-1.904587507E0
2.932639136E1,4.189853091E-3,-9.075222015E0,-1.744175911E0
2.934658272E1,-5.009866953E-1,-8.227674484E0,-1.294066072E0
2.936676183E1,-3.046621680E-1,-7.918822289E0,-1.497573137E0
2.938694147E1,-1.490390599E-1,-9.032125473E0,-2.031480074E0
2.940712199E1,-1.466448605E-1,-1.023880386E1,-3.161543369E0
2.942730365E1,-2.088941038E-1,-1.025795746E1,-4.463989258E0
2.944748668E1,-7.475894690E-1,-9.388861656E0,-4.332307816E0
2.946767126E1,-7.260416746E-1,-8.632294655E0,-3.216609955E0
2.948785756E1,-9.798270464E-1,-8.505401611E0,-2.460042238E0
2.950804558E1,-1.140238523E0,-8.519766808E0,-2.060210466E0
2.952823527E1,-1.307832718E0,-8.692149162E0,-1.811213613E0
2.954842652E1,-1.520916581E0,-9.290699959E0,-1.602918029E0
2.956861918E1,-1.628655672E0,-1.011669922E1,-1.483207941E0
2.958881303E1,-1.765125155E0,-1.074876881E1,-1.286883354E0
2.960900782E1,-1.415571809E0,-1.135210705E1,4.710591793E0
2.962920329E1,-6.278793812E-1,-1.121803188E1,1.177109241E1
2.964939912E1,-9.558850527E-1,-1.061469364E1,3.573346138E0
2.966959485E1,-9.894038439E-1,-1.007599831E1,-9.732429981E-1
2.968978699E1,-7.116764784E-1,-9.630676270E0,-1.691503525E0
2.970997303E1,-9.582792521E-1,-9.139864922E0,-1.452083349E0
2.973015657E1,-1.006163239E0,-8.637083054E0,-1.334767461E0
2.975034058E1,-1.135450125E0,-8.225279808E0,-1.203086376E0
2.977052522E1,-1.453878999E0,-8.392873764E0,-1.052251697E0
2.979071063E1,-1.889623642E0,-9.357737541E0,-1.085770488E0
2.981089694E1,-2.167351007E0,-1.043991661E1,-1.322796464E0
2.983108418E1,-2.229600430E0,-1.079665279E1,-1.507149935E0
2.985127235E1,-2.251148224E0,-1.031062984E1,-1.452083349E0
2.987146147E1,-1.951872945E0,-9.877279282E0,-1.183932781E0
2.989165147E1,-1.695693374E0,-1.001614285E1,-1.116895080E0
2.991184225E1,-1.681328177E0,-1.011430550E1,-1.207874775E0
2.993203371E1,-1.935113549E0,-9.769539833E0,-1.121683478E0
2.995222574E1,-2.378040791E0,-9.242815971E0,-6.117185354E-1
2.997241819E1,-4.901529312E0,-9.123106003E0,5.730521679E0
2.999261089E1,-5.931035995E0,-9.537302017E0,6.113594055E0
3.001280912E1,-4.554370403E0,-9.906009674E0,-2.118868530E-1
3.003300068E1,-4.171298027E0,-1.044231033E1,9.421183467E-1
3.005318032E1,-3.299808502E0,-1.119408989E1,4.030638695E0
3.007336042E1,-1.506551385E0,-1.236724854E1,1.904587507E0
3.009354131E1,3.441664875E-1,-1.356195545E1,-1.586158633E0
3.011372329E1,8.708908558E-1,-1.411980438E1,-2.474407434E0
3.013390662E1,1.115099430E0,-1.411262226E1,1.004367590E0
3.015409147E1,1.495777488E0,-1.261863995E1,2.752134800E0
3.017427793E1,1.615487576E0,-1.079665279E1,9.038111567E-1
3.019446605E1,6.625953317E-1,-9.501389503E0,-4.656722248E-1
3.021465579E1,2.148796022E-1,-9.063250542E0,-2.645592988E-1
3.023484704E1,1.693897694E-1,-8.433575630E0,7.062894851E-2
3.025503964E1,-5.632359385E-1,-7.588422298E0,6.955155730E-1
3.027523339E1,-7.954735160E-1,-7.602787495E0,1.250970364E0
3.029542803E1,-1.003769040E0,-7.770381451E0,1.452083349E0
3.031562324E1,-1.631049871E0,-7.890091896E0,1.657984734E0
3.033581876E1,-1.973420739E0,-7.971494675E0,1.437718153E0
3.035601365E1,-1.135450125E0,-7.777564049E0,1.229422569E0
3.037620517E1,5.620388389E-1,-7.578845501E0,1.133654475E0
3.039639397E1,1.416768909E0,-7.564480305E0,3.699041605E-1
3.041658001E1,1.241992116E0,-7.126341343E0,-2.753331885E-2
3.043676355E1,1.215057373E-1,-6.393715858E0,1.520318091E-1
3.045694756E1,-1.326986313E0,-6.123170853E0,6.141127348E-1
3.047713220E1,-2.576759577E0,-6.475118637E0,1.346738458E0
3.049731761E1,-3.405153275E0,-7.665036678E0,1.387439847E0
3.051750392E1,-4.549582005E0,-8.491036415E0,1.203086376E0
3.053769115E1,-5.524022102E0,-8.117541313E0,1.203086376E0
3.055787933E1,-5.684433460E0,-7.267599106E0,1.387439847E0
3.057806845E1,-5.160103321E0,-7.377732754E0,1.660378933E0
3.059825845E1,-4.520851135E0,-8.596381187E0,1.368286252E0
3.061844923E1,-3.589506865E0,-9.901221275E0,1.320402265E0
3.063864069E1,-2.356492996E0,-1.058596325E1,2.244564056E0
3.065883272E1,-1.542464495E0,-1.078946972E1,3.427299738E0
3.067902517E1,-9.606734514E-1,-1.086369038E1,4.337096214E0
3.069921787E1,-1.255160213E0,-1.074637413E1,3.511096716E0
3.071941610E1,-1.767519355E0,-1.079665279E1,1.356315255E0
3.073960761E1,-1.997362733E0,-1.048780060E1,-5.207388401E-1
3.075978714E1,-1.784278870E0,-1.016458321E1,-9.038111567E-1
3.077996714E1,-1.880046844E0,-1.067215443E1,-1.428141356E0
3.080014798E1,-2.533663988E0,-1.243668079E1,-1.933317900E0
3.082032996E1,-3.201646328E0,-1.511100388E1,-2.306813240E0
3.084051329E1,-3.656544447E0,-1.629852867E1,-1.667561531E0
3.086069813E1,-3.120243311E0,-1.361702251E1,-1.047463298E0
3.088088459E1,-2.064400434E0,-1.078228760E1,-1.049857497E0
3.090107272E1,-1.480215192E0,-9.558850288E0,-1.138442874E0
3.092126246E1,-1.468244195E0,-9.369708061E0,-1.358709455E0
3.094145371E1,-1.564012289E0,-9.896432877E0,-1.619677424E0
3.096164631E1,-1.293467522E0,-1.031541824E1,-1.689109325E0
3.098184006E1,-1.319803715E0,-9.613917351E0,-1.487996340E0
3.100203470E1,-1.166574836E0,-8.763975143E0,-1.198297977E0
3.102222990E1,-8.170213103E-1,-8.371326447E0,-9.397241473E-1
3.104242542E1,-4.698620737E-1,-8.258798599E0,-8.248024583E-1
3.106262037E1,-3.405751884E-1,-8.239645004E0,-6.548141837E-1
3.108281188E1,-1.247977614E0,-8.742427826E0,4.058171809E-1
3.110299792E1,-4.535216331E0,-9.424775124E0,7.430405140E0
3.112318147E1,-3.912724018E0,-9.024943352E0,4.729745388E0
3.114336548E1,-2.406771183E0,-8.304288864E0,2.035071515E-2
3.116355011E1,-2.397194386E0,-7.327454090E0,-8.439561129E-1
3.118373553E1,-2.385223389E0,-6.568492413E0,-1.025915384E0
3.120392183E1,-2.686892748E0,-7.538144112E0,-1.332373261E0
3.122410907E1,-3.251924515E0,-9.290699959E0,-1.181538582E0
3.124429725E1,-3.232770920E0,-9.633070946E0,-6.524199843E-1
3.126448636E1,-2.157774210E0,-8.601169586E0,-1.855506301E-1
3.128467636E1,-1.233612418E0,-7.552509308E0,-4.824316502E-1
3.130486714E1,-6.757634282E-1,-7.351396084E0,-8.702923059E-1
3.132505860E1,-5.823895931E-1,-8.675390244E0,-1.408987641E0
3.134525063E1,-2.543839216E-1,-1.011909389E1,-1.827973008E0
3.136544308E1,2.675520480E-1,-1.028668785E1,-1.720233917E0
3.138563579E1,2.843114436E-1,-9.467870712E0,-7.577648163E-1
3.140583402E1,-1.250970364E-1,-8.567650795E0,1.756146908E0
3.142602553E1,-1.183334231E0,-8.340201378E0,1.612494826E0
3.144620506E1,-2.952649355E0,-8.495824814E0,1.212663174E0
3.146638506E1,-4.698022366E0,-8.330624580E0,1.997961283E0
3.148656584E1,-4.693233967E0,-7.811082840E0,7.074866295E-1
3.150674772E1,-5.377975464E0,-7.597999096E0,1.990778685E0
3.152693095E1,-6.235099792E0,-9.374496460E0,2.709039211E0
3.154711568E1,-5.950189590E0,-1.394263363E1,2.570175409E0
3.156730204E1,-5.571906090E0,-1.966238213E1,2.383427858E0
3.158749006E1,-4.465784550E0,-2.297595596E1,2.603694439E0
3.160767970E1,-2.263119221E0,-1.962407494E1,2.462436438E0
3.162787084E1,-1.049258947E0,-1.296101093E1,2.311601639E0
3.164806334E1,-1.772307754E0,-8.538920403E0,1.643619418E0
3.166825699E1,-1.815403461E0,-6.578069210E0,9.516952038E-1
3.168845157E1,-8.744821548E-1,-6.393715858E0,1.224634171E0
3.170864683E1,-7.475894690E-1,-6.606799603E0,8.271966577E-1
3.172884246E1,-2.232593149E-1,-6.750451565E0,1.459265947E0
3.174903782E1,-3.022679687E-1,-6.791152954E0,2.436100245E0
3.176922970E1,-7.332242727E-1,-6.994660378E0,1.555034041E0
3.178941574E1,-6.590040326E-1,-7.439981937E0,5.386953801E-2
3.180959928E1,-6.087257862E-1,-8.100781441E0,-5.063736439E-1
3.182978329E1,-6.997054219E-1,-8.629899979E0,-2.238578647E-1
3.184996792E1,-7.068880796E-1,-8.546102524E0,-1.089361757E-1
3.187015334E1,-7.164648771E-1,-8.409633636E0,-2.118868530E-1
3.189033964E1,-1.173757434E0,-8.514978409E0,-1.544260085E-1
3.191052688E1,-2.054823637E0,-8.687360764E0,3.818751574E-1
3.193071506E1,-3.977367640E0,-8.874108315E0,1.133654475E0
3.195090418E1,-5.646126270E0,-9.166201591E0,1.509544134E0
3.197109418E1,-6.395511150E0,-9.556455612E0,1.969230890E0
3.199128496E1,-5.579088688E0,-9.209297180E0,2.203862667E0
3.201147642E1,-3.400364876E0,-8.270770073E0,1.892616391E0
3.203166845E1,-1.966238141E0,-7.425616741E0,1.270123959E0
3.205186089E1,-1.176151633E0,-7.035361767E0,8.559271097E-1
3.207205360E1,-1.015740037E0,-8.064867973E0,5.734112859E-1
3.209225183E1,-1.932719350E0,-1.022204399E1,2.765302956E-1
3.211244329E1,-2.895188332E0,-1.100255394E1,2.645592988E-1
3.213262272E1,-3.036446333E0,-1.001135445E1,9.828197956E-1
3.215280266E1,-2.852092743E0,-8.572439194E0,1.895010591E0
3.217298350E1,-2.502539396E0,-7.638700485E0,2.220622063E0
3.219316548E1,-2.059612036E0,-7.475894928E0,1.930923700E0
3.221334881E1,-1.880046844E0,-7.368155956E0,1.080982089E0
3.223353365E1,-2.042852640E0,-7.095216751E0,1.017535701E-1
3.225372011E1,-2.404376984E0,-7.432799339E0,-3.794809580E-1
3.227390824E1,-3.184886694E0,-8.404845238E0,-7.481880188E-1
3.229409798E1,-3.546411276E0,-1.028429317E1,-1.092953086E0
3.231428923E1,-3.170521498E0,-1.324352646E1,-1.078587890E0
3.233448183E1,-3.840898037E0,-1.743098640E1,1.825578809E0
3.235467558E1,-4.566341400E0,-1.947323990E1,4.705803394E0
3.237487022E1,-2.404376984E0,-1.684679985E1,1.461660147E0
3.239506542E1,-4.171896577E-1,-1.232175922E1,-7.170634270E-1
3.241526095E1,-6.063315868E-1,-9.925163269E0,-1.550245643E0
3.243545589E1,-9.798270464E-1,-9.604340553E0,-2.017114878E0
3.245564740E1,-1.240795016E0,-1.011909389E1,-2.311601639E0
3.247583345E1,-1.056441545E0,-1.011191082E1,-2.146401882E0
3.249601699E1,-9.750386477E-1,-9.463082314E0,-1.760935307E0
3.251620100E1,-1.094748735E0,-8.763975143E0,-1.346738458E0
3.253638563E1,-1.066018343E0,-7.933187485E0,-1.052251697E0
3.255657105E1,-9.798270464E-1,-7.164648533E0,-7.697358727E-1
3.257675735E1,-9.917980433E-1,-7.083245754E0,-5.518634915E-1
3.259694459E1,-1.271919608E0,-8.014590263E0,-7.302315533E-2
3.261713277E1,-2.172139406E0,-9.269151688E0,3.173514366E0
3.263732188E1,-2.492962599E0,-8.900444984E0,3.779247284E0
3.265751188E1,-2.066794634E0,-8.179790497E0,2.294842243E0
3.267770267E1,-1.575983286E0,-8.038532257E0,1.478419542E0
3.269789412E1,-1.777096152E0,-7.751227856E0,3.699041605E-1
3.271808615E1,-2.871246338E0,-6.285976410E0,1.543063045E0
3.273827860E1,-2.454655409E0,-5.519832134E0,1.100135684E0
3.275847131E1,-2.807201445E-1,-6.199785233E0,-1.363497853E0
3.277866954E1,3.776853085E-1,-7.315483093E0,-1.976413488E0
3.279886100E1,-1.753752679E-1,-8.450334549E0,-1.418564558E0
3.281904043E1,-6.997054219E-1,-9.041702271E0,-3.339911401E-1
3.283922037E1,-1.671751380E0,-9.329007149E0,1.061828494E0
3.285940121E1,-2.330156803E0,-9.080010414E0,-8.499415964E-2
3.287958318E1,-4.348468781E0,-9.161413193E0,7.697358727E-1
3.289976652E1,-7.223905087E0,-9.862914085E0,2.311601639E0
3.291995136E1,-8.385092735E0,-1.258751583E1,3.161543369E0
3.294013782E1,-6.953360081E0,-1.659301567E1,4.121618271E0
3.296032595E1,-5.078700542E0,-1.957858467E1,5.268440723E0
3.298051568E1,-2.820968151E0,-1.888426590E1,3.726574898E0
3.300070694E1,-1.856104851E0,-1.524507904E1,2.347514868E0
3.302089954E1,-9.247604012E-1,-1.226669216E1,2.014720678E0
3.304109329E1,1.933317930E-1,-1.060990524E1,1.205480576E0
3.306128792E1,7.463923693E-1,-9.103952408E0,8.583213091E-1
3.308148313E1,1.033696532E0,-7.121552944E0,6.045359373E-1
3.310167865E1,1.352125406E0,-5.021838188E0,2.789244950E-1
3.312187360E1,8.014590144E-1,-3.326743364E0,-3.938461840E-1
3.314206511E1,-2.591723204E-1,-2.479195833E0,-1.394622445E0
3.316225115E1,-6.254851818E-1,-2.701856613E0,-1.598129630E0
3.318243470E1,-4.698620737E-1,-3.946841478E0,-1.164779186E0
3.320261871E1,-1.037287831E0,-5.414487362E0,1.018732786E0
3.322280334E1,-2.612672567E0,-6.472724438E0,2.227804661E0
3.324298876E1,-3.982156038E0,-6.748057365E0,1.193509579E0
3.326317506E1,-5.054758549E0,-7.600393295E0,6.476315856E-1
3.328336230E1,-5.579088688E0,-7.775169849E0,8.415619135E-1
3.330355048E1,-6.124966621E0,-7.123947144E0,2.826355219E0
3.332373959E1,-6.132149220E0,-7.461529732E0,5.723339081E0
3.334392959E1,-3.951031446E0,-1.036809063E1,6.211756229E0
3.336412037E1,-2.416347980E0,-1.466328812E1,3.377021551E0
3.338431183E1,-1.315015316E0,-1.900876427E1,3.034650564E0
3.340450386E1,-1.250371814E0,-1.926733780E1,-4.537012279E-1
3.342469631E1,-9.367313981E-1,-1.515409946E1,-3.616441727E0
3.344488902E1,-2.045246840E0,-1.365772343E1,-3.551798105E0
3.346508725E1,-3.860051632E0,-1.457230854E1,-2.795230389E0
3.348527865E1,-4.104260445E0,-1.331295872E1,-2.194285870E0
3.350545798E1,-2.473809004E0,-1.084214211E1,-4.082113802E-1
3.352563782E1,-9.989806414E-1,-9.532513618E0,-3.675099611E-1
3.354581855E1,-3.573346138E-1,-8.234856606E0,-8.870517015E-1
3.356600042E1,-3.405751884E-1,-8.002618790E0,-9.038111567E-1
3.358618365E1,-1.255160213E0,-9.640253067E0,1.983596087E0
3.360636839E1,-1.937507749E0,-9.367314339E0,6.702567577E0
3.362655475E1,-9.271546006E-1,-7.971494675E0,5.374982953E-1
3.364674277E1,-2.448071241E-1,-7.073668957E0,-8.056488633E-1
3.366693240E1,-7.763199210E-1,-6.271611214E0,-8.607155085E-1
3.368712355E1,-1.456273198E0,-5.412093163E0,-8.655039072E-1
3.370731605E1,-2.045246840E0,-5.155913353E0,-7.386112213E-1
3.372750970E1,-4.135385036E0,-6.305130005E0,1.473631144E0
3.374770428E1,-4.805761337E0,-7.492654324E0,1.871068597E0
3.376789954E1,-3.536834478E0,-8.127118111E0,1.640028208E-1
3.378809516E1,-2.734776974E0,-8.632294655E0,8.894459605E-1
3.380829068E1,-1.765125155E0,-7.971494675E0,1.887827992E0
3.382848272E1,-1.731606364E0,-7.269993305E0,8.487445116E-1
3.384866876E1,-1.638232470E0,-8.356961250E0,1.023521185E0
3.386885230E1,-2.114678621E0,-1.123718548E1,1.557428241E0
3.388903631E1,-2.409165382E0,-1.437119579E1,2.709039211E0
3.390922095E1,-3.022081137E0,-1.659540939E1,3.204638958E0
3.392940636E1,-4.882375717E0,-1.923381996E1,2.464830637E0
3.394959267E1,-5.502473831E0,-2.075653076E1,3.882198095E0
3.396977990E1,-3.967790842E0,-1.637514305E1,5.625176907E0
3.398996808E1,-3.177704096E0,-1.036809063E1,3.013102770E0
3.401015720E1,-2.382829189E0,-7.138312340E0,1.442506552E0
3.403034720E1,-1.168969035E0,-6.704961777E0,1.432929754E0
3.405053798E1,-1.610100716E-1,-7.679401875E0,1.461660147E0
3.407072944E1,1.693897694E-1,-7.873332500E0,1.337161660E0
3.409092147E1,1.047463268E-1,-6.858190536E0,8.966285586E-1
3.411111392E1,-6.781576276E-1,-5.981913090E0,6.428431273E-1
3.413130662E1,-1.973420739E0,-6.681019783E0,6.500257850E-1
3.415150485E1,-3.177704096E0,-7.921216488E0,9.133879542E-1
3.417169626E1,-3.204040527E0,-8.768763542E0,8.104372621E-1
3.419187558E1,-2.603095770E0,-8.692149162E0,5.638344884E-1
3.421205542E1,-1.896806240E0,-7.976283073E0,5.614402890E-1
3.423223615E1,-1.367687702E0,-7.248445511E0,3.435679376E-1
3.425241803E1,-1.666962981E0,-6.977900982E0,3.052607179E-1
3.427260126E1,-2.595913172E0,-7.332242489E0,9.085995555E-1
3.429278600E1,-4.099472046E0,-8.107964516E0,2.017114878E0
3.431297235E1,-5.152920723E0,-8.584410667E0,3.163937569E0
3.433316037E1,-4.884769917E0,-8.036137581E0,3.453635931E0
3.435335001E1,-3.177704096E0,-7.277175903E0,2.460042238E0
3.437354115E1,-2.016516447E0,-7.468712330E0,1.339555860E0
3.439373365E1,-1.932719350E0,-8.227674484E0,9.516952038E-1
3.441392730E1,-2.133832216E0,-8.857349396E0,1.298854470E0
3.443412188E1,-2.598307371E0,-8.610746384E0,1.430535555E0
3.445431714E1,-2.526481390E0,-8.115146637E0,1.131260276E0
3.447451277E1,-1.710058570E0,-8.469488144E0,1.408987641E0
3.449470824E1,-1.288679123E0,-1.050455952E1,2.627636433E0
3.451490022E1,-1.595136881E0,-1.344224548E1,4.356249809E0
3.453508626E1,-2.100313425E0,-1.464652920E1,3.764882088E0
3.455526980E1,-2.629431963E0,-1.325789165E1,6.548141837E-1
3.457545381E1,-3.290231705E0,-1.121803188E1,-1.456871748E0
3.459563845E1,-1.853710651E0,-1.011669922E1,-1.669955730E0
3.461582386E1,-2.519298792E0,-1.117972469E1,-1.813607812E0
3.463601016E1,-3.405153275E0,-1.450048256E1,-1.708262920E0
3.465619740E1,-3.429095268E0,-1.645654488E1,-1.485602140E0
3.467638558E1,-1.597531080E0,-1.371997261E1,-5.997475386E-1
3.469657470E1,-2.998737693E-1,-1.050455952E1,-3.052607179E-1
3.471676470E1,-8.439560980E-2,-9.077615738E0,-1.274912357E0
3.473695548E1,3.920505345E-1,-8.560467720E0,-1.808819413E0
3.475714694E1,4.088099301E-1,-8.153453827E0,-1.940500498E0
3.477733897E1,-1.017535757E-2,-8.206126213E0,-1.648407817E0
3.479753142E1,-1.634042710E-1,-9.192537308E0,-1.155202270E0
3.481772412E1,-4.124012291E-1,-9.245209694E0,-6.260837317E-1
3.483792235E1,-1.044470549E0,-8.452729225E0,-3.699041605E-1
3.485811376E1,-2.002151251E0,-8.007407188E0,-7.541735470E-2
3.487829308E1,-5.284601688E0,-6.965929985E0,6.379350662E0
3.489847292E1,-4.853645325E0,-5.962759495E0,5.548562527E0
3.491865365E1,-2.964620352E0,-5.495890141E0,8.487445116E-1
3.493883553E1,-3.915118217E0,-7.212532520E0,2.334346622E-1
3.495901876E1,-5.241506100E0,-8.531737328E0,2.352303267E0
3.497920350E1,-3.213617325E0,-8.354566574E0,5.279214978E-1
3.499938985E1,-1.980603337E0,-7.985859871E0,-1.136048675E0
3.501957787E1,-1.370081902E0,-7.600393295E0,-1.140837073E0
3.503976751E1,-1.197699428E0,-6.963535786E0,-1.109712481E0
3.505995865E1,-1.547252893E0,-7.047332764E0,-1.224634171E0
3.508015115E1,-2.883217335E0,-8.677783966E0,-8.966285586E-1
3.510034480E1,-4.956595898E0,-1.006642151E1,1.674744129E0
3.512053938E1,-5.136161327E0,-9.233239174E0,2.455253839E0
3.514073464E1,-4.367622375E0,-9.831789017E0,2.926911592E0
3.516093027E1,-4.259883404E0,-1.253723717E1,2.847903013E0
3.518112569E1,-3.747524261E0,-1.474229717E1,9.181763530E-1
3.520131756E1,-2.519298792E0,-1.642063141E1,-6.093243361E-1
3.522150350E1,-1.197699428E0,-1.758660889E1,-2.349909067E0
3.524168694E1,-6.637924314E-1,-1.757942581E1,-2.079364061E0
3.526187089E1,4.189853091E-3,-1.431852341E1,1.052251697E0
3.528205553E1,-6.039373875E-1,-1.059793377E1,2.014720678E0
3.530224095E1,-1.789067268E0,-8.385691643E0,1.646013618E0
3.532242725E1,-1.820191860E0,-7.174225330E0,1.234210968E0
3.534261449E1,-1.530493379E0,-6.472724438E0,6.260837317E-1
3.536280267E1,-6.805518270E-1,-6.202179432E0,5.518634915E-1
3.538299178E1,2.962824702E-1,-5.941211700E0,6.835445762E-1
3.540318178E1,8.493430614E-1,-5.732915878E0,5.734112859E-1
3.542337256E1,8.349778652E-1,-5.692214489E0,2.765302956E-1
3.544356402E1,8.780734539E-1,-6.161478043E0,2.023100406E-1
3.546375605E1,7.368155718E-1,-6.728903770E0,3.794809580E-1
3.548394850E1,5.261258483E-1,-6.602011204E0,2.790441990E0
3.550414121E1,-1.511339784E0,-7.614758492E0,7.590816498E0
3.552433944E1,-5.073912144E0,-9.276334763E0,6.961141586E0
3.554453095E1,-6.622960567E0,-9.431957245E0,1.947683096E0
3.556471048E1,-7.068282127E0,-8.201337814E0,-1.711854190E-1
3.558489048E1,-7.990049839E0,-6.142324448E0,2.501940727E-1
3.560507126E1,-9.862315178E0,-6.278793812E0,1.181538582E0
3.562525313E1,-8.789712906E0,-1.425866795E1,6.075286865E0
3.564543636E1,-3.690063477E0,-1.820431328E1,2.129642487E0
3.566562110E1,-2.663549483E-1,-1.806784248E1,-3.037044764E0
3.568580746E1,5.285200477E-1,-1.563772869E1,-3.202244759E0
3.570599548E1,-4.848258570E-2,-1.413656425E1,-4.748898983E0
3.572618511E1,-9.876082093E-2,-1.694256783E1,-5.835866451E0
3.574637626E1,-5.704185367E-1,-2.014122200E1,-5.584475517E0
3.576656876E1,-9.199720025E-1,-1.627937508E1,-4.468777657E0
3.578676240E1,-3.190273643E-1,-1.136407852E1,-2.802412987E0
3.580695694E1,4.399345517E-1,-7.715314865E0,-1.794454217E0
3.582715209E1,6.937199235E-1,-4.859032154E0,-1.171961784E0
3.584734761E1,4.519055784E-1,-3.752911091E0,-9.325415492E-1
3.586754292E1,2.340332121E-1,-5.256469727E0,-9.636662006E-1
3.588773480E1,2.388216257E-1,-7.609970093E0,-8.990227580E-1
3.590792084E1,4.207809567E-1,-9.443928719E0,-7.601590157E-1
3.592810438E1,8.080431074E-2,-1.009754562E1,-5.973533392E-1
3.594828839E1,-5.776011348E-1,-1.007360363E1,-5.422866940E-1
3.596847303E1,-1.231218219E0,-1.006642151E1,-4.537012279E-1
3.598865845E1,-1.710058570E0,-1.019810200E1,-5.327098966E-1
3.600884475E1,-2.030881643E0,-1.057399178E1,-6.883329749E-1
3.602903199E1,-2.574365377E0,-1.113423538E1,-8.846575022E-1
3.604922016E1,-2.650979757E0,-1.173517990E1,-3.339911401E-1
3.606940928E1,-3.098695517E0,-1.126352215E1,1.265215874E1
3.608959928E1,-1.961449742E0,-9.838972092E0,5.201403141E0
3.610979006E1,-9.032126069E-1,-9.498994827E0,-6.117185354E-1
3.612998152E1,-1.396418095E0,-1.013824749E1,-1.442506552E0
3.615017355E1,-2.758718967E0,-1.217810726E1,-2.263717651E0
3.617036600E1,-3.572747469E0,-1.371039581E1,-2.574964046E0
3.619055871E1,-3.407547474E0,-1.255399704E1,-2.625242233E0
3.621075694E1,-2.706046581E0,-1.033696556E1,-2.246958256E0
3.623094824E1,-1.947084546E0,-9.135076523E0,-1.677138329E0
3.625112735E1,-1.542464495E0,-8.924386978E0,-1.351526856E0
3.627130699E1,-1.434725404E0,-8.962694168E0,-1.282094955E0
3.629148751E1,-1.219247222E0,-8.998606682E0,-1.315613866E0
3.631166918E1,-8.649053574E-1,-9.163806915E0,-1.533486247E0
3.633185220E1,-6.637924314E-1,-9.491812706E0,-1.859097600E0
3.635203678E1,-5.297171474E-1,-9.937133789E0,-2.098517895E0
3.637222303E1,-3.501519859E-1,-1.075355721E1,-2.352303267E0
3.639241095E1,-1.849520802E-1,-1.146702862E1,-2.524685621E0
3.641260053E1,2.699462473E-1,-1.142393303E1,-2.673126221E0
3.643279168E1,2.340332121E-1,-1.094509315E1,-2.299630642E0
3.645298423E1,-6.763619930E-2,-1.024838066E1,-1.945288897E0
3.647317798E1,-3.932476342E-1,-9.479841232E0,-1.866280198E0
3.649337266E1,-2.670133352E0,-8.845377922E0,1.583764434E0
3.651356803E1,-6.431424141E0,-9.319430351E0,5.093664169E0
3.653376376E1,-5.516839504E0,-1.011669922E1,-8.559271097E-1
3.655395688E1,-4.741117954E0,-1.055483818E1,-7.529764175E-1
3.657414735E1,-3.970185041E0,-1.018852520E1,8.200140595E-1
3.659434329E1,-2.322974205E0,-9.901221275E0,-7.302315533E-2
3.661453381E1,-2.950853705E-1,-9.479841232E0,-1.703474522E0
3.663471365E1,1.122282028E0,-9.106346130E0,-2.658761024E0
3.665489337E1,2.314594507E0,-8.529343605E0,-2.773682594E0
3.667507446E1,3.262698412E0,-7.523778915E0,-2.002749681E0
3.669525660E1,3.664924145E0,-6.357802391E0,-9.457096457E-2
3.671543999E1,3.538031578E0,-6.025008678E0,2.134430885E0
3.673562483E1,-1.921346933E-1,-6.791152954E0,4.641160011E0
3.675581124E1,-5.217564106E0,-8.854954720E0,8.292317390E0
3.677599921E1,-9.144054413E0,-1.072003841E1,7.449558735E0
3.679618874E1,-1.066916180E1,-1.071525002E1,1.842338204E0
3.681637973E1,-9.175179482E0,-9.534908295E0,-3.244143426E-1
3.683657202E1,-7.082647324E0,-7.650671482E0,7.170634270E-1
3.685676546E1,-5.516839504E0,-7.188590527E0,-6.452373862E-1
3.687695978E1,-2.741959572E0,-1.103846741E1,-4.104858875E0
3.689715473E1,-1.736394763E0,-1.604234886E1,-4.189852998E-2
3.691735004E1,-1.599925280E0,-1.575743866E1,8.378508568E0
3.693754525E1,1.335366011E0,-1.054765606E1,3.106476784E0
3.695773712E1,1.490989089E0,-9.257181168E0,-1.171961784E0
3.697792316E1,8.158242106E-1,-1.028668785E1,-1.569399238E0
3.699810671E1,1.382651478E-1,-1.004726696E1,-1.535880446E0
3.701829072E1,-3.501519859E-1,-8.948328972E0,-1.533486247E0
3.703847535E1,-4.554968774E-1,-8.340201378E0,-1.559822440E0
3.705866077E1,-8.002619147E-1,-8.629899979E0,-1.629254222E0
3.707884707E1,-1.044470549E0,-9.063250542E0,-1.787271619E0
3.709903431E1,-1.061229944E0,-9.530119896E0,-1.964442492E0
3.711922249E1,-1.027711034E0,-9.855731010E0,-2.117671490E0
3.713941160E1,-1.066018343E0,-9.850942612E0,-2.084152699E0
3.715960160E1,-1.154603720E0,-9.551667213E0,-1.835155606E0
3.717979238E1,-1.226429820E0,-9.226056099E0,-1.298854470E0
3.719998384E1,-1.659780383E0,-9.355342865E0,1.164779186E0
3.722017587E1,-2.741959572E0,-9.767146111E0,8.215703011E0
3.724036832E1,-3.086724520E0,-9.752780914E0,3.834314108E0
3.726056103E1,-2.835333347E0,-9.372102737E0,-7.290344238E-1
3.728075926E1,-2.706046581E0,-8.974664688E0,-6.045359373E-1
3.730095051E1,-2.473809004E0,-8.459911346E0,7.433996201E-1
3.732112952E1,-2.442684174E0,-8.191761017E0,1.509544134E0
3.734130905E1,-2.296638012E0,-8.155848503E0,8.008604646E-1
3.736148947E1,-2.330156803E0,-7.995436668E0,6.165069342E-1
3.738167108E1,-2.334945202E0,-7.942764282E0,7.769184709E-1
3.740185410E1,-2.083554029E0,-7.983465672E0,8.463503122E-1
3.742203868E1,-2.275090218E0,-7.930793285E0,1.971625090E0
3.744222493E1,-1.549647093E0,-7.878120899E0,3.028665185E-1
3.746241285E1,-6.901286244E-1,-7.597999096E0,-1.126471877E0
3.748260243E1,-7.164648771E-1,-7.159860134E0,-1.217451572E0
3.750279363E1,-9.391255975E-1,-7.763198853E0,-1.119289279E0
3.752298629E1,-1.221641421E0,-9.020154953E0,-1.191115379E0
3.754318014E1,-1.477820992E0,-9.376891136E0,-1.193509579E0
3.756337493E1,-1.535281897E0,-8.550890923E0,3.603273630E-1
3.758357040E1,-1.473032594E0,-7.619546890E0,1.016338587E0
3.760376624E1,-1.760336757E0,-7.176619530E0,-1.316810958E-2
3.762396186E1,-2.720411777E0,-6.812700748E0,2.661155224E0
3.764415389E1,-4.123414040E0,-6.884527206E0,6.127959251E0
3.766433993E1,-4.901529312E0,-8.158242226E0,4.384980202E0
3.768452348E1,-4.920682907E0,-1.376785660E1,5.886145115E0
3.770470749E1,-2.880823135E0,-1.941817284E1,3.017891169E0
3.772489212E1,-1.822586060E0,-2.226248360E1,2.223016262E0
3.774507754E1,-2.591723204E-1,-2.148676300E1,3.463212729E0
3.776526384E1,8.798690885E-2,-1.719635391E1,1.837549806E0
3.778545108E1,-1.633444071E0,-1.241034412E1,4.273650050E-1
3.780563926E1,-2.880823135E0,-8.680178642E0,6.811503768E-1
3.782582837E1,-2.770689964E0,-7.717709064E0,1.121683478E0
3.784601837E1,-1.978209138E0,-8.352172852E0,2.177526474E0
3.786620915E1,-1.008557439E0,-8.759186745E0,2.811989784E0
3.788640061E1,-1.735796221E-2,-7.983465672E0,2.132036686E0
3.790659264E1,4.566939771E-1,-6.884527206E0,1.114500880E0
3.792678509E1,3.657143116E-1,-5.974730492E0,3.914519846E-1
3.794697775E1,7.080851793E-1,-5.352237701E0,1.520318091E-1
3.796717587E1,1.052850246E0,-4.813542366E0,-1.233013868E-1
3.798736712E1,1.182137132E0,-4.598064423E0,-3.172317147E-1
3.800754624E1,7.894880176E-1,-5.321113110E0,-4.189852998E-2
3.802772587E1,-2.160767019E-1,-6.877344608E0,8.080430627E-1
3.804790639E1,-1.473032594E0,-8.165425301E0,2.522291422E0
3.806808806E1,-2.279878616E0,-7.741651058E0,2.472013235E0
3.808827108E1,-2.820968151E0,-7.152677536E0,1.119289279E0
3.810845566E1,-4.013280392E0,-8.682572365E0,9.062053561E-1
3.812864191E1,-5.117007732E0,-1.215177059E1,1.868674397E0
3.814882983E1,-5.040393353E0,-1.400488281E1,2.644395828E0
3.816901941E1,-3.927089453E0,-1.052371311E1,2.713827610E0
3.818921056E1,-3.424306870E0,-7.327454090E0,2.029085875E0
3.820940311E1,-3.378817081E0,-7.068880558E0,1.892616391E0
3.822959686E1,-3.089118719E0,-9.417592049E0,2.527079821E0
3.824979155E1,-2.540846586E0,-1.128028107E1,2.515108824E0
3.826998691E1,-2.253542423E0,-1.049498272E1,1.624465823E0
3.829018264E1,-2.469020605E0,-9.324218750E0,8.224082589E-1
3.831037837E1,-2.665344954E0,-1.054765606E1,2.454056740E-1
3.833057056E1,-3.182492495E0,-1.333450603E1,1.126471877E0
3.835075660E1,-3.479373693E0,-1.264497662E1,1.902193308E0
3.837094014E1,-3.388393879E0,-9.666589737E0,-4.034229815E-1
3.839112415E1,-4.238335609E0,-1.087326717E1,-1.523909330E0
3.841130879E1,-5.033210754E0,-1.575025558E1,-4.249708056E-1
3.843149420E1,-2.710834980E0,-1.620994186E1,-1.855506301E-1
3.845168051E1,-1.849520802E-1,-1.401206589E1,-1.435323954E0
3.847186775E1,4.758476019E-1,-1.255399704E1,-2.134430885E0
3.849205592E1,-7.781155407E-3,-1.156279755E1,-2.290053844E0
3.851224504E1,-2.017114908E-1,-1.035611916E1,-2.031480074E0
3.853243504E1,1.119289324E-1,-8.708909035E0,-1.605312228E0
3.855262582E1,2.795230448E-1,-7.121552944E0,-1.138442874E0
3.857281728E1,1.837549806E-1,-6.094440460E0,-7.457938194E-1
3.859300931E1,-9.397241473E-2,-6.115988255E0,-4.680664241E-1
3.861320176E1,-4.028244317E-1,-6.848613739E0,-3.675099611E-1
3.863339446E1,-4.459200799E-1,-6.920440197E0,-4.513070285E-1
3.865359270E1,-6.278793812E-1,-6.913257599E0,-7.577648163E-1
3.867378389E1,-2.758718967E0,-8.423998833E0,2.531868219E0
3.869396280E1,-4.891952515E0,-9.099164009E0,9.132682800E0
3.871414223E1,-2.660556555E0,-8.716091156E0,1.799242616E0
3.873432254E1,-2.117072821E0,-7.425616741E0,-1.616086215E-1
3.875450405E1,-2.188898802E0,-6.099228859E0,-6.715735793E-1
3.877468702E1,-2.301426411E0,-5.565321922E0,-6.236895323E-1
3.879487160E1,-3.587112665E0,-7.423222542E0,1.148019671E0
3.881505790E1,-4.425083160E0,-9.238027573E0,1.665167332E0
3.883524598E1,-4.154538631E0,-9.522936821E0,-2.813186944E-1
3.885543577E1,-4.037222385E0,-9.439140320E0,-1.171961784E0
3.887562712E1,-3.855263233E0,-1.012148762E1,-1.179144382E0
3.889581988E1,-3.218405724E0,-1.070806694E1,-4.273650050E-1
3.891601384E1,-2.852092743E0,-1.234091282E1,2.364274263E0
3.893620874E1,-1.834557056E0,-1.354759026E1,3.944447279E0
3.895640431E1,-5.752069354E-1,-1.358829212E1,4.246116638E0
3.897660025E1,-4.291606545E-1,-1.462976933E1,2.539050817E0
3.899679566E1,-1.561618090E0,-1.795292091E1,1.952471495E0
3.901698743E1,-3.273472309E0,-2.043091965E1,2.352303267E0
3.903717348E1,-3.493738890E0,-1.648527527E1,2.859874010E0
3.905735702E1,-2.473809004E0,-9.637859344E0,2.579752445E0
3.907754103E1,-1.738788962E0,-6.159083843E0,1.622071624E0
3.909772566E1,-1.566406488E0,-4.806359768E0,2.142810524E-1
3.911791108E1,-9.223662019E-1,-4.519055843E0,-8.702923059E-1
3.913809738E1,9.756372124E-2,-5.175066948E0,-9.947907925E-1
3.915828462E1,7.751228213E-1,-6.051344872E0,-8.750807047E-1
3.917847280E1,9.618705511E-1,-6.652289391E0,-6.667851806E-1
3.919866191E1,9.666589499E-1,-7.495048523E0,3.459621370E-1
3.921885191E1,6.793547273E-1,-7.624335289E0,5.686228871E-1
3.923904270E1,1.095347255E-1,-7.521384716E0,4.680664241E-1
3.925923415E1,-8.337807655E-1,-7.372944355E0,1.795651205E-2
3.927942618E1,-2.205658197E0,-7.020996571E0,-5.446808934E-1
3.929961863E1,-4.410717964E0,-8.225279808E0,6.787561774E-1
3.931981134E1,-7.482479095E0,-1.053568459E1,3.384204149E0
3.934000957E1,-9.122507095E0,-1.143350983E1,4.143166065E0
3.936020087E1,-7.575852871E0,-8.874108315E0,4.037821293E0
3.938037999E1,-4.836885929E0,-6.307524204E0,3.204638958E0
3.940055962E1,-3.639785051E0,-6.590040207E0,1.555034041E0
3.942074014E1,-3.163338900E0,-8.696937561E0,7.601590157E-1
3.944092181E1,-2.564788580E0,-1.065539455E1,7.529764175E-1
3.946110483E1,-1.587954283E0,-1.110550499E1,6.380547285E-1
3.948128941E1,-7.619546652E-1,-1.097382355E1,6.284779310E-1
3.950147566E1,-2.454056777E-2,-1.147181702E1,1.119289279E0
3.952166358E1,-5.416881442E-1,-1.216853046E1,2.693476975E-1
3.954185316E1,-8.768763542E-1,-1.133295345E1,-5.662286878E-1
3.956204431E1,-7.763199210E-1,-1.092354488E1,-7.625532150E-1
3.958223686E1,-2.315791607E0,-1.482130527E1,-1.265335560E0
3.960243061E1,-4.463390350E0,-1.931522179E1,-1.392228246E0
3.962262530E1,-4.422688961E0,-1.601840591E1,3.818751574E-1
3.964282066E1,-2.126649618E0,-1.060990524E1,4.429273307E-2
3.966301639E1,-9.223662019E-1,-8.215703011E0,-6.165069342E-1
3.968320952E1,-6.542156339E-1,-7.614758492E0,-9.062053561E-1
3.970339999E1,-6.183025837E-1,-8.067262650E0,-1.210268974E0
3.972359592E1,-6.111199856E-1,-8.591592789E0,-1.636436820E0
3.974378650E1,-3.645172119E-1,-8.356961250E0,-1.775300503E0
3.976396644E1,8.978256024E-3,-7.688978672E0,-1.576581836E0
3.978414686E1,2.094926499E-2,-7.224503517E0,-1.219845772E0
3.980432806E1,-1.753752679E-1,-7.404068947E0,-8.200140595E-1
3.982451030E1,-4.171896577E-1,-7.552509308E0,-6.021417379E-1
3.984469379E1,-2.198475599E0,-7.511807919E0,1.705868721E0
3.986487868E1,-6.761824131E0,-7.380126953E0,1.082538319E1
3.988506509E1,-4.025251389E0,-7.478289127E0,3.123236179E0
3.990525306E1,-2.648585558E0,-7.260416508E0,9.935937077E-2
3.992544254E1,-2.899976730E0,-7.114370346E0,-1.289277673E0
3.994563342E1,-2.785055161E0,-7.277175903E0,-1.215057373E0
3.996582561E1,-2.892794132E0,-7.844601631E0,-9.708487988E-1
3.998601895E1,-3.613448858E0,-8.646659851E0,6.105214357E-2
4.000621316E1,-3.469796896E0,-9.041702271E0,-3.651157618E-1
4.002640801E1,-2.765901566E0,-8.974664688E0,-8.942343593E-1
4.004660322E1,-2.045246840E0,-8.256404877E0,-6.931213737E-1
4.006679582E1,-2.260725021E0,-7.990648270E0,5.135562420E-1
4.008698577E1,-2.679710150E0,-9.192537308E0,1.997961283E0
4.010717582E1,-2.650979757E0,-1.240795040E1,2.936488390E0
4.012737134E1,-2.243965626E0,-1.657386208E1,2.795230389E0
4.014756160E1,-1.384447098E0,-1.944690323E1,3.872621298E0
4.016774134E1,-1.836951256E0,-1.984912872E1,3.499125719E0
4.018792155E1,-2.095525026E0,-1.775899124E1,3.108870983E0
4.020810254E1,-3.000533342E0,-1.348294640E1,2.347514868E0
4.022828462E1,-3.433883905E0,-9.302670479E0,1.681926727E0
4.024846806E1,-2.162562609E0,-6.767210960E0,1.028309584E0
4.026865301E1,-1.259948611E0,-6.020220280E0,5.231330991E-1
4.028883952E1,-8.601169586E-1,-6.669048786E0,-5.386953801E-2
4.030902759E1,-2.879027426E-1,-7.035361767E0,1.077390742E-2
4.032921723E1,5.925649032E-2,-6.175843239E0,6.787561774E-1
4.034940832E1,2.005143911E-1,-5.251681328E0,5.039794445E-1
4.036960072E1,-2.992752008E-3,-5.704185486E0,1.496376097E-1
4.038979426E1,-5.919663906E-1,-6.812700748E0,1.065419763E-1
4.040998868E1,-9.846154451E-1,-7.444770336E0,4.668693244E-2
4.043018374E1,-1.561618090E0,-7.521384716E0,2.669534981E-1
4.045037915E1,-2.777872562E0,-7.351396084E0,9.947907925E-1
4.047057421E1,-4.654926777E0,-7.858967304E0,1.586158633E0
4.049076587E1,-6.194398403E0,-8.921992302E0,3.084928989E0
4.051095191E1,-7.108983517E0,-9.206902504E0,4.583699226E0
4.053113546E1,-6.148908615E0,-8.359354973E0,4.588487625E0
4.055131947E1,-4.602254391E0,-7.317877293E0,4.329913616E0
4.057150410E1,-3.220799923E0,-7.198167324E0,3.652354717E0
4.059168952E1,-2.050035238E0,-7.954735279E0,2.132036686E0
4.061187582E1,-2.270301819E0,-9.053673744E0,4.656722248E-1
4.063206306E1,-2.526481390E0,-1.092115116E1,-3.794809580E-1
4.065225124E1,-2.330156803E0,-1.346139908E1,-3.555389643E-1
4.067244035E1,-2.021304846E0,-1.580771637E1,4.489128292E-1
4.069263035E1,-1.829768658E0,-1.546295166E1,1.640028208E-1
4.071282113E1,-9.319429994E-1,-1.371757889E1,-8.678981066E-1
4.073301259E1,-1.968632340E0,-1.502241898E1,-1.176750183E0
4.075320462E1,-2.504933596E0,-1.437837791E1,-7.673416734E-1
4.077339707E1,-1.566406488E0,-1.202487850E1,-1.703474522E0
4.079358978E1,-1.164180517E0,-1.084932518E1,-2.536656618E0
4.081378801E1,-6.781576276E-1,-1.001614285E1,-2.692279816E0
4.083397947E1,-3.190273643E-1,-9.539696693E0,-2.321178436E0
4.085415889E1,4.189853091E-3,-8.603564262E0,-1.808819413E0
4.087433884E1,2.292448133E-1,-7.229291916E0,-1.092953086E0
4.089451967E1,5.787982345E-1,-6.319495201E0,2.366668463E0
4.091470165E1,-6.566098332E-1,-7.001842976E0,5.316324711E0
4.093488499E1,-1.884835243E0,-8.206126213E0,2.790441990E0
4.095506983E1,-2.655768156E0,-8.371326447E0,2.196680069E0
4.097525629E1,-3.046023130E0,-7.528567314E0,1.808819413E0
4.099544441E1,-2.368463993E0,-7.088034153E0,-2.765302956E-1
4.101563415E1,-3.177704096E0,-6.963535786E0,-1.562216640E0
4.103582540E1,-4.927865505E0,-6.625953197E0,-4.560954273E-1
4.105601801E1,-6.304531574E0,-6.609193802E0,1.933317900E0
4.107621176E1,-4.446630955E0,-7.727285862E0,2.454056740E-1
4.109640639E1,-3.089118719E0,-8.225279808E0,-9.876081944E-1
