"Time (s)","Acceleration x (m/s^2)","Acceleration y (m/s^2)","Acceleration z (m/s^2)"
4.169128000E-3,6.097433090E0,2.885012925E-1,6.812700748E0
2.436485700E-2,6.226719856E0,2.741360962E-1,7.155071735E0
4.455803400E-2,6.188412666E0,2.621650994E-1,7.906851292E0
6.475095000E-2,5.795763969E0,1.496376097E-1,8.112752914E0
8.493964800E-2,5.757456303E0,1.951274425E-1,7.344213486E0
1.051188670E-1,5.601833344E0,7.781155407E-2,7.272387505E0
1.252986070E-1,5.091868401E0,1.999158412E-1,7.384915352E0
1.454792320E-1,4.907515049E0,2.430114746E-1,7.116764545E0
1.656610030E-1,5.127781391E0,1.197100850E-3,6.898892403E0
1.858441280E-1,5.343259811E0,-4.608838260E-1,6.740874767E0
2.060287630E-1,5.075109005E0,-7.601590157E-1,6.810306549E0
2.262150130E-1,4.809352875E0,-8.870517015E-1,8.107964516E0
2.464029300E-1,4.818929672E0,-6.380547285E-1,7.787140846E0
2.665924610E-1,5.498882771E0,-5.159504414E-1,7.712920666E0
2.867835030E-1,6.075885296E0,-5.446808934E-1,7.234080315E0
3.069758980E-1,6.432621479E0,-8.702923059E-1,6.783970356E0
3.271694400E-1,6.305728912E0,-6.811503768E-1,7.528567314E0
3.473639190E-1,5.812523365E0,-3.603273630E-1,8.397662163E0
3.675590750E-1,5.644928932E0,3.651157618E-1,8.998606682E0
3.877545960E-1,5.858013153E0,1.021126986E0,8.708909035E0
4.079475130E-1,6.399102688E0,1.650802016E0,7.509413719E0
4.281377730E-1,7.162852764E0,2.031480074E0,6.228515625E0
4.483335030E-1,7.782951355E0,2.297236443E0,5.143942356E0
4.685241280E-1,8.405443192E0,2.381033659E0,4.861426353E0
4.887043880E-1,9.039907455E0,1.777694821E0,5.103240967E0
5.088851170E-1,9.379883766E0,1.456871748E0,5.768828869E0
5.290666280E-1,9.315239906E0,1.487996340E0,6.312312603E0
5.492491800E-1,9.372700691E0,1.365892053E0,6.175843239E0
5.694329300E-1,9.750985146E0,1.341950059E0,5.723339081E0
5.896180340E-1,1.047403431E1,1.006761789E0,5.656301498E0
6.098045960E-1,1.082837582E1,7.050924301E-1,4.255693436E0
6.299926170E-1,1.063444519E1,1.495178938E0,2.067393064E0
6.501820960E-1,1.006223106E1,2.122459888E0,1.663970202E-1
6.703729300E-1,8.438961983E0,2.199074268E0,-1.017535701E-1
6.905649610E-1,8.486846924E0,5.686228871E-1,6.344634295E-2
7.107580340E-1,1.131918716E1,-1.787271619E0,-1.376665980E-1
7.309519400E-1,1.137425327E1,-2.318784237E0,-6.739677787E-1
7.511464190E-1,1.021067142E1,-1.112106681E0,-1.442506552E0
7.713412110E-1,9.731831551E0,-1.663970202E-1,-1.559822440E0
7.915357940E-1,7.952939510E0,7.864952683E-1,-5.997475386E-1
8.117272530E-1,7.272986412E0,1.382651448E0,1.006761789E0
8.319131900E-1,1.239657784E1,1.179144382E0,3.590105534E0
8.520966280E-1,1.329440308E1,-1.280897856E-1,4.665102005E0
8.722805340E-1,8.671199799E0,1.715445518E0,2.285265446E0
8.924650650E-1,8.776544571E0,3.314772367E0,-2.237381458E0
9.126503780E-1,9.461286545E0,1.720233917E0,-2.737769604E0
9.328365750E-1,9.264962196E0,-1.113303825E-1,-2.381033659E0
9.530237110E-1,8.446145058E0,-9.109937549E-1,-4.126406670E0
9.732117840E-1,7.062296391E0,-7.098808289E-1,-6.238092422E0
9.934007940E-1,6.279392719E0,1.927332431E-1,-7.782352448E0
1.013590690E0,6.930615425E0,-4.249708056E-1,-8.725667953E0
1.033781367E0,8.173206329E0,-2.266111851E0,-7.313088894E0
1.053972721E0,7.529165745E0,-3.151966572E0,-5.905298710E0
1.074164648E0,6.451775074E0,-2.397793055E0,-6.144718647E0
1.094356992E0,6.751050472E0,-7.170634270E-1,-6.891709805E0
1.114549596E0,8.587403297E0,-2.477998734E-1,-5.550956726E0
1.134747721E0,8.975263596E0,-4.513070285E-1,-4.056974888E0
1.154939075E0,8.630498886E0,5.686228871E-1,-3.886986494E0
1.175118398E0,8.359953880E0,1.662773132E0,-5.005078793E0
1.195298242E0,7.665635109E0,1.672349930E0,-5.438429356E0
1.215478971E0,7.031171799E0,-5.985504016E-3,-4.590881824E0
1.235660846E0,6.684012413E0,4.680664241E-1,-6.288370609E0
1.255844075E0,8.982446671E0,-7.541735470E-2,-7.645883083E0
1.276028815E0,1.148678112E1,-2.436100245E0,-7.329848289E0
1.296215169E0,7.663240910E0,-1.229422569E0,-1.125394535E1
1.316403190E0,5.635352135E0,5.386953801E-2,-1.066018295E1
1.336592825E0,5.891531944E0,2.831143618E0,-7.772775650E0
1.356783971E0,4.881178856E0,2.809595585E0,-5.436035156E0
1.376976471E0,2.625840664E0,-9.588778019E-1,-3.712209702E0
1.397170117E0,6.808511257E0,-2.053027868E0,-3.733757496E0
1.417364648E0,9.980828285E0,-1.229422569E0,-4.782417774E0
1.437559753E0,6.897096634E0,-5.183446407E-1,-8.244433403E0
1.457755169E0,4.306570530E0,-1.304839998E-1,-1.158434486E1
1.477950013E0,3.820547342E0,9.421183467E-1,-1.419163036E1
1.498141419E0,3.633799553E0,1.626860023E0,-1.158913326E1
1.518327357E0,4.821323872E0,1.389834046E0,-7.554903507E0
1.538510794E0,5.017648220E0,3.579331636E-1,-7.648277283E0
1.558694700E0,5.790975571E0,-3.962403834E-1,-8.910021782E0
1.578879232E0,8.218695641E0,-1.185129806E-1,-6.695384979E0
1.599064544E0,8.089408875E0,1.499967337E0,-5.131971359E0
1.619250742E0,6.490082264E0,2.146401882E0,-6.161478043E0
1.639437878E0,6.839635849E0,1.459265947E0,-6.324283600E0
1.659625950E0,8.376712799E0,1.583764434E0,-5.663484097E0
1.679721992E0,8.053496361E0,2.292448044E0,-6.537367821E0
1.699733398E0,7.605780125E0,1.827973008E0,-6.010643482E0
1.719763607E0,7.294534206E0,1.487996340E0,-6.070498466E0
1.739818190E0,7.203554153E0,1.473631144E0,-6.151901245E0
1.759901523E0,7.126939774E0,1.176750183E0,-6.254851818E0
1.780016680E0,7.581838131E0,1.145625472E0,-6.278793812E0
1.800165325E0,7.885901928E0,1.231816769E0,-6.877344608E0
1.820347721E0,7.639298916E0,1.224634171E0,-6.652289391E0
1.840562773E0,7.021595001E0,1.535880446E0,-6.736086369E0
1.860808138E0,6.652887821E0,1.497573137E0,-6.807912350E0
1.881080325E0,6.485293865E0,7.338228226E-1,-6.901286602E0
1.901374909E0,7.002441406E0,2.501940727E-1,-6.874950409E0
1.921686784E0,7.366360188E0,6.979097724E-1,-6.482301235E0
1.942010325E0,7.323264599E0,1.231816769E0,-6.317101002E0
1.962339648E0,7.431003571E0,2.287659645E0,-6.125565052E0
1.982633971E0,7.330447197E0,4.047398090E0,-6.539762020E0
2.002857253E0,6.542754650E0,4.040215492E0,-7.320271492E0
2.023045846E0,6.832453251E0,2.249352455E0,-6.704961777E0
2.043239805E0,6.322488308E0,2.220622063E0,-6.623558998E0
2.063428450E0,6.288969517E0,2.788047791E0,-6.570886612E0
2.083606575E0,6.765415668E0,2.572569609E0,-6.664260387E0
2.103785273E0,6.897096634E0,2.385822058E0,-6.499060631E0
2.123964909E0,6.949769020E0,2.991554976E0,-6.872556210E0
2.144145846E0,7.150881767E0,3.290830135E0,-7.107187748E0
2.164328346E0,6.401496887E0,2.481590033E0,-7.217320919E0
2.184529336E0,6.497264862E0,2.443282843E0,-6.894104004E0
2.204743398E0,6.377554893E0,3.563769341E0,-6.202179432E0
2.224932044E0,6.885125637E0,3.274070740E0,-6.427234650E0
2.245120586E0,7.172429562E0,3.120841980E0,-7.107187748E0
2.265303711E0,6.827664852E0,2.740163803E0,-7.030573368E0
2.285487253E0,6.686406612E0,2.931699991E0,-6.805518150E0
2.305671419E0,6.581061840E0,2.620453835E0,-6.309918404E0
2.325856315E0,6.782175064E0,2.917334795E0,-6.135141850E0
2.346042044E0,6.542754650E0,3.075352192E0,-6.384139061E0
2.366228711E0,6.490082264E0,2.843114614E0,-6.427234650E0
2.386416315E0,6.411073685E0,3.520673513E0,-6.441599846E0
2.406604857E0,6.949769020E0,2.479195833E0,-5.946000099E0
2.426794336E0,7.392696381E0,2.677914619E0,-5.962759495E0
2.446984648E0,8.063073158E0,2.680308819E0,-5.823895454E0
2.467175690E0,7.423820972E0,2.706645012E0,-5.742492676E0
2.487367357E0,6.138134480E0,4.294000626E0,-6.573280811E0
2.507559544E0,5.755062103E0,4.782417774E0,-7.155071735E0
2.527752044E0,6.868366241E0,2.855085611E0,-6.793547153E0
2.547944753E0,6.949769020E0,2.919728994E0,-6.506243229E0
2.568148294E0,7.193977356E0,3.456030130E0,-6.297947407E0
2.588327044E0,7.179612160E0,3.128024578E0,-6.072892666E0
2.608506107E0,6.865972042E0,2.900575399E0,-6.642712593E0
2.628685898E0,6.650493622E0,3.070563793E0,-6.053739071E0
2.648866732E0,6.389525890E0,2.907757998E0,-6.477512836E0
2.669048919E0,6.427833080E0,3.633201122E0,-6.570886612E0
2.689232565E0,6.533177853E0,3.266888142E0,-7.011419773E0
2.709417878E0,7.160458565E0,3.096899986E0,-6.724115372E0
2.729604857E0,7.179612160E0,3.204638958E0,-6.673837185E0
2.749793503E0,6.767809868E0,2.938882589E0,-6.750451565E0
2.769983815E0,6.571485043E0,3.341108561E0,-6.463147640E0
2.790175586E0,6.581061840E0,3.705027103E0,-6.566098213E0
2.810368711E0,5.266644955E0,2.900575399E0,-6.843825340E0
2.830568607E0,6.806117058E0,2.481590033E0,-7.004237175E0
2.850768867E0,6.691195011E0,3.276464939E0,-7.111976147E0
2.870965378E0,6.549937248E0,3.264493942E0,-6.499060631E0
2.891156003E0,6.705560207E0,3.661931515E0,-7.016208172E0
2.911341836E0,6.561908245E0,3.997119665E0,-7.356184959E0
2.931525169E0,6.427833080E0,3.982754469E0,-7.035361767E0
2.951709023E0,5.941810131E0,4.605247021E0,-6.666654587E0
2.971893555E0,5.111021996E0,5.641936302E0,-6.420052052E0
2.992078867E0,4.720767021E0,5.838260651E0,-6.180631638E0
3.012265065E0,5.271433830E0,4.447229862E0,-6.927622795E0
3.032452200E0,6.276998520E0,2.036268473E0,-7.387309551E0
3.052640273E0,7.165246964E0,2.980781198E-1,-7.198167324E0
3.072829284E0,7.612962723E0,1.203086376E0,-7.016208172E0
3.093019180E0,6.178835869E0,1.902193308E0,-6.724115372E0
3.113209857E0,5.439027786E0,1.442506552E0,-6.266822815E0
3.133401211E0,5.039196014E0,7.912836671E-1,-7.502231121E0
3.153593138E0,5.292981625E0,1.121683478E0,-8.428787231E0
3.173785482E0,5.388749599E0,1.327584863E0,-8.759186745E0
3.193978034E0,5.671265125E0,9.349357486E-1,-8.720879555E0
3.214176055E0,5.908291340E0,8.439561129E-1,-8.785523415E0
3.234367044E0,5.223549366E0,1.179144382E0,-8.778340340E0
3.254545742E0,4.395155907E0,6.476315856E-1,-8.754398346E0
3.274724961E0,4.153341293E0,7.817068696E-1,-7.933187485E0
3.294905065E0,3.923498154E0,6.835445762E-1,-7.978677273E0
3.315103867E0,4.220378876E0,4.417302012E-1,-8.783128738E0
3.335305013E0,4.648941040E0,6.476315856E-1,-8.852560997E0
3.355493555E0,5.395932198E0,1.519120932E0,-8.711302757E0
3.375676680E0,5.434239388E0,1.593341231E0,-8.457517624E0
3.395860221E0,4.890755653E0,-1.121683478E0,-1.064821243E1
3.416044284E0,5.058349609E0,-1.511938334E0,-9.534908295E0
3.436229075E0,4.050390720E0,-1.349132657E0,-8.301894188E0
3.456414700E0,2.539649487E0,-1.423352957E0,-8.026560783E0
3.476601263E0,1.756745458E0,-1.265335560E0,-9.194931984E0
3.496788763E0,2.503736496E0,-8.463503122E-1,-9.685743332E0
3.516977200E0,4.059967518E0,-2.142810524E-1,-9.424775124E0
3.537166575E0,4.414309502E0,-2.573766708E-1,-9.329007149E0
3.557356888E0,3.997718334E0,-1.975216419E-1,-9.496601105E0
3.577547930E0,3.468599796E0,-5.710170865E-1,-9.666589737E0
3.597739596E0,3.073556423E0,-4.513070285E-1,-9.264363289E0
3.617931784E0,3.231573820E0,-9.660604000E-1,-9.082404137E0
3.638124284E0,3.899555922E0,-9.828197956E-1,-8.440757751E0
3.658316992E0,5.484517574E0,-1.018732786E0,-7.890091896E0
3.678520534E0,5.709572315E0,-5.135562420E-1,-8.268375397E0
3.698699388E0,5.048772812E0,-2.753331885E-2,-8.878896713E0
3.718878555E0,5.063138008E0,1.316810958E-2,-8.732851028E0
3.739058450E0,5.043984413E0,2.549824715E-1,-8.371326447E0
3.759239388E0,5.266644955E0,5.925649405E-1,-8.682572365E0
3.779421575E0,4.847660065E0,5.111620426E-1,-8.807070732E0
3.799605221E0,4.062361717E0,6.428431273E-1,-8.584410667E0
3.819790534E0,3.633799553E0,9.397241473E-1,-8.289923668E0
3.839977513E0,4.605845451E0,3.124433160E-1,-8.895656586E0
3.860166159E0,4.790199280E0,2.597708702E-1,-8.646659851E0
3.880356471E0,4.376002312E0,-4.668693244E-2,-7.576451302E0
3.900548242E0,5.257068157E0,4.800374508E-1,-8.716091156E0
3.920741263E0,4.766256809E0,1.282094955E0,-1.028189945E1
3.940935325E0,3.988141537E0,9.756371975E-1,-1.006642151E1
3.961130221E0,3.765480757E0,1.424549967E-1,-8.807070732E0
3.981325638E0,3.957016945E0,7.302315533E-2,-8.428787231E0
4.001521263E0,4.308964729E0,1.496376097E-1,-9.041702271E0
4.021716471E0,4.421492100E0,2.166752517E-1,-9.144653320E0
4.041905013E0,4.438251495E0,2.956839204E-1,-8.902838707E0
4.062088138E0,4.450222492E0,3.699041605E-1,-8.689755440E0
4.082271680E0,4.601057053E0,4.034229815E-1,-8.488641739E0
4.102455742E0,4.802170277E0,4.177882075E-1,-8.507795334E0
4.122640534E0,4.828506470E0,4.058171809E-1,-8.787917137E0
4.142826159E0,4.704007626E0,3.292027414E-1,-8.895656586E0
4.163012721E0,4.632181644E0,1.783680320E-1,-8.754398346E0
4.183200221E0,4.639364243E0,4.668693244E-2,-8.754398346E0
4.203388659E0,4.601057053E0,-4.429273307E-2,-8.845377922E0
4.223578034E0,4.529231071E0,-1.041477770E-1,-8.835801125E0
4.243768242E0,4.538807869E0,-1.352723986E-1,-8.668207169E0
4.263959180E0,4.627393246E0,-1.999158412E-1,-8.498218536E0
4.284150742E0,4.596268654E0,-1.663970202E-1,-8.534132004E0
4.304342825E0,4.469376087E0,-9.935937077E-2,-8.902838707E0
4.324549596E0,4.383184910E0,-6.823474914E-2,-9.185355186E0
4.344728815E0,4.390367508E0,-3.232172132E-2,-9.015366554E0
4.364908555E0,4.385579109E0,-2.382230759E-1,-9.127894402E0
4.385089180E0,4.536413670E0,2.047042400E-1,-1.135210705E1
4.405270950E0,4.352060318E0,9.732429981E-1,-9.556455612E0
4.425454075E0,4.093486309E0,6.955155730E-1,-6.290764809E0
4.445638711E0,4.012083530E0,4.991910458E-1,-6.484695435E0
4.465824961E0,4.172494888E0,4.944026470E-1,-8.596381187E0
4.486012878E0,4.306570530E0,1.879448295E-1,-9.977835655E0
4.506202409E0,4.435857296E0,1.927332431E-1,-9.245209694E0
4.526393450E0,4.476558685E0,3.483563364E-1,-8.579621315E0
4.546585846E0,4.258686066E0,4.800374508E-1,-8.977059364E0
4.566779388E0,4.186860085E0,3.387795389E-1,-8.809465408E0
4.586973815E0,4.368819714E0,3.866635859E-1,-8.469488144E0
4.607168815E0,4.426280499E0,9.277531505E-1,-8.582015991E0
4.627364128E0,4.692036629E0,1.236605167E0,-9.147047997E0
4.647558919E0,5.127781391E0,7.769184709E-1,-9.305065155E0
4.667750273E0,4.340089321E0,-3.711012751E-2,-8.579621315E0
4.687944232E0,3.997718334E0,9.457096457E-2,-8.158242226E0
4.708132773E0,4.579509258E0,5.877765417E-1,-8.234856606E0
4.728310690E0,5.065532207E0,9.684545994E-1,-9.077615738E0
4.748489232E0,4.845265865E0,9.277531505E-1,-9.400833130E0
4.768668763E0,4.340089321E0,4.345476031E-1,-8.804677010E0
4.788849596E0,4.227561474E0,-6.823474914E-2,-8.670601845E0
4.809031992E0,4.366425514E0,-1.089361757E-1,-8.869319916E0
4.829216107E0,4.445434093E0,5.386953801E-2,-8.876502991E0
4.849402044E0,4.476558685E0,1.089361757E-1,-8.895656586E0
4.869589857E0,4.478952885E0,1.209071875E-1,-8.672995567E0
4.889779492E0,4.622604847E0,2.741360962E-1,-8.498218536E0
4.909970846E0,4.953004837E0,1.256955862E-1,-8.852560997E0
4.930163763E0,4.864419460E0,-5.147533491E-2,-9.003395081E0
4.950357982E0,4.701613426E0,-9.696517140E-2,-8.680178642E0
4.970553190E0,4.656123638E0,4.429273307E-2,-8.412027359E0
4.990749075E0,4.838083267E0,6.344634295E-2,-8.392873764E0
5.010945325E0,4.974552631E0,2.382230759E-1,-7.885303497E0
5.031140898E0,5.063138008E0,6.284779310E-1,-7.949946880E0
5.051332565E0,4.426280499E0,1.033097982E0,-1.014542961E1
5.071518398E0,3.787028551E0,6.859387755E-1,-9.139864922E0
5.091701732E0,4.455010891E0,-2.741360962E-1,-7.928399086E0
5.111885534E0,5.027225018E0,-1.185129806E-1,-8.462306023E0
5.132069961E0,4.632181644E0,7.218518257E-1,-9.238027573E0
5.152255169E0,3.751115561E0,1.657984734E0,-9.623494148E0
5.172441263E0,3.940257549E0,6.763619781E-1,-9.611522675E0
5.192628294E0,4.024054527E0,-3.866635859E-1,-9.053673744E0
5.212816263E0,3.808576345E0,-1.448491961E-1,-8.378508568E0
5.233005169E0,3.992929935E0,7.817068696E-1,-8.304288864E0
5.253194961E0,4.464587688E0,1.126471877E0,-8.917203903E0
5.273385534E0,4.378396511E0,7.769184709E-1,-9.326612473E0
5.293576784E0,3.942651749E0,4.752490520E-1,-9.082404137E0
5.313792305E0,3.949834347E0,1.640028208E-1,-8.661025047E0
5.333972096E0,3.980958939E0,2.621650994E-1,-8.914810181E0
5.354152200E0,4.064755917E0,6.236895323E-1,-9.127894402E0
5.374332930E0,4.057573318E0,7.625532150E-1,-9.036913872E0
5.394514596E0,4.033631325E0,8.487445116E-1,-8.905233383E0
5.414697409E0,4.179677486E0,8.966285586E-1,-8.989029884E0
5.434881575E0,4.397550106E0,8.918401599E-1,-9.022548676E0
5.455067200E0,4.380790710E0,8.870517015E-1,-8.900444984E0
5.475254284E0,4.337695122E0,7.793126702E-1,-8.814253807E0
5.495442825E0,4.304176331E0,6.308721304E-1,-8.819042206E0
5.515632825E0,4.385579109E0,5.518634915E-1,-8.419210434E0
5.535824180E0,3.516483784E0,-1.161187813E-1,-3.836708307E0
5.556016680E0,1.991377234E0,3.400963545E0,-3.127665329E1
5.576210117E0,4.857236862E0,-1.185129806E-1,6.039373875E0
5.596404284E0,7.462128162E0,2.428917646E0,1.183932781E0
5.616598971E0,6.863577843E0,3.733757496E0,-9.805453300E0
5.636793867E0,5.848436356E0,3.693056107E0,-1.353801346E1
5.656988555E0,3.954622746E0,2.026691675E0,-1.016218948E1
5.677177096E0,2.039261341E0,2.789244950E-1,-6.975506783E0
5.697376471E0,2.012925148E0,1.592144072E-1,-6.309918404E0
5.717554075E0,3.978564739E0,1.765723705E0,-8.440757751E0
5.737732096E0,5.860407352E0,3.005920172E0,-1.072961521E1
5.757910950E0,5.759850502E0,2.879027605E0,-9.606734276E0
5.778090950E0,4.488529682E0,1.832761407E0,-7.961917877E0
5.798272409E0,3.703231573E0,1.634042621E0,-8.019378662E0
5.818455534E0,3.916315317E0,2.098517895E0,-8.536525726E0
5.838640430E0,4.253897667E0,2.414552450E0,-8.878896713E0
5.858827200E0,4.447828293E0,2.311601639E0,-8.831012726E0
5.879015846E0,4.481347084E0,2.179920673E0,-8.957905769E0
5.899206263E0,4.447828293E0,2.285265446E0,-8.998606682E0
5.919398346E0,4.668094635E0,2.342726469E0,-8.955511093E0
5.939591888E0,4.869207859E0,2.069787264E0,-8.905233383E0
5.959786575E0,4.804564476E0,1.636436820E0,-8.076839447E0
5.979982200E0,5.072714806E0,7.649474144E-1,-6.463147640E0
6.000178450E0,5.218760967E0,7.697358727E-1,-6.391321659E0
6.020374909E0,4.742314816E0,1.832761407E0,-6.817489147E0
6.040570430E0,4.378396511E0,2.464830637E0,-7.626729488E0
6.060758971E0,4.385579109E0,2.591723442E0,-8.766369820E0
6.080942096E0,5.300164223E0,2.428917646E0,-9.460687637E0
6.101125638E0,5.077503204E0,2.237381458E0,-9.724050522E0
6.121309700E0,4.428674698E0,1.883039594E0,-9.417592049E0
6.141494492E0,4.112639904E0,9.540894032E-1,-9.374496460E0
6.161680117E0,3.964199543E0,-2.501940727E-1,-9.736021042E0
6.181866680E0,3.550002575E0,4.441244006E-1,-9.879673004E0
6.202054180E0,3.652953148E0,1.351526856E0,-9.144653320E0
6.222242617E0,3.676895142E0,1.143231273E0,-9.477447510E0
6.242431992E0,4.047996521E0,8.080430627E-1,-1.023880386E1
6.262622200E0,4.909909248E0,1.990778685E0,-9.144653320E0
6.282813138E0,3.916315317E0,2.551021814E0,-7.825448036E0
6.303004700E0,3.327341795E0,1.387439847E0,-7.844601631E0
6.323215638E0,3.901950121E0,6.739677787E-1,-8.483853340E0
6.343392305E0,3.949834347E0,6.141127348E-1,-8.792705536E0
6.363569596E0,3.617040157E0,1.375468850E0,-8.242039680E0
6.383747930E0,3.724779367E0,2.048239470E0,-8.550890923E0
6.403927669E0,4.287416458E0,2.306813240E0,-8.979453087E0
6.424109128E0,4.816535473E0,1.985990286E0,-8.737639427E0
6.444292565E0,4.830900669E0,1.279700756E0,-8.526948929E0
6.464478086E0,4.751891613E0,6.739677787E-1,-8.732851028E0
6.484665690E0,4.512471676E0,4.441244006E-1,-8.766369820E0
6.504855325E0,4.557961464E0,2.573766708E-1,-8.333019257E0
6.525046888E0,4.330512524E0,7.936778665E-1,-7.937975883E0
6.545240221E0,4.282628059E0,1.430535555E0,-8.088809967E0
6.565435065E0,4.656123638E0,1.796848416E0,-8.335412979E0
6.585631107E0,4.883573055E0,1.440112352E0,-9.163806915E0
6.605827982E0,4.613028049E0,1.037886381E0,-9.846154213E0
6.626025325E0,4.162918091E0,1.138442874E0,-1.014542961E1
6.646222044E0,4.352060318E0,1.385045648E0,-9.616311073E0
6.666414284E0,4.964975834E0,1.614889026E0,-8.672995567E0
6.686608242E0,4.459799290E0,1.468842745E0,-8.584410667E0
6.706796732E0,3.353677988E0,1.033097982E0,-8.960299492E0
6.726974544E0,2.659359455E0,1.248576164E0,-8.701725960E0
6.747152982E0,3.044826031E0,1.952471495E0,-8.385691643E0
6.767332409E0,3.868431330E0,2.275688648E0,-8.684967041E0
6.787513138E0,4.301782131E0,2.397793055E0,-9.206902504E0
6.807695430E0,4.033631325E0,2.483984232E0,-9.410409927E0
6.827879440E0,3.396773577E0,2.160767078E0,-9.168595314E0
6.848065273E0,2.958634853E0,1.885433793E0,-8.699332237E0
6.868252982E0,3.205237627E0,1.696291924E0,-8.718485832E0
6.888442513E0,3.619434357E0,1.552639842E0,-9.099164009E0
6.908633763E0,3.770269156E0,1.504755735E0,-9.178172112E0
6.928826575E0,3.767874956E0,1.456871748E0,-8.936357498E0
6.949020690E0,3.667318344E0,1.346738458E0,-8.864531517E0
6.969215794E0,3.607463360E0,1.289277673E0,-8.957905769E0
6.989411575E0,3.629011154E0,1.104924083E0,-9.058462143E0
7.009607721E0,3.746327162E0,7.841010690E-1,-9.077615738E0
7.029803711E0,3.858854532E0,6.332663298E-1,-9.101557732E0
7.049995846E0,3.995324135E0,7.745242715E-1,-9.204508781E0
7.070184336E0,4.028842926E0,1.035492182E0,-9.214085579E0
7.090370065E0,3.992929935E0,1.025915384E0,-9.163806915E0
7.110553294E0,3.868431330E0,8.798691034E-1,-9.024943352E0
7.130737044E0,3.605069160E0,1.188721180E0,-8.754398346E0
7.150921471E0,3.533243179E0,1.564610839E0,-8.787917137E0
7.171106680E0,3.571550369E0,1.729810715E0,-8.965087891E0
7.191292773E0,3.561973572E0,1.971625090E0,-8.929175377E0
7.211479805E0,3.724779367E0,2.445677042E0,-9.022548676E0
7.231667773E0,3.775057554E0,2.330755472E0,-8.273163795E0
7.251856680E0,4.153341293E0,1.954865694E0,-8.718485832E0
7.272046471E0,4.373608112E0,1.578976035E0,-9.307458878E0
7.292237044E0,4.129399300E0,1.385045648E0,-9.063250542E0
7.312457200E0,3.617040157E0,1.313219666E0,-9.020154953E0
7.332634805E0,3.473388195E0,1.349132657E0,-9.194931984E0
7.352812825E0,3.609857559E0,1.473631144E0,-9.142259598E0
7.372991680E0,3.688866377E0,1.598129630E0,-9.216479301E0
7.393171680E0,3.585915565E0,1.679532528E0,-9.352949142E0
7.413353138E0,3.566761971E0,1.583764434E0,-9.340977669E0
7.433536263E0,3.760692358E0,1.459265947E0,-9.302670479E0
7.453721159E0,3.961805344E0,1.334767461E0,-9.336189270E0
7.473907930E0,4.146158695E0,1.514332533E0,-9.077615738E0
7.494096575E0,4.134187698E0,1.686715126E0,-8.747216225E0
7.514286992E0,3.648164749E0,1.555034041E0,-9.012971878E0
7.534479075E0,3.442263603E0,1.531091928E0,-8.979453087E0
7.554672617E0,3.538031578E0,1.559822440E0,-8.672995567E0
7.574867305E0,3.729567766E0,1.526303530E0,-8.663418770E0
7.595062825E0,3.858854532E0,1.466448545E0,-8.835801125E0
7.615258867E0,3.925892353E0,1.547851443E0,-9.036913872E0
7.635455117E0,3.978564739E0,1.583764434E0,-9.154230118E0
7.655650742E0,3.866037130E0,1.492784739E0,-8.957905769E0
7.675839284E0,3.746327162E0,1.411381960E0,-8.744821548E0
7.696027721E0,3.734356165E0,1.521515131E0,-8.854954720E0
7.716226992E0,3.674500942E0,1.727416515E0,-8.763975143E0
7.736404700E0,3.652953148E0,1.760935307E0,-8.799888611E0
7.756582825E0,3.803787947E0,1.617283225E0,-9.044096947E0
7.776761680E0,4.071938515E0,1.567005038E0,-9.209297180E0
7.796941680E0,3.976170540E0,1.581370234E0,-9.333795547E0
7.817123138E0,3.605069160E0,1.459265947E0,-9.261969566E0
7.837306263E0,3.502118587E0,1.428141356E0,-9.185355186E0
7.857491159E0,3.724779367E0,1.499967337E0,-9.300276756E0
7.877677930E0,3.827729940E0,1.487996340E0,-9.496601105E0
7.897866575E0,3.806182146E0,1.385045648E0,-9.242815971E0
7.918056992E0,3.767874956E0,1.217451572E0,-8.591592789E0
7.938249075E0,3.600280762E0,1.061828494E0,-8.529343605E0
7.958442617E0,3.600280762E0,1.045069098E0,-8.847772598E0
7.978637305E0,3.959411144E0,1.198297977E0,-9.139864922E0
7.998832825E0,4.371213913E0,1.351526856E0,-8.917203903E0
8.019028867E0,4.526836872E0,1.327584863E0,-8.582015991E0
8.039225117E0,4.455010891E0,1.188721180E0,-8.668207169E0
8.059420534E0,4.232349873E0,1.071405292E0,-8.802282333E0
8.079608971E0,4.019266129E0,1.205480576E0,-8.797493935E0
8.099791992E0,4.086303711E0,1.341950059E0,-8.866926193E0
8.119975430E0,4.263474464E0,1.337161660E0,-8.864531517E0
8.140159492E0,4.294599533E0,1.210268974E0,-8.845377922E0
8.160344284E0,4.148552895E0,1.157596469E0,-8.775946617E0
8.180529909E0,4.045602322E0,1.205480576E0,-8.596381187E0
8.200716471E0,4.038419724E0,1.138442874E0,-8.560467720E0
8.220903971E0,3.959411144E0,1.028309584E0,-8.819042206E0
8.241092409E0,4.055179119E0,1.126471877E0,-8.876502991E0
8.261281784E0,4.282628059E0,1.219845772E0,-8.842984200E0
8.281471992E0,4.318541527E0,1.200692177E0,-8.996212959E0
8.301662930E0,4.110245705E0,1.200692177E0,-9.008183479E0
8.321877409E0,3.777451754E0,1.430535555E0,-8.931569099E0
8.342052878E0,3.796605349E0,1.825578809E0,-8.986636162E0
8.362229075E0,4.241926670E0,2.055422068E0,-9.135076523E0
8.382406419E0,4.557961464E0,1.909375906E0,-9.077615738E0
8.402585325E0,4.450222492E0,1.557428241E0,-8.682572365E0
8.422766159E0,4.148552895E0,1.294066072E0,-8.392873764E0
8.442949128E0,4.052784920E0,1.210268974E0,-8.598775864E0
8.463134336E0,4.191648483E0,1.234210968E0,-8.831012726E0
8.483321836E0,4.431068897E0,1.363497853E0,-8.931569099E0
8.503511575E0,4.596268654E0,1.504755735E0,-8.893261909E0
8.523703398E0,4.538807869E0,1.322796464E0,-8.943540573E0
8.543897096E0,4.399944305E0,9.971849918E-1,-9.053673744E0
8.564092409E0,4.261080265E0,9.684545994E-1,-8.711302757E0
8.584289023E0,4.172494888E0,9.900023937E-1,-8.558073997E0
8.604486575E0,3.933074951E0,9.923965931E-1,-8.775946617E0
8.624684648E0,3.868431330E0,1.128866076E0,-9.044096947E0
8.644882200E0,4.024054527E0,1.341950059E0,-9.230844498E0
8.665074857E0,4.160523891E0,1.358709455E0,-9.154230118E0
8.685268711E0,4.083909512E0,1.035492182E0,-8.981847763E0
8.705457200E0,3.700837374E0,8.367735147E-1,-8.823830605E0
8.725635117E0,3.423109770E0,9.852139950E-1,-8.775946617E0
8.745813607E0,3.456628799E0,1.260547161E0,-8.941145897E0
8.765993034E0,3.722385168E0,1.461660147E0,-9.087192535E0
8.786173763E0,4.107851505E0,1.485602140E0,-9.106346130E0
8.806356055E0,4.378396511E0,1.377863050E0,-9.068038940E0
8.826540065E0,4.289810658E0,1.270123959E0,-8.902838707E0
8.846725898E0,3.930680752E0,1.308431268E0,-8.819042206E0
8.866913607E0,3.796605349E0,1.454477549E0,-8.833407402E0
8.887103138E0,3.947440147E0,1.562216640E0,-8.905233383E0
8.907294388E0,4.136581898E0,1.564610839E0,-8.972270966E0
8.927487200E0,4.282628059E0,1.361103654E0,-8.981847763E0
8.947681315E0,4.328118324E0,1.332373261E0,-8.809465408E0
8.967876419E0,4.083909512E0,1.406593442E0,-8.826224327E0
8.988072200E0,3.880402327E0,1.277306557E0,-9.211690903E0
9.008268346E0,3.717596769E0,1.267729759E0,-9.187748909E0
9.028463971E0,3.758298159E0,1.344344258E0,-8.835801125E0
9.048655742E0,3.748721361E0,1.315613866E0,-9.068038940E0
9.068844180E0,3.798999548E0,1.138442874E0,-9.245209694E0
9.089029805E0,4.024054527E0,8.894459605E-1,-8.907627106E0
9.109212930E0,4.162918091E0,7.936778665E-1,-8.840589523E0
9.129396575E0,4.036025524E0,8.439561129E-1,-8.989029884E0
9.149580898E0,3.820547342E0,1.047463298E0,-8.890868187E0
9.169766003E0,3.724779367E0,1.203086376E0,-8.866926193E0
9.189951992E0,3.832518339E0,1.241393566E0,-8.981847763E0
9.210138919E0,4.000112534E0,1.167173386E0,-8.960299492E0
9.230326836E0,4.057573318E0,1.092953086E0,-8.869319916E0
9.250515742E0,4.002506733E0,1.121683478E0,-8.905233383E0
9.270705534E0,3.899555922E0,1.250970364E0,-8.938752174E0
9.290896107E0,3.870825529E0,1.375468850E0,-8.931569099E0
9.311087148E0,3.901950121E0,1.399410844E0,-8.931569099E0
9.331278555E0,3.957016945E0,1.382651448E0,-8.962694168E0
9.351470430E0,3.954622746E0,1.397016644E0,-8.972270966E0
9.371662617E0,3.925892353E0,1.420958757E0,-8.969876289E0
9.391854961E0,3.911526918E0,1.399410844E0,-9.008183479E0
9.412046680E0,3.916315317E0,1.377863050E0,-8.989029884E0
9.432236419E0,3.961805344E0,1.351526856E0,-8.957905769E0
9.452430273E0,4.021660328E0,1.327584863E0,-8.974664688E0
9.472618711E0,4.045602322E0,1.313219666E0,-8.977059364E0
9.492796523E0,4.047996521E0,1.289277673E0,-8.957905769E0
9.512974961E0,4.055179119E0,1.255758762E0,-8.929175377E0
9.533154388E0,4.050390720E0,1.234210968E0,-8.914810181E0
9.553335117E0,4.033631325E0,1.231816769E0,-8.886079788E0
9.573517409E0,4.000112534E0,1.262941360E0,-8.835801125E0
9.593701419E0,3.930680752E0,1.296460271E0,-8.831012726E0
9.613887253E0,3.887584925E0,1.279700756E0,-8.933963776E0
9.634074961E0,3.913921118E0,1.246181965E0,-9.017760277E0
9.654264492E0,3.961805344E0,1.181538582E0,-9.135076523E0
9.674455742E0,3.983353138E0,1.100135684E0,-9.151836395E0
9.694648555E0,3.933074951E0,1.030703783E0,-9.072827339E0
9.714842669E0,3.801393747E0,1.016338587E0,-8.984241486E0
9.735037773E0,3.712808371E0,1.128866076E0,-9.005789757E0
9.755233555E0,3.777451754E0,1.248576164E0,-9.053673744E0
9.775429700E0,3.892373323E0,1.284489155E0,-9.039308548E0
9.795625325E0,3.913921118E0,1.260547161E0,-9.001001358E0
9.815838242E0,3.878008127E0,1.212663174E0,-8.981847763E0
9.836005430E0,3.856460333E0,1.145625472E0,-8.936357498E0
9.856173450E0,3.870825529E0,1.116895080E0,-8.878896713E0
9.876343034E0,3.933074951E0,1.133654475E0,-8.933963776E0
9.896514909E0,3.980958939E0,1.183932781E0,-8.989029884E0
9.916689596E0,3.983353138E0,1.262941360E0,-9.001001358E0
9.936867617E0,3.961805344E0,1.322796464E0,-8.962694168E0
9.957049180E0,3.921103716E0,1.346738458E0,-8.931569099E0
9.977234492E0,3.911526918E0,1.382651448E0,-8.929175377E0
9.997423450E0,3.894767523E0,1.397016644E0,-8.941145897E0
1.001761595E1,3.882796526E0,1.437718153E0,-8.926780701E0
1.003781168E1,3.844489336E0,1.452083349E0,-8.960299492E0
1.005801022E1,3.844489336E0,1.464054346E0,-8.979453087E0
1.007821106E1,3.849277735E0,1.459265947E0,-8.977059364E0
1.009841356E1,3.863642931E0,1.411381960E0,-9.005789757E0
1.011861710E1,3.904344320E0,1.325190663E0,-9.094375610E0
1.013882106E1,3.913921118E0,1.258152962E0,-9.099164009E0
1.015902053E1,3.858854532E0,1.243787766E0,-9.051279068E0
1.017920897E1,3.796605349E0,1.255758762E0,-9.068038940E0
1.019939199E1,3.832518339E0,1.250970364E0,-9.065644264E0
1.021957543E1,3.904344320E0,1.174355984E0,-9.036913872E0
1.023975939E1,3.904344320E0,1.104924083E0,-8.993818283E0
1.025994408E1,3.851671934E0,1.136048675E0,-8.938752174E0
1.028012960E1,3.849277735E0,1.179144382E0,-8.933963776E0
1.030031606E1,3.854066133E0,1.222239971E0,-8.938752174E0
1.032050345E1,3.827729940E0,1.255758762E0,-9.003395081E0
1.034069178E1,3.858854532E0,1.229422569E0,-9.022548676E0
1.036088106E1,3.913921118E0,1.167173386E0,-8.912415504E0
1.038107116E1,3.916315317E0,1.121683478E0,-8.854954720E0
1.040126199E1,3.889979124E0,1.088164687E0,-8.893261909E0
1.042145345E1,3.928286552E0,1.133654475E0,-8.950722694E0
1.044164543E1,3.954622746E0,1.174355984E0,-9.096769333E0
1.046183772E1,3.928286552E0,1.159990668E0,-9.135076523E0
1.048203022E1,3.901950121E0,1.133654475E0,-8.991424561E0
1.050223356E1,3.897161722E0,1.150413871E0,-8.914810181E0
1.052241231E1,3.933074951E0,1.169567585E0,-8.936357498E0
1.054259137E1,3.952228546E0,1.191115379E0,-8.972270966E0
1.056277116E1,3.976170540E0,1.227028370E0,-8.996212959E0
1.058295199E1,3.957016945E0,1.253364563E0,-9.022548676E0
1.060313408E1,3.949834347E0,1.279700756E0,-9.024943352E0
1.062331762E1,3.949834347E0,1.289277673E0,-8.989029884E0
1.064350282E1,3.949834347E0,1.272518158E0,-8.960299492E0
1.066368970E1,3.964199543E0,1.243787766E0,-8.960299492E0
1.068387824E1,3.976170540E0,1.203086376E0,-8.986636162E0
1.070406835E1,3.928286552E0,1.167173386E0,-9.005789757E0
1.072425991E1,3.875613928E0,1.143231273E0,-9.001001358E0
1.074445272E1,3.839700937E0,1.114500880E0,-8.986636162E0
1.076464658E1,3.803787947E0,1.112106681E0,-9.020154953E0
1.078484126E1,3.763086557E0,1.128866076E0,-9.096769333E0
1.080503647E1,3.801393747E0,1.186326981E0,-9.046490669E0
1.082524361E1,3.834912539E0,1.164779186E0,-9.058462143E0
1.084542231E1,3.834912539E0,1.064222693E0,-9.041702271E0
1.086560152E1,3.796605349E0,9.636662006E-1,-9.094375610E0
1.088578163E1,3.858854532E0,8.631097078E-1,-9.051279068E0
1.090596293E1,4.043208122E0,7.386112213E-1,-8.790311813E0
1.092614569E1,4.189254284E0,8.104372621E-1,-8.555679321E0
1.094633007E1,3.904344320E0,1.100135684E0,-8.883685112E0
1.096651611E1,3.674500942E0,1.471236944E0,-9.273940086E0
1.098670382E1,3.650558949E0,1.753752708E0,-9.297882080E0
1.100689319E1,3.882796526E0,1.763329506E0,-8.941145897E0
1.102708413E1,3.787028551E0,1.691503525E0,-9.008183479E0
1.104727647E1,3.796605349E0,1.581370234E0,-8.993818283E0
1.106747001E1,3.849277735E0,1.545457244E0,-8.993818283E0
1.108766449E1,3.782240152E0,1.631648421E0,-9.012971878E0
1.110785965E1,3.806182146E0,1.725022316E0,-9.036913872E0
1.112805517E1,3.782240152E0,1.878251195E0,-8.974664688E0
1.114825033E1,3.885190725E0,1.890222192E0,-8.900444984E0
1.116844189E1,3.930680752E0,1.804031014E0,-8.819042206E0
1.118863027E1,3.913921118E0,1.456871748E0,-8.835801125E0
1.120881590E1,3.763086557E0,1.049857497E0,-9.001001358E0
1.122899902E1,3.734356165E0,8.631097078E-1,-9.118317604E0
1.124918267E1,3.892373323E0,8.391677141E-1,-8.989029884E0
1.126936699E1,3.918709517E0,8.487445116E-1,-8.936357498E0
1.128955210E1,3.772663355E0,8.678981066E-1,-9.056067467E0
1.130973809E1,3.657741547E0,9.780313969E-1,-9.113529205E0
1.132992501E1,3.770269156E0,1.162384868E0,-9.065644264E0
1.135011288E1,3.923498154E0,1.272518158E0,-8.991424561E0
1.137030168E1,3.968987942E0,1.238999367E0,-8.967482567E0
1.139049137E1,3.830124140E0,1.145625472E0,-8.938752174E0
1.141068184E1,3.708019972E0,1.195903778E0,-8.993818283E0
1.143087298E1,3.782240152E0,1.253364563E0,-9.005789757E0
1.145106470E1,3.916315317E0,1.241393566E0,-8.945934296E0
1.147125684E1,3.866037130E0,1.296460271E0,-8.991424561E0
1.149144923E1,3.784634352E0,1.370680451E0,-9.053673744E0
1.151164715E1,3.787028551E0,1.380257249E0,-9.015366554E0
1.153183814E1,3.729567766E0,1.325190663E0,-9.012971878E0
1.155201694E1,3.679289579E0,1.284489155E0,-9.036913872E0
1.157219626E1,3.758298159E0,1.250970364E0,-8.979453087E0
1.159237647E1,3.834912539E0,1.246181965E0,-9.044096947E0
1.161255783E1,3.904344320E0,1.279700756E0,-9.139864922E0
1.163274053E1,3.940257549E0,1.382651448E0,-9.041702271E0
1.165292481E1,3.961805344E0,1.526303530E0,-8.902838707E0
1.167311074E1,3.930680752E0,1.610100627E0,-8.876502991E0
1.169329835E1,3.901950121E0,1.624465823E0,-8.926780701E0
1.171348762E1,3.928286552E0,1.531091928E0,-9.015366554E0
1.173367845E1,3.983353138E0,1.404199243E0,-9.080010414E0
1.175387069E1,3.985747337E0,1.255758762E0,-9.048885345E0
1.177406413E1,3.916315317E0,1.126471877E0,-9.005789757E0
1.179425850E1,3.782240152E0,1.083376288E0,-8.991424561E0
1.181447574E1,3.748721361E0,1.119289279E0,-9.041702271E0
1.183465939E1,3.842095137E0,1.203086376E0,-9.080010414E0
1.185484314E1,3.935469151E0,1.294066072E0,-9.168595314E0
1.187502720E1,3.935469151E0,1.507149935E0,-9.020154953E0
1.189521178E1,3.777451754E0,1.459265947E0,-9.036913872E0
1.191539699E1,3.796605349E0,1.315613866E0,-8.938752174E0
1.193558293E1,3.851671934E0,1.265335560E0,-8.754398346E0
1.195576970E1,3.873219728E0,1.318008065E0,-8.883685112E0
1.197595731E1,3.882796526E0,1.289277673E0,-9.041702271E0
1.199614574E1,3.806182146E0,1.250970364E0,-8.938752174E0
1.201633501E1,3.729567766E0,1.219845772E0,-8.931569099E0
1.203652501E1,3.667318344E0,1.162384868E0,-9.060855865E0
1.205671564E1,3.636193752E0,1.143231273E0,-9.137471199E0
1.207690678E1,3.662529945E0,1.176750183E0,-9.142259598E0
1.209709835E1,3.652953148E0,1.215057373E0,-9.137471199E0
1.211729012E1,3.597886562E0,1.260547161E0,-9.190143585E0
1.213748199E1,3.552396774E0,1.375468850E0,-9.170989990E0
1.215767376E1,3.617040157E0,1.531091928E0,-9.022548676E0
1.217786210E1,3.765480757E0,1.581370234E0,-8.967482567E0
1.219804501E1,3.880402327E0,1.428141356E0,-9.063250542E0
1.221822835E1,3.846883535E0,1.238999367E0,-9.068038940E0
1.223841230E1,3.839700937E0,1.112106681E0,-8.979453087E0
1.225859699E1,3.837306738E0,1.069011092E0,-8.986636162E0
1.227878251E1,3.779845953E0,1.025915384E0,-9.063250542E0
1.229896897E1,3.775057554E0,9.588778019E-1,-9.101557732E0
1.231915637E1,3.846883535E0,9.133879542E-1,-9.048885345E0
1.233934470E1,3.933074951E0,9.014169574E-1,-8.965087891E0
1.235953397E1,3.954622746E0,8.942343593E-1,-9.032125473E0
1.237972408E1,3.849277735E0,9.923965931E-1,-9.103952408E0
1.239991491E1,3.810970545E0,1.191115379E0,-9.046490669E0
1.242010637E1,3.913921118E0,1.373074651E0,-8.917203903E0
1.244029835E1,3.997718334E0,1.435323954E0,-8.950722694E0
1.246049064E1,3.957016945E0,1.471236944E0,-9.084798813E0
1.248068303E1,3.918709517E0,1.595735431E0,-8.977059364E0
1.250088626E1,3.983353138E0,1.662773132E0,-8.831012726E0
1.252106480E1,4.014477730E0,1.478419542E0,-8.883685112E0
1.254124366E1,3.830124140E0,1.595735431E0,-8.972270966E0
1.256142324E1,3.868431330E0,1.634042621E0,-8.881291389E0
1.258160387E1,3.858854532E0,1.739387512E0,-8.740033150E0
1.260178585E1,3.672106743E0,1.969230890E0,-8.785523415E0
1.262196928E1,3.739144564E0,2.029085875E0,-8.984241486E0
1.264215439E1,3.988141537E0,2.041056871E0,-9.022548676E0
1.266234116E1,4.162918091E0,2.029085875E0,-8.854954720E0
1.268252960E1,3.980958939E0,2.136825085E0,-8.759186745E0
1.270271970E1,3.719990969E0,2.062604666E0,-8.778340340E0
1.272291126E1,3.672106743E0,1.672349930E0,-9.024943352E0
1.274310418E1,3.693654776E0,1.387439847E0,-8.962694168E0
1.276329814E1,3.858854532E0,1.234210968E0,-8.972270966E0
1.278349293E1,3.923498154E0,9.133879542E-1,-9.132682800E0
1.280368824E1,3.514089584E0,8.559271097E-1,-9.230844498E0
1.282389767E1,3.279457808E0,1.078587890E0,-9.063250542E0
1.284407220E1,3.396773577E0,1.205480576E0,-8.910021782E0
1.286424751E1,3.607463360E0,1.191115379E0,-8.993818283E0
1.288442408E1,3.748721361E0,1.140837073E0,-9.108740807E0
1.290460231E1,3.945045948E0,1.145625472E0,-9.094375610E0
1.292478257E1,4.052784920E0,1.219845772E0,-8.993818283E0
1.294496512E1,4.079121113E0,1.236605167E0,-8.890868187E0
1.296515012E1,4.050390720E0,1.303642869E0,-8.845377922E0
1.298533756E1,3.949834347E0,1.341950059E0,-8.886079788E0
1.300552736E1,3.854066133E0,1.327584863E0,-8.989029884E0
1.302571939E1,3.889979124E0,1.337161660E0,-9.001001358E0
1.304591345E1,3.947440147E0,1.373074651E0,-8.967482567E0
1.306610923E1,3.976170540E0,1.377863050E0,-8.943540573E0
1.308630637E1,3.882796526E0,1.430535555E0,-8.933963776E0
1.310650444E1,3.712808371E0,1.533486247E0,-8.917203903E0
1.312670303E1,3.729567766E0,1.610100627E0,-8.945934296E0
1.314690064E1,3.966593742E0,1.710657120E0,-8.957905769E0
1.316709303E1,4.086303711E0,1.808819413E0,-8.991424561E0
1.318727866E1,4.031237125E0,1.916558504E0,-8.986636162E0
1.320746178E1,3.942651749E0,1.978807688E0,-8.972270966E0
1.322764538E1,3.904344320E0,1.887827992E0,-8.921992302E0
1.324782960E1,3.796605349E0,1.689109325E0,-8.869319916E0
1.326801460E1,3.662529945E0,1.526303530E0,-8.790311813E0
1.328820048E1,3.581127167E0,1.459265947E0,-8.797493935E0
1.330838730E1,3.636193752E0,1.499967337E0,-9.022548676E0
1.332857506E1,3.942651749E0,1.499967337E0,-9.130288124E0
1.334876376E1,4.074332714E0,1.516726732E0,-9.135076523E0
1.336895340E1,3.763086557E0,1.593341231E0,-9.245209694E0
1.338914387E1,3.442263603E0,1.701080322E0,-9.161413193E0
1.340933501E1,3.470993996E0,1.741781712E0,-8.835801125E0
1.342952673E1,3.724779367E0,1.610100627E0,-8.740033150E0
1.344971887E1,3.921103716E0,1.452083349E0,-8.996212959E0
1.346991126E1,3.990535736E0,1.406593442E0,-9.194931984E0
1.349010918E1,3.980958939E0,1.435323954E0,-9.101557732E0
1.351030017E1,3.918709517E0,1.487996340E0,-8.917203903E0
1.353047897E1,3.923498154E0,1.466448545E0,-8.804677010E0
1.355065829E1,3.976170540E0,1.420958757E0,-8.756793022E0
1.357083850E1,3.959411144E0,1.468842745E0,-8.850166321E0
1.359101986E1,3.894767523E0,1.564610839E0,-8.960299492E0
1.361120257E1,3.834912539E0,1.677138329E0,-8.933963776E0
1.363138684E1,3.782240152E0,1.768117905E0,-8.878896713E0
1.365157277E1,3.763086557E0,1.856703401E0,-8.862137794E0
1.367176038E1,3.760692358E0,1.959654093E0,-8.886079788E0
1.369194965E1,3.758298159E0,2.009932280E0,-9.022548676E0
1.371214048E1,3.789422750E0,2.045845270E0,-9.111134529E0
1.373233267E1,3.741538763E0,2.021903276E0,-9.106346130E0
1.375252600E1,3.636193752E0,1.940500498E0,-9.096769333E0
1.377272027E1,3.569156170E0,1.851915002E0,-9.096769333E0
1.379291522E1,3.590703964E0,1.818396211E0,-9.051279068E0
1.381313741E1,3.621828556E0,1.796848416E0,-8.953117371E0
1.383330918E1,3.640982151E0,1.753752708E0,-8.876502991E0
1.385348158E1,3.676895142E0,1.681926727E0,-8.898050308E0
1.387365522E1,3.741538763E0,1.619677424E0,-9.010578156E0
1.389383064E1,3.801393747E0,1.571793437E0,-9.099164009E0
1.391400824E1,3.815758944E0,1.509544134E0,-9.108740807E0
1.393418845E1,3.748721361E0,1.514332533E0,-9.080010414E0
1.395437147E1,3.676895142E0,1.574187636E0,-9.022548676E0
1.397455741E1,3.662529945E0,1.674744129E0,-8.941145897E0
1.399474616E1,3.650558949E0,1.763329506E0,-8.869319916E0
1.401493762E1,3.662529945E0,1.801636815E0,-8.895656586E0
1.403513158E1,3.815758944E0,1.851915002E0,-8.907627106E0
1.405532772E1,3.885190725E0,1.789665818E0,-8.895656586E0
1.407552564E1,3.825335741E0,1.689109325E0,-8.883685112E0
1.409572491E1,3.801393747E0,1.610100627E0,-8.907627106E0
1.411592501E1,3.856460333E0,1.540668845E0,-8.910021782E0
1.413612543E1,3.897161722E0,1.521515131E0,-8.907627106E0
1.415632282E1,3.901950121E0,1.564610839E0,-8.943540573E0
1.417651116E1,3.906738520E0,1.614889026E0,-8.957905769E0
1.419669408E1,3.854066133E0,1.624465823E0,-8.993818283E0
1.421687741E1,3.791816950E0,1.629254222E0,-8.993818283E0
1.423706126E1,3.746327162E0,1.646013618E0,-8.991424561E0
1.425724585E1,3.676895142E0,1.674744129E0,-8.986636162E0
1.427743126E1,3.715202570E0,1.720233917E0,-8.986636162E0
1.429761762E1,3.789422750E0,1.725022316E0,-8.984241486E0
1.431780491E1,3.727173567E0,1.720233917E0,-9.029731750E0
1.433799314E1,3.684077978E0,1.751358509E0,-9.046490669E0
1.435818231E1,3.693654776E0,1.715445518E0,-9.010578156E0
1.437837231E1,3.676895142E0,1.674744129E0,-8.953117371E0
1.439856303E1,3.664924145E0,1.677138329E0,-8.965087891E0
1.441875439E1,3.688866377E0,1.689109325E0,-9.020154953E0
1.443894626E1,3.765480757E0,1.679532528E0,-9.008183479E0
1.445913845E1,3.813364744E0,1.624465823E0,-8.979453087E0
1.447933085E1,3.803787947E0,1.559822440E0,-8.972270966E0
1.449953408E1,3.798999548E0,1.495178938E0,-8.960299492E0
1.451971314E1,3.844489336E0,1.638831019E0,-8.847772598E0
1.453989251E1,3.842095137E0,1.641225219E0,-8.991424561E0
1.456007251E1,3.717596769E0,1.643619418E0,-9.070432663E0
1.458025345E1,3.789422750E0,1.722628117E0,-8.845377922E0
1.460043564E1,3.808576345E0,1.715445518E0,-8.850166321E0
1.462061928E1,3.727173567E0,1.705868721E0,-9.005789757E0
1.464080449E1,3.743932962E0,1.729810715E0,-8.974664688E0
1.466099137E1,3.741538763E0,1.701080322E0,-8.933963776E0
1.468117991E1,3.751115561E0,1.689109325E0,-8.986636162E0
1.470137001E1,3.741538763E0,1.796848416E0,-8.981847763E0
1.472156158E1,3.674500942E0,1.863885999E0,-8.950722694E0
1.474175439E1,3.660135746E0,1.935712099E0,-9.003395081E0
1.476194824E1,3.643376350E0,1.969230890E0,-9.051279068E0
1.478214283E1,3.650558949E0,1.916558504E0,-9.003395081E0
1.480233782E1,3.672106743E0,1.863885999E0,-8.965087891E0
1.482254856E1,3.696048975E0,1.868674397E0,-8.965087891E0
1.484271673E1,3.731961966E0,1.878251195E0,-8.998606682E0
1.486288606E1,3.755903959E0,1.849520802E0,-8.996212959E0
1.488305725E1,3.705625772E0,1.780089021E0,-8.933963776E0
1.490323090E1,3.751115561E0,1.751358509E0,-8.905233383E0
1.492340751E1,3.787028551E0,1.727416515E0,-8.989029884E0
1.494358746E1,3.648164749E0,1.679532528E0,-9.113529205E0
1.496377090E1,3.734356165E0,1.849520802E0,-8.924386978E0
1.498395788E1,3.715202570E0,1.825578809E0,-8.886079788E0
1.500414835E1,3.746327162E0,1.648407817E0,-8.895656586E0
1.502434210E1,3.990535736E0,1.696291924E0,-8.787917137E0
1.504453876E1,3.930680752E0,1.727416515E0,-8.965087891E0
1.506473788E1,3.679289579E0,1.602918029E0,-9.175778389E0
1.508493892E1,3.715202570E0,1.538274646E0,-8.965087891E0
1.510514132E1,3.791816950E0,1.502361536E0,-8.890868187E0
1.512534444E1,3.758298159E0,1.602918029E0,-8.977059364E0
1.514554595E1,3.717596769E0,1.732204914E0,-8.955511093E0
1.516573996E1,3.822941542E0,1.765723705E0,-8.917203903E0
1.518592559E1,3.789422750E0,1.739387512E0,-8.984241486E0
1.520610871E1,3.727173567E0,1.789665818E0,-8.974664688E0
1.522629231E1,3.698443174E0,1.784877419E0,-8.914810181E0
1.524647652E1,3.681683779E0,1.806425214E0,-8.991424561E0
1.526666152E1,3.727173567E0,1.813607812E0,-9.017760277E0
1.528684741E1,3.715202570E0,1.808819413E0,-9.027337074E0
1.530703423E1,3.708019972E0,1.847126603E0,-8.996212959E0
1.532722199E1,3.722385168E0,1.823184609E0,-8.886079788E0
1.534741069E1,3.731961966E0,1.777694821E0,-8.864531517E0
1.536760027E1,3.736750364E0,1.777694821E0,-8.981847763E0
1.538779064E1,3.739144564E0,1.784877419E0,-9.058462143E0
1.540798168E1,3.698443174E0,1.746570110E0,-9.099164009E0
1.542817329E1,3.669712543E0,1.708262920E0,-8.998606682E0
1.544836533E1,3.636193752E0,1.715445518E0,-8.874108315E0
1.546855762E1,3.504512787E0,1.734599113E0,-8.924386978E0
1.548875543E1,3.401561975E0,1.768117905E0,-9.032125473E0
1.550894637E1,3.509301186E0,1.837549806E0,-9.068038940E0
1.552912517E1,3.971382141E0,1.868674397E0,-9.082404137E0
1.554930449E1,4.170100689E0,1.775300503E0,-9.022548676E0
1.556948470E1,4.050390720E0,1.662773132E0,-8.766369820E0
1.558966606E1,4.009689331E0,1.574187636E0,-8.534132004E0
1.560984876E1,4.095880508E0,1.511938334E0,-8.603564262E0
1.563003303E1,4.150947094E0,1.459265947E0,-8.802282333E0
1.565021897E1,4.131793499E0,1.473631144E0,-8.924386978E0
1.567040658E1,4.050390720E0,1.538274646E0,-9.053673744E0
1.569059579E1,3.928286552E0,1.574187636E0,-9.096769333E0
1.571078652E1,3.827729940E0,1.602918029E0,-8.998606682E0
1.573097861E1,3.763086557E0,1.667561531E0,-8.902838707E0
1.575117184E1,3.700837374E0,1.851915002E0,-8.857349396E0
1.577136600E1,3.631405354E0,2.014720678E0,-8.902838707E0
1.579156085E1,3.559579372E0,2.093729496E0,-8.998606682E0
1.581178783E1,3.559579372E0,2.062604666E0,-9.044096947E0
1.583195470E1,3.566761971E0,2.005143881E0,-9.027337074E0
1.585212241E1,3.545214176E0,1.995567083E0,-9.041702271E0
1.587229168E1,3.552396774E0,2.026691675E0,-9.166201591E0
1.589246324E1,3.605069160E0,2.076969862E0,-9.206902504E0
1.591263772E1,3.629011154E0,2.050633669E0,-9.170989990E0
1.593281553E1,3.669712543E0,2.007538080E0,-9.058462143E0
1.595299699E1,3.763086557E0,1.971625090E0,-8.914810181E0
1.597318220E1,3.798999548E0,1.909375906E0,-8.814253807E0
1.599337116E1,3.789422750E0,1.792060018E0,-8.847772598E0
1.601356366E1,3.763086557E0,1.756146908E0,-8.931569099E0
1.603375939E1,3.719990969E0,1.823184609E0,-8.974664688E0
1.605395793E1,3.688866377E0,1.923741102E0,-8.941145897E0
1.607415876E1,3.638587952E0,1.966836691E0,-8.984241486E0
1.609436126E1,3.494935989E0,1.966836691E0,-9.082404137E0
1.611456480E1,3.320159197E0,2.019509077E0,-9.099164009E0
1.613476876E1,3.267486811E0,2.132036686E0,-9.034520149E0
1.615496772E1,3.368043184E0,2.148796082E0,-8.969876289E0
1.617515606E1,3.518877983E0,2.062604666E0,-8.950722694E0
1.619533897E1,3.722385168E0,1.945288897E0,-8.857349396E0
1.621552230E1,4.012083530E0,1.794454217E0,-8.680178642E0
1.623570616E1,4.194042683E0,1.669955730E0,-8.603564262E0
1.625589074E1,4.220378876E0,1.571793437E0,-8.682572365E0
1.627607616E1,4.206013680E0,1.521515131E0,-8.711302757E0
1.629626251E1,4.143764496E0,1.590947032E0,-8.775946617E0
1.631644980E1,4.067150116E0,1.655590534E0,-8.881291389E0
1.633663803E1,3.858854532E0,1.741781712E0,-9.015366554E0
1.635682720E1,3.667318344E0,1.818396211E0,-9.087192535E0
1.637701720E1,3.638587952E0,1.916558504E0,-9.082404137E0
1.639720793E1,3.758298159E0,1.981201887E0,-9.048885345E0
1.641739928E1,3.748721361E0,1.997961283E0,-9.056067467E0
1.643759116E1,3.640982151E0,1.957259893E0,-9.053673744E0
1.645778335E1,3.545214176E0,1.890222192E0,-9.012971878E0
1.647797574E1,3.502118587E0,1.859097600E0,-9.012971878E0
1.649817897E1,3.459022999E0,1.871068597E0,-9.096769333E0
1.651835731E1,3.427898169E0,1.887827992E0,-9.127894402E0
1.653853595E1,3.444657803E0,1.911770105E0,-9.039308548E0
1.655871532E1,3.482964993E0,1.921346903E0,-8.950722694E0
1.657889574E1,3.487753391E0,1.933317900E0,-8.921992302E0
1.659907751E1,3.542819977E0,1.935712099E0,-8.802282333E0
1.661926085E1,3.593098164E0,1.926135302E0,-8.665813446E0
1.663944585E1,3.590703964E0,1.914164305E0,-8.816647530E0
1.665963262E1,3.710414171E0,1.859097600E0,-9.075222015E0
1.667982116E1,3.909132719E0,1.729810715E0,-9.187748909E0
1.670001137E1,4.000112534E0,1.617283225E0,-9.147047997E0
1.672020303E1,3.964199543E0,1.550245643E0,-8.998606682E0
1.674039606E1,3.985747337E0,1.437718153E0,-8.857349396E0
1.676059012E1,4.071938515E0,1.329979062E0,-8.809465408E0
1.678078501E1,4.138976097E0,1.320402265E0,-8.783128738E0
1.680098043E1,4.093486309E0,1.435323954E0,-8.763975143E0
1.682117606E1,3.959411144E0,1.689109325E0,-8.840589523E0
1.684137022E1,3.945045948E0,1.816002011E0,-8.933963776E0
1.686155845E1,3.837306738E0,1.868674397E0,-8.933963776E0
1.688174126E1,3.739144564E0,1.935712099E0,-8.876502991E0
1.690192449E1,3.691260576E0,2.014720678E0,-8.869319916E0
1.692210835E1,3.660135746E0,2.144007683E0,-8.924386978E0
1.694229293E1,3.669712543E0,2.203862667E0,-8.974664688E0
1.696247835E1,3.660135746E0,2.201468468E0,-8.981847763E0
1.698266470E1,3.576338768E0,2.251746655E0,-9.024943352E0
1.700285199E1,3.509301186E0,2.302024841E0,-9.010578156E0
1.702304022E1,3.466205597E0,2.292448044E0,-8.965087891E0
1.704322939E1,3.430292368E0,2.256535053E0,-9.041702271E0
1.706341939E1,3.365648985E0,2.330755472E0,-9.041702271E0
1.708361012E1,3.394379377E0,2.395398855E0,-8.986636162E0
1.710380147E1,3.449446201E0,2.445677042E0,-8.993818283E0
1.712399335E1,3.542819977E0,2.340332270E0,-9.005789757E0
1.714418553E1,3.561973572E0,2.155978680E0,-8.926780701E0
1.716437793E1,3.590703964E0,1.978807688E0,-8.886079788E0
1.718458116E1,3.688866377E0,1.880645394E0,-8.859743118E0
1.720475960E1,3.770269156E0,1.873462796E0,-8.917203903E0
1.722493835E1,3.854066133E0,1.933317900E0,-8.912415504E0
1.724511782E1,3.913921118E0,1.974019289E0,-8.850166321E0
1.726529835E1,3.906738520E0,1.928529501E0,-8.799888611E0
1.728548022E1,3.846883535E0,1.808819413E0,-8.816647530E0
1.730566356E1,3.765480757E0,1.772906303E0,-8.926780701E0
1.732587913E1,3.789422750E0,1.854309201E0,-8.883685112E0
1.734607762E1,3.779845953E0,1.938106298E0,-8.926780701E0
1.736626314E1,3.770269156E0,1.947683096E0,-8.943540573E0
1.738644616E1,3.837306738E0,1.974019289E0,-8.802282333E0
1.740662970E1,3.885190725E0,2.057816267E0,-8.754398346E0
1.742681392E1,3.882796526E0,2.136825085E0,-8.802282333E0
1.744699892E1,3.849277735E0,2.124854088E0,-8.895656586E0
1.746718481E1,3.708019972E0,2.043451071E0,-9.039308548E0
1.748737163E1,3.631405354E0,1.940500498E0,-9.168595314E0
1.750755939E1,3.607463360E0,1.895010591E0,-9.115922928E0
1.752774809E1,3.542819977E0,1.962048292E0,-9.060855865E0
1.754793767E1,3.538031578E0,2.048239470E0,-9.032125473E0
1.756812803E1,3.514089584E0,2.117671490E0,-8.921992302E0
1.758831908E1,3.593098164E0,2.158372879E0,-8.850166321E0
1.760851069E1,3.777451754E0,2.191891670E0,-8.878896713E0
1.762870272E1,3.798999548E0,2.225410461E0,-8.924386978E0
1.764889501E1,3.703231573E0,2.211045265E0,-8.926780701E0
1.766909282E1,3.672106743E0,2.182314873E0,-8.905233383E0
1.768928361E1,3.703231573E0,2.141613483E0,-8.845377922E0
1.770946210E1,3.676895142E0,2.093729496E0,-8.835801125E0
1.772964111E1,3.636193752E0,2.088941097E0,-8.862137794E0
1.774982100E1,3.636193752E0,2.122459888E0,-8.888473511E0
1.777000210E1,3.640982151E0,2.124854088E0,-8.924386978E0
1.779018465E1,3.669712543E0,2.103306293E0,-8.979453087E0
1.781036882E1,3.669712543E0,2.050633669E0,-8.929175377E0
1.783055470E1,3.667318344E0,2.014720678E0,-8.886079788E0
1.785074230E1,3.643376350E0,2.036268473E0,-8.931569099E0
1.787093158E1,3.636193752E0,2.120065689E0,-8.941145897E0
1.789112241E1,3.645770550E0,2.199074268E0,-8.898050308E0
1.791131465E1,3.636193752E0,2.220622063E0,-8.910021782E0
1.793150809E1,3.552396774E0,2.194285870E0,-8.917203903E0
1.795170246E1,3.466205597E0,2.160767078E0,-8.955511093E0
1.797189751E1,3.514089584E0,2.175132275E0,-8.905233383E0
1.799209293E1,3.542819977E0,2.132036686E0,-8.898050308E0
1.801228803E1,3.569156170E0,2.021903276E0,-8.989029884E0
1.803247949E1,3.609857559E0,2.026691675E0,-9.020154953E0
1.805266501E1,3.660135746E0,2.129642487E0,-8.967482567E0
1.807284803E1,3.763086557E0,2.170343876E0,-8.866926193E0
1.809303158E1,3.801393747E0,2.115277290E0,-8.814253807E0
1.811321579E1,3.798999548E0,2.084152699E0,-8.854954720E0
1.813340079E1,3.775057554E0,2.127248287E0,-8.874108315E0
1.815358668E1,3.748721361E0,2.213439465E0,-8.886079788E0
1.817377350E1,3.751115561E0,2.285265446E0,-8.895656586E0
1.819396126E1,3.743932962E0,2.302024841E0,-8.900444984E0
1.821414996E1,3.712808371E0,2.321178436E0,-8.902838707E0
1.823433954E1,3.672106743E0,2.354697466E0,-8.936357498E0
1.825452991E1,3.650558949E0,2.409764051E0,-8.974664688E0
1.827472095E1,3.633799553E0,2.426523447E0,-8.989029884E0
1.829491256E1,3.600280762E0,2.371456861E0,-8.919598579E0
1.831512626E1,3.554790974E0,2.218227863E0,-8.852560997E0
1.833530366E1,3.494935989E0,2.074575663E0,-8.933963776E0
1.835548147E1,3.473388195E0,2.086546898E0,-9.053673744E0
1.837566012E1,3.490147591E0,2.191891670E0,-9.089587212E0
1.839583991E1,3.430292368E0,2.273294449E0,-9.094375610E0
1.841602116E1,3.425503969E0,2.297236443E0,-8.972270966E0
1.843620408E1,3.593098164E0,2.421735048E0,-8.783128738E0
1.845638876E1,3.399167776E0,2.249352455E0,-9.001001358E0
1.847657533E1,3.439869404E0,2.187103271E0,-8.948328972E0
1.849676376E1,3.681683779E0,2.333149672E0,-8.749609947E0
1.851695397E1,3.552396774E0,2.280477047E0,-8.921992302E0
1.853714585E1,3.559579372E0,2.151190281E0,-9.089587212E0
1.855733918E1,3.650558949E0,2.038662672E0,-8.816647530E0
1.857753366E1,3.679289579E0,1.962048292E0,-8.828619003E0
1.859772897E1,3.719990969E0,1.978807688E0,-8.910021782E0
1.861792480E1,3.782240152E0,2.029085875E0,-8.857349396E0
1.863812085E1,3.791816950E0,2.064998865E0,-8.807070732E0
1.865831616E1,3.775057554E0,2.057816267E0,-8.833407402E0
1.867850439E1,3.719990969E0,2.084152699E0,-8.893261909E0
1.869870345E1,3.657741547E0,2.100912094E0,-8.957905769E0
1.871888095E1,3.638587952E0,2.124854088E0,-8.955511093E0
1.873905887E1,3.614645958E0,2.141613483E0,-8.943540573E0
1.875923751E1,3.621828556E0,2.134430885E0,-8.972270966E0
1.877941731E1,3.674500942E0,2.115277290E0,-8.960299492E0
1.879959856E1,3.693654776E0,2.074575663E0,-8.924386978E0
1.881978147E1,3.674500942E0,2.053027868E0,-8.945934296E0
1.883996616E1,3.640982151E0,2.031480074E0,-8.962694168E0
1.886015272E1,3.595492363E0,2.029085875E0,-9.003395081E0
1.888034116E1,3.578732967E0,2.038662672E0,-8.991424561E0
1.890053137E1,3.578732967E0,2.079364061E0,-8.965087891E0
1.892072324E1,3.595492363E0,2.105700493E0,-8.967482567E0
1.894091658E1,3.597886562E0,2.093729496E0,-8.960299492E0
1.896111106E1,3.612251759E0,2.055422068E0,-8.938752174E0
1.898130637E1,3.614645958E0,2.074575663E0,-8.910021782E0
1.900150220E1,3.648164749E0,2.050633669E0,-8.900444984E0
1.902169824E1,3.940257549E0,2.021903276E0,-8.692149162E0
1.904189335E1,3.966593742E0,1.813607812E0,-8.713697433E0
1.906208158E1,3.753509760E0,1.756146908E0,-8.974664688E0
1.908226439E1,3.684077978E0,1.904587507E0,-9.070432663E0
1.910244762E1,3.449446201E0,2.543839216E0,-9.065644264E0
1.912263147E1,3.439869404E0,2.328361034E0,-8.890868187E0
1.914281606E1,3.545214176E0,2.206256866E0,-8.766369820E0
1.916300147E1,3.925892353E0,2.136825085E0,-8.862137794E0
1.918318782E1,3.842095137E0,2.060210466E0,-9.036913872E0
1.920337512E1,3.619434357E0,2.033874273E0,-9.099164009E0
1.922356335E1,3.705625772E0,2.017114878E0,-8.929175377E0
1.924375251E1,3.607463360E0,2.079364061E0,-8.936357498E0
1.926394251E1,3.454234600E0,2.136825085E0,-8.864531517E0
1.928413324E1,3.528454781E0,2.165555477E0,-8.866926193E0
1.930432460E1,3.684077978E0,2.177526474E0,-8.941145897E0
1.932453371E1,3.731961966E0,2.108094692E0,-8.977059364E0
1.934471293E1,3.662529945E0,2.026691675E0,-8.979453087E0
1.936489262E1,3.705625772E0,1.983596087E0,-8.910021782E0
1.938507309E1,3.736750364E0,1.959654093E0,-8.785523415E0
1.940525465E1,3.748721361E0,2.009932280E0,-8.792705536E0
1.942543757E1,3.741538763E0,2.098517895E0,-8.883685112E0
1.944562199E1,3.712808371E0,2.172738075E0,-8.967482567E0
1.946580798E1,3.638587952E0,2.194285870E0,-8.943540573E0
1.948599553E1,3.629011154E0,2.175132275E0,-8.955511093E0
1.950618465E1,3.662529945E0,2.124854088E0,-8.972270966E0
1.952637527E1,3.655347347E0,2.062604666E0,-8.962694168E0
1.954656725E1,3.640982151E0,2.064998865E0,-8.945934296E0
1.956676038E1,3.681683779E0,2.079364061E0,-8.898050308E0
1.958695439E1,3.660135746E0,2.093729496E0,-8.883685112E0
1.960714902E1,3.597886562E0,2.060210466E0,-8.900444984E0
1.962734402E1,3.607463360E0,2.024297476E0,-8.936357498E0
1.964753856E1,3.662529945E0,2.021903276E0,-8.962694168E0
1.966772965E1,3.684077978E0,2.045845270E0,-8.938752174E0
1.968792329E1,3.698443174E0,2.088941097E0,-8.957905769E0
1.970811158E1,3.688866377E0,2.129642487E0,-8.905233383E0
1.972828928E1,3.672106743E0,2.160767078E0,-8.857349396E0
1.974846757E1,3.636193752E0,2.189497471E0,-8.840589523E0
1.976864678E1,3.602674961E0,2.256535053E0,-8.895656586E0
1.978882730E1,3.593098164E0,2.292448044E0,-8.986636162E0
1.980900939E1,3.597886562E0,2.256535053E0,-8.977059364E0
1.982919319E1,3.602674961E0,2.206256866E0,-8.924386978E0
1.984937882E1,3.619434357E0,2.170343876E0,-8.912415504E0
1.986956632E1,3.662529945E0,2.134430885E0,-8.902838707E0
1.988975564E1,3.693654776E0,2.134430885E0,-8.898050308E0
1.990994668E1,3.727173567E0,2.141613483E0,-8.921992302E0
1.993013928E1,3.722385168E0,2.129642487E0,-8.910021782E0
1.995033319E1,3.700837374E0,2.100912094E0,-8.893261909E0
1.997052809E1,3.664924145E0,2.103306293E0,-8.883685112E0
1.999072366E1,3.655347347E0,2.117671490E0,-8.888473511E0
2.001091960E1,3.645770550E0,2.117671490E0,-8.919598579E0
2.003111512E1,3.636193752E0,2.105700493E0,-8.931569099E0
2.005130673E1,3.629011154E0,2.117671490E0,-8.919598579E0
2.007149225E1,3.643376350E0,2.141613483E0,-8.931569099E0
2.009167527E1,3.648164749E0,2.155978680E0,-8.931569099E0
2.011185876E1,3.629011154E0,2.160767078E0,-8.943540573E0
2.013204288E1,3.624222755E0,2.148796082E0,-8.936357498E0
2.015222777E1,3.652953148E0,2.146401882E0,-8.910021782E0
2.017241356E1,3.621828556E0,2.153584480E0,-8.883685112E0
2.019260027E1,3.638587952E0,2.146401882E0,-8.898050308E0
2.021278793E1,3.667318344E0,2.165555477E0,-8.883685112E0
2.023297652E1,3.676895142E0,2.160767078E0,-8.910021782E0
2.025316606E1,3.681683779E0,2.175132275E0,-8.965087891E0
2.027335642E1,3.657741547E0,2.187103271E0,-8.950722694E0
2.029354746E1,3.640982151E0,2.146401882E0,-8.919598579E0
2.031376512E1,3.631405354E0,2.155978680E0,-8.883685112E0
2.033394241E1,3.607463360E0,2.194285870E0,-8.907627106E0
2.035412012E1,3.617040157E0,2.191891670E0,-8.912415504E0
2.037429866E1,3.643376350E0,2.187103271E0,-8.926780701E0
2.039447835E1,3.681683779E0,2.191891670E0,-8.953117371E0
2.041465949E1,3.672106743E0,2.201468468E0,-8.917203903E0
2.043484230E1,3.636193752E0,2.158372879E0,-8.876502991E0
2.045502699E1,3.590703964E0,2.148796082E0,-8.862137794E0
2.047521356E1,3.573944569E0,2.182314873E0,-8.874108315E0
2.049540199E1,3.614645958E0,2.194285870E0,-8.900444984E0
2.051559220E1,3.648164749E0,2.160767078E0,-8.898050308E0
2.053578408E1,3.662529945E0,2.151190281E0,-8.910021782E0
2.055597741E1,3.696048975E0,2.187103271E0,-8.924386978E0
2.057617189E1,3.715202570E0,2.187103271E0,-8.931569099E0
2.059636730E1,3.681683779E0,2.165555477E0,-8.898050308E0
2.061656324E1,3.674500942E0,2.170343876E0,-8.862137794E0
2.063675939E1,3.674500942E0,2.203862667E0,-8.869319916E0
2.065695480E1,3.676895142E0,2.237381458E0,-8.898050308E0
2.067714293E1,3.664924145E0,2.266111851E0,-8.919598579E0
2.069734189E1,3.626616955E0,2.256535053E0,-8.929175377E0
2.071751949E1,3.590703964E0,2.232593060E0,-8.941145897E0
2.073769751E1,3.559579372E0,2.213439465E0,-8.924386978E0
2.075787626E1,3.573944569E0,2.191891670E0,-8.938752174E0
2.077805616E1,3.569156170E0,2.172738075E0,-8.926780701E0
2.079823751E1,3.581127167E0,2.175132275E0,-8.938752174E0
2.081842053E1,3.636193752E0,2.172738075E0,-8.933963776E0
2.083860532E1,3.676895142E0,2.175132275E0,-8.890868187E0
2.085879199E1,3.684077978E0,2.153584480E0,-8.857349396E0
2.087898053E1,3.657741547E0,2.158372879E0,-8.857349396E0
2.089917085E1,3.664924145E0,2.179920673E0,-8.895656586E0
2.091936272E1,3.672106743E0,2.165555477E0,-8.921992302E0
2.093955595E1,3.660135746E0,2.165555477E0,-8.895656586E0
2.095975032E1,3.660135746E0,2.165555477E0,-8.898050308E0
2.097994553E1,3.669712543E0,2.177526474E0,-8.914810181E0
2.100014126E1,3.650558949E0,2.196680069E0,-8.907627106E0
2.102033720E1,3.619434357E0,2.215833664E0,-8.917203903E0
2.104053178E1,3.617040157E0,2.220622063E0,-8.921992302E0
2.106072001E1,3.607463360E0,2.223016262E0,-8.919598579E0
2.108090283E1,3.605069160E0,2.223016262E0,-8.910021782E0
2.110108606E1,3.607463360E0,2.223016262E0,-8.910021782E0
2.112126980E1,3.614645958E0,2.230198860E0,-8.907627106E0
2.114145428E1,3.619434357E0,2.220622063E0,-8.907627106E0
2.116163960E1,3.617040157E0,2.201468468E0,-8.900444984E0
2.118182585E1,3.624222755E0,2.187103271E0,-8.905233383E0
2.120201303E1,3.629011154E0,2.170343876E0,-8.898050308E0
2.122220116E1,3.629011154E0,2.167949677E0,-8.893261909E0
2.124239022E1,3.619434357E0,2.177526474E0,-8.907627106E0
2.126258022E1,3.631405354E0,2.194285870E0,-8.929175377E0
2.128779642E1,3.640982151E0,2.189497471E0,-8.938752174E0
2.129903991E1,3.636193752E0,2.189497471E0,-8.924386978E0
2.131864262E1,3.631405354E0,2.194285870E0,-8.905233383E0
2.133824600E1,3.626616955E0,2.179920673E0,-8.895656586E0
2.135787340E1,3.607463360E0,2.165555477E0,-8.900444984E0
2.137754632E1,3.631405354E0,2.160767078E0,-8.929175377E0
2.139728350E1,3.674500942E0,2.175132275E0,-8.933963776E0
2.141710043E1,3.674500942E0,2.179920673E0,-8.914810181E0
2.143700876E1,3.645770550E0,2.189497471E0,-8.876502991E0
2.145701606E1,3.612251759E0,2.218227863E0,-8.876502991E0
2.147712559E1,3.593098164E0,2.237381458E0,-8.905233383E0
2.149733642E1,3.602674961E0,2.223016262E0,-8.919598579E0
2.151764361E1,3.612251759E0,2.208651066E0,-8.919598579E0
2.153803856E1,3.617040157E0,2.199074268E0,-8.924386978E0
2.155843856E1,3.626616955E0,2.194285870E0,-8.910021782E0
2.157884397E1,3.631405354E0,2.203862667E0,-8.900444984E0
2.159924397E1,3.640982151E0,2.227804661E0,-8.914810181E0
2.161964126E1,3.655347347E0,2.246958256E0,-8.919598579E0
2.164004126E1,3.650558949E0,2.246958256E0,-8.905233383E0
2.166044668E1,3.626616955E0,2.242169857E0,-8.895656586E0
2.168084668E1,3.607463360E0,2.242169857E0,-8.900444984E0
2.170124397E1,3.607463360E0,2.246958256E0,-8.914810181E0
2.172164397E1,3.602674961E0,2.242169857E0,-8.919598579E0
2.174202767E1,3.597886562E0,2.246958256E0,-8.914810181E0
2.176221595E1,3.602674961E0,2.246958256E0,-8.919598579E0
2.178240965E1,3.597886562E0,2.237381458E0,-8.924386978E0
2.180259246E1,3.583521366E0,2.218227863E0,-8.924386978E0
2.182277548E1,3.578732967E0,2.189497471E0,-8.924386978E0
2.184295892E1,3.573944569E0,2.155978680E0,-8.919598579E0
2.186314293E1,3.559579372E0,2.132036686E0,-8.881291389E0
2.188332767E1,3.593098164E0,2.141613483E0,-8.900444984E0
2.190351324E1,3.650558949E0,2.175132275E0,-8.943540573E0
2.192369970E1,3.631405354E0,2.179920673E0,-8.943540573E0
2.194388710E1,3.569156170E0,2.175132275E0,-8.933963776E0
2.196407543E1,3.569156170E0,2.194285870E0,-8.910021782E0
2.198426465E1,3.602674961E0,2.218227863E0,-8.910021782E0
2.200445470E1,3.621828556E0,2.246958256E0,-8.914810181E0
2.202464548E1,3.617040157E0,2.270900249E0,-8.924386978E0
2.204483684E1,3.617040157E0,2.261323452E0,-8.948328972E0
2.206502866E1,3.621828556E0,2.203862667E0,-8.938752174E0
2.208522074E1,3.636193752E0,2.151190281E0,-8.900444984E0
2.210541293E1,3.669712543E0,2.117671490E0,-8.886079788E0
2.212560475E1,3.698443174E0,2.117671490E0,-8.886079788E0
2.214579303E1,3.712808371E0,2.136825085E0,-8.876502991E0
2.216597861E1,3.712808371E0,2.155978680E0,-8.881291389E0
2.218616439E1,3.688866377E0,2.184709072E0,-8.895656586E0
2.220635043E1,3.660135746E0,2.218227863E0,-8.910021782E0
2.222653684E1,3.631405354E0,2.242169857E0,-8.919598579E0
2.224672366E1,3.597886562E0,2.251746655E0,-8.914810181E0
2.226691095E1,3.569156170E0,2.246958256E0,-8.924386978E0
2.228709871E1,3.545214176E0,2.227804661E0,-8.948328972E0
2.230728694E1,3.559579372E0,2.189497471E0,-8.933963776E0
2.232747564E1,3.602674961E0,2.136825085E0,-8.933963776E0
2.234766475E1,3.607463360E0,2.155978680E0,-8.919598579E0
2.236785423E1,3.602674961E0,2.170343876E0,-8.823830605E0
2.238804402E1,3.621828556E0,2.151190281E0,-8.756793022E0
2.240823408E1,3.636193752E0,2.223016262E0,-8.833407402E0
2.242842428E1,3.717596769E0,2.218227863E0,-8.977059364E0
2.244861454E1,3.755903959E0,2.074575663E0,-9.015366554E0
2.246881022E1,3.660135746E0,1.954865694E0,-8.977059364E0
2.248899356E1,3.588309765E0,1.921346903E0,-8.962694168E0
2.250917704E1,3.597886562E0,1.978807688E0,-8.962694168E0
2.252936090E1,3.664924145E0,2.060210466E0,-8.977059364E0
2.254954527E1,3.708019972E0,2.127248287E0,-8.962694168E0
2.256973033E1,3.688866377E0,2.184709072E0,-8.929175377E0
2.258991616E1,3.669712543E0,2.261323452E0,-8.900444984E0
2.261010283E1,3.679289579E0,2.337938070E0,-8.852560997E0
2.263029032E1,3.717596769E0,2.376245260E0,-8.809465408E0
2.265047866E1,3.751115561E0,2.347514868E0,-8.814253807E0
2.267066783E1,3.760692358E0,2.227804661E0,-8.847772598E0
2.269085772E1,3.741538763E0,2.227804661E0,-8.862137794E0
2.271104824E1,3.746327162E0,2.256535053E0,-8.871714592E0
2.273123928E1,3.770269156E0,2.199074268E0,-8.881291389E0
2.275143074E1,3.746327162E0,2.189497471E0,-8.862137794E0
2.277162246E1,3.717596769E0,2.179920673E0,-8.823830605E0
2.279181428E1,3.693654776E0,2.213439465E0,-8.766369820E0
2.281200579E1,3.650558949E0,2.304419041E0,-8.728062630E0
2.283219408E1,3.602674961E0,2.424129248E0,-8.771158218E0
2.285238231E1,3.631405354E0,2.472013235E0,-8.895656586E0
2.287256782E1,3.703231573E0,2.390610456E0,-8.991424561E0
2.289275356E1,3.712808371E0,2.223016262E0,-9.010578156E0
2.291805142E1,3.609857559E0,2.019509077E0,-8.993818283E0
2.293806882E1,3.595492363E0,2.021903276E0,-8.965087891E0
2.295809944E1,3.657741547E0,2.117671490E0,-8.979453087E0
2.297814902E1,3.708019972E0,2.155978680E0,-8.933963776E0
2.299822236E1,3.681683779E0,2.100912094E0,-8.912415504E0
2.301832309E1,3.617040157E0,2.072181463E0,-8.905233383E0
2.303845361E1,3.590703964E0,2.091335297E0,-8.905233383E0
2.305861506E1,3.571550369E0,2.067393064E0,-8.921992302E0
2.307880725E1,3.478176594E0,2.000355482E0,-8.955511093E0
2.309902882E1,3.418321371E0,1.978807688E0,-9.039308548E0
2.311927725E1,3.478176594E0,2.086546898E0,-8.933963776E0
2.313954902E1,3.612251759E0,2.237381458E0,-8.811859131E0
2.315983986E1,3.679289579E0,2.278082848E0,-8.854954720E0
2.318014496E1,3.710414171E0,2.206256866E0,-8.898050308E0
2.320045902E1,3.700837374E0,2.153584480E0,-8.845377922E0
2.322077673E1,3.710414171E0,2.155978680E0,-8.821435928E0
2.324105288E1,3.746327162E0,2.144007683E0,-8.831012726E0
2.326124111E1,3.760692358E0,2.141613483E0,-8.845377922E0
2.328142392E1,3.772663355E0,2.201468468E0,-8.859743118E0
2.330160715E1,3.765480757E0,2.297236443E0,-8.823830605E0
2.332179090E1,3.779845953E0,2.383427858E0,-8.773551941E0
2.334197538E1,3.794211149E0,2.428917646E0,-8.809465408E0
2.336216069E1,3.741538763E0,2.469619036E0,-8.852560997E0
2.338234694E1,3.664924145E0,2.503137827E0,-8.842984200E0
2.340253413E1,3.624222755E0,2.481590033E0,-8.842984200E0
2.342272225E1,3.585915565E0,2.438494444E0,-8.890868187E0
2.344291132E1,3.538031578E0,2.436100245E0,-8.957905769E0
2.346310132E1,3.514089584E0,2.445677042E0,-8.984241486E0
2.348329204E1,3.533243179E0,2.419340849E0,-8.981847763E0
2.350348340E1,3.533243179E0,2.378639460E0,-8.977059364E0
2.352367527E1,3.518877983E0,2.306813240E0,-8.989029884E0
2.354386746E1,3.523666382E0,2.294842243E0,-9.001001358E0
2.356405986E1,3.521272182E0,2.316390038E0,-9.001001358E0
2.358426309E1,3.550002575E0,2.318784237E0,-9.015366554E0
2.360444163E1,3.585915565E0,2.268506050E0,-9.010578156E0
2.362462048E1,3.617040157E0,2.151190281E0,-8.943540573E0
2.364480007E1,3.564367771E0,2.048239470E0,-8.895656586E0
2.366498069E1,3.545214176E0,2.167949677E0,-8.802282333E0
2.368516257E1,3.619434357E0,2.462436438E0,-8.651448250E0
2.370534590E1,3.719990969E0,2.658761024E0,-8.632294655E0
2.372553090E1,3.770269156E0,2.670732021E0,-8.694543839E0
2.374571757E1,3.743932962E0,2.565387011E0,-8.754398346E0
2.376590590E1,3.705625772E0,2.414552450E0,-8.833407402E0
2.378609590E1,3.669712543E0,2.287659645E0,-8.881291389E0
2.380628736E1,3.655347347E0,2.189497471E0,-8.926780701E0
2.382650434E1,3.585915565E0,2.105700493E0,-8.910021782E0
2.384670090E1,3.676895142E0,2.009932280E0,-8.886079788E0
2.386688642E1,3.798999548E0,2.074575663E0,-8.881291389E0
2.388706944E1,3.767874956E0,2.263717651E0,-8.921992302E0
2.390725298E1,3.703231573E0,2.292448044E0,-8.893261909E0
2.392743720E1,3.650558949E0,2.278082848E0,-8.886079788E0
2.394762220E1,3.547608376E0,2.256535053E0,-8.902838707E0
2.396780809E1,3.490147591E0,2.256535053E0,-8.905233383E0
2.398799491E1,3.487753391E0,2.299630642E0,-8.869319916E0
2.400818267E1,3.459022999E0,2.347514868E0,-8.890868187E0
2.402837137E1,3.387196779E0,2.381033659E0,-8.989029884E0
2.404856095E1,3.372831583E0,2.402581453E0,-9.077615738E0
2.406875132E1,3.377619982E0,2.383427858E0,-9.072827339E0
2.408894236E1,3.444657803E0,2.347514868E0,-9.010578156E0
2.410913397E1,3.502118587E0,2.292448044E0,-8.933963776E0
2.412932600E1,3.559579372E0,2.215833664E0,-8.886079788E0
2.414951824E1,3.612251759E0,2.191891670E0,-8.828619003E0
2.416971595E1,3.739144564E0,2.218227863E0,-8.732851028E0
2.418990658E1,3.942651749E0,2.086546898E0,-8.675390244E0
2.421008486E1,3.858854532E0,1.966836691E0,-8.819042206E0
2.423026366E1,3.830124140E0,2.096123695E0,-9.068038940E0
2.425044335E1,3.490147591E0,2.381033659E0,-9.041702271E0
2.427062423E1,3.435081005E0,2.402581453E0,-8.840589523E0
2.429080658E1,3.518877983E0,2.376245260E0,-8.615534782E0
2.431099053E1,3.880402327E0,2.416946650E0,-8.802282333E0
2.433117621E1,3.966593742E0,2.323572636E0,-8.979453087E0
2.435136366E1,3.640982151E0,2.278082848E0,-8.993818283E0
2.437155283E1,3.657741547E0,2.299630642E0,-8.804677010E0
2.439174361E1,3.595492363E0,2.342726469E0,-8.907627106E0
2.441193585E1,3.399167776E0,2.383427858E0,-8.852560997E0
2.443212934E1,3.382408381E0,2.426523447E0,-8.792705536E0
2.445232382E1,3.521272182E0,2.493561029E0,-8.902838707E0
2.447251897E1,3.593098164E0,2.460042238E0,-8.993818283E0
2.449271449E1,3.542819977E0,2.333149672E0,-8.986636162E0
2.451290741E1,3.538031578E0,2.273294449E0,-8.905233383E0
2.453309767E1,3.561973572E0,2.273294449E0,-8.840589523E0
2.455329340E1,3.609857559E0,2.302024841E0,-8.866926193E0
2.457348340E1,3.629011154E0,2.290053844E0,-8.941145897E0
2.459366241E1,3.696048975E0,2.352303267E0,-8.905233383E0
2.461384194E1,3.688866377E0,2.357091665E0,-8.840589523E0
2.463402231E1,3.672106743E0,2.342726469E0,-8.821435928E0
2.465420376E1,3.710414171E0,2.373851061E0,-8.795100212E0
2.467438658E1,3.581127167E0,2.404975653E0,-8.811859131E0
2.469457090E1,3.590703964E0,2.412158251E0,-8.969876289E0
2.471475684E1,3.696048975E0,2.323572636E0,-8.926780701E0
2.473494444E1,3.698443174E0,2.261323452E0,-8.859743118E0
2.475513366E1,3.652953148E0,2.242169857E0,-8.898050308E0
2.477532439E1,3.643376350E0,2.220622063E0,-8.866926193E0
2.479551647E1,3.662529945E0,2.227804661E0,-8.852560997E0
2.481573064E1,3.655347347E0,2.230198860E0,-8.883685112E0
2.483592616E1,3.629011154E0,2.223016262E0,-8.871714592E0
2.485611449E1,3.609857559E0,2.266111851E0,-8.866926193E0
2.487630272E1,3.607463360E0,2.325966835E0,-8.907627106E0
2.489648553E1,3.633799553E0,2.330755472E0,-8.874108315E0
2.491666876E1,3.602674961E0,2.321178436E0,-8.819042206E0
2.493685251E1,3.595492363E0,2.340332270E0,-8.826224327E0
2.495703699E1,3.650558949E0,2.385822058E0,-8.821435928E0
2.497722230E1,3.715202570E0,2.402581453E0,-8.902838707E0
2.499740856E1,3.679289579E0,2.448071241E0,-9.125499725E0
2.501759574E1,3.660135746E0,2.512714624E0,-9.137471199E0
2.503778387E1,3.688866377E0,2.505532026E0,-8.948328972E0
2.505797293E1,3.758298159E0,2.455253839E0,-8.876502991E0
2.507816293E1,3.758298159E0,2.419340849E0,-8.878896713E0
2.509835366E1,3.664924145E0,2.397793055E0,-8.831012726E0
2.511854501E1,3.684077978E0,2.407369852E0,-8.797493935E0
2.513873689E1,3.782240152E0,2.409764051E0,-8.804677010E0
2.515892908E1,3.839700937E0,2.431311846E0,-8.644265175E0
2.517912147E1,3.820547342E0,2.352303267E0,-8.720879555E0
2.519932470E1,3.657741547E0,2.160767078E0,-8.519766808E0
2.521950335E1,3.693654776E0,2.215833664E0,-8.596381187E0
2.523968231E1,3.674500942E0,2.172738075E0,-8.842984200E0
2.525986199E1,3.581127167E0,1.988384485E0,-8.924386978E0
2.528004272E1,3.935469151E0,2.177526474E0,-8.888473511E0
2.530022470E1,3.954622746E0,2.500743628E0,-8.866926193E0
2.532040814E1,3.585915565E0,2.594117641E0,-8.785523415E0
2.534059314E1,3.566761971E0,2.601300240E0,-8.893261909E0
2.536077980E1,3.698443174E0,2.472013235E0,-8.921992302E0
2.538096814E1,3.810970545E0,2.191891670E0,-8.819042206E0
2.540115803E1,3.736750364E0,2.076969862E0,-9.003395081E0
2.542134939E1,3.583521366E0,2.148796082E0,-9.120711327E0
2.544154199E1,3.518877983E0,2.079364061E0,-8.943540573E0
2.546173564E1,3.375225782E0,2.170343876E0,-8.546102524E0
2.548193012E1,3.348889589E0,2.187103271E0,-8.574832916E0
2.550212512E1,3.485359192E0,2.211045265E0,-9.101557732E0
2.552232033E1,3.760692358E0,2.373851061E0,-9.127894402E0
2.554251012E1,3.633799553E0,2.381033659E0,-8.905233383E0
2.556270001E1,3.382408381E0,2.223016262E0,-8.821435928E0
2.558290074E1,3.363254786E0,2.223016262E0,-8.902838707E0
2.560308032E1,3.478176594E0,2.369062662E0,-9.115922928E0
2.562326150E1,3.818153143E0,2.574964046E0,-9.127894402E0
2.564344202E1,3.882796526E0,2.754528999E0,-8.816647530E0
2.566362348E1,3.758298159E0,2.618059635E0,-8.787917137E0
2.568380608E1,3.535637379E0,2.292448044E0,-8.831012726E0
2.570399004E1,3.291428804E0,2.160767078E0,-8.869319916E0
2.572417546E1,3.224391222E0,2.017114878E0,-8.852560997E0
2.574436234E1,3.214814425E0,1.962048292E0,-8.842984200E0
2.576455067E1,3.095104218E0,1.911770105E0,-8.763975143E0
2.578474353E1,2.917933226E0,1.938106298E0,-8.821435928E0
2.580496702E1,3.296217203E0,2.211045265E0,-9.218873978E0
2.582515254E1,4.490923882E0,2.926911592E0,-9.515754700E0
2.584533817E1,4.976946831E0,3.072957993E0,-9.360131264E0
2.586552400E1,3.708019972E0,2.225410461E0,-8.589199066E0
2.588571004E1,3.049614429E0,1.909375906E0,-7.957129478E0
2.590589640E1,3.123834610E0,2.017114878E0,-8.471882820E0
2.592608317E1,3.447052002E0,2.189497471E0,-9.118317604E0
2.594627036E1,3.815758944E0,2.275688648E0,-9.489418030E0
2.596645796E1,3.837306738E0,2.309207439E0,-9.405621529E0
2.598664608E1,3.561973572E0,2.294842243E0,-8.984241486E0
2.600683463E1,3.298611403E0,2.230198860E0,-8.790311813E0
2.602702359E1,3.233968019E0,2.270900249E0,-8.969876289E0
2.604721296E1,3.262698412E0,2.366668463E0,-9.041702271E0
2.606740265E1,3.303399801E0,2.400187254E0,-9.144653320E0
2.608759254E1,3.320159197E0,2.431311846E0,-9.261969566E0
2.610778265E1,3.286640406E0,2.376245260E0,-9.197325706E0
2.612797286E1,3.253121614E0,2.234987259E0,-9.024943352E0
2.614815765E1,3.231573820E0,2.160767078E0,-8.780735016E0
2.616834286E1,3.353677988E0,2.153584480E0,-8.668207169E0
2.618852858E1,3.595492363E0,2.165555477E0,-8.634688377E0
2.620871484E1,3.822941542E0,2.196680069E0,-8.615534782E0
2.622890171E1,3.985747337E0,2.266111851E0,-8.632294655E0
2.624908921E1,3.990535736E0,2.263717651E0,-8.680178642E0
2.626927734E1,3.978564739E0,2.297236443E0,-8.763975143E0
2.628946608E1,3.945045948E0,2.306813240E0,-8.826224327E0
2.630965546E1,3.822941542E0,2.311601639E0,-8.929175377E0
2.632984536E1,3.779845953E0,2.340332270E0,-8.998606682E0
2.635003567E1,3.772663355E0,2.290053844E0,-9.072827339E0
2.637022629E1,3.691260576E0,2.251746655E0,-9.008183479E0
2.639041713E1,3.691260576E0,2.246958256E0,-8.878896713E0
2.641060806E1,3.724779367E0,2.167949677E0,-8.749609947E0
2.643080984E1,3.873219728E0,2.280477047E0,-8.752004623E0
2.645098858E1,4.007295132E0,2.304419041E0,-8.677783966E0
2.647116765E1,4.155735493E0,2.383427858E0,-8.718485832E0
2.649134744E1,4.210802078E0,2.373851061E0,-8.713697433E0
2.651152827E1,4.129399300E0,2.378639460E0,-8.740033150E0
2.653171036E1,4.031237125E0,2.371456861E0,-8.763975143E0
2.655189390E1,3.959411144E0,2.340332270E0,-8.814253807E0
2.657207900E1,3.858854532E0,2.323572636E0,-8.862137794E0
2.659226577E1,3.763086557E0,2.321178436E0,-8.878896713E0
2.661245421E1,3.708019972E0,2.376245260E0,-8.852560997E0
2.663264421E1,3.679289579E0,2.448071241E0,-8.840589523E0
2.665283567E1,3.650558949E0,2.462436438E0,-8.828619003E0
2.667302838E1,3.645770550E0,2.436100245E0,-8.795100212E0
2.669322213E1,3.681683779E0,2.416946650E0,-8.842984200E0
2.671341661E1,3.734356165E0,2.409764051E0,-9.029731750E0
2.673361160E1,3.734356165E0,2.404975653E0,-9.046490669E0
2.675380681E1,3.609857559E0,2.294842243E0,-8.732851028E0
2.677400077E1,3.585915565E0,2.155978680E0,-8.752004623E0
2.679418900E1,3.686472178E0,2.084152699E0,-8.672995567E0
2.681437181E1,3.779845953E0,2.088941097E0,-8.586804390E0
2.683455504E1,3.736750364E0,2.218227863E0,-8.603564262E0
2.685473879E1,3.724779367E0,2.318784237E0,-8.661025047E0
2.687492327E1,3.758298159E0,2.268506050E0,-8.665813446E0
2.689510859E1,3.803787947E0,2.232593060E0,-8.699332237E0
2.691529484E1,3.988141537E0,2.400187254E0,-8.871714592E0
2.693548202E1,4.083909512E0,2.397793055E0,-8.850166321E0
2.695567015E1,4.052784920E0,2.594117641E0,-8.986636162E0
2.697585921E1,4.026448727E0,2.505532026E0,-8.888473511E0
2.699604910E1,3.636193752E0,2.397793055E0,-8.732851028E0
2.701623984E1,3.791816950E0,2.239775658E0,-8.742427826E0
2.703643119E1,3.849277735E0,2.199074268E0,-8.941145897E0
2.705662306E1,3.806182146E0,2.146401882E0,-8.881291389E0
2.707681525E1,3.825335741E0,2.093729496E0,-8.716091156E0
2.709700765E1,3.892373323E0,2.055422068E0,-8.735244751E0
2.711721088E1,3.964199543E0,2.060210466E0,-8.735244751E0
2.713738931E1,4.009689331E0,2.165555477E0,-8.663418770E0
2.715756806E1,3.988141537E0,2.249352455E0,-8.668207169E0
2.717774754E1,3.894767523E0,2.306813240E0,-8.910021782E0
2.719792806E1,3.789422750E0,2.349909067E0,-9.053673744E0
2.721810984E1,3.715202570E0,2.349909067E0,-8.950722694E0
2.723829306E1,3.708019972E0,2.335543871E0,-8.814253807E0
2.725847796E1,3.801393747E0,2.299630642E0,-8.797493935E0
2.727869588E1,3.813364744E0,2.232593060E0,-8.838195801E0
2.729889541E1,3.842095137E0,2.187103271E0,-8.900444984E0
2.731908093E1,3.925892353E0,2.129642487E0,-9.194931984E0
2.733926395E1,4.040813923E0,2.175132275E0,-8.804677010E0
2.735944744E1,3.913921118E0,2.206256866E0,-8.237251282E0
2.737963155E1,3.916315317E0,2.175132275E0,-8.330624580E0
2.739981645E1,4.047996521E0,2.194285870E0,-8.833407402E0
2.742000223E1,4.026448727E0,2.146401882E0,-8.996212959E0
2.744018895E1,3.985747337E0,2.132036686E0,-8.902838707E0
2.746037660E1,3.935469151E0,2.179920673E0,-8.876502991E0
2.748056520E1,3.837306738E0,2.256535053E0,-8.845377922E0
2.750075468E1,3.810970545E0,2.311601639E0,-8.857349396E0
2.752094494E1,3.844489336E0,2.323572636E0,-8.907627106E0
2.754113588E1,3.830124140E0,2.273294449E0,-8.826224327E0
2.756132739E1,3.801393747E0,2.206256866E0,-8.732851028E0
2.758151931E1,3.794211149E0,2.141613483E0,-8.766369820E0
2.760171150E1,3.803787947E0,2.151190281E0,-8.792705536E0
2.762190921E1,3.844489336E0,2.234987259E0,-8.799888611E0
2.764210025E1,3.846883535E0,2.256535053E0,-8.742427826E0
2.766227937E1,3.906738520E0,2.268506050E0,-8.716091156E0
2.768245895E1,3.973776340E0,2.275688648E0,-8.768763542E0
2.770263931E1,3.968987942E0,2.275688648E0,-8.752004623E0
2.772282077E1,3.923498154E0,2.254140854E0,-8.749609947E0
2.774300358E1,3.913921118E0,2.249352455E0,-8.773551941E0
2.776318791E1,3.949834347E0,2.232593060E0,-8.828619003E0
2.778337385E1,3.992929935E0,2.218227863E0,-9.017760277E0
2.780356145E1,4.047996521E0,2.242169857E0,-9.058462143E0
2.782375067E1,3.978564739E0,2.309207439E0,-8.960299492E0
2.784394140E1,3.846883535E0,2.292448044E0,-8.945934296E0
2.786413348E1,3.775057554E0,2.282871246E0,-8.957905769E0
2.788432671E1,3.734356165E0,2.215833664E0,-8.831012726E0
2.790452082E1,3.648164749E0,2.151190281E0,-8.689755440E0
2.792471551E1,3.581127167E0,2.158372879E0,-8.704120636E0
2.794491051E1,3.619434357E0,2.282871246E0,-8.704120636E0
2.796510494E1,3.736750364E0,2.373851061E0,-8.670601845E0
2.798529593E1,3.748721361E0,2.361880064E0,-8.632294655E0
2.800548145E1,3.705625772E0,2.275688648E0,-8.641871452E0
2.802566447E1,3.758298159E0,2.211045265E0,-8.689755440E0
2.804584796E1,3.849277735E0,2.203862667E0,-8.766369820E0
2.806603207E1,3.894767523E0,2.194285870E0,-8.802282333E0
2.808621697E1,3.882796526E0,2.170343876E0,-8.874108315E0
2.810640275E1,3.861248732E0,2.117671490E0,-8.945934296E0
2.812658947E1,3.822941542E0,2.045845270E0,-8.900444984E0
2.814677713E1,3.751115561E0,2.055422068E0,-8.929175377E0
2.816696572E1,3.748721361E0,2.132036686E0,-8.921992302E0
2.818715520E1,3.746327162E0,2.213439465E0,-8.833407402E0
2.820734546E1,3.765480757E0,2.270900249E0,-8.802282333E0
2.822753640E1,3.818153143E0,2.318784237E0,-8.804677010E0
2.824772791E1,3.904344320E0,2.292448044E0,-8.840589523E0
2.826794181E1,3.959411144E0,2.208651066E0,-8.730456352E0
2.828811963E1,4.050390720E0,2.203862667E0,-8.617929459E0
2.830829786E1,4.170100689E0,2.187103271E0,-8.577227592E0
2.832847681E1,4.160523891E0,2.232593060E0,-8.696937561E0
2.834865692E1,4.095880508E0,2.275688648E0,-8.742427826E0
2.836883838E1,4.134187698E0,2.304419041E0,-8.737639427E0
2.838902140E1,4.210802078E0,2.270900249E0,-8.775946617E0
2.840920619E1,4.416703701E0,2.201468468E0,-8.945934296E0
2.842939275E1,4.486135483E0,2.364274263E0,-8.850166321E0
2.844958109E1,4.071938515E0,2.433706045E0,-8.742427826E0
2.846977119E1,3.870825529E0,2.266111851E0,-8.625111580E0
2.848996286E1,3.846883535E0,2.086546898E0,-8.694543839E0
2.851015588E1,3.995324135E0,1.906981707E0,-8.790311813E0
2.853035004E1,4.050390720E0,1.801636815E0,-8.732851028E0
2.855054504E1,3.976170540E0,1.978807688E0,-8.787917137E0
2.857074056E1,4.014477730E0,2.237381458E0,-8.931569099E0
2.859093629E1,3.971382141E0,2.369062662E0,-8.998606682E0
2.861113150E1,3.918709517E0,2.385822058E0,-8.957905769E0
2.863131984E1,3.878008127E0,2.345120668E0,-8.883685112E0
2.865150806E1,3.765480757E0,2.242169857E0,-8.819042206E0
2.867170713E1,3.715202570E0,2.055422068E0,-8.807070732E0
2.869188452E1,3.703231573E0,1.839944005E0,-8.589199066E0
2.871206234E1,3.734356165E0,1.717839718E0,-8.495824814E0
2.873224098E1,3.878008127E0,1.820790410E0,-8.299500465E0
2.875242077E1,3.992929935E0,2.337938070E0,-8.189367294E0
2.877260202E1,4.261080265E0,2.852691412E0,-8.462306023E0
2.879278494E1,4.589086056E0,2.907757998E0,-8.888473511E0
2.881296963E1,4.316147327E0,2.519897223E0,-9.211690903E0
2.883315619E1,3.743932962E0,2.134430885E0,-9.295488358E0
2.885334463E1,3.334524393E0,2.014720678E0,-8.699332237E0
2.887353484E1,3.183689594E0,2.124854088E0,-8.479064941E0
2.889372671E1,3.396773577E0,2.330755472E0,-8.795100212E0
2.891392004E1,3.511695385E0,2.388216257E0,-9.024943352E0
2.893411452E1,3.597886562E0,2.311601639E0,-8.974664688E0
2.895430984E1,3.538031578E0,2.258929253E0,-8.902838707E0
2.897450567E1,3.377619982E0,2.208651066E0,-9.113529205E0
2.899470171E1,3.435081005E0,2.203862667E0,-9.209297180E0
2.901489640E1,3.530848980E0,2.404975653E0,-9.147047997E0
2.903508463E1,4.162918091E0,2.835932016E0,-8.823830605E0
2.905526744E1,4.414309502E0,2.948459387E0,-8.893261909E0
2.907545067E1,3.643376350E0,2.531868219E0,-9.173383713E0
2.909563442E1,3.207631826E0,1.942894697E0,-8.838195801E0
2.911581890E1,2.884414434E0,1.782483220E0,-8.593987465E0
2.913600421E1,3.157353401E0,2.155978680E0,-8.646659851E0
2.915619046E1,3.430292368E0,2.464830637E0,-8.986636162E0
2.917637765E1,3.207631826E0,2.646790028E0,-8.874108315E0
2.919656577E1,3.176506996E0,2.481590033E0,-9.070432663E0
2.921675484E1,3.449446201E0,2.261323452E0,-9.307458878E0
2.923694473E1,3.712808371E0,2.175132275E0,-9.020154953E0
2.925713536E1,3.892373323E0,2.055422068E0,-8.792705536E0
2.927734640E1,3.964199543E0,1.950077295E0,-8.644265175E0
2.929752900E1,4.031237125E0,2.050633669E0,-8.476671219E0
2.931771192E1,3.897161722E0,2.345120668E0,-8.562862396E0
2.933789536E1,3.863642931E0,2.433706045E0,-8.778340340E0
2.935807947E1,3.866037130E0,2.402581453E0,-8.929175377E0
2.937826437E1,3.691260576E0,2.488772631E0,-8.962694168E0
2.939845015E1,3.430292368E0,2.713827610E0,-8.737639427E0
2.941863687E1,3.293823004E0,2.821566820E0,-8.629899979E0
2.943882452E1,3.277063608E0,2.905363798E0,-8.878896713E0
2.945901312E1,3.425503969E0,2.783259392E0,-9.130288124E0
2.947920260E1,3.518877983E0,2.586935043E0,-9.182960510E0
2.949939286E1,3.597886562E0,2.419340849E0,-9.111134529E0
2.951958379E1,3.729567766E0,2.172738075E0,-8.989029884E0
2.953977530E1,3.712808371E0,1.995567083E0,-8.960299492E0
2.955996723E1,3.538031578E0,2.038662672E0,-8.862137794E0
2.958015942E1,3.391985178E0,2.345120668E0,-8.787917137E0
2.960035713E1,3.451840401E0,2.479195833E0,-8.859743118E0
2.962054817E1,3.662529945E0,2.620453835E0,-8.780735016E0
2.964072728E1,3.669712543E0,2.574964046E0,-8.898050308E0
2.966090687E1,3.691260576E0,2.409764051E0,-8.941145897E0
2.968108723E1,3.729567766E0,2.287659645E0,-9.130288124E0
2.970126869E1,3.607463360E0,2.139219284E0,-8.933963776E0
2.972145150E1,3.590703964E0,2.081758261E0,-8.802282333E0
2.974163582E1,3.614645958E0,2.122459888E0,-8.924386978E0
2.976182176E1,3.605069160E0,2.170343876E0,-8.871714592E0
2.978200931E1,3.573944569E0,2.184709072E0,-8.838195801E0
2.980219843E1,3.557185173E0,2.230198860E0,-8.924386978E0
2.982238905E1,3.540425777E0,2.232593060E0,-8.962694168E0
2.984258103E1,3.502118587E0,2.230198860E0,-8.974664688E0
2.986278801E1,3.454234600E0,2.242169857E0,-8.957905769E0
2.988299062E1,3.439869404E0,2.270900249E0,-8.955511093E0
2.990317885E1,3.456628799E0,2.340332270E0,-8.993818283E0
2.992336166E1,3.485359192E0,2.378639460E0,-9.048885345E0
2.994354489E1,3.437475204E0,2.407369852E0,-8.957905769E0
2.996372864E1,3.344101191E0,2.404975653E0,-8.864531517E0
2.998391312E1,3.312976599E0,2.383427858E0,-8.869319916E0
3.000409843E1,3.375225782E0,2.364274263E0,-8.912415504E0
3.002428468E1,3.475782394E0,2.378639460E0,-8.967482567E0
3.004447187E1,3.533243179E0,2.397793055E0,-8.989029884E0
3.006465999E1,3.545214176E0,2.400187254E0,-8.972270966E0
3.008484905E1,3.550002575E0,2.395398855E0,-8.936357498E0
3.010503895E1,3.526060581E0,2.385822058E0,-8.871714592E0
3.012522957E1,3.566761971E0,2.383427858E0,-8.845377922E0
3.014542082E1,3.578732967E0,2.393004656E0,-8.852560997E0
3.016561260E1,3.595492363E0,2.376245260E0,-8.881291389E0
3.018580468E1,3.590703964E0,2.369062662E0,-8.910021782E0
3.020599697E1,3.547608376E0,2.359485865E0,-8.907627106E0
3.022620010E1,3.518877983E0,2.337938070E0,-8.907627106E0
3.024637874E1,3.485359192E0,2.345120668E0,-8.917203903E0
3.026655770E1,3.449446201E0,2.369062662E0,-8.967482567E0
3.028673739E1,3.437475204E0,2.361880064E0,-8.967482567E0
3.030691812E1,3.435081005E0,2.345120668E0,-8.965087891E0
3.032710010E1,3.437475204E0,2.316390038E0,-8.957905769E0
3.034728353E1,3.447052002E0,2.292448044E0,-8.965087891E0
3.036747874E1,3.459022999E0,2.287659645E0,-8.950722694E0
3.038767478E1,3.442263603E0,2.299630642E0,-8.950722694E0
3.040787129E1,3.439869404E0,2.313995838E0,-8.955511093E0
3.042806525E1,3.470993996E0,2.337938070E0,-8.957905769E0
3.044825655E1,3.478176594E0,2.323572636E0,-8.945934296E0
3.046844780E1,3.473388195E0,2.321178436E0,-8.912415504E0
3.048863749E1,3.478176594E0,2.340332270E0,-8.907627106E0
3.050883114E1,3.475782394E0,2.349909067E0,-8.917203903E0
3.052901937E1,3.511695385E0,2.357091665E0,-8.931569099E0
3.054919697E1,3.530848980E0,2.381033659E0,-8.953117371E0
3.056937520E1,3.473388195E0,2.424129248E0,-8.914810181E0
3.058955442E1,3.423109770E0,2.412158251E0,-8.883685112E0
3.060973494E1,3.432686806E0,2.349909067E0,-8.859743118E0
3.062991702E1,3.447052002E0,2.278082848E0,-8.862137794E0
3.065010082E1,3.435081005E0,2.246958256E0,-8.936357498E0
3.067028645E1,3.533243179E0,2.385822058E0,-9.192537308E0
3.069047395E1,3.712808371E0,2.455253839E0,-9.326612473E0
3.071066327E1,3.631405354E0,2.673126221E0,-9.223662376E0
3.073085431E1,3.614645958E0,3.015496969E0,-9.647436142E0
3.075104692E1,3.494935989E0,2.914940596E0,-9.369708061E0
3.077124082E1,3.119046211E0,2.828749418E0,-8.780735016E0
3.079143572E1,3.145382404E0,2.725798607E0,-8.910021782E0
3.081163129E1,3.583521366E0,2.287659645E0,-8.890868187E0
3.083182723E1,3.626616955E0,2.321178436E0,-8.529343605E0
3.085204692E1,3.822941542E0,2.433706045E0,-8.347384453E0
3.087221421E1,4.155735493E0,2.002749681E0,-8.280346870E0
3.089238223E1,4.191648483E0,1.547851443E0,-8.435969353E0
3.091255181E1,4.217984676E0,1.607706428E0,-8.610746384E0
3.093272358E1,4.624999046E0,1.535880446E0,-8.605957985E0
3.095289817E1,4.890755653E0,1.413776159E0,-8.383296967E0
3.097307598E1,4.735132217E0,9.540894032E-1,-8.045714378E0
3.099325734E1,4.352060318E0,7.457938194E-1,-8.397662163E0
3.101344234E1,4.409521103E0,6.308721304E-1,-8.941145897E0
3.103363098E1,4.823718071E0,1.078587890E0,-9.384073257E0
3.105382306E1,5.106233597E0,1.744175911E0,-9.101557732E0
3.107401838E1,5.010465622E0,2.323572636E0,-8.627506256E0
3.109421650E1,4.768651009E0,2.665943623E0,-8.337807655E0
3.111441692E1,4.967370033E0,2.282871246E0,-8.471882820E0
3.113461900E1,5.122992992E0,1.555034041E0,-8.598775864E0
3.115482213E1,4.885967255E0,1.480813742E0,-8.143877029E0
3.117502567E1,4.909909248E0,1.691503525E0,-7.722497463E0
3.119522536E1,5.247491360E0,1.763329506E0,-7.918822289E0
3.121541358E1,5.297770023E0,1.950077295E0,-8.344989777E0
3.123559640E1,5.252279758E0,2.227804661E0,-8.412027359E0
3.125577963E1,5.383961201E0,2.220622063E0,-8.239645004E0
3.127596338E1,5.388749599E0,2.187103271E0,-8.361749649E0
3.129614786E1,5.130175591E0,2.278082848E0,-8.639476776E0
3.131633317E1,4.929062843E0,2.179920673E0,-8.732851028E0
3.133651942E1,4.830900669E0,1.782483220E0,-8.696937561E0
3.135670661E1,4.651335239E0,1.344344258E0,-8.488641739E0
3.137689473E1,4.378396511E0,1.095347285E0,-8.263586998E0
3.139708379E1,4.206013680E0,1.042674899E0,-8.172607422E0
3.141727369E1,4.119822502E0,9.923965931E-1,-8.234856606E0
3.143746431E1,4.057573318E0,8.942343593E-1,-8.445546150E0
3.145765556E1,4.148552895E0,6.859387755E-1,-8.620323181E0
3.147784734E1,4.210802078E0,6.165069342E-1,-8.761581421E0
3.149803942E1,4.148552895E0,6.236895323E-1,-8.845377922E0
3.151823171E1,4.134187698E0,6.931213737E-1,-8.984241486E0
3.153843484E1,4.165312290E0,9.157821536E-1,-9.261969566E0
3.155861327E1,4.208407879E0,1.100135684E0,-9.106346130E0
3.157879202E1,4.258686066E0,9.804255962E-1,-8.752004623E0
3.159897150E1,4.158129692E0,8.631097078E-1,-8.560467720E0
3.161915202E1,4.033631325E0,1.006761789E0,-8.632294655E0
3.163933379E1,4.076726913E0,1.298854470E0,-8.756793022E0
3.165951702E1,4.268262863E0,1.552639842E0,-8.735244751E0
3.167970192E1,4.330512524E0,1.856703401E0,-8.804677010E0
3.169988848E1,4.354454517E0,2.268506050E0,-8.783128738E0
3.172007671E1,4.486135483E0,2.100912094E0,-8.900444984E0
3.174026661E1,4.478952885E0,1.823184609E0,-8.854954720E0
3.176045796E1,4.519654274E0,1.725022316E0,-8.507795334E0
3.178065067E1,4.543596268E0,1.789665818E0,-8.340201378E0
3.180084442E1,4.613028049E0,1.799242616E0,-8.462306023E0
3.182103900E1,4.718372822E0,1.720233917E0,-8.531737328E0
3.184123410E1,4.749497414E0,1.708262920E0,-8.565256119E0
3.186144416E1,4.778227806E0,1.717839718E0,-8.677783966E0
3.188161734E1,4.878784657E0,1.653196216E0,-8.696937561E0
3.190179135E1,4.821323872E0,1.550245643E0,-8.531737328E0
3.192196676E1,4.644152641E0,1.454477549E0,-8.325836182E0
3.194214405E1,4.555567265E0,1.411381960E0,-8.225279808E0
3.196232359E1,4.586691856E0,1.416170359E0,-8.294712067E0
3.198250562E1,4.636970043E0,1.480813742E0,-8.512583733E0
3.200269025E1,4.684854031E0,1.586158633E0,-8.649053574E0
3.202287749E1,4.648941040E0,1.638831019E0,-8.752004623E0
3.204306728E1,4.605845451E0,1.559822440E0,-8.795100212E0
3.206325947E1,4.565144062E0,1.447294950E0,-8.692149162E0
3.208345379E1,4.519654274E0,1.363497853E0,-8.543708801E0
3.210364994E1,4.522048473E0,1.310825467E0,-8.514978409E0
3.212384754E1,4.601057053E0,1.291671872E0,-8.677783966E0
3.214404614E1,4.699219227E0,1.260547161E0,-8.811859131E0
3.216424525E1,4.737526417E0,1.171961784E0,-8.773551941E0
3.218444348E1,4.704007626E0,1.128866076E0,-8.613141060E0
3.220463614E1,4.648941040E0,1.248576164E0,-8.481459618E0
3.222482155E1,4.586691856E0,1.432929754E0,-8.481459618E0
3.224500447E1,4.553173065E0,1.495178938E0,-8.565256119E0
3.226518791E1,4.581903458E0,1.535880446E0,-8.689755440E0
3.228537202E1,4.620210648E0,1.653196216E0,-8.728062630E0
3.230555692E1,4.586691856E0,1.760935307E0,-8.730456352E0
3.232574270E1,4.584297657E0,1.782483220E0,-8.732851028E0
3.234592942E1,4.517260075E0,1.765723705E0,-8.615534782E0
3.236611707E1,4.471770287E0,1.705868721E0,-8.500613213E0
3.238630567E1,4.445434093E0,1.665167332E0,-8.543708801E0
3.240649515E1,4.519654274E0,1.679532528E0,-8.637083054E0
3.242668541E1,4.593874454E0,1.736993313E0,-8.665813446E0
3.244687634E1,4.617816448E0,1.772906303E0,-8.653841972E0
3.246706786E1,4.610633850E0,1.789665818E0,-8.582015991E0
3.248725978E1,4.543596268E0,1.804031014E0,-8.421604156E0
3.250745197E1,4.455010891E0,1.806425214E0,-8.431180954E0
3.252764968E1,4.469376087E0,1.806425214E0,-8.601169586E0
3.254784051E1,4.596268654E0,1.880645394E0,-8.675390244E0
3.256801921E1,4.615422249E0,1.993172884E0,-8.653841972E0
3.258819843E1,4.534019470E0,2.031480074E0,-8.644265175E0
3.260837853E1,4.450222492E0,1.952471495E0,-8.646659851E0
3.262855978E1,4.421492100E0,1.823184609E0,-8.567650795E0
3.264874239E1,4.387973309E0,1.739387512E0,-8.555679321E0
3.266892650E1,4.397550106E0,1.722628117E0,-8.639476776E0
3.268911223E1,4.421492100E0,1.751358509E0,-8.687360764E0
3.270929963E1,4.421492100E0,1.770512104E0,-8.696937561E0
3.272948869E1,4.397550106E0,1.741781712E0,-8.677783966E0
3.274967931E1,4.411915302E0,1.720233917E0,-8.651448250E0
3.276987129E1,4.416703701E0,1.744175911E0,-8.639476776E0
3.279006442E1,4.416703701E0,1.756146908E0,-8.634688377E0
3.281025848E1,4.438251495E0,1.751358509E0,-8.613141060E0
3.283045322E1,4.466981888E0,1.768117905E0,-8.577227592E0
3.285067655E1,4.447828293E0,1.796848416E0,-8.579621315E0
3.287087921E1,4.500500679E0,1.792060018E0,-8.589199066E0
3.289100410E1,4.591480255E0,1.729810715E0,-8.603564262E0
3.291113270E1,4.605845451E0,1.660378933E0,-8.610746384E0
3.293126723E1,4.598662853E0,1.634042621E0,-8.558073997E0
3.295140963E1,4.605845451E0,1.619677424E0,-8.512583733E0
3.297156140E1,4.653729439E0,1.602918029E0,-8.486248016E0
3.299172364E1,4.696825027E0,1.626860023E0,-8.534132004E0
3.301189697E1,4.766256809E0,1.681926727E0,-8.503006935E0
3.303208150E1,4.783016682E0,1.748964310E0,-8.522160530E0
3.305227692E1,4.737526417E0,1.768117905E0,-8.529343605E0
3.307248254E1,4.648941040E0,1.744175911E0,-8.531737328E0
3.309269728E1,4.538807869E0,1.681926727E0,-8.550890923E0
3.311291968E1,4.560355663E0,1.543063045E0,-8.555679321E0
3.313314806E1,4.684854031E0,1.265335560E0,-9.391256332E0
3.315338062E1,4.495712280E0,1.035492182E0,-9.048885345E0
3.317361541E1,4.636970043E0,1.526303530E0,-8.900444984E0
3.319384265E1,4.177283287E0,2.258929253E0,-8.115146637E0
3.321404624E1,3.966593742E0,3.132812977E0,-7.993042469E0
3.323423166E1,4.237138271E0,3.175908566E0,-8.708909035E0
3.325441457E1,4.725555420E0,2.620453835E0,-8.692149162E0
3.327459801E1,4.718372822E0,2.088941097E0,-8.483853340E0
3.329478213E1,4.395155907E0,1.739387512E0,-8.457517624E0
3.331496702E1,4.040813923E0,1.583764434E0,-8.629899979E0
3.333515280E1,3.892373323E0,1.595735431E0,-8.874108315E0
3.335533952E1,4.028842926E0,1.753752708E0,-8.895656586E0
3.337552718E1,4.198831081E0,1.954865694E0,-8.953117371E0
3.339571577E1,4.256291866E0,2.069787264E0,-9.015366554E0
3.341590525E1,4.184465885E0,2.110488892E0,-8.840589523E0
3.343609551E1,4.194042683E0,2.091335297E0,-8.811859131E0
3.345628645E1,4.263474464E0,1.976413488E0,-8.771158218E0
3.347647796E1,4.249109268E0,1.818396211E0,-8.582015991E0
3.349666989E1,4.131793499E0,1.753752708E0,-8.421604156E0
3.351686207E1,4.031237125E0,1.933317900E0,-8.522160530E0
3.353705978E1,4.098274708E0,2.191891670E0,-8.555679321E0
3.355725046E1,4.304176331E0,2.424129248E0,-8.639476776E0
3.357742884E1,4.426280499E0,2.491166830E0,-8.742427826E0
3.359760775E1,4.409521103E0,2.383427858E0,-8.716091156E0
3.361778754E1,4.368819714E0,2.239775658E0,-8.632294655E0
3.363796853E1,4.261080265E0,2.120065689E0,-8.500613213E0
3.365815098E1,4.194042683E0,2.012326479E0,-8.438364029E0
3.367833504E1,4.201225281E0,1.940500498E0,-8.510190010E0
3.369852082E1,4.160523891E0,1.849520802E0,-8.512583733E0
3.371870838E1,4.251503468E0,1.830367208E0,-8.383296967E0
3.373889765E1,4.433463097E0,1.849520802E0,-8.313865662E0
3.375908848E1,4.493318081E0,1.902193308E0,-8.579621315E0
3.377928072E1,4.519654274E0,1.940500498E0,-8.914810181E0
3.379947416E1,4.481347084E0,1.880645394E0,-8.967482567E0
3.381966853E1,4.244320869E0,1.679532528E0,-8.670601845E0
3.383986358E1,4.038419724E0,1.454477549E0,-8.445546150E0
3.386005900E1,4.160523891E0,1.514332533E0,-8.421604156E0
3.388025369E1,4.601057053E0,1.727416515E0,-8.584410667E0
3.390044473E1,5.053561211E0,1.758541107E0,-8.728062630E0
3.392063291E1,5.046378613E0,1.705868721E0,-8.675390244E0
3.394081832E1,4.663306236E0,1.655590534E0,-8.558073997E0
3.396100124E1,4.457405090E0,1.751358509E0,-8.476671219E0
3.398118468E1,4.586691856E0,2.043451071E0,-8.536525726E0
3.400136879E1,4.783016682E0,2.330755472E0,-8.687360764E0
3.402155369E1,4.790199280E0,2.311601639E0,-8.728062630E0
3.404173947E1,4.663306236E0,2.074575663E0,-8.526948929E0
3.406192619E1,4.622604847E0,1.945288897E0,-8.471882820E0
3.408211384E1,4.577115059E0,1.974019289E0,-8.627506256E0
3.410230244E1,4.471770287E0,2.055422068E0,-8.625111580E0
3.412249192E1,4.361637115E0,2.175132275E0,-8.519766808E0
3.414268218E1,4.280233860E0,2.246958256E0,-8.546102524E0
3.416287312E1,4.387973309E0,2.105700493E0,-8.632294655E0
3.418306463E1,4.608239651E0,1.808819413E0,-8.435969353E0
3.420325655E1,4.629787445E0,1.684320927E0,-8.268375397E0
3.422344869E1,4.536413670E0,1.732204914E0,-8.419210434E0
3.424364629E1,4.581903458E0,1.849520802E0,-8.560467720E0
3.426383692E1,4.660912037E0,1.909375906E0,-8.553285599E0
3.428401530E1,4.696825027E0,1.772906303E0,-8.438364029E0
3.430419421E1,4.778227806E0,1.631648421E0,-8.435969353E0
3.432437400E1,4.804564476E0,1.672349930E0,-8.555679321E0
3.434455499E1,4.732738018E0,1.713051319E0,-8.586804390E0
3.436473744E1,4.692036629E0,1.626860023E0,-8.562862396E0
3.438492150E1,4.617816448E0,1.595735431E0,-8.584410667E0
3.440510728E1,4.656123638E0,1.674744129E0,-8.584410667E0
3.442529478E1,4.624999046E0,1.837549806E0,-8.572439194E0
3.444548395E1,4.581903458E0,1.974019289E0,-8.577227592E0
3.446567468E1,4.641758442E0,1.997961283E0,-8.531737328E0
3.448586681E1,4.668094635E0,1.976413488E0,-8.476671219E0
3.450606015E1,4.656123638E0,1.964442492E0,-8.469488144E0
3.452625442E1,4.680065632E0,1.902193308E0,-8.474276543E0
3.454644937E1,4.660912037E0,1.827973008E0,-8.498218536E0
3.456664468E1,4.706401825E0,1.734599113E0,-8.514978409E0
3.458683963E1,4.804564476E0,1.677138329E0,-8.510190010E0
3.460703093E1,4.790199280E0,1.655590534E0,-8.495824814E0
3.462721634E1,4.720767021E0,1.710657120E0,-8.491036415E0
3.464739926E1,4.706401825E0,1.818396211E0,-8.512583733E0
3.466758270E1,4.735132217E0,1.878251195E0,-8.536525726E0
3.468776681E1,4.692036629E0,1.875856996E0,-8.531737328E0
3.470795171E1,4.593874454E0,1.868674397E0,-8.517372131E0
3.472813749E1,4.519654274E0,1.854309201E0,-8.505401611E0
3.474832421E1,4.507683277E0,1.832761407E0,-8.498218536E0
3.476851187E1,4.550778866E0,1.818396211E0,-8.529343605E0
3.478870046E1,4.648941040E0,1.816002011E0,-8.548497200E0
3.480888994E1,4.694430828E0,1.823184609E0,-8.574832916E0
3.482908020E1,4.672883034E0,1.842338204E0,-8.593987465E0
3.484927114E1,4.617816448E0,1.854309201E0,-8.570044518E0
3.486946265E1,4.567538261E0,1.863885999E0,-8.526948929E0
3.488965457E1,4.598662853E0,1.861491799E0,-8.510190010E0
3.490984671E1,4.629787445E0,1.875856996E0,-8.505401611E0
3.493004431E1,4.644152641E0,1.861491799E0,-8.512583733E0
3.495023484E1,4.624999046E0,1.827973008E0,-8.498218536E0
3.497041301E1,4.574720860E0,1.806425214E0,-8.481459618E0
3.499059171E1,4.601057053E0,1.789665818E0,-8.498218536E0
3.501077129E1,4.675277233E0,1.794454217E0,-8.546102524E0
3.503095207E1,4.660912037E0,1.854309201E0,-8.548497200E0
3.505113431E1,4.648941040E0,1.935712099E0,-8.558073997E0
3.507131817E1,4.672883034E0,1.906981707E0,-8.538920403E0
3.509150374E1,4.620210648E0,1.835155606E0,-8.500613213E0
3.511169109E1,4.634575844E0,1.811213613E0,-8.510190010E0
3.513188015E1,4.723161221E0,1.835155606E0,-8.548497200E0
3.515207082E1,4.715978622E0,1.859097600E0,-8.553285599E0
3.517226296E1,4.680065632E0,1.890222192E0,-8.503006935E0
3.519245635E1,4.670488834E0,1.959654093E0,-8.536525726E0
3.521265072E1,4.656123638E0,1.952471495E0,-8.555679321E0
3.523284577E1,4.589086056E0,1.926135302E0,-8.524555206E0
3.525304119E1,4.553173065E0,1.868674397E0,-8.464699745E0
3.527323400E1,4.514865875E0,1.835155606E0,-8.467094421E0
3.529342416E1,4.510077477E0,1.878251195E0,-8.479064941E0
3.531361978E1,4.572326660E0,1.935712099E0,-8.512583733E0
3.533380963E1,4.641758442E0,1.938106298E0,-8.555679321E0
3.535398843E1,4.622604847E0,1.930923700E0,-8.546102524E0
3.537416775E1,4.598662853E0,1.933317900E0,-8.519766808E0
3.539434796E1,4.591480255E0,1.940500498E0,-8.519766808E0
3.541452931E1,4.577115059E0,1.954865694E0,-8.500613213E0
3.543471202E1,4.589086056E0,1.966836691E0,-8.498218536E0
3.545489624E1,4.610633850E0,1.988384485E0,-8.546102524E0
3.547508207E1,4.629787445E0,1.985990286E0,-8.548497200E0
3.549526957E1,4.591480255E0,1.954865694E0,-8.503006935E0
3.551545869E1,4.596268654E0,1.947683096E0,-8.481459618E0
3.553564931E1,4.622604847E0,1.945288897E0,-8.507795334E0
3.555584129E1,4.629787445E0,1.928529501E0,-8.529343605E0
3.557603442E1,4.636970043E0,1.899798989E0,-8.512583733E0
3.559622843E1,4.670488834E0,1.921346903E0,-8.517372131E0
3.561642306E1,4.718372822E0,1.947683096E0,-8.529343605E0
3.563661806E1,4.680065632E0,1.976413488E0,-8.459911346E0
3.565681249E1,4.617816448E0,1.926135302E0,-8.421604156E0
3.567700348E1,4.696825027E0,1.899798989E0,-8.433575630E0
3.569719166E1,4.706401825E0,1.902193308E0,-8.459911346E0
3.571737707E1,4.569932461E0,1.837549806E0,-8.457517624E0
3.573755999E1,4.502894878E0,1.756146908E0,-8.423998833E0
3.575774338E1,4.550778866E0,1.674744129E0,-8.522160530E0
3.577792739E1,4.622604847E0,1.646013618E0,-8.646659851E0
3.579811218E1,4.680065632E0,1.653196216E0,-8.632294655E0
3.581829786E1,4.687248230E0,1.667561531E0,-8.565256119E0
3.583848447E1,4.677671432E0,1.677138329E0,-8.572439194E0
3.585867202E1,4.665700436E0,1.715445518E0,-8.589199066E0
3.587886051E1,4.696825027E0,1.801636815E0,-8.605957985E0
3.589904989E1,4.715978622E0,1.921346903E0,-8.596381187E0
3.591924004E1,4.704007626E0,1.985990286E0,-8.579621315E0
3.593943088E1,4.658517838E0,1.971625090E0,-8.519766808E0
3.595962228E1,4.577115059E0,1.930923700E0,-8.445546150E0
3.597981410E1,4.627393246E0,1.926135302E0,-8.440757751E0
3.600000619E1,4.713584423E0,1.993172884E0,-8.500613213E0
3.602020379E1,4.720767021E0,2.041056871E0,-8.529343605E0
3.604039473E1,4.735132217E0,2.000355482E0,-8.443152428E0
3.606057374E1,4.692036629E0,1.947683096E0,-8.388085365E0
3.608075322E1,4.617816448E0,1.921346903E0,-8.416815758E0
3.610093348E1,4.627393246E0,1.897404790E0,-8.457517624E0
3.612111484E1,4.651335239E0,1.887827992E0,-8.495824814E0
3.614129754E1,4.636970043E0,1.895010591E0,-8.526948929E0
3.616148176E1,4.624999046E0,1.883039594E0,-8.522160530E0
3.618166760E1,4.646546841E0,1.883039594E0,-8.488641739E0
3.620185510E1,4.670488834E0,1.883039594E0,-8.488641739E0
3.622204421E1,4.668094635E0,1.887827992E0,-8.493430138E0
3.624223484E1,4.627393246E0,1.899798989E0,-8.498218536E0
3.626242681E1,4.665700436E0,1.911770105E0,-8.512583733E0
3.628261994E1,4.689642429E0,1.909375906E0,-8.507795334E0
3.630281395E1,4.675277233E0,1.904587507E0,-8.510190010E0
3.632300853E1,4.653729439E0,1.923741102E0,-8.493430138E0
3.634320343E1,4.656123638E0,1.969230890E0,-8.517372131E0
3.636339770E1,4.668094635E0,1.974019289E0,-8.510190010E0
3.638358853E1,4.641758442E0,1.971625090E0,-8.491036415E0
3.640377395E1,4.636970043E0,1.947683096E0,-8.479064941E0
3.642395687E1,4.634575844E0,1.928529501E0,-8.486248016E0
3.644414025E1,4.644152641E0,1.906981707E0,-8.488641739E0
3.646432426E1,4.660912037E0,1.933317900E0,-8.507795334E0
3.648450905E1,4.692036629E0,1.969230890E0,-8.495824814E0
3.650469473E1,4.668094635E0,1.957259893E0,-8.474276543E0
3.652488135E1,4.639364243E0,1.921346903E0,-8.440757751E0
3.654506890E1,4.646546841E0,1.914164305E0,-8.414422035E0
3.656525739E1,4.689642429E0,1.926135302E0,-8.447940826E0
3.658544676E1,4.713584423E0,1.954865694E0,-8.479064941E0
3.660563692E1,4.680065632E0,1.957259893E0,-8.471882820E0
3.662582775E1,4.644152641E0,1.940500498E0,-8.486248016E0
3.664601916E1,4.632181644E0,1.933317900E0,-8.495824814E0
3.666621098E1,4.627393246E0,1.942894697E0,-8.510190010E0
3.668640306E1,4.634575844E0,1.964442492E0,-8.500613213E0
3.670660067E1,4.641758442E0,1.952471495E0,-8.471882820E0
3.672679155E1,4.644152641E0,1.938106298E0,-8.459911346E0
3.674697046E1,4.687248230E0,1.938106298E0,-8.471882820E0
3.676714984E1,4.701613426E0,1.945288897E0,-8.486248016E0
3.678732999E1,4.713584423E0,1.964442492E0,-8.486248016E0
3.680751124E1,4.660912037E0,1.954865694E0,-8.462306023E0
3.682769384E1,4.632181644E0,1.945288897E0,-8.476671219E0
3.684787796E1,4.677671432E0,1.966836691E0,-8.503006935E0
3.686806369E1,4.725555420E0,1.978807688E0,-8.517372131E0
3.688825108E1,4.715978622E0,1.933317900E0,-8.498218536E0
3.690844010E1,4.682459831E0,1.878251195E0,-8.440757751E0
3.692863062E1,4.665700436E0,1.851915002E0,-8.447940826E0
3.694882249E1,4.701613426E0,1.839944005E0,-8.481459618E0
3.696901551E1,4.742314816E0,1.863885999E0,-8.488641739E0
3.698920947E1,4.739920616E0,1.928529501E0,-8.459911346E0
3.700940410E1,4.718372822E0,1.978807688E0,-8.459911346E0
3.702959910E1,4.706401825E0,2.002749681E0,-8.481459618E0
3.704979384E1,4.706401825E0,2.017114878E0,-8.474276543E0
3.706998510E1,4.756680012E0,2.005143881E0,-8.433575630E0
3.709017051E1,4.799776077E0,1.964442492E0,-8.491036415E0
3.711035343E1,4.768651009E0,1.713051319E0,-8.304288864E0
3.713053681E1,4.639364243E0,1.717839718E0,-8.321047783E0
3.715072082E1,4.756680012E0,1.875856996E0,-8.641871452E0
3.717090562E1,4.735132217E0,1.825578809E0,-8.596381187E0
3.719109129E1,4.665700436E0,1.693897724E0,-8.416815758E0
3.721127791E1,4.699219227E0,1.677138329E0,-8.440757751E0
3.723146546E1,4.794987679E0,1.720233917E0,-8.457517624E0
3.725165395E1,4.845265865E0,1.902193308E0,-8.469488144E0
3.727184332E1,5.218760967E0,2.031480074E0,-8.254010201E0
3.729203348E1,4.572326660E0,1.610100627E0,-8.210914612E0
3.731222431E1,4.792593479E0,2.088941097E0,-7.791929245E0
3.733241572E1,4.543596268E0,1.586158633E0,-8.349778175E0
3.735260754E1,4.469376087E0,8.942343593E-1,-9.448717117E0
3.737279963E1,3.923498154E0,1.442506552E0,-9.817423820E0
3.739299723E1,5.113416195E0,2.007538080E0,-8.553285599E0
3.741318806E1,5.202001572E0,1.978807688E0,-7.866149902E0
3.743336687E1,4.435857296E0,1.308431268E0,-8.289923668E0
3.745354619E1,4.725555420E0,1.169567585E0,-8.845377922E0
3.747372640E1,4.850054264E0,1.516726732E0,-8.696937561E0
3.749390775E1,4.445434093E0,1.768117905E0,-8.385691643E0
3.751409046E1,4.402338505E0,1.681926727E0,-8.388085365E0
3.753427468E1,4.665700436E0,2.000355482E0,-8.536525726E0
3.755446051E1,4.680065632E0,2.309207439E0,-8.567650795E0
3.757464801E1,4.699219227E0,2.285265446E0,-8.538920403E0
3.759483713E1,4.636970043E0,2.146401882E0,-8.503006935E0
3.761502775E1,4.500500679E0,1.835155606E0,-8.493430138E0
3.763521973E1,4.565144062E0,1.588552833E0,-8.364143372E0
3.765541286E1,4.660912037E0,1.727416515E0,-8.435969353E0
3.767560687E1,4.730343819E0,1.799242616E0,-8.759186745E0
3.769580145E1,4.569932461E0,1.981201887E0,-8.491036415E0
3.771599634E1,4.557961464E0,2.132036686E0,-8.713697433E0
3.773619062E1,4.878784657E0,2.608482838E0,-9.056067467E0
3.775638145E1,4.316147327E0,2.445677042E0,-8.297105789E0
3.777656687E1,4.052784920E0,2.234987259E0,-8.072051048E0
3.779674978E1,4.045602322E0,1.703474522E0,-8.186972618E0
3.781693317E1,4.596268654E0,1.341950059E0,-8.100781441E0
3.783711718E1,4.828506470E0,1.918952703E0,-8.462306023E0
3.785730197E1,4.548384666E0,1.792060018E0,-8.344989777E0
3.787748765E1,4.991312027E0,1.792060018E0,-8.728062630E0
3.789767426E1,5.295375824E0,1.859097600E0,-9.099164009E0
3.791786181E1,4.840477467E0,2.122459888E0,-8.519766808E0
3.793805030E1,4.835689068E0,2.136825085E0,-8.163030624E0
3.795823968E1,4.806958675E0,2.122459888E0,-8.265981674E0
3.797842984E1,4.761468410E0,2.287659645E0,-8.469488144E0
3.799862067E1,4.689642429E0,2.333149672E0,-8.615534782E0
3.801881207E1,4.672883034E0,2.254140854E0,-8.615534782E0
3.803900390E1,4.541202068E0,2.115277290E0,-8.529343605E0
3.805919598E1,4.445434093E0,1.751358509E0,-8.373720169E0
3.807939359E1,4.443039894E0,1.739387512E0,-8.287528992E0
3.809958437E1,4.431068897E0,1.923741102E0,-8.443152428E0
3.811976306E1,4.404732704E0,1.906981707E0,-8.661025047E0
3.813994228E1,4.332906723E0,1.930923700E0,-8.778340340E0
3.816012239E1,4.244320869E0,1.832761407E0,-8.524555206E0
3.818030364E1,4.871602058E0,1.823184609E0,-1.031781197E1
3.820048624E1,4.869207859E0,2.998737574E0,-8.706514359E0
3.822067036E1,4.500500679E0,1.966836691E0,-6.707355976E0
3.824085609E1,3.880402327E0,1.854309201E0,-7.578845501E0
3.826104348E1,4.615422249E0,2.196680069E0,-7.061697960E0
3.828123249E1,4.998494625E0,2.596511841E0,-8.864531517E0
3.830142301E1,3.856460333E0,2.199074268E0,-9.460687637E0
3.832161489E1,4.531625271E0,1.339555860E0,-8.811859131E0
3.834180791E1,4.313753128E0,1.351526856E0,-8.601169586E0
3.836200187E1,4.253897667E0,2.112883091E0,-8.483853340E0
3.838219650E1,4.668094635E0,2.546233416E0,-8.665813446E0
3.840239150E1,5.168482780E0,2.029085875E0,-8.474276543E0
3.842258634E1,4.143764496E0,1.272518158E0,-8.562862396E0
3.844277770E1,4.088697910E0,1.121683478E0,-8.486248016E0
3.846296312E1,4.522048473E0,6.284779310E-1,-8.292317390E0
3.848314603E1,4.639364243E0,-6.284779310E-1,-8.584410667E0
3.850332942E1,4.615422249E0,-1.830367208E0,-8.792705536E0
3.852351343E1,5.063138008E0,-1.765723705E0,-9.774328232E0
3.854369822E1,5.060743809E0,-2.816778183E0,-9.968258858E0
3.856388390E1,4.840477467E0,-3.113659382E0,-9.068038940E0
3.858407051E1,5.192424774E0,-2.093729496E0,-9.010578156E0
3.860425806E1,5.644928932E0,-2.223016262E0,-9.913191795E0
3.862444655E1,5.118204594E0,-3.096899986E0,-9.214085579E0
3.864463593E1,4.888361454E0,-2.596511841E0,-7.617152691E0
3.866482608E1,4.816535473E0,-2.610877037E0,-7.025784969E0
3.868501692E1,4.342483521E0,-3.432088137E0,-6.314706802E0
3.870520832E1,3.035249233E0,-3.456030130E0,-4.329913616E0
3.872540015E1,6.803722858E0,-4.358644009E0,-5.455188751E0
3.874559223E1,1.220264721E1,-6.956353188E0,-8.005013466E0
3.876578984E1,1.303343582E1,-8.493430138E0,-1.098579407E1
3.878598067E1,1.165437508E1,-6.906075001E0,-9.374496460E0
3.880615947E1,1.182675743E1,-4.164713860E0,-8.244433403E0
3.882633879E1,1.243967342E1,-3.027467966E0,-7.056909561E0
3.884651900E1,1.301428223E1,-3.453635931E0,-4.878185749E0
3.886670036E1,1.340453720E1,-2.481590033E0,-1.753752708E0
3.888688306E1,1.445798588E1,-8.978256583E-2,2.026691675E0
3.890706728E1,1.602379417E1,9.947907925E-1,4.765658379E0
3.892725312E1,1.468064594E1,-1.243787766E0,5.419275761E0
3.894744062E1,1.186027622E1,-3.049015760E0,6.882133007E0
3.896762973E1,8.800486565E0,-2.850297213E0,9.132682800E0
3.898782036E1,6.684012413E0,-3.180696964E0,7.818265438E0
3.900801234E1,6.327276707E0,-3.884592295E0,5.955576897E0
3.902820546E1,6.248267651E0,-4.025850296E0,6.879738808E0
3.904839947E1,5.620986938E0,-3.973177671E0,7.669825077E0
3.906859405E1,4.780622005E0,-3.654748917E0,7.176619530E0
3.908878895E1,3.882796526E0,-3.721786499E0,6.678625584E0
3.910898327E1,2.980182648E0,-3.590105534E0,6.690596581E0
3.912917416E1,2.254739523E0,-3.077746391E0,6.353013992E0
3.914935957E1,2.453458309E0,-3.099294186E0,5.543774128E0
3.916954249E1,3.432686806E0,-3.525461912E0,5.227739334E0
3.918972588E1,3.190872431E0,-3.154360771E0,5.728127480E0
3.920990989E1,2.149394512E0,-2.991554976E0,5.699397087E0
3.923009468E1,1.526902080E0,-3.331531763E0,5.673060894E0
3.925028036E1,1.268328309E0,-3.063380957E0,6.051344872E0
3.927046697E1,2.036867142E0,-2.807201385E0,7.995436668E0
3.929065452E1,2.362478495E0,-2.294842243E0,8.665813446E0
3.931084301E1,9.546879530E-1,-1.514332533E0,8.562862396E0
3.933103239E1,7.679402232E-1,-2.153584480E0,8.773551941E0
3.935122254E1,1.289876223E0,-2.673126221E0,7.485471725E0
3.937141338E1,1.926733851E0,-2.869450808E0,7.648277283E0
3.939160478E1,2.010530949E0,-1.514332533E0,7.566874504E0
3.941179660E1,2.726397276E0,-1.520318091E-1,7.971494675E0
3.943198869E1,3.320159197E0,6.380547285E-1,8.464699745E0
3.945218629E1,2.982576847E0,1.155202270E0,8.469488144E0
3.947237713E1,1.938704848E0,1.387439847E0,8.311470985E0
3.949255593E1,2.740762472E0,1.133654475E0,9.233239174E0
3.951273525E1,3.198055029E0,8.343793154E-1,9.767146111E0
3.953291546E1,3.272275209E0,7.649474144E-1,1.032738876E1
3.955309681E1,2.915539026E0,5.734112859E-1,9.599552155E0
3.957327952E1,2.647388458E0,8.535329103E-1,8.878896713E0
3.959346374E1,2.771887064E0,1.224634171E0,8.807070732E0
3.961364957E1,2.712032080E0,1.241393566E0,9.192537308E0
3.963383707E1,2.757521868E0,1.231816769E0,9.319430351E0
3.965402619E1,2.714426279E0,1.066616893E0,8.816647530E0
3.967421681E1,2.556408882E0,1.030703783E0,8.546102524E0
3.969440879E1,2.448669672E0,9.900023937E-1,8.945934296E0
3.971460192E1,2.556408882E0,9.421183467E-1,9.475052834E0
3.973479593E1,2.379237890E0,9.756371975E-1,9.163806915E0
3.975499051E1,2.101510525E0,1.011550188E0,8.735244751E0
3.977518541E1,2.077568531E0,8.343793154E-1,9.012971878E0
3.979537973E1,2.336142302E0,6.643909812E-1,8.529343605E0
3.981557062E1,2.817376852E0,9.636662006E-1,6.700173378E0
3.983575603E1,2.702455282E0,1.049857497E0,1.050216579E1
3.985593895E1,2.309806108E0,7.003039718E-1,1.217810726E1
