"Time (s)","Acceleration x (m/s^2)","Acceleration y (m/s^2)","Acceleration z (m/s^2)"
5.256495700E-2,-7.463962436E-1,9.155313492E0,3.434168816E0
7.283865500E-2,-7.665933371E-1,9.139967918E0,3.470403433E0
9.311178000E-2,-7.753957510E-1,9.105216980E0,3.558673859E0
1.133843840E-1,-7.943071723E-1,9.052658081E0,3.686304808E0
1.336566760E-1,-8.033693433E-1,8.985881805E0,3.844334602E0
1.539286030E-1,-7.781127691E-1,8.903542519E0,4.036318779E0
1.742003210E-1,-7.314617634E-1,8.799848557E0,4.265913963E0
1.944718840E-1,-6.515372992E-1,8.681123734E0,4.514861107E0
2.147431860E-1,-5.311662555E-1,8.542661667E0,4.786563873E0
2.350144360E-1,-4.050951898E-1,8.370642662E0,5.092998505E0
2.552851650E-1,-2.850684226E-1,8.142886162E0,5.457337856E0
2.755580820E-1,-1.933608055E-1,7.803545475E0,5.936133385E0
2.958288110E-1,-1.044645160E-1,7.358777046E0,6.481347561E0
3.160995400E-1,-6.433787197E-2,6.873404026E0,6.994466305E0
3.363702690E-1,-7.682090253E-2,6.387684345E0,7.440563202E0
3.567702690E-1,-1.382993460E-1,5.857676029E0,7.863770962E0
3.769117800E-1,-2.452792525E-1,5.245270252E0,8.282352448E0
3.971825090E-1,-4.131233394E-1,4.622756481E0,8.638856888E0
4.174532380E-1,-6.393162012E-1,4.099896908E0,8.885521889E0
4.377240190E-1,-8.998626471E-1,3.675311327E0,9.047248840E0
4.579947480E-1,-1.103260517E0,3.263254642E0,9.181741714E0
4.782655300E-1,-1.187673926E0,2.779376984E0,9.329248428E0
4.985363110E-1,-1.283511639E0,2.202651024E0,9.469492912E0
5.188070400E-1,-1.453751326E0,1.605767488E0,9.564438820E0
5.390778210E-1,-1.621730924E0,1.045418024E0,9.614961624E0
5.593485510E-1,-1.841301560E0,5.539696217E-1,9.616294861E0
5.796193320E-1,-2.045298100E0,1.606311798E-1,9.589647293E0
5.998901130E-1,-2.202849627E0,-1.007489339E-1,9.555505753E0
6.201608420E-1,-2.383644104E0,-3.236685097E-1,9.507042885E0
6.404316230E-1,-2.547749996E0,-5.047806501E-1,9.456455231E0
6.607023530E-1,-2.672473907E0,-6.159644723E-1,9.415351868E0
6.809731340E-1,-2.775100708E0,-6.861786246E-1,9.380744934E0
7.012439150E-1,-2.805298805E0,-8.116567135E-1,9.361724854E0
7.215146440E-1,-2.841974735E0,-9.161726236E-1,9.340994835E0
7.417854260E-1,-2.947389841E0,-8.549463749E-1,9.314094543E0
7.620562070E-1,-3.172367334E0,-7.359672785E-1,9.250126839E0
7.823269360E-1,-3.469372988E0,-6.400479674E-1,9.150091171E0
8.025977170E-1,-3.776447296E0,-5.219432712E-1,9.035286903E0
8.228684460E-1,-4.117260456E0,-2.617597282E-1,8.896630287E0
8.431392280E-1,-4.402838230E0,4.973052442E-2,8.762586594E0
8.634100090E-1,-4.592386723E0,3.085932732E-1,8.659396172E0
8.836807380E-1,-4.632577896E0,5.858051181E-1,8.623598099E0
9.039515190E-1,-4.581255436E0,9.645930529E-1,8.616963387E0
9.242222480E-1,-4.566032410E0,1.439396143E0,8.558613777E0
9.444930300E-1,-4.513104439E0,1.964791059E0,8.481855392E0
9.647637590E-1,-4.327431679E0,2.460524321E0,8.449233055E0
9.850345400E-1,-4.096645355E0,2.809158802E0,8.455559731E0
1.005305321E0,-3.805547953E0,3.066585541E0,8.502015114E0
1.025576051E0,-3.471143961E0,3.369924784E0,8.530249596E0
1.045846832E0,-3.121442318E0,3.684749842E0,8.535198212E0
1.066246832E0,-2.773204088E0,3.819907904E0,8.595814705E0
1.086388290E0,-2.427528858E0,3.819420099E0,8.699972153E0
1.106659071E0,-2.139814615E0,3.830791473E0,8.770211220E0
1.126929801E0,-1.928396344E0,3.836678505E0,8.816552162E0
1.147200582E0,-1.724217653E0,3.831932068E0,8.860797882E0
1.167600582E0,-1.572391868E0,3.853649855E0,8.879604340E0
1.187742040E0,-1.501445413E0,3.888696432E0,8.876603127E0
1.208012821E0,-1.455557942E0,3.960300446E0,8.852557182E0
1.228283551E0,-1.430910349E0,4.026725292E0,8.826572418E0
1.248554332E0,-1.522738576E0,4.119750977E0,8.768084526E0
1.268954332E0,-1.667520165E0,4.270698547E0,8.668960571E0
1.289095790E0,-1.817513466E0,4.412992954E0,8.566944122E0
1.309366571E0,-2.064211369E0,4.562336922E0,8.431756020E0
1.329637301E0,-2.390970469E0,4.749510288E0,8.239891052E0
1.349908030E0,-2.672816753E0,4.881324768E0,8.074596405E0
1.370308030E0,-2.974431992E0,4.906178474E0,7.953147888E0
1.390449540E0,-3.427392721E0,4.892755985E0,7.777164936E0
1.410720321E0,-3.838210106E0,4.820484161E0,7.628988743E0
1.430991051E0,-4.128906250E0,4.703860760E0,7.549584389E0
1.451261780E0,-4.401890755E0,4.540443420E0,7.495206833E0
1.471661780E0,-4.692291260E0,4.338523865E0,7.438412666E0
1.491803290E0,-4.799591064E0,4.184747696E0,7.458029270E0
1.512074071E0,-4.759688854E0,4.101573467E0,7.529464245E0
1.532344801E0,-4.758040905E0,4.103026390E0,7.529714584E0
1.552615530E0,-4.757201672E0,4.178791523E0,7.488466263E0
1.573015530E0,-4.634542465E0,4.330733776E0,7.479047775E0
1.593157040E0,-4.328156948E0,4.579615116E0,7.514291763E0
1.613427769E0,-3.991836786E0,4.887271881E0,7.506677151E0
1.633698498E0,-3.946044683E0,5.208368301E0,7.312456608E0
1.654047978E0,-4.117427826E0,5.509082317E0,6.990508080E0
1.674397613E0,-4.354016781E0,5.725390911E0,6.665794373E0
1.694668498E0,-4.365108013E0,5.877246380E0,6.524890423E0
1.714781936E0,-4.094477654E0,5.944172382E0,6.638708591E0
1.735052561E0,-3.744823456E0,5.887692928E0,6.890699863E0
1.755313863E0,-3.483256578E0,5.709470272E0,7.172116756E0
1.775590634E0,-3.451119661E0,5.440480232E0,7.393330574E0
1.795861988E0,-3.467928410E0,5.242846489E0,7.527045250E0
1.816133134E0,-3.430758953E0,5.224300385E0,7.556915760E0
1.836404332E0,-3.662715435E0,5.143375397E0,7.503371716E0
1.856675061E0,-4.172055244E0,4.913962841E0,7.390352249E0
1.877075426E0,-4.710523605E0,4.623819828E0,7.252699375E0
1.897217196E0,-5.186638355E0,4.324612617E0,7.111040592E0
1.917488030E0,-5.579830170E0,4.046899319E0,6.975563526E0
1.937759019E0,-5.856214523E0,3.871537209E0,6.847359180E0
1.958029748E0,-6.067132473E0,3.778615475E0,6.714339256E0
1.978429853E0,-6.279788494E0,3.637192726E0,6.595867157E0
1.998571363E0,-6.393754959E0,3.543449163E0,6.537144184E0
2.018842196E0,-6.503849030E0,3.479143143E0,6.462654591E0
2.039112926E0,-6.611898422E0,3.451141119E0,6.367323875E0
2.059520946E0,-6.718487740E0,3.451534033E0,6.254536629E0
2.079803082E0,-6.851281643E0,3.515662193E0,6.072104454E0
2.099918394E0,-6.803103924E0,3.547036171E0,6.107920647E0
2.120190582E0,-6.735447884E0,3.442320824E0,6.241359234E0
2.140462405E0,-6.726000786E0,3.306749344E0,6.324294090E0
2.160733082E0,-6.880024910E0,3.129559040E0,6.248321056E0
2.181134071E0,-6.946108341E0,3.058816433E0,6.210122108E0
2.201276207E0,-6.925230980E0,3.040424585E0,6.242385864E0
2.221547509E0,-6.907185078E0,3.020187616E0,6.272133350E0
2.241818238E0,-6.903951168E0,3.000296354E0,6.285226822E0
2.262091415E0,-6.928122044E0,3.010473728E0,6.253683090E0
2.282362092E0,-7.006927013E0,3.060368061E0,6.140644550E0
2.302632769E0,-7.078341484E0,3.037843227E0,6.069512367E0
2.322903498E0,-7.059319019E0,2.958229780E0,6.130682945E0
2.343174228E0,-6.999147892E0,2.894515514E0,6.229292393E0
2.363444957E0,-6.935685158E0,2.836202621E0,6.326343536E0
2.383715634E0,-6.808678627E0,2.816549540E0,6.471424580E0
2.403986311E0,-6.733917713E0,2.839161396E0,6.539411068E0
2.424257040E0,-6.668791771E0,2.904641628E0,6.577284813E0
2.444527769E0,-6.620512486E0,2.972690344E0,6.595628738E0
2.464798498E0,-6.649129391E0,3.046242714E0,6.532983780E0
2.485069228E0,-6.813345909E0,3.159287930E0,6.306155205E0
2.505339905E0,-7.003319263E0,3.247465849E0,6.047964573E0
2.525610634E0,-7.141563892E0,3.270279884E0,5.871432781E0
2.545881311E0,-7.268899918E0,3.246681929E0,5.726477623E0
2.566281311E0,-7.354387283E0,3.191382647E0,5.647871017E0
2.586422769E0,-7.399907112E0,3.089339495E0,5.645153522E0
2.606693446E0,-7.367943764E0,2.982460260E0,5.743580818E0
2.626964176E0,-7.295684338E0,2.815410137E0,5.917503357E0
2.647234905E0,-7.269142151E0,2.590976477E0,6.051180840E0
2.667634905E0,-7.328573227E0,2.407399654E0,6.055313587E0
2.687776311E0,-7.379852295E0,2.210639238E0,6.068050861E0
2.708047040E0,-7.446723938E0,1.851264238E0,6.106513977E0
2.728317717E0,-7.512354374E0,1.352346301E0,6.156790733E0
2.748588446E0,-7.577813148E0,7.705670595E-1,6.176840782E0
2.768988446E0,-7.571385860E0,3.116589487E-1,6.224738598E0
2.789129853E0,-7.500120163E0,1.169381477E-2,6.318104267E0
2.809400582E0,-7.415732384E0,-3.533059657E-1,6.407220840E0
2.829671311E0,-7.329153538E0,-7.447186112E-1,6.472965717E0
2.849941988E0,-7.225960255E0,-1.096215367E0,6.538668633E0
2.870341988E0,-7.146545887E0,-1.331795692E0,6.582064629E0
2.890483394E0,-7.103722095E0,-1.463074565E0,6.600525856E0
2.910754123E0,-7.062971592E0,-1.566867471E0,6.620404243E0
2.931154123E0,-7.022993088E0,-1.674277425E0,6.636622906E0
2.951453446E0,-7.003326893E0,-1.758508682E0,6.635619164E0
2.971724228E0,-7.008570194E0,-1.795524120E0,6.620152473E0
2.991837613E0,-7.027051449E0,-1.785841465E0,6.603158951E0
3.012108238E0,-7.046371937E0,-1.775155902E0,6.585427761E0
3.032363603E0,-7.069470406E0,-1.771166801E0,6.561702251E0
3.052642665E0,-7.106914997E0,-1.748177290E0,6.527329922E0
3.073044019E0,-7.142072678E0,-1.735167742E0,6.492331505E0
3.093186415E0,-7.167953491E0,-1.713572741E0,6.469505787E0
3.113457926E0,-7.186702728E0,-1.683208108E0,6.456664085E0
3.133729280E0,-7.203438759E0,-1.644361496E0,6.448016644E0
3.154000478E0,-7.222375870E0,-1.595841646E0,6.439019203E0
3.174271623E0,-7.230332375E0,-1.553317547E0,6.440487862E0
3.194542613E0,-7.219759941E0,-1.531156421E0,6.457632542E0
3.214813655E0,-7.204728127E0,-1.532851100E0,6.473997116E0
3.235084540E0,-7.130753040E0,-1.614920259E0,6.535654068E0
3.255355426E0,-6.966170788E0,-1.788884401E0,6.666539669E0
3.275626311E0,-6.919486523E0,-1.832934260E0,6.703092098E0
3.295897040E0,-6.956050396E0,-1.773365378E0,6.681237221E0
3.316167873E0,-6.961700439E0,-1.747931123E0,6.682054520E0
3.336438603E0,-6.958610535E0,-1.753904343E0,6.683708191E0
3.356709332E0,-6.959520340E0,-1.758910418E0,6.681443691E0
3.377109384E0,-6.961392879E0,-1.755069256E0,6.680502892E0
3.397250842E0,-6.964697361E0,-1.756502748E0,6.676681519E0
3.417521623E0,-6.965834618E0,-1.760230660E0,6.674511909E0
3.437792301E0,-6.967454433E0,-1.759297132E0,6.673068523E0
3.458063030E0,-6.963805199E0,-1.758616328E0,6.677054882E0
3.478463082E0,-6.958418846E0,-1.760203004E0,6.682250500E0
3.498604488E0,-6.955273151E0,-1.761175156E0,6.685270309E0
3.518875269E0,-6.948795795E0,-1.763471842E0,6.691396236E0
3.539145946E0,-6.944295406E0,-1.762983799E0,6.696195126E0
3.559416623E0,-6.941545010E0,-1.761185646E0,6.699520111E0
3.579816623E0,-6.939057827E0,-1.760971308E0,6.702152252E0
3.599958082E0,-6.937549114E0,-1.761021614E0,6.703700542E0
3.620228759E0,-6.937701702E0,-1.761281013E0,6.703474522E0
3.640499488E0,-6.938681126E0,-1.762610912E0,6.702111244E0
3.660770217E0,-6.940476894E0,-1.763610244E0,6.699989319E0
3.681170269E0,-6.942670822E0,-1.763587117E0,6.697721481E0
3.701311676E0,-6.944574833E0,-1.763689399E0,6.695720196E0
3.721582405E0,-6.946784019E0,-1.763901591E0,6.693372726E0
3.741853082E0,-6.949079037E0,-1.764330626E0,6.690876484E0
3.762123811E0,-6.950957298E0,-1.765029311E0,6.688740730E0
3.782523811E0,-6.952293396E0,-1.767050028E0,6.686818123E0
3.802665217E0,-6.955893517E0,-1.771946311E0,6.681776524E0
3.822935946E0,-6.958544731E0,-1.776825547E0,6.677719116E0
3.843206676E0,-6.959937096E0,-1.781515241E0,6.675018311E0
3.863614592E0,-6.959473610E0,-1.787071109E0,6.674015999E0
3.883896623E0,-6.957994461E0,-1.792775869E0,6.674028397E0
3.904010009E0,-6.955636501E0,-1.799546361E0,6.674663544E0
3.924438967E0,-6.952427387E0,-1.804631233E0,6.676634789E0
3.944560686E0,-6.948154926E0,-1.807482839E0,6.680309296E0
3.964960686E0,-6.943497658E0,-1.807543159E0,6.685134411E0
3.985102040E0,-6.939160824E0,-1.805364966E0,6.690223694E0
4.005372665E0,-6.935146332E0,-1.804882169E0,6.694514751E0
4.025643290E0,-6.933179855E0,-1.807615042E0,6.695815086E0
4.045913967E0,-6.933243752E0,-1.812809110E0,6.694344521E0
4.066313967E0,-6.934078217E0,-1.820243120E0,6.691462040E0
4.086455373E0,-6.935104847E0,-1.826577187E0,6.688672543E0
4.106726051E0,-6.935924530E0,-1.831145525E0,6.686571121E0
4.126996780E0,-6.937013149E0,-1.834098458E0,6.684631824E0
4.147267457E0,-6.938806534E0,-1.835427046E0,6.682407379E0
4.167667457E0,-6.939863682E0,-1.835109591E0,6.681396484E0
4.187808915E0,-6.940471649E0,-1.834215641E0,6.681010246E0
4.208079592E0,-6.941461563E0,-1.832014322E0,6.680585384E0
4.228350321E0,-6.942799091E0,-1.830750585E0,6.679542065E0
4.248620998E0,-6.943648815E0,-1.830040693E0,6.678853989E0
4.269020998E0,-6.944504261E0,-1.831233501E0,6.677637577E0
4.289162405E0,-6.945153236E0,-1.833827376E0,6.676249981E0
4.309433134E0,-6.945003986E0,-1.837243557E0,6.675465584E0
4.329703863E0,-6.944325447E0,-1.841539264E0,6.674988270E0
4.349974540E0,-6.942879677E0,-1.845567465E0,6.675378799E0
4.370374540E0,-6.940947056E0,-1.848196030E0,6.676660538E0
4.390515998E0,-6.938637733E0,-1.851105690E0,6.678255558E0
4.410786676E0,-6.936218739E0,-1.854117036E0,6.679932594E0
4.431186676E0,-6.934528828E0,-1.855653763E0,6.681261539E0
4.451328134E0,-6.934318066E0,-1.856070638E0,6.681363106E0
4.471728134E0,-6.933994293E0,-1.855900884E0,6.681747913E0
4.491869540E0,-6.933888912E0,-1.855643153E0,6.681927681E0
4.512140269E0,-6.935107231E0,-1.855359435E0,6.680741787E0
4.532410998E0,-6.937132835E0,-1.856403589E0,6.678348064E0
4.552681676E0,-6.938885689E0,-1.858231187E0,6.676020145E0
4.573081676E0,-6.940403461E0,-1.861243248E0,6.673602104E0
4.593223134E0,-6.941441536E0,-1.863698244E0,6.671836376E0
4.613493811E0,-6.942367554E0,-1.865939260E0,6.670246124E0
4.633764540E0,-6.942563057E0,-1.866870284E0,6.669783592E0
4.654153967E0,-6.942524433E0,-1.866033912E0,6.670057297E0
4.674463863E0,-6.942067146E0,-1.863955855E0,6.671113014E0
4.694734696E0,-6.941884041E0,-1.862160921E0,6.671805859E0
4.714848030E0,-6.941879272E0,-1.863243818E0,6.671508312E0
4.735118655E0,-6.943194866E0,-1.865858078E0,6.669407845E0
4.755389228E0,-6.944646835E0,-1.869274735E0,6.666940212E0
4.775659801E0,-6.945979118E0,-1.872183800E0,6.664733410E0
4.795930478E0,-6.946179390E0,-1.874397993E0,6.663904190E0
4.816201155E0,-6.945537090E0,-1.875873685E0,6.664157867E0
4.836471780E0,-6.944524765E0,-1.877158880E0,6.664851189E0
4.856871780E0,-6.943782806E0,-1.877648115E0,6.665486336E0
4.877013134E0,-6.943535328E0,-1.878126144E0,6.665609837E0
4.897283863E0,-6.943446636E0,-1.878210068E0,6.665677547E0
4.917554540E0,-6.943659306E0,-1.877771616E0,6.665579796E0
4.937822665E0,-6.943724155E0,-1.877241850E0,6.665661812E0
4.958094748E0,-6.944333076E0,-1.876837134E0,6.665141582E0
4.978494957E0,-6.944751263E0,-1.877190948E0,6.664604664E0
4.998636571E0,-6.944959641E0,-1.877975225E0,6.664167881E0
5.018907457E0,-6.945285320E0,-1.877292633E0,6.664019585E0
5.039178186E0,-6.945924282E0,-1.876788855E0,6.663496971E0
5.059448915E0,-6.945873260E0,-1.877920508E0,6.663231850E0
5.079849019E0,-6.945446968E0,-1.881828785E0,6.662572384E0
5.099990478E0,-6.944751263E0,-1.888021708E0,6.661545753E0
5.120261207E0,-6.943968296E0,-1.893913627E0,6.660689831E0
5.140531884E0,-6.942443848E0,-1.897300839E0,6.661314964E0
5.160802665E0,-6.940488338E0,-1.896540880E0,6.663568497E0
5.181202717E0,-6.939224720E0,-1.891918898E0,6.666198730E0
5.201344071E0,-6.939587593E0,-1.884301424E0,6.667976856E0
5.221614853E0,-6.942351341E0,-1.874316812E0,6.667914867E0
5.241885530E0,-6.946228981E0,-1.868072391E0,6.665628433E0
5.262156207E0,-6.949884415E0,-1.870385051E0,6.661167622E0
5.282556259E0,-6.953043938E0,-1.880301714E0,6.655076027E0
5.302697665E0,-6.954813004E0,-1.891591191E0,6.650026798E0
5.323097665E0,-6.954561710E0,-1.900338173E0,6.647794247E0
5.343239071E0,-6.952895641E0,-1.906494498E0,6.647774220E0
5.363509748E0,-6.950511456E0,-1.910596371E0,6.649089813E0
5.383909748E0,-6.947516441E0,-1.911181331E0,6.652050018E0
5.404051103E0,-6.946505547E0,-1.909608126E0,6.653558731E0
5.424480165E0,-6.948287487E0,-1.908107042E0,6.652129173E0
5.444592509E0,-6.949738026E0,-1.906631589E0,6.651035786E0
5.464863238E0,-6.950869083E0,-1.905519366E0,6.650173664E0
5.485133915E0,-6.951284409E0,-1.905056357E0,6.649871826E0
5.505404592E0,-6.951940536E0,-1.906294942E0,6.648829937E0
5.525675269E0,-6.953707695E0,-1.909214973E0,6.646144867E0
5.545945946E0,-6.953373432E0,-1.917507648E0,6.644107342E0
5.566345946E0,-6.946165562E0,-1.931486845E0,6.647594929E0
5.586487301E0,-6.938745022E0,-1.935262561E0,6.654245377E0
5.606757978E0,-6.933481693E0,-1.918363690E0,6.664615154E0
5.627028655E0,-6.924175739E0,-1.895738482E0,6.680744171E0
5.647299332E0,-6.924420834E0,-1.883165240E0,6.684046745E0
5.667699332E0,-6.939512253E0,-1.885526896E0,6.667708874E0
5.687840686E0,-6.954708576E0,-1.889016509E0,6.650866032E0
5.708111363E0,-6.963102818E0,-1.884796500E0,6.643277645E0
5.728382040E0,-6.961967468E0,-1.874978781E0,6.647244453E0
5.748652717E0,-6.955939770E0,-1.866002321E0,6.656073570E0
5.769052717E0,-6.950492859E0,-1.862744212E0,6.662674427E0
5.789194071E0,-6.951076508E0,-1.863795042E0,6.661771297E0
5.809464748E0,-6.956991196E0,-1.861279964E0,6.656298161E0
5.829735373E0,-6.959834576E0,-1.853521705E0,6.655489445E0
5.850006051E0,-6.958349705E0,-1.849167109E0,6.658255100E0
5.870406051E0,-6.958129883E0,-1.853663564E0,6.657232285E0
5.890547405E0,-6.960997105E0,-1.861011863E0,6.652184010E0
5.910818030E0,-6.962368488E0,-1.866889119E0,6.649100304E0
5.931218030E0,-6.957971096E0,-1.876688957E0,6.650943756E0
5.951359384E0,-6.949935436E0,-1.897970796E0,6.653306961E0
5.971759384E0,-6.941502571E0,-1.923928261E0,6.654654980E0
5.991900686E0,-6.935014725E0,-1.931477547E0,6.659230232E0
6.012171363E0,-6.923163891E0,-1.909953237E0,6.677744389E0
6.032441988E0,-6.903475285E0,-1.886269331E0,6.704803944E0
6.052712665E0,-6.894938469E0,-1.880162954E0,6.715295315E0
6.073112665E0,-6.907178402E0,-1.882924914E0,6.701930523E0
6.093253967E0,-6.928170204E0,-1.884753466E0,6.679710865E0
6.113524644E0,-6.949294567E0,-1.874979854E0,6.660490513E0
6.133795269E0,-6.966522217E0,-1.844047546E0,6.651123524E0
6.154195269E0,-6.966876507E0,-1.835904360E0,6.653004169E0
6.174494488E0,-6.966216087E0,-1.828527927E0,6.655727386E0
6.194765217E0,-6.966525555E0,-1.825948954E0,6.656111240E0
6.215035998E0,-6.968916893E0,-1.827076197E0,6.653298378E0
6.235149228E0,-6.973087788E0,-1.829169750E0,6.648349762E0
6.255419748E0,-6.975014687E0,-1.832661748E0,6.645366192E0
6.275690269E0,-6.976820469E0,-1.840859175E0,6.641204834E0
6.295960842E0,-6.982699871E0,-1.852104425E0,6.631891727E0
6.316231363E0,-6.988412380E0,-1.858686328E0,6.624029636E0
6.336501936E0,-6.986822128E0,-1.857677460E0,6.625989437E0
6.356772509E0,-6.977324009E0,-1.852546334E0,6.637425423E0
6.377043134E0,-6.964268684E0,-1.847218513E0,6.652604103E0
6.397313759E0,-6.953601837E0,-1.842184663E0,6.665145874E0
6.417584384E0,-6.946402550E0,-1.836545706E0,6.674202442E0
6.437852144E0,-6.939600468E0,-1.830127835E0,6.683036804E0
6.458124384E0,-6.932942390E0,-1.823979020E0,6.691621304E0
6.478524644E0,-6.929296017E0,-1.819394827E0,6.696644783E0
6.498666103E0,-6.929592609E0,-1.817524910E0,6.696845531E0
6.518936832E0,-6.932679176E0,-1.819331765E0,6.693159580E0
6.539207509E0,-6.937283993E0,-1.823587894E0,6.687225819E0
6.559615582E0,-6.942514420E0,-1.828987002E0,6.680321693E0
6.579897613E0,-6.947661877E0,-1.833970189E0,6.673598766E0
6.600012821E0,-6.950657368E0,-1.842444062E0,6.668143749E0
6.620284905E0,-6.952688217E0,-1.849855781E0,6.663973808E0
6.640556676E0,-6.954110622E0,-1.856102109E0,6.660752773E0
6.660827196E0,-6.953886509E0,-1.861059666E0,6.659601688E0
6.681228186E0,-6.953103065E0,-1.863412499E0,6.659762383E0
6.701370165E0,-6.951802254E0,-1.864347577E0,6.660858631E0
6.721641363E0,-6.950314045E0,-1.862906575E0,6.662814140E0
6.741912457E0,-6.947783470E0,-1.859588385E0,6.666379929E0
6.762183030E0,-6.945568562E0,-1.855307460E0,6.669879913E0
6.782583394E0,-6.944168568E0,-1.851438880E0,6.672412395E0
6.802725009E0,-6.943951607E0,-1.848809361E0,6.673367023E0
6.822995894E0,-6.943565845E0,-1.847144246E0,6.674228668E0
6.843266676E0,-6.942609787E0,-1.845849276E0,6.675581932E0
6.863537301E0,-6.941470146E0,-1.846008539E0,6.676722527E0
6.883939436E0,-6.940536022E0,-1.846826196E0,6.677467823E0
6.904119957E0,-6.940544128E0,-1.849224091E0,6.676795483E0
6.924509488E0,-6.941128254E0,-1.853315711E0,6.675055027E0
6.944620530E0,-6.941711426E0,-1.858240128E0,6.673078060E0
6.964891155E0,-6.941162109E0,-1.863049865E0,6.672308445E0
6.985161728E0,-6.939681530E0,-1.867846012E0,6.672508240E0
7.005432353E0,-6.937743664E0,-1.870542884E0,6.673767090E0
7.025702978E0,-6.935802937E0,-1.871546149E0,6.675502300E0
7.045973551E0,-6.934181213E0,-1.870638251E0,6.677442551E0
7.066373551E0,-6.933222771E0,-1.869758010E0,6.678684235E0
7.086514748E0,-6.933252811E0,-1.869632721E0,6.678687572E0
7.106785373E0,-6.933978081E0,-1.869354010E0,6.678012371E0
7.127055998E0,-6.934216022E0,-1.868763208E0,6.677930832E0
7.147405269E0,-6.933888912E0,-1.868082047E0,6.678462029E0
7.167754801E0,-6.933933258E0,-1.867134571E0,6.678679943E0
7.187868030E0,-6.934179306E0,-1.867410660E0,6.678348064E0
7.208138603E0,-6.934956074E0,-1.868106961E0,6.677346706E0
7.228409123E0,-6.935355663E0,-1.868746161E0,6.676752567E0
7.248679696E0,-6.934734821E0,-1.869940519E0,6.677061558E0
7.269079696E0,-6.933871269E0,-1.870947599E0,6.677676678E0
7.289220894E0,-6.933509350E0,-1.872200847E0,6.677701950E0
7.309491467E0,-6.933793068E0,-1.873547196E0,6.677029133E0
7.329761988E0,-6.933975220E0,-1.874691367E0,6.676518917E0
7.350032613E0,-6.933847427E0,-1.875408411E0,6.676451206E0
7.370432613E0,-6.933069706E0,-1.875041723E0,6.677360058E0
7.390573811E0,-6.932242393E0,-1.874853253E0,6.678272724E0
7.410844384E0,-6.932013512E0,-1.874835730E0,6.678514957E0
7.431114957E0,-6.932163715E0,-1.875591636E0,6.678147316E0
7.451514957E0,-6.932023048E0,-1.875304222E0,6.678374290E0
7.471814071E0,-6.931901455E0,-1.874150753E0,6.678823471E0
7.491927301E0,-6.931189537E0,-1.872894883E0,6.679914951E0
7.512197821E0,-6.930870056E0,-1.873318672E0,6.680127621E0
7.532468290E0,-6.931541920E0,-1.875498772E0,6.678818226E0
7.552738811E0,-6.932997704E0,-1.878106475E0,6.676574707E0
7.573138811E0,-6.933680534E0,-1.879606843E0,6.675442219E0
7.593279853E0,-6.933053017E0,-1.880153656E0,6.675940990E0
7.613550373E0,-6.932485580E0,-1.879836440E0,6.676619053E0
7.633820946E0,-6.932256222E0,-1.879562259E0,6.676933765E0
7.654086988E0,-6.932428837E0,-1.879538298E0,6.676761627E0
7.674360530E0,-6.932663918E0,-1.879441023E0,6.676545143E0
7.694631415E0,-6.932720661E0,-1.878615975E0,6.676717758E0
7.714902248E0,-6.932525635E0,-1.877585649E0,6.677211761E0
7.735172978E0,-6.932892323E0,-1.877293468E0,6.676912308E0
7.755443759E0,-6.933428764E0,-1.877314329E0,6.676349640E0
7.775718446E0,-6.933881760E0,-1.877430916E0,6.675846100E0
7.796023707E0,-6.934160233E0,-1.877735853E0,6.675470829E0
7.816255165E0,-6.933855057E0,-1.878974676E0,6.675438881E0
7.836525998E0,-6.933775902E0,-1.880007029E0,6.675231934E0
7.856796571E0,-6.933709621E0,-1.880305290E0,6.675216198E0
7.877196728E0,-6.933187008E0,-1.880929708E0,6.675583839E0
7.897337978E0,-6.932598114E0,-1.880957007E0,6.676186085E0
7.917608655E0,-6.931853294E0,-1.880748868E0,6.677018166E0
7.937879332E0,-6.931891441E0,-1.880947590E0,6.676923752E0
7.958149905E0,-6.931884766E0,-1.881132722E0,6.676877022E0
7.978578811E0,-6.931817055E0,-1.881505728E0,6.676843643E0
8.024012248E0,-6.930861950E0,-1.882000208E0,6.677694798E0
8.044231519E0,-6.930670738E0,-1.882049084E0,6.677879810E0
8.064492926E0,-6.930623531E0,-1.882235289E0,6.677875996E0
8.084773967E0,-6.930578232E0,-1.882694244E0,6.677793980E0
8.105044332E0,-6.930751801E0,-1.882848144E0,6.677569866E0
8.125314905E0,-6.930920124E0,-1.882997274E0,6.677353859E0
8.145585478E0,-6.931362152E0,-1.883280516E0,6.676815510E0
8.165985478E0,-6.931049824E0,-1.883571982E0,6.677057743E0
8.186126623E0,-6.930929661E0,-1.883457422E0,6.677213669E0
8.206397196E0,-6.930635452E0,-1.883599401E0,6.677479744E0
8.226667769E0,-6.930457115E0,-1.884645581E0,6.677369595E0
8.246938394E0,-6.930438995E0,-1.885648608E0,6.677104473E0
8.267208967E0,-6.930326462E0,-1.885351419E0,6.677305222E0
8.287479540E0,-6.930259228E0,-1.884329915E0,6.677663803E0
8.307750113E0,-6.930052757E0,-1.883324504E0,6.678162575E0
8.328020686E0,-6.930226326E0,-1.883381367E0,6.677966118E0
8.348291207E0,-6.930272102E0,-1.884163022E0,6.677698135E0
8.368561832E0,-6.930346489E0,-1.884776592E0,6.677446365E0
8.388832457E0,-6.930053234E0,-1.884985685E0,6.677692890E0
8.409103030E0,-6.929721355E0,-1.884612918E0,6.678141594E0
8.429373603E0,-6.929749966E0,-1.884488225E0,6.678147793E0
8.449644176E0,-6.929513454E0,-1.884364367E0,6.678427219E0
8.469914748E0,-6.928968906E0,-1.884548903E0,6.678941727E0
8.490185321E0,-6.928808689E0,-1.884899855E0,6.679007530E0
8.510455946E0,-6.928392887E0,-1.885429144E0,6.679290771E0
8.530726519E0,-6.928020954E0,-1.885481000E0,6.679661274E0
8.550997040E0,-6.927839756E0,-1.885764360E0,6.679769039E0
8.571397040E0,-6.927992344E0,-1.885959268E0,6.679555893E0
8.591538238E0,-6.928151131E0,-1.885631442E0,6.679483414E0
8.611808811E0,-6.928063869E0,-1.885240197E0,6.679685116E0
8.632079384E0,-6.928054333E0,-1.885342002E0,6.679666042E0
8.652349957E0,-6.927869797E0,-1.885552526E0,6.679798126E0
8.672749957E0,-6.927686214E0,-1.885848165E0,6.679904461E0
8.693049019E0,-6.927576542E0,-1.885951161E0,6.679988861E0
8.713162301E0,-6.927635670E0,-1.885991335E0,6.679916382E0
8.733432769E0,-6.927479267E0,-1.886342287E0,6.679979801E0
8.753703238E0,-6.927237988E0,-1.886298656E0,6.680242538E0
8.774103238E0,-6.927234173E0,-1.886458635E0,6.680201054E0
8.794244280E0,-6.926900387E0,-1.886726499E0,6.680471897E0
8.814514801E0,-6.926573753E0,-1.887027621E0,6.680725574E0
8.834785321E0,-6.926528931E0,-1.887504220E0,6.680637836E0
8.855055842E0,-6.926514626E0,-1.887476444E0,6.680659771E0
8.875455842E0,-6.926124096E0,-1.887480617E0,6.681062222E0
8.895596988E0,-6.926131248E0,-1.887535453E0,6.681040764E0
8.915867561E0,-6.926542759E0,-1.887650967E0,6.680581570E0
8.936138186E0,-6.926841259E0,-1.887368560E0,6.680352688E0
8.956408707E0,-6.926618576E0,-1.886521935E0,6.680820942E0
8.976808707E0,-6.926681995E0,-1.885992646E0,6.680904865E0
8.996949853E0,-6.927301407E0,-1.886378646E0,6.680152893E0
9.017220426E0,-6.927874088E0,-1.887802005E0,6.679158211E0
9.037490998E0,-6.928477287E0,-1.889327288E0,6.678102016E0
9.057761519E0,-6.928321838E0,-1.890287161E0,6.677991390E0
9.078161519E0,-6.928002357E0,-1.890223026E0,6.678340435E0
9.098302665E0,-6.927264214E0,-1.889986634E0,6.679172516E0
9.118573238E0,-6.926647186E0,-1.889780283E0,6.679871082E0
9.138843811E0,-6.926125526E0,-1.888852119E0,6.680674076E0
9.159243811E0,-6.925758362E0,-1.888165832E0,6.681250095E0
9.179542926E0,-6.925207138E0,-1.887797475E0,6.681924820E0
9.199577613E0,-6.924969196E0,-1.888084888E0,6.682089806E0
9.219977613E0,-6.925423622E0,-1.889657259E0,6.681174278E0
9.240197353E0,-6.926217556E0,-1.890753031E0,6.680041313E0
9.260467665E0,-6.926627636E0,-1.891296506E0,6.679462433E0
9.280738238E0,-6.926739693E0,-1.890582681E0,6.679547787E0
9.301008759E0,-6.926518440E0,-1.889596343E0,6.680057049E0
9.321279228E0,-6.926065922E0,-1.889381528E0,6.680585861E0
9.341549801E0,-6.925832748E0,-1.889758706E0,6.680721283E0
9.361820321E0,-6.926116943E0,-1.889926672E0,6.680379391E0
9.382090894E0,-6.926565170E0,-1.890297413E0,6.679809570E0
9.402361467E0,-6.926647186E0,-1.890591979E0,6.679641724E0
9.422632040E0,-6.926323891E0,-1.890637636E0,6.679963112E0
9.442902561E0,-6.925716400E0,-1.890692711E0,6.680577278E0
9.463173186E0,-6.924997330E0,-1.890689731E0,6.681324005E0
9.483443759E0,-6.924681664E0,-1.890760899E0,6.681631088E0
9.503714332E0,-6.924438477E0,-1.890421391E0,6.681979179E0
9.523984853E0,-6.924031734E0,-1.891092420E0,6.682211399E0
9.544255426E0,-6.923770905E0,-1.892353415E0,6.682123184E0
9.564525998E0,-6.923363686E0,-1.894268870E0,6.682002544E0
9.584796571E0,-6.923322201E0,-1.895066500E0,6.681820869E0
9.605067144E0,-6.923583508E0,-1.894522309E0,6.681704044E0
9.625337717E0,-6.923872948E0,-1.895061851E0,6.681250095E0
9.645608342E0,-6.924735069E0,-1.898568630E0,6.679359913E0
9.665878915E0,-6.926449776E0,-1.904413462E0,6.675919056E0
9.686149488E0,-6.928332806E0,-1.909763932E0,6.672435760E0
9.706420061E0,-6.929471970E0,-1.911952734E0,6.670624733E0
9.726690634E0,-6.928122044E0,-1.911546826E0,6.672144890E0
9.746961207E0,-6.924915791E0,-1.910075188E0,6.675891876E0
9.767231780E0,-6.921530724E0,-1.908749700E0,6.679779530E0
9.787502353E0,-6.919182301E0,-1.907708764E0,6.682511330E0
9.807772978E0,-6.917925835E0,-1.907394290E0,6.683900833E0
9.828043498E0,-6.917347908E0,-1.906933427E0,6.684630871E0
9.848314071E0,-6.917397976E0,-1.906867146E0,6.684599400E0
9.868584696E0,-6.917367935E0,-1.907160997E0,6.684545517E0
9.888855269E0,-6.917377949E0,-1.907877684E0,6.684330940E0
9.909125842E0,-6.917928219E0,-1.909179926E0,6.683388710E0
9.929396415E0,-6.918145180E0,-1.910368323E0,6.682825089E0
9.949666988E0,-6.918218613E0,-1.911202431E0,6.682509422E0
9.969937561E0,-6.918923378E0,-1.911424875E0,6.681717396E0
9.990208134E0,-6.919260025E0,-1.910465121E0,6.681643486E0
1.001047876E1,-6.919340611E0,-1.909369349E0,6.681873322E0
1.003074933E1,-6.919889927E0,-1.908317804E0,6.681604862E0
1.005101990E1,-6.920324326E0,-1.907551527E0,6.681372166E0
1.007141990E1,-6.920597553E0,-1.907221437E0,6.681184769E0
1.009156105E1,-6.920714855E0,-1.907366753E0,6.681020737E0
1.011183162E1,-6.920645237E0,-1.907557011E0,6.681039810E0
1.013210220E1,-6.920430183E0,-1.907826900E0,6.681184769E0
1.015237277E1,-6.919617176E0,-1.908077121E0,6.681955338E0
1.017277277E1,-6.918732166E0,-1.908290625E0,6.682810307E0
1.019291392E1,-6.917438507E0,-1.908280134E0,6.684152603E0
1.021318449E1,-6.916543007E0,-1.908969760E0,6.684882164E0
1.023345506E1,-6.915189743E0,-1.909915924E0,6.686012268E0
1.025372563E1,-6.914430141E0,-1.910600543E0,6.686602592E0
1.027412563E1,-6.914258480E0,-1.910815239E0,6.686718464E0
1.029426678E1,-6.913661957E0,-1.910483718E0,6.687429428E0
1.031453735E1,-6.912609100E0,-1.910331011E0,6.688561916E0
1.033480793E1,-6.912043095E0,-1.911076903E0,6.688933372E0
1.035507850E1,-6.912367344E0,-1.912111163E0,6.688302994E0
1.037547850E1,-6.913110733E0,-1.911608338E0,6.687677383E0
1.039561959E1,-6.913628578E0,-1.910077572E0,6.687579632E0
1.041589016E1,-6.914195538E0,-1.907846928E0,6.687630653E0
1.043616074E1,-6.914412022E0,-1.905946612E0,6.687948227E0
1.045643131E1,-6.914619446E0,-1.905085683E0,6.687979698E0
1.047683131E1,-6.914880276E0,-1.905597925E0,6.687565327E0
1.049697246E1,-6.914914608E0,-1.906485081E0,6.687275410E0
1.051724298E1,-6.914513111E0,-1.907592654E0,6.687374115E0
1.053751355E1,-6.914084435E0,-1.908586264E0,6.687534809E0
1.055778412E1,-6.913785934E0,-1.908186078E0,6.687956810E0
1.057818412E1,-6.913097382E0,-1.907865524E0,6.688761234E0
1.059832527E1,-6.912202358E0,-1.908180714E0,6.689595699E0
1.061872527E1,-6.911247730E0,-1.908811212E0,6.690402508E0
1.063882688E1,-6.911012173E0,-1.909217000E0,6.690529823E0
1.065922688E1,-6.911255360E0,-1.908883691E0,6.690373898E0
1.067956543E1,-6.911527634E0,-1.908477783E0,6.690207958E0
1.069963938E1,-6.911742687E0,-1.908121228E0,6.690089226E0
1.071994897E1,-6.911483288E0,-1.907875419E0,6.690424919E0
1.074021949E1,-6.910809994E0,-1.907399893E0,6.691257000E0
1.076048996E1,-6.910431385E0,-1.907166004E0,6.691715717E0
1.078076043E1,-6.910007954E0,-1.907518029E0,6.692050934E0
1.080103095E1,-6.909503460E0,-1.908070803E0,6.692415237E0
1.082130152E1,-6.909325600E0,-1.908766747E0,6.692400455E0
1.084157204E1,-6.909305096E0,-1.909951091E0,6.692083359E0
1.086184261E1,-6.909294605E0,-1.910184145E0,6.692028522E0
1.088211308E1,-6.909113407E0,-1.910207987E0,6.692207813E0
1.090238366E1,-6.909168720E0,-1.909423828E0,6.692374229E0
1.092265418E1,-6.909222126E0,-1.908636093E0,6.692544937E0
1.094292475E1,-6.909590721E0,-1.908042073E0,6.692332745E0
1.096319522E1,-6.909871101E0,-1.907713175E0,6.692136288E0
1.098346579E1,-6.909873486E0,-1.906979799E0,6.692343235E0
1.100373631E1,-6.909790993E0,-1.906455398E0,6.692577839E0
1.102400688E1,-6.909674644E0,-1.906955600E0,6.692554951E0
1.104427740E1,-6.909868240E0,-1.908033013E0,6.692049026E0
1.106454793E1,-6.910417557E0,-1.908602595E0,6.691319466E0
1.108481850E1,-6.910540104E0,-1.908488035E0,6.691225529E0
1.110508902E1,-6.910543442E0,-1.907654405E0,6.691459179E0
1.112535959E1,-6.910285950E0,-1.906877875E0,6.691946507E0
1.114563011E1,-6.909747124E0,-1.906652927E0,6.692567825E0
1.116590063E1,-6.909692287E0,-1.907065868E0,6.692505836E0
1.118617116E1,-6.909556389E0,-1.907701969E0,6.692465782E0
1.120644173E1,-6.909114838E0,-1.908025622E0,6.692828178E0
1.122671225E1,-6.908437729E0,-1.908183932E0,6.693482876E0
1.124698277E1,-6.908258438E0,-1.908171535E0,6.693670750E0
1.126725334E1,-6.907791138E0,-1.908337355E0,6.694106579E0
1.128752386E1,-6.907052994E0,-1.908369184E0,6.694858551E0
1.130779438E1,-6.906968117E0,-1.908397198E0,6.694938183E0
1.132806491E1,-6.907010555E0,-1.908676505E0,6.694815159E0
1.134833543E1,-6.906967163E0,-1.908430219E0,6.694930077E0
1.136860595E1,-6.907353878E0,-1.907409310E0,6.694822311E0
1.138887652E1,-6.907823563E0,-1.906869292E0,6.694490910E0
1.140914704E1,-6.907607079E0,-1.906714082E0,6.694758415E0
1.142941756E1,-6.907741547E0,-1.906794548E0,6.694596767E0
1.144968808E1,-6.907905102E0,-1.906813860E0,6.694422722E0
1.146995860E1,-6.907568455E0,-1.906978488E0,6.694723606E0
1.149022912E1,-6.907192707E0,-1.907425880E0,6.694984436E0
1.151049964E1,-6.906908512E0,-1.907450318E0,6.695270538E0
1.153077022E1,-6.906530857E0,-1.907898784E0,6.695531845E0
1.155104069E1,-6.906499386E0,-1.907970905E0,6.695543289E0
1.157144069E1,-6.906159878E0,-1.907426953E0,6.696049213E0
1.159158173E1,-6.905653000E0,-1.907368541E0,6.696588039E0
1.161185225E1,-6.905619144E0,-1.906650424E0,6.696826935E0
1.163212272E1,-6.905270576E0,-1.906327248E0,6.697278023E0
1.165239329E1,-6.905034065E0,-1.906279206E0,6.697536469E0
1.167279329E1,-6.904827118E0,-1.906465173E0,6.697695732E0
1.169293433E1,-6.904763222E0,-1.906798244E0,6.697667122E0
1.171320485E1,-6.905031204E0,-1.906791687E0,6.697393417E0
1.173347537E1,-6.904981613E0,-1.906343699E0,6.697571278E0
1.175374589E1,-6.904927731E0,-1.906473398E0,6.697591305E0
1.177414589E1,-6.904876709E0,-1.907205462E0,6.697434425E0
1.179428688E1,-6.905155182E0,-1.908022761E0,6.696915150E0
1.181455740E1,-6.905177116E0,-1.907774806E0,6.696962833E0
1.183482793E1,-6.905488491E0,-1.906343699E0,6.697050095E0
1.185509845E1,-6.905714035E0,-1.904885888E0,6.697230816E0
1.187549845E1,-6.905252934E0,-1.904573679E0,6.697796822E0
1.189563944E1,-6.904972553E0,-1.905234456E0,6.697896004E0
1.191590996E1,-6.904721737E0,-1.905825734E0,6.697987556E0
1.193618043E1,-6.904600143E0,-1.906627417E0,6.697884083E0
1.195645095E1,-6.904057503E0,-1.906498313E0,6.698480129E0
1.197685095E1,-6.903285027E0,-1.906351686E0,6.699318409E0
1.199699194E1,-6.903162003E0,-1.906414747E0,6.699426174E0
1.201739194E1,-6.902812958E0,-1.906559706E0,6.699745178E0
1.203753293E1,-6.902757168E0,-1.906112909E0,6.699930191E0
1.205780345E1,-6.902731895E0,-1.906161189E0,6.699943066E0
1.207820345E1,-6.902657509E0,-1.905558228E0,6.700191021E0
1.209834444E1,-6.902911663E0,-1.904492736E0,6.700231075E0
1.211861491E1,-6.903516769E0,-1.904394627E0,6.699636936E0
1.213888543E1,-6.904058456E0,-1.904137373E0,6.699150085E0
1.215928543E1,-6.904545307E0,-1.904204965E0,6.698630333E0
1.217958433E1,-6.904402256E0,-1.904711246E0,6.698634148E0
1.219969751E1,-6.904191971E0,-1.904611349E0,6.698879242E0
1.222009751E1,-6.903772831E0,-1.904478788E0,6.699348450E0
1.224023834E1,-6.903675079E0,-1.904374599E0,6.699478626E0
1.226050871E1,-6.903431892E0,-1.904479742E0,6.699700356E0
1.228077912E1,-6.903312206E0,-1.904598475E0,6.699788570E0
1.230104954E1,-6.902908802E0,-1.904868722E0,6.700128555E0
1.232131996E1,-6.902640343E0,-1.905120373E0,6.700333595E0
1.234159043E1,-6.902318001E0,-1.904663920E0,6.700793743E0
1.236186089E1,-6.901804924E0,-1.904124618E0,6.701477051E0
1.238213136E1,-6.901342869E0,-1.904457808E0,6.701857567E0
1.240240183E1,-6.901491165E0,-1.904554129E0,6.701677322E0
1.242267230E1,-6.901656151E0,-1.904984474E0,6.701384544E0
1.244294277E1,-6.902067184E0,-1.904924035E0,6.700978756E0
1.246321324E1,-6.902001381E0,-1.904781699E0,6.701088428E0
1.248348371E1,-6.902072430E0,-1.904796600E0,6.701010704E0
1.250375412E1,-6.902776241E0,-1.904476047E0,6.700376034E0
1.252402464E1,-6.903213024E0,-1.905307412E0,6.699688911E0
1.254429511E1,-6.903332233E0,-1.906444311E0,6.699244499E0
1.256456558E1,-6.903500080E0,-1.907071710E0,6.698891640E0
1.258483605E1,-6.903432369E0,-1.907434702E0,6.698858738E0
1.260510652E1,-6.902270794E0,-1.908278227E0,6.699815750E0
1.262537699E1,-6.901303291E0,-1.908706427E0,6.700689316E0
1.264564746E1,-6.900422573E0,-1.907662034E0,6.701893330E0
1.266591787E1,-6.899663448E0,-1.906034946E0,6.703138351E0
1.268618839E1,-6.899108887E0,-1.904717922E0,6.704083920E0
1.270645886E1,-6.898528099E0,-1.903892040E0,6.704916477E0
1.272672933E1,-6.898394585E0,-1.904395223E0,6.704909801E0
1.274699980E1,-6.899039268E0,-1.905301929E0,6.703989029E0
1.276727022E1,-6.900158882E0,-1.906545639E0,6.702483654E0
1.278754069E1,-6.900978565E0,-1.906987309E0,6.701513290E0
1.280781116E1,-6.901583195E0,-1.906337619E0,6.701075077E0
1.282808162E1,-6.901778698E0,-1.905230165E0,6.701189518E0
1.284835209E1,-6.901885986E0,-1.904541254E0,6.701274872E0
1.286862256E1,-6.902323723E0,-1.904796362E0,6.700751305E0
1.288889303E1,-6.902684689E0,-1.905951262E0,6.700050831E0
1.290916350E1,-6.902738094E0,-1.906381965E0,6.699872494E0
1.292943397E1,-6.902300835E0,-1.906404853E0,6.700318336E0
1.294970438E1,-6.901875496E0,-1.906040192E0,6.700859070E0
1.296997485E1,-6.901040077E0,-1.905133486E0,6.701976776E0
1.299024532E1,-6.900417328E0,-1.903614163E0,6.703051090E0
1.301051579E1,-6.900382996E0,-1.902370453E0,6.703438282E0
1.303078621E1,-6.900419235E0,-1.901251078E0,6.703718662E0
1.305105668E1,-6.900701523E0,-1.900096416E0,6.703754902E0
1.307145668E1,-6.900856972E0,-1.899674177E0,6.703715801E0
1.309159756E1,-6.900835037E0,-1.900464058E0,6.703514099E0
1.311186803E1,-6.901429653E0,-1.901254654E0,6.702677250E0
1.313213850E1,-6.901499271E0,-1.902413607E0,6.702277660E0
1.315240897E1,-6.900845528E0,-1.903447390E0,6.702656269E0
1.317280897E1,-6.900167942E0,-1.904336333E0,6.703101635E0
1.319294985E1,-6.900053978E0,-1.904798031E0,6.703088284E0
1.321322027E1,-6.900000095E0,-1.904365540E0,6.703266144E0
1.323349074E1,-6.900117397E0,-1.904188633E0,6.703196049E0
1.325376116E1,-6.900466919E0,-1.903208971E0,6.703113556E0
1.327416116E1,-6.900630474E0,-1.901961327E0,6.703299046E0
1.329430209E1,-6.900098324E0,-1.900779843E0,6.704183102E0
1.331457251E1,-6.900160313E0,-1.900198102E0,6.704284191E0
1.333484298E1,-6.900551319E0,-1.900719762E0,6.703733444E0
1.335511339E1,-6.900738716E0,-1.901722431E0,6.703256607E0
1.337551339E1,-6.900724888E0,-1.902760863E0,6.702975750E0
1.339565428E1,-6.899935722E0,-1.903799415E0,6.703495026E0
1.341592475E1,-6.899051189E0,-1.904494166E0,6.704206944E0
1.343619516E1,-6.898476601E0,-1.905597210E0,6.704483509E0
1.345646558E1,-6.898388386E0,-1.906538486E0,6.704306602E0
1.347686558E1,-6.899068356E0,-1.906469703E0,6.703627586E0
1.349700647E1,-6.899856567E0,-1.904556394E0,6.703360081E0
1.351727688E1,-6.900321007E0,-1.901711464E0,6.703688622E0
1.353754735E1,-6.900046825E0,-1.899146795E0,6.704698563E0
1.355781777E1,-6.900267601E0,-1.897349715E0,6.704979897E0
1.357821777E1,-6.900781631E0,-1.895891905E0,6.704863548E0
1.359851657E1,-6.900770187E0,-1.894180655E0,6.705359459E0
1.361862970E1,-6.900032520E0,-1.891291738E0,6.706934452E0
1.363889996E1,-6.899363518E0,-1.888171792E0,6.708499432E0
1.365929996E1,-6.899116516E0,-1.885003209E0,6.709644794E0
1.367959855E1,-6.899476528E0,-1.882696152E0,6.709923267E0
1.369971173E1,-6.900262833E0,-1.881009936E0,6.709587097E0
1.371998194E1,-6.901155949E0,-1.880739093E0,6.708745480E0
1.374025220E1,-6.902147293E0,-1.881870627E0,6.707406998E0
1.376052251E1,-6.903295994E0,-1.883476734E0,6.705774784E0
1.378079282E1,-6.904343605E0,-1.886690497E0,6.703792095E0
1.380106313E1,-6.905622959E0,-1.890851021E0,6.701302528E0
1.382133350E1,-6.905484676E0,-1.893435359E0,6.700714588E0
1.384160386E1,-6.903698444E0,-1.893669128E0,6.702489376E0
1.386187423E1,-6.901521683E0,-1.892137408E0,6.705162525E0
1.388214464E1,-6.899507523E0,-1.889185667E0,6.708066463E0
1.390241501E1,-6.897608757E0,-1.886150479E0,6.710872173E0
1.392268548E1,-6.896400928E0,-1.882783175E0,6.713058472E0
1.394295584E1,-6.895462513E0,-1.879561543E0,6.714925289E0
1.396322626E1,-6.894365788E0,-1.877557635E0,6.716612339E0
1.398349668E1,-6.893652439E0,-1.876978278E0,6.717506409E0
1.400376709E1,-6.892908573E0,-1.877932310E0,6.718003273E0
1.402403751E1,-6.892809391E0,-1.880116940E0,6.717493534E0
1.404430787E1,-6.893146515E0,-1.883169770E0,6.716293812E0
1.406457829E1,-6.893502712E0,-1.885501027E0,6.715272427E0
1.408484871E1,-6.893518448E0,-1.887973428E0,6.714561462E0
1.410511907E1,-6.893052101E0,-1.889434934E0,6.714629650E0
1.412538949E1,-6.892799854E0,-1.889702916E0,6.714814186E0
1.414565990E1,-6.893356323E0,-1.888373256E0,6.714616776E0
1.416593032E1,-6.894497871E0,-1.885463476E0,6.714262486E0
1.418620074E1,-6.895478725E0,-1.882017016E0,6.714221478E0
1.420647110E1,-6.896378040E0,-1.879048467E0,6.714129448E0
1.422674152E1,-6.897727013E0,-1.876402378E0,6.713483334E0
1.424701194E1,-6.899306297E0,-1.874505043E0,6.712390900E0
1.426728235E1,-6.901122093E0,-1.872943640E0,6.710959435E0
1.428755272E1,-6.903112411E0,-1.871463895E0,6.709325314E0
1.430782313E1,-6.905139923E0,-1.870326042E0,6.707556725E0
1.432809355E1,-6.907017231E0,-1.869935393E0,6.705732346E0
1.434836392E1,-6.908513546E0,-1.870909333E0,6.703918457E0
1.436863433E1,-6.909593582E0,-1.872645259E0,6.702320576E0
1.438890475E1,-6.910408497E0,-1.875779390E0,6.700605392E0
1.440917511E1,-6.910507202E0,-1.879627585E0,6.699423790E0
1.442944553E1,-6.909670830E0,-1.883401513E0,6.699226379E0
1.444971595E1,-6.908418179E0,-1.887351632E0,6.699407578E0
1.447011595E1,-6.906463146E0,-1.889909267E0,6.700702190E0
1.449025673E1,-6.904136658E0,-1.890650034E0,6.702889919E0
1.451052709E1,-6.900710583E0,-1.890918374E0,6.706340313E0
1.453079751E1,-6.896785259E0,-1.890501976E0,6.710494518E0
1.455106787E1,-6.893491268E0,-1.889947772E0,6.714034557E0
1.457146787E1,-6.890701294E0,-1.890159011E0,6.716838837E0
1.459160866E1,-6.888606548E0,-1.890198112E0,6.718976021E0
1.461187907E1,-6.887378693E0,-1.891151428E0,6.719966412E0
1.463214944E1,-6.887042999E0,-1.892400026E0,6.719958782E0
1.465241985E1,-6.887615204E0,-1.893862724E0,6.718961239E0
1.467281985E1,-6.888916492E0,-1.895091891E0,6.717279911E0
1.469296063E1,-6.890759945E0,-1.894901276E0,6.715442657E0
1.471323100E1,-6.893313885E0,-1.892356277E0,6.713538170E0
1.473350136E1,-6.896474838E0,-1.888154268E0,6.711475372E0
1.475377178E1,-6.900291443E0,-1.884351373E0,6.708620071E0
1.477417178E1,-6.904071808E0,-1.882772446E0,6.705173492E0
1.479431256E1,-6.907368660E0,-1.883077860E0,6.701691151E0
1.481458293E1,-6.910174847E0,-1.885047436E0,6.698244572E0
1.483485329E1,-6.912590981E0,-1.887419820E0,6.695082188E0
1.485512366E1,-6.914415359E0,-1.888647795E0,6.692850590E0
1.487552366E1,-6.915159225E0,-1.889650226E0,6.691800117E0
1.489566444E1,-6.914729595E0,-1.890694737E0,6.691949844E0
1.491593480E1,-6.913452148E0,-1.892415524E0,6.692781925E0
1.493620522E1,-6.911329746E0,-1.894218326E0,6.694463730E0
1.495647558E1,-6.908224106E0,-1.895197153E0,6.697391510E0
1.497687558E1,-6.904760361E0,-1.895564556E0,6.700859070E0
1.499717423E1,-6.901922703E0,-1.895187974E0,6.703887939E0
1.501728730E1,-6.899724007E0,-1.894158244E0,6.706442356E0
1.503755756E1,-6.898260117E0,-1.894022584E0,6.707986355E0
1.505782777E1,-6.897624016E0,-1.895256519E0,6.708291531E0
1.507822777E1,-6.897558212E0,-1.897128105E0,6.707829475E0
1.509836845E1,-6.897830963E0,-1.899444222E0,6.706895351E0
1.511863876E1,-6.899066925E0,-1.901155353E0,6.705137253E0
1.513890907E1,-6.900348663E0,-1.901885986E0,6.703612328E0
1.515930907E1,-6.901488304E0,-1.901900411E0,6.702434063E0
1.517960772E1,-6.902890205E0,-1.900506735E0,6.701384544E0
1.519972074E1,-6.904393196E0,-1.898929477E0,6.700284004E0
1.522012074E1,-6.905992031E0,-1.898009658E0,6.698897362E0
1.524026131E1,-6.907064438E0,-1.897459984E0,6.697947025E0
1.526053157E1,-6.908144474E0,-1.897158861E0,6.696918011E0
1.528080183E1,-6.908339024E0,-1.897178411E0,6.696713448E0
1.530107209E1,-6.907681465E0,-1.897369027E0,6.697335720E0
1.532134241E1,-6.906370163E0,-1.897778749E0,6.698572159E0
1.534174241E1,-6.904932022E0,-1.898823977E0,6.699758053E0
1.536188308E1,-6.903609753E0,-1.899543643E0,6.700917721E0
1.538215334E1,-6.901848793E0,-1.900618792E0,6.702426910E0
1.540242371E1,-6.899339199E0,-1.901075840E0,6.704880238E0
1.542269407E1,-6.896670341E0,-1.900572896E0,6.707767010E0
1.544296444E1,-6.894459724E0,-1.899709702E0,6.710285187E0
1.546323475E1,-6.893322945E0,-1.898661733E0,6.711748123E0
1.548350511E1,-6.893008232E0,-1.897918582E0,6.712283134E0
1.550377548E1,-6.893416882E0,-1.898148656E0,6.711796284E0
1.552404584E1,-6.894978523E0,-1.899051666E0,6.709937572E0
1.554431621E1,-6.897479057E0,-1.900045633E0,6.707086086E0
1.556458652E1,-6.900009632E0,-1.900072694E0,6.704474449E0
1.558485688E1,-6.901198387E0,-1.899238825E0,6.703486919E0
1.560512720E1,-6.901575089E0,-1.897472262E0,6.703600407E0
1.562539756E1,-6.901765823E0,-1.895725489E0,6.703898430E0
1.564566793E1,-6.902039528E0,-1.895259857E0,6.703747272E0
1.566593829E1,-6.902626991E0,-1.895292759E0,6.703132629E0
1.568620866E1,-6.903357029E0,-1.896188378E0,6.702127934E0
1.570647897E1,-6.903311729E0,-1.897786975E0,6.701722145E0
1.572674933E1,-6.902643204E0,-1.899543166E0,6.701913834E0
1.574701970E1,-6.901461124E0,-1.900973558E0,6.702724934E0
1.576729006E1,-6.899454117E0,-1.902278781E0,6.704421520E0
1.578756043E1,-6.897537708E0,-1.902817488E0,6.706239223E0
1.580783074E1,-6.895838737E0,-1.903521538E0,6.707785606E0
1.582810110E1,-6.894951820E0,-1.903010130E0,6.708843708E0
1.584837147E1,-6.894234657E0,-1.902265310E0,6.709791183E0
1.586877147E1,-6.894025326E0,-1.900689006E0,6.710453987E0
1.588891214E1,-6.893928528E0,-1.899700642E0,6.710834026E0
1.590918251E1,-6.894478798E0,-1.899528027E0,6.710315704E0
1.592945287E1,-6.895530224E0,-1.899589539E0,6.709218502E0
1.594972324E1,-6.896204948E0,-1.899725914E0,6.708486080E0
1.596999355E1,-6.896811008E0,-1.899351716E0,6.707970142E0
1.599026392E1,-6.897735596E0,-1.899022937E0,6.707111835E0
1.601053428E1,-6.898813725E0,-1.899404883E0,6.705894470E0
1.603080459E1,-6.899739265E0,-1.900787234E0,6.704550743E0
1.605107496E1,-6.900351524E0,-1.901666164E0,6.703671455E0
1.607147496E1,-6.900825500E0,-1.901284933E0,6.703291416E0
1.609161563E1,-6.900906086E0,-1.899915695E0,6.703595638E0
1.611188600E1,-6.900513172E0,-1.899152279E0,6.704217911E0
1.613215636E1,-6.900019169E0,-1.899364710E0,6.704665184E0
1.615242668E1,-6.899446487E0,-1.899635553E0,6.705176353E0
1.617282668E1,-6.898719788E0,-1.899637461E0,6.705925465E0
1.619296740E1,-6.897895813E0,-1.899927616E0,6.706690311E0
1.621323777E1,-6.897233009E0,-1.899823070E0,6.707401276E0
1.623350808E1,-6.896799088E0,-1.899667501E0,6.707891464E0
1.625377845E1,-6.896416187E0,-1.899286032E0,6.708393097E0
1.627417845E1,-6.896451473E0,-1.899307370E0,6.708351135E0
1.629431912E1,-6.896866798E0,-1.899687171E0,6.707818031E0
1.631458949E1,-6.897660255E0,-1.899332285E0,6.707101345E0
1.633485980E1,-6.898164749E0,-1.898737669E0,6.706751347E0
1.635513017E1,-6.899164677E0,-1.898312807E0,6.705842018E0
1.637553016E1,-6.900192261E0,-1.897742629E0,6.704946995E0
1.639582876E1,-6.900841236E0,-1.897083402E0,6.704465389E0
1.641594183E1,-6.901051521E0,-1.896876097E0,6.704308033E0
1.643621199E1,-6.901400566E0,-1.896717191E0,6.703992844E0
1.645648225E1,-6.901268482E0,-1.896535873E0,6.704179764E0
1.647688225E1,-6.900853634E0,-1.897304535E0,6.704390526E0
1.649702282E1,-6.900657654E0,-1.898025990E0,6.704387665E0
1.651729308E1,-6.900470734E0,-1.898293734E0,6.704504967E0
1.653756339E1,-6.899731636E0,-1.898728848E0,6.705141544E0
1.655783371E1,-6.899100780E0,-1.899514675E0,6.705569267E0
1.657823371E1,-6.898457050E0,-1.899254680E0,6.706303596E0
1.659837433E1,-6.898174286E0,-1.898862600E0,6.706705570E0
1.661864470E1,-6.897912025E0,-1.898713112E0,6.707017899E0
1.663891501E1,-6.897933960E0,-1.898571372E0,6.707034111E0
1.665931501E1,-6.897987843E0,-1.898469329E0,6.707008362E0
1.667961355E1,-6.898267269E0,-1.898285031E0,6.706772804E0
1.669972662E1,-6.898454666E0,-1.897731900E0,6.706737518E0
1.671999678E1,-6.898602486E0,-1.897580028E0,6.706627846E0
1.674039678E1,-6.898591518E0,-1.897660375E0,6.706617355E0
1.676053735E1,-6.898893833E0,-1.897351384E0,6.706392765E0
1.678080761E1,-6.899106503E0,-1.897194028E0,6.706218719E0
1.680107787E1,-6.898890972E0,-1.897297502E0,6.706410408E0
1.682134813E1,-6.899066925E0,-1.897893310E0,6.706060886E0
1.684161845E1,-6.899036884E0,-1.898536444E0,6.705910683E0
1.686188871E1,-6.898907185E0,-1.898533344E0,6.706044197E0
1.688215907E1,-6.898756027E0,-1.897479653E0,6.706498623E0
1.690242938E1,-6.898415565E0,-1.896642685E0,6.707085133E0
1.692269964E1,-6.897931099E0,-1.896952271E0,6.707496643E0
1.694297001E1,-6.897742271E0,-1.898358822E0,6.707292080E0
1.696324032E1,-6.897689342E0,-1.899247050E0,6.707095623E0
1.698351069E1,-6.897850990E0,-1.899448633E0,6.706871510E0
1.700378100E1,-6.897714138E0,-1.899571180E0,6.706977844E0
1.702405131E1,-6.898079872E0,-1.899555922E0,6.706605911E0
1.704432162E1,-6.898684025E0,-1.899279833E0,6.706063271E0
1.706459194E1,-6.899078369E0,-1.899552822E0,6.705579758E0
1.708486230E1,-6.899215698E0,-1.898844481E0,6.705638885E0
1.710513261E1,-6.899395943E0,-1.898530722E0,6.705543041E0
1.712540287E1,-6.900010586E0,-1.898433805E0,6.704937458E0
1.714567329E1,-6.900414467E0,-1.898799062E0,6.704418659E0
1.716594360E1,-6.900949478E0,-1.898849010E0,6.703853607E0
1.718621397E1,-6.901221752E0,-1.898535967E0,6.703661919E0
1.720648428E1,-6.901353836E0,-1.898478389E0,6.703543186E0
1.722675459E1,-6.901381016E0,-1.898187995E0,6.703597069E0
1.724702496E1,-6.901093006E0,-1.898308992E0,6.703860283E0
1.726742496E1,-6.901036263E0,-1.899072886E0,6.703701019E0
1.728756558E1,-6.901021957E0,-1.899938703E0,6.703470230E0
1.730783595E1,-6.901143551E0,-1.900144577E0,6.703287125E0
1.732810626E1,-6.900974751E0,-1.900686622E0,6.703307629E0
1.734837662E1,-6.900737286E0,-1.900619745E0,6.703569889E0
1.736864699E1,-6.900441647E0,-1.900498867E0,6.703908920E0
1.738891730E1,-6.900243759E0,-1.900024176E0,6.704246998E0
1.740918766E1,-6.900277615E0,-1.899761200E0,6.704287529E0
1.742945798E1,-6.900510788E0,-1.899209142E0,6.704203606E0
1.744972834E1,-6.900936127E0,-1.899073601E0,6.703803062E0
1.746999866E1,-6.901600838E0,-1.899379253E0,6.703032017E0
1.749026902E1,-6.901953697E0,-1.899553061E0,6.702621460E0
1.751053933E1,-6.902740002E0,-1.899565220E0,6.701807022E0
1.753080970E1,-6.903288364E0,-1.899633288E0,6.701224327E0
1.755108001E1,-6.903373241E0,-1.900201797E0,6.700974464E0
1.757148001E1,-6.903598309E0,-1.900535703E0,6.700648785E0
1.759162074E1,-6.903605461E0,-1.900116801E0,6.700760365E0
1.761189105E1,-6.903352737E0,-1.900032401E0,6.701044559E0
1.763216142E1,-6.903163433E0,-1.900732160E0,6.701040268E0
1.765243178E1,-6.903153419E0,-1.901756525E0,6.700759888E0
1.767283178E1,-6.903269768E0,-1.901939154E0,6.700588226E0
1.769297246E1,-6.903516769E0,-1.901370406E0,6.700494766E0
1.771324282E1,-6.903075695E0,-1.900330305E0,6.701245308E0
1.773351313E1,-6.901993752E0,-1.899653196E0,6.702551365E0
1.775378350E1,-6.901834011E0,-1.899530649E0,6.702749729E0
1.777418350E1,-6.901737213E0,-1.899841309E0,6.702761173E0
1.779448214E1,-6.901528358E0,-1.900612950E0,6.702756882E0
1.781459516E1,-6.901765347E0,-1.901498437E0,6.702262402E0
1.783486543E1,-6.902025700E0,-1.901179194E0,6.702085972E0
1.785513563E1,-6.901855946E0,-1.900810242E0,6.702363968E0
1.787553563E1,-6.901725769E0,-1.900771022E0,6.702509403E0
1.789567626E1,-6.901768684E0,-1.900744557E0,6.702473640E0
1.791594657E1,-6.901978016E0,-1.901320815E0,6.702094078E0
1.793621688E1,-6.902344704E0,-1.901404738E0,6.701693535E0
1.795648720E1,-6.902841091E0,-1.900785685E0,6.701356888E0
1.797688720E1,-6.902764320E0,-1.900251985E0,6.701587200E0
1.799702793E1,-6.902933598E0,-1.900060654E0,6.701467037E0
1.801729824E1,-6.903125286E0,-1.899848819E0,6.701330662E0
1.803756860E1,-6.903211594E0,-1.899926662E0,6.701219559E0
1.805783897E1,-6.902946949E0,-1.900321484E0,6.701378345E0
1.807823897E1,-6.902771950E0,-1.900403857E0,6.701536655E0
1.809837964E1,-6.902698517E0,-1.900891900E0,6.701473236E0
1.811865001E1,-6.902089119E0,-1.901415825E0,6.701951981E0
1.813895964E1,-6.901667595E0,-1.901646614E0,6.702321053E0
1.815934886E1,-6.900961399E0,-1.901513338E0,6.703086853E0
1.817961892E1,-6.900110245E0,-1.900903225E0,6.704134941E0
1.819973199E1,-6.899773598E0,-1.900334716E0,6.704643250E0
1.822013199E1,-6.899843216E0,-1.900170088E0,6.704617977E0
1.824027256E1,-6.900147438E0,-1.899741650E0,6.704426289E0
1.826054287E1,-6.900512695E0,-1.899558783E0,6.704102516E0
1.828081313E1,-6.900646687E0,-1.899660826E0,6.703934669E0
1.830108345E1,-6.900741577E0,-1.900000572E0,6.703742504E0
1.832135381E1,-6.900489330E0,-1.900345206E0,6.703904152E0
1.834162412E1,-6.901127338E0,-1.901336670E0,6.702966213E0
1.836189449E1,-6.901453018E0,-1.901693225E0,6.702528000E0
1.838216485E1,-6.901123524E0,-1.901292205E0,6.702981949E0
1.840243522E1,-6.900481224E0,-1.900740623E0,6.703799725E0
1.842270548E1,-6.899944782E0,-1.901023149E0,6.704272270E0
1.844297589E1,-6.900606632E0,-1.901769400E0,6.703378677E0
1.846324626E1,-6.900742531E0,-1.902440786E0,6.703048706E0
1.848351662E1,-6.900565147E0,-1.901831746E0,6.703404427E0
1.850378699E1,-6.899785519E0,-1.900605917E0,6.704553127E0
1.852405730E1,-6.899991512E0,-1.900607467E0,6.704341412E0
1.854432766E1,-6.900306702E0,-1.901202440E0,6.703848362E0
1.856459793E1,-6.900120735E0,-1.901995420E0,6.703815460E0
1.858486839E1,-6.899739265E0,-1.902318835E0,6.704114914E0
1.860513876E1,-6.899487019E0,-1.902989149E0,6.704185009E0
1.862540912E1,-6.899403572E0,-1.902946472E0,6.704283237E0
1.864567949E1,-6.899277210E0,-1.902955890E0,6.704410076E0
1.866607949E1,-6.899587631E0,-1.902839780E0,6.704123974E0
1.868622022E1,-6.899597168E0,-1.902267575E0,6.704277039E0
1.870649058E1,-6.900007248E0,-1.901674271E0,6.704022884E0
1.872676095E1,-6.900204659E0,-1.901229024E0,6.703945637E0
1.874703131E1,-6.900712490E0,-1.901740432E0,6.703277588E0
1.876730173E1,-6.901440620E0,-1.902157307E0,6.702410698E0
1.878757204E1,-6.901782990E0,-1.902162313E0,6.702054977E0
1.880784246E1,-6.900786877E0,-1.902150154E0,6.703085899E0
1.882811282E1,-6.899592876E0,-1.902248979E0,6.704286098E0
1.884838319E1,-6.899072647E0,-1.902463198E0,6.704761505E0
1.886865355E1,-6.898520947E0,-1.902573705E0,6.705297470E0
1.888892392E1,-6.898178101E0,-1.902756810E0,6.705599308E0
1.890919428E1,-6.898212433E0,-1.903300405E0,6.705409050E0
1.892946464E1,-6.898580074E0,-1.903962016E0,6.704842567E0
1.894973501E1,-6.898688793E0,-1.903874397E0,6.704754829E0
1.897000537E1,-6.898659229E0,-1.902976394E0,6.705041409E0
1.899027574E1,-6.897937298E0,-1.902478099E0,6.705925465E0
1.901054610E1,-6.897755146E0,-1.902287841E0,6.706166267E0
1.903081647E1,-6.898236275E0,-1.901840925E0,6.705797672E0
1.905108683E1,-6.898429394E0,-1.902372479E0,6.705448151E0
1.907148683E1,-6.898825169E0,-1.903817773E0,6.704631329E0
1.909162756E1,-6.899653435E0,-1.905160427E0,6.703397751E0
1.911189793E1,-6.900756836E0,-1.906467199E0,6.701890469E0
1.913216829E1,-6.901888371E0,-1.906393886E0,6.700744629E0
1.915243866E1,-6.902267933E0,-1.905704021E0,6.700550556E0
1.917283866E1,-6.901843071E0,-1.904042125E0,6.701459885E0
1.919313725E1,-6.901198387E0,-1.902035832E0,6.702693939E0
1.921325037E1,-6.900879860E0,-1.901227117E0,6.703251362E0
1.923352058E1,-6.901004314E0,-1.901939511E0,6.702921391E0
1.925379084E1,-6.901383877E0,-1.903647900E0,6.702045918E0
1.927419084E1,-6.901344776E0,-1.904195070E0,6.701930523E0
1.929433147E1,-6.900680065E0,-1.903879166E0,6.702703953E0
1.931460178E1,-6.899878025E0,-1.903742671E0,6.703568459E0
1.933487209E1,-6.898959160E0,-1.904274940E0,6.704364300E0
1.935514241E1,-6.898479462E0,-1.905685306E0,6.704456329E0
1.937554240E1,-6.898600101E0,-1.906773567E0,6.704021931E0
1.939568313E1,-6.898603916E0,-1.907526851E0,6.703804493E0
1.941595350E1,-6.898502350E0,-1.907542467E0,6.703904152E0
1.943622381E1,-6.899127960E0,-1.907345772E0,6.703315735E0
1.945649412E1,-6.899644852E0,-1.906863928E0,6.702921867E0
1.947689412E1,-6.899648666E0,-1.906280041E0,6.703083515E0
1.949703485E1,-6.899559021E0,-1.905165195E0,6.703492641E0
1.951730522E1,-6.899623394E0,-1.903893113E0,6.703788280E0
1.953757558E1,-6.900246620E0,-1.903259993E0,6.703325748E0
1.955784595E1,-6.901259899E0,-1.903082371E0,6.702334881E0
1.957824595E1,-6.902343750E0,-1.903243780E0,6.701172352E0
1.959838662E1,-6.902863979E0,-1.903731942E0,6.700498104E0
1.961865699E1,-6.903140068E0,-1.904318690E0,6.700045586E0
1.963896668E1,-6.903032303E0,-1.905336976E0,6.699866295E0
1.965935589E1,-6.902070522E0,-1.905941129E0,6.700685978E0
1.967962595E1,-6.901224136E0,-1.906918645E0,6.701279163E0
1.969973902E1,-6.900659561E0,-1.907891870E0,6.701584339E0
1.972000918E1,-6.900346279E0,-1.908835173E0,6.701637745E0
1.974027944E1,-6.899923801E0,-1.908561110E0,6.702150345E0
1.976054975E1,-6.899442196E0,-1.907986045E0,6.702812195E0
1.978082006E1,-6.898814201E0,-1.907363415E0,6.703634262E0
1.980109032E1,-6.898643970E0,-1.905983448E0,6.704203129E0
1.982136069E1,-6.899014473E0,-1.905143023E0,6.704058647E0
1.984163105E1,-6.899236202E0,-1.905133486E0,6.703834057E0
1.986190142E1,-6.899426460E0,-1.905466318E0,6.703544140E0
1.988217168E1,-6.899973392E0,-1.905924439E0,6.702851295E0
1.990244204E1,-6.900482178E0,-1.905801177E0,6.702361584E0
1.992271241E1,-6.900404453E0,-1.905360460E0,6.702567101E0
1.994298277E1,-6.900394440E0,-1.905605078E0,6.702507496E0
1.996325313E1,-6.900640965E0,-1.906218410E0,6.702079296E0
1.998352350E1,-6.901144028E0,-1.906878591E0,6.701374531E0
2.000379376E1,-6.901346684E0,-1.907320261E0,6.701038361E0
2.002406412E1,-6.901005745E0,-1.907553434E0,6.701324940E0
2.004433449E1,-6.900635719E0,-1.907321811E0,6.701770782E0
2.006460480E1,-6.900157928E0,-1.907504082E0,6.702210903E0
2.008487516E1,-6.899930000E0,-1.908216596E0,6.702242374E0
2.010514553E1,-6.899882793E0,-1.908086419E0,6.702328205E0
2.012541589E1,-6.899837494E0,-1.907450914E0,6.702556610E0
2.014568621E1,-6.899623871E0,-1.905829191E0,6.703237534E0
2.016595657E1,-6.899464130E0,-1.904662251E0,6.703733444E0
2.018622694E1,-6.899651527E0,-1.904253364E0,6.703656673E0
2.020649725E1,-6.900637627E0,-1.904860497E0,6.702468872E0
2.022676761E1,-6.901389599E0,-1.904984474E0,6.701660156E0
2.024703798E1,-6.901874542E0,-1.905646205E0,6.700971603E0
2.026730834E1,-6.901818752E0,-1.905643582E0,6.701030254E0
2.028757866E1,-6.902026653E0,-1.905045152E0,6.700986385E0
2.030784902E1,-6.902568340E0,-1.904543400E0,6.700572014E0
2.032811938E1,-6.902888298E0,-1.903809547E0,6.700450420E0
2.034838975E1,-6.903048038E0,-1.903294325E0,6.700431824E0
2.036866006E1,-6.902620316E0,-1.903419614E0,6.700837612E0
2.038893043E1,-6.902034283E0,-1.903858781E0,6.701316357E0
2.040920079E1,-6.902173996E0,-1.904578567E0,6.700966835E0
2.042947110E1,-6.902281284E0,-1.905253768E0,6.700664043E0
2.044974147E1,-6.901830673E0,-1.905513763E0,6.701054573E0
2.047001183E1,-6.901306629E0,-1.905242443E0,6.701671124E0
2.049028214E1,-6.900464058E0,-1.904875040E0,6.702643394E0
2.051055251E1,-6.899459839E0,-1.904602408E0,6.703755379E0
2.053082282E1,-6.898968697E0,-1.904160738E0,6.704386234E0
2.055109319E1,-6.898751736E0,-1.903747320E0,6.704726696E0
2.057149319E1,-6.898607731E0,-1.903853416E0,6.704844952E0
2.059163386E1,-6.898967743E0,-1.904324412E0,6.704340935E0
2.061190423E1,-6.899199009E0,-1.905022979E0,6.703903198E0
2.063217454E1,-6.899837494E0,-1.905315042E0,6.703163624E0
2.065244491E1,-6.900137901E0,-1.905152202E0,6.702900410E0
2.067284490E1,-6.900542736E0,-1.905298352E0,6.702441692E0
2.069298558E1,-6.900595665E0,-1.905204058E0,6.702414989E0
2.071325595E1,-6.900476933E0,-1.904738188E0,6.702669144E0
2.073352626E1,-6.900218964E0,-1.904471159E0,6.703010559E0
2.075379662E1,-6.899999619E0,-1.904499769E0,6.703228951E0
2.077419662E1,-6.899808884E0,-1.903933525E0,6.703586102E0
2.079433730E1,-6.899779320E0,-1.903362393E0,6.703778267E0
2.081460766E1,-6.899548054E0,-1.903117776E0,6.704085827E0
2.083487798E1,-6.899243832E0,-1.902903080E0,6.704460144E0
2.085514834E1,-6.898656845E0,-1.902803421E0,6.705092907E0
2.087554834E1,-6.898253441E0,-1.903261662E0,6.705376148E0
2.089568897E1,-6.897667885E0,-1.903580308E0,6.705888748E0
2.091595933E1,-6.897285461E0,-1.903690100E0,6.706251144E0
2.093622964E1,-6.896986008E0,-1.903689027E0,6.706559181E0
2.095650001E1,-6.896620274E0,-1.903897166E0,6.706876755E0
2.097690001E1,-6.896615028E0,-1.904334664E0,6.706757069E0
2.099704069E1,-6.896881580E0,-1.905189395E0,6.706241131E0
2.101731100E1,-6.896994114E0,-1.905377984E0,6.706072330E0
2.103758136E1,-6.896574974E0,-1.904145241E0,6.706852436E0
2.105785168E1,-6.896255493E0,-1.902904034E0,6.707534313E0
2.107825168E1,-6.896475792E0,-1.901859879E0,6.707602501E0
2.109855027E1,-6.896971703E0,-1.901400447E0,6.707223415E0
2.111882069E1,-6.897991657E0,-1.901547551E0,6.706132412E0
2.113897298E1,-6.898553848E0,-1.902308702E0,6.705338478E0
2.115936204E1,-6.899019718E0,-1.902656913E0,6.704759598E0
2.117935595E1,-6.898914814E0,-1.902728438E0,6.704847336E0
2.119974485E1,-6.898430824E0,-1.902583599E0,6.705387115E0
2.122014485E1,-6.898033619E0,-1.902595878E0,6.705791473E0
2.124028506E1,-6.897649765E0,-1.903026938E0,6.706064224E0
2.126055527E1,-6.897320271E0,-1.903133631E0,6.706373215E0
2.128082553E1,-6.897017956E0,-1.902834654E0,6.706769943E0
2.130109584E1,-6.896985054E0,-1.902259707E0,6.706966877E0
2.132136610E1,-6.897004128E0,-1.901450515E0,6.707174301E0
2.134163636E1,-6.896949291E0,-1.900924087E0,6.707382202E0
2.136190668E1,-6.897305012E0,-1.901321411E0,6.706902504E0
2.138217699E1,-6.897397518E0,-1.901655316E0,6.706713676E0
2.140244735E1,-6.897009373E0,-1.902342081E0,6.706917763E0
2.142271761E1,-6.896881580E0,-1.903219104E0,6.706800461E0
2.144298793E1,-6.896700382E0,-1.903725624E0,6.706841946E0
2.146325824E1,-6.896220684E0,-1.904422283E0,6.707137585E0
2.148352855E1,-6.895540714E0,-1.904934525E0,6.707691193E0
2.150379892E1,-6.895114899E0,-1.904772520E0,6.708175659E0
2.152406918E1,-6.895217896E0,-1.904177547E0,6.708237648E0
2.154433949E1,-6.895038128E0,-1.903226376E0,6.708693504E0
2.156460980E1,-6.894688129E0,-1.902427435E0,6.709280491E0
2.158488011E1,-6.894615173E0,-1.901862979E0,6.709514618E0
2.160515043E1,-6.894462585E0,-1.901057601E0,6.709899426E0
2.162542079E1,-6.894496918E0,-1.900921702E0,6.709903240E0
2.164569110E1,-6.894672871E0,-1.900597095E0,6.709814072E0
2.166596142E1,-6.894785404E0,-1.900768280E0,6.709650040E0
2.168623173E1,-6.895238400E0,-1.901303649E0,6.709033012E0
2.170650204E1,-6.895708084E0,-1.901999235E0,6.708352566E0
2.172677235E1,-6.895718575E0,-1.902157664E0,6.708296776E0
2.174704267E1,-6.895645618E0,-1.902931690E0,6.708152294E0
2.176731298E1,-6.895599365E0,-1.903798223E0,6.707954884E0
2.178758329E1,-6.895694733E0,-1.904306173E0,6.707711220E0
2.180785355E1,-6.895732403E0,-1.904396415E0,6.707648277E0
2.182812386E1,-6.895600796E0,-1.903542876E0,6.708024502E0
2.184839423E1,-6.895184517E0,-1.903468490E0,6.708474159E0
2.186866449E1,-6.895251751E0,-1.904254198E0,6.708181381E0
2.188893480E1,-6.895351410E0,-1.904971838E0,6.707876205E0
2.190920511E1,-6.895304203E0,-1.904457688E0,6.708069801E0
2.192947543E1,-6.895144463E0,-1.903144121E0,6.708606243E0
2.194974574E1,-6.895025730E0,-1.901983261E0,6.709059238E0
2.197001605E1,-6.894968033E0,-1.902003646E0,6.709111691E0
2.199028636E1,-6.895423412E0,-1.903082371E0,6.708338261E0
2.201055662E1,-6.895908356E0,-1.904335022E0,6.707483768E0
2.203082694E1,-6.895828724E0,-1.905496359E0,6.707237244E0
2.205109725E1,-6.896015167E0,-1.906511426E0,6.706757069E0
2.207149725E1,-6.896401405E0,-1.906643391E0,6.706321239E0
2.209163782E1,-6.896636486E0,-1.905658841E0,6.706358433E0
2.211190808E1,-6.896279335E0,-1.904508352E0,6.707052708E0
2.213217845E1,-6.896483898E0,-1.904051542E0,6.706972599E0
2.215244876E1,-6.897034645E0,-1.903924465E0,6.706443310E0
2.217284876E1,-6.897487640E0,-1.903532505E0,6.706087112E0
2.219298938E1,-6.897931099E0,-1.903388619E0,6.705672741E0
2.221325964E1,-6.898267269E0,-1.903494716E0,6.705296993E0
2.223352996E1,-6.898213863E0,-1.903479576E0,6.705355644E0
2.225380027E1,-6.897704124E0,-1.903219104E0,6.705954552E0
2.227420027E1,-6.897223473E0,-1.903279066E0,6.706430912E0
2.229434084E1,-6.897044182E0,-1.903823495E0,6.706461430E0
2.231461116E1,-6.897141457E0,-1.904546976E0,6.706155777E0
2.233488147E1,-6.897033691E0,-1.904877901E0,6.706172943E0
2.235515173E1,-6.896677971E0,-1.905287385E0,6.706423283E0
2.237555173E1,-6.896602154E0,-1.905623674E0,6.706404209E0
2.239569235E1,-6.896318436E0,-1.905773282E0,6.706655025E0
2.241596261E1,-6.896101475E0,-1.905910015E0,6.706838131E0
2.243623293E1,-6.896349907E0,-1.905582190E0,6.706676006E0
2.245650319E1,-6.896533966E0,-1.904950142E0,6.706665993E0
2.247690319E1,-6.896273613E0,-1.904807448E0,6.706974506E0
2.249704376E1,-6.896380424E0,-1.904365301E0,6.706989765E0
2.251744376E1,-6.895818710E0,-1.904298306E0,6.707587242E0
2.253758438E1,-6.895606518E0,-1.904244900E0,6.707819462E0
2.255785464E1,-6.895591259E0,-1.903982759E0,6.707909584E0
2.257825464E1,-6.895779133E0,-1.903805733E0,6.707767963E0
2.259839522E1,-6.895806789E0,-1.902829647E0,6.708016396E0
2.261866553E1,-6.895505428E0,-1.901663542E0,6.708656311E0
2.263897511E1,-6.895100117E0,-1.901425719E0,6.709140301E0
2.265936423E1,-6.894809246E0,-1.902528644E0,6.709126472E0
2.267939735E1,-6.894726276E0,-1.903397083E0,6.708965778E0
2.269974626E1,-6.894757271E0,-1.904344201E0,6.708666325E0
2.272001662E1,-6.894300461E0,-1.903536797E0,6.709362507E0
2.274028699E1,-6.893707275E0,-1.902728796E0,6.710202694E0
2.276055730E1,-6.893301487E0,-1.902429223E0,6.710703850E0
2.278082761E1,-6.893036366E0,-1.902357578E0,6.710996151E0
2.280109798E1,-6.893219471E0,-1.902323842E0,6.710817337E0
2.282136824E1,-6.893197536E0,-1.902279615E0,6.710852146E0
2.284163855E1,-6.893072128E0,-1.901614547E0,6.711171627E0
2.286190886E1,-6.893566608E0,-1.900897264E0,6.710865021E0
2.288217912E1,-6.893772602E0,-1.900447488E0,6.710781574E0
2.290244938E1,-6.894053459E0,-1.900347352E0,6.710521698E0
2.292271970E1,-6.893940926E0,-1.901331544E0,6.710358143E0
2.294299001E1,-6.893799782E0,-1.902811289E0,6.710083485E0
2.296326027E1,-6.893905640E0,-1.903561115E0,6.709762573E0
2.298353058E1,-6.893050671E0,-1.902455926E0,6.710954666E0
2.300380084E1,-6.891857147E0,-1.900619268E0,6.712699413E0
2.302407110E1,-6.891547680E0,-1.898986220E0,6.713480473E0
2.304434136E1,-6.891856670E0,-1.897924781E0,6.713463783E0
2.306461168E1,-6.892374516E0,-1.897692800E0,6.712996483E0
2.308488194E1,-6.892827034E0,-1.898373485E0,6.712337971E0
2.310515220E1,-6.893074512E0,-1.898653030E0,6.712007046E0
2.312542246E1,-6.892810345E0,-1.898552775E0,6.712306023E0
2.314569272E1,-6.891721249E0,-1.899209738E0,6.713237762E0
2.316596303E1,-6.891167641E0,-1.900168180E0,6.713536263E0
2.318623329E1,-6.891177654E0,-1.900907636E0,6.713315487E0
2.320650355E1,-6.891565800E0,-1.901680112E0,6.712697983E0
2.322677381E1,-6.891964436E0,-1.901553631E0,6.712324619E0
2.324704407E1,-6.892073154E0,-1.900897622E0,6.712398529E0
2.326731433E1,-6.891910553E0,-1.899528027E0,6.712954044E0
2.328758464E1,-6.891734123E0,-1.898364663E0,6.713464260E0
2.330785491E1,-6.891485691E0,-1.897828341E0,6.713870525E0
2.332812517E1,-6.891824722E0,-1.897641420E0,6.713575363E0
2.334839543E1,-6.892255306E0,-1.897785425E0,6.713092804E0
2.336866569E1,-6.892147064E0,-1.897508740E0,6.713281155E0
2.338893595E1,-6.892026901E0,-1.897708774E0,6.713348389E0
2.340920621E1,-6.891502380E0,-1.899148703E0,6.713480473E0
2.342947642E1,-6.891461372E0,-1.900930882E0,6.713017464E0
2.344974668E1,-6.891986847E0,-1.901504993E0,6.712316036E0
2.347001694E1,-6.892463684E0,-1.901302576E0,6.711884022E0
2.349028720E1,-6.892709732E0,-1.899880767E0,6.712034702E0
2.351055746E1,-6.892949104E0,-1.899183750E0,6.711984158E0
2.353082772E1,-6.892823696E0,-1.898818493E0,6.712216854E0
2.355109798E1,-6.892818928E0,-1.897972107E0,6.712461948E0
2.357149798E1,-6.892664909E0,-1.897451162E0,6.712766647E0
2.359163850E1,-6.892639637E0,-1.897205114E0,6.712862492E0
2.361190876E1,-6.892640591E0,-1.896908402E0,6.712945461E0
2.363217902E1,-6.893109798E0,-1.896832347E0,6.712484360E0
2.365244928E1,-6.893274784E0,-1.897023797E0,6.712261677E0
2.367284928E1,-6.892760277E0,-1.896937132E0,6.712813854E0
2.369298975E1,-6.892560959E0,-1.896579862E0,6.713119030E0
2.371326001E1,-6.892440319E0,-1.896697044E0,6.713210106E0
2.373353027E1,-6.892663002E0,-1.897313356E0,6.712807178E0
2.375380053E1,-6.892916679E0,-1.897193551E0,6.712581635E0
2.377420053E1,-6.892951012E0,-1.897027493E0,6.712593555E0
2.379434100E1,-6.892614841E0,-1.896821141E0,6.712996006E0
2.381461126E1,-6.892260075E0,-1.896765947E0,6.713375568E0
2.383488152E1,-6.892002106E0,-1.896697283E0,6.713660240E0
2.385515173E1,-6.892432213E0,-1.896785855E0,6.713194370E0
2.387555173E1,-6.892783642E0,-1.896862388E0,6.712810993E0
2.389569225E1,-6.893502712E0,-1.897083998E0,6.712011337E0
2.391596251E1,-6.894105911E0,-1.897805214E0,6.711187363E0
2.393623272E1,-6.894270897E0,-1.898277998E0,6.710883141E0
2.395650298E1,-6.893695354E0,-1.897750139E0,6.711624146E0
2.397690298E1,-6.893389225E0,-1.897668123E0,6.711960793E0
2.399704345E1,-6.893082619E0,-1.897568822E0,6.712303638E0
2.401731371E1,-6.893176079E0,-1.897822142E0,6.712137222E0
2.403758392E1,-6.893086433E0,-1.898081183E0,6.712156773E0
2.405785418E1,-6.893104076E0,-1.897576213E0,6.712280750E0
2.407825418E1,-6.892297268E0,-1.896981001E0,6.713276863E0
2.409855256E1,-6.891560078E0,-1.896649957E0,6.714126110E0
2.411866553E1,-6.891096115E0,-1.896754146E0,6.714574337E0
2.413897490E1,-6.890858650E0,-1.897027135E0,6.714740753E0
2.415936386E1,-6.890769958E0,-1.897572279E0,6.714677334E0
2.417939699E1,-6.890921116E0,-1.898960114E0,6.714129925E0
2.419974579E1,-6.891361237E0,-1.899639487E0,6.713485241E0
2.422014579E1,-6.891849995E0,-1.899127245E0,6.713129520E0
2.424028626E1,-6.892400742E0,-1.898153543E0,6.712840557E0
2.426055652E1,-6.892983437E0,-1.897247314E0,6.712496281E0
2.428082673E1,-6.893202782E0,-1.897211552E0,6.712281227E0
2.430109704E1,-6.893163204E0,-1.897418141E0,6.712265015E0
2.432136725E1,-6.892739296E0,-1.897405386E0,6.712703228E0
2.434163751E1,-6.892069340E0,-1.897829890E0,6.713271141E0
2.436190772E1,-6.892048836E0,-1.897700191E0,6.713328838E0
2.438217798E1,-6.892652988E0,-1.898055077E0,6.712607861E0
2.440244819E1,-6.893257141E0,-1.898063064E0,6.711986065E0
2.442271845E1,-6.893040657E0,-1.897992134E0,6.712228298E0
2.444298866E1,-6.892470360E0,-1.898305297E0,6.712725163E0
2.446325892E1,-6.892056465E0,-1.897991061E0,6.713237762E0
2.448352912E1,-6.891530037E0,-1.897738814E0,6.713850021E0
2.450379938E1,-6.891170979E0,-1.897351265E0,6.714328766E0
2.452406959E1,-6.891790867E0,-1.897785664E0,6.713569641E0
2.454433980E1,-6.892596245E0,-1.897961378E0,6.712693214E0
2.456461006E1,-6.892710209E0,-1.898394585E0,6.712453365E0
2.458488027E1,-6.893077850E0,-1.897604227E0,6.712299824E0
2.460515053E1,-6.893249035E0,-1.897056580E0,6.712278843E0
2.462542074E1,-6.893013000E0,-1.897293091E0,6.712454319E0
2.464569095E1,-6.893128395E0,-1.897511244E0,6.712274075E0
2.466596121E1,-6.894160271E0,-1.898441434E0,6.710950375E0
2.468623142E1,-6.895253181E0,-1.900217891E0,6.709324837E0
2.470650162E1,-6.895656109E0,-1.901153803E0,6.708645821E0
2.472677183E1,-6.895561695E0,-1.901298404E0,6.708701134E0
2.474704204E1,-6.894966602E0,-1.900642157E0,6.709498882E0
2.476731230E1,-6.894293308E0,-1.900650620E0,6.710189342E0
2.478758251E1,-6.893983364E0,-1.900812268E0,6.710460663E0
2.480785272E1,-6.893422604E0,-1.901834369E0,6.710747719E0
2.482812293E1,-6.893016815E0,-1.902614951E0,6.710943222E0
2.484839319E1,-6.892657757E0,-1.903437853E0,6.711078644E0
2.486866339E1,-6.892131329E0,-1.904417396E0,6.711341381E0
2.488893360E1,-6.892065525E0,-1.904725432E0,6.711322784E0
2.490920381E1,-6.891968250E0,-1.904565096E0,6.711468697E0
2.492947402E1,-6.891933441E0,-1.904051423E0,6.711648464E0
2.494974423E1,-6.892287254E0,-1.904973626E0,6.711022377E0
2.497014423E1,-6.893044949E0,-1.905331016E0,6.710144043E0
2.499028464E1,-6.893784523E0,-1.904917359E0,6.709501743E0
2.501055485E1,-6.894410610E0,-1.904183149E0,6.709066868E0
2.503082506E1,-6.894743919E0,-1.903172612E0,6.709011078E0
2.505109527E1,-6.895346642E0,-1.902490735E0,6.708584785E0
2.507149527E1,-6.896780968E0,-1.902396798E0,6.707137108E0
2.509163569E1,-6.897600651E0,-1.902630210E0,6.706229210E0
2.511190589E1,-6.897556305E0,-1.903478384E0,6.706032753E0
2.513217610E1,-6.897210598E0,-1.904285550E0,6.706159115E0
2.515244631E1,-6.897015095E0,-1.904528975E0,6.706291199E0
2.517284631E1,-6.896734238E0,-1.904961944E0,6.706457138E0
2.519298673E1,-6.896281242E0,-1.905345082E0,6.706813812E0
2.521325694E1,-6.895395756E0,-1.906223178E0,6.707474232E0
2.523352714E1,-6.894208431E0,-1.906478524E0,6.708622456E0
2.525379735E1,-6.893446445E0,-1.905665636E0,6.709637165E0
2.527419735E1,-6.893124104E0,-1.905258060E0,6.710082531E0
2.529433777E1,-6.893102169E0,-1.904238462E0,6.710395336E0
2.531460793E1,-6.893670082E0,-1.903458476E0,6.710032940E0
2.533487819E1,-6.894447803E0,-1.902456880E0,6.709517956E0
2.535514834E1,-6.895258904E0,-1.901770949E0,6.708878994E0
2.537554834E1,-6.896162033E0,-1.901787162E0,6.707946777E0
2.539568876E1,-6.897633553E0,-1.901710749E0,6.706455231E0
2.541595897E1,-6.898569584E0,-1.901705146E0,6.705492020E0
2.543622918E1,-6.899187565E0,-1.900915146E0,6.705081940E0
2.545649938E1,-6.899799824E0,-1.899883866E0,6.704744816E0
2.547689938E1,-6.900158405E0,-1.899713635E0,6.704422951E0
2.549719772E1,-6.900105476E0,-1.900184751E0,6.704344273E0
2.551731058E1,-6.900007725E0,-1.900547862E0,6.704341888E0
2.553758063E1,-6.899416924E0,-1.900859356E0,6.704861164E0
2.555785074E1,-6.898886681E0,-1.901776910E0,6.705147266E0
2.557825074E1,-6.898337841E0,-1.903228641E0,6.705299854E0
2.559839110E1,-6.897532463E0,-1.904100060E0,6.705880165E0
2.561866116E1,-6.895810127E0,-1.903736472E0,6.707755566E0
2.563897069E1,-6.893930435E0,-1.902478814E0,6.710043430E0
2.565935970E1,-6.892580509E0,-1.901573062E0,6.711687088E0
2.567935334E1,-6.891714096E0,-1.901772022E0,6.712520599E0
2.569974225E1,-6.891957283E0,-1.901809454E0,6.712260246E0
2.572001194E1,-6.892240524E0,-1.902167678E0,6.711868286E0
2.574028214E1,-6.892698765E0,-1.901607513E0,6.711555481E0
2.576055235E1,-6.893229485E0,-1.901408672E0,6.711066723E0
2.578082251E1,-6.893575191E0,-1.902117968E0,6.710511208E0
2.580109272E1,-6.894694328E0,-1.902639627E0,6.709212780E0
2.582136293E1,-6.895502567E0,-1.903637052E0,6.708098888E0
2.584176293E1,-6.895842075E0,-1.904383659E0,6.707538128E0
2.586190329E1,-6.895749092E0,-1.903891444E0,6.707774639E0
2.588217350E1,-6.895367146E0,-1.902971268E0,6.708428383E0
2.590256240E1,-6.894851208E0,-1.902293205E0,6.709150314E0
2.592271386E1,-6.894876480E0,-1.902327538E0,6.709115028E0
2.594298407E1,-6.894862175E0,-1.902696967E0,6.709024906E0
2.596325423E1,-6.894059181E0,-1.902640820E0,6.709865093E0
2.598352444E1,-6.893122196E0,-1.902259946E0,6.710935593E0
2.600379459E1,-6.893035889E0,-1.901836038E0,6.711144447E0
2.602406480E1,-6.893127441E0,-1.902190328E0,6.710949898E0
2.604433501E1,-6.893940449E0,-1.903006434E0,6.709884167E0
2.606460517E1,-6.894898415E0,-1.903312445E0,6.708813667E0
2.608487537E1,-6.895308018E0,-1.903376698E0,6.708373547E0
2.610514553E1,-6.895486832E0,-1.903417945E0,6.708177567E0
2.612541574E1,-6.895608425E0,-1.903599858E0,6.708000660E0
2.614568589E1,-6.895949841E0,-1.904571772E0,6.707374573E0
2.616595610E1,-6.896552563E0,-1.905407667E0,6.706516743E0
2.618622626E1,-6.896850109E0,-1.905116320E0,6.706294060E0
2.620649647E1,-6.897144318E0,-1.904998064E0,6.706024647E0
2.622676662E1,-6.896732807E0,-1.905460954E0,6.706317425E0
2.624703683E1,-6.896183014E0,-1.905546427E0,6.706857204E0
2.626730699E1,-6.895390511E0,-1.905279160E0,6.707747936E0
2.628757720E1,-6.894728184E0,-1.904485345E0,6.708654881E0
2.630784735E1,-6.894065380E0,-1.903976560E0,6.709480286E0
2.632811756E1,-6.893110752E0,-1.903882384E0,6.710486889E0
2.634838772E1,-6.892356873E0,-1.904992104E0,6.710947990E0
2.636878772E1,-6.892366409E0,-1.905536056E0,6.710782528E0
2.638892808E1,-6.892255306E0,-1.904998422E0,6.711049557E0
2.640919824E1,-6.892193794E0,-1.904796481E0,6.711169720E0
2.642946839E1,-6.892366409E0,-1.905636430E0,6.710753918E0
2.644973855E1,-6.892511845E0,-1.907848477E0,6.709976673E0
2.647000881E1,-6.892880917E0,-1.909044147E0,6.709257126E0
2.649027897E1,-6.893176556E0,-1.907024264E0,6.709528446E0
2.651054918E1,-6.892353535E0,-1.904356480E0,6.711131096E0
2.653081933E1,-6.891946316E0,-1.901814938E0,6.712269783E0
2.655108949E1,-6.893225670E0,-1.900455594E0,6.711340904E0
2.657148949E1,-6.895097733E0,-1.899776816E0,6.709609032E0
2.659162985E1,-6.896185398E0,-1.899953365E0,6.708442211E0
2.661190001E1,-6.896600723E0,-1.900250912E0,6.707930565E0
2.663217022E1,-6.896971703E0,-1.899610639E0,6.707730293E0
2.665244037E1,-6.896817684E0,-1.899718046E0,6.707858562E0
2.667284037E1,-6.896286011E0,-1.900764227E0,6.708108902E0
2.669298074E1,-6.895492554E0,-1.901543021E0,6.708703518E0
2.671325089E1,-6.894734383E0,-1.900960445E0,6.709647179E0
2.673352105E1,-6.894249439E0,-1.899578452E0,6.710538387E0
2.675379126E1,-6.893880844E0,-1.898858190E0,6.711119175E0
2.677419126E1,-6.894120216E0,-1.899078131E0,6.710811615E0
2.679433157E1,-6.894572258E0,-1.900185227E0,6.710033417E0
2.681460173E1,-6.894554615E0,-1.901234984E0,6.709754944E0
2.683487188E1,-6.894041538E0,-1.902069092E0,6.710044861E0
2.685514209E1,-6.892507553E0,-1.901653409E0,6.711739063E0
2.687554209E1,-6.891240120E0,-1.900300980E0,6.713424206E0
2.689584037E1,-6.890510559E0,-1.898056149E0,6.714807510E0
2.691595324E1,-6.890272617E0,-1.895370007E0,6.715809822E0
2.693622324E1,-6.890948296E0,-1.893002152E0,6.715785503E0
2.695649329E1,-6.891794682E0,-1.892833233E0,6.714964390E0
2.697689329E1,-6.892529011E0,-1.894284725E0,6.713799953E0
2.699703360E1,-6.893205643E0,-1.896465540E0,6.712490082E0
2.701730366E1,-6.893752575E0,-1.898793101E0,6.711268902E0
2.703757376E1,-6.893574238E0,-1.901044846E0,6.710816860E0
2.705784392E1,-6.893666267E0,-1.901937246E0,6.710468292E0
2.707824392E1,-6.893485069E0,-1.902449965E0,6.710508823E0
2.709838423E1,-6.892685413E0,-1.901880622E0,6.711491585E0
2.711865444E1,-6.892085552E0,-1.901035786E0,6.712348461E0
2.713896392E1,-6.891428947E0,-1.900204182E0,6.713255882E0
2.715935282E1,-6.890994549E0,-1.899146318E0,6.714002609E0
2.717962272E1,-6.890757084E0,-1.898226261E0,6.714506149E0
2.719973558E1,-6.890777588E0,-1.898440003E0,6.714425564E0
2.722013558E1,-6.890516758E0,-1.899241924E0,6.714464188E0
2.724043366E1,-6.890613079E0,-1.901068687E0,6.713848591E0
2.726054647E1,-6.890680313E0,-1.902266026E0,6.713440895E0
2.728081647E1,-6.890299320E0,-1.901724935E0,6.713985443E0
2.730108647E1,-6.889326096E0,-1.900762558E0,6.715256691E0
2.732135652E1,-6.888842583E0,-1.899381876E0,6.716144085E0
2.734162657E1,-6.889424324E0,-1.899256706E0,6.715582371E0
2.736189668E1,-6.890505314E0,-1.900499821E0,6.714121342E0
2.738216678E1,-6.891522408E0,-1.901315212E0,6.712845802E0
2.740243683E1,-6.892045021E0,-1.901201129E0,6.712343216E0
2.742270699E1,-6.892017841E0,-1.899584293E0,6.712827682E0
2.744297714E1,-6.891615391E0,-1.899080992E0,6.713383675E0
2.746324730E1,-6.892013073E0,-1.900588512E0,6.712548256E0
2.748351746E1,-6.893013477E0,-1.902120113E0,6.711087704E0
2.750378761E1,-6.893823624E0,-1.901874900E0,6.710324764E0
2.752405777E1,-6.893522263E0,-1.900039315E0,6.711154461E0
2.754432793E1,-6.892548561E0,-1.898064613E0,6.712713718E0
2.756459808E1,-6.892014027E0,-1.896394372E0,6.713733673E0
2.758486829E1,-6.893167973E0,-1.894694924E0,6.713028431E0
2.760513845E1,-6.894236088E0,-1.893297195E0,6.712326527E0
2.762540860E1,-6.894633770E0,-1.892826557E0,6.712049961E0
2.764567871E1,-6.894629002E0,-1.894228339E0,6.711660862E0
2.766594892E1,-6.894498348E0,-1.897171855E0,6.710962296E0
2.768621907E1,-6.894226551E0,-1.899544239E0,6.710569859E0
2.770648923E1,-6.893312454E0,-1.900969028E0,6.711105347E0
2.772675938E1,-6.891890049E0,-1.901417136E0,6.712440968E0
2.774702959E1,-6.890343666E0,-1.901433229E0,6.714024067E0
2.776742959E1,-6.889390469E0,-1.901534200E0,6.714972496E0
2.778756990E1,-6.888716221E0,-1.901775479E0,6.715595722E0
2.780784006E1,-6.887884617E0,-1.901790261E0,6.716445923E0
2.782811027E1,-6.886696815E0,-1.901619434E0,6.717711449E0
2.784838043E1,-6.885966778E0,-1.901929259E0,6.718372345E0
2.786865058E1,-6.885709286E0,-1.901147723E0,6.718856812E0
2.788892079E1,-6.886067867E0,-1.900493145E0,6.718672752E0
2.790919095E1,-6.886620045E0,-1.900180459E0,6.718195915E0
2.792946110E1,-6.887746334E0,-1.899339914E0,6.717278957E0
2.794973131E1,-6.889293671E0,-1.898101687E0,6.716041565E0
2.797000147E1,-6.891348362E0,-1.895996571E0,6.714529037E0
2.799027162E1,-6.893104076E0,-1.894264102E0,6.713215828E0
2.801054183E1,-6.895036221E0,-1.893166661E0,6.711540699E0
2.803081199E1,-6.896817207E0,-1.893406153E0,6.709643841E0
2.805108214E1,-6.898556709E0,-1.896281481E0,6.707041264E0
2.807148214E1,-6.900365829E0,-1.900330663E0,6.704035759E0
2.809162251E1,-6.901768208E0,-1.903000832E0,6.701833725E0
2.811189267E1,-6.901807785E0,-1.903301358E0,6.701706886E0
2.813216287E1,-6.900236130E0,-1.902276516E0,6.703617573E0
2.815243303E1,-6.897936821E0,-1.901908517E0,6.706086159E0
2.817283303E1,-6.896625996E0,-1.902099609E0,6.707379818E0
2.819297339E1,-6.895559311E0,-1.902416110E0,6.708386898E0
2.821324360E1,-6.894520283E0,-1.901794076E0,6.709631920E0
2.823351376E1,-6.892938137E0,-1.901148081E0,6.711440563E0
2.825378392E1,-6.891538620E0,-1.900739193E0,6.712992668E0
2.827418392E1,-6.890290737E0,-1.900653839E0,6.714297295E0
2.829448220E1,-6.889030457E0,-1.901215315E0,6.715432644E0
2.831459506E1,-6.888246059E0,-1.901918888E0,6.716038704E0
2.833486506E1,-6.888147831E0,-1.903021336E0,6.715826511E0
2.835513516E1,-6.888750553E0,-1.903999805E0,6.714930534E0
2.837553517E1,-6.889738083E0,-1.904699206E0,6.713718891E0
2.839567543E1,-6.891174316E0,-1.905309200E0,6.712069988E0
2.841594553E1,-6.892661572E0,-1.904981732E0,6.710637093E0
2.843621563E1,-6.893564701E0,-1.903578043E0,6.710107327E0
2.845648574E1,-6.894055367E0,-1.902065635E0,6.710032463E0
2.847688574E1,-6.894716740E0,-1.901363254E0,6.709552288E0
2.849702605E1,-6.895668507E0,-1.901607752E0,6.708504200E0
2.851729626E1,-6.896667957E0,-1.902914405E0,6.707105637E0
2.853756647E1,-6.897217751E0,-1.903969049E0,6.706242085E0
2.855783657E1,-6.897274494E0,-1.904403925E0,6.706059933E0
2.857823657E1,-6.896484375E0,-1.904432774E0,6.706864357E0
2.859837694E1,-6.895264149E0,-1.904976845E0,6.707964897E0
2.861864709E1,-6.894050598E0,-1.905402422E0,6.709091187E0
2.863891730E1,-6.893236160E0,-1.905655861E0,6.709855556E0
2.865931730E1,-6.892603397E0,-1.906110048E0,6.710375309E0
2.867961558E1,-6.892511845E0,-1.906246305E0,6.710432053E0
2.869972839E1,-6.892165661E0,-1.906361699E0,6.710752964E0
2.871999850E1,-6.891664982E0,-1.906237006E0,6.711305141E0
2.874026850E1,-6.891347408E0,-1.905961275E0,6.711708546E0
2.876053860E1,-6.891481876E0,-1.905781031E0,6.711621761E0
2.878080871E1,-6.891570091E0,-1.904978395E0,6.711759567E0
2.880107881E1,-6.891411304E0,-1.904237390E0,6.712131023E0
2.882134897E1,-6.891398430E0,-1.904281855E0,6.712132931E0
2.884161912E1,-6.891791344E0,-1.904903054E0,6.711551666E0
2.886188928E1,-6.892670155E0,-1.906086206E0,6.710313797E0
2.888215944E1,-6.893182755E0,-1.906984210E0,6.709532738E0
2.890242959E1,-6.893830299E0,-1.906466961E0,6.709013939E0
2.892269975E1,-6.894024372E0,-1.905435324E0,6.709108353E0
2.894296990E1,-6.893750668E0,-1.904215097E0,6.709735870E0
2.896324006E1,-6.893616199E0,-1.903391361E0,6.710108757E0
2.898351027E1,-6.893069744E0,-1.903187990E0,6.710727692E0
2.900378043E1,-6.892459393E0,-1.902295351E0,6.711606979E0
2.902405058E1,-6.891782761E0,-1.902187586E0,6.712332249E0
2.904432074E1,-6.891620159E0,-1.903118253E0,6.712234497E0
2.906459089E1,-6.891404152E0,-1.903656244E0,6.712304592E0
2.908486105E1,-6.891127110E0,-1.903688788E0,6.712579250E0
2.910513126E1,-6.890364170E0,-1.903985739E0,6.713278294E0
2.912540142E1,-6.889625549E0,-1.903966904E0,6.714041710E0
2.914567157E1,-6.889173508E0,-1.903483272E0,6.714642525E0
2.916607157E1,-6.889127254E0,-1.902631283E0,6.714931011E0
2.918621194E1,-6.889680862E0,-1.901740313E0,6.714616776E0
2.920648209E1,-6.889919758E0,-1.900625348E0,6.714687347E0
2.922675225E1,-6.890190601E0,-1.900670886E0,6.714396477E0
2.924702246E1,-6.890582561E0,-1.900509119E0,6.714039326E0
2.926729261E1,-6.891042709E0,-1.900471210E0,6.713578701E0
2.928756277E1,-6.891450405E0,-1.901346803E0,6.712910652E0
2.930783298E1,-6.891446590E0,-1.901679277E0,6.712821007E0
2.932810313E1,-6.890821934E0,-1.901231289E0,6.713590145E0
2.934837329E1,-6.890167236E0,-1.900871754E0,6.714363098E0
2.936864345E1,-6.889926434E0,-1.900634408E0,6.714678288E0
2.938891360E1,-6.889682293E0,-1.901059747E0,6.714807987E0
2.940918376E1,-6.889314175E0,-1.901275039E0,6.715123653E0
2.942945397E1,-6.888728619E0,-1.901158929E0,6.715758324E0
2.944972412E1,-6.888188839E0,-1.900650382E0,6.716454983E0
2.946999428E1,-6.887535095E0,-1.899962664E0,6.717319965E0
2.949026444E1,-6.887346268E0,-1.899515271E0,6.717640400E0
2.951053459E1,-6.887216091E0,-1.899947762E0,6.717650890E0
2.953080480E1,-6.887072086E0,-1.900837064E0,6.717547417E0
2.955107496E1,-6.887178421E0,-1.900941491E0,6.717409134E0
2.957147496E1,-6.887148380E0,-1.900703311E0,6.717505932E0
2.959161527E1,-6.887446880E0,-1.900627732E0,6.717222214E0
2.961188543E1,-6.888097763E0,-1.901043653E0,6.716436863E0
2.963215558E1,-6.888597488E0,-1.901405573E0,6.715822697E0
2.965242574E1,-6.888692379E0,-1.901331663E0,6.715745926E0
2.967282574E1,-6.888627052E0,-1.900542974E0,6.716035366E0
2.969312397E1,-6.888156891E0,-1.899975061E0,6.716679573E0
2.971323683E1,-6.888166904E0,-1.900184751E0,6.716609478E0
2.973350688E1,-6.888778687E0,-1.900436759E0,6.715909958E0
2.975377694E1,-6.888522148E0,-1.900430918E0,6.716174603E0
2.977417694E1,-6.888371468E0,-1.900470734E0,6.716319084E0
2.979431720E1,-6.887965202E0,-1.900536537E0,6.716716290E0
2.981458725E1,-6.887948036E0,-1.900300860E0,6.716800213E0
2.983485735E1,-6.887948513E0,-1.899931192E0,6.716905117E0
2.985512746E1,-6.887705326E0,-1.899818420E0,6.717187881E0
2.987552746E1,-6.887652397E0,-1.899791837E0,6.717248440E0
2.989566777E1,-6.887516499E0,-1.899772286E0,6.717393398E0
2.991593798E1,-6.887806892E0,-1.899683475E0,6.717121124E0
2.993620808E1,-6.888558388E0,-1.900055289E0,6.716244221E0
2.995647824E1,-6.888961792E0,-1.900611758E0,6.715673447E0
2.997687824E1,-6.888725281E0,-1.901108742E0,6.715775490E0
2.999701850E1,-6.888474941E0,-1.901348114E0,6.715963840E0
3.001728871E1,-6.888288975E0,-1.901324272E0,6.716161728E0
3.003755881E1,-6.887585163E0,-1.901085019E0,6.716951847E0
3.005782902E1,-6.886949539E0,-1.901083231E0,6.717602730E0
3.007822902E1,-6.886476040E0,-1.900892377E0,6.718142509E0
3.009836923E1,-6.886487484E0,-1.900939703E0,6.718117714E0
3.011863938E1,-6.886521816E0,-1.901227355E0,6.717999935E0
3.013890954E1,-6.886518002E0,-1.901099682E0,6.718041420E0
3.015930954E1,-6.886686802E0,-1.901027203E0,6.717888832E0
3.017960777E1,-6.886775970E0,-1.900863528E0,6.717843533E0
3.019972063E1,-6.886783600E0,-1.901254296E0,6.717725277E0
3.022012063E1,-6.887084961E0,-1.901793480E0,6.717262745E0
3.024026079E1,-6.887305737E0,-1.901839256E0,6.717023373E0
3.026053084E1,-6.887584209E0,-1.901005030E0,6.716975212E0
3.028080095E1,-6.887413025E0,-1.900658727E0,6.717248440E0
3.030107100E1,-6.887625217E0,-1.900692105E0,6.717020988E0
3.032134110E1,-6.888012886E0,-1.900856495E0,6.716577053E0
3.034161121E1,-6.888298988E0,-1.901123166E0,6.716209412E0
3.036188136E1,-6.888219833E0,-1.900790095E0,6.716383457E0
3.038215147E1,-6.887469769E0,-1.900747776E0,6.717164993E0
3.040242162E1,-6.887235165E0,-1.900995374E0,6.717335224E0
3.042269178E1,-6.886920452E0,-1.901718140E0,6.717453480E0
3.044296188E1,-6.886849880E0,-1.902145743E0,6.717404842E0
3.046323204E1,-6.886775017E0,-1.900968552E0,6.717814922E0
3.048350220E1,-6.886377811E0,-1.899887204E0,6.718527317E0
3.050377230E1,-6.886169434E0,-1.899602294E0,6.718821526E0
3.052404251E1,-6.886521816E0,-1.900019169E0,6.718342304E0
3.054431261E1,-6.886737347E0,-1.900469780E0,6.717993736E0
3.056458272E1,-6.886767864E0,-1.900620103E0,6.717920303E0
3.058485287E1,-6.886622906E0,-1.900596261E0,6.718076706E0
3.060512298E1,-6.886700630E0,-1.900405049E0,6.718050957E0
3.062539313E1,-6.887115955E0,-1.899932265E0,6.717757225E0
3.064566329E1,-6.887509346E0,-1.899960041E0,6.717348576E0
3.066593345E1,-6.887883663E0,-1.900290608E0,6.716870785E0
3.068620355E1,-6.888545513E0,-1.900290608E0,6.716190815E0
3.070647371E1,-6.888974667E0,-1.899566531E0,6.715955734E0
3.072674386E1,-6.889177322E0,-1.899768233E0,6.715690613E0
3.074701397E1,-6.889545441E0,-1.900421739E0,6.715127945E0
3.076728412E1,-6.890171528E0,-1.900833011E0,6.714368820E0
3.078755428E1,-6.890154839E0,-1.901086688E0,6.714314938E0
3.080782444E1,-6.889950275E0,-1.901591539E0,6.714381218E0
3.082809454E1,-6.888992310E0,-1.902067542E0,6.715229988E0
3.084836470E1,-6.888757706E0,-1.901737094E0,6.715565205E0
3.086863485E1,-6.888164997E0,-1.901321292E0,6.716290474E0
3.088890496E1,-6.887264729E0,-1.900949359E0,6.717319012E0
3.090917511E1,-6.886902809E0,-1.901313066E0,6.717585564E0
3.092944522E1,-6.887153625E0,-1.901651025E0,6.717234135E0
3.094971537E1,-6.887529373E0,-1.902329206E0,6.716656208E0
3.096998553E1,-6.888207436E0,-1.902832985E0,6.715818882E0
3.099025563E1,-6.888315201E0,-1.903838158E0,6.715422630E0
3.101052579E1,-6.888136864E0,-1.904863238E0,6.715315342E0
3.103079589E1,-6.888100147E0,-1.905256152E0,6.715240955E0
3.105106605E1,-6.888192654E0,-1.905128002E0,6.715183735E0
3.107146605E1,-6.888635635E0,-1.904888630E0,6.714796543E0
3.109156678E1,-6.888700485E0,-1.904584169E0,6.714816093E0
3.111187626E1,-6.888565063E0,-1.904322505E0,6.715029716E0
3.113214647E1,-6.888849735E0,-1.904472709E0,6.714694977E0
3.115241662E1,-6.889364243E0,-1.904606104E0,6.714129448E0
3.117281662E1,-6.889388084E0,-1.904726982E0,6.714070320E0
3.119295694E1,-6.889420033E0,-1.904939055E0,6.713977814E0
3.121322704E1,-6.889518261E0,-1.904939413E0,6.713875294E0
3.123349714E1,-6.889748096E0,-1.905161262E0,6.713577271E0
3.125376730E1,-6.889788628E0,-1.907245994E0,6.712942123E0
3.127416730E1,-6.890261173E0,-1.908492804E0,6.712105751E0
3.129430756E1,-6.890391350E0,-1.908899665E0,6.711855412E0
3.131457772E1,-6.890192986E0,-1.908716559E0,6.712111473E0
3.133497772E1,-6.890012264E0,-1.907583714E0,6.712617874E0
3.135511798E1,-6.889718056E0,-1.906943917E0,6.713101387E0
3.137551798E1,-6.889643669E0,-1.906471372E0,6.713311672E0
3.139565824E1,-6.889853954E0,-1.905341983E0,6.713416576E0
3.141592834E1,-6.889712811E0,-1.906078219E0,6.713352203E0
3.143619845E1,-6.890118599E0,-1.906615496E0,6.712784290E0
3.145646860E1,-6.890398502E0,-1.906779766E0,6.712450981E0
3.147686860E1,-6.890419006E0,-1.906390071E0,6.712539673E0
3.149700886E1,-6.889953136E0,-1.905516863E0,6.713266373E0
3.151727897E1,-6.889433384E0,-1.905565977E0,6.713785172E0
3.153754907E1,-6.889768600E0,-1.906288981E0,6.713237286E0
3.155781918E1,-6.891077518E0,-1.906684518E0,6.711780548E0
3.157821918E1,-6.891306877E0,-1.905936599E0,6.711757660E0
3.159835944E1,-6.891436100E0,-1.904581666E0,6.712007999E0
3.161875944E1,-6.891100407E0,-1.903552651E0,6.712645531E0
3.163889964E1,-6.890395164E0,-1.903518558E0,6.713377953E0
3.165929964E1,-6.889960289E0,-1.903728008E0,6.713765144E0
3.167959782E1,-6.889490604E0,-1.904740214E0,6.713960171E0
3.169971063E1,-6.889277935E0,-1.905376554E0,6.713998795E0
3.171998058E1,-6.888744831E0,-1.905571461E0,6.714490414E0
3.174025058E1,-6.888638496E0,-1.905519009E0,6.714614391E0
3.176052069E1,-6.888179302E0,-1.904977322E0,6.715239525E0
3.178079069E1,-6.887906551E0,-1.904415369E0,6.715678215E0
3.180106074E1,-6.887811661E0,-1.903931975E0,6.715913296E0
3.182133079E1,-6.887849808E0,-1.903659582E0,6.715950489E0
3.184160089E1,-6.887681484E0,-1.903997183E0,6.716026783E0
3.186187100E1,-6.887817383E0,-1.904042840E0,6.715875626E0
3.188214110E1,-6.887778759E0,-1.903465271E0,6.716078758E0
3.190241121E1,-6.887745857E0,-1.902148366E0,6.716485500E0
3.192268126E1,-6.887358665E0,-1.901500940E0,6.717064381E0
3.194295136E1,-6.887748718E0,-1.902561188E0,6.716365337E0
3.196322152E1,-6.888320446E0,-1.903530002E0,6.715504646E0
3.198349162E1,-6.888239384E0,-1.904032111E0,6.715445518E0
3.200376173E1,-6.887462139E0,-1.903677106E0,6.716342449E0
3.202403183E1,-6.886845112E0,-1.903741479E0,6.716957569E0
3.204430188E1,-6.886621952E0,-1.904904485E0,6.716858387E0
3.206457199E1,-6.886953831E0,-1.905797720E0,6.716262341E0
3.208484209E1,-6.886727333E0,-1.904535294E0,6.716852188E0
3.210511220E1,-6.885753632E0,-1.902639627E0,6.718389988E0
3.212538230E1,-6.884331703E0,-1.900980949E0,6.720314503E0
3.214565240E1,-6.883164406E0,-1.900754333E0,6.721575260E0
3.216592246E1,-6.883265495E0,-1.901515484E0,6.721255779E0
3.218619256E1,-6.883653164E0,-1.902175665E0,6.720672131E0
3.220646272E1,-6.883348465E0,-1.902719378E0,6.720830917E0
3.222673277E1,-6.883080959E0,-1.903605819E0,6.720852375E0
3.224700287E1,-6.883450508E0,-1.903772831E0,6.720427513E0
3.226727298E1,-6.883761406E0,-1.903574347E0,6.720164776E0
3.228754308E1,-6.884275436E0,-1.903416753E0,6.719682693E0
3.230781319E1,-6.884463787E0,-1.902763367E0,6.719676495E0
3.232808329E1,-6.885190487E0,-1.901773214E0,6.719211102E0
3.234835339E1,-6.885476112E0,-1.901253343E0,6.719065189E0
3.236862350E1,-6.885868073E0,-1.900758028E0,6.718803406E0
3.238889360E1,-6.886475563E0,-1.900631905E0,6.718217373E0
3.240916360E1,-6.886443615E0,-1.900232673E0,6.718363285E0
3.242943376E1,-6.886246681E0,-1.900043011E0,6.718618870E0
3.244970386E1,-6.886096001E0,-1.899886370E0,6.718817234E0
3.246997392E1,-6.885665894E0,-1.900493503E0,6.719086170E0
3.249024402E1,-6.885051250E0,-1.901069164E0,6.719552994E0
3.251051412E1,-6.884431362E0,-1.901822090E0,6.719975471E0
3.253078423E1,-6.884016037E0,-1.902223229E0,6.720286369E0
3.255105433E1,-6.883516788E0,-1.902482510E0,6.720726013E0
3.257145433E1,-6.883287907E0,-1.902478695E0,6.720961571E0
3.259159449E1,-6.883016109E0,-1.902131319E0,6.721336365E0
3.261186459E1,-6.883052826E0,-1.901932478E0,6.721355438E0
3.263213470E1,-6.883240223E0,-1.901460767E0,6.721297264E0
3.265240475E1,-6.883575916E0,-1.901047349E0,6.721071720E0
3.267280475E1,-6.883513451E0,-1.900323629E0,6.721338749E0
3.269294496E1,-6.883648872E0,-1.900054097E0,6.721275806E0
3.271321501E1,-6.883916378E0,-1.899974942E0,6.721024990E0
3.273348511E1,-6.884274483E0,-1.900026798E0,6.720644951E0
3.275375522E1,-6.884648800E0,-1.899837494E0,6.720313549E0
3.277415522E1,-6.884973049E0,-1.899917364E0,6.719958305E0
3.279429537E1,-6.885169506E0,-1.899950147E0,6.719748974E0
3.281456548E1,-6.885262012E0,-1.899672389E0,6.719731331E0
3.283483553E1,-6.885038853E0,-1.900071740E0,6.719847679E0
3.285510563E1,-6.884723663E0,-1.900829911E0,6.719957352E0
3.287550563E1,-6.884367943E0,-1.900298595E0,6.720471382E0
3.289564579E1,-6.884466171E0,-1.899273634E0,6.720660210E0
3.291591589E1,-6.884129524E0,-1.898540974E0,6.721210957E0
3.293618595E1,-6.884032249E0,-1.899026275E0,6.721174717E0
3.295645605E1,-6.884519577E0,-1.899421573E0,6.720563412E0
3.297685605E1,-6.885051727E0,-1.900064468E0,6.719837666E0
3.299699621E1,-6.884737492E0,-1.900236368E0,6.720109463E0
3.301739621E1,-6.884364128E0,-1.899903059E0,6.720585823E0
3.303753636E1,-6.884141445E0,-1.899606347E0,6.720898151E0
3.305780647E1,-6.884020329E0,-1.898982048E0,6.721199989E0
3.307820647E1,-6.884550095E0,-1.898813009E0,6.720704556E0
3.309834662E1,-6.884849548E0,-1.898876429E0,6.720379353E0
3.311861668E1,-6.885004044E0,-1.898742080E0,6.720260143E0
3.313888673E1,-6.885192871E0,-1.898458242E0,6.720146656E0
3.315928673E1,-6.885256290E0,-1.898445964E0,6.720083237E0
3.317958480E1,-6.885332584E0,-1.898806214E0,6.719904900E0
3.319969761E1,-6.885416985E0,-1.898368835E0,6.719942570E0
3.322009761E1,-6.885175705E0,-1.897989392E0,6.720296383E0
3.324023761E1,-6.885179043E0,-1.897915959E0,6.720313549E0
3.326050756E1,-6.885284424E0,-1.897948861E0,6.720195770E0
3.328077756E1,-6.884852886E0,-1.898419738E0,6.720505714E0
3.330104756E1,-6.884884357E0,-1.899205923E0,6.720251083E0
3.332131756E1,-6.884580612E0,-1.900798082E0,6.720111370E0
3.334158766E1,-6.884302139E0,-1.902249932E0,6.719986439E0
3.336185766E1,-6.884159088E0,-1.902645111E0,6.720022202E0
3.338212772E1,-6.883987427E0,-1.902819157E0,6.720148087E0
3.340239782E1,-6.884028912E0,-1.902762294E0,6.720122337E0
3.342266787E1,-6.884358883E0,-1.902271986E0,6.719921589E0
3.344293787E1,-6.884609699E0,-1.902442098E0,6.719616413E0
3.346320798E1,-6.884989262E0,-1.901839495E0,6.719398975E0
3.348347803E1,-6.884981155E0,-1.901356339E0,6.719542980E0
3.350374808E1,-6.884874344E0,-1.901041508E0,6.719741344E0
3.352401819E1,-6.885096550E0,-1.900941372E0,6.719542980E0
3.354428824E1,-6.885483742E0,-1.901162267E0,6.719084263E0
3.356455824E1,-6.886116028E0,-1.901518941E0,6.718335152E0
3.358482834E1,-6.886487007E0,-1.901609898E0,6.717929363E0
3.360509839E1,-6.886831760E0,-1.901826620E0,6.717513084E0
3.362536845E1,-6.886711597E0,-1.901516795E0,6.717724323E0
3.364563850E1,-6.886609554E0,-1.902626276E0,6.717515469E0
3.366590855E1,-6.886754513E0,-1.904520273E0,6.716830730E0
3.368617866E1,-6.887112617E0,-1.905391812E0,6.716216087E0
3.370644871E1,-6.887461662E0,-1.904824018E0,6.716018200E0
3.372671876E1,-6.887157917E0,-1.903796554E0,6.716620445E0
3.374698881E1,-6.886806965E0,-1.902983069E0,6.717211246E0
3.376725886E1,-6.886798382E0,-1.902784824E0,6.717276573E0
3.378752892E1,-6.886848450E0,-1.902724028E0,6.717242718E0
3.380779902E1,-6.887374401E0,-1.903456569E0,6.716495037E0
3.382806907E1,-6.887742043E0,-1.904274583E0,6.715885639E0
3.384833912E1,-6.887973785E0,-1.904568911E0,6.715565205E0
3.386860918E1,-6.888386250E0,-1.904644489E0,6.715120316E0
3.388887923E1,-6.888362885E0,-1.904676199E0,6.715135574E0
3.390914928E1,-6.888185024E0,-1.904248357E0,6.715439320E0
3.392941933E1,-6.887873650E0,-1.904095292E0,6.715803146E0
3.394981933E1,-6.887930393E0,-1.904016256E0,6.715766430E0
3.397011782E1,-6.888003349E0,-1.903661132E0,6.715794086E0
3.399023048E1,-6.888173580E0,-1.903740764E0,6.715595245E0
3.401050037E1,-6.888554096E0,-1.902989388E0,6.715417862E0
3.403077027E1,-6.888577461E0,-1.902213097E0,6.715614796E0
3.405104016E1,-6.888250828E0,-1.901265264E0,6.716218472E0
3.407144017E1,-6.888255596E0,-1.900680304E0,6.716378689E0
3.409158016E1,-6.888198853E0,-1.900858045E0,6.716385841E0
3.411185011E1,-6.887736320E0,-1.901597619E0,6.716651440E0
3.413212011E1,-6.887024879E0,-1.901855946E0,6.717306614E0
3.415239011E1,-6.886795998E0,-1.901826501E0,6.717550278E0
3.417279011E1,-6.887527466E0,-1.902252793E0,6.716680050E0
3.419293016E1,-6.887998104E0,-1.903075933E0,6.715964317E0
3.421320016E1,-6.888502598E0,-1.903996587E0,6.715184689E0
3.423347022E1,-6.888586044E0,-1.904424429E0,6.714979172E0
3.425374027E1,-6.887613297E0,-1.904053450E0,6.716081142E0
3.427414027E1,-6.886420727E0,-1.903229117E0,6.717538357E0
3.429428032E1,-6.885415077E0,-1.902682662E0,6.718723297E0
3.431455032E1,-6.885233879E0,-1.902426600E0,6.718981266E0
3.433482037E1,-6.885993958E0,-1.902821064E0,6.718091011E0
3.435509043E1,-6.887021542E0,-1.903094172E0,6.716960907E0
3.437549043E1,-6.887283802E0,-1.903304696E0,6.716632366E0
3.439563048E1,-6.886262894E0,-1.902548552E0,6.717893124E0
3.441590053E1,-6.885563374E0,-1.901648879E0,6.718863964E0
3.443617058E1,-6.885481834E0,-1.901638508E0,6.718950748E0
3.445644063E1,-6.885569572E0,-1.902458906E0,6.718629360E0
3.447671063E1,-6.885893345E0,-1.903119206E0,6.718110085E0
3.449698063E1,-6.886070728E0,-1.902713537E0,6.718042850E0
3.451725069E1,-6.885496616E0,-1.901852012E0,6.718875408E0
3.453752074E1,-6.884486675E0,-1.901191473E0,6.720097065E0
3.455779079E1,-6.883995533E0,-1.901073456E0,6.720633507E0
3.457806084E1,-6.883889675E0,-1.900881886E0,6.720795631E0
3.459833084E1,-6.883505344E0,-1.901075363E0,6.721134663E0
3.461860089E1,-6.883222580E0,-1.901615024E0,6.721272945E0
3.463887089E1,-6.883296967E0,-1.901622534E0,6.721193314E0
3.465914095E1,-6.883399963E0,-1.901311159E0,6.721175671E0
3.467941100E1,-6.883148670E0,-1.900176048E0,6.721754551E0
3.469968100E1,-6.883079052E0,-1.899687529E0,6.721963882E0
3.471995105E1,-6.883326530E0,-1.900035620E0,6.721611977E0
3.474022110E1,-6.883893490E0,-1.900382400E0,6.720933437E0
3.476049110E1,-6.884581089E0,-1.900677085E0,6.720145702E0
3.478076116E1,-6.884776592E0,-1.900489330E0,6.719998360E0
3.480103116E1,-6.884695053E0,-1.899892449E0,6.720251560E0
3.482130116E1,-6.884176731E0,-1.899235606E0,6.720966816E0
3.484157121E1,-6.883787155E0,-1.899400949E0,6.721319675E0
3.486184126E1,-6.884176731E0,-1.899851799E0,6.720793724E0
3.488211131E1,-6.884854317E0,-1.900834918E0,6.719821453E0
3.490238131E1,-6.885078907E0,-1.901268840E0,6.719468594E0
3.492265131E1,-6.884527206E0,-1.901090622E0,6.720083714E0
3.494292136E1,-6.883737087E0,-1.900085449E0,6.721176624E0
3.496319142E1,-6.883436203E0,-1.898921371E0,6.721814632E0
3.498346142E1,-6.883430481E0,-1.898419857E0,6.721961498E0
3.500373142E1,-6.883692265E0,-1.898603082E0,6.721642494E0
3.502400147E1,-6.884041786E0,-1.899087429E0,6.721147537E0
3.504427147E1,-6.884002209E0,-1.899853587E0,6.720971584E0
3.506454152E1,-6.883889198E0,-1.899853110E0,6.721086979E0
3.508481152E1,-6.883628368E0,-1.899230480E0,6.721530914E0
3.510508157E1,-6.883853912E0,-1.898765564E0,6.721430302E0
3.512535157E1,-6.884175301E0,-1.898401856E0,6.721203327E0
3.514562157E1,-6.884469032E0,-1.898441315E0,6.720891953E0
3.516589162E1,-6.884691715E0,-1.898776770E0,6.720569611E0
3.518616162E1,-6.884983540E0,-1.898721218E0,6.720286846E0
3.520643162E1,-6.884997845E0,-1.897859097E0,6.720514297E0
3.522683162E1,-6.884779930E0,-1.897650242E0,6.720796108E0
3.524697168E1,-6.884445667E0,-1.898627520E0,6.720862865E0
3.526724173E1,-6.884539604E0,-1.899177432E0,6.720612049E0
3.528751173E1,-6.884544373E0,-1.899291873E0,6.720574379E0
3.530778173E1,-6.884372711E0,-1.898658037E0,6.720929146E0
3.532805178E1,-6.884481907E0,-1.898123026E0,6.720968723E0
3.534832178E1,-6.884713650E0,-1.898414135E0,6.720650196E0
3.536859178E1,-6.885069847E0,-1.899617672E0,6.719944477E0
3.538886183E1,-6.884709835E0,-1.900317788E0,6.720114231E0
3.540913183E1,-6.884203434E0,-1.899938226E0,6.720741272E0
3.542940183E1,-6.883771896E0,-1.898877263E0,6.721482754E0
3.544967188E1,-6.883491516E0,-1.898315191E0,6.721928596E0
3.547007188E1,-6.884078979E0,-1.897874713E0,6.721451759E0
3.549021188E1,-6.884771824E0,-1.897692442E0,6.720793247E0
3.551048188E1,-6.884926796E0,-1.897826195E0,6.720596790E0
3.553075194E1,-6.885273457E0,-1.897951126E0,6.720205784E0
3.555102194E1,-6.885708332E0,-1.898170829E0,6.719698906E0
3.557142194E1,-6.886105061E0,-1.898475289E0,6.719204903E0
3.559156194E1,-6.886502266E0,-1.898702502E0,6.718735695E0
3.561183194E1,-6.886685371E0,-1.899108887E0,6.718434334E0
3.563210199E1,-6.886419773E0,-1.899294496E0,6.718653679E0
3.565237199E1,-6.886045456E0,-1.899596453E0,6.718950748E0
3.567277199E1,-6.885903835E0,-1.899710059E0,6.719063759E0
3.569291199E1,-6.885924816E0,-1.899960876E0,6.718971252E0
3.571318199E1,-6.886043072E0,-1.900070906E0,6.718818665E0
3.573345199E1,-6.885907173E0,-1.901153564E0,6.718652248E0
3.575372199E1,-6.885921001E0,-1.901597619E0,6.718511581E0
3.577412199E1,-6.885593891E0,-1.902084470E0,6.718708992E0
3.579426204E1,-6.884967327E0,-1.902769089E0,6.719156742E0
3.581453204E1,-6.884647369E0,-1.902657986E0,6.719517708E0
3.583480204E1,-6.884656906E0,-1.901551127E0,6.719820499E0
3.585507204E1,-6.884781837E0,-1.900248408E0,6.720060825E0
3.587530272E1,-6.884789944E0,-1.898899794E0,6.720434666E0
3.589561199E1,-6.885121346E0,-1.898602247E0,6.720178127E0
3.591588199E1,-6.885672092E0,-1.898493409E0,6.719644547E0
3.593615204E1,-6.886223793E0,-1.899193764E0,6.718881607E0
3.595642204E1,-6.886649609E0,-1.900109053E0,6.718185902E0
3.597682204E1,-6.887217045E0,-1.901040196E0,6.717340469E0
3.599696204E1,-6.887890339E0,-1.902050257E0,6.716365337E0
3.601723204E1,-6.888105869E0,-1.902993679E0,6.715876102E0
3.603750204E1,-6.887903690E0,-1.904060602E0,6.715781212E0
3.605777204E1,-6.888142109E0,-1.904733300E0,6.715345860E0
3.607804204E1,-6.888644695E0,-1.905814648E0,6.714522839E0
3.609831204E1,-6.889373302E0,-1.906054020E0,6.713708878E0
3.611857759E1,-6.889609337E0,-1.906014919E0,6.713476658E0
3.613884707E1,-6.888827801E0,-1.905466795E0,6.714435101E0
3.615911707E1,-6.887052059E0,-1.905210376E0,6.716330051E0
3.617938707E1,-6.885423183E0,-1.904418588E0,6.718222618E0
3.619965707E1,-6.884600639E0,-1.903837085E0,6.719230652E0
3.621992707E1,-6.884212971E0,-1.904054165E0,6.719566822E0
3.624019707E1,-6.884992599E0,-1.904236913E0,6.718715668E0
3.626046707E1,-6.886307240E0,-1.905168414E0,6.717104435E0
3.628073707E1,-6.887434959E0,-1.906282306E0,6.715631485E0
3.630100707E1,-6.888624668E0,-1.907031178E0,6.714199066E0
3.632127702E1,-6.888378620E0,-1.907967806E0,6.714185715E0
3.634154702E1,-6.887709141E0,-1.908452749E0,6.714734554E0
3.636181696E1,-6.887253761E0,-1.908724308E0,6.715125084E0
3.638208702E1,-6.887000084E0,-1.909053326E0,6.715290070E0
3.640235702E1,-6.888188362E0,-1.909289241E0,6.714004517E0
3.642262702E1,-6.888666630E0,-1.909572840E0,6.713433743E0
3.644289696E1,-6.888233662E0,-1.907974362E0,6.714332104E0
3.646316691E1,-6.887508869E0,-1.905538559E0,6.715767860E0
3.648343696E1,-6.886692047E0,-1.903116822E0,6.717291832E0
3.650370696E1,-6.885463715E0,-1.901922941E0,6.718888760E0
3.652397696E1,-6.884807110E0,-1.901924491E0,6.719561100E0
3.654424691E1,-6.884004116E0,-1.903581738E0,6.719914913E0
3.656451691E1,-6.883005142E0,-1.905124187E0,6.720499992E0
3.658478691E1,-6.882083416E0,-1.905812263E0,6.721249104E0
3.660505691E1,-6.881897926E0,-1.905746102E0,6.721457481E0
3.662532686E1,-6.881974220E0,-1.905749917E0,6.721378326E0
3.664559686E1,-6.882069111E0,-1.905700088E0,6.721296310E0
3.666586686E1,-6.882091522E0,-1.905789137E0,6.721246719E0
3.668613686E1,-6.881586552E0,-1.905913353E0,6.721729755E0
3.670640686E1,-6.880920410E0,-1.905222058E0,6.722608089E0
3.672667681E1,-6.880621433E0,-1.904503584E0,6.723116875E0
3.674694681E1,-6.880993843E0,-1.903961539E0,6.722890377E0
3.676721681E1,-6.881817341E0,-1.902475476E0,6.722466946E0
3.678748681E1,-6.881787300E0,-1.901176810E0,6.722865582E0
3.680775681E1,-6.880897522E0,-1.900773287E0,6.723889828E0
3.682802676E1,-6.879948616E0,-1.901153088E0,6.724752903E0
3.684829676E1,-6.879638672E0,-1.900773644E0,6.725177765E0
3.686869676E1,-6.880469322E0,-1.900604486E0,6.724376678E0
3.688883676E1,-6.881033421E0,-1.900819778E0,6.723737240E0
3.690910676E1,-6.881045341E0,-1.901582837E0,6.723509789E0
3.692937676E1,-6.880831718E0,-1.902669311E0,6.723421574E0
3.694964670E1,-6.879996777E0,-1.903126359E0,6.724145889E0
3.696991670E1,-6.878792286E0,-1.902845144E0,6.725457668E0
3.699018670E1,-6.878360748E0,-1.902150393E0,6.726096630E0
3.701045670E1,-6.878564358E0,-1.900716424E0,6.726293087E0
3.703072670E1,-6.879145622E0,-1.899586797E0,6.726017475E0
3.705099670E1,-6.879950523E0,-1.898740292E0,6.725433350E0
3.707139670E1,-6.880666256E0,-1.898021698E0,6.724904537E0
3.709153665E1,-6.880968094E0,-1.897946477E0,6.724616528E0
3.711180665E1,-6.881428719E0,-1.897944450E0,6.724144936E0
3.713207665E1,-6.881978989E0,-1.898653626E0,6.723382473E0
3.715234665E1,-6.881542206E0,-1.899235368E0,6.723664761E0
3.717274665E1,-6.880564213E0,-1.899329066E0,6.724638939E0
3.719288665E1,-6.879330158E0,-1.899392962E0,6.725883961E0
3.721315665E1,-6.878707409E0,-1.899458289E0,6.726502419E0
3.723342665E1,-6.878115654E0,-1.899862289E0,6.726992130E0
3.725369665E1,-6.878026962E0,-1.899986386E0,6.727047920E0
3.727409665E1,-6.878362179E0,-1.899346352E0,6.726886272E0
3.729423660E1,-6.877976418E0,-1.898594379E0,6.727493286E0
3.731450660E1,-6.877451420E0,-1.897282481E0,6.728400230E0
3.733477660E1,-6.877527714E0,-1.896332145E0,6.728590965E0
3.735504660E1,-6.877571583E0,-1.896448612E0,6.728512764E0
3.737544660E1,-6.878339767E0,-1.896135330E0,6.727814674E0
3.739558660E1,-6.879264832E0,-1.896221161E0,6.726845264E0
3.741585660E1,-6.879633904E0,-1.896698952E0,6.726332664E0
3.743612660E1,-6.879589558E0,-1.896772265E0,6.726358414E0
3.745639655E1,-6.879496098E0,-1.896906257E0,6.726415634E0
3.747666660E1,-6.879670143E0,-1.897939682E0,6.725946903E0
3.749693655E1,-6.879484653E0,-1.898753762E0,6.725906372E0
3.751720655E1,-6.879245281E0,-1.899158120E0,6.726036549E0
3.753747655E1,-6.878458023E0,-1.899306774E0,6.726800442E0
3.755774655E1,-6.877008915E0,-1.899373055E0,6.728263378E0
3.757801655E1,-6.875747681E0,-1.899688005E0,6.729462624E0
3.759828655E1,-6.874898911E0,-1.899764419E0,6.730308533E0
3.761855655E1,-6.874248028E0,-1.899097443E0,6.731160641E0
3.763882655E1,-6.873928070E0,-1.897565842E0,6.731919765E0
3.765909655E1,-6.873502731E0,-1.896389127E0,6.732686043E0
3.767936655E1,-6.873356819E0,-1.896170020E0,6.732895851E0
3.769963655E1,-6.873883247E0,-1.897001028E0,6.732125282E0
3.771990655E1,-6.874826431E0,-1.897816181E0,6.730931759E0
3.774017650E1,-6.875309944E0,-1.898544073E0,6.730232239E0
3.776044650E1,-6.875604153E0,-1.898899794E0,6.729831219E0
3.778071650E1,-6.875907898E0,-1.898943782E0,6.729508400E0
3.780098650E1,-6.876291275E0,-1.899080396E0,6.729078770E0
3.782125650E1,-6.876782417E0,-1.899267673E0,6.728523254E0
3.784152650E1,-6.877108574E0,-1.899094701E0,6.728237152E0
3.786179650E1,-6.876873016E0,-1.898882508E0,6.728539467E0
3.788206650E1,-6.876326084E0,-1.898371816E0,6.729242325E0
3.790233650E1,-6.876113415E0,-1.897766948E0,6.729630947E0
3.792260650E1,-6.876026154E0,-1.897215009E0,6.729876518E0
3.794287650E1,-6.875955105E0,-1.896889448E0,6.730038643E0
3.796314644E1,-6.875116348E0,-1.897141099E0,6.730825424E0
3.798341644E1,-6.874068737E0,-1.897823095E0,6.731703281E0
3.800368644E1,-6.873491764E0,-1.898276925E0,6.732162952E0
3.802395644E1,-6.873382092E0,-1.898364663E0,6.732253075E0
3.804422644E1,-6.873127937E0,-1.898609757E0,6.732443333E0
3.806449644E1,-6.873119831E0,-1.899363995E0,6.732238770E0
3.808476644E1,-6.873785496E0,-1.899862409E0,6.731418610E0
3.810503644E1,-6.874428272E0,-1.900454402E0,6.730592728E0
3.812530644E1,-6.874986172E0,-1.900776267E0,6.729933739E0
3.814557644E1,-6.875862122E0,-1.900087118E0,6.729232788E0
3.816584639E1,-6.876724243E0,-1.899739385E0,6.728450298E0
3.818611639E1,-6.877224922E0,-1.899655342E0,6.727962971E0
3.820638639E1,-6.877538681E0,-1.899463773E0,6.727694035E0
3.822678639E1,-6.877638817E0,-1.898727894E0,6.727799892E0
3.824692639E1,-6.877286911E0,-1.898148775E0,6.728323936E0
3.826731519E1,-6.876850605E0,-1.898361564E0,6.728709698E0
3.828746634E1,-6.876579762E0,-1.898679018E0,6.728897572E0
3.830773634E1,-6.876238346E0,-1.899206042E0,6.729097366E0
3.832800634E1,-6.875872612E0,-1.899796605E0,6.729303360E0
3.834827634E1,-6.875258446E0,-1.900781751E0,6.729653358E0
3.836854634E1,-6.874722004E0,-1.902586102E0,6.729691505E0
3.838881634E1,-6.874759674E0,-1.903930783E0,6.729273319E0
3.840908629E1,-6.874910355E0,-1.903509974E0,6.729238510E0
3.842935629E1,-6.875165462E0,-1.902164340E0,6.729359150E0
3.844962629E1,-6.875152588E0,-1.900800586E0,6.729756832E0
3.846989629E1,-6.875323296E0,-1.899906278E0,6.729834557E0
3.849016629E1,-6.876461506E0,-1.899604201E0,6.728757858E0
3.851043629E1,-6.877573013E0,-1.899141908E0,6.727752209E0
3.853070624E1,-6.878597736E0,-1.899583936E0,6.726578712E0
3.855097624E1,-6.879842281E0,-1.900598288E0,6.725019455E0
3.857137624E1,-6.881639004E0,-1.901858449E0,6.722824097E0
3.859151624E1,-6.882582664E0,-1.902219653E0,6.721755981E0
3.861178618E1,-6.882193565E0,-1.902247906E0,6.722147465E0
3.863205618E1,-6.881384373E0,-1.902755380E0,6.722831726E0
3.865232618E1,-6.881044388E0,-1.902690887E0,6.723197460E0
3.867272618E1,-6.880805969E0,-1.902758718E0,6.723422050E0
3.869286613E1,-6.880475521E0,-1.903040290E0,6.723680973E0
3.871313613E1,-6.879995346E0,-1.903125167E0,6.724147797E0
3.873340613E1,-6.879235268E0,-1.903093100E0,6.724934101E0
3.875367608E1,-6.878040314E0,-1.902541518E0,6.726313114E0
3.877407608E1,-6.876685619E0,-1.902673960E0,6.727660179E0
3.879421608E1,-6.876401424E0,-1.903228760E0,6.727794170E0
3.881448608E1,-6.876175404E0,-1.904172421E0,6.727757931E0
3.883475608E1,-6.875775814E0,-1.904826522E0,6.727982044E0
3.885502603E1,-6.875612736E0,-1.904466271E0,6.728249550E0
3.887525749E1,-6.875614643E0,-1.903690100E0,6.728467464E0
3.889556598E1,-6.875447273E0,-1.902596235E0,6.728947639E0
3.891583592E1,-6.875500679E0,-1.901425242E0,6.729224205E0
3.893610598E1,-6.875778675E0,-1.900740743E0,6.729133129E0
3.895637598E1,-6.876861095E0,-1.901290894E0,6.727873325E0
3.897664598E1,-6.877785206E0,-1.902613163E0,6.726553917E0
3.899691592E1,-6.878309727E0,-1.903732777E0,6.725699902E0
3.901718592E1,-6.878375530E0,-1.903837442E0,6.725602150E0
3.903745587E1,-6.877754211E0,-1.903541923E0,6.726322174E0
3.905772587E1,-6.877314091E0,-1.903087854E0,6.726901531E0
3.907799587E1,-6.877045155E0,-1.902042508E0,6.727472305E0
3.909826582E1,-6.877228260E0,-1.902335644E0,6.727200985E0
3.911853582E1,-6.877957821E0,-1.903278947E0,6.726188660E0
3.913880582E1,-6.877817631E0,-1.903276443E0,6.726333141E0
3.915907577E1,-6.877410889E0,-1.901996136E0,6.727111340E0
3.917934577E1,-6.876296520E0,-1.900784850E0,6.728591919E0
3.919961572E1,-6.875751495E0,-1.900866747E0,6.729125023E0
3.921988572E1,-6.875764370E0,-1.902041197E0,6.728781223E0
3.924015572E1,-6.875875473E0,-1.903587818E0,6.728229523E0
3.926042572E1,-6.875597000E0,-1.904450417E0,6.728271008E0
3.928069566E1,-6.874699116E0,-1.904406786E0,6.729200363E0
3.930096566E1,-6.874229431E0,-1.903913260E0,6.729819775E0
3.932123561E1,-6.874712944E0,-1.903174281E0,6.729534149E0
3.934150561E1,-6.875019550E0,-1.902889490E0,6.729301453E0
3.936177556E1,-6.875727177E0,-1.903057933E0,6.728531837E0
3.938204556E1,-6.875849247E0,-1.902548075E0,6.728551388E0
3.940231556E1,-6.875771999E0,-1.902061582E0,6.728768349E0
3.942258551E1,-6.876218319E0,-1.901701689E0,6.728412628E0
3.944285551E1,-6.877118587E0,-1.901975274E0,6.727416039E0
3.946312545E1,-6.877889633E0,-1.902231336E0,6.726555347E0
3.948339545E1,-6.878673553E0,-1.902999640E0,6.725534916E0
3.950366540E1,-6.879382133E0,-1.903555274E0,6.724653244E0
3.952393540E1,-6.879573345E0,-1.903808117E0,6.724386215E0
3.954420535E1,-6.879860878E0,-1.903626680E0,6.724143505E0
3.956447535E1,-6.879970074E0,-1.903320909E0,6.724118233E0
3.958474530E1,-6.880148411E0,-1.903340459E0,6.723930836E0
3.960501530E1,-6.880434990E0,-1.903545141E0,6.723579884E0
3.962528525E1,-6.881082058E0,-1.903445959E0,6.722946167E0
3.964555525E1,-6.881362438E0,-1.903059721E0,6.722766876E0
3.966582519E1,-6.881332874E0,-1.902118921E0,6.723063946E0
3.968609519E1,-6.881291866E0,-1.901699066E0,6.723224640E0
3.970636514E1,-6.881809235E0,-1.902683139E0,6.722417355E0
3.972663514E1,-6.882320881E0,-1.903324485E0,6.721712589E0
3.974690504E1,-6.882072449E0,-1.902309775E0,6.722252846E0
3.976717509E1,-6.881076813E0,-1.901137829E0,6.723602772E0
3.978744504E1,-6.880366802E0,-1.900385857E0,6.724541187E0
3.980771499E1,-6.880394459E0,-1.900311351E0,6.724534512E0
3.982798499E1,-6.880975723E0,-1.900357723E0,6.723927975E0
3.984825493E1,-6.880898952E0,-1.899565339E0,6.724229813E0
3.986852488E1,-6.879473209E0,-1.899582505E0,6.725682735E0
3.988879488E1,-6.878626823E0,-1.901282072E0,6.726068497E0
3.990906483E1,-6.878361225E0,-1.903804898E0,6.725627422E0
3.992933478E1,-6.877942562E0,-1.904433727E0,6.725876808E0
3.994960478E1,-6.876169205E0,-1.902516365E0,6.728233814E0
3.996987473E1,-6.873787880E0,-1.899921060E0,6.731399059E0
3.999014472E1,-6.873162270E0,-1.899440885E0,6.732172012E0
4.001041467E1,-6.873756886E0,-1.900346518E0,6.731309414E0
4.003068462E1,-6.875113487E0,-1.900833726E0,6.729786396E0
4.005095457E1,-6.875340939E0,-1.901206493E0,6.729448318E0
4.007135457E1,-6.874898911E0,-1.901608109E0,6.729787350E0
4.009149452E1,-6.874904156E0,-1.901340008E0,6.729857445E0
4.011176446E1,-6.875971317E0,-1.900947690E0,6.728878498E0
4.013203447E1,-6.877916813E0,-1.901764393E0,6.726658821E0
4.015230441E1,-6.879197121E0,-1.901987672E0,6.725285053E0
4.017270441E1,-6.880042076E0,-1.901982784E0,6.724424362E0
4.019284436E1,-6.880279541E0,-1.901937962E0,6.724192142E0
4.021311431E1,-6.880598068E0,-1.902071357E0,6.723829746E0
4.023338426E1,-6.880837917E0,-1.901431084E0,6.723764896E0
4.025365420E1,-6.881010056E0,-1.900375724E0,6.723886013E0
4.027405420E1,-6.881188393E0,-1.899254799E0,6.724020958E0
4.029419415E1,-6.880598068E0,-1.898688674E0,6.724785328E0
4.031446410E1,-6.880120754E0,-1.899029136E0,6.725178242E0
4.033473405E1,-6.879581451E0,-1.899625897E0,6.725561142E0
4.035500400E1,-6.878345013E0,-1.900625229E0,6.726543427E0
4.037540400E1,-6.877254009E0,-1.901723862E0,6.727347851E0
4.039554394E1,-6.876767635E0,-1.902756572E0,6.727553844E0
4.041581389E1,-6.876723766E0,-1.903693080E0,6.727332592E0
4.043608384E1,-6.876889229E0,-1.904499531E0,6.726935863E0
4.045635374E1,-6.877400398E0,-1.904776096E0,6.726333618E0
4.047662379E1,-6.878229141E0,-1.905073285E0,6.725403786E0
4.049689374E1,-6.879122257E0,-1.904608965E0,6.724621296E0
4.051716368E1,-6.879953861E0,-1.903080702E0,6.724203110E0
4.053743363E1,-6.880011082E0,-1.901084423E0,6.724709511E0
4.055770358E1,-6.880446911E0,-1.899473786E0,6.724719048E0
4.057797358E1,-6.881504536E0,-1.898439169E0,6.723928452E0
4.059824353E1,-6.882147789E0,-1.897430420E0,6.723554611E0
4.061851348E1,-6.882075787E0,-1.897684932E0,6.723556519E0
4.063878342E1,-6.881960869E0,-1.898988485E0,6.723305702E0
4.065905337E1,-6.881351948E0,-1.900507450E0,6.723500729E0
4.067932332E1,-6.880743504E0,-1.901329279E0,6.723890781E0
4.069959327E1,-6.879300117E0,-1.901480079E0,6.725325108E0
4.071986322E1,-6.877593040E0,-1.901914120E0,6.726947784E0
4.074013316E1,-6.876350880E0,-1.902561903E0,6.728034019E0
4.076040316E1,-6.875333309E0,-1.903115034E0,6.728918076E0
4.078067311E1,-6.874385357E0,-1.902467728E0,6.730068684E0
4.080094306E1,-6.873512745E0,-1.900860071E0,6.731413841E0
4.082121301E1,-6.873130322E0,-1.900085568E0,6.732022762E0
4.084148295E1,-6.873932838E0,-1.899830222E0,6.731275558E0
4.086175290E1,-6.875279903E0,-1.899616718E0,6.729961395E0
4.088202285E1,-6.876126289E0,-1.899395347E0,6.729158878E0
4.090229280E1,-6.876486301E0,-1.899330616E0,6.728808880E0
4.092256275E1,-6.876911640E0,-1.899611235E0,6.728295326E0
4.094283269E1,-6.877598286E0,-1.900165558E0,6.727436066E0
4.096310264E1,-6.878341198E0,-1.900524378E0,6.726574898E0
4.098337259E1,-6.878880501E0,-1.900430918E0,6.726049900E0
4.100364254E1,-6.878333092E0,-1.900013447E0,6.726727486E0
4.102391243E1,-6.877885342E0,-1.899587989E0,6.727305889E0
4.104418238E1,-6.877397060E0,-1.899404049E0,6.727856636E0
4.106445233E1,-6.876412392E0,-1.899511218E0,6.728833675E0
4.108472228E1,-6.875975132E0,-1.899484634E0,6.729286671E0
4.110499223E1,-6.875298977E0,-1.899152517E0,6.730072975E0
4.112526217E1,-6.874659061E0,-1.898909330E0,6.730793953E0
4.114553212E1,-6.874041080E0,-1.898423672E0,6.731562614E0
4.116580196E1,-6.873761177E0,-1.898259401E0,6.731894970E0
4.118607197E1,-6.873632431E0,-1.898080945E0,6.732077122E0
4.120634191E1,-6.873542309E0,-1.897596240E0,6.732305050E0
4.122674191E1,-6.873640060E0,-1.897427917E0,6.732252598E0
4.124688176E1,-6.874151230E0,-1.897509336E0,6.731707096E0
4.126715170E1,-6.874662876E0,-1.898015499E0,6.731041431E0
4.128742165E1,-6.875079632E0,-1.897957325E0,6.730634212E0
4.130769160E1,-6.875547409E0,-1.897811532E0,6.730196953E0
4.132796150E1,-6.875854492E0,-1.897834420E0,6.729875565E0
4.134823144E1,-6.875789642E0,-1.897757292E0,6.729964256E0
4.136850139E1,-6.876033783E0,-1.897767425E0,6.729712009E0
4.138877129E1,-6.876143932E0,-1.897109628E0,6.729784489E0
4.140904124E1,-6.875567436E0,-1.896398425E0,6.730574131E0
4.142931118E1,-6.875248909E0,-1.896379113E0,6.730905533E0
4.144958108E1,-6.875298500E0,-1.896962047E0,6.730691433E0
4.146985103E1,-6.874811649E0,-1.897273898E0,6.731100559E0
4.149012087E1,-6.874271393E0,-1.897518516E0,6.731582165E0
4.151039087E1,-6.873555660E0,-1.897571325E0,6.732298851E0
4.153066082E1,-6.873152256E0,-1.897787452E0,6.732648373E0
4.155093072E1,-6.873075962E0,-1.898602605E0,6.732497692E0
4.157133072E1,-6.872921944E0,-1.899442315E0,6.732418537E0
4.159147056E1,-6.872668743E0,-1.899062276E0,6.732783318E0
4.161174051E1,-6.872808933E0,-1.898321152E0,6.732850552E0
4.163201040E1,-6.872921467E0,-1.898108482E0,6.732794762E0
4.165228035E1,-6.873412132E0,-1.898393035E0,6.732213974E0
4.167268035E1,-6.874085903E0,-1.898718715E0,6.731433392E0
4.169282019E1,-6.874665737E0,-1.898557305E0,6.730886936E0
4.171309014E1,-6.875204086E0,-1.897265673E0,6.730700493E0
4.173336004E1,-6.875104904E0,-1.896600842E0,6.730988503E0
4.175362999E1,-6.875252247E0,-1.897065759E0,6.730709553E0
4.177402999E1,-6.875298977E0,-1.897503376E0,6.730537891E0
4.179416983E1,-6.875122547E0,-1.897559285E0,6.730702877E0
4.181443972E1,-6.874351978E0,-1.897525787E0,6.731499195E0
4.183470967E1,-6.873781681E0,-1.897522449E0,6.732080936E0
4.185497957E1,-6.873758316E0,-1.897557497E0,6.732096195E0
4.187537957E1,-6.873765469E0,-1.897529960E0,6.732096672E0
4.189551941E1,-6.873679638E0,-1.898005366E0,6.732048988E0
4.191578936E1,-6.873867512E0,-1.898062468E0,6.731841564E0
4.193605920E1,-6.874019623E0,-1.897796273E0,6.731761456E0
4.195632915E1,-6.874463558E0,-1.898258924E0,6.731177330E0
4.197672915E1,-6.875276089E0,-1.898826361E0,6.730188370E0
