"Time (s)","Acceleration x (m/s^2)","Acceleration y (m/s^2)","Acceleration z (m/s^2)"
3.887505800E-2,-2.188337088E0,-8.707154989E-1,9.519633293E0
5.905776600E-2,-2.183725119E0,-8.739276528E-1,9.520398140E0
7.924089100E-2,-2.177045822E0,-8.742344975E-1,9.521899223E0
9.942453700E-2,-2.177632332E0,-8.728635311E-1,9.521890640E0
1.196089120E-1,-2.177876472E0,-8.723106980E-1,9.521886826E0
1.397941200E-1,-2.174450636E0,-8.735474944E-1,9.522555351E0
1.599802660E-1,-2.173115492E0,-8.750912547E-1,9.522718430E0
1.801673500E-1,-2.175174713E0,-8.746223450E-1,9.522292137E0
2.003553700E-1,-2.176216841E0,-8.732917905E-1,9.522175789E0
2.205443290E-1,-2.174194098E0,-8.737127185E-1,9.522598267E0
2.407341200E-1,-2.170986176E0,-8.754094243E-1,9.523175240E0
2.609246410E-1,-2.170116901E0,-8.755653501E-1,9.523358345E0
2.811157870E-1,-2.170626640E0,-8.744750023E-1,9.523343086E0
3.013074540E-1,-2.171300650E0,-8.742166162E-1,9.523213387E0
3.214994330E-1,-2.171660185E0,-8.746275306E-1,9.523092270E0
3.416916200E-1,-2.172187805E0,-8.747134209E-1,9.522965431E0
3.618946410E-1,-2.172559738E0,-8.744841814E-1,9.522900581E0
3.820732870E-1,-2.171367884E0,-8.743982911E-1,9.523180962E0
4.022522450E-1,-2.170385361E0,-8.741896749E-1,9.523424149E0
4.224319330E-1,-2.171200991E0,-8.724219799E-1,9.523400307E0
4.426126620E-1,-2.173289299E0,-8.693676591E-1,9.523202896E0
4.627946410E-1,-2.174876213E0,-8.679692745E-1,9.522968292E0
4.829780790E-1,-2.176892996E0,-8.671006560E-1,9.522587776E0
5.031630790E-1,-2.178634644E0,-8.658759594E-1,9.522299767E0
5.233497450E-1,-2.179030657E0,-8.634065986E-1,9.522433281E0
5.435380790E-1,-2.180226803E0,-8.611809015E-1,9.522361755E0
5.637279750E-1,-2.181247473E0,-8.610376120E-1,9.522140503E0
5.839193290E-1,-2.181570053E0,-8.608633280E-1,9.522082329E0
6.041119330E-1,-2.183758020E0,-8.594533205E-1,9.521708488E0
6.243055790E-1,-2.187083483E0,-8.579846025E-1,9.521078110E0
6.444999540E-1,-2.189107656E0,-8.563169837E-1,9.520762444E0
6.646947450E-1,-2.190341949E0,-8.550615311E-1,9.520590782E0
6.848897450E-1,-2.191640139E0,-8.549018502E-1,9.520306587E0
7.050832870E-1,-2.191792011E0,-8.546833396E-1,9.520292282E0
7.252714120E-1,-2.192684889E0,-8.545477986E-1,9.520098686E0
7.454541200E-1,-2.194533825E0,-8.549610376E-1,9.519634247E0
7.656372450E-1,-2.196563959E0,-8.548415899E-1,9.519177437E0
7.858208910E-1,-2.197741747E0,-8.548006415E-1,9.518910408E0
8.060052660E-1,-2.196680069E0,-8.554822206E-1,9.519093513E0
8.261904750E-1,-2.196336985E0,-8.547369838E-1,9.519239426E0
8.463766200E-1,-2.197776794E0,-8.537717462E-1,9.518994331E0
8.665637040E-1,-2.196763515E0,-8.541046381E-1,9.519197464E0
8.867517250E-1,-2.196581841E0,-8.545506001E-1,9.519198418E0
9.069406830E-1,-2.198031425E0,-8.548308015E-1,9.518839836E0
9.271304750E-1,-2.197248697E0,-8.546193242E-1,9.519040108E0
9.473209950E-1,-2.193624735E0,-8.530476689E-1,9.520015717E0
9.675121410E-1,-2.190244198E0,-8.511896729E-1,9.520960808E0
9.877038080E-1,-2.189006805E0,-8.507277966E-1,9.521286964E0
1.007895787E0,-2.190317154E0,-8.497207761E-1,9.521075249E0
1.028087975E0,-2.192447186E0,-8.453683257E-1,9.520971298E0
1.048290995E0,-2.194761515E0,-8.414969444E-1,9.520782471E0
1.068469433E0,-2.200386286E0,-8.406936526E-1,9.519555092E0
1.088648183E0,-2.205628395E0,-8.404970169E-1,9.518359184E0
1.108827662E0,-2.206869841E0,-8.384847045E-1,9.518248558E0
1.129008183E0,-2.205619097E0,-8.359760642E-1,9.518759727E0
1.149189954E0,-2.205298901E0,-8.361549973E-1,9.518817902E0
1.169373183E0,-2.205679655E0,-8.373380303E-1,9.518625259E0
1.189558079E0,-2.207680941E0,-8.388391733E-1,9.518028259E0
1.209744641E0,-2.211868048E0,-8.420081735E-1,9.516777992E0
1.229932870E0,-2.216960669E0,-8.457778096E-1,9.515257835E0
1.250157297E0,-2.220064878E0,-8.481660485E-1,9.514321327E0
1.270350579E0,-2.219717264E0,-8.480439782E-1,9.514412880E0
1.290538652E0,-2.217348337E0,-8.469796777E-1,9.515060425E0
1.310723964E0,-2.216102600E0,-8.449421525E-1,9.515531540E0
1.330906777E0,-2.217043161E0,-8.434607983E-1,9.515443802E0
1.351090110E0,-2.216328859E0,-8.431860209E-1,9.515634537E0
1.371274120E0,-2.214016438E0,-8.438953161E-1,9.516110420E0
1.391458912E0,-2.212807655E0,-8.455450535E-1,9.516244888E0
1.411644589E0,-2.212506533E0,-8.476547003E-1,9.516127586E0
1.431831204E0,-2.210930586E0,-8.484199643E-1,9.516425133E0
1.452018756E0,-2.209410429E0,-8.468873501E-1,9.516915321E0
1.472207245E0,-2.210646868E0,-8.437933922E-1,9.516902924E0
1.492396620E0,-2.212528467E0,-8.415982723E-1,9.516659737E0
1.512586777E0,-2.213400841E0,-8.418743610E-1,9.516432762E0
1.532777610E0,-2.214416027E0,-8.416396976E-1,9.516218185E0
1.552969016E0,-2.215144873E0,-8.415619731E-1,9.516055107E0
1.573160839E0,-2.213719845E0,-8.441807032E-1,9.516155243E0
1.593352922E0,-2.213207006E0,-8.460557461E-1,9.516107559E0
1.613550527E0,-2.214352608E0,-8.467756510E-1,9.515775681E0
1.633741256E0,-2.215004206E0,-8.467304707E-1,9.515628815E0
1.653919850E0,-2.215505838E0,-8.456634879E-1,9.515607834E0
1.674098964E0,-2.216374159E0,-8.451138139E-1,9.515453339E0
1.694278964E0,-2.216308355E0,-8.464000821E-1,9.515355110E0
1.714460110E0,-2.215029001E0,-8.477097750E-1,9.515535355E0
1.734642610E0,-2.213735342E0,-8.475010395E-1,9.515855789E0
1.754826672E0,-2.212512016E0,-8.479761481E-1,9.516098022E0
1.775012402E0,-2.210955143E0,-8.487538099E-1,9.516389847E0
1.795199797E0,-2.210023165E0,-8.486871123E-1,9.516613007E0
1.815388808E0,-2.210980177E0,-8.496977687E-1,9.516300201E0
1.835579329E0,-2.213354111E0,-8.509992957E-1,9.515631676E0
1.855771204E0,-2.213927746E0,-8.510048985E-1,9.515498161E0
1.875964225E0,-2.213331699E0,-8.495395184E-1,9.515768051E0
1.896158183E0,-2.212667704E0,-8.504886031E-1,9.515836716E0
1.916352818E0,-2.210633278E0,-8.527802825E-1,9.516104698E0
1.936547818E0,-2.207958698E0,-8.532226682E-1,9.516686440E0
1.956742766E0,-2.206515074E0,-8.521745801E-1,9.517115593E0
1.976934225E0,-2.206202984E0,-8.509746790E-1,9.517294884E0
1.997122297E0,-2.206230402E0,-8.494277596E-1,9.517426491E0
2.017307610E0,-2.206349611E0,-8.473300338E-1,9.517585754E0
2.037490422E0,-2.206380367E0,-8.468822241E-1,9.517619133E0
2.057673756E0,-2.205099821E0,-8.478020430E-1,9.517833710E0
2.077857766E0,-2.203383207E0,-8.477960825E-1,9.518232346E0
2.098042558E0,-2.203350544E0,-8.463454247E-1,9.518367767E0
2.118228235E0,-2.203907490E0,-8.452067971E-1,9.518340111E0
2.138414850E0,-2.204091549E0,-8.450720310E-1,9.518310547E0
2.158602402E0,-2.204388380E0,-8.451564908E-1,9.518233299E0
2.178790891E0,-2.205136299E0,-8.451285362E-1,9.518063545E0
2.198980266E0,-2.205796480E0,-8.448199034E-1,9.517936707E0
2.219170422E0,-2.205944300E0,-8.441659808E-1,9.517960548E0
2.239358339E0,-2.205167532E0,-8.437624574E-1,9.518176079E0
2.259544120E0,-2.204185247E0,-8.443921804E-1,9.518348694E0
2.279730891E0,-2.203997850E0,-8.447116613E-1,9.518362999E0
2.299918704E0,-2.204463243E0,-8.447540402E-1,9.518252373E0
2.320107506E0,-2.204557419E0,-8.432739377E-1,9.518361092E0
2.340297193E0,-2.203865290E0,-8.431990147E-1,9.518527985E0
2.360487662E0,-2.203617573E0,-8.453071117E-1,9.518398285E0
2.380678808E0,-2.204581976E0,-8.461056948E-1,9.518104553E0
2.400870475E0,-2.205791473E0,-8.446088433E-1,9.517956734E0
2.421062506E0,-2.206304073E0,-8.441317081E-1,9.517880440E0
2.441254745E0,-2.206739187E0,-8.440650702E-1,9.517785072E0
2.461446725E0,-2.207533121E0,-8.439240456E-1,9.517614365E0
2.481636620E0,-2.206832647E0,-8.442738652E-1,9.517745972E0
2.501830162E0,-2.205404520E0,-8.449568748E-1,9.518016815E0
2.522018287E0,-2.205323219E0,-8.456065059E-1,9.517976761E0
2.542195787E0,-2.205868721E0,-8.462167978E-1,9.517796516E0
2.562373860E0,-2.205528975E0,-8.473402858E-1,9.517775536E0
2.582552870E0,-2.205552816E0,-8.470692635E-1,9.517793655E0
2.602733183E0,-2.206262350E0,-8.452875614E-1,9.517787933E0
2.622915058E0,-2.207109928E0,-8.441808820E-1,9.517688751E0
2.643098652E0,-2.208065033E0,-8.449733853E-1,9.517397881E0
2.663284068E0,-2.207856178E0,-8.449863791E-1,9.517444611E0
2.683471360E0,-2.207191706E0,-8.445613384E-1,9.517636299E0
2.703660475E0,-2.205867767E0,-8.451887369E-1,9.517888069E0
2.723851308E0,-2.205395222E0,-8.459318876E-1,9.517931938E0
2.744060943E0,-2.205826521E0,-8.459247947E-1,9.517831802E0
2.764270006E0,-2.206626177E0,-8.455107212E-1,9.517683983E0
2.784458027E0,-2.206935406E0,-8.450365067E-1,9.517654419E0
2.804640631E0,-2.207405329E0,-8.445913196E-1,9.517583847E0
2.824823652E0,-2.207693338E0,-8.453142047E-1,9.517453194E0
2.845007297E0,-2.207362652E0,-8.464807272E-1,9.517426491E0
2.865191672E0,-2.206596136E0,-8.460856676E-1,9.517639160E0
2.885376881E0,-2.205356836E0,-8.451797366E-1,9.518007278E0
2.905563027E0,-2.204655886E0,-8.460758924E-1,9.518089294E0
2.920874225E0,-2.205768585E0,-8.463351727E-1,9.517808914E0
2.940879641E0,-2.208013296E0,-8.456416726E-1,9.517350197E0
2.960891933E0,-2.209222555E0,-8.447198272E-1,9.517151833E0
2.980917870E0,-2.209745884E0,-8.450161219E-1,9.517004013E0
3.000963391E0,-2.210938692E0,-8.457881808E-1,9.516657829E0
3.021033391E0,-2.211139202E0,-8.462225795E-1,9.516571999E0
3.041131620E0,-2.209774733E0,-8.466222286E-1,9.516854286E0
3.061260527E0,-2.208407164E0,-8.464988470E-1,9.517182350E0
3.081421256E0,-2.208624363E0,-8.459998965E-1,9.517176628E0
3.101613652E0,-2.209511042E0,-8.451880813E-1,9.517042160E0
3.121836256E0,-2.210665941E0,-8.446367383E-1,9.516823769E0
3.142086516E0,-2.211392164E0,-8.444587588E-1,9.516671181E0
3.162360839E0,-2.211421251E0,-8.440381289E-1,9.516701698E0
3.182654797E0,-2.211065531E0,-8.434528708E-1,9.516836166E0
3.202963391E0,-2.210604906E0,-8.431618214E-1,9.516968727E0
3.223281204E0,-2.210918188E0,-8.429336548E-1,9.516917229E0
3.243602662E0,-2.211260796E0,-8.432254791E-1,9.516810417E0
3.263878912E0,-2.211229086E0,-8.433229923E-1,9.516809464E0
3.284066985E0,-2.211389065E0,-8.428674340E-1,9.516813278E0
3.304252350E0,-2.211389065E0,-8.426679969E-1,9.516830444E0
3.324437922E0,-2.212145805E0,-8.428778052E-1,9.516635895E0
3.344623756E0,-2.212985516E0,-8.427439928E-1,9.516452789E0
3.364809954E0,-2.212691069E0,-8.426631093E-1,9.516528130E0
3.384996568E0,-2.211376429E0,-8.427587748E-1,9.516824722E0
3.405183652E0,-2.210593462E0,-8.426528573E-1,9.517016411E0
3.425371204E0,-2.210735083E0,-8.424517512E-1,9.517001152E0
3.445559225E0,-2.211434364E0,-8.418004513E-1,9.516896248E0
3.465747714E0,-2.212478399E0,-8.417490125E-1,9.516658783E0
3.485936672E0,-2.214628458E0,-8.423163891E-1,9.516107559E0
3.506125995E0,-2.216399193E0,-8.421454430E-1,9.515710831E0
3.526315631E0,-2.216964245E0,-8.416615129E-1,9.515622139E0
3.546505527E0,-2.217016935E0,-8.412824869E-1,9.515643120E0
3.566695579E0,-2.216908693E0,-8.410282731E-1,9.515690804E0
3.586885735E0,-2.216117382E0,-8.414044380E-1,9.515841484E0
3.607081308E0,-2.215289831E0,-8.415202498E-1,9.516024590E0
3.627264537E0,-2.215379238E0,-8.416489959E-1,9.515992165E0
3.647447922E0,-2.216256380E0,-8.410015106E-1,9.515845299E0
3.667631672E0,-2.217081785E0,-8.401923776E-1,9.515724182E0
3.687815943E0,-2.217672586E0,-8.396181464E-1,9.515637398E0
3.708000839E0,-2.218029499E0,-8.397543430E-1,9.515542984E0
3.728186464E0,-2.218112946E0,-8.398112059E-1,9.515517235E0
3.748372922E0,-2.217994452E0,-8.394183517E-1,9.515580177E0
3.768560214E0,-2.217998505E0,-8.386187553E-1,9.515649796E0
3.788748339E0,-2.218167543E0,-8.376268148E-1,9.515697479E0
3.808937297E0,-2.218319416E0,-8.366847038E-1,9.515744209E0
3.829126985E0,-2.218441486E0,-8.358291388E-1,9.515791893E0
3.849317297E0,-2.218509436E0,-8.356679678E-1,9.515789986E0
3.869508131E0,-2.218765020E0,-8.366038203E-1,9.515648842E0
3.889699381E0,-2.219134331E0,-8.376214504E-1,9.515473366E0
3.909890891E0,-2.219035387E0,-8.377758265E-1,9.515481949E0
3.930082506E0,-2.218046904E0,-8.378636241E-1,9.515704155E0
3.950274016E0,-2.216711760E0,-8.379232883E-1,9.516011238E0
3.970462089E0,-2.216341019E0,-8.378086686E-1,9.516107559E0
3.990647454E0,-2.216929913E0,-8.367548585E-1,9.516062737E0
4.010833027E0,-2.217551947E0,-8.363965750E-1,9.515949249E0
4.031018860E0,-2.218255997E0,-8.383571506E-1,9.515613556E0
4.051205058E0,-2.219506741E0,-8.401681185E-1,9.515161514E0
4.071391672E0,-2.220705032E0,-8.401008844E-1,9.514887810E0
4.091578756E0,-2.220501900E0,-8.395518064E-1,9.514983177E0
4.111766308E0,-2.220312119E0,-8.394736052E-1,9.515034676E0
4.131954329E0,-2.220266342E0,-8.396321535E-1,9.515031815E0
4.152142818E0,-2.219858170E0,-8.393251300E-1,9.515153885E0
4.172331725E0,-2.219348192E0,-8.392087221E-1,9.515282631E0
4.192521047E0,-2.219170570E0,-8.396074772E-1,9.515289307E0
4.212710683E0,-2.219659805E0,-8.395856619E-1,9.515176773E0
4.232900579E0,-2.219998360E0,-8.392317295E-1,9.515130043E0
4.253090631E0,-2.219754696E0,-8.391049504E-1,9.515197754E0
4.273280787E0,-2.219446659E0,-8.382034898E-1,9.515348434E0
4.293476360E0,-2.219138384E0,-8.365437984E-1,9.515566826E0
4.313659641E0,-2.219218493E0,-8.354149461E-1,9.515646935E0
4.333843079E0,-2.220052958E0,-8.352144957E-1,9.515469551E0
4.354026881E0,-2.220472336E0,-8.356176615E-1,9.515336990E0
4.374211204E0,-2.219671726E0,-8.362255096E-1,9.515469551E0
4.394396152E0,-2.218644142E0,-8.369396329E-1,9.515646935E0
4.414581829E0,-2.218128443E0,-8.376397491E-1,9.515706062E0
4.434768287E0,-2.217724085E0,-8.378795385E-1,9.515778542E0
4.454955579E0,-2.217798233E0,-8.374655247E-1,9.515797615E0
4.475143704E0,-2.218961239E0,-8.371594548E-1,9.515553474E0
4.495332610E0,-2.220199823E0,-8.373027444E-1,9.515252113E0
4.515522245E0,-2.219984293E0,-8.375435472E-1,9.515280724E0
4.535712506E0,-2.218462467E0,-8.376375437E-1,9.515627861E0
4.555903287E0,-2.217129469E0,-8.375194073E-1,9.515948296E0
4.576094485E0,-2.216937065E0,-8.370233774E-1,9.516036987E0
4.596285943E0,-2.217085838E0,-8.369363546E-1,9.516010284E0
4.616477506E0,-2.217401743E0,-8.378529549E-1,9.515855789E0
4.636666360E0,-2.218247890E0,-8.396745920E-1,9.515498161E0
4.656855266E0,-2.219552755E0,-8.404904008E-1,9.515122414E0
4.677049589E0,-2.220068455E0,-8.404897451E-1,9.515001297E0
4.697233339E0,-2.218678236E0,-8.405485749E-1,9.515320778E0
4.717417245E0,-2.217654228E0,-8.403829336E-1,9.515574455E0
4.737601464E0,-2.217441797E0,-8.402550220E-1,9.515634537E0
4.757786152E0,-2.217882395E0,-8.408973217E-1,9.515475273E0
4.777971412E0,-2.218034029E0,-8.419749737E-1,9.515344620E0
4.798157350E0,-2.217349529E0,-8.428073525E-1,9.515431404E0
4.818344016E0,-2.216366768E0,-8.423707485E-1,9.515698433E0
4.838531412E0,-2.216361046E0,-8.410608768E-1,9.515815735E0
4.858719537E0,-2.217388391E0,-8.401473165E-1,9.515657425E0
4.878908391E0,-2.217719078E0,-8.392822742E-1,9.515657425E0
4.899097922E0,-2.217065811E0,-8.385792375E-1,9.515871048E0
4.919288027E0,-2.216466427E0,-8.383772373E-1,9.516028404E0
4.939478600E0,-2.217191458E0,-8.380072713E-1,9.515891075E0
4.959669537E0,-2.217976093E0,-8.378362060E-1,9.515724182E0
4.979860683E0,-2.217811346E0,-8.385304213E-1,9.515701294E0
5.000051933E0,-2.217110872E0,-8.392221928E-1,9.515803337E0
5.020242714E0,-2.216632366E0,-8.389801383E-1,9.515935898E0
5.040430787E0,-2.216896057E0,-8.380970359E-1,9.515952110E0
5.060616152E0,-2.217247486E0,-8.375632763E-1,9.515917778E0
5.080801725E0,-2.217593670E0,-8.375923038E-1,9.515834808E0
5.100987558E0,-2.217301846E0,-8.382273912E-1,9.515846252E0
5.121173756E0,-2.216714621E0,-8.382540941E-1,9.515980721E0
5.141360370E0,-2.216569901E0,-8.377945423E-1,9.516056061E0
5.161547454E0,-2.216029406E0,-8.378196955E-1,9.516179085E0
5.181735006E0,-2.214716673E0,-8.383787274E-1,9.516435623E0
5.201923027E0,-2.214333773E0,-8.388849497E-1,9.516479492E0
5.222111516E0,-2.215002537E0,-8.391181827E-1,9.516304016E0
5.242300422E0,-2.215381622E0,-8.399231434E-1,9.516143799E0
5.262489745E0,-2.215573549E0,-8.416168690E-1,9.515950203E0
5.282679381E0,-2.216120005E0,-8.429169655E-1,9.515707970E0
5.302869277E0,-2.216482401E0,-8.433566093E-1,9.515583992E0
5.323059329E0,-2.215534925E0,-8.429909348E-1,9.515837669E0
5.343249485E0,-2.214337587E0,-8.423836231E-1,9.516169548E0
5.363445058E0,-2.214182615E0,-8.422211409E-1,9.516220093E0
5.383628235E0,-2.213749886E0,-8.434090614E-1,9.516215324E0
5.403811568E0,-2.213007927E0,-8.452310562E-1,9.516226768E0
5.423995266E0,-2.212517262E0,-8.463553786E-1,9.516241074E0
5.444179485E0,-2.212456465E0,-8.463199735E-1,9.516258240E0
5.464364329E0,-2.212723017E0,-8.456979394E-1,9.516251564E0
5.484549902E0,-2.212631464E0,-8.456531167E-1,9.516276360E0
5.504736308E0,-2.213020802E0,-8.450774550E-1,9.516237259E0
5.524923600E0,-2.212953329E0,-8.440430164E-1,9.516344070E0
5.545111725E0,-2.211934328E0,-8.439080715E-1,9.516593933E0
5.565300683E0,-2.210755110E0,-8.441920280E-1,9.516842842E0
5.585490370E0,-2.209772348E0,-8.445873260E-1,9.517035484E0
5.605680735E0,-2.209437847E0,-8.450810313E-1,9.517069817E0
5.625871620E0,-2.209795475E0,-8.452488184E-1,9.516971588E0
5.646062922E0,-2.210433006E0,-8.451650143E-1,9.516831398E0
5.666254485E0,-2.211017132E0,-8.449109793E-1,9.516716957E0
5.686446152E0,-2.210924149E0,-8.445170522E-1,9.516774178E0
5.706637558E0,-2.210753679E0,-8.441197872E-1,9.516848564E0
5.726825683E0,-2.211200953E0,-8.441711664E-1,9.516741753E0
5.747013756E0,-2.211576939E0,-8.446379900E-1,9.516613007E0
5.767199120E0,-2.211434364E0,-8.451498151E-1,9.516599655E0
5.787384693E0,-2.210812569E0,-8.456636071E-1,9.516697884E0
5.807570527E0,-2.210597754E0,-8.458803296E-1,9.516728401E0
5.827756725E0,-2.210948944E0,-8.457989693E-1,9.516654968E0
5.847943339E0,-2.211106062E0,-8.448167443E-1,9.516705513E0
5.868130422E0,-2.211245537E0,-8.434948921E-1,9.516789436E0
5.888317975E0,-2.211919785E0,-8.432596922E-1,9.516654015E0
5.908505995E0,-2.212819099E0,-8.436605334E-1,9.516409874E0
5.928694485E0,-2.213105440E0,-8.439244628E-1,9.516320229E0
5.948883391E0,-2.212867260E0,-8.447657824E-1,9.516300201E0
5.969072662E0,-2.213211060E0,-8.453822732E-1,9.516165733E0
5.989262245E0,-2.213813066E0,-8.458598852E-1,9.515983582E0
6.009452089E0,-2.213417768E0,-8.468515873E-1,9.515987396E0
6.029642089E0,-2.212455273E0,-8.472968340E-1,9.516171455E0
6.049832193E0,-2.211964130E0,-8.469788432E-1,9.516314507E0
6.070027714E0,-2.212316751E0,-8.462096453E-1,9.516300201E0
6.090211152E0,-2.213189602E0,-8.458983302E-1,9.516125679E0
6.110394745E0,-2.214092970E0,-8.461434245E-1,9.515892982E0
6.130578652E0,-2.214701653E0,-8.459030390E-1,9.515772820E0
6.150763027E0,-2.215464830E0,-8.447555304E-1,9.515696526E0
6.170948027E0,-2.216786623E0,-8.437284827E-1,9.515480042E0
6.191133756E0,-2.217428207E0,-8.427896500E-1,9.515413284E0
6.211320266E0,-2.216825962E0,-8.421194553E-1,9.515614510E0
6.231507610E0,-2.215703249E0,-8.419412971E-1,9.515891075E0
6.251695787E0,-2.215609074E0,-8.421053290E-1,9.515898705E0
6.271884745E0,-2.216220140E0,-8.424743414E-1,9.515724182E0
6.292074433E0,-2.216827154E0,-8.426993489E-1,9.515563011E0
6.312264745E0,-2.217194080E0,-8.422055244E-1,9.515520096E0
6.332455579E0,-2.217147112E0,-8.417174816E-1,9.515573502E0
6.352646777E0,-2.217106581E0,-8.413697481E-1,9.515615463E0
6.372838183E0,-2.217190742E0,-8.410277963E-1,9.515625954E0
6.393029693E0,-2.217364311E0,-8.411048651E-1,9.515577316E0
6.413220422E0,-2.217557907E0,-8.418574333E-1,9.515466690E0
6.433408495E0,-2.218046188E0,-8.422963619E-1,9.515313148E0
6.453596516E0,-2.218247414E0,-8.416381478E-1,9.515325546E0
6.473781829E0,-2.217689037E0,-8.412448764E-1,9.515490532E0
6.493967350E0,-2.217858076E0,-8.413237333E-1,9.515443802E0
6.514153183E0,-2.219228506E0,-8.404608369E-1,9.515200615E0
6.534339381E0,-2.220031261E0,-8.394998312E-1,9.515098572E0
6.554525995E0,-2.220262051E0,-8.400003314E-1,9.514999390E0
6.574713079E0,-2.220782280E0,-8.405089378E-1,9.514833450E0
6.594900631E0,-2.220680714E0,-8.402323723E-1,9.514882088E0
6.615088704E0,-2.219842196E0,-8.401363492E-1,9.515086174E0
6.635277245E0,-2.219072104E0,-8.407154083E-1,9.515214920E0
6.655466204E0,-2.218965769E0,-8.410816789E-1,9.515206337E0
6.675655527E0,-2.219341278E0,-8.403559327E-1,9.515183449E0
6.695845162E0,-2.220175982E0,-8.393222094E-1,9.515079498E0
6.716035058E0,-2.221508265E0,-8.388954997E-1,9.514806747E0
6.736225110E0,-2.223142147E0,-8.386859894E-1,9.514443398E0
6.756415214E0,-2.224462748E0,-8.382146955E-1,9.514176369E0
6.776610735E0,-2.224677801E0,-8.383012414E-1,9.514118195E0
6.796793860E0,-2.223941088E0,-8.383758664E-1,9.514284134E0
6.816977141E0,-2.223168135E0,-8.379822969E-1,9.514498711E0
6.837160787E0,-2.222993374E0,-8.378998637E-1,9.514548302E0
6.857344954E0,-2.223670959E0,-8.378589749E-1,9.514392853E0
6.877529797E0,-2.224614620E0,-8.374026418E-1,9.514212608E0
6.897715422E0,-2.225692272E0,-8.372573256E-1,9.513973236E0
6.917901881E0,-2.226227999E0,-8.372827768E-1,9.513845444E0
6.938089172E0,-2.225959778E0,-8.375369310E-1,9.513885498E0
6.958277297E0,-2.225960493E0,-8.379710913E-1,9.513847351E0
6.978466256E0,-2.226224661E0,-8.379900455E-1,9.513784409E0
6.998655943E0,-2.226435423E0,-8.377736807E-1,9.513752937E0
7.018846308E0,-2.226278305E0,-8.381590843E-1,9.513755798E0
7.039037193E0,-2.225783110E0,-8.385924697E-1,9.513834953E0
7.059228495E0,-2.225746155E0,-8.386309743E-1,9.513839722E0
7.079420058E0,-2.225795984E0,-8.382931352E-1,9.513857841E0
7.099611725E0,-2.226309061E0,-8.385023475E-1,9.513719559E0
7.119802975E0,-2.227930307E0,-8.388653398E-1,9.513307571E0
7.139991047E0,-2.229043961E0,-8.381214738E-1,9.513112068E0
7.160176412E0,-2.229036808E0,-8.369352818E-1,9.513218880E0
7.180361985E0,-2.229103327E0,-8.358870149E-1,9.513294220E0
7.200547818E0,-2.230425119E0,-8.356009722E-1,9.513010025E0
7.220734016E0,-2.231796741E0,-8.361685872E-1,9.512639046E0
7.240920631E0,-2.232517242E0,-8.371246457E-1,9.512385368E0
7.261107714E0,-2.232535601E0,-8.373596072E-1,9.512360573E0
7.281295266E0,-2.232043028E0,-8.370419145E-1,9.512503624E0
7.301483287E0,-2.232267141E0,-8.359956145E-1,9.512543678E0
7.321671777E0,-2.233147144E0,-8.354864120E-1,9.512381554E0
7.341860683E0,-2.233477592E0,-8.356854320E-1,9.512286186E0
7.362049954E0,-2.233440161E0,-8.356394768E-1,9.512299538E0
7.382239537E0,-2.233455658E0,-8.353066444E-1,9.512325287E0
7.402429381E0,-2.233156919E0,-8.351075649E-1,9.512413025E0
7.422619381E0,-2.232301474E0,-8.346351385E-1,9.512654305E0
7.442809485E0,-2.231694698E0,-8.340324759E-1,9.512849808E0
7.463005006E0,-2.231353521E0,-8.335502148E-1,9.512971878E0
7.483188183E0,-2.231585026E0,-8.329690099E-1,9.512969971E0
7.503371516E0,-2.232360125E0,-8.326398730E-1,9.512816429E0
7.523555214E0,-2.232514143E0,-8.333000541E-1,9.512722015E0
7.543739433E0,-2.232170105E0,-8.340417743E-1,9.512737274E0
7.563924277E0,-2.232633114E0,-8.339261413E-1,9.512639046E0
7.584109850E0,-2.232916594E0,-8.334962130E-1,9.512609482E0
7.604296256E0,-2.232579470E0,-8.335800767E-1,9.512681961E0
7.624483495E0,-2.231806755E0,-8.342813253E-1,9.512803078E0
7.644671568E0,-2.230934143E0,-8.352109790E-1,9.512924194E0
7.664860475E0,-2.230443716E0,-8.355056047E-1,9.513013840E0
7.685050110E0,-2.229990959E0,-8.356903195E-1,9.513104439E0
7.705240422E0,-2.229162216E0,-8.360586166E-1,9.513266563E0
7.725431256E0,-2.229242563E0,-8.368040323E-1,9.513181686E0
7.745622506E0,-2.230642080E0,-8.369266391E-1,9.512843132E0
7.765814016E0,-2.231876135E0,-8.363351226E-1,9.512605667E0
7.786005631E0,-2.231840134E0,-8.362671137E-1,9.512619972E0
7.806197141E0,-2.231411695E0,-8.360295296E-1,9.512740135E0
7.826385214E0,-2.231714010E0,-8.355837464E-1,9.512710571E0
7.846573235E0,-2.231448412E0,-8.358329535E-1,9.512749672E0
7.866758547E0,-2.230615616E0,-8.362252712E-1,9.512910843E0
7.886944068E0,-2.230284691E0,-8.360676765E-1,9.513002396E0
7.907129902E0,-2.230450153E0,-8.357578516E-1,9.512989998E0
7.927316100E0,-2.230486393E0,-8.349295259E-1,9.513054848E0
7.947502714E0,-2.230647802E0,-8.340284824E-1,9.513095856E0
7.967689797E0,-2.230828762E0,-8.338080645E-1,9.513072014E0
7.987877350E0,-2.231272221E0,-8.341823220E-1,9.512936592E0
8.008065370E0,-2.231492758E0,-8.346738815E-1,9.512841225E0
8.028253860E0,-2.231246471E0,-8.342423439E-1,9.512937546E0
8.048442766E0,-2.230548620E0,-8.335849047E-1,9.513157845E0
8.068632037E0,-2.230524302E0,-8.333318233E-1,9.513185501E0
8.088821620E0,-2.231048822E0,-8.332818151E-1,9.513067245E0
8.109011464E0,-2.231328726E0,-8.332961798E-1,9.512999535E0
8.129201464E0,-2.230914831E0,-8.334898353E-1,9.513080597E0
8.149391568E0,-2.230877876E0,-8.341383934E-1,9.513031960E0
8.169587089E0,-2.230939627E0,-8.350867033E-1,9.512933731E0
8.189770110E0,-2.231250048E0,-8.359702826E-1,9.512784004E0
8.209953287E0,-2.231147766E0,-8.363115788E-1,9.512778282E0
8.230136829E0,-2.230001926E0,-8.357442021E-1,9.513096809E0
8.250320891E0,-2.229026556E0,-8.348958492E-1,9.513400078E0
8.270505631E0,-2.228207588E0,-8.347104192E-1,9.513607979E0
8.290691152E0,-2.226882219E0,-8.353480697E-1,9.513862610E0
8.310877506E0,-2.226582050E0,-8.356649280E-1,9.513905525E0
8.331064745E0,-2.227045536E0,-8.351731300E-1,9.513839722E0
8.351252870E0,-2.227216959E0,-8.359279037E-1,9.513732910E0
8.371441829E0,-2.227973700E0,-8.373643160E-1,9.513429642E0
8.391631568E0,-2.229002237E0,-8.379101753E-1,9.513140678E0
8.411821985E0,-2.229411602E0,-8.376094103E-1,9.513072014E0
8.432012975E0,-2.228960752E0,-8.373123407E-1,9.513202667E0
8.452204381E0,-2.228308439E0,-8.378179669E-1,9.513311386E0
8.472396047E0,-2.226919174E0,-8.393117189E-1,9.513504982E0
8.492587818E0,-2.225044966E0,-8.408455253E-1,9.513807297E0
8.512778964E0,-2.223931789E0,-8.415958285E-1,9.514001846E0
8.532966985E0,-2.223922968E0,-8.415130973E-1,9.514011383E0
8.553152297E0,-2.224173307E0,-8.411403298E-1,9.513985634E0
8.573337818E0,-2.223979712E0,-8.408407569E-1,9.514058113E0
8.593523652E0,-2.223721504E0,-8.407219052E-1,9.514127731E0
8.613709850E0,-2.223931313E0,-8.403785825E-1,9.514109612E0
8.633896464E0,-2.223813772E0,-8.402908444E-1,9.514144897E0
8.654083547E0,-2.223355293E0,-8.408812881E-1,9.514200211E0
8.674271100E0,-2.223410130E0,-8.409265876E-1,9.514182091E0
8.694459120E0,-2.223419905E0,-8.407480121E-1,9.514196396E0
8.714647610E0,-2.222939968E0,-8.408929706E-1,9.514295578E0
8.734836516E0,-2.222450495E0,-8.412071466E-1,9.514382362E0
8.755025787E0,-2.221875906E0,-8.409999013E-1,9.514534950E0
8.775215370E0,-2.221519232E0,-8.409053683E-1,9.514626503E0
8.795405214E0,-2.221185923E0,-8.411930799E-1,9.514678955E0
8.815595214E0,-2.220498085E0,-8.419551849E-1,9.514771461E0
8.835785266E0,-2.220051527E0,-8.424139023E-1,9.514836311E0
8.855980735E0,-2.220134735E0,-8.420407772E-1,9.514848709E0
8.876163756E0,-2.220825672E0,-8.415886164E-1,9.514728546E0
8.896346933E0,-2.221461535E0,-8.419483304E-1,9.514547348E0
8.916530475E0,-2.221470356E0,-8.425714970E-1,9.514490128E0
8.936714537E0,-2.221171856E0,-8.419997692E-1,9.514610291E0
8.956899277E0,-2.220654488E0,-8.411540985E-1,9.514806747E0
8.977084797E0,-2.220686436E0,-8.412901759E-1,9.514786720E0
8.997271152E0,-2.221896648E0,-8.410276771E-1,9.514528275E0
9.017458391E0,-2.223199129E0,-8.402885199E-1,9.514288902E0
9.037646516E0,-2.223892689E0,-8.405216336E-1,9.514105797E0
9.057835475E0,-2.225138664E0,-8.410519958E-1,9.513767242E0
9.078025214E0,-2.225534916E0,-8.407523036E-1,9.513702393E0
9.098215631E0,-2.224520683E0,-8.406905532E-1,9.513943672E0
9.118406568E0,-2.223045826E0,-8.409506083E-1,9.514266014E0
9.138597922E0,-2.222158670E0,-8.410111666E-1,9.514468193E0
9.158789537E0,-2.222098112E0,-8.403884172E-1,9.514536858E0
9.178981256E0,-2.222481251E0,-8.395059705E-1,9.514525414E0
9.199172402E0,-2.223579407E0,-8.392572999E-1,9.514290810E0
9.219360422E0,-2.225244522E0,-8.393364549E-1,9.513895035E0
9.239545735E0,-2.225848675E0,-8.387704492E-1,9.513802528E0
9.259731256E0,-2.224968672E0,-8.381134868E-1,9.514066696E0
9.279917037E0,-2.224117279E0,-8.375719786E-1,9.514313698E0
9.300103183E0,-2.223726273E0,-8.369697332E-1,9.514458656E0
9.320289745E0,-2.223378181E0,-8.368719816E-1,9.514547348E0
9.340476777E0,-2.223142624E0,-8.372164965E-1,9.514572144E0
9.360664277E0,-2.223648548E0,-8.373330235E-1,9.514444351E0
9.380852245E0,-2.225076199E0,-8.371794820E-1,9.514123917E0
9.401040683E0,-2.226554632E0,-8.370012045E-1,9.513793945E0
9.421229589E0,-2.227416754E0,-8.373535275E-1,9.513561249E0
9.441418860E0,-2.227858782E0,-8.372564316E-1,9.513464928E0
9.461608443E0,-2.227586746E0,-8.364221454E-1,9.513603210E0
9.481798287E0,-2.226925850E0,-8.358815312E-1,9.513805389E0
9.501988287E0,-2.226825476E0,-8.358228803E-1,9.513834953E0
9.522178391E0,-2.227655172E0,-8.356237411E-1,9.513657570E0
9.542373912E0,-2.227956057E0,-8.352380991E-1,9.513620377E0
9.562557141E0,-2.227925062E0,-8.349637985E-1,9.513651848E0
9.582740527E0,-2.228507757E0,-8.357077241E-1,9.513450623E0
9.602924277E0,-2.229133129E0,-8.364297748E-1,9.513239861E0
9.623108547E0,-2.228790998E0,-8.361215591E-1,9.513347626E0
9.643293443E0,-2.228064060E0,-8.357654214E-1,9.513547897E0
9.663479068E0,-2.228866816E0,-8.356561661E-1,9.513370514E0
9.683665475E0,-2.230227470E0,-8.350851536E-1,9.513101578E0
9.703852714E0,-2.230641603E0,-8.347245455E-1,9.513036728E0
9.724040787E0,-2.230738640E0,-8.347964883E-1,9.513007164E0
9.744229641E0,-2.231112480E0,-8.347446918E-1,9.512923241E0
9.764419225E0,-2.231230974E0,-8.334389329E-1,9.513010025E0
9.784609433E0,-2.231279373E0,-8.300036788E-1,9.513299942E0
9.804800162E0,-2.231166124E0,-8.267074823E-1,9.513613701E0
9.824991308E0,-2.231117964E0,-8.261736631E-1,9.513671875E0
9.845182714E0,-2.231287479E0,-8.275075555E-1,9.513515472E0
9.865374225E0,-2.231930494E0,-8.295193911E-1,9.513189316E0
9.885563027E0,-2.232444763E0,-8.310509324E-1,9.512935638E0
9.905751881E0,-2.232866287E0,-8.317761421E-1,9.512772560E0
9.925946152E0,-2.234201193E0,-8.317740560E-1,9.512459755E0
9.946130006E0,-2.235915422E0,-8.311671615E-1,9.512108803E0
9.966314016E0,-2.237375975E0,-8.305216432E-1,9.511822701E0
9.986498339E0,-2.237712383E0,-8.301740885E-1,9.511774063E0
1.000668308E1,-2.236657381E0,-8.304511309E-1,9.511997223E0
1.002686839E1,-2.234995127E0,-8.305599093E-1,9.512378693E0
1.004705433E1,-2.233078241E0,-8.302230239E-1,9.512858391E0
1.006724094E1,-2.231489897E0,-8.298123479E-1,9.513267517E0
1.008742829E1,-2.230036020E0,-8.296044469E-1,9.513626099E0
1.010761636E1,-2.228780031E0,-8.295690417E-1,9.513923645E0
1.012780511E1,-2.228741407E0,-8.296976686E-1,9.513921738E0
1.014799448E1,-2.229996443E0,-8.298866153E-1,9.513610840E0
1.016818443E1,-2.230669022E0,-8.311902881E-1,9.513339043E0
1.018837485E1,-2.231179476E0,-8.338946104E-1,9.512982368E0
1.020856563E1,-2.232272148E0,-8.355957270E-1,9.512577057E0
1.022875662E1,-2.232908010E0,-8.349520564E-1,9.512485504E0
1.024894771E1,-2.231929541E0,-8.337522149E-1,9.512819290E0
1.026913610E1,-2.230291843E0,-8.335325718E-1,9.513223648E0
1.028932454E1,-2.229435205E0,-8.337273598E-1,9.513405800E0
1.030951303E1,-2.228997707E0,-8.343199492E-1,9.513457298E0
1.032970157E1,-2.228324175E0,-8.349717855E-1,9.513558388E0
1.034989553E1,-2.227941751E0,-8.352786303E-1,9.513620377E0
1.037007912E1,-2.228236675E0,-8.348230720E-1,9.513590813E0
1.039026287E1,-2.229029655E0,-8.332392573E-1,9.513544083E0
1.041044693E1,-2.229964018E0,-8.322005272E-1,9.513416290E0
1.043063146E1,-2.231045961E0,-8.312032223E-1,9.513249397E0
1.045081657E1,-2.232202530E0,-8.301792145E-1,9.513068199E0
1.047100235E1,-2.233276367E0,-8.297610879E-1,9.512852669E0
1.049118886E1,-2.233858347E0,-8.296371698E-1,9.512726784E0
1.051137615E1,-2.234263182E0,-8.296077847E-1,9.512633324E0
1.053156422E1,-2.234969854E0,-8.295632005E-1,9.512472153E0
1.055175303E1,-2.235183954E0,-8.294543624E-1,9.512431145E0
1.057194251E1,-2.235008240E0,-8.293774724E-1,9.512478828E0
1.059213261E1,-2.235602140E0,-8.290097117E-1,9.512371063E0
1.061232324E1,-2.235706329E0,-8.288333416E-1,9.512362480E0
1.063251423E1,-2.234852791E0,-8.290597200E-1,9.512543678E0
1.065270548E1,-2.234308958E0,-8.294399381E-1,9.512638092E0
1.067289683E1,-2.234186172E0,-8.293756247E-1,9.512672424E0
1.069308808E1,-2.233899117E0,-8.286285996E-1,9.512804985E0
1.071327615E1,-2.233843327E0,-8.279365897E-1,9.512879372E0
1.073346152E1,-2.233887911E0,-8.281014562E-1,9.512852669E0
1.075364709E1,-2.234209061E0,-8.282654285E-1,9.512763977E0
1.077383292E1,-2.233673334E0,-8.282660246E-1,9.512888908E0
1.079401912E1,-2.232765913E0,-8.288455606E-1,9.513051987E0
1.081420574E1,-2.233102322E0,-8.296871781E-1,9.512899399E0
1.083439282E1,-2.234355211E0,-8.300076127E-1,9.512577057E0
1.085458037E1,-2.234804153E0,-8.303790092E-1,9.512439728E0
1.087476839E1,-2.235104561E0,-8.308281302E-1,9.512330055E0
1.089495688E1,-2.236069441E0,-8.313399553E-1,9.512059212E0
1.091514579E1,-2.236620188E0,-8.324502110E-1,9.511831284E0
1.093533506E1,-2.235481024E0,-8.343142271E-1,9.511936188E0
1.095552464E1,-2.233861685E0,-8.355990648E-1,9.512203217E0
1.097571449E1,-2.233026981E0,-8.356016278E-1,9.512399673E0
1.099590448E1,-2.232593536E0,-8.352354765E-1,9.512533188E0
1.101609459E1,-2.231914520E0,-8.353453279E-1,9.512683868E0
1.103629011E1,-2.231551409E0,-8.353956342E-1,9.512764931E0
1.105647329E1,-2.231572866E0,-8.345950842E-1,9.512828827E0
1.107665662E1,-2.231587887E0,-8.332172036E-1,9.512946129E0
1.109684032E1,-2.231137276E0,-8.322565556E-1,9.513135910E0
1.111702454E1,-2.230396748E0,-8.316138387E-1,9.513366699E0
1.113720938E1,-2.229887962E0,-8.308305740E-1,9.513553619E0
1.115739495E1,-2.229970217E0,-8.308178782E-1,9.513535500E0
1.117758136E1,-2.230980635E0,-8.316843510E-1,9.513222694E0
1.119776860E1,-2.231388569E0,-8.325911760E-1,9.513048172E0
1.121795667E1,-2.230480433E0,-8.330754042E-1,9.513218880E0
1.123814558E1,-2.229567289E0,-8.330158591E-1,9.513438225E0
1.125833521E1,-2.229292393E0,-8.323253393E-1,9.513562202E0
1.127852553E1,-2.229194641E0,-8.324925900E-1,9.513570786E0
1.129871636E1,-2.228966713E0,-8.337579370E-1,9.513514519E0
1.131890761E1,-2.228353500E0,-8.350802064E-1,9.513541222E0
1.133909912E1,-2.227649212E0,-8.361499310E-1,9.513611794E0
1.135929074E1,-2.226755619E0,-8.364045024E-1,9.513799667E0
1.137947964E1,-2.225968361E0,-8.353750706E-1,9.514074326E0
1.139966860E1,-2.225536585E0,-8.353009224E-1,9.514181137E0
1.141986298E1,-2.226417542E0,-8.367919922E-1,9.513845444E0
1.144004662E1,-2.227573395E0,-8.379822969E-1,9.513468742E0
1.146023042E1,-2.226847649E0,-8.383125663E-1,9.513609886E0
1.148041454E1,-2.225061893E0,-8.386540413E-1,9.513998032E0
1.150059912E1,-2.223846674E0,-8.390136361E-1,9.514249802E0
1.152078428E1,-2.222733021E0,-8.399254084E-1,9.514429092E0
1.154097011E1,-2.221456528E0,-8.415065408E-1,9.514588356E0
1.156115667E1,-2.220715284E0,-8.434014916E-1,9.514593124E0
1.158134402E1,-2.220723391E0,-8.441765308E-1,9.514522552E0
1.160153214E1,-2.221105099E0,-8.436014056E-1,9.514484406E0
1.162172100E1,-2.221738577E0,-8.433312774E-1,9.514360428E0
1.164191053E1,-2.222657204E0,-8.435187340E-1,9.514128685E0
1.166210063E1,-2.223857164E0,-8.424896598E-1,9.513939857E0
1.168229120E1,-2.225120783E0,-8.411924243E-1,9.513759613E0
1.170248214E1,-2.225858688E0,-8.407028317E-1,9.513630867E0
1.172267334E1,-2.225226402E0,-8.403739333E-1,9.513807297E0
1.174286464E1,-2.223805904E0,-8.399177194E-1,9.514179230E0
1.176305579E1,-2.222049952E0,-8.403363228E-1,9.514553070E0
1.178324386E1,-2.220577717E0,-8.408365250E-1,9.514851570E0
1.180342922E1,-2.220535517E0,-8.402528763E-1,9.514914513E0
1.182361480E1,-2.221792459E0,-8.394901752E-1,9.514688492E0
1.184380063E1,-2.222895861E0,-8.394888043E-1,9.514430046E0
1.186398683E1,-2.222284079E0,-8.392289281E-1,9.514595985E0
1.188417344E1,-2.220874310E0,-8.377610445E-1,9.515054703E0
1.190436053E1,-2.221460342E0,-8.348066211E-1,9.515176773E0
1.192454808E1,-2.224787474E0,-8.331649303E-1,9.514544487E0
1.194473610E1,-2.229530334E0,-8.345176578E-1,9.513315201E0
1.196492459E1,-2.232593775E0,-8.369328380E-1,9.512383461E0
1.198511350E1,-2.232910156E0,-8.390682340E-1,9.512121201E0
1.200530277E1,-2.230996847E0,-8.413760066E-1,9.512367249E0
1.202549235E1,-2.228558302E0,-8.414911032E-1,9.512928963E0
1.204568219E1,-2.227286577E0,-8.392264247E-1,9.513426781E0
1.206587219E1,-2.228456736E0,-8.384598494E-1,9.513219833E0
1.208606230E1,-2.230729103E0,-8.387199640E-1,9.512663841E0
1.210625782E1,-2.232200384E0,-8.383402228E-1,9.512352943E0
1.212644115E1,-2.232368231E0,-8.376730680E-1,9.512372017E0
1.214662464E1,-2.232405901E0,-8.384580016E-1,9.512294769E0
1.216680850E1,-2.232649803E0,-8.401623964E-1,9.512086868E0
1.218699282E1,-2.233102560E0,-8.404096961E-1,9.511958122E0
1.220717777E1,-2.232882738E0,-8.393794298E-1,9.512100220E0
1.222736344E1,-2.231956959E0,-8.387120366E-1,9.512376785E0
1.224754990E1,-2.231249809E0,-8.380318284E-1,9.512602806E0
1.226773719E1,-2.230547905E0,-8.367541432E-1,9.512880325E0
1.228792532E1,-2.230522394E0,-8.359147310E-1,9.512959480E0
1.230811422E1,-2.231175661E0,-8.360831141E-1,9.512791634E0
1.232830386E1,-2.231805086E0,-8.360220194E-1,9.512649536E0
1.234849412E1,-2.232224703E0,-8.359050155E-1,9.512561798E0
1.236868490E1,-2.232521772E0,-8.368340731E-1,9.512410164E0
1.238887605E1,-2.232805729E0,-8.378919363E-1,9.512249947E0
1.240906745E1,-2.233068228E0,-8.379420638E-1,9.512184143E0
1.242925896E1,-2.233316898E0,-8.372006416E-1,9.512190819E0
1.244945027E1,-2.233454943E0,-8.365883827E-1,9.512212753E0
1.246963834E1,-2.233680010E0,-8.362858295E-1,9.512186050E0
1.248982370E1,-2.233606815E0,-8.361127377E-1,9.512218475E0
1.251000928E1,-2.233339787E0,-8.362284899E-1,9.512271881E0
1.253019511E1,-2.233366013E0,-8.368574381E-1,9.512208939E0
1.255038131E1,-2.233397484E0,-8.369485140E-1,9.512193680E0
1.257056792E1,-2.233279228E0,-8.362454772E-1,9.512284279E0
1.259075501E1,-2.233490944E0,-8.359006047E-1,9.512264252E0
1.261094256E1,-2.234951496E0,-8.364320397E-1,9.511874199E0
1.263113058E1,-2.236682415E0,-8.365960717E-1,9.511453629E0
1.265131907E1,-2.236872911E0,-8.366904259E-1,9.511401176E0
1.267150798E1,-2.236137152E0,-8.371797204E-1,9.511530876E0
1.269169724E1,-2.235663652E0,-8.369140625E-1,9.511664391E0
1.271188683E1,-2.234920502E0,-8.363879919E-1,9.511885643E0
1.273207667E1,-2.234430790E0,-8.371014595E-1,9.511938095E0
1.275226667E1,-2.233733654E0,-8.381282687E-1,9.512011528E0
1.277245678E1,-2.233475924E0,-8.388206959E-1,9.512010574E0
1.279265230E1,-2.233951092E0,-8.394352794E-1,9.511844635E0
1.281283548E1,-2.234134197E0,-8.399937153E-1,9.511753082E0
1.283301881E1,-2.232753754E0,-8.408687711E-1,9.512000084E0
1.285320251E1,-2.231159210E0,-8.415742517E-1,9.512310982E0
1.287338673E1,-2.229796410E0,-8.411809206E-1,9.512665749E0
1.289357157E1,-2.228459597E0,-8.405165076E-1,9.513037682E0
1.291375714E1,-2.227657080E0,-8.401036859E-1,9.513262749E0
1.293394355E1,-2.226776600E0,-8.400537968E-1,9.513472557E0
1.295413079E1,-2.226439714E0,-8.399827480E-1,9.513558388E0
1.297431886E1,-2.226517916E0,-8.397863507E-1,9.513557434E0
1.299450777E1,-2.226919413E0,-8.402031660E-1,9.513425827E0
1.301469740E1,-2.227579117E0,-8.408100009E-1,9.513217926E0
1.303488771E1,-2.227477074E0,-8.412196040E-1,9.513205528E0
1.305507855E1,-2.227400780E0,-8.414949775E-1,9.513198853E0
1.307526980E1,-2.227408886E0,-8.417241573E-1,9.513176918E0
1.309546131E1,-2.227234602E0,-8.420714736E-1,9.513186455E0
1.311565292E1,-2.226809978E0,-8.423024416E-1,9.513266563E0
1.313584183E1,-2.226632357E0,-8.417796493E-1,9.513353348E0
1.315603079E1,-2.226308823E0,-8.413836360E-1,9.513463974E0
1.317622516E1,-2.225717545E0,-8.414859176E-1,9.513593674E0
1.319640876E1,-2.225330353E0,-8.412735462E-1,9.513703346E0
1.321659251E1,-2.225073099E0,-8.411574960E-1,9.513773918E0
1.323677657E1,-2.225142717E0,-8.426313400E-1,9.513626099E0
1.325696110E1,-2.226150751E0,-8.441067338E-1,9.513259888E0
1.327714620E1,-2.227265596E0,-8.437184691E-1,9.513033867E0
1.329733199E1,-2.227123260E0,-8.434143066E-1,9.513094902E0
1.331751850E1,-2.226588726E0,-8.431077600E-1,9.513246536E0
1.333770579E1,-2.226701260E0,-8.424295187E-1,9.513280869E0
1.335789386E1,-2.226763010E0,-8.424114585E-1,9.513267517E0
1.337808266E1,-2.226706982E0,-8.426939249E-1,9.513256073E0
1.339827214E1,-2.227146626E0,-8.428052664E-1,9.513143539E0
1.341846224E1,-2.227543354E0,-8.430022597E-1,9.513032913E0
1.343865287E1,-2.227711916E0,-8.426455259E-1,9.513025284E0
1.345884386E1,-2.228055239E0,-8.416147232E-1,9.513035774E0
1.347903511E1,-2.228286982E0,-8.407129645E-1,9.513060570E0
1.349922646E1,-2.228732347E0,-8.397390842E-1,9.513043404E0
1.351941771E1,-2.229252577E0,-8.393065929E-1,9.512958527E0
1.353960579E1,-2.229976416E0,-8.392512798E-1,9.512794495E0
1.355979115E1,-2.230881929E0,-8.389380574E-1,9.512609482E0
1.357997673E1,-2.231452703E0,-8.390246630E-1,9.512468338E0
1.360016256E1,-2.231734037E0,-8.395830989E-1,9.512352943E0
1.362034876E1,-2.232829809E0,-8.401566744E-1,9.512043953E0
1.364053537E1,-2.233652353E0,-8.408757448E-1,9.511788368E0
1.366072245E1,-2.233044863E0,-8.425401449E-1,9.511783600E0
1.368091001E1,-2.232056618E0,-8.447184563E-1,9.511822701E0
1.370109803E1,-2.230325699E0,-8.454513550E-1,9.512163162E0
1.372128652E1,-2.226912022E0,-8.453208208E-1,9.512974739E0
1.374147542E1,-2.223933697E0,-8.449798226E-1,9.513702393E0
1.376166469E1,-2.222084999E0,-8.449466228E-1,9.514135361E0
1.378185428E1,-2.221253633E0,-8.452560902E-1,9.514302254E0
1.380204412E1,-2.220891953E0,-8.454049826E-1,9.514373779E0
1.382223412E1,-2.220297098E0,-8.460081816E-1,9.514459610E0
1.384242417E1,-2.218594313E0,-8.470314741E-1,9.514764786E0
1.386261964E1,-2.215683222E0,-8.478444815E-1,9.515371323E0
1.388280277E1,-2.213821411E0,-8.494555950E-1,9.515660286E0
1.390298605E1,-2.213819027E0,-8.523927927E-1,9.515398979E0
1.392316969E1,-2.213707685E0,-8.548491597E-1,9.515204430E0
1.394335386E1,-2.212390661E0,-8.557469249E-1,9.515430450E0
1.396353870E1,-2.211044312E0,-8.554807305E-1,9.515768051E0
1.398372428E1,-2.210613728E0,-8.554709554E-1,9.515868187E0
1.400391068E1,-2.209581375E0,-8.565132618E-1,9.516014099E0
1.402409792E1,-2.207496405E0,-8.581053019E-1,9.516354561E0
1.404428600E1,-2.205642939E0,-8.593416214E-1,9.516673088E0
1.406447490E1,-2.205048323E0,-8.595287800E-1,9.516793251E0
1.408466459E1,-2.204181433E0,-8.588781953E-1,9.517052650E0
1.410485495E1,-2.202567339E0,-8.594449759E-1,9.517375946E0
1.412504584E1,-2.201642513E0,-8.612789512E-1,9.517423630E0
1.414523714E1,-2.201918602E0,-8.622209430E-1,9.517274857E0
1.416542870E1,-2.202027321E0,-8.617567420E-1,9.517291069E0
1.418562037E1,-2.201618433E0,-8.609728813E-1,9.517457008E0
1.420581162E1,-2.200766087E0,-8.605855703E-1,9.517689705E0
1.422599969E1,-2.199252367E0,-8.613880873E-1,9.517967224E0
1.424618771E1,-2.197744370E0,-8.624307513E-1,9.518219948E0
1.426637303E1,-2.197697878E0,-8.626850247E-1,9.518208504E0
1.428655855E1,-2.198113203E0,-8.632912040E-1,9.518057823E0
1.430674438E1,-2.197240591E0,-8.643509746E-1,9.518163681E0
1.432693058E1,-2.195896149E0,-8.649448752E-1,9.518419266E0
1.434711719E1,-2.195197344E0,-8.650878668E-1,9.518567085E0
1.436730428E1,-2.194919825E0,-8.653984666E-1,9.518602371E0
1.438749183E1,-2.194675207E0,-8.652080894E-1,9.518676758E0
1.440767985E1,-2.194186687E0,-8.641982079E-1,9.518880844E0
1.442786834E1,-2.193731070E0,-8.639012575E-1,9.519012451E0
1.444805725E1,-2.193102121E0,-8.649049401E-1,9.519066811E0
1.446824652E1,-2.193045616E0,-8.657348156E-1,9.519003868E0
1.448843610E1,-2.192975760E0,-8.657204509E-1,9.519021988E0
1.450862594E1,-2.192667723E0,-8.659462929E-1,9.519072533E0
1.452881594E1,-2.193209410E0,-8.670887351E-1,9.518842697E0
1.454900600E1,-2.194214106E0,-8.676790595E-1,9.518557549E0
1.456920146E1,-2.194367170E0,-8.666949272E-1,9.518612862E0
1.458938454E1,-2.193728685E0,-8.660303354E-1,9.518819809E0
1.460956777E1,-2.193967819E0,-8.661965728E-1,9.518750191E0
1.462975136E1,-2.194558382E0,-8.655412793E-1,9.518673897E0
1.464993548E1,-2.194351912E0,-8.652262092E-1,9.518749237E0
1.467012027E1,-2.193193436E0,-8.655625582E-1,9.518985748E0
1.469030584E1,-2.192244291E0,-8.655552268E-1,9.519205093E0
1.471049225E1,-2.193077326E0,-8.646765947E-1,9.519093513E0
1.473067954E1,-2.194774389E0,-8.634869456E-1,9.518809319E0
1.475086766E1,-2.195147038E0,-8.636915088E-1,9.518706322E0
1.477105662E1,-2.195061445E0,-8.642160296E-1,9.518677711E0
1.479124631E1,-2.195442438E0,-8.636747003E-1,9.518638611E0
1.481143667E1,-2.195313215E0,-8.632673025E-1,9.518705368E0
1.483162756E1,-2.194883108E0,-8.635790348E-1,9.518776894E0
1.485181886E1,-2.194830656E0,-8.643091917E-1,9.518722534E0
1.487201042E1,-2.194980860E0,-8.655505180E-1,9.518573761E0
1.489220209E1,-2.194632769E0,-8.665483594E-1,9.518564224E0
1.491239329E1,-2.194123745E0,-8.668816090E-1,9.518651009E0
1.493258131E1,-2.193505526E0,-8.667017817E-1,9.518810272E0
1.495276662E1,-2.193125010E0,-8.654977679E-1,9.519006729E0
1.497295214E1,-2.193671942E0,-8.639873266E-1,9.519019127E0
1.499313792E1,-2.194875956E0,-8.632241488E-1,9.518810272E0
1.501332407E1,-2.195721626E0,-8.635994196E-1,9.518580437E0
1.503351063E1,-2.196249008E0,-8.639572859E-1,9.518427849E0
1.505369766E1,-2.196438551E0,-8.639977574E-1,9.518379211E0
1.507388516E1,-2.196279526E0,-8.634026051E-1,9.518470764E0
1.509407318E1,-2.195791721E0,-8.615956306E-1,9.518747330E0
1.511426167E1,-2.194774151E0,-8.608089089E-1,9.519052505E0
1.513445058E1,-2.195120811E0,-8.630623817E-1,9.518769264E0
1.515463985E1,-2.198154211E0,-8.662625551E-1,9.517778397E0
1.517482943E1,-2.200728893E0,-8.686173558E-1,9.516968727E0
1.519501928E1,-2.200788260E0,-8.696335554E-1,9.516861916E0
1.521520928E1,-2.198494196E0,-8.695712686E-1,9.517396927E0
1.523539938E1,-2.194340706E0,-8.684828281E-1,9.518455505E0
1.525559490E1,-2.191667318E0,-8.655722141E-1,9.519336700E0
1.527577803E1,-2.192221642E0,-8.606774211E-1,9.519653320E0
1.529596131E1,-2.194191456E0,-8.572868109E-1,9.519504547E0
1.531614495E1,-2.196770191E0,-8.569309711E-1,9.518941879E0
1.533632912E1,-2.200654030E0,-8.568906188E-1,9.518048286E0
1.535651396E1,-2.206313133E0,-8.556718230E-1,9.516847610E0
1.537669954E1,-2.212153673E0,-8.540661931E-1,9.515636444E0
1.539688594E1,-2.216169834E0,-8.529179096E-1,9.514804840E0
1.541707318E1,-2.218142748E0,-8.523283601E-1,9.514398575E0
1.543726126E1,-2.220087290E0,-8.504240513E-1,9.514114380E0
1.545745016E1,-2.222383738E0,-8.473410606E-1,9.513854027E0
1.547763980E1,-2.222888231E0,-8.457425833E-1,9.513877869E0
1.549783011E1,-2.222246885E0,-8.458530307E-1,9.514018059E0
1.551802094E1,-2.223173380E0,-8.451420069E-1,9.513864517E0
1.553821219E1,-2.225502253E0,-8.441464305E-1,9.513407707E0
1.555840370E1,-2.227715731E0,-8.435403109E-1,9.512944221E0
1.557859532E1,-2.229825258E0,-8.431707621E-1,9.512483597E0
1.559878667E1,-2.232369900E0,-8.424496055E-1,9.511949539E0
1.561897469E1,-2.235088825E0,-8.415772915E-1,9.511388779E0
1.563916001E1,-2.237076044E0,-8.406591415E-1,9.511002541E0
1.565934553E1,-2.238130808E0,-8.399506807E-1,9.510816574E0
1.567953131E1,-2.238549709E0,-8.390311003E-1,9.510799408E0
1.569971745E1,-2.239364147E0,-8.387910724E-1,9.510628700E0
1.571990402E1,-2.240248442E0,-8.390780091E-1,9.510395050E0
1.574009105E1,-2.241070271E0,-8.389245868E-1,9.510215759E0
1.576027855E1,-2.241971254E0,-8.389996290E-1,9.509996414E0
1.578046652E1,-2.242597818E0,-8.398016691E-1,9.509777069E0
1.580065495E1,-2.243125916E0,-8.400517702E-1,9.509631157E0
1.582084381E1,-2.243304014E0,-8.393411636E-1,9.509652138E0
1.584103308E1,-2.243596792E0,-8.381157517E-1,9.509690285E0
1.586122266E1,-2.243750334E0,-8.375615478E-1,9.509703636E0
1.588141251E1,-2.243578911E0,-8.379156590E-1,9.509712219E0
1.590160251E1,-2.243124247E0,-8.386601210E-1,9.509755135E0
1.592179261E1,-2.242460251E0,-8.389785290E-1,9.509882927E0
1.594198813E1,-2.241873026E0,-8.387641311E-1,9.510040283E0
1.596217131E1,-2.241364241E0,-8.383582234E-1,9.510196686E0
1.598235464E1,-2.241117477E0,-8.376917839E-1,9.510313034E0
1.600253834E1,-2.241343975E0,-8.373379707E-1,9.510290146E0
1.602272256E1,-2.241519213E0,-8.372615576E-1,9.510255814E0
1.604290740E1,-2.241038322E0,-8.379869461E-1,9.510306358E0
1.606309298E1,-2.240598917E0,-8.389225602E-1,9.510327339E0
1.608327938E1,-2.239802122E0,-8.393098712E-1,9.510479927E0
1.610346662E1,-2.238583088E0,-8.395661116E-1,9.510745049E0
1.612365469E1,-2.237591267E0,-8.398122191E-1,9.510956764E0
1.614384360E1,-2.237342596E0,-8.397895694E-1,9.511016846E0
1.616403324E1,-2.237294197E0,-8.389052153E-1,9.511106491E0
1.618422350E1,-2.237513065E0,-8.375568390E-1,9.511174202E0
1.620441428E1,-2.238017321E0,-8.370103836E-1,9.511102676E0
1.622460548E1,-2.238618135E0,-8.375359774E-1,9.510915756E0
1.624479693E1,-2.238957405E0,-8.382780552E-1,9.510770798E0
1.626498850E1,-2.238272429E0,-8.392207623E-1,9.510848999E0
1.628517985E1,-2.237146854E0,-8.400653601E-1,9.511037827E0
1.630536787E1,-2.236017466E0,-8.404299617E-1,9.511271477E0
1.632555318E1,-2.235003948E0,-8.405497074E-1,9.511499405E0
1.634573870E1,-2.235085964E0,-8.398540616E-1,9.511541367E0
1.636592448E1,-2.235821486E0,-8.388208151E-1,9.511460304E0
1.638611063E1,-2.235574007E0,-8.387455344E-1,9.511525154E0
1.640629719E1,-2.235872984E0,-8.394377828E-1,9.511393547E0
1.642648422E1,-2.236636400E0,-8.397484422E-1,9.511186600E0
1.644667172E1,-2.236894131E0,-8.395717144E-1,9.511141777E0
1.646685969E1,-2.236590147E0,-8.395855427E-1,9.511212349E0
1.648704813E1,-2.236544609E0,-8.391792774E-1,9.511258125E0
1.650723699E1,-2.236933708E0,-8.388260603E-1,9.511198044E0
1.652742620E1,-2.236679554E0,-8.393095732E-1,9.511215210E0
1.654761574E1,-2.235982656E0,-8.403440714E-1,9.511286736E0
1.656780553E1,-2.236028671E0,-8.413766026E-1,9.511184692E0
1.658799548E1,-2.236758232E0,-8.416023254E-1,9.510993958E0
1.660818553E1,-2.236757994E0,-8.412343860E-1,9.511027336E0
1.662838100E1,-2.236509800E0,-8.407520652E-1,9.511127472E0
1.664856433E1,-2.236979961E0,-8.402695656E-1,9.511058807E0
1.666874782E1,-2.237877369E0,-8.397719860E-1,9.510892868E0
1.668893167E1,-2.238367319E0,-8.390331864E-1,9.510842323E0
1.670911600E1,-2.238524199E0,-8.386017084E-1,9.510844231E0
1.672930094E1,-2.238735437E0,-8.387246132E-1,9.510783195E0
1.674948662E1,-2.239242554E0,-8.389629722E-1,9.510642052E0
1.676967308E1,-2.238740683E0,-8.393852115E-1,9.510724068E0
1.678986037E1,-2.237215519E0,-8.396548033E-1,9.511057854E0
1.681004850E1,-2.236202478E0,-8.394571543E-1,9.511314392E0
1.683023740E1,-2.236050129E0,-8.389297724E-1,9.511396408E0
1.685042704E1,-2.236587286E0,-8.388676047E-1,9.511275291E0
1.687061730E1,-2.236869335E0,-8.392895460E-1,9.511173248E0
1.689080808E1,-2.236960173E0,-8.402573466E-1,9.511065483E0
1.691099922E1,-2.236561298E0,-8.410344720E-1,9.511090279E0
1.693119058E1,-2.235498905E0,-8.416715860E-1,9.511283875E0
1.695138204E1,-2.233911276E0,-8.423692584E-1,9.511594772E0
1.697157277E1,-2.232868910E0,-8.426983953E-1,9.511811256E0
1.699176079E1,-2.232227325E0,-8.420173526E-1,9.512021065E0
1.701194610E1,-2.231570959E0,-8.418067098E-1,9.512194633E0
1.703213162E1,-2.231837749E0,-8.430014253E-1,9.512025833E0
1.705231740E1,-2.232916117E0,-8.441525102E-1,9.511671066E0
1.707250355E1,-2.233200312E0,-8.442695737E-1,9.511593819E0
1.709269011E1,-2.232733011E0,-8.441793323E-1,9.511711121E0
1.711287714E1,-2.232043028E0,-8.447415829E-1,9.511822701E0
1.713306464E1,-2.231515884E0,-8.455380797E-1,9.511876106E0
1.715325261E1,-2.230182171E0,-8.462264538E-1,9.512127876E0
1.717344105E1,-2.228052855E0,-8.470076919E-1,9.512557030E0
1.719362990E1,-2.226831675E0,-8.476874232E-1,9.512782097E0
1.721381912E1,-2.226972818E0,-8.474580050E-1,9.512769699E0
1.723400865E1,-2.227613926E0,-8.469847441E-1,9.512661934E0
1.725419844E1,-2.227665663E0,-8.473746181E-1,9.512615204E0
1.727438839E1,-2.227390528E0,-8.481408358E-1,9.512611389E0
1.729457844E1,-2.227526903E0,-8.482992053E-1,9.512564659E0
1.731477391E1,-2.227360725E0,-8.480473757E-1,9.512626648E0
1.733495719E1,-2.227098465E0,-8.472673297E-1,9.512758255E0
1.735514063E1,-2.226609468E0,-8.464475870E-1,9.512945175E0
1.737532443E1,-2.226530790E0,-8.458272219E-1,9.513018608E0
1.739550876E1,-2.226899385E0,-8.460677266E-1,9.512911797E0
1.741569370E1,-2.227120876E0,-8.467256427E-1,9.512800217E0
1.743587938E1,-2.226167202E0,-8.474326730E-1,9.512960434E0
1.745606584E1,-2.224881172E0,-8.478081822E-1,9.513228416E0
1.747625313E1,-2.224241972E0,-8.476861119E-1,9.513388634E0
1.749644126E1,-2.223495245E0,-8.472393155E-1,9.513603210E0
1.751663016E1,-2.223158598E0,-8.463488221E-1,9.513760567E0
1.753681980E1,-2.223818779E0,-8.458456397E-1,9.513650894E0
1.755701006E1,-2.224419594E0,-8.466407061E-1,9.513441086E0
1.757720084E1,-2.224370003E0,-8.474096656E-1,9.513382912E0
1.759739198E1,-2.223977566E0,-8.468664289E-1,9.513523102E0
1.761758334E1,-2.223565340E0,-8.467951417E-1,9.513626099E0
1.763777480E1,-2.224448204E0,-8.472857475E-1,9.513375282E0
1.765796553E1,-2.226067543E0,-8.460327983E-1,9.513109207E0
1.767815350E1,-2.226744890E0,-8.450012803E-1,9.513042450E0
1.769833876E1,-2.227175474E0,-8.451229930E-1,9.512929916E0
1.771852422E1,-2.227591515E0,-8.454341888E-1,9.512805939E0
1.773871001E1,-2.227149487E0,-8.462439775E-1,9.512837410E0
1.775889615E1,-2.226301908E0,-8.472133875E-1,9.512948990E0
1.777908271E1,-2.225508928E0,-8.472949266E-1,9.513126373E0
1.779926974E1,-2.225690842E0,-8.462080956E-1,9.513180733E0
1.781945725E1,-2.226625443E0,-8.450181484E-1,9.513069153E0
1.783964521E1,-2.227778912E0,-8.446857929E-1,9.512828827E0
1.785983365E1,-2.229437351E0,-8.446594477E-1,9.512441635E0
1.788002251E1,-2.230539322E0,-8.443620205E-1,9.512209892E0
1.790021173E1,-2.230340719E0,-8.441094160E-1,9.512279510E0
1.792040126E1,-2.230081320E0,-8.433892131E-1,9.512402534E0
1.794059105E1,-2.230181694E0,-8.422616720E-1,9.512479782E0
1.796078100E1,-2.230350018E0,-8.413961530E-1,9.512516975E0
1.798097105E1,-2.231061220E0,-8.409053087E-1,9.512392998E0
1.800116652E1,-2.231803179E0,-8.405492306E-1,9.512250900E0
1.802134980E1,-2.232370138E0,-8.400483727E-1,9.512161255E0
1.804153324E1,-2.233097315E0,-8.393532038E-1,9.512052536E0
1.806171704E1,-2.233725071E0,-8.392899632E-1,9.511912346E0
1.808190131E1,-2.234007835E0,-8.394067883E-1,9.511835098E0
1.810208620E1,-2.233886242E0,-8.386214375E-1,9.511932373E0
1.812227183E1,-2.234538555E0,-8.380681872E-1,9.511827469E0
1.814245824E1,-2.234912872E0,-8.385530114E-1,9.511696815E0
1.816264548E1,-2.234382391E0,-8.389796019E-1,9.511783600E0
1.818283355E1,-2.233797789E0,-8.385471106E-1,9.511959076E0
1.820302240E1,-2.233561993E0,-8.384561539E-1,9.512022972E0
1.822321199E1,-2.234265804E0,-8.392799497E-1,9.511784554E0
1.824340219E1,-2.235311508E0,-8.396371007E-1,9.511507034E0
1.826359292E1,-2.236070871E0,-8.390911222E-1,9.511378288E0
1.828378402E1,-2.236576796E0,-8.388860226E-1,9.511276245E0
1.830397537E1,-2.237261772E0,-8.392250538E-1,9.511086464E0
1.832416683E1,-2.237677574E0,-8.398292661E-1,9.510934830E0
1.834435792E1,-2.237514257E0,-8.406397700E-1,9.510901451E0
1.836454594E1,-2.237413406E0,-8.411840796E-1,9.510876656E0
1.838473126E1,-2.237352610E0,-8.409766555E-1,9.510909081E0
1.840491678E1,-2.237712860E0,-8.402124643E-1,9.510891914E0
1.842510256E1,-2.237803936E0,-8.395550847E-1,9.510929108E0
1.844528870E1,-2.237840176E0,-8.396311998E-1,9.510913849E0
1.846547527E1,-2.238222599E0,-8.400590420E-1,9.510786057E0
1.848566230E1,-2.238519669E0,-8.401882052E-1,9.510704041E0
1.850584980E1,-2.238591909E0,-8.401618004E-1,9.510689735E0
1.852603777E1,-2.238859415E0,-8.395760655E-1,9.510678291E0
1.854622620E1,-2.238958120E0,-8.392470479E-1,9.510684013E0
1.856641506E1,-2.238848448E0,-8.395856023E-1,9.510680199E0
1.858660428E1,-2.238714695E0,-8.398633599E-1,9.510687828E0
1.860679381E1,-2.238877058E0,-8.394771218E-1,9.510683060E0
1.862698360E1,-2.239299774E0,-8.390191793E-1,9.510623932E0
1.864717355E1,-2.239881516E0,-8.392316103E-1,9.510468483E0
1.866736355E1,-2.240002871E0,-8.395390511E-1,9.510412216E0
1.868755896E1,-2.239639997E0,-8.392671347E-1,9.510521889E0
1.870774204E1,-2.238734722E0,-8.388579488E-1,9.510771751E0
1.872792527E1,-2.237831116E0,-8.389619589E-1,9.510974884E0
1.874810886E1,-2.237357140E0,-8.399329185E-1,9.511000633E0
1.876829298E1,-2.237811089E0,-8.405830860E-1,9.510837555E0
1.878847777E1,-2.238598108E0,-8.402586579E-1,9.510680199E0
1.880866334E1,-2.239508867E0,-8.396326303E-1,9.510520935E0
1.882884974E1,-2.240938187E0,-8.393721581E-1,9.510207176E0
1.884903698E1,-2.242080212E0,-8.386378884E-1,9.510003090E0
1.886922506E1,-2.241718769E0,-8.377460837E-1,9.510166168E0
1.888941396E1,-2.241008520E0,-8.373688459E-1,9.510367393E0
1.890960360E1,-2.240716219E0,-8.375217319E-1,9.510422707E0
1.892979386E1,-2.240131617E0,-8.380655050E-1,9.510512352E0
1.894998464E1,-2.239144325E0,-8.389759660E-1,9.510664940E0
1.897017584E1,-2.238561153E0,-8.396002650E-1,9.510746956E0
1.899036730E1,-2.239034653E0,-8.393341303E-1,9.510659218E0
1.901055886E1,-2.240183592E0,-8.385061622E-1,9.510461807E0
1.903075006E1,-2.239547968E0,-8.389155865E-1,9.510574341E0
1.905093808E1,-2.238274574E0,-8.414279222E-1,9.510652542E0
1.907112605E1,-2.239082813E0,-8.433526158E-1,9.510292053E0
1.909131131E1,-2.240057945E0,-8.442308903E-1,9.509984016E0
1.911149678E1,-2.238292456E0,-8.449617624E-1,9.510334969E0
1.913168256E1,-2.234080553E0,-8.449764252E-1,9.511323929E0
1.915186870E1,-2.229617119E0,-8.438423872E-1,9.512472153E0
1.917205527E1,-2.227309704E0,-8.425511718E-1,9.513127327E0
1.919224230E1,-2.227259398E0,-8.414330482E-1,9.513237953E0
1.921242980E1,-2.229092360E0,-8.407112360E-1,9.512872696E0
1.923261777E1,-2.232460737E0,-8.398710489E-1,9.512156487E0
1.925280620E1,-2.235853434E0,-8.387325406E-1,9.511460304E0
1.927299506E1,-2.238532305E0,-8.379396200E-1,9.510899544E0
1.929318428E1,-2.240220785E0,-8.366384506E-1,9.510616302E0
1.931337381E1,-2.241261959E0,-8.351016045E-1,9.510507584E0
1.933356360E1,-2.241867065E0,-8.333613873E-1,9.510517120E0
1.935375355E1,-2.242273569E0,-8.310130239E-1,9.510625839E0
1.937394355E1,-2.244018555E0,-8.299577832E-1,9.510307312E0
1.939413896E1,-2.247200489E0,-8.315750360E-1,9.509413719E0
1.941432204E1,-2.251055479E0,-8.340212703E-1,9.508287430E0
1.943450527E1,-2.254526377E0,-8.364698291E-1,9.507250786E0
1.945468886E1,-2.255486965E0,-8.378743529E-1,9.506898880E0
1.947487298E1,-2.253858566E0,-8.376886845E-1,9.507301331E0
1.949505777E1,-2.250968695E0,-8.367359638E-1,9.508069992E0
1.951524329E1,-2.249336720E0,-8.364589810E-1,9.508481026E0
1.953542964E1,-2.248970032E0,-8.368479013E-1,9.508533478E0
1.955561683E1,-2.248113871E0,-8.380267024E-1,9.508632660E0
1.957580485E1,-2.246311426E0,-8.394302726E-1,9.508934021E0
1.959599370E1,-2.245443106E0,-8.401652575E-1,9.509074211E0
1.961618329E1,-2.245933533E0,-8.403818011E-1,9.508939743E0
1.963637355E1,-2.246974230E0,-8.405532837E-1,9.508678436E0
1.965656433E1,-2.248124599E0,-8.406890631E-1,9.508395195E0
1.967675553E1,-2.248736858E0,-8.397540450E-1,9.508332253E0
1.969694698E1,-2.247923613E0,-8.392086029E-1,9.508572578E0
1.971713855E1,-2.245921373E0,-8.394135833E-1,9.509028435E0
1.973732990E1,-2.243640900E0,-8.395732641E-1,9.509552002E0
1.975751792E1,-2.241935730E0,-8.400786519E-1,9.509909630E0
1.977770589E1,-2.241016150E0,-8.410019875E-1,9.510045052E0
1.979789115E1,-2.240619183E0,-8.415636420E-1,9.510088921E0
1.981807662E1,-2.240195751E0,-8.411833048E-1,9.510222435E0
1.983826240E1,-2.238669634E0,-8.406815529E-1,9.510625839E0
1.985844855E1,-2.237547398E0,-8.408058882E-1,9.510879517E0
1.987863511E1,-2.237965584E0,-8.413711190E-1,9.510730743E0
1.989882214E1,-2.238440037E0,-8.414742351E-1,9.510609627E0
1.991900964E1,-2.238021135E0,-8.417710662E-1,9.510682106E0
1.993919761E1,-2.236695051E0,-8.429926634E-1,9.510885239E0
1.995938605E1,-2.236589193E0,-8.441992998E-1,9.510804176E0
1.997957490E1,-2.237464666E0,-8.443127275E-1,9.510587692E0
1.999976412E1,-2.237704754E0,-8.439417481E-1,9.510563850E0
2.001995365E1,-2.237177610E0,-8.446714282E-1,9.510622978E0
2.004014344E1,-2.236747742E0,-8.455322981E-1,9.510646820E0
2.006033339E1,-2.236295462E0,-8.451848030E-1,9.510785103E0
2.008052339E1,-2.235466242E0,-8.450082541E-1,9.510995865E0
2.010071881E1,-2.234948635E0,-8.453550935E-1,9.511086464E0
2.012090178E1,-2.234897375E0,-8.454992771E-1,9.511086464E0
2.014108490E1,-2.234030485E0,-8.450795412E-1,9.511326790E0
2.016126839E1,-2.232733965E0,-8.442001939E-1,9.511709213E0
2.018145240E1,-2.231821775E0,-8.425121903E-1,9.512073517E0
2.020163709E1,-2.231846809E0,-8.401576877E-1,9.512275696E0
2.022182256E1,-2.233124495E0,-8.386813998E-1,9.512104988E0
2.024200886E1,-2.234982014E0,-8.394677043E-1,9.511600494E0
2.026219605E1,-2.237367392E0,-8.413574100E-1,9.510870934E0
2.028238412E1,-2.239280462E0,-8.425830603E-1,9.510313034E0
2.030257303E1,-2.239745855E0,-8.426601887E-1,9.510197639E0
2.032276271E1,-2.239236593E0,-8.416424990E-1,9.510407448E0
2.034295308E1,-2.238368273E0,-8.404737711E-1,9.510715485E0
2.036314396E1,-2.237409353E0,-8.403704166E-1,9.510949135E0
2.038333527E1,-2.236535788E0,-8.411271572E-1,9.511087418E0
2.040352683E1,-2.235841274E0,-8.419815898E-1,9.511176109E0
2.042371850E1,-2.235388517E0,-8.426491022E-1,9.511223793E0
2.044390954E1,-2.234915495E0,-8.429917693E-1,9.511303902E0
2.046409751E1,-2.234334469E0,-8.423257470E-1,9.511499405E0
2.048428277E1,-2.234122038E0,-8.413352370E-1,9.511636734E0
2.050446824E1,-2.234738827E0,-8.406760693E-1,9.511549950E0
2.052465396E1,-2.236166954E0,-8.407508731E-1,9.511207581E0
2.054484006E1,-2.237521172E0,-8.411175609E-1,9.510857582E0
2.056502657E1,-2.238268852E0,-8.406146169E-1,9.510725975E0
2.058521355E1,-2.237952948E0,-8.404422998E-1,9.510815620E0
2.060540100E1,-2.238175869E0,-8.412484527E-1,9.510691643E0
2.062558891E1,-2.239300489E0,-8.411714435E-1,9.510434151E0
2.064577730E1,-2.239514112E0,-8.401429653E-1,9.510474205E0
2.066596610E1,-2.239576340E0,-8.396654725E-1,9.510501862E0
2.068615532E1,-2.240112066E0,-8.397717476E-1,9.510366440E0
2.070634485E1,-2.240427494E0,-8.398841023E-1,9.510282516E0
2.072653464E1,-2.240741491E0,-8.400879502E-1,9.510190010E0
2.074672459E1,-2.241265059E0,-8.409550190E-1,9.509989738E0
2.076691464E1,-2.241573095E0,-8.416402340E-1,9.509857178E0
2.078711011E1,-2.242487669E0,-8.408274055E-1,9.509712219E0
2.080729324E1,-2.243334293E0,-8.393574357E-1,9.509643555E0
2.082747652E1,-2.244224548E0,-8.386161923E-1,9.509498596E0
2.084766016E1,-2.245389700E0,-8.384088278E-1,9.509242058E0
2.086784433E1,-2.246060610E0,-8.382688761E-1,9.509096146E0
2.088802912E1,-2.245924950E0,-8.380265236E-1,9.509149551E0
2.090821464E1,-2.245478630E0,-8.373883963E-1,9.509311676E0
2.092840100E1,-2.244799137E0,-8.366913795E-1,9.509531975E0
2.094858818E1,-2.243830204E0,-8.366661072E-1,9.509763718E0
2.096877620E1,-2.243288755E0,-8.368521333E-1,9.509874344E0
2.098896506E1,-2.243534088E0,-8.368630409E-1,9.509817123E0
2.100915464E1,-2.244401217E0,-8.364902139E-1,9.509644508E0
2.102934485E1,-2.244879007E0,-8.365244269E-1,9.509528160E0
2.104953558E1,-2.244513750E0,-8.370581865E-1,9.509568214E0
2.106972673E1,-2.244247913E0,-8.376011848E-1,9.509582520E0
2.108991813E1,-2.244267464E0,-8.372518420E-1,9.509608269E0
2.111010964E1,-2.244364023E0,-8.375199437E-1,9.509562492E0
2.113030089E1,-2.244925022E0,-8.386526704E-1,9.509330750E0
2.115048886E1,-2.245598316E0,-8.390408158E-1,9.509137154E0
2.117067412E1,-2.245662451E0,-8.385223746E-1,9.509167671E0
2.119085959E1,-2.245545864E0,-8.382762671E-1,9.509217262E0
2.121104532E1,-2.245919943E0,-8.377071619E-1,9.509178162E0
2.123123141E1,-2.246297836E0,-8.364637494E-1,9.509198189E0
2.125141792E1,-2.246128798E0,-8.358071446E-1,9.509296417E0
2.127160490E1,-2.246233225E0,-8.358081579E-1,9.509271622E0
2.129179235E1,-2.246501446E0,-8.360530138E-1,9.509186745E0
2.131198027E1,-2.246855259E0,-8.363017440E-1,9.509080887E0
2.133216865E1,-2.247077703E0,-8.371601105E-1,9.508953094E0
2.135235745E1,-2.247098923E0,-8.384165168E-1,9.508837700E0
2.137254662E1,-2.246575594E0,-8.387545943E-1,9.508931160E0
2.139273610E1,-2.245709658E0,-8.380327225E-1,9.509199142E0
2.141292584E1,-2.245231867E0,-8.371769786E-1,9.509387016E0
2.143311574E1,-2.245515108E0,-8.362728953E-1,9.509401321E0
2.145330574E1,-2.245947599E0,-8.356968760E-1,9.509349823E0
2.147350115E1,-2.246575356E0,-8.352754712E-1,9.509237289E0
2.149368443E1,-2.246916533E0,-8.345307112E-1,9.509222984E0
2.151386787E1,-2.246715784E0,-8.342083097E-1,9.509297371E0
2.153405162E1,-2.246171951E0,-8.347643614E-1,9.509378433E0
2.155423584E1,-2.245415688E0,-8.354001045E-1,9.509499550E0
2.157442068E1,-2.245070457E0,-8.356295824E-1,9.509561539E0
2.159460626E1,-2.245079279E0,-8.354158401E-1,9.509578705E0
2.161479261E1,-2.244957924E0,-8.348212242E-1,9.509658813E0
2.163497980E1,-2.245076180E0,-8.345428705E-1,9.509655952E0
2.165516782E1,-2.245379686E0,-8.345668316E-1,9.509582520E0
2.167535662E1,-2.245065212E0,-8.350370526E-1,9.509614944E0
2.169554615E1,-2.244677067E0,-8.361036777E-1,9.509613037E0
2.171573631E1,-2.244864941E0,-8.366067410E-1,9.509524345E0
2.173592699E1,-2.245534897E0,-8.359577060E-1,9.509423256E0
2.175611808E1,-2.245728970E0,-8.350473046E-1,9.509457588E0
2.177630943E1,-2.245908737E0,-8.352976441E-1,9.509392738E0
2.179650089E1,-2.246975183E0,-8.358188868E-1,9.509096146E0
2.181669199E1,-2.247757196E0,-8.355156183E-1,9.508936882E0
2.183687995E1,-2.247032881E0,-8.357792497E-1,9.509085655E0
2.185706521E1,-2.245974064E0,-8.370918036E-1,9.509220123E0
2.187725068E1,-2.245280266E0,-8.388009667E-1,9.509232521E0
2.189743641E1,-2.244022131E0,-8.401007056E-1,9.509415627E0
2.191762251E1,-2.242622614E0,-8.410011530E-1,9.509665489E0
2.193780902E1,-2.241925240E0,-8.411151767E-1,9.509819984E0
2.195799600E1,-2.241718054E0,-8.410080075E-1,9.509879112E0
2.197818344E1,-2.241809845E0,-8.410679102E-1,9.509851456E0
2.199837136E1,-2.241943121E0,-8.416050076E-1,9.509773254E0
2.201855974E1,-2.242248297E0,-8.419525027E-1,9.509670258E0
2.203874855E1,-2.242378950E0,-8.417146802E-1,9.509659767E0
2.205893771E1,-2.242458105E0,-8.415160775E-1,9.509658813E0
2.207912719E1,-2.241995335E0,-8.416096568E-1,9.509759903E0
2.209931693E1,-2.241135120E0,-8.424131870E-1,9.509891510E0
2.211950683E1,-2.240255117E0,-8.429509997E-1,9.510051727E0
2.213969683E1,-2.239275694E0,-8.429101706E-1,9.510285378E0
2.215989224E1,-2.238802433E0,-8.427758217E-1,9.510409355E0
2.218007542E1,-2.238744736E0,-8.429669142E-1,9.510405540E0
2.220025876E1,-2.238729715E0,-8.432419896E-1,9.510385513E0
2.222044245E1,-2.238478422E0,-8.428812623E-1,9.510477066E0
2.224062667E1,-2.238322258E0,-8.420318961E-1,9.510587692E0
2.226081152E1,-2.238585234E0,-8.416196704E-1,9.510562897E0
2.228099709E1,-2.238470554E0,-8.423802853E-1,9.510521889E0
2.230118344E1,-2.238239050E0,-8.432140350E-1,9.510501862E0
2.232137063E1,-2.238177538E0,-8.433401585E-1,9.510505676E0
2.234155876E1,-2.237880468E0,-8.432828188E-1,9.510581017E0
2.236174766E1,-2.238570929E0,-8.442270756E-1,9.510334969E0
2.238193730E1,-2.239705086E0,-8.440109491E-1,9.510087013E0
2.240212756E1,-2.239709616E0,-8.429812789E-1,9.510177612E0
2.242231834E1,-2.239095211E0,-8.432382345E-1,9.510299683E0
2.244250949E1,-2.239088535E0,-8.440590501E-1,9.510228157E0
2.246270084E1,-2.238727570E0,-8.443623781E-1,9.510286331E0
2.248289230E1,-2.237649918E0,-8.444323540E-1,9.510533333E0
2.250308282E1,-2.236991405E0,-8.446233273E-1,9.510671616E0
2.252327079E1,-2.237055063E0,-8.446040154E-1,9.510658264E0
2.254345605E1,-2.237607718E0,-8.439285159E-1,9.510587692E0
2.256364152E1,-2.238433599E0,-8.439258933E-1,9.510394096E0
2.258382725E1,-2.238856792E0,-8.442324400E-1,9.510268211E0
2.260401334E1,-2.239096403E0,-8.436802030E-1,9.510259628E0
2.262419985E1,-2.238593817E0,-8.428763747E-1,9.510449409E0
2.264438683E1,-2.237962246E0,-8.426041603E-1,9.510622025E0
2.266457428E1,-2.237545729E0,-8.421390653E-1,9.510760307E0
2.268476219E1,-2.237502813E0,-8.414643407E-1,9.510830879E0
2.270495058E1,-2.237833500E0,-8.412813544E-1,9.510769844E0
2.272513938E1,-2.238460302E0,-8.415449262E-1,9.510598183E0
2.274532855E1,-2.239336967E0,-8.412774205E-1,9.510416031E0
2.276551803E1,-2.239821911E0,-8.406422734E-1,9.510357857E0
2.278570777E1,-2.239830256E0,-8.396824598E-1,9.510440826E0
2.280589766E1,-2.239772081E0,-8.387597799E-1,9.510535240E0
2.282608766E1,-2.239892721E0,-8.377249241E-1,9.510598183E0
2.284628308E1,-2.240024567E0,-8.371418715E-1,9.510618210E0
2.286646615E1,-2.240212202E0,-8.369527459E-1,9.510590553E0
2.288664938E1,-2.240604162E0,-8.362048864E-1,9.510563850E0
2.290683298E1,-2.241053343E0,-8.357721567E-1,9.510496140E0
2.292701709E1,-2.241199732E0,-8.360922933E-1,9.510434151E0
2.294720183E1,-2.242278099E0,-8.364716768E-1,9.510147095E0
2.296738730E1,-2.243412256E0,-8.360382318E-1,9.509917259E0
2.298757360E1,-2.243802786E0,-8.359317183E-1,9.509834290E0
2.300776074E1,-2.244166136E0,-8.362333179E-1,9.509722710E0
2.302794870E1,-2.244287252E0,-8.365451694E-1,9.509666443E0
2.304813751E1,-2.243752241E0,-8.377392292E-1,9.509687424E0
2.306832704E1,-2.242769957E0,-8.388444781E-1,9.509821892E0
2.308851725E1,-2.241758108E0,-8.389831781E-1,9.510048866E0
2.310870798E1,-2.240974665E0,-8.382929564E-1,9.510293961E0
2.312889912E1,-2.240829945E0,-8.374998569E-1,9.510397911E0
2.314909053E1,-2.241518974E0,-8.373336792E-1,9.510249138E0
2.316928204E1,-2.242122889E0,-8.371825218E-1,9.510120392E0
2.318947350E1,-2.242075920E0,-8.365421891E-1,9.510188103E0
2.320966146E1,-2.241272688E0,-8.363427520E-1,9.510395050E0
2.322984672E1,-2.240772247E0,-8.361883759E-1,9.510525703E0
2.325003219E1,-2.240827322E0,-8.356972337E-1,9.510558128E0
2.327021792E1,-2.241018295E0,-8.357239962E-1,9.510509491E0
2.329040402E1,-2.240660667E0,-8.363893032E-1,9.510535240E0
2.331059053E1,-2.240034580E0,-8.368977904E-1,9.510638237E0
2.333077751E1,-2.239905119E0,-8.364952207E-1,9.510704041E0
2.335096495E1,-2.239809275E0,-8.359698057E-1,9.510772705E0
2.337115287E1,-2.240002632E0,-8.361888528E-1,9.510706902E0
2.339134126E1,-2.240239143E0,-8.363292217E-1,9.510639191E0
2.341153006E1,-2.240608454E0,-8.360825777E-1,9.510574341E0
2.343171923E1,-2.240817308E0,-8.357478976E-1,9.510554314E0
2.345190870E1,-2.241142273E0,-8.356036544E-1,9.510490417E0
2.347209844E1,-2.241475344E0,-8.354898691E-1,9.510422707E0
2.349228834E1,-2.241333485E0,-8.353914022E-1,9.510464668E0
2.351247834E1,-2.240907192E0,-8.358251452E-1,9.510526657E0
2.353267376E1,-2.241293907E0,-8.362082243E-1,9.510401726E0
2.355285672E1,-2.242642403E0,-8.356587887E-1,9.510132790E0
2.357303985E1,-2.243500233E0,-8.352791071E-1,9.509963036E0
2.359322334E1,-2.244039774E0,-8.353630900E-1,9.509828568E0
2.361340735E1,-2.244977474E0,-8.353115916E-1,9.509612083E0
2.363359204E1,-2.245241642E0,-8.353580236E-1,9.509545326E0
2.365377751E1,-2.245221138E0,-8.359393477E-1,9.509498596E0
2.367396381E1,-2.245483875E0,-8.367810845E-1,9.509363174E0
2.369415100E1,-2.245513439E0,-8.366608024E-1,9.509366989E0
2.371433907E1,-2.245604277E0,-8.356706500E-1,9.509432793E0
2.373452798E1,-2.245968103E0,-8.349813819E-1,9.509407043E0
2.375471761E1,-2.246842861E0,-8.352106214E-1,9.509180069E0
2.377490792E1,-2.247786045E0,-8.350387216E-1,9.508972168E0
2.379509876E1,-2.247849941E0,-8.347026110E-1,9.508987427E0
2.381529001E1,-2.247191668E0,-8.344534039E-1,9.509164810E0
2.383548152E1,-2.246522903E0,-8.337703347E-1,9.509383202E0
2.385567313E1,-2.246389389E0,-8.331512213E-1,9.509468079E0
2.387586402E1,-2.246436357E0,-8.331995606E-1,9.509451866E0
2.389605198E1,-2.246488333E0,-8.333959579E-1,9.509423256E0
2.391623990E1,-2.246629715E0,-8.333032727E-1,9.509397507E0
2.393642511E1,-2.246710539E0,-8.329378366E-1,9.509409904E0
2.395661053E1,-2.246691704E0,-8.330955505E-1,9.509401321E0
2.397679626E1,-2.246717453E0,-8.336935043E-1,9.509343147E0
2.399698235E1,-2.246821880E0,-8.339838386E-1,9.509292603E0
2.401716886E1,-2.247046232E0,-8.339285254E-1,9.509244919E0
2.403735584E1,-2.247016668E0,-8.342292309E-1,9.509225845E0
2.405754329E1,-2.247316837E0,-8.346626163E-1,9.509115219E0
2.407773120E1,-2.247937202E0,-8.349333405E-1,9.508945465E0
2.409791959E1,-2.247761965E0,-8.350170255E-1,9.508980751E0
2.411810839E1,-2.247723103E0,-8.352404833E-1,9.508970261E0
2.413829756E1,-2.248327494E0,-8.353460431E-1,9.508817673E0
2.415848704E1,-2.248733044E0,-8.353543282E-1,9.508721352E0
2.417867678E1,-2.248163700E0,-8.357175589E-1,9.508823395E0
2.419886667E1,-2.247860193E0,-8.355798125E-1,9.508908272E0
2.421905667E1,-2.248552084E0,-8.351373076E-1,9.508783340E0
2.423925209E1,-2.248574972E0,-8.353145719E-1,9.508762360E0
2.425943511E1,-2.248201132E0,-8.360918760E-1,9.508781433E0
2.427961829E1,-2.248393536E0,-8.367921710E-1,9.508674622E0
2.429980183E1,-2.248199940E0,-8.370932937E-1,9.508694649E0
2.431998589E1,-2.247404575E0,-8.363003135E-1,9.508951187E0
2.434017063E1,-2.246688366E0,-8.357784152E-1,9.509166718E0
2.436035610E1,-2.246981382E0,-8.358289003E-1,9.509092331E0
2.438054240E1,-2.247785807E0,-8.358510733E-1,9.508901596E0
2.440072954E1,-2.247436285E0,-8.360839486E-1,9.508962631E0
2.442091751E1,-2.246896982E0,-8.362925053E-1,9.509072304E0
2.444110631E1,-2.246613741E0,-8.359787464E-1,9.509166718E0
2.446129584E1,-2.246171236E0,-8.359015584E-1,9.509278297E0
2.448148605E1,-2.245723009E0,-8.359380960E-1,9.509381294E0
2.450167678E1,-2.245734930E0,-8.354330063E-1,9.509422302E0
2.452186792E1,-2.246169090E0,-8.352263570E-1,9.509337425E0
2.454205933E1,-2.246836424E0,-8.349306583E-1,9.509206772E0
2.456225084E1,-2.247639656E0,-8.343223929E-1,9.509069443E0
2.458244225E1,-2.248357058E0,-8.343874812E-1,9.508893967E0
2.460263016E1,-2.248474360E0,-8.350096345E-1,9.508812904E0
2.462281537E1,-2.247886658E0,-8.358279467E-1,9.508879662E0
2.464300079E1,-2.246969700E0,-8.371978402E-1,9.508975029E0
2.466318652E1,-2.246267319E0,-8.379229307E-1,9.509078026E0
2.468337261E1,-2.246133566E0,-8.370996714E-1,9.509181023E0
2.470355912E1,-2.245716810E0,-8.359212279E-1,9.509384155E0
2.472374610E1,-2.245657444E0,-8.358427286E-1,9.509405136E0
2.474393355E1,-2.246459723E0,-8.367225528E-1,9.509138107E0
2.476412146E1,-2.247079134E0,-8.369136453E-1,9.508975029E0
2.478430985E1,-2.246726990E0,-8.373211026E-1,9.509021759E0
2.480449865E1,-2.246273041E0,-8.384990692E-1,9.509024620E0
2.482468782E1,-2.246761799E0,-8.396298289E-1,9.508810043E0
2.484487730E1,-2.246987343E0,-8.407876492E-1,9.508654594E0
2.486506704E1,-2.246573925E0,-8.421700597E-1,9.508629799E0
2.488525693E1,-2.245852709E0,-8.437354565E-1,9.508661270E0
2.490544688E1,-2.245536804E0,-8.449971080E-1,9.508624077E0
2.492564225E1,-2.245732546E0,-8.453199267E-1,9.508548737E0
2.494582521E1,-2.246176958E0,-8.450306058E-1,9.508470535E0
2.496600834E1,-2.247466564E0,-8.443743587E-1,9.508223534E0
2.498619183E1,-2.249360800E0,-8.436127305E-1,9.507843018E0
2.500637584E1,-2.251400948E0,-8.435273767E-1,9.507368088E0
2.502656053E1,-2.252751827E0,-8.440057635E-1,9.507005692E0
2.504674600E1,-2.252741337E0,-8.448066711E-1,9.506937027E0
2.506693230E1,-2.251831055E0,-8.450464010E-1,9.507130623E0
2.508711949E1,-2.251181841E0,-8.444670439E-1,9.507336617E0
2.510730751E1,-2.251577854E0,-8.442811370E-1,9.507259369E0
2.512749636E1,-2.253872395E0,-8.440852165E-1,9.506732941E0
2.514768594E1,-2.256130695E0,-8.442428112E-1,9.506182671E0
2.516787620E1,-2.256943226E0,-8.449382186E-1,9.505928040E0
2.518806699E1,-2.257889748E0,-8.442053795E-1,9.505768776E0
2.520825818E1,-2.258503675E0,-8.422853947E-1,9.505793571E0
2.522844964E1,-2.258588791E0,-8.408783674E-1,9.505896568E0
2.524864120E1,-2.259381533E0,-8.410615921E-1,9.505692482E0
2.526883225E1,-2.260474920E0,-8.423109055E-1,9.505321503E0
2.528902016E1,-2.260878801E0,-8.436749578E-1,9.505105019E0
2.530920537E1,-2.259736776E0,-8.438206911E-1,9.505363464E0
2.532939079E1,-2.258308887E0,-8.443974257E-1,9.505652428E0
2.534957646E1,-2.258409739E0,-8.457645774E-1,9.505506516E0
2.536976251E1,-2.259790897E0,-8.456228971E-1,9.505190849E0
2.538994896E1,-2.260838985E0,-8.448563218E-1,9.505009651E0
2.541013589E1,-2.261929989E0,-8.456851244E-1,9.504676819E0
2.543032329E1,-2.262359381E0,-8.473369479E-1,9.504426956E0
2.545051115E1,-2.260593653E0,-8.484936357E-1,9.504744530E0
2.547069948E1,-2.258099318E0,-8.493914604E-1,9.505256653E0
2.549088829E1,-2.256023169E0,-8.498859406E-1,9.505705833E0
2.551107751E1,-2.254945993E0,-8.498778343E-1,9.505961418E0
2.553126704E1,-2.255434513E0,-8.489267826E-1,9.505930901E0
2.555145683E1,-2.256364584E0,-8.483796120E-1,9.505759239E0
2.557164678E1,-2.256786585E0,-8.479711413E-1,9.505695343E0
2.559183678E1,-2.256398678E0,-8.476171494E-1,9.505819321E0
2.561203219E1,-2.255816698E0,-8.473848701E-1,9.505977631E0
2.563221511E1,-2.255809069E0,-8.470963240E-1,9.506005287E0
2.565239818E1,-2.255858183E0,-8.461554646E-1,9.506078720E0
2.567258162E1,-2.255842924E0,-8.451553583E-1,9.506169319E0
2.569276558E1,-2.256055593E0,-8.451747894E-1,9.506117821E0
2.571295021E1,-2.256371260E0,-8.457675576E-1,9.505990982E0
2.573313563E1,-2.256452560E0,-8.457708955E-1,9.505970955E0
2.575332188E1,-2.256188154E0,-8.453673720E-1,9.506069183E0
2.577350902E1,-2.255621910E0,-8.448343873E-1,9.506251335E0
2.579369704E1,-2.254994392E0,-8.442683220E-1,9.506450653E0
2.581388589E1,-2.254452944E0,-8.438661098E-1,9.506614685E0
2.583407553E1,-2.253715277E0,-8.439580202E-1,9.506780624E0
2.585426584E1,-2.253585577E0,-8.441510201E-1,9.506795883E0
2.587445667E1,-2.253904581E0,-8.433634639E-1,9.506789207E0
2.589464792E1,-2.253461361E0,-8.429082632E-1,9.506934166E0
2.591483943E1,-2.253052473E0,-8.435825706E-1,9.506971359E0
2.593503105E1,-2.253887653E0,-8.436647654E-1,9.506767273E0
2.595522204E1,-2.254680157E0,-8.431483507E-1,9.506624222E0
2.597540995E1,-2.254259586E0,-8.432911634E-1,9.506711006E0
2.599559516E1,-2.254379749E0,-8.433715701E-1,9.506675720E0
2.601578058E1,-2.254554510E0,-8.427364230E-1,9.506690979E0
2.603596626E1,-2.253793716E0,-8.423753381E-1,9.506902695E0
2.605615230E1,-2.252874613E0,-8.422297239E-1,9.507134438E0
2.607633876E1,-2.251791954E0,-8.415772319E-1,9.507448196E0
2.609652568E1,-2.250919819E0,-8.404453397E-1,9.507755280E0
2.611671308E1,-2.250538111E0,-8.399556875E-1,9.507887840E0
2.613690094E1,-2.250595093E0,-8.405739069E-1,9.507820129E0
2.615708928E1,-2.251130581E0,-8.411940932E-1,9.507638931E0
2.617727803E1,-2.251864910E0,-8.409088850E-1,9.507490158E0
2.619746714E1,-2.252253532E0,-8.406662941E-1,9.507419586E0
2.621765657E1,-2.252092123E0,-8.404047489E-1,9.507480621E0
2.623784626E1,-2.251827240E0,-8.401318192E-1,9.507567406E0
2.625803610E1,-2.251599789E0,-8.402208090E-1,9.507613182E0
2.627822605E1,-2.251710892E0,-8.407930136E-1,9.507536888E0
2.629842141E1,-2.251821041E0,-8.413376212E-1,9.507462502E0
2.631860475E1,-2.252729654E0,-8.415306211E-1,9.507230759E0
2.633878824E1,-2.253778696E0,-8.413186073E-1,9.506999969E0
2.635897204E1,-2.254041433E0,-8.410699964E-1,9.506958961E0
2.637915631E1,-2.253417015E0,-8.402660489E-1,9.507178307E0
2.639934120E1,-2.251895189E0,-8.393036127E-1,9.507624626E0
2.641952683E1,-2.250688076E0,-8.384312391E-1,9.507987976E0
2.643971324E1,-2.250311852E0,-8.380465508E-1,9.508111000E0
2.645990042E1,-2.250229359E0,-8.377168775E-1,9.508159637E0
2.648008839E1,-2.250401497E0,-8.372100592E-1,9.508163452E0
2.650027714E1,-2.251658678E0,-8.372424245E-1,9.507862091E0
2.652046657E1,-2.253890038E0,-8.373090625E-1,9.507328033E0
2.654065662E1,-2.255091906E0,-8.367872238E-1,9.507088661E0
2.656084719E1,-2.254230738E0,-8.361746073E-1,9.507347107E0
2.658103813E1,-2.253414631E0,-8.359368443E-1,9.507560730E0
2.660122933E1,-2.253759384E0,-8.361628652E-1,9.507458687E0
2.662142063E1,-2.253988981E0,-8.373486400E-1,9.507301331E0
2.664161152E1,-2.253356457E0,-8.385486603E-1,9.507344246E0
2.666179943E1,-2.252570629E0,-8.389964104E-1,9.507492065E0
2.668198464E1,-2.252538681E0,-8.386086226E-1,9.507533073E0
2.670217006E1,-2.252835751E0,-8.388057351E-1,9.507446289E0
2.672235574E1,-2.253333807E0,-8.392805457E-1,9.507286072E0
2.674254178E1,-2.254308224E0,-8.389354944E-1,9.507085800E0
2.676272824E1,-2.255244255E0,-8.383717537E-1,9.506913185E0
2.678291516E1,-2.255246162E0,-8.384373188E-1,9.506907463E0
2.680310256E1,-2.255210400E0,-8.383589983E-1,9.506922722E0
2.682329042E1,-2.255890846E0,-8.377695680E-1,9.506813049E0
2.684347876E1,-2.256565809E0,-8.370791078E-1,9.506713867E0
2.686366751E1,-2.256900787E0,-8.367393017E-1,9.506663322E0
2.688385662E1,-2.257178068E0,-8.364425302E-1,9.506624222E0
2.690404605E1,-2.257371664E0,-8.363350034E-1,9.506587029E0
2.692423574E1,-2.257558346E0,-8.363825083E-1,9.506539345E0
2.694442558E1,-2.257453203E0,-8.365336061E-1,9.506550789E0
2.696461553E1,-2.257317066E0,-8.356969357E-1,9.506655693E0
2.698481089E1,-2.256788492E0,-8.347293139E-1,9.506867409E0
2.700499417E1,-2.256160259E0,-8.345085382E-1,9.507035255E0
2.702517761E1,-2.256309271E0,-8.348358870E-1,9.506971359E0
2.704536136E1,-2.256692410E0,-8.356669545E-1,9.506807327E0
2.706554558E1,-2.256656885E0,-8.361980319E-1,9.506769180E0
2.708573042E1,-2.256835222E0,-8.373264074E-1,9.506628036E0
2.710591600E1,-2.257468462E0,-8.382136822E-1,9.506399155E0
2.712610235E1,-2.257394791E0,-8.382064104E-1,9.506417274E0
2.714628954E1,-2.257055998E0,-8.377888203E-1,9.506534576E0
2.716647756E1,-2.257059097E0,-8.372054100E-1,9.506585121E0
2.718666636E1,-2.257302284E0,-8.375170827E-1,9.506500244E0
2.720685584E1,-2.256488562E0,-8.387310505E-1,9.506585121E0
2.722704594E1,-2.254810333E0,-8.398163915E-1,9.506889343E0
2.724723657E1,-2.254238129E0,-8.403701782E-1,9.506975174E0
2.726742756E1,-2.254947662E0,-8.394780159E-1,9.506885529E0
2.728761881E1,-2.255486488E0,-8.380014896E-1,9.506887436E0
2.730781016E1,-2.255979776E0,-8.371170163E-1,9.506848335E0
2.732800089E1,-2.257242441E0,-8.365119696E-1,9.506602287E0
2.734818881E1,-2.257902861E0,-8.362174630E-1,9.506471634E0
2.736837402E1,-2.257566690E0,-8.363388181E-1,9.506540298E0
2.738855943E1,-2.257196665E0,-8.363976479E-1,9.506623268E0
2.740874511E1,-2.257337332E0,-8.362349272E-1,9.506604195E0
2.742893115E1,-2.257482290E0,-8.357496858E-1,9.506612778E0
2.744911761E1,-2.256963015E0,-8.355746269E-1,9.506751060E0
2.746930454E1,-2.256784916E0,-8.354833722E-1,9.506801605E0
2.748949193E1,-2.257252932E0,-8.352119923E-1,9.506714821E0
2.750967980E1,-2.257616282E0,-8.353651166E-1,9.506614685E0
2.752986813E1,-2.257576227E0,-8.358492255E-1,9.506581306E0
2.755005688E1,-2.257196903E0,-8.359148502E-1,9.506666183E0
2.757024600E1,-2.256614208E0,-8.352513909E-1,9.506861687E0
2.759043542E1,-2.255990982E0,-8.353780508E-1,9.506999016E0
2.761062511E1,-2.255495548E0,-8.360093236E-1,9.507061005E0
2.763081495E1,-2.256178379E0,-8.360145092E-1,9.506898880E0
2.765100490E1,-2.256595850E0,-8.357252479E-1,9.506824493E0
2.767120027E1,-2.256401062E0,-8.356720209E-1,9.506875992E0
2.769138344E1,-2.256587982E0,-8.360246420E-1,9.506800652E0
2.771156678E1,-2.257431030E0,-8.355795741E-1,9.506639481E0
2.773175048E1,-2.257359743E0,-8.348852992E-1,9.506717682E0
2.775193464E1,-2.256742716E0,-8.347667456E-1,9.506875038E0
2.777211943E1,-2.256935358E0,-8.350389600E-1,9.506805420E0
2.779230495E1,-2.257399321E0,-8.355439901E-1,9.506649971E0
2.781249126E1,-2.256829500E0,-8.367890120E-1,9.506675720E0
2.783267839E1,-2.255739927E0,-8.382911682E-1,9.506802559E0
2.785286636E1,-2.255827904E0,-8.395101428E-1,9.506673813E0
2.787305511E1,-2.257343769E0,-8.401908875E-1,9.506254196E0
2.789324459E1,-2.258676291E0,-8.405252695E-1,9.505908012E0
2.791343469E1,-2.259502172E0,-8.406702280E-1,9.505700111E0
2.793362532E1,-2.260196686E0,-8.405146003E-1,9.505547523E0
2.795381631E1,-2.260651588E0,-8.411103487E-1,9.505386353E0
2.797400756E1,-2.260642529E0,-8.417404890E-1,9.505331993E0
2.799419891E1,-2.259645939E0,-8.412151337E-1,9.505616188E0
2.801439006E1,-2.257711411E0,-8.403138518E-1,9.506155968E0
2.803457798E1,-2.256158829E0,-8.394495249E-1,9.506600380E0
2.805476318E1,-2.255154133E0,-8.382161260E-1,9.506948471E0
2.807494860E1,-2.253949165E0,-8.370879889E-1,9.507333755E0
2.809513428E1,-2.253147125E0,-8.367326856E-1,9.507555008E0
2.811532032E1,-2.253015518E0,-8.373331428E-1,9.507533073E0
2.813550678E1,-2.252445459E0,-8.380361199E-1,9.507605553E0
2.815569370E1,-2.251382113E0,-8.389575481E-1,9.507776260E0
2.817588110E1,-2.250929356E0,-8.385888338E-1,9.507916451E0
2.819606896E1,-2.251243830E0,-8.376526833E-1,9.507924080E0
2.821625730E1,-2.252087593E0,-8.374208212E-1,9.507745743E0
2.823644605E1,-2.253860235E0,-8.372941613E-1,9.507335663E0
2.825663516E1,-2.255685806E0,-8.376109004E-1,9.506875992E0
2.827682459E1,-2.257522345E0,-8.389236927E-1,9.506323814E0
2.829701428E1,-2.258372307E0,-8.394623399E-1,9.506073952E0
2.831720412E1,-2.258440733E0,-8.397099972E-1,9.506036758E0
2.833739407E1,-2.258150101E0,-8.405358791E-1,9.506031990E0
2.835758943E1,-2.257175446E0,-8.412775993E-1,9.506197929E0
2.837777251E1,-2.255572319E0,-8.414199948E-1,9.506566048E0
2.839795574E1,-2.252347231E0,-8.425897360E-1,9.507226944E0
2.841813933E1,-2.248169184E0,-8.438178301E-1,9.508107185E0
2.843832344E1,-2.246180296E0,-8.437961936E-1,9.508578300E0
2.845850818E1,-2.246644974E0,-8.432222009E-1,9.508520126E0
2.847869365E1,-2.247639656E0,-8.432512879E-1,9.508281708E0
2.849887995E1,-2.248203516E0,-8.439047933E-1,9.508090973E0
2.851906709E1,-2.248662233E0,-8.430413604E-1,9.508059502E0
2.853925506E1,-2.248298407E0,-8.415078521E-1,9.508280754E0
2.855944381E1,-2.247731447E0,-8.405776620E-1,9.508497238E0
2.857963329E1,-2.247277737E0,-8.411509395E-1,9.508553505E0
2.859982339E1,-2.246695995E0,-8.428191543E-1,9.508543968E0
2.862001402E1,-2.245818615E0,-8.447641134E-1,9.508578300E0
2.864020506E1,-2.245261431E0,-8.456997871E-1,9.508626938E0
2.866039636E1,-2.245092154E0,-8.454452753E-1,9.508689880E0
2.868058777E1,-2.244449615E0,-8.449168205E-1,9.508888245E0
2.870077902E1,-2.244157791E0,-8.447003365E-1,9.508975983E0
2.872096693E1,-2.244493246E0,-8.452284932E-1,9.508849144E0
2.874115214E1,-2.244308472E0,-8.457162976E-1,9.508850098E0
2.876133756E1,-2.243703365E0,-8.455718756E-1,9.509005547E0
2.878152324E1,-2.242631435E0,-8.457627892E-1,9.509242058E0
2.880170928E1,-2.242254734E0,-8.461812139E-1,9.509292603E0
2.882189574E1,-2.243419886E0,-8.450401425E-1,9.509119034E0
2.884208266E1,-2.243996620E0,-8.441299200E-1,9.509064674E0
2.886227006E1,-2.244407177E0,-8.453626633E-1,9.508858681E0
2.888245792E1,-2.245816231E0,-8.461107016E-1,9.508459091E0
2.890264626E1,-2.246011496E0,-8.456779718E-1,9.508451462E0
2.892283501E1,-2.244852543E0,-8.455308080E-1,9.508738518E0
2.894302412E1,-2.245019913E0,-8.457310200E-1,9.508681297E0
2.896321355E1,-2.245582104E0,-8.460171819E-1,9.508522987E0
2.898340324E1,-2.244789839E0,-8.463450670E-1,9.508680344E0
2.900359308E1,-2.243234158E0,-8.462634683E-1,9.509055138E0
2.902378303E1,-2.242977381E0,-8.452989459E-1,9.509202003E0
2.904397839E1,-2.244241476E0,-8.438649774E-1,9.509030342E0
2.906416136E1,-2.245288372E0,-8.432092071E-1,9.508841515E0
2.908434449E1,-2.245753050E0,-8.434280753E-1,9.508712769E0
2.910452798E1,-2.246835709E0,-8.431096673E-1,9.508483887E0
2.912471198E1,-2.247975826E0,-8.422873616E-1,9.508288383E0
2.914489667E1,-2.249117136E0,-8.420727849E-1,9.508037567E0
2.916508209E1,-2.250026703E0,-8.419294953E-1,9.507834435E0
2.918526834E1,-2.250305891E0,-8.417935967E-1,9.507781029E0
2.920545542E1,-2.250332594E0,-8.417202830E-1,9.507780075E0
2.922564334E1,-2.249993801E0,-8.415396214E-1,9.507877350E0
2.924583209E1,-2.249270201E0,-8.417338729E-1,9.508030891E0
2.926602162E1,-2.248777628E0,-8.421680331E-1,9.508109093E0
2.928621183E1,-2.248630524E0,-8.426842093E-1,9.508097649E0
2.930640256E1,-2.249123573E0,-8.422839642E-1,9.508018494E0
2.932659370E1,-2.249651194E0,-8.415807486E-1,9.507954597E0
2.934678511E1,-2.249952555E0,-8.416438103E-1,9.507878304E0
2.936697662E1,-2.249502897E0,-8.419823050E-1,9.507953644E0
2.938716782E1,-2.249491692E0,-8.422206640E-1,9.507935524E0
2.940735568E1,-2.250024319E0,-8.424302340E-1,9.507790565E0
2.942754084E1,-2.250832081E0,-8.431575298E-1,9.507534981E0
2.944772620E1,-2.251348495E0,-8.445644975E-1,9.507287979E0
2.946791188E1,-2.251560211E0,-8.446825743E-1,9.507227898E0
2.948809792E1,-2.251446009E0,-8.431596756E-1,9.507389069E0
2.950828438E1,-2.250981092E0,-8.416939378E-1,9.507629395E0
2.952847131E1,-2.251219749E0,-8.411403894E-1,9.507621765E0
2.954865870E1,-2.252302885E0,-8.412756324E-1,9.507353783E0
2.956884657E1,-2.253371954E0,-8.422691226E-1,9.507012367E0
2.958903490E1,-2.253424406E0,-8.431475163E-1,9.506921768E0
2.960922365E1,-2.252620697E0,-8.433246613E-1,9.507096291E0
2.962941277E1,-2.251727819E0,-8.428598046E-1,9.507349014E0
2.964960219E1,-2.251662016E0,-8.420934677E-1,9.507432938E0
2.966979188E1,-2.252967596E0,-8.417745829E-1,9.507152557E0
2.968998173E1,-2.254974127E0,-8.414799571E-1,9.506701469E0
2.971017167E1,-2.256169558E0,-8.411177397E-1,9.506451607E0
2.973036704E1,-2.256631136E0,-8.415728807E-1,9.506300926E0
2.975054995E1,-2.256930113E0,-8.417925835E-1,9.506210327E0
2.977073303E1,-2.256522179E0,-8.415336609E-1,9.506329536E0
2.979091646E1,-2.255776644E0,-8.412601948E-1,9.506530762E0
2.981110042E1,-2.255899429E0,-8.407847881E-1,9.506544113E0
2.983128506E1,-2.256296158E0,-8.404189944E-1,9.506482124E0
2.985147048E1,-2.256284475E0,-8.403334618E-1,9.506492615E0
2.987165672E1,-2.256521940E0,-8.403603435E-1,9.506434441E0
2.989184386E1,-2.256731272E0,-8.402441144E-1,9.506394386E0
2.991203188E1,-2.256656170E0,-8.398705125E-1,9.506446838E0
2.993222074E1,-2.256050110E0,-8.398835659E-1,9.506588936E0
2.995241032E1,-2.255580187E0,-8.403685093E-1,9.506656647E0
2.997260058E1,-2.256101131E0,-8.402798772E-1,9.506541252E0
2.999279136E1,-2.256485462E0,-8.395031095E-1,9.506518364E0
3.001298256E1,-2.255746126E0,-8.398126364E-1,9.506667137E0
3.003317402E1,-2.255932570E0,-8.409905434E-1,9.506518364E0
3.005336558E1,-2.257129669E0,-8.411031961E-1,9.506224632E0
3.007355631E1,-2.256828547E0,-8.411202431E-1,9.506293297E0
3.009374423E1,-2.255931139E0,-8.418096900E-1,9.506446838E0
3.011393209E1,-2.256327868E0,-8.416513801E-1,9.506365776E0
3.013411725E1,-2.257333279E0,-8.413157463E-1,9.506156921E0
3.015430261E1,-2.257833719E0,-8.419011831E-1,9.505986214E0
3.017448829E1,-2.257628202E0,-8.428829312E-1,9.505948067E0
3.019467433E1,-2.257267952E0,-8.437645435E-1,9.505955696E0
3.021486079E1,-2.256927490E0,-8.437309861E-1,9.506039619E0
3.023504771E1,-2.256054878E0,-8.432541490E-1,9.506289482E0
3.025523511E1,-2.255289555E0,-8.427587152E-1,9.506513596E0
3.027542298E1,-2.255066156E0,-8.422660828E-1,9.506610870E0
3.029561131E1,-2.255300760E0,-8.420391083E-1,9.506576538E0
3.031580006E1,-2.255962133E0,-8.419912457E-1,9.506422997E0
3.033598917E1,-2.256252527E0,-8.417768478E-1,9.506373405E0
3.035617860E1,-2.255597830E0,-8.414775729E-1,9.506554604E0
3.037636829E1,-2.255064011E0,-8.410210609E-1,9.506721497E0
3.039655813E1,-2.254992962E0,-8.409376740E-1,9.506746292E0
3.041674803E1,-2.255060673E0,-8.407145739E-1,9.506749153E0
3.043694334E1,-2.255832672E0,-8.401730657E-1,9.506613731E0
3.045712631E1,-2.256824017E0,-8.401939869E-1,9.506377220E0
3.047730943E1,-2.257475853E0,-8.406628966E-1,9.506179810E0
3.049749292E1,-2.257864237E0,-8.408207297E-1,9.506073952E0
3.051767693E1,-2.257931709E0,-8.407870531E-1,9.506061554E0
3.053786162E1,-2.256980181E0,-8.411148190E-1,9.506258965E0
3.055804704E1,-2.255823135E0,-8.412048817E-1,9.506525993E0
3.057823329E1,-2.255608320E0,-8.406515718E-1,9.506625175E0
3.059842037E1,-2.255677462E0,-8.403385282E-1,9.506636620E0
3.061860829E1,-2.255881548E0,-8.406639695E-1,9.506559372E0
3.063879704E1,-2.256766558E0,-8.419256806E-1,9.506237984E0
3.065898652E1,-2.257796526E0,-8.425526023E-1,9.505937576E0
3.067917667E1,-2.257407665E0,-8.420583010E-1,9.506073952E0
3.069936735E1,-2.256577730E0,-8.415718079E-1,9.506313324E0
3.071955844E1,-2.256474733E0,-8.416597247E-1,9.506330490E0
3.073974980E1,-2.256349802E0,-8.424729109E-1,9.506288528E0
3.075994126E1,-2.255256176E0,-8.437448144E-1,9.506434441E0
3.078013256E1,-2.254245281E0,-8.446840644E-1,9.506590843E0
3.080032042E1,-2.254088163E0,-8.452584147E-1,9.506577492E0
3.082050558E1,-2.253821611E0,-8.451902270E-1,9.506646156E0
3.084069094E1,-2.253396511E0,-8.449678421E-1,9.506767273E0
3.086087657E1,-2.253353357E0,-8.449607491E-1,9.506777763E0
3.088106256E1,-2.253440142E0,-8.445902467E-1,9.506790161E0
3.090124896E1,-2.253326893E0,-8.440811634E-1,9.506862640E0
3.092143584E1,-2.253267527E0,-8.439127803E-1,9.506891251E0
3.094162318E1,-2.252872229E0,-8.439319134E-1,9.506982803E0
3.096181105E1,-2.251956224E0,-8.439610600E-1,9.507197380E0
3.098199938E1,-2.251424313E0,-8.444021940E-1,9.507285118E0
3.100218813E1,-2.251143694E0,-8.449522853E-1,9.507301331E0
3.102237724E1,-2.250967503E0,-8.456944227E-1,9.507278442E0
3.104256667E1,-2.250499725E0,-8.463349342E-1,9.507331848E0
3.106275636E1,-2.250147104E0,-8.463276029E-1,9.507415771E0
3.108294620E1,-2.249824762E0,-8.455263972E-1,9.507563591E0
3.110313615E1,-2.249535322E0,-8.450260758E-1,9.507676125E0
3.112333152E1,-2.249472380E0,-8.443094492E-1,9.507754326E0
3.114351448E1,-2.249093294E0,-8.446312547E-1,9.507816315E0
3.116369761E1,-2.248336077E0,-8.458524346E-1,9.507886887E0
3.118388110E1,-2.247973442E0,-8.459135294E-1,9.507966995E0
3.120406511E1,-2.246371984E0,-8.439727426E-1,9.508517265E0
3.122424980E1,-2.244359493E0,-8.423581123E-1,9.509136200E0
3.124443521E1,-2.244016171E0,-8.420206308E-1,9.509246826E0
3.126462146E1,-2.244252682E0,-8.415820599E-1,9.509229660E0
3.128480855E1,-2.243813038E0,-8.419470787E-1,9.509301186E0
3.130499646E1,-2.243797302E0,-8.434478641E-1,9.509171486E0
3.132518521E1,-2.244824171E0,-8.447097540E-1,9.508817673E0
3.134537469E1,-2.245910645E0,-8.452132344E-1,9.508517265E0
3.136556485E1,-2.246750832E0,-8.455581069E-1,9.508287430E0
3.138575553E1,-2.248129845E0,-8.457566500E-1,9.507944107E0
3.140594662E1,-2.249731064E0,-8.456875682E-1,9.507571220E0
3.142613798E1,-2.250758171E0,-8.451443315E-1,9.507376671E0
3.144632943E1,-2.251261950E0,-8.449872136E-1,9.507270813E0
3.146652063E1,-2.251677275E0,-8.445418477E-1,9.507211685E0
3.148670850E1,-2.250872135E0,-8.429960608E-1,9.507539749E0
3.150689365E1,-2.249487638E0,-8.411714435E-1,9.508029938E0
3.152707902E1,-2.248772621E0,-8.399677277E-1,9.508305550E0
3.154726469E1,-2.248723507E0,-8.395724297E-1,9.508351326E0
3.156745074E1,-2.248426914E0,-8.400996327E-1,9.508375168E0
3.158763719E1,-2.248038292E0,-8.409041166E-1,9.508395195E0
3.160782412E1,-2.248271227E0,-8.409444094E-1,9.508337975E0
3.162801152E1,-2.249677181E0,-8.399812579E-1,9.508090019E0
3.164819938E1,-2.251127005E0,-8.390880823E-1,9.507824898E0
3.166838771E1,-2.252049208E0,-8.392179608E-1,9.507596016E0
3.168857646E1,-2.252761841E0,-8.397921920E-1,9.507376671E0
3.170876558E1,-2.252644062E0,-8.398980498E-1,9.507394791E0
3.172895501E1,-2.251908302E0,-8.401972055E-1,9.507542610E0
3.174914469E1,-2.251650572E0,-8.405658007E-1,9.507571220E0
3.176933454E1,-2.252393961E0,-8.405964971E-1,9.507392883E0
3.178952443E1,-2.253522873E0,-8.401157260E-1,9.507167816E0
3.180971975E1,-2.254438162E0,-8.404863477E-1,9.506917000E0
3.182990251E1,-2.255281687E0,-8.411768079E-1,9.506656647E0
3.185008542E1,-2.255320787E0,-8.404141665E-1,9.506714821E0
3.187026870E1,-2.254812241E0,-8.393989801E-1,9.506924629E0
3.189045251E1,-2.255409241E0,-8.395386338E-1,9.506771088E0
3.191063699E1,-2.256635666E0,-8.398253918E-1,9.506454468E0
3.193082224E1,-2.257256031E0,-8.400699496E-1,9.506285667E0
3.195100839E1,-2.256921530E0,-8.407850266E-1,9.506301880E0
3.197119542E1,-2.256268024E0,-8.418928981E-1,9.506359100E0
3.199138334E1,-2.256124020E0,-8.416756988E-1,9.506412506E0
3.201157214E1,-2.256219149E0,-8.409197927E-1,9.506456375E0
3.203176172E1,-2.257292986E0,-8.405891061E-1,9.506230354E0
3.205195198E1,-2.258559227E0,-8.403574228E-1,9.505949974E0
3.207214282E1,-2.259022951E0,-8.399166465E-1,9.505879402E0
3.209233407E1,-2.259078264E0,-8.390257955E-1,9.505945206E0
3.211252558E1,-2.259732485E0,-8.383862972E-1,9.505846024E0
3.213271719E1,-2.260377645E0,-8.385236859E-1,9.505681038E0
3.215290855E1,-2.260600567E0,-8.387438059E-1,9.505608559E0
3.217309646E1,-2.260543823E0,-8.387604952E-1,9.505620956E0
3.219328433E1,-2.260204792E0,-8.388545513E-1,9.505692482E0
3.221346949E1,-2.260067225E0,-8.386912346E-1,9.505739212E0
3.223365485E1,-2.260260820E0,-8.384078741E-1,9.505719185E0
3.225384048E1,-2.260566235E0,-8.377335072E-1,9.505704880E0
3.227402646E1,-2.260809898E0,-8.370656371E-1,9.505705833E0
3.229421287E1,-2.261049509E0,-8.369730711E-1,9.505657196E0
3.231439974E1,-2.260879040E0,-8.380674124E-1,9.505601883E0
3.233458709E1,-2.260211706E0,-8.392052650E-1,9.505660057E0
3.235477490E1,-2.259983540E0,-8.396131992E-1,9.505678177E0
3.237496318E1,-2.259974003E0,-8.389603496E-1,9.505737305E0
3.239515188E1,-2.259706736E0,-8.389575481E-1,9.505802155E0
3.241534100E1,-2.260491133E0,-8.402655125E-1,9.505498886E0
3.243553042E1,-2.262082338E0,-8.405702114E-1,9.505094528E0
3.245572011E1,-2.262331009E0,-8.400445580E-1,9.505081177E0
3.247590995E1,-2.261848211E0,-8.397727609E-1,9.505220413E0
3.249609990E1,-2.262419701E0,-8.396539092E-1,9.505095482E0
3.251629527E1,-2.263147593E0,-8.392626643E-1,9.504956245E0
3.253647824E1,-2.263225317E0,-8.386937380E-1,9.504988670E0
3.255666136E1,-2.262870312E0,-8.389214277E-1,9.505051613E0
3.257684485E1,-2.262270451E0,-8.396236300E-1,9.505133629E0
3.259702886E1,-2.262061596E0,-8.390342593E-1,9.505234718E0
3.261721350E1,-2.262609959E0,-8.383384943E-1,9.505166054E0
3.263739886E1,-2.263627052E0,-8.384333849E-1,9.504915237E0
3.265758506E1,-2.264111280E0,-8.383522034E-1,9.504806519E0
3.267777209E1,-2.263935328E0,-8.378427029E-1,9.504894257E0
3.269796001E1,-2.263826609E0,-8.375381827E-1,9.504945755E0
3.271814876E1,-2.263740063E0,-8.372431993E-1,9.504992485E0
3.273833824E1,-2.263720274E0,-8.376270533E-1,9.504962921E0
3.275852839E1,-2.263442516E0,-8.384414911E-1,9.504958153E0
3.277871907E1,-2.262698412E0,-8.390412331E-1,9.505083084E0
3.279891016E1,-2.261888027E0,-8.390444517E-1,9.505275726E0
3.281910152E1,-2.262023449E0,-8.388246298E-1,9.505261421E0
3.283929298E1,-2.262953281E0,-8.386562467E-1,9.505056381E0
3.285948422E1,-2.263438463E0,-8.382786512E-1,9.504973412E0
3.287967209E1,-2.263125420E0,-8.377153277E-1,9.505097389E0
3.289985724E1,-2.262418985E0,-8.374180198E-1,9.505291939E0
3.292004261E1,-2.261752844E0,-8.373971581E-1,9.505453110E0
3.294022824E1,-2.261178732E0,-8.375161886E-1,9.505578995E0
3.296041422E1,-2.260630846E0,-8.378066421E-1,9.505683899E0
3.298060063E1,-2.260430098E0,-8.382446170E-1,9.505692482E0
3.300078751E1,-2.261119127E0,-8.384879827E-1,9.505507469E0
3.302097485E1,-2.262102604E0,-8.380633593E-1,9.505310059E0
3.304116266E1,-2.262176752E0,-8.381998539E-1,9.505281448E0
3.306135094E1,-2.261364698E0,-8.387832046E-1,9.505422592E0
3.308153964E1,-2.260934353E0,-8.388156295E-1,9.505521774E0
3.310172870E1,-2.260590315E0,-8.386760950E-1,9.505617142E0
3.312191808E1,-2.260432720E0,-8.395854235E-1,9.505572319E0
3.314210771E1,-2.259986401E0,-8.410920501E-1,9.505545616E0
3.316229751E1,-2.259855509E0,-8.420014977E-1,9.505496979E0
3.318248740E1,-2.260001898E0,-8.414883018E-1,9.505507469E0
3.320268271E1,-2.260042667E0,-8.409573436E-1,9.505544662E0
3.322286594E1,-2.260273933E0,-8.407167196E-1,9.505511284E0
3.324304933E1,-2.260615110E0,-8.399177790E-1,9.505499840E0
3.326323303E1,-2.260976553E0,-8.394697309E-1,9.505455017E0
3.328341719E1,-2.261209726E0,-8.391140103E-1,9.505430222E0
3.330360198E1,-2.261385679E0,-8.386906385E-1,9.505426407E0
3.332378751E1,-2.261313677E0,-8.389909267E-1,9.505416870E0
3.334397381E1,-2.261091471E0,-8.397535086E-1,9.505401611E0
3.336416094E1,-2.261127710E0,-8.401226997E-1,9.505360603E0
3.338434886E1,-2.260881901E0,-8.398050666E-1,9.505447388E0
3.340453756E1,-2.260529280E0,-8.390112519E-1,9.505601883E0
3.342472698E1,-2.260456562E0,-8.387362361E-1,9.505642891E0
3.344491704E1,-2.259983778E0,-8.388947248E-1,9.505740166E0
3.346510761E1,-2.259587526E0,-8.388752937E-1,9.505837440E0
3.348529855E1,-2.260190964E0,-8.389909863E-1,9.505683899E0
3.350548975E1,-2.261753082E0,-8.399066925E-1,9.505230904E0
3.352568105E1,-2.263259649E0,-8.411037922E-1,9.504766464E0
3.354587183E1,-2.262922525E0,-8.416702747E-1,9.504796982E0
3.356605969E1,-2.260691881E0,-8.411601186E-1,9.505372047E0
3.358624485E1,-2.258255482E0,-8.412389159E-1,9.505945206E0
3.360643021E1,-2.256706715E0,-8.426419497E-1,9.506188393E0
3.362661584E1,-2.255874157E0,-8.440836668E-1,9.506258011E0
3.364680183E1,-2.255475044E0,-8.451771736E-1,9.506255150E0
3.366698824E1,-2.255615473E0,-8.455282450E-1,9.506191254E0
3.368717511E1,-2.255282402E0,-8.457481861E-1,9.506250381E0
3.370736245E1,-2.253555298E0,-8.463313580E-1,9.506608009E0
3.372755027E1,-2.251871824E0,-8.469782472E-1,9.506949425E0
3.374773855E1,-2.251300812E0,-8.472145200E-1,9.507063866E0
3.376792724E1,-2.251485586E0,-8.467627764E-1,9.507060051E0
3.378811631E1,-2.251804829E0,-8.458058834E-1,9.507069588E0
3.380830568E1,-2.251973391E0,-8.449926972E-1,9.507102966E0
3.382849532E1,-2.252022505E0,-8.441409469E-1,9.507166862E0
3.384868511E1,-2.252050877E0,-8.436869383E-1,9.507199287E0
3.386887501E1,-2.252528906E0,-8.439564109E-1,9.507062912E0
3.388907032E1,-2.253401279E0,-8.445569873E-1,9.506802559E0
3.390925344E1,-2.253986597E0,-8.449758887E-1,9.506626129E0
3.392943672E1,-2.253734827E0,-8.452983499E-1,9.506658554E0
3.394962037E1,-2.252203226E0,-8.459384441E-1,9.506963730E0
3.396980454E1,-2.250191689E0,-8.465472460E-1,9.507385254E0
3.398998933E1,-2.248921871E0,-8.467892408E-1,9.507664680E0
3.401017485E1,-2.248178244E0,-8.471408486E-1,9.507809639E0
3.403036115E1,-2.247333288E0,-8.479864597E-1,9.507933617E0
3.405054829E1,-2.246268511E0,-8.482919931E-1,9.508158684E0
3.407073626E1,-2.244852781E0,-8.490797877E-1,9.508421898E0
3.409092501E1,-2.244253397E0,-8.504590392E-1,9.508440018E0
3.411111448E1,-2.244717598E0,-8.510274291E-1,9.508279800E0
3.413130459E1,-2.245285749E0,-8.502964973E-1,9.508211136E0
3.415149521E1,-2.245142698E0,-8.501504660E-1,9.508256912E0
3.417168620E1,-2.245842218E0,-8.502487540E-1,9.508083344E0
3.419187740E1,-2.246787071E0,-8.494028449E-1,9.507935524E0
3.421206870E1,-2.246433496E0,-8.490576744E-1,9.508050919E0
3.423225933E1,-2.246137857E0,-8.496512771E-1,9.508068085E0
3.425244719E1,-2.246594906E0,-8.500856161E-1,9.507921219E0
3.427263235E1,-2.246245623E0,-8.501238227E-1,9.507999420E0
3.429281771E1,-2.245131731E0,-8.500026464E-1,9.508274078E0
3.431300334E1,-2.244597197E0,-8.496126533E-1,9.508434296E0
3.433318933E1,-2.245169640E0,-8.490329981E-1,9.508351326E0
3.435337574E1,-2.246410131E0,-8.484384418E-1,9.508111000E0
3.437356261E1,-2.247755289E0,-8.484243751E-1,9.507794380E0
3.439374995E1,-2.248481512E0,-8.486346602E-1,9.507603645E0
3.441393777E1,-2.248400688E0,-8.484376669E-1,9.507641792E0
3.443412605E1,-2.247723579E0,-8.477285504E-1,9.507863998E0
3.445431475E1,-2.247857094E0,-8.469316959E-1,9.507904053E0
3.447450381E1,-2.248183489E0,-8.463295698E-1,9.507880211E0
3.449469318E1,-2.247788191E0,-8.463236094E-1,9.507974625E0
3.451488282E1,-2.247702122E0,-8.469577432E-1,9.507938385E0
3.453507261E1,-2.247586012E0,-8.478224874E-1,9.507887840E0
3.455526251E1,-2.247062445E0,-8.484132886E-1,9.507959366E0
3.457545782E1,-2.246344328E0,-8.484293222E-1,9.508127213E0
3.459564089E1,-2.246604204E0,-8.477335572E-1,9.508129120E0
3.461582412E1,-2.247605801E0,-8.469566107E-1,9.507960320E0
3.463600771E1,-2.248212099E0,-8.466930985E-1,9.507841110E0
3.465619183E1,-2.248342991E0,-8.469077349E-1,9.507790565E0
3.467637657E1,-2.248288155E0,-8.470569253E-1,9.507790565E0
3.469656204E1,-2.248418331E0,-8.466928601E-1,9.507791519E0
3.471674829E1,-2.248415709E0,-8.461188674E-1,9.507843971E0
3.473693537E1,-2.249118328E0,-8.463807106E-1,9.507654190E0
3.475712329E1,-2.250567198E0,-8.466597199E-1,9.507287025E0
3.477731199E1,-2.251657486E0,-8.460390568E-1,9.507082939E0
3.479750141E1,-2.252142906E0,-8.452535868E-1,9.507039070E0
3.481769146E1,-2.252768517E0,-8.449072242E-1,9.506920815E0
3.483788204E1,-2.253247261E0,-8.448705673E-1,9.506810188E0
3.485807303E1,-2.253213882E0,-8.454452157E-1,9.506768227E0
3.487826428E1,-2.253073215E0,-8.463291526E-1,9.506723404E0
3.489845563E1,-2.253005743E0,-8.465761542E-1,9.506715775E0
3.491864662E1,-2.253555059E0,-8.461226821E-1,9.506627083E0
3.493883448E1,-2.254186153E0,-8.456708193E-1,9.506517410E0
3.495901964E1,-2.254316807E0,-8.455746174E-1,9.506494522E0
3.497920501E1,-2.254555464E0,-8.452464342E-1,9.506466866E0
3.499939063E1,-2.254611254E0,-8.446269035E-1,9.506508827E0
3.501957662E1,-2.254743099E0,-8.449262977E-1,9.506450653E0
3.503976303E1,-2.254485846E0,-8.453688622E-1,9.506472588E0
3.505994990E1,-2.253917456E0,-8.452222943E-1,9.506621361E0
3.508013724E1,-2.253154755E0,-8.452612758E-1,9.506797791E0
3.510032506E1,-2.251590490E0,-8.456978202E-1,9.507130623E0
3.512051334E1,-2.250198841E0,-8.456085920E-1,9.507467270E0
3.514070204E1,-2.250110149E0,-8.453857899E-1,9.507508278E0
3.516089110E1,-2.250902176E0,-8.452048898E-1,9.507336617E0
3.518108048E1,-2.251076698E0,-8.452959657E-1,9.507287025E0
3.520127011E1,-2.250725985E0,-8.454470634E-1,9.507356644E0
3.522145990E1,-2.250215530E0,-8.458071947E-1,9.507446289E0
3.524164980E1,-2.249252319E0,-8.465326428E-1,9.507609367E0
3.526184511E1,-2.248027802E0,-8.477107286E-1,9.507793427E0
3.528202808E1,-2.247110128E0,-8.484138250E-1,9.507947922E0
3.530221120E1,-2.245967388E0,-8.490331769E-1,9.508162498E0
3.532239469E1,-2.245720148E0,-8.504294157E-1,9.508095741E0
3.534257870E1,-2.247261524E0,-8.517309427E-1,9.507616043E0
3.536276334E1,-2.248570442E0,-8.527965546E-1,9.507211685E0
3.538294870E1,-2.247580051E0,-8.533548713E-1,9.507394791E0
3.540313490E1,-2.246250868E0,-8.533359170E-1,9.507710457E0
3.542332193E1,-2.245402575E0,-8.538152575E-1,9.507867813E0
3.544350980E1,-2.243579626E0,-8.556190133E-1,9.508136749E0
3.546369850E1,-2.240628481E0,-8.574416637E-1,9.508667946E0
3.548388792E1,-2.238154411E0,-8.583394885E-1,9.509170532E0
3.550407803E1,-2.236922026E0,-8.582622409E-1,9.509466171E0
3.552426865E1,-2.236436367E0,-8.577455282E-1,9.509627342E0
3.554445969E1,-2.236127138E0,-8.577998877E-1,9.509695053E0
3.556465100E1,-2.236116171E0,-8.582724333E-1,9.509654999E0
3.558484240E1,-2.235677242E0,-8.590564132E-1,9.509687424E0
3.560503110E1,-2.234752655E0,-8.599792123E-1,9.509821892E0
3.562521985E1,-2.233545542E0,-8.606250286E-1,9.510046959E0
3.564541402E1,-2.232290506E0,-8.605844378E-1,9.510345459E0
3.566559735E1,-2.230923176E0,-8.602327704E-1,9.510697365E0
3.568578084E1,-2.229721546E0,-8.601523638E-1,9.510987282E0
3.570596464E1,-2.229098082E0,-8.602614999E-1,9.511122704E0
3.572614891E1,-2.229110956E0,-8.598843217E-1,9.511153221E0
3.574633376E1,-2.229360104E0,-8.596963882E-1,9.511113167E0
3.576651928E1,-2.229907751E0,-8.599893451E-1,9.510957718E0
3.578670558E1,-2.230469704E0,-8.601419926E-1,9.510811806E0
3.580689266E1,-2.230839729E0,-8.600151539E-1,9.510736465E0
3.582708053E1,-2.230569601E0,-8.602407575E-1,9.510779381E0
3.584726917E1,-2.230030298E0,-8.607855439E-1,9.510857582E0
3.586745850E1,-2.229330301E0,-8.610022664E-1,9.511001587E0
3.588764844E1,-2.228347540E0,-8.605251312E-1,9.511275291E0
3.590783891E1,-2.227652788E0,-8.608864546E-1,9.511404991E0
3.592802974E1,-2.228284359E0,-8.617810607E-1,9.511176109E0
3.594822084E1,-2.229222298E0,-8.625668287E-1,9.510885239E0
3.596841204E1,-2.229291677E0,-8.630666137E-1,9.510823250E0
3.598860298E1,-2.229311466E0,-8.636728525E-1,9.510763168E0
3.600879084E1,-2.229334831E0,-8.641386628E-1,9.510715485E0
3.602897865E1,-2.228378534E0,-8.651379943E-1,9.510848999E0
3.604916376E1,-2.226512432E0,-8.661508560E-1,9.511194229E0
3.606934907E1,-2.225624323E0,-8.665173054E-1,9.511369705E0
3.608953469E1,-2.226071596E0,-8.665729165E-1,9.511259079E0
3.610972068E1,-2.226781845E0,-8.664793968E-1,9.511101723E0
3.612990709E1,-2.227530003E0,-8.665769100E-1,9.510916710E0
3.615009396E1,-2.228599072E0,-8.661085963E-1,9.510709763E0
3.617028131E1,-2.229170322E0,-8.656328917E-1,9.510619164E0
3.619046912E1,-2.228714466E0,-8.659639955E-1,9.510694504E0
3.621065740E1,-2.227992296E0,-8.663018942E-1,9.510833740E0
3.623084610E1,-2.226958990E0,-8.659543395E-1,9.511106491E0
3.625103516E1,-2.225478411E0,-8.657230139E-1,9.511475563E0
3.627122454E1,-2.224427700E0,-8.662353158E-1,9.511673927E0
3.629141417E1,-2.223949909E0,-8.663757443E-1,9.511773109E0
3.631160396E1,-2.224700689E0,-8.658969998E-1,9.511641502E0
3.633179386E1,-2.225870132E0,-8.654169440E-1,9.511410713E0
3.635198917E1,-2.226458073E0,-8.649130464E-1,9.511319160E0
3.637217209E1,-2.225811958E0,-8.643890619E-1,9.511518478E0
3.639235516E1,-2.224993467E0,-8.642497659E-1,9.511722565E0
3.641253860E1,-2.224644899E0,-8.642231226E-1,9.511806488E0
3.643272256E1,-2.224987030E0,-8.642200232E-1,9.511726379E0
3.645290719E1,-2.226302147E0,-8.635485172E-1,9.511479378E0
3.647309261E1,-2.228452206E0,-8.633543849E-1,9.510993958E0
3.649327886E1,-2.229595900E0,-8.641182184E-1,9.510656357E0
3.651346594E1,-2.228528976E0,-8.644837737E-1,9.510872841E0
3.653365386E1,-2.226261139E0,-8.646418452E-1,9.511389732E0
3.655384261E1,-2.224464417E0,-8.650017381E-1,9.511777878E0
3.657403209E1,-2.222694397E0,-8.660730720E-1,9.512094498E0
3.659422219E1,-2.220736027E0,-8.676019907E-1,9.512412071E0
3.661441282E1,-2.219435453E0,-8.690214157E-1,9.512586594E0
3.663460386E1,-2.220098257E0,-8.695906401E-1,9.512379646E0
3.665479516E1,-2.220752716E0,-8.693960309E-1,9.512244225E0
3.667498657E1,-2.220359325E0,-8.689104915E-1,9.512380600E0
3.669517766E1,-2.220597506E0,-8.691650033E-1,9.512302399E0
3.671536553E1,-2.221842527E0,-8.695544004E-1,9.511975288E0
3.673555334E1,-2.223134041E0,-8.691271544E-1,9.511712074E0
3.675573844E1,-2.224044085E0,-8.683549762E-1,9.511570930E0
3.677592376E1,-2.224867582E0,-8.674964905E-1,9.511456490E0
3.679610938E1,-2.225363493E0,-8.666721582E-1,9.511414528E0
3.681629537E1,-2.224989653E0,-8.660827279E-1,9.511556625E0
3.683648178E1,-2.223828316E0,-8.662058115E-1,9.511816978E0
3.685666865E1,-2.222986460E0,-8.662884235E-1,9.512005806E0
3.687685600E1,-2.223529339E0,-8.656035662E-1,9.511941910E0
3.689704381E1,-2.224609613E0,-8.652065396E-1,9.511725426E0
3.691723209E1,-2.225327969E0,-8.652514219E-1,9.511552811E0
3.693742079E1,-2.226022720E0,-8.649905920E-1,9.511414528E0
3.695760985E1,-2.226926327E0,-8.641647100E-1,9.511278152E0
3.697779923E1,-2.227697134E0,-8.636943698E-1,9.511139870E0
3.699798886E1,-2.228249788E0,-8.634363413E-1,9.511034966E0
3.701817865E1,-2.228846788E0,-8.623442650E-1,9.510993958E0
3.703836855E1,-2.228987694E0,-8.617301583E-1,9.511015892E0
3.705856386E1,-2.229851723E0,-8.620125055E-1,9.510787964E0
3.707874672E1,-2.232083082E0,-8.618276715E-1,9.510281563E0
3.709892974E1,-2.233257532E0,-8.612104058E-1,9.510061264E0
3.711911313E1,-2.233486414E0,-8.613081574E-1,9.509998322E0
3.713929704E1,-2.234369278E0,-8.615242839E-1,9.509772301E0
3.715948162E1,-2.235061169E0,-8.616822362E-1,9.509595871E0
3.717966699E1,-2.235061407E0,-8.616121411E-1,9.509601593E0
3.719985318E1,-2.235290289E0,-8.612069488E-1,9.509584427E0
3.722004027E1,-2.235503674E0,-8.605467677E-1,9.509593964E0
3.724022824E1,-2.236009598E0,-8.602469563E-1,9.509501457E0
3.726041704E1,-2.236130953E0,-8.598092794E-1,9.509511948E0
3.728060657E1,-2.236342192E0,-8.595972061E-1,9.509482384E0
3.730079673E1,-2.236833096E0,-8.595709205E-1,9.509369850E0
3.732098740E1,-2.237485647E0,-8.590041399E-1,9.509266853E0
3.734117850E1,-2.238157034E0,-8.582884073E-1,9.509173393E0
3.736136985E1,-2.238445044E0,-8.574773073E-1,9.509179115E0
3.738156131E1,-2.238483429E0,-8.565779328E-1,9.509251595E0
3.740175219E1,-2.238999605E0,-8.563983440E-1,9.509144783E0
3.742194006E1,-2.239580154E0,-8.564987779E-1,9.508999825E0
3.744212787E1,-2.239839792E0,-8.565928936E-1,9.508930206E0
3.746231298E1,-2.240169048E0,-8.567221165E-1,9.508840561E0
3.748249829E1,-2.241021872E0,-8.565751314E-1,9.508652687E0
3.750268391E1,-2.241809368E0,-8.564409614E-1,9.508480072E0
3.752286990E1,-2.242110491E0,-8.559349775E-1,9.508454323E0
3.754305631E1,-2.241595030E0,-8.557596207E-1,9.508591652E0
3.756324318E1,-2.241316080E0,-8.565009236E-1,9.508591652E0
3.758343053E1,-2.241844893E0,-8.573492169E-1,9.508389473E0
3.760361834E1,-2.241250038E0,-8.575037718E-1,9.508515358E0
3.762380662E1,-2.239398956E0,-8.579347730E-1,9.508913040E0
3.764399532E1,-2.239222288E0,-8.585584164E-1,9.508898735E0
3.766418438E1,-2.240649700E0,-8.582726717E-1,9.508587837E0
3.768437376E1,-2.241863728E0,-8.575944304E-1,9.508362770E0
3.770456339E1,-2.242199898E0,-8.573184609E-1,9.508308411E0
3.772475318E1,-2.242354631E0,-8.573724627E-1,9.508267403E0
3.774494303E1,-2.242699623E0,-8.579405546E-1,9.508134842E0
3.776513829E1,-2.243035555E0,-8.585749269E-1,9.507998466E0
3.778532115E1,-2.242781878E0,-8.590307832E-1,9.508017540E0
3.780550417E1,-2.242818594E0,-8.584647775E-1,9.508059502E0
3.782568756E1,-2.243526220E0,-8.569377661E-1,9.508029938E0
3.784587146E1,-2.244069815E0,-8.561450243E-1,9.507972717E0
3.786605605E1,-2.244044304E0,-8.559369445E-1,9.507998466E0
3.788624141E1,-2.244450092E0,-8.554921150E-1,9.507942200E0
3.790642761E1,-2.244822979E0,-8.557962179E-1,9.507826805E0
3.792661469E1,-2.244352341E0,-8.559532762E-1,9.507923126E0
3.794680261E1,-2.243566513E0,-8.554807901E-1,9.508152008E0
3.796699136E1,-2.243307590E0,-8.549323082E-1,9.508261681E0
3.798718084E1,-2.243692398E0,-8.543674350E-1,9.508221626E0
3.800737100E1,-2.243669033E0,-8.540661931E-1,9.508254051E0
3.802756167E1,-2.243403435E0,-8.540763259E-1,9.508316040E0
3.804775277E1,-2.243442535E0,-8.548160195E-1,9.508240700E0
3.806794412E1,-2.243520975E0,-8.561964631E-1,9.508098602E0
3.808813558E1,-2.243674278E0,-8.567362428E-1,9.508012772E0
3.810832657E1,-2.243829012E0,-8.562130928E-1,9.508024216E0
3.812851443E1,-2.243412971E0,-8.560455441E-1,9.508137703E0
3.814870224E1,-2.242529154E0,-8.570758104E-1,9.508252144E0
3.816888735E1,-2.242045641E0,-8.584512472E-1,9.508242607E0
3.818907266E1,-2.241464376E0,-8.592426181E-1,9.508308411E0
3.820925824E1,-2.240590572E0,-8.596278429E-1,9.508480072E0
3.822944417E1,-2.240533113E0,-8.603435159E-1,9.508428574E0
3.824963053E1,-2.241127253E0,-8.607831001E-1,9.508248329E0
3.826981735E1,-2.241247416E0,-8.602849841E-1,9.508264542E0
3.829000464E1,-2.240221977E0,-8.600520492E-1,9.508528709E0
3.831019240E1,-2.239425659E0,-8.608923554E-1,9.508639336E0
3.833038063E1,-2.239119053E0,-8.621627688E-1,9.508596420E0
3.835056933E1,-2.238367796E0,-8.634385467E-1,9.508658409E0
3.837075844E1,-2.237432480E0,-8.640944958E-1,9.508817673E0
3.839094787E1,-2.237214565E0,-8.640927672E-1,9.508870125E0
3.841113756E1,-2.237525225E0,-8.635218740E-1,9.508848190E0
3.843132740E1,-2.237779856E0,-8.627100587E-1,9.508861542E0
3.845151730E1,-2.238404989E0,-8.625004888E-1,9.508733749E0
3.847171261E1,-2.238958597E0,-8.625072241E-1,9.508603096E0
3.849189542E1,-2.238501787E0,-8.623087406E-1,9.508728027E0
3.851207839E1,-2.237528563E0,-8.622272015E-1,9.508965492E0
3.853226173E1,-2.237255335E0,-8.616799712E-1,9.509078026E0
3.855244558E1,-2.237200260E0,-8.610619903E-1,9.509147644E0
3.857263011E1,-2.236643314E0,-8.617047071E-1,9.509221077E0
3.859281542E1,-2.236193657E0,-8.627753854E-1,9.509229660E0
3.861300157E1,-2.235909224E0,-8.628716469E-1,9.509286880E0
3.863318860E1,-2.235321045E0,-8.626887202E-1,9.509442329E0
3.865337652E1,-2.234732628E0,-8.630657196E-1,9.509546280E0
3.867356527E1,-2.234879971E0,-8.637290597E-1,9.509451866E0
3.869375480E1,-2.235278845E0,-8.642637134E-1,9.509308815E0
3.871394501E1,-2.234889746E0,-8.641939759E-1,9.509407997E0
3.873413574E1,-2.234319448E0,-8.639335036E-1,9.509564400E0
3.875432688E1,-2.233592033E0,-8.642006516E-1,9.509712219E0
3.877451829E1,-2.233116627E0,-8.649419546E-1,9.509755135E0
3.879470980E1,-2.233234882E0,-8.646955490E-1,9.509750366E0
3.881490074E1,-2.232930183E0,-8.638526201E-1,9.509898186E0
3.883508860E1,-2.231802225E0,-8.635324836E-1,9.510192871E0
3.885527641E1,-2.231417894E0,-8.639922142E-1,9.510240555E0
3.887546152E1,-2.231925488E0,-8.636016846E-1,9.510157585E0
3.889564683E1,-2.232702494E0,-8.631139398E-1,9.510018349E0
3.891583240E1,-2.233408928E0,-8.633643985E-1,9.509830475E0
3.893601834E1,-2.234074354E0,-8.636924028E-1,9.509644508E0
3.895620469E1,-2.233612776E0,-8.642638326E-1,9.509701729E0
3.897639152E1,-2.231963158E0,-8.654222488E-1,9.509983063E0
3.899657881E1,-2.230632544E0,-8.663246632E-1,9.510213852E0
3.901676657E1,-2.230387449E0,-8.661363125E-1,9.510287285E0
3.903695480E1,-2.231424332E0,-8.655147552E-1,9.510101318E0
3.905714344E1,-2.232646704E0,-8.656908870E-1,9.509798050E0
3.907733251E1,-2.233051062E0,-8.659798503E-1,9.509676933E0
3.909752188E1,-2.233587503E0,-8.652877212E-1,9.509613037E0
3.911771152E1,-2.233789682E0,-8.644254208E-1,9.509644508E0
3.913790131E1,-2.233629465E0,-8.637277484E-1,9.509745598E0
3.915809120E1,-2.233573437E0,-8.633873463E-1,9.509789467E0
3.917828652E1,-2.233934402E0,-8.632038236E-1,9.509721756E0
3.919846954E1,-2.234544516E0,-8.632415533E-1,9.509573936E0
3.921865271E1,-2.234760284E0,-8.632694483E-1,9.509521484E0
3.923883626E1,-2.234991074E0,-8.626473546E-1,9.509523392E0
3.925902032E1,-2.235355377E0,-8.622383475E-1,9.509474754E0
3.927920501E1,-2.235629797E0,-8.621349335E-1,9.509419441E0
3.929939042E1,-2.235742807E0,-8.613720536E-1,9.509462357E0
3.931957662E1,-2.236000776E0,-8.603700399E-1,9.509493828E0
3.933976365E1,-2.236232281E0,-8.597364426E-1,9.509494781E0
3.935995152E1,-2.236040354E0,-8.601465225E-1,9.509502411E0
3.938014016E1,-2.236113787E0,-8.606538773E-1,9.509440422E0
3.940032954E1,-2.236399651E0,-8.607500196E-1,9.509364128E0
3.942051954E1,-2.236422777E0,-8.609286547E-1,9.509343147E0
3.944071006E1,-2.235998154E0,-8.609324098E-1,9.509442329E0
3.946090100E1,-2.235744238E0,-8.611209989E-1,9.509484291E0
3.948109219E1,-2.236464500E0,-8.606677651E-1,9.509357452E0
3.950128350E1,-2.237102985E0,-8.598507643E-1,9.509280205E0
3.952147209E1,-2.237794876E0,-8.603792787E-1,9.509069443E0
3.954166074E1,-2.238725424E0,-8.611296415E-1,9.508783340E0
3.956185480E1,-2.238699198E0,-8.613390923E-1,9.508769989E0
3.958203824E1,-2.238389730E0,-8.616473675E-1,9.508814812E0
3.960222183E1,-2.238308191E0,-8.621088862E-1,9.508791924E0
3.962240574E1,-2.238461256E0,-8.621311784E-1,9.508753777E0
3.964259011E1,-2.238826990E0,-8.614179492E-1,9.508731842E0
3.966277506E1,-2.239219427E0,-8.603848815E-1,9.508733749E0
3.968296068E1,-2.239651918E0,-8.594601750E-1,9.508715630E0
3.970314704E1,-2.239935398E0,-8.589182496E-1,9.508697510E0
3.972333417E1,-2.240170240E0,-8.585402369E-1,9.508676529E0
3.974352209E1,-2.240755558E0,-8.585131764E-1,9.508541107E0
3.976371074E1,-2.241352320E0,-8.583770990E-1,9.508413315E0
3.978390006E1,-2.241442442E0,-8.576039076E-1,9.508460999E0
3.980408995E1,-2.241392136E0,-8.566545844E-1,9.508558273E0
3.982428032E1,-2.241366625E0,-8.561185598E-1,9.508613586E0
3.984447105E1,-2.241529465E0,-8.561264873E-1,9.508574486E0
3.986466199E1,-2.241976738E0,-8.563327193E-1,9.508449554E0
3.988485303E1,-2.242537737E0,-8.566973805E-1,9.508285522E0
3.990504350E1,-2.242215872E0,-8.567394018E-1,9.508358002E0
3.992523131E1,-2.241759062E0,-8.564166427E-1,9.508494377E0
3.994541641E1,-2.242021084E0,-8.559385538E-1,9.508474350E0
3.996560172E1,-2.242650032E0,-8.554376364E-1,9.508372307E0
3.998578730E1,-2.243003368E0,-8.552840948E-1,9.508302689E0
4.000597324E1,-2.242674112E0,-8.556253314E-1,9.508349419E0
4.002615959E1,-2.242267132E0,-8.559747934E-1,9.508413315E0
4.004634641E1,-2.242140770E0,-8.556613922E-1,9.508472443E0
4.006653370E1,-2.241793394E0,-8.556130528E-1,9.508558273E0
4.008672146E1,-2.242210388E0,-8.565313816E-1,9.508378029E0
4.010690969E1,-2.243452787E0,-8.574603796E-1,9.507999420E0
4.012709834E1,-2.244305611E0,-8.573097587E-1,9.507811546E0
4.014728740E1,-2.243965387E0,-8.573356867E-1,9.507889748E0
4.016747678E1,-2.243644714E0,-8.577023745E-1,9.507933617E0
4.018766641E1,-2.244101048E0,-8.574518561E-1,9.507847786E0
4.020785620E1,-2.244247437E0,-8.576607108E-1,9.507794380E0
4.022804610E1,-2.243645430E0,-8.588151932E-1,9.507832527E0
4.024824141E1,-2.242977142E0,-8.596839309E-1,9.507911682E0
4.026842433E1,-2.242886066E0,-8.592900038E-1,9.507968903E0
4.028860740E1,-2.243135452E0,-8.582122922E-1,9.508007050E0
4.030879084E1,-2.243504763E0,-8.573096395E-1,9.508001328E0
4.032897480E1,-2.244036436E0,-8.571032882E-1,9.507894516E0
4.034915938E1,-2.243982077E0,-8.578229547E-1,9.507843018E0
4.036934469E1,-2.243551254E0,-8.591083884E-1,9.507827759E0
4.038953084E1,-2.243550062E0,-8.600245118E-1,9.507745743E0
4.040971782E1,-2.243128777E0,-8.600955009E-1,9.507839203E0
4.042990563E1,-2.241854429E0,-8.597088456E-1,9.508173943E0
4.045009428E1,-2.240353346E0,-8.587319851E-1,9.508616447E0
4.047028370E1,-2.240030527E0,-8.567129374E-1,9.508873940E0
4.049047381E1,-2.240892172E0,-8.543419242E-1,9.508884430E0
4.051066443E1,-2.242416382E0,-8.527066112E-1,9.508672714E0
4.053085548E1,-2.244039297E0,-8.520554304E-1,9.508348465E0
4.055104678E1,-2.246244907E0,-8.517811298E-1,9.507851601E0
4.057123818E1,-2.248505354E0,-8.519992828E-1,9.507297516E0
4.059142948E1,-2.249717712E0,-8.512744904E-1,9.507075310E0
4.061161730E1,-2.250832319E0,-8.490570188E-1,9.507010460E0
4.063180240E1,-2.252472639E0,-8.469078541E-1,9.506813049E0
4.065198771E1,-2.253964424E0,-8.466321230E-1,9.506484985E0
4.067217329E1,-2.254981279E0,-8.472441435E-1,9.506189346E0
4.069235923E1,-2.256186247E0,-8.471440077E-1,9.505911827E0
4.071254558E1,-2.257834196E0,-8.476010561E-1,9.505479813E0
4.073273240E1,-2.260134697E0,-8.485163450E-1,9.504850388E0
4.075291969E1,-2.262813330E0,-8.480535746E-1,9.504255295E0
4.077310745E1,-2.264081240E0,-8.464667201E-1,9.504094124E0
4.079329568E1,-2.264414310E0,-8.439658284E-1,9.504238129E0
4.081348433E1,-2.264797688E0,-8.409419656E-1,9.504414558E0
4.083367334E1,-2.264083862E0,-8.398693204E-1,9.504679680E0
4.085386266E1,-2.262168884E0,-8.403653502E-1,9.505092621E0
4.087405224E1,-2.260485649E0,-8.398019671E-1,9.505542755E0
4.089424198E1,-2.261456728E0,-8.384742737E-1,9.505428314E0
4.091443183E1,-2.263737917E0,-8.373268843E-1,9.504986763E0
4.093462709E1,-2.264823675E0,-8.355776072E-1,9.504880905E0
4.095481027E1,-2.264196396E0,-8.332062960E-1,9.505239487E0
4.097499360E1,-2.262686014E0,-8.302822113E-1,9.505854607E0
4.099517724E1,-2.262370586E0,-8.270424008E-1,9.506211281E0
4.101536136E1,-2.263579369E0,-8.244646788E-1,9.506147385E0
