"Time (s)","Acceleration x (m/s^2)","Acceleration y (m/s^2)","Acceleration z (m/s^2)"
5.042121000E-2,-1.014682204E-1,7.214661121E0,6.641441822E0
7.067475200E-2,-1.616919339E-1,7.224938869E0,6.629064560E0
9.078980400E-2,-2.130341381E-1,7.236872673E0,6.614581108E0
1.110613670E-1,-2.246473283E-1,7.241804600E0,6.608796120E0
1.313323040E-1,-2.213171571E-1,7.232286453E0,6.619323254E0
1.516028770E-1,-2.675376534E-1,7.226576805E0,6.623850346E0
1.718731900E-1,-3.572243750E-1,7.233429432E0,6.612130642E0
1.921420960E-1,-4.591012001E-1,7.230124950E0,6.609455585E0
2.125431900E-1,-6.338518262E-1,7.216452122E0,6.609949589E0
2.326819920E-1,-9.360054731E-1,7.220805645E0,6.569189072E0
2.529516790E-1,-1.199416757E0,7.210589409E0,6.537522316E0
2.732211580E-1,-1.403623223E0,7.174204350E0,6.536896706E0
2.934905850E-1,-1.598965287E0,7.121722221E0,6.549408913E0
3.137599080E-1,-1.863499165E0,7.063546181E0,6.542482853E0
3.340291790E-1,-2.199046135E0,6.988731861E0,6.518605232E0
3.542984500E-1,-2.588822365E0,6.865720272E0,6.506171227E0
3.745676170E-1,-3.064261675E0,6.737545490E0,6.433207035E0
3.948367830E-1,-3.397542715E0,6.724489689E0,6.277604580E0
4.151058980E-1,-3.965226650E0,6.745349407E0,5.911653042E0
4.353749600E-1,-4.475847244E0,6.841304779E0,5.416062355E0
4.556440750E-1,-4.877810478E0,6.881434917E0,5.002320766E0
4.759131380E-1,-5.223247051E0,6.708244801E0,4.887487888E0
4.961821480E-1,-5.598054409E0,6.353922844E0,4.945688725E0
5.165822000E-1,-5.959923267E0,5.980720520E0,4.988053322E0
5.367202210E-1,-6.296893120E0,5.716198921E0,4.883093357E0
5.569892310E-1,-6.564441681E0,5.449899197E0,4.834987164E0
5.772582940E-1,-6.733756065E0,5.086180687E0,4.995768070E0
5.975273040E-1,-6.884097099E0,4.706072807E0,5.160666943E0
6.179273040E-1,-6.973744392E0,4.367536068E0,5.334969044E0
6.380652730E-1,-6.980595112E0,4.110119343E0,5.527079105E0
6.583343350E-1,-6.914875031E0,3.939372063E0,5.730292320E0
6.786033460E-1,-6.965516567E0,3.848755121E0,5.730536938E0
6.988723560E-1,-7.153842449E0,3.791814566E0,5.533087730E0
7.192723560E-1,-7.389848232E0,3.733977079E0,5.255277157E0
7.394103770E-1,-7.550974846E0,3.667662144E0,5.069658279E0
7.596793880E-1,-7.635242939E0,3.605139494E0,4.987628460E0
7.799483980E-1,-7.713043690E0,3.517478943E0,4.930180550E0
8.002174080E-1,-7.761988640E0,3.352481127E0,4.968177319E0
8.206174080E-1,-7.734232903E0,3.119341135E0,5.159626961E0
8.407554290E-1,-7.612002850E0,2.862001181E0,5.480579376E0
8.610243880E-1,-7.462992668E0,2.621712923E0,5.796615601E0
8.812934500E-1,-7.420492172E0,2.386577368E0,5.950707912E0
9.015624600E-1,-7.399024010E0,2.175279379E0,6.057474136E0
9.218314190E-1,-7.287092686E0,2.028248310E0,6.241384029E0
9.421004290E-1,-7.131663322E0,1.845878601E0,6.473214149E0
9.623694920E-1,-6.995466709E0,1.541088462E0,6.697678089E0
9.826385020E-1,-6.879408836E0,1.142088413E0,6.894907475E0
1.002907513E0,-6.753715515E0,6.996773481E-1,7.075885296E0
1.023307513E0,-6.630859375E0,2.409480810E-1,7.221083641E0
1.043445533E0,-6.575352192E0,-1.966238767E-1,7.272995949E0
1.063714544E0,-6.589578629E0,-5.904139280E-1,7.238731861E0
1.083983606E0,-6.607414722E0,-9.452990294E-1,7.184627533E0
1.104252669E0,-6.621029854E0,-1.298348427E0,7.116645813E0
1.124521679E0,-6.669355392E0,-1.685670972E0,6.989177227E0
1.144790690E0,-6.729498863E0,-2.106621742E0,6.815157890E0
1.165059752E0,-6.798044682E0,-2.531625271E0,6.599080086E0
1.185328763E0,-6.875937462E0,-2.928572655E0,6.349435806E0
1.205597773E0,-6.944663525E0,-3.302578211E0,6.085640907E0
1.225866835E0,-6.983945370E0,-3.651449680E0,5.836249352E0
1.246135846E0,-7.012429237E0,-3.946224451E0,5.605670452E0
1.266404908E0,-7.067776203E0,-4.210740089E0,5.337282658E0
1.286673971E0,-7.165549278E0,-4.484384060E0,4.971477509E0
1.306942981E0,-7.277653217E0,-4.721747875E0,4.572883606E0
1.327212044E0,-7.389100075E0,-4.884006023E0,4.209284306E0
1.347481106E0,-7.496338367E0,-5.009644032E0,3.857299328E0
1.367750169E0,-7.602027893E0,-5.114824772E0,3.495441914E0
1.388019231E0,-7.734237671E0,-5.157364368E0,3.123067379E0
1.408288294E0,-7.907634258E0,-5.098917961E0,2.764189005E0
1.428557356E0,-8.089433670E0,-4.978767395E0,2.437892914E0
1.448826419E0,-8.245147705E0,-4.854721069E0,2.149325132E0
1.469095481E0,-8.369114876E0,-4.755498886E0,1.874437928E0
1.489364544E0,-8.477363586E0,-4.657442570E0,1.616449594E0
1.509633658E0,-8.603507042E0,-4.496576786E0,1.389551401E0
1.529902721E0,-8.758107185E0,-4.248905182E0,1.188591003E0
1.550171835E0,-8.923609734E0,-3.938281298E0,1.014660001E0
1.570440846E0,-9.082537651E0,-3.596615791E0,8.615407348E-1
1.590710013E0,-9.224009514E0,-3.251975536E0,7.160170674E-1
1.610979075E0,-9.342578888E0,-2.922882080E0,5.859947205E-1
1.631248190E0,-9.433700562E0,-2.636133671E0,4.758987725E-1
1.651517252E0,-9.499489784E0,-2.405206203E0,3.808774054E-1
1.671786367E0,-9.544165611E0,-2.231823206E0,3.134252727E-1
1.692055481E0,-9.573646545E0,-2.103222847E0,3.035272956E-1
1.712324596E0,-9.603178024E0,-1.963901401E0,3.040418625E-1
1.732593710E0,-9.636427879E0,-1.788092971E0,3.351947963E-1
1.752862825E0,-9.670847893E0,-1.576240182E0,4.007072747E-1
1.773131940E0,-9.696343422E0,-1.393656373E0,4.571961462E-1
1.793401054E0,-9.710648537E0,-1.284749985E0,4.723512828E-1
1.813670169E0,-9.723073006E0,-1.189594626E0,4.659459293E-1
1.833939335E0,-9.737215996E0,-1.048576832E0,5.074386001E-1
1.854208450E0,-9.751714706E0,-8.654682040E-1,5.704470873E-1
1.874477617E0,-9.764847755E0,-6.738216281E-1,6.034198403E-1
1.894746731E0,-9.772998810E0,-5.610905290E-1,5.865798593E-1
1.915015898E0,-9.778890610E0,-5.200707912E-1,5.226878524E-1
1.935285013E0,-9.784776688E0,-4.981587529E-1,4.247177541E-1
1.955554179E0,-9.787772179E0,-4.954170883E-1,3.528002501E-1
1.975823242E0,-9.786819458E0,-5.296200514E-1,3.287293911E-1
1.996092460E0,-9.783276558E0,-5.807570219E-1,3.472672105E-1
2.016492460E0,-9.781173706E0,-6.205055118E-1,3.376738131E-1
2.036630742E0,-9.777063370E0,-7.037342191E-1,2.901349664E-1
2.056899908E0,-9.755293846E0,-9.366434813E-1,3.568513095E-1
2.077169075E0,-9.718668938E0,-1.261846781E0,3.544096351E-1
2.097438242E0,-9.665353775E0,-1.627891660E0,3.182801604E-1
2.117838242E0,-9.570627213E0,-2.111565828E0,3.387693465E-1
2.137976523E0,-9.527525902E0,-2.255082607E0,5.578940511E-1
2.158245690E0,-9.537241936E0,-2.085331440E0,9.288705587E-1
2.178514908E0,-9.535809517E0,-2.006204605E0,1.101755738E0
2.198784023E0,-9.517056465E0,-2.079504967E0,1.127690911E0
2.219184023E0,-9.492371559E0,-2.196467400E0,1.113911510E0
2.239322408E0,-9.447310448E0,-2.373762131E0,1.133129120E0
2.259591575E0,-9.369014740E0,-2.667665482E0,1.129383206E0
2.279860794E0,-9.274880409E0,-3.007086277E0,1.050905824E0
2.300129960E0,-9.177329063E0,-3.333333969E0,9.142804742E-1
2.320399179E0,-9.045328140E0,-3.715922117E0,7.377949953E-1
2.340668346E0,-8.882110596E0,-4.125730038E0,5.068112016E-1
2.360937513E0,-8.706420898E0,-4.500937939E0,3.319242001E-1
2.381206731E0,-8.443090439E0,-4.982861996E0,2.360285968E-1
2.401468085E0,-7.997354984E0,-5.675182819E0,7.078216970E-2
2.421668138E0,-7.323292732E0,-6.517585754E0,-2.466490269E-1
2.442019492E0,-6.448989868E0,-7.369545460E0,-5.203090310E-1
2.462322981E0,-5.555963993E0,-8.047810555E0,-7.310153246E-1
2.482552877E0,-4.798669815E0,-8.482787132E0,-1.088793755E0
2.502822044E0,-4.356591702E0,-8.631747246E0,-1.638118863E0
2.523091210E0,-4.332719326E0,-8.575837135E0,-1.962894559E0
2.543360429E0,-4.266970158E0,-8.575745583E0,-2.102366686E0
2.563629648E0,-4.165066719E0,-8.647406578E0,-2.011208296E0
2.583898919E0,-3.968780041E0,-8.773788452E0,-1.854674220E0
2.604168085E0,-3.812272072E0,-8.911478043E0,-1.490815401E0
2.624437252E0,-3.682033539E0,-9.037950516E0,-9.635676146E-1
2.644706471E0,-3.571052313E0,-9.123677254E0,-4.201134741E-1
2.664975690E0,-3.542153120E0,-9.144504547E0,3.990610316E-2
2.685244908E0,-3.561449051E0,-9.129487038E0,3.727479577E-1
2.705514179E0,-3.598107576E0,-9.107159615E0,5.325893760E-1
2.725783398E0,-3.620805740E0,-9.098974228E0,5.184843540E-1
2.746052617E0,-3.595655680E0,-9.114764214E0,4.033778608E-1
2.766321835E0,-3.552425146E0,-9.137659073E0,2.320694327E-1
2.786591054E0,-3.512067556E0,-9.156110764E0,-3.757384792E-2
2.806860325E0,-3.525891542E0,-9.141455650E0,-4.150526524E-1
2.827129544E0,-3.640325308E0,-9.063683510E0,-8.763883114E-1
2.847398763E0,-3.833950043E0,-8.939219475E0,-1.249625206E0
2.867668033E0,-4.036000252E0,-8.837458611E0,-1.334319830E0
2.887937252E0,-4.140627384E0,-8.802011490E0,-1.245061755E0
2.908206471E0,-4.123781681E0,-8.824463844E0,-1.137387395E0
2.928475742E0,-4.069821835E0,-8.853743553E0,-1.103708148E0
2.948687252E0,-4.044598103E0,-8.862095833E0,-1.129101038E0
2.968369856E0,-4.028101921E0,-8.869046211E0,-1.133493781E0
2.988769856E0,-4.008825302E0,-8.882803917E0,-1.093386173E0
3.009169856E0,-3.999207735E0,-8.891248703E0,-1.059442997E0
3.029569856E0,-4.002233028E0,-8.892402649E0,-1.038123608E0
3.049969856E0,-4.009130955E0,-8.893112183E0,-1.004884481E0
3.070328085E0,-4.022234440E0,-8.893622398E0,-9.463091493E-1
3.090603085E0,-4.050607681E0,-8.890047073E0,-8.544279933E-1
3.110877669E0,-4.094579220E0,-8.881624222E0,-7.221996188E-1
3.131151210E0,-4.156227112E0,-8.865863800E0,-5.409635901E-1
3.151423815E0,-4.243770123E0,-8.835825920E0,-2.983018160E-1
3.171695794E0,-4.348906517E0,-8.789541245E0,3.682573512E-2
3.191967252E0,-4.447335243E0,-8.726406097E0,4.913449585E-1
3.212238190E0,-4.531840324E0,-8.631570816E0,1.062454820E0
3.232508919E0,-4.604367256E0,-8.485613823E0,1.721792698E0
3.252779283E0,-4.657913208E0,-8.284277916E0,2.417639017E0
3.273049440E0,-4.699635983E0,-8.051751137E0,3.041893244E0
3.293319388E0,-4.676218033E0,-7.878790379E0,3.496860027E0
3.313589231E0,-4.577453613E0,-7.810565948E0,3.769928455E0
3.333858971E0,-4.493607998E0,-7.816424847E0,3.857638597E0
3.354128554E0,-4.498553753E0,-7.850392342E0,3.782161236E0
3.374398190E0,-4.601056576E0,-7.883012772E0,3.585913181E0
3.394667669E0,-4.721055031E0,-7.923815727E0,3.330943584E0
3.414937148E0,-4.812201023E0,-7.980784893E0,3.052896500E0
3.435206679E0,-4.876078129E0,-8.049448013E0,2.756923437E0
3.455476054E0,-4.925968170E0,-8.127543449E0,2.418321133E0
3.475745377E0,-4.967191219E0,-8.204926491E0,2.043666601E0
3.496014648E0,-5.006235600E0,-8.263972282E0,1.677720666E0
3.516414752E0,-5.018336773E0,-8.308297157E0,1.399599791E0
3.536553346E0,-4.972465992E0,-8.358777046E0,1.255317330E0
3.556822669E0,-4.873149872E0,-8.431441307E0,1.154810071E0
3.577092044E0,-4.787447929E0,-8.500812531E0,9.934396744E-1
3.597361315E0,-4.748695850E0,-8.542937279E0,7.990709543E-1
3.617761367E0,-4.707871914E0,-8.575472832E0,6.838169098E-1
3.637899960E0,-4.633558273E0,-8.615175247E0,6.922916770E-1
3.658169283E0,-4.542503357E0,-8.660463333E0,7.296765447E-1
3.678438606E0,-4.462417126E0,-8.694275856E0,8.165633082E-1
3.698707877E0,-4.568064213E0,-8.629713058E0,9.117136598E-1
3.719107877E0,-4.880854130E0,-8.426050186E0,1.161605954E0
3.739246471E0,-5.152309895E0,-8.196495056E0,1.562545180E0
3.759515846E0,-5.165765285E0,-8.087632179E0,2.018779278E0
3.779785117E0,-5.038027763E0,-8.124650955E0,2.186023474E0
3.800193033E0,-4.900002956E0,-8.263591766E0,1.968093753E0
3.820491992E0,-4.701628208E0,-8.475192070E0,1.495390415E0
3.840798710E0,-4.518725395E0,-8.645924568E0,9.997410178E-1
3.861062513E0,-4.506007671E0,-8.676481247E0,7.648308277E-1
3.881295950E0,-4.631286621E0,-8.605563164E0,8.159965277E-1
3.901599544E0,-4.746275902E0,-8.530672073E0,9.332119823E-1
3.921829283E0,-4.746549129E0,-8.527420044E0,9.611231089E-1
3.942098502E0,-4.661200047E0,-8.579985619E0,9.096446037E-1
3.962367669E0,-4.536304474E0,-8.647669792E0,9.000737071E-1
3.982636992E0,-4.368873119E0,-8.724057198E0,9.870016575E-1
4.002906210E0,-4.223514557E0,-8.763453484E0,1.238624930E0
4.023175481E0,-4.190378666E0,-8.694567680E0,1.736547351E0
4.043444752E0,-4.220089912E0,-8.472246170E0,2.565596342E0
4.063713971E0,-4.119100571E0,-8.080320358E0,3.729854822E0
4.083983346E0,-4.124039650E0,-7.558970928E0,4.693042278E0
4.104252617E0,-4.619173527E0,-7.116343498E0,4.918462753E0
4.124521940E0,-5.346329212E0,-6.836642742E0,4.565902710E0
4.144791263E0,-5.754024029E0,-6.691850185E0,4.275597572E0
4.165060533E0,-5.831063747E0,-6.650708199E0,4.235228062E0
4.185329856E0,-5.766448975E0,-6.724075794E0,4.207761288E0
4.205599179E0,-5.669689178E0,-6.896774769E0,4.057031155E0
4.225868502E0,-5.546064377E0,-7.135307789E0,3.807745695E0
4.246137825E0,-5.377726555E0,-7.428051472E0,3.474836111E0
4.266407200E0,-5.205797195E0,-7.757607937E0,2.981539249E0
4.286676523E0,-5.101172447E0,-8.036331177E0,2.359198332E0
4.306945846E0,-5.113995075E0,-8.135830879E0,1.955939889E0
4.327215221E0,-5.254888535E0,-8.091874123E0,1.754452348E0
4.347484544E0,-5.381672859E0,-8.066966057E0,1.460150123E0
4.367753919E0,-5.377609253E0,-8.136736870E0,1.022366762E0
4.388023242E0,-5.115191460E0,-8.317306519E0,9.097286463E-1
4.408292617E0,-4.627040386E0,-8.551756859E0,1.276057124E0
4.428561940E0,-4.231000900E0,-8.699226379E0,1.610121489E0
4.448831315E0,-4.275430202E0,-8.667504311E0,1.662963986E0
4.469100638E0,-4.894695282E0,-8.303235054E0,1.807940841E0
4.489369960E0,-5.445604324E0,-7.835741043E0,2.262066126E0
4.509639335E0,-5.447906494E0,-7.678664684E0,2.743867874E0
4.529908658E0,-5.205994129E0,-7.844837189E0,2.743455648E0
4.550178033E0,-4.877656937E0,-8.177060127E0,2.348303556E0
4.570447408E0,-4.502658367E0,-8.486484528E0,1.968762994E0
4.590716731E0,-4.407242775E0,-8.594429970E0,1.697758436E0
4.610986106E0,-4.613694668E0,-8.515857697E0,1.537655592E0
4.631255481E0,-4.893541336E0,-8.392585754E0,1.337209582E0
4.651524804E0,-5.100355625E0,-8.297126770E0,1.146497726E0
4.671794179E0,-5.179280758E0,-8.238121986E0,1.216049075E0
4.692063554E0,-5.085758686E0,-8.226178169E0,1.623402953E0
4.712332877E0,-4.891780376E0,-8.193205833E0,2.261027575E0
4.732602252E0,-4.668743610E0,-8.056896210E0,3.075654745E0
4.752871627E0,-4.494990349E0,-7.755056381E0,3.978007793E0
4.773141002E0,-4.577477932E0,-7.270405769E0,4.728455544E0
4.793410325E0,-5.249335766E0,-6.714998722E0,4.850118637E0
4.813679700E0,-5.990917206E0,-6.375961781E0,4.430169106E0
4.833949075E0,-6.288404942E0,-6.277779102E0,4.149197578E0
4.854218398E0,-6.295547009E0,-6.335471153E0,4.049478531E0
4.874487773E0,-6.183285236E0,-6.561931610E0,3.857255697E0
4.894757148E0,-5.964911938E0,-6.905386925E0,3.592470646E0
4.915026523E0,-5.699867725E0,-7.285328388E0,3.256667376E0
4.935295898E0,-5.462303638E0,-7.643082619E0,2.813702583E0
4.955565273E0,-5.347866535E0,-7.871324539E0,2.369168520E0
4.975834648E0,-5.388843060E0,-7.927330494E0,2.070795774E0
4.996104023E0,-5.526797295E0,-7.875859261E0,1.896240830E0
5.016373398E0,-5.628795624E0,-7.855061054E0,1.668853164E0
5.036642773E0,-5.632948399E0,-7.925337315E0,1.276438832E0
5.056912148E0,-5.346865654E0,-8.140900612E0,1.143301368E0
5.077181523E0,-4.828815937E0,-8.441906929E0,1.259812236E0
5.097450898E0,-4.418267250E0,-8.639902115E0,1.414706111E0
5.117720273E0,-4.333850861E0,-8.664690018E0,1.520288706E0
5.137989648E0,-4.618420124E0,-8.495085716E0,1.635267735E0
5.158259023E0,-5.142917633E0,-8.125992775E0,1.920681119E0
5.178528398E0,-5.337369919E0,-7.873333931E0,2.386101007E0
5.198797773E0,-5.172770977E0,-7.936367512E0,2.535133600E0
5.219067148E0,-4.890964508E0,-8.195166588E0,2.255682230E0
5.239336523E0,-4.563955784E0,-8.502494812E0,1.745932221E0
5.259605950E0,-4.436875820E0,-8.638149261E0,1.366348624E0
5.279875325E0,-4.550955296E0,-8.589564323E0,1.295599461E0
5.300144700E0,-4.768731117E0,-8.470890999E0,1.293675542E0
5.320414075E0,-4.963714600E0,-8.363407135E0,1.259100676E0
5.340683450E0,-5.001883984E0,-8.335487366E0,1.292744756E0
5.360952825E0,-4.870736122E0,-8.375536919E0,1.515482903E0
5.381222200E0,-4.657610416E0,-8.421070099E0,1.887493968E0
5.401491575E0,-4.408329010E0,-8.415003777E0,2.434078932E0
5.421760950E0,-4.150105953E0,-8.279138565E0,3.225348711E0
5.442030325E0,-3.933099270E0,-7.966307163E0,4.151995182E0
5.462299752E0,-4.174985409E0,-7.417561054E0,4.870283604E0
5.482569127E0,-5.007752895E0,-6.748611927E0,5.054604530E0
5.502838502E0,-6.001232624E0,-6.265985012E0,4.570889950E0
5.523107877E0,-6.443461418E0,-6.115348339E0,4.153878689E0
5.543377252E0,-6.416972160E0,-6.191277027E0,4.081782818E0
5.563646627E0,-6.230803967E0,-6.440140724E0,3.983975172E0
5.583916054E0,-6.002779961E0,-6.803342819E0,3.721765518E0
5.604185429E0,-5.705110073E0,-7.198215008E0,3.436249256E0
5.624454804E0,-5.363662243E0,-7.581957340E0,3.148878813E0
5.644724179E0,-5.131258965E0,-7.855727673E0,2.850983381E0
5.664993554E0,-5.112258434E0,-7.946267605E0,2.625268459E0
5.685262929E0,-5.292656898E0,-7.894495964E0,2.415596247E0
5.705532304E0,-5.469348431E0,-7.868542194E0,2.083905458E0
5.725801731E0,-5.466612339E0,-7.985161781E0,1.588628531E0
5.746071106E0,-4.987947941E0,-8.302729607E0,1.534745932E0
5.766340481E0,-4.271631241E0,-8.637199402E0,1.822728872E0
5.786609856E0,-3.886680603E0,-8.766910553E0,2.050699472E0
5.806879231E0,-4.102207184E0,-8.643497467E0,2.152262926E0
5.827148606E0,-4.775141716E0,-8.206639290E0,2.453463078E0
5.847417981E0,-5.195597172E0,-7.819729805E0,2.833368778E0
5.867687408E0,-5.108047962E0,-7.822928429E0,2.979935646E0
5.887956783E0,-4.839886665E0,-8.063849449E0,2.778528929E0
5.908226158E0,-4.527218342E0,-8.367697716E0,2.378301144E0
5.928495533E0,-4.246612072E0,-8.583511353E0,2.111871481E0
5.948764908E0,-4.257574558E0,-8.621623993E0,1.926402926E0
5.969034283E0,-4.447463036E0,-8.571202278E0,1.710250258E0
5.989303710E0,-4.636454105E0,-8.517518044E0,1.457930088E0
6.009573085E0,-4.767843246E0,-8.467839241E0,1.316717863E0
6.029842460E0,-4.801480293E0,-8.440893173E0,1.366562843E0
6.050111835E0,-4.679781914E0,-8.472810745E0,1.575278163E0
6.070381210E0,-4.453977108E0,-8.528595924E0,1.896188378E0
6.090650585E0,-4.211810589E0,-8.516152382E0,2.430264235E0
6.110919960E0,-4.035351276E0,-8.328591347E0,3.243592501E0
6.131189335E0,-3.975544930E0,-7.962371349E0,4.118989468E0
6.151458763E0,-4.195132732E0,-7.469626427E0,4.772412777E0
6.171728138E0,-4.795934200E0,-6.952859879E0,4.982684612E0
6.191997513E0,-5.448530674E0,-6.553661346E0,4.851125717E0
6.212266888E0,-5.855957031E0,-6.328345299E0,4.672281265E0
6.232536263E0,-5.991351604E0,-6.329862118E0,4.495214462E0
6.252805638E0,-5.979628563E0,-6.500328064E0,4.261474133E0
6.273075013E0,-5.889601707E0,-6.739012718E0,4.008575916E0
6.293344388E0,-5.734550953E0,-7.008481026E0,3.763839245E0
6.313613763E0,-5.588664055E0,-7.304443836E0,3.403281689E0
6.333883138E0,-5.496294022E0,-7.598073483E0,2.868870974E0
6.354152513E0,-5.458621979E0,-7.807576180E0,2.327142715E0
6.374421940E0,-5.453100204E0,-7.904006004E0,1.990168929E0
6.394691315E0,-5.473796368E0,-7.931743145E0,1.815322518E0
6.414960690E0,-5.468016148E0,-7.985898972E0,1.580063343E0
6.435230065E0,-5.392809391E0,-8.088370323E0,1.290835500E0
6.455499440E0,-5.221624374E0,-8.214507103E0,1.194527030E0
6.475768815E0,-5.010620117E0,-8.330899239E0,1.288479805E0
6.496038190E0,-4.884361744E0,-8.389379501E0,1.389855742E0
6.516307513E0,-4.788179398E0,-8.443342209E0,1.397748590E0
6.536576940E0,-4.702804089E0,-8.504484177E0,1.314449549E0
6.556846315E0,-4.917510986E0,-8.371169090E0,1.382751346E0
6.577115638E0,-5.300059319E0,-8.082850456E0,1.657494783E0
6.597385013E0,-5.373034954E0,-7.975381374E0,1.922023535E0
6.617654388E0,-5.235524178E0,-8.054929733E0,1.969207168E0
6.637923763E0,-5.091921806E0,-8.190463066E0,1.777366042E0
6.658193138E0,-4.977047920E0,-8.326758385E0,1.436826468E0
6.678462513E0,-4.839225292E0,-8.440406799E0,1.229564071E0
6.698735846E0,-4.747672558E0,-8.495803833E0,1.204700232E0
6.719039856E0,-4.740520954E0,-8.506913185E0,1.153376460E0
6.739270013E0,-4.789755344E0,-8.495450020E0,1.027595162E0
6.759539492E0,-4.825465679E0,-8.491397858E0,8.839867711E-1
6.779808971E0,-4.814428329E0,-8.503105164E0,8.299829364E-1
6.800078398E0,-4.739267826E0,-8.539670944E0,8.852916360E-1
6.820347825E0,-4.612358570E0,-8.597988129E0,9.854558706E-1
6.840617252E0,-4.476206779E0,-8.659536362E0,1.070690036E0
6.860886627E0,-4.371444702E0,-8.705429077E0,1.129763961E0
6.881156002E0,-4.323080540E0,-8.720866203E0,1.194924951E0
6.901425429E0,-4.342195034E0,-8.690176964E0,1.340355277E0
6.921694804E0,-4.433081150E0,-8.589291573E0,1.655974507E0
6.941968190E0,-4.549036026E0,-8.391578674E0,2.249012232E0
6.962244908E0,-4.641207218E0,-8.062609673E0,3.102241516E0
6.982205585E0,-4.733393192E0,-7.679857254E0,3.845149279E0
7.002474544E0,-4.811485767E0,-7.383666992E0,4.301331997E0
7.022872773E0,-4.930705070E0,-7.184088230E0,4.499711514E0
7.043143919E0,-5.082714081E0,-7.009658813E0,4.604465008E0
7.063414960E0,-5.120474815E0,-6.891839981E0,4.738531113E0
7.083685794E0,-5.127369881E0,-6.884930134E0,4.741117001E0
7.103956210E0,-5.163469315E0,-6.978310108E0,4.562034607E0
7.124226471E0,-5.218999386E0,-7.113099575E0,4.282084465E0
7.144496523E0,-5.269889832E0,-7.255717278E0,3.969032288E0
7.164766471E0,-5.309193611E0,-7.408691406E0,3.618584156E0
7.185036263E0,-5.333113670E0,-7.582612514E0,3.198791742E0
7.205306002E0,-5.283720970E0,-7.787871838E0,2.757125378E0
7.225575638E0,-5.143255234E0,-7.984447002E0,2.442524433E0
7.245845273E0,-4.995721340E0,-8.121274948E0,2.293039560E0
7.266114804E0,-4.961804390E0,-8.189544678E0,2.117129326E0
7.286384335E0,-5.013399124E0,-8.231095314E0,1.812538624E0
7.306653815E0,-5.009194851E0,-8.296656609E0,1.497941732E0
7.326923242E0,-4.914566994E0,-8.396225929E0,1.233214021E0
7.347192617E0,-4.752885342E0,-8.505808830E0,1.109807134E0
7.367462096E0,-4.476799011E0,-8.624439240E0,1.322006941E0
7.387731471E0,-4.179436684E0,-8.721367836E0,1.624945879E0
7.408000846E0,-4.083981991E0,-8.751216888E0,1.705187082E0
7.428270169E0,-4.140866756E0,-8.752120972E0,1.556915998E0
7.448539648E0,-4.380566597E0,-8.617957115E0,1.646766782E0
7.468808971E0,-4.607967854E0,-8.414995193E0,2.030978441E0
7.489078294E0,-4.599553108E0,-8.336286545E0,2.349645853E0
7.509347721E0,-4.528186321E0,-8.366648674E0,2.380149126E0
7.529617044E0,-4.477303505E0,-8.450045586E0,2.172755957E0
7.549886367E0,-4.391652107E0,-8.566768646E0,1.869293332E0
7.570155742E0,-4.280535221E0,-8.675523758E0,1.607076287E0
7.590425065E0,-4.182034016E0,-8.749122620E0,1.460768104E0
7.610694388E0,-4.140713692E0,-8.787569046E0,1.342951417E0
7.630963710E0,-4.176730633E0,-8.795123100E0,1.170951128E0
7.651233033E0,-4.250412941E0,-8.784490585E0,9.680447578E-1
7.671502408E0,-4.285744667E0,-8.779591560E0,8.494359851E-1
7.691771783E0,-4.207560062E0,-8.818014145E0,8.422856331E-1
7.712041158E0,-4.015833378E0,-8.905800819E0,8.545036316E-1
7.732310481E0,-3.792571783E0,-9.006709099E0,8.160605431E-1
7.752579804E0,-3.618247747E0,-9.083991051E0,7.481809855E-1
7.772849127E0,-3.515344858E0,-9.123492241E0,7.580469847E-1
7.793118450E0,-3.442603111E0,-9.139404297E0,8.889173269E-1
7.813387773E0,-3.376501322E0,-9.143482208E0,1.079978228E0
7.833657148E0,-3.283306122E0,-9.145747185E0,1.321207643E0
7.853926471E0,-3.159445524E0,-9.134389877E0,1.658679366E0
7.874195794E0,-3.111402988E0,-9.072370529E0,2.044906378E0
7.894465117E0,-3.172703743E0,-8.969437599E0,2.377717495E0
7.914734440E0,-3.302075148E0,-8.848973274E0,2.638627529E0
7.935003763E0,-3.576322556E0,-8.678055763E0,2.841064930E0
7.955273085E0,-4.041655064E0,-8.403162003E0,3.036820173E0
7.975542408E0,-4.525494099E0,-8.051071167E0,3.297048807E0
7.995811731E0,-4.887449265E0,-7.743248940E0,3.510741472E0
8.016211679E0,-5.051493645E0,-7.601846695E0,3.586743832E0
8.036350325E0,-5.067982197E0,-7.593728065E0,3.580673695E0
8.056619700E0,-5.036417484E0,-7.650600910E0,3.503312588E0
8.076889023E0,-5.055055618E0,-7.714894295E0,3.331247807E0
8.097158346E0,-5.141650200E0,-7.751811981E0,3.105356932E0
8.117558346E0,-5.213348389E0,-7.790251255E0,2.881556511E0
8.137696940E0,-5.178212643E0,-7.879314423E0,2.696832657E0
8.157966210E0,-5.066496372E0,-8.001972198E0,2.543508530E0
8.178235533E0,-4.912922382E0,-8.119467735E0,2.471402168E0
8.198643502E0,-4.690565109E0,-8.238903999E0,2.507875681E0
8.218922773E0,-4.448004723E0,-8.348830223E0,2.585089445E0
8.239036627E0,-4.336782455E0,-8.365608215E0,2.716487169E0
8.259307252E0,-4.363880157E0,-8.305525780E0,2.853974581E0
8.279577669E0,-4.453732967E0,-8.202814102E0,3.008070707E0
8.299836054E0,-4.534514427E0,-8.108233452E0,3.140880346E0
8.319987513E0,-4.492804527E0,-8.142949104E0,3.110864401E0
8.340384544E0,-4.383640289E0,-8.292250633E0,2.862284899E0
8.360654544E0,-4.254094124E0,-8.510931015E0,2.374259949E0
8.380924804E0,-4.239635468E0,-8.608409882E0,2.022659302E0
8.401193971E0,-4.215882301E0,-8.570456505E0,2.223508358E0
8.421594804E0,-3.954191923E0,-8.615512848E0,2.511511803E0
8.441734075E0,-3.566159487E0,-8.753253937E0,2.614085674E0
8.462003867E0,-3.241186142E0,-8.921570778E0,2.463875532E0
8.482273554E0,-3.094045877E0,-9.063833237E0,2.108124971E0
8.502543190E0,-3.104688168E0,-9.154807091E0,1.649487376E0
8.522812721E0,-3.204655170E0,-9.185311317E0,1.237185121E0
8.543082252E0,-3.342463255E0,-9.169588089E0,9.575886130E-1
8.563351783E0,-3.440669060E0,-9.141901970E0,8.705211282E-1
8.583621210E0,-3.480132341E0,-9.124071121E0,9.002211690E-1
8.603890585E0,-3.544906139E0,-9.102341652E0,8.668404222E-1
8.624159908E0,-3.612150669E0,-9.085433006E0,7.600463629E-1
8.644429335E0,-3.635990143E0,-9.086571693E0,6.198214889E-1
8.664698658E0,-3.601265669E0,-9.110414505E0,4.490116537E-1
8.684968033E0,-3.542029381E0,-9.141837120E0,2.263288200E-1
8.705237304E0,-3.504582882E0,-9.159014702E0,-2.706481703E-2
8.725506679E0,-3.514823437E0,-9.150926590E0,-2.773957849E-1
8.745775950E0,-3.568807840E0,-9.120588303E0,-4.988487661E-1
8.766045325E0,-3.627597570E0,-9.087515831E0,-6.541994810E-1
8.786314596E0,-3.663796902E0,-9.066799164E0,-7.349420190E-1
8.806583867E0,-3.663881540E0,-9.060320854E0,-8.105277419E-1
8.826853190E0,-3.610574484E0,-9.072443008E0,-9.082466364E-1
8.847122513E0,-3.486320257E0,-9.113494873E0,-9.798781872E-1
8.867391835E0,-3.373737812E0,-9.165422440E0,-8.850485682E-1
8.887661106E0,-3.391539097E0,-9.182153702E0,-5.965745449E-1
8.907930377E0,-3.530775309E0,-9.147109985E0,-1.854175776E-1
8.928199700E0,-3.693490267E0,-9.078303337E0,3.360339403E-1
8.948465013E0,-3.820381641E0,-8.979248047E0,9.737442732E-1
8.968699648E0,-3.878422976E0,-8.855525017E0,1.645575523E0
8.989008033E0,-3.916464329E0,-8.719676018E0,2.190647840E0
9.009277304E0,-4.018207073E0,-8.584153175E0,2.517283678E0
9.029546471E0,-4.185180664E0,-8.444900513E0,2.708932638E0
9.049815638E0,-4.354671955E0,-8.276222229E0,2.951504230E0
9.070084856E0,-4.480204105E0,-8.067555428E0,3.318542004E0
9.090354075E0,-4.572827816E0,-7.866580486E0,3.657397032E0
9.110623294E0,-4.662388802E0,-7.733684540E0,3.823955297E0
9.130892565E0,-4.749165535E0,-7.683326721E0,3.818677425E0
9.151161835E0,-4.830281734E0,-7.702213287E0,3.676231623E0
9.171431106E0,-4.921984673E0,-7.739943981E0,3.469542503E0
9.191700377E0,-5.015009880E0,-7.752134800E0,3.305218697E0
9.211969596E0,-5.064045429E0,-7.757098675E0,3.217647552E0
9.232238919E0,-5.081581116E0,-7.762227058E0,3.177380800E0
9.252508138E0,-5.045921326E0,-7.777464390E0,3.196890354E0
9.272777460E0,-4.917647362E0,-7.822850227E0,3.284837246E0
9.293046679E0,-4.730429649E0,-7.905013561E0,3.362170458E0
9.313315950E0,-4.526787281E0,-8.037696838E0,3.327765226E0
9.333585169E0,-4.346393585E0,-8.209707260E0,3.143241644E0
9.353854440E0,-4.223228455E0,-8.361632347E0,2.901351929E0
9.374123710E0,-4.207679749E0,-8.419495583E0,2.752798796E0
9.394392981E0,-4.265439510E0,-8.378565788E0,2.788558245E0
9.414662252E0,-4.336149216E0,-8.303268433E0,2.902400494E0
9.434931523E0,-4.399479866E0,-8.246509552E0,2.968173981E0
9.455200742E0,-4.435807705E0,-8.271773338E0,2.841088295E0
9.475470013E0,-4.534229755E0,-8.354635239E0,2.410643816E0
9.495739179E0,-4.681780338E0,-8.392676353E0,1.953024030E0
9.516127252E0,-4.750015259E0,-8.319647789E0,2.095518351E0
9.536277773E0,-4.574453831E0,-8.290459633E0,2.552066565E0
9.556547044E0,-4.266392708E0,-8.371994972E0,2.806776285E0
9.576816315E0,-4.030001163E0,-8.529006004E0,2.680582762E0
9.597085533E0,-3.875102282E0,-8.709926605E0,2.300252199E0
9.617485533E0,-3.727999926E0,-8.880879402E0,1.844555259E0
9.637624023E0,-3.554911613E0,-9.008777618E0,1.541072845E0
9.657893294E0,-3.377601624E0,-9.090908051E0,1.455189109E0
9.678162565E0,-3.367663860E0,-9.093264580E0,1.463477731E0
9.698431783E0,-3.491622210E0,-9.043981552E0,1.478291512E0
9.718831783E0,-3.612507105E0,-9.006711006E0,1.413982272E0
9.738970273E0,-3.691134691E0,-8.995665550E0,1.274331689E0
9.759239492E0,-3.702685356E0,-9.015774727E0,1.084576011E0
9.779508763E0,-3.672060013E0,-9.047513008E0,9.104239345E-1
9.799777981E0,-3.635512590E0,-9.070979118E0,8.190090656E-1
9.820177981E0,-3.620394707E0,-9.080121040E0,7.839236259E-1
9.840316367E0,-3.645887136E0,-9.072985649E0,7.475473881E-1
9.860585690E0,-3.704943895E0,-9.052145958E0,7.088366151E-1
9.880854960E0,-3.782090664E0,-9.019269943E0,7.203832865E-1
9.901124179E0,-3.842957258E0,-8.985987663E0,8.087620735E-1
9.921393398E0,-3.848953247E0,-8.973824501E0,9.090847969E-1
9.941662669E0,-3.818856478E0,-8.978867531E0,9.831857085E-1
9.961931888E0,-3.777811766E0,-8.986411095E0,1.069086671E0
9.982201106E0,-3.719118834E0,-8.993208885E0,1.208609819E0
1.000247038E1,-3.631311655E0,-9.001019478E0,1.402006269E0
1.002287038E1,-3.534552336E0,-9.007386208E0,1.595091343E0
1.004300882E1,-3.470034361E0,-9.017087936E0,1.679697990E0
1.006327803E1,-3.460586548E0,-9.029362679E0,1.632583022E0
1.008354725E1,-3.485436440E0,-9.030563354E0,1.571959376E0
1.010381652E1,-3.477695942E0,-9.025439262E0,1.617860913E0
1.012408574E1,-3.444352627E0,-9.018011093E0,1.726933718E0
1.014435496E1,-3.417118788E0,-9.000148773E0,1.868427277E0
1.016462418E1,-3.405997038E0,-8.935284615E0,2.174917698E0
1.018489340E1,-3.411803246E0,-8.768705368E0,2.764017582E0
1.020516262E1,-3.450750589E0,-8.480423927E0,3.513560772E0
1.022543184E1,-3.677025318E0,-8.148915291E0,4.030516624E0
1.024570105E1,-4.131892204E0,-7.817449093E0,4.240913391E0
1.026597027E1,-4.423992157E0,-7.552482605E0,4.422520638E0
1.028623944E1,-4.497095108E0,-7.428850651E0,4.556171894E0
1.030650866E1,-4.604911327E0,-7.402551174E0,4.490815639E0
1.032677793E1,-4.864605427E0,-7.376585960E0,4.253468037E0
1.034704715E1,-5.171430111E0,-7.311622620E0,3.995858431E0
1.036731637E1,-5.291248798E0,-7.253215790E0,3.945117712E0
1.038758553E1,-5.228364944E0,-7.220730305E0,4.086029530E0
1.040785470E1,-5.146643639E0,-7.227366447E0,4.177034378E0
1.042812392E1,-5.130810261E0,-7.320218563E0,4.032316208E0
1.044839314E1,-5.078461647E0,-7.517062187E0,3.724699497E0
1.046866236E1,-4.916128635E0,-7.782834053E0,3.380761385E0
1.048893158E1,-4.692444324E0,-8.050383568E0,3.056578636E0
1.050920074E1,-4.505244255E0,-8.259509087E0,2.766528368E0
1.052946996E1,-4.397657871E0,-8.403224945E0,2.493351221E0
1.054973918E1,-4.346112728E0,-8.512168884E0,2.196513891E0
1.057000835E1,-4.347346783E0,-8.611387253E0,1.764925838E0
1.059027757E1,-4.418402672E0,-8.652482986E0,1.335156083E0
1.061054678E1,-4.547560692E0,-8.601275444E0,1.228057146E0
1.063081595E1,-4.606213093E0,-8.562339783E0,1.280436158E0
1.065108517E1,-4.657652855E0,-8.528632164E0,1.318742394E0
1.067135434E1,-4.589340210E0,-8.550197601E0,1.415088177E0
1.069162355E1,-4.356802464E0,-8.671968460E0,1.409121394E0
1.071189272E1,-4.167196274E0,-8.796765327E0,1.192389727E0
1.073216194E1,-4.308781147E0,-8.751801491E0,1.005369425E0
1.075243116E1,-4.820796967E0,-8.467574120E0,1.109274149E0
1.077270032E1,-5.087327480E0,-8.261894226E0,1.424994707E0
1.079296949E1,-4.944851398E0,-8.271816254E0,1.815461159E0
1.081323871E1,-4.694800854E0,-8.382984161E0,1.963369012E0
1.083350788E1,-4.473461151E0,-8.541165352E0,1.790814877E0
1.085377710E1,-4.248970509E0,-8.718386650E0,1.451333523E0
1.087404626E1,-4.120472431E0,-8.820016861E0,1.182968497E0
1.089431543E1,-4.160250187E0,-8.802941322E0,1.170871019E0
1.091458465E1,-4.254389763E0,-8.743635178E0,1.272547364E0
1.093485382E1,-4.323024273E0,-8.697565079E0,1.354336619E0
1.095512298E1,-4.316884041E0,-8.696986198E0,1.377438188E0
1.097539220E1,-4.228011608E0,-8.740964890E0,1.374708533E0
1.099566137E1,-4.061320305E0,-8.819435120E0,1.376087070E0
1.101606137E1,-3.863865137E0,-8.901622772E0,1.414932609E0
1.103619970E1,-3.735775709E0,-8.946115494E0,1.476948500E0
1.105646892E1,-3.716177702E0,-8.943626404E0,1.540118456E0
1.107673808E1,-3.772783995E0,-8.898735046E0,1.658013463E0
1.109700725E1,-3.860730410E0,-8.798441887E0,1.962791204E0
1.111740725E1,-3.950441599E0,-8.608058929E0,2.542777061E0
1.113754559E1,-3.977997780E0,-8.325902939E0,3.320431471E0
1.115781475E1,-4.026677132E0,-7.991512775E0,4.011480808E0
1.117808392E1,-4.273114204E0,-7.671218872E0,4.366151333E0
1.119835308E1,-4.740257740E0,-7.411083698E0,4.333149433E0
1.121875309E1,-5.046158791E0,-7.252462864E0,4.255403519E0
1.123889142E1,-5.145893574E0,-7.188189507E0,4.245008945E0
1.125916064E1,-5.228576660E0,-7.198834896E0,4.124215603E0
1.127942975E1,-5.309398174E0,-7.277677059E0,3.875059843E0
1.129969887E1,-5.339443207E0,-7.400349140E0,3.591039181E0
1.132009887E1,-5.323700428E0,-7.535726547E0,3.322863579E0
1.134023725E1,-5.289814949E0,-7.675445080E0,3.045615435E0
1.136050642E1,-5.231279850E0,-7.834948540E0,2.723543167E0
1.138077558E1,-5.097187996E0,-8.032192230E0,2.381797075E0
1.140104475E1,-4.934951305E0,-8.208766937E0,2.105418682E0
1.142144475E1,-4.807560921E0,-8.322979927E0,1.945702434E0
1.144158309E1,-4.728720188E0,-8.404351234E0,1.782264829E0
1.146185220E1,-4.746725082E0,-8.458759308E0,1.445130706E0
1.148212137E1,-4.809123993E0,-8.490580559E0,9.760916233E-1
1.150239053E1,-4.854834080E0,-8.493175507E0,6.833271384E-1
1.152265965E1,-4.882572174E0,-8.463892937E0,8.327066898E-1
1.154292882E1,-4.921620846E0,-8.410037994E0,1.104212761E0
1.156319798E1,-4.901171684E0,-8.392080307E0,1.312207222E0
1.158346715E1,-4.648441315E0,-8.514065742E0,1.439815760E0
1.160373626E1,-4.327588558E0,-8.708609581E0,1.265892148E0
1.162400543E1,-4.291706085E0,-8.767050743E0,9.436516762E-1
1.164427454E1,-4.692874908E0,-8.557337761E0,9.587935209E-1
1.166454371E1,-5.049022198E0,-8.319104195E0,1.212544680E0
1.168481277E1,-5.100002766E0,-8.225729942E0,1.580416560E0
1.170508199E1,-4.959335327E0,-8.263519287E0,1.813732386E0
1.172535111E1,-4.785030842E0,-8.379195213E0,1.750129700E0
1.174562027E1,-4.579543591E0,-8.544863701E0,1.477656960E0
1.176588939E1,-4.383936405E0,-8.683853149E0,1.241845012E0
1.178615855E1,-4.325022221E0,-8.722476006E0,1.176005125E0
1.180642767E1,-4.371755600E0,-8.700885773E0,1.163073182E0
1.182669678E1,-4.474153996E0,-8.657868385E0,1.092544317E0
1.184696595E1,-4.577461243E0,-8.617745399E0,9.755521417E-1
1.186723507E1,-4.591213226E0,-8.612082481E0,9.608246684E-1
1.188750423E1,-4.485612869E0,-8.652432442E0,1.088617802E0
1.190777335E1,-4.320191383E0,-8.710680962E0,1.276854873E0
1.192804246E1,-4.165334702E0,-8.750060081E0,1.502269626E0
1.194830762E1,-4.078643322E0,-8.719473839E0,1.872387767E0
1.196854215E1,-4.096765518E0,-8.549951553E0,2.507035255E0
1.198885043E1,-4.240122318E0,-8.194965363E0,3.321791410E0
1.200911944E1,-4.376187801E0,-7.762955666E0,4.093395233E0
1.202938845E1,-4.602845669E0,-7.363293171E0,4.556984901E0
1.204965746E1,-4.940828323E0,-7.067231178E0,4.670423031E0
1.206992658E1,-5.218503952E0,-6.869123936E0,4.663981915E0
1.209019564E1,-5.352633953E0,-6.778843403E0,4.644026756E0
1.211046470E1,-5.410900593E0,-6.793149948E0,4.554738522E0
1.213073382E1,-5.428671360E0,-6.882913589E0,4.396069050E0
1.215100293E1,-5.375594616E0,-7.038362026E0,4.211275101E0
1.217127199E1,-5.318836689E0,-7.232961655E0,3.945202827E0
1.219154111E1,-5.274592400E0,-7.450409412E0,3.583358526E0
1.221181022E1,-5.218556404E0,-7.696732044E0,3.114059448E0
1.223207928E1,-5.124046803E0,-7.944695473E0,2.606980562E0
1.225234840E1,-5.020650864E0,-8.124999046E0,2.224378824E0
1.227261751E1,-4.959465981E0,-8.229828835E0,1.960610032E0
1.229288663E1,-4.950005531E0,-8.298806190E0,1.672615886E0
1.231315574E1,-4.939668655E0,-8.363325119E0,1.350872636E0
1.233342486E1,-4.909774303E0,-8.417579651E0,1.099482298E0
1.235369397E1,-4.833584785E0,-8.471518517E0,1.019912481E0
1.237396309E1,-4.721086025E0,-8.518474579E0,1.147746444E0
1.239423215E1,-4.620055199E0,-8.544306755E0,1.349180698E0
1.241450126E1,-4.496378422E0,-8.592453957E0,1.456952333E0
1.243477038E1,-4.454723835E0,-8.631834030E0,1.348065257E0
1.245503553E1,-4.773448944E0,-8.463463783E0,1.324518919E0
1.247527001E1,-5.138530254E0,-8.225668907E0,1.450610399E0
1.249557824E1,-5.195781708E0,-8.143218040E0,1.691810250E0
1.251584720E1,-5.046821594E0,-8.196191788E0,1.876809835E0
1.253611621E1,-4.861458778E0,-8.312954903E0,1.852398396E0
1.255638522E1,-4.660391808E0,-8.468559265E0,1.653676391E0
1.257665423E1,-4.456861496E0,-8.609821320E0,1.475723028E0
1.259692329E1,-4.364016056E0,-8.662500381E0,1.444588661E0
1.261732324E1,-4.390850544E0,-8.650146484E0,1.437280178E0
1.263746142E1,-4.478343964E0,-8.617430687E0,1.361874104E0
1.265773053E1,-4.538079262E0,-8.601916313E0,1.258277655E0
1.267799960E1,-4.531702042E0,-8.608564377E0,1.235590339E0
1.269826866E1,-4.438904762E0,-8.647778511E0,1.297088504E0
1.271866866E1,-4.303076744E0,-8.700532913E0,1.398085237E0
1.273880684E1,-4.206426620E0,-8.726562500E0,1.524298072E0
1.275907590E1,-4.216836929E0,-8.676004410E0,1.765115619E0
1.277934496E1,-4.336444378E0,-8.495451927E0,2.278802872E0
1.279961402E1,-4.474205494E0,-8.162880898E0,3.085329056E0
1.282001402E1,-4.514636040E0,-7.756463528E0,3.952938557E0
1.284015220E1,-4.604619503E0,-7.386623859E0,4.517262936E0
1.286042132E1,-4.898772240E0,-7.091865540E0,4.677378178E0
1.288069038E1,-5.255539417E0,-6.877388954E0,4.609903812E0
1.290095944E1,-5.476485729E0,-6.733895779E0,4.564334869E0
1.292135939E1,-5.565083027E0,-6.707691669E0,4.495233059E0
1.294149756E1,-5.605252266E0,-6.801823139E0,4.299620152E0
1.296176663E1,-5.602817059E0,-6.975709438E0,4.014760494E0
1.298203569E1,-5.551084042E0,-7.176158905E0,3.722714186E0
1.300230480E1,-5.464508533E0,-7.386948586E0,3.426738977E0
1.302257387E1,-5.397419453E0,-7.611990452E0,3.015933037E0
1.304284293E1,-5.325531006E0,-7.834664345E0,2.535180330E0
1.306311199E1,-5.236064911E0,-7.981408119E0,2.247473717E0
1.308338111E1,-5.155833721E0,-8.056903839E0,2.161955833E0
1.310365017E1,-5.107157707E0,-8.140544891E0,1.954185605E0
1.312391923E1,-5.070524216E0,-8.261733055E0,1.484567285E0
1.314418829E1,-4.984882832E0,-8.371641159E0,1.112186432E0
1.316445736E1,-4.888990402E0,-8.434213638E0,1.064052820E0
1.318472647E1,-4.787426949E0,-8.466462135E0,1.252975345E0
1.320499553E1,-4.714841366E0,-8.484430313E0,1.398252964E0
1.322526460E1,-4.643995285E0,-8.522320747E0,1.404899716E0
1.324553366E1,-4.541368484E0,-8.592919350E0,1.306945205E0
1.326580272E1,-4.598352432E0,-8.581882477E0,1.173385859E0
1.328607178E1,-4.911661625E0,-8.400946617E0,1.212457895E0
1.330634085E1,-5.087543011E0,-8.266436577E0,1.397616863E0
1.332660991E1,-5.061919212E0,-8.253286362E0,1.559046984E0
1.334687897E1,-4.970296860E0,-8.306590080E0,1.570696712E0
1.336714803E1,-4.838874340E0,-8.414102554E0,1.399485350E0
1.338741710E1,-4.661586285E0,-8.552870750E0,1.135076165E0
1.340768616E1,-4.514515877E0,-8.653620720E0,9.509913921E-1
1.342795522E1,-4.453004360E0,-8.688836098E0,9.193845987E-1
1.344822428E1,-4.455246449E0,-8.683770180E0,9.556654096E-1
1.346849335E1,-4.490123749E0,-8.663140297E0,9.793727994E-1
1.348876236E1,-4.526051521E0,-8.647083282E0,9.556173682E-1
1.350903142E1,-4.508956432E0,-8.659156799E0,9.266695976E-1
1.352930048E1,-4.419618130E0,-8.703496933E0,9.415443540E-1
1.354956954E1,-4.299817562E0,-8.757936478E0,9.901981950E-1
1.356983855E1,-4.207976341E0,-8.797400475E0,1.033961415E0
1.359010762E1,-4.191277504E0,-8.800783157E0,1.072280169E0
1.361037668E1,-4.215636730E0,-8.784299850E0,1.111248374E0
1.363064574E1,-4.223422527E0,-8.768633842E0,1.201727629E0
1.365091475E1,-4.242729187E0,-8.724775314E0,1.431061029E0
1.367118382E1,-4.307203770E0,-8.619371414E0,1.823414922E0
1.369145288E1,-4.412045002E0,-8.420423508E0,2.408468008E0
1.371172194E1,-4.567776203E0,-8.102909088E0,3.106229305E0
1.373199095E1,-4.702516079E0,-7.769053936E0,3.701152563E0
1.375226001E1,-4.872725487E0,-7.490205288E0,4.040266991E0
1.377252908E1,-5.135328770E0,-7.263125420E0,4.128654957E0
1.379279809E1,-5.293400288E0,-7.096980095E0,4.217011929E0
1.381306715E1,-5.286399841E0,-7.042312145E0,4.316269875E0
1.383333616E1,-5.217605591E0,-7.097907543E0,4.308907986E0
1.385360522E1,-5.139254093E0,-7.212470531E0,4.211735725E0
1.387387428E1,-5.092880726E0,-7.347724915E0,4.030370235E0
1.389414329E1,-5.064525127E0,-7.491365433E0,3.794788122E0
1.391441230E1,-5.039556503E0,-7.650219440E0,3.499628305E0
1.393468137E1,-5.029562950E0,-7.825108528E0,3.105085611E0
1.395495043E1,-5.045836449E0,-7.987774849E0,2.627807617E0
1.397521944E1,-5.038648129E0,-8.114453316E0,2.222173452E0
1.399548850E1,-4.948949814E0,-8.240275383E0,1.943227172E0
1.401575751E1,-4.812766075E0,-8.384275436E0,1.646693707E0
1.403602652E1,-4.657021523E0,-8.524497986E0,1.347394824E0
1.405629558E1,-4.503334045E0,-8.640133858E0,1.112863660E0
1.407656460E1,-4.417213440E0,-8.697766304E0,1.003722310E0
1.409683361E1,-4.379236221E0,-8.712561607E0,1.041130662E0
1.411723361E1,-4.380756378E0,-8.694645882E0,1.175795555E0
1.413737168E1,-4.403227329E0,-8.667461395E0,1.287280560E0
1.415764069E1,-4.304562569E0,-8.704633713E0,1.367655158E0
1.417790975E1,-4.107476234E0,-8.800217628E0,1.362056494E0
1.419817876E1,-4.065898895E0,-8.846755028E0,1.172086000E0
1.421857876E1,-4.291499138E0,-8.740853310E0,1.162287593E0
1.423871678E1,-4.429123878E0,-8.614898682E0,1.528646231E0
1.425898579E1,-4.290322781E0,-8.584372520E0,2.017931938E0
1.427925486E1,-4.163945675E0,-8.594862938E0,2.227166176E0
1.429952387E1,-4.187218666E0,-8.635818481E0,2.015000582E0
1.431992387E1,-4.207686901E0,-8.722799301E0,1.542252660E0
1.434006189E1,-4.161386013E0,-8.807909966E0,1.128698230E0
1.436033090E1,-4.103624344E0,-8.855328560E0,9.559311867E-1
1.438059991E1,-4.069231987E0,-8.874539375E0,9.242776632E-1
1.440086892E1,-4.080345631E0,-8.873070717E0,8.887003064E-1
1.442126892E1,-4.126538277E0,-8.861206055E0,7.880938053E-1
1.444140694E1,-4.120603561E0,-8.873088837E0,6.777213812E-1
1.446167595E1,-3.999553919E0,-8.930004120E0,6.549869180E-1
1.448194496E1,-3.792374372E0,-9.015208244E0,7.171502709E-1
1.450221392E1,-3.592267513E0,-9.090533257E0,7.926008701E-1
1.452248293E1,-3.474629641E0,-9.130175591E0,8.586243987E-1
1.454275194E1,-3.411353588E0,-9.144711494E0,9.525222778E-1
1.456302090E1,-3.319386244E0,-9.160894394E0,1.109088898E0
1.458328991E1,-3.183504820E0,-9.177281380E0,1.346542478E0
1.460355892E1,-3.085172176E0,-9.152525902E0,1.698049545E0
1.462382793E1,-3.113722563E0,-9.040997505E0,2.176111460E0
1.464409694E1,-3.235507727E0,-8.858744621E0,2.687849760E0
1.466436595E1,-3.441397667E0,-8.649321556E0,3.084868431E0
1.468463496E1,-3.749264717E0,-8.439835548E0,3.298875093E0
1.470490392E1,-4.072982311E0,-8.232174873E0,3.436933041E0
1.472517293E1,-4.317674160E0,-8.028958321E0,3.614403009E0
1.474544194E1,-4.465783119E0,-7.883472443E0,3.752069712E0
1.476571095E1,-4.531159401E0,-7.848522663E0,3.746955872E0
1.478597991E1,-4.570819378E0,-7.889189243E0,3.610911846E0
1.480624892E1,-4.573212147E0,-7.970361233E0,3.424830198E0
1.482651793E1,-4.547710419E0,-8.073210716E0,3.211228848E0
1.484678689E1,-4.526152611E0,-8.181607246E0,2.957299232E0
1.486705590E1,-4.512206078E0,-8.290307045E0,2.661051989E0
1.488732491E1,-4.478876591E0,-8.400176048E0,2.355225801E0
1.490759387E1,-4.395074368E0,-8.512747765E0,2.094472885E0
1.492786288E1,-4.279606819E0,-8.616134644E0,1.901993752E0
1.494813189E1,-4.187474251E0,-8.683389664E0,1.798385262E0
1.496840085E1,-4.131915569E0,-8.708390236E0,1.805988193E0
1.498866986E1,-4.108049393E0,-8.712663651E0,1.839516401E0
1.500893882E1,-4.131008148E0,-8.691325188E0,1.888389826E0
1.502920782E1,-4.199533939E0,-8.624950409E0,2.035813093E0
1.504947684E1,-4.278526783E0,-8.542290688E0,2.212207317E0
1.506974579E1,-4.323522091E0,-8.494810104E0,2.305589437E0
1.509001480E1,-4.256651878E0,-8.508309364E0,2.379066944E0
1.511028376E1,-4.183718681E0,-8.529741287E0,2.431132793E0
1.513055277E1,-4.207409382E0,-8.559448242E0,2.281216621E0
1.515082173E1,-4.204154968E0,-8.649712563E0,1.917798162E0
1.517109069E1,-4.125174522E0,-8.754954338E0,1.582433701E0
1.519135970E1,-4.117713928E0,-8.760397911E0,1.571702242E0
1.521162866E1,-4.211472511E0,-8.678646088E0,1.764931679E0
1.523189767E1,-4.248887539E0,-8.645436287E0,1.836783171E0
1.525216663E1,-4.156768799E0,-8.720541954E0,1.686366320E0
1.527243553E1,-4.001013279E0,-8.850403786E0,1.353747964E0
1.529270460E1,-3.849743605E0,-8.971002579E0,9.332600832E-1
1.531297355E1,-3.729770184E0,-9.053813934E0,5.363476276E-1
1.533324256E1,-3.653975964E0,-9.096527100E0,2.684006989E-1
1.535351152E1,-3.619047165E0,-9.113998413E0,8.897656947E-2
1.537378053E1,-3.600244999E0,-9.121674538E0,-6.064652652E-2
1.539404949E1,-3.585945606E0,-9.125206947E0,-2.048674673E-1
1.541431845E1,-3.570571661E0,-9.125847816E0,-3.745630980E-1
1.543458746E1,-3.554752588E0,-9.121776581E0,-5.721138120E-1
1.545485642E1,-3.540959120E0,-9.114759445E0,-7.437276840E-1
1.547512538E1,-3.529831171E0,-9.110450745E0,-8.428319693E-1
1.549539434E1,-3.518820524E0,-9.110706329E0,-8.850528598E-1
1.551579434E1,-3.500817537E0,-9.114980698E0,-9.120236039E-1
1.553593230E1,-3.475406170E0,-9.126274109E0,-8.961346149E-1
1.555620132E1,-3.430336714E0,-9.152504921E0,-7.967631221E-1
1.557647027E1,-3.366353512E0,-9.190308571E0,-6.134110689E-1
1.559673923E1,-3.380979061E0,-9.200069427E0,-3.132029176E-1
1.561713923E1,-3.516058445E0,-9.153333664E0,1.555726379E-1
1.563727715E1,-3.633744240E0,-9.075336456E0,7.775323391E-1
1.565754616E1,-3.696992159E0,-8.965641022E0,1.455996037E0
1.567781512E1,-3.774657965E0,-8.823436737E0,2.017248154E0
1.569808408E1,-3.950265408E0,-8.658649445E0,2.365073204E0
1.571848408E1,-4.226391315E0,-8.471449852E0,2.557842970E0
1.573862199E1,-4.512045860E0,-8.265251160E0,2.738150120E0
1.575889095E1,-4.704535007E0,-8.056242943E0,3.022366047E0
1.577915991E1,-4.767063618E0,-7.895040989E0,3.333738089E0
1.579942887E1,-4.770394325E0,-7.819758415E0,3.502156734E0
1.581982887E1,-4.758957863E0,-7.825597286E0,3.504676104E0
1.583996678E1,-4.764489651E0,-7.884024620E0,3.363357544E0
1.586023579E1,-4.813120842E0,-7.954151154E0,3.120212317E0
1.588050475E1,-4.865965366E0,-8.016280174E0,2.869151354E0
1.590077366E1,-4.887912273E0,-8.058267593E0,2.709801197E0
1.592104262E1,-4.884902477E0,-8.072188377E0,2.673556089E0
1.594131152E1,-4.828579903E0,-8.095829010E0,2.704210281E0
1.596158053E1,-4.654810905E0,-8.165043831E0,2.799142838E0
1.598184949E1,-4.430101395E0,-8.263745308E0,2.873168945E0
1.600211845E1,-4.259216785E0,-8.368691444E0,2.827446222E0
1.602238741E1,-4.145089149E0,-8.482891083E0,2.651257277E0
1.604265637E1,-4.082125187E0,-8.567343712E0,2.471289873E0
1.606292533E1,-4.097417831E0,-8.566053391E0,2.450366020E0
1.608319428E1,-4.190285206E0,-8.489302635E0,2.558054209E0
1.610346319E1,-4.346225739E0,-8.390944481E0,2.621594906E0
1.612373215E1,-4.500969410E0,-8.337052345E0,2.530852079E0
1.614400111E1,-4.587740898E0,-8.361750603E0,2.281260490E0
1.616427006E1,-4.635204315E0,-8.427306175E0,1.914624453E0
1.618453902E1,-4.645637989E0,-8.489507675E0,1.586408496E0
1.620480798E1,-4.629203796E0,-8.485721588E0,1.653295994E0
1.622507689E1,-4.484923363E0,-8.489365578E0,1.996627450E0
1.624534585E1,-4.236634731E0,-8.568310738E0,2.192112684E0
1.626561480E1,-4.006322861E0,-8.696153641E0,2.120536327E0
1.628588371E1,-3.808092356E0,-8.844527245E0,1.855582356E0
1.630615267E1,-3.625868797E0,-8.981391907E0,1.535601974E0
1.632642163E1,-3.478526115E0,-9.069621086E0,1.346182585E0
1.634669053E1,-3.420067549E0,-9.108738899E0,1.226535320E0
1.636695949E1,-3.453011036E0,-9.123861313E0,1.001126766E0
1.638722840E1,-3.516572237E0,-9.128732681E0,6.858201027E-1
1.640749736E1,-3.533700705E0,-9.139832497E0,3.831470907E-1
1.642776632E1,-3.563363552E0,-9.133672714E0,2.210046500E-1
1.644803522E1,-3.623168945E0,-9.110815048E0,1.899935454E-1
1.646830418E1,-3.667017221E0,-9.093881607E0,1.571446955E-1
1.648857314E1,-3.680056095E0,-9.089927673E0,2.786756307E-2
1.650884204E1,-3.664085388E0,-9.094081879E0,-2.062119693E-1
1.652911095E1,-3.643364191E0,-9.091407776E0,-4.925216138E-1
1.654937991E1,-3.641201735E0,-9.070135117E0,-8.029220104E-1
1.656964882E1,-3.632231951E0,-9.046000481E0,-1.071052194E0
1.658991777E1,-3.642505646E0,-9.040972710E0,-1.078578711E0
1.661018668E1,-3.672744513E0,-9.047064781E0,-9.121159315E-1
1.663045564E1,-3.684365988E0,-9.055406570E0,-7.716477513E-1
1.665072454E1,-3.666090965E0,-9.071779251E0,-6.580060720E-1
1.667099350E1,-3.657038689E0,-9.084931374E0,-5.103791952E-1
1.669126241E1,-3.681977987E0,-9.087340355E0,-1.834872961E-1
1.671153137E1,-3.773259878E0,-9.043354988E0,3.881068528E-1
1.673180027E1,-3.911209106E0,-8.934959412E0,1.019484401E0
1.675206918E1,-4.051654816E0,-8.789791107E0,1.579257846E0
1.677233814E1,-4.160720348E0,-8.641838074E0,2.043879986E0
1.679260704E1,-4.260508537E0,-8.500169754E0,2.401159048E0
1.681287595E1,-4.366044998E0,-8.355371475E0,2.701073885E0
1.683314491E1,-4.437998772E0,-8.218935966E0,2.987244844E0
1.685341382E1,-4.464306355E0,-8.102994919E0,3.252971888E0
1.687368267E1,-4.494292736E0,-7.997692108E0,3.465348005E0
1.689395163E1,-4.571665287E0,-7.893980980E0,3.599351883E0
1.691422059E1,-4.678277016E0,-7.803191185E0,3.659825563E0
1.693448949E1,-4.764803410E0,-7.750662804E0,3.659815550E0
1.695475840E1,-4.814286232E0,-7.744968414E0,3.606729507E0
1.697515840E1,-4.839496613E0,-7.777907848E0,3.500545025E0
1.699529626E1,-4.855528355E0,-7.834784031E0,3.348191977E0
1.701556517E1,-4.859199047E0,-7.906419754E0,3.169717789E0
1.703583408E1,-4.834537506E0,-7.990859032E0,2.990622997E0
1.705610298E1,-4.770841599E0,-8.094150543E0,2.809660435E0
1.707637194E1,-4.696541786E0,-8.205214500E0,2.605254889E0
1.709664085E1,-4.662628174E0,-8.295571327E0,2.369342327E0
1.711704085E1,-4.708559036E0,-8.346150398E0,2.083658934E0
1.713717866E1,-4.812420845E0,-8.359594345E0,1.768665075E0
1.715744757E1,-4.903582573E0,-8.352476120E0,1.536687493E0
1.717771647E1,-4.905725479E0,-8.356683731E0,1.506681919E0
1.719798538E1,-4.834568024E0,-8.381483078E0,1.596273541E0
1.721838538E1,-4.715429783E0,-8.435115814E0,1.668508887E0
1.723852319E1,-4.561694622E0,-8.529259682E0,1.616493583E0
1.725879210E1,-4.395033360E0,-8.653639793E0,1.403063059E0
1.727906105E1,-4.228318214E0,-8.772832870E0,1.152869701E0
1.729932991E1,-4.188873768E0,-8.793935776E0,1.135965466E0
1.731972991E1,-4.403655052E0,-8.654006958E0,1.373456717E0
1.733986772E1,-4.661196232E0,-8.488184929E0,1.547368526E0
1.736013663E1,-4.694834709E0,-8.435667038E0,1.722914219E0
1.738040553E1,-4.586967468E0,-8.458026886E0,1.895231366E0
1.740067444E1,-4.489979267E0,-8.508167267E0,1.903037548E0
1.742107444E1,-4.462449551E0,-8.576090813E0,1.645474076E0
1.744121225E1,-4.490497112E0,-8.638780594E0,1.173575640E0
1.746148116E1,-4.557134151E0,-8.651904106E0,7.399225235E-1
1.748175006E1,-4.629368305E0,-8.625980377E0,5.760284066E-1
1.750201897E1,-4.677814007E0,-8.600996017E0,5.579487681E-1
1.752228788E1,-4.691026211E0,-8.593889236E0,5.565466285E-1
1.754255678E1,-4.648909569E0,-8.617118835E0,5.507175922E-1
1.756282569E1,-4.533280849E0,-8.676713943E0,5.782603025E-1
1.758309454E1,-4.358158112E0,-8.758702278E0,6.796895266E-1
1.760336340E1,-4.188696861E0,-8.829977989E0,8.103606105E-1
1.762363230E1,-4.085306168E0,-8.872892380E0,8.674271107E-1
1.764390121E1,-4.058812618E0,-8.886343956E0,8.539926410E-1
1.766417012E1,-4.098335266E0,-8.866682053E0,8.694792390E-1
1.768443902E1,-4.203837872E0,-8.803327560E0,9.997838140E-1
1.770470788E1,-4.341701984E0,-8.700528145E0,1.273119450E0
1.772497678E1,-4.438219070E0,-8.562242508E0,1.777811527E0
1.774524569E1,-4.391602039E0,-8.379190445E0,2.583288670E0
1.776551460E1,-4.304976463E0,-8.138353348E0,3.377094746E0
1.778578350E1,-4.349053860E0,-7.865384102E0,3.923243761E0
1.780605236E1,-4.672603130E0,-7.591370583E0,4.087573051E0
1.782632126E1,-5.122044563E0,-7.340636253E0,4.006257057E0
1.784659017E1,-5.413250446E0,-7.142976284E0,3.980577707E0
1.786685897E1,-5.560459137E0,-7.021239758E0,3.994229794E0
1.788712793E1,-5.649011612E0,-6.988000870E0,3.927709341E0
1.790739684E1,-5.687965870E0,-7.051950932E0,3.753321648E0
1.792766569E1,-5.627894878E0,-7.198587894E0,3.560551643E0
1.794793460E1,-5.489239216E0,-7.396615982E0,3.365814924E0
1.796820350E1,-5.322716713E0,-7.615205288E0,3.138107777E0
1.798847236E1,-5.141927719E0,-7.843021870E0,2.866700172E0
1.800874126E1,-4.966997147E0,-8.062207222E0,2.549541712E0
1.802901017E1,-4.844888210E0,-8.234348297E0,2.212000847E0
1.804927902E1,-4.798013210E0,-8.331782341E0,1.931542277E0
1.806954793E1,-4.836566925E0,-8.375398636E0,1.621942043E0
1.808981678E1,-4.933940887E0,-8.386009216E0,1.225342512E0
1.811008569E1,-4.973547459E0,-8.392668724E0,9.986569881E-1
1.813035460E1,-4.963702679E0,-8.404013634E0,9.511091709E-1
1.815062345E1,-4.934787750E0,-8.416956902E0,9.864505529E-1
1.817089236E1,-4.918302059E0,-8.416552544E0,1.068800569E0
1.819116121E1,-4.893277645E0,-8.426689148E0,1.103231668E0
1.821143012E1,-4.777090549E0,-8.492655754E0,1.106616020E0
1.823169897E1,-4.663042068E0,-8.555730820E0,1.107198000E0
1.825196788E1,-4.829741478E0,-8.472916603E0,1.026476979E0
1.827223673E1,-5.104950428E0,-8.304698944E0,1.068565130E0
1.829250558E1,-5.237155914E0,-8.195961952E0,1.252520800E0
1.831277449E1,-5.205668449E0,-8.171670914E0,1.514988542E0
1.833304335E1,-5.085845470E0,-8.204116821E0,1.731191158E0
1.835331225E1,-4.947532177E0,-8.281859398E0,1.761566043E0
1.837358111E1,-4.785968304E0,-8.408758163E0,1.599280000E0
1.839384996E1,-4.609737396E0,-8.545612335E0,1.375945210E0
1.841411887E1,-4.525788784E0,-8.610280991E0,1.245261073E0
1.843438772E1,-4.561973095E0,-8.595851898E0,1.212484598E0
1.845465658E1,-4.603204250E0,-8.577775955E0,1.184338689E0
1.847492548E1,-4.583397388E0,-8.594449043E0,1.139425755E0
1.849519434E1,-4.508132935E0,-8.633262634E0,1.146258473E0
1.851546319E1,-4.372860909E0,-8.691168785E0,1.229656458E0
1.853573210E1,-4.211735249E0,-8.751676559E0,1.356409311E0
1.855600090E1,-4.106946468E0,-8.783236504E0,1.469064951E0
1.857626980E1,-4.082667828E0,-8.771595001E0,1.600419879E0
1.859653866E1,-4.141998768E0,-8.674950600E0,1.938937426E0
1.861693866E1,-4.237835884E0,-8.421576500E0,2.699667215E0
1.863707637E1,-4.313630581E0,-7.995307446E0,3.692970514E0
1.865734527E1,-4.429139614E0,-7.566082954E0,4.394029617E0
1.867761413E1,-4.671895027E0,-7.231303692E0,4.695958614E0
1.869788298E1,-5.077001572E0,-6.940809250E0,4.713767529E0
1.871828298E1,-5.385759354E0,-6.721949100E0,4.688218117E0
1.873842069E1,-5.541513920E0,-6.610571384E0,4.665013313E0
1.875868954E1,-5.648952961E0,-6.607159615E0,4.539291859E0
1.877895840E1,-5.735113621E0,-6.703779221E0,4.282313347E0
1.879922730E1,-5.727272511E0,-6.873818398E0,4.014891624E0
1.881962730E1,-5.620556831E0,-7.096170902E0,3.771483183E0
1.883976501E1,-5.487528801E0,-7.355266571E0,3.457957506E0
1.886003387E1,-5.348615170E0,-7.653859138E0,2.996856689E0
1.888030272E1,-5.184978962E0,-7.920006275E0,2.561225891E0
1.890057158E1,-5.059808731E0,-8.078248978E0,2.304477215E0
1.892084043E1,-5.028148651E0,-8.148490906E0,2.119008064E0
1.894110928E1,-5.064810276E0,-8.205998421E0,1.783162594E0
1.896137814E1,-5.066760540E0,-8.289130211E0,1.337401032E0
1.898164699E1,-4.988481522E0,-8.377815247E0,1.047680259E0
1.900191585E1,-4.812296867E0,-8.477084160E0,1.072955847E0
1.902218470E1,-4.593734741E0,-8.569542885E0,1.277071595E0
1.904245355E1,-4.451232433E0,-8.622597694E0,1.416938066E0
1.906272241E1,-4.430863857E0,-8.638875008E0,1.381189227E0
1.908299126E1,-4.645176411E0,-8.550683975E0,1.215945125E0
1.910326012E1,-5.135037422E0,-8.251291275E0,1.310714841E0
1.912352892E1,-5.440187931E0,-7.988475323E0,1.661026001E0
1.914379782E1,-5.421039581E0,-7.908047676E0,2.060461283E0
1.916406663E1,-5.289791107E0,-7.953450680E0,2.220613956E0
1.918433548E1,-5.137192726E0,-8.089262962E0,2.084096193E0
1.920460434E1,-4.921191692E0,-8.308086395E0,1.711127639E0
1.922500434E1,-4.683360577E0,-8.506538391E0,1.369426847E0
1.924514204E1,-4.588289261E0,-8.575833321E0,1.254228950E0
1.926541090E1,-4.623260498E0,-8.554850578E0,1.269003630E0
1.928567975E1,-4.732434750E0,-8.498361588E0,1.245917320E0
1.930594861E1,-4.832469940E0,-8.448916435E0,1.197255850E0
1.932621746E1,-4.828168392E0,-8.448579788E0,1.216821551E0
1.934648626E1,-4.669465542E0,-8.521159172E0,1.325264573E0
1.936675512E1,-4.439182758E0,-8.618213654E0,1.480013251E0
1.938702397E1,-4.206204414E0,-8.699213982E0,1.673888803E0
1.940729283E1,-4.056926727E0,-8.708888054E0,1.966469765E0
1.942756168E1,-4.052776337E0,-8.593848228E0,2.427173376E0
1.944783053E1,-4.192798615E0,-8.312500954E0,3.081096888E0
1.946809934E1,-4.416142941E0,-7.850946426E0,3.876946449E0
1.948836819E1,-4.711874485E0,-7.326568127E0,4.504446030E0
1.950863704E1,-5.142385006E0,-6.931058407E0,4.656897068E0
1.952890585E1,-5.567170143E0,-6.679681778E0,4.534187317E0
1.954917470E1,-5.811650753E0,-6.587796211E0,4.358444691E0
1.956944355E1,-5.913583279E0,-6.630156994E0,4.152220726E0
1.958971241E1,-5.925009251E0,-6.726587772E0,3.977143288E0
1.960998121E1,-5.833639622E0,-6.854634762E0,3.892688751E0
1.963025007E1,-5.722621918E0,-7.019692898E0,3.761103153E0
1.965051887E1,-5.652689934E0,-7.224853992E0,3.466840029E0
1.967078772E1,-5.623744488E0,-7.478384495E0,2.935583115E0
1.969105658E1,-5.531367779E0,-7.761429310E0,2.309669256E0
1.971132543E1,-5.333482265E0,-7.995412350E0,1.948776603E0
1.973159428E1,-5.151416302E0,-8.137947083E0,1.845836163E0
1.975186308E1,-5.033785820E0,-8.230410576E0,1.758327723E0
1.977213194E1,-4.987397194E0,-8.314318657E0,1.472536802E0
1.979240074E1,-4.979221821E0,-8.380699158E0,1.068462729E0
1.981266960E1,-4.941510677E0,-8.428075790E0,8.481754661E-1
1.983293845E1,-4.817290783E0,-8.483382225E0,9.981517792E-1
1.985320725E1,-4.664381981E0,-8.533064842E0,1.265198946E0
1.987347611E1,-4.535645485E0,-8.582054138E0,1.395220041E0
1.989374491E1,-4.559555054E0,-8.587967873E0,1.275794864E0
1.991401376E1,-4.878881454E0,-8.411691666E0,1.268995881E0
1.993428262E1,-5.042557240E0,-8.279562950E0,1.480489850E0
1.995455142E1,-4.969415665E0,-8.276093483E0,1.726724148E0
1.997482027E1,-4.849438667E0,-8.329465866E0,1.809234738E0
1.999508908E1,-4.739669800E0,-8.419435501E0,1.678994417E0
2.001548908E1,-4.632081509E0,-8.532272339E0,1.383663893E0
2.003562673E1,-4.551337242E0,-8.625434875E0,1.028394461E0
2.005589559E1,-4.520418644E0,-8.670676231E0,7.453611493E-1
2.007616444E1,-4.545448780E0,-8.665527344E0,6.464613676E-1
2.009643324E1,-4.562232971E0,-8.656702995E0,6.464632750E-1
2.011683324E1,-4.527993679E0,-8.673794746E0,6.579880714E-1
2.013697090E1,-4.465343475E0,-8.703589439E0,6.918248534E-1
2.015723975E1,-4.389237881E0,-8.735730171E0,7.694135904E-1
2.017750855E1,-4.279075623E0,-8.782552719E0,8.524554372E-1
2.019777741E1,-4.154448986E0,-8.836893082E0,9.056862593E-1
2.021817741E1,-4.087308407E0,-8.861679077E0,9.669184685E-1
2.023831501E1,-4.109175205E0,-8.832824707E0,1.125286460E0
2.025858387E1,-4.205161572E0,-8.734503746E0,1.481702447E0
2.027885267E1,-4.333775520E0,-8.557262421E0,2.040109873E0
2.029912152E1,-4.441226006E0,-8.314941406E0,2.703267097E0
2.031952152E1,-4.577530384E0,-7.998364925E0,3.353022814E0
2.033965918E1,-4.823882103E0,-7.667627811E0,3.756066084E0
2.035992798E1,-5.182396412E0,-7.404626846E0,3.805872440E0
2.038019678E1,-5.520251751E0,-7.258940220E0,3.606243372E0
2.040046564E1,-5.717649460E0,-7.200974941E0,3.409519434E0
2.042086564E1,-5.769617558E0,-7.210592270E0,3.299889326E0
2.044100324E1,-5.702511311E0,-7.286158562E0,3.250178337E0
2.046127210E1,-5.546039104E0,-7.409996986E0,3.240953207E0
2.048154090E1,-5.356613636E0,-7.570579052E0,3.188011646E0
2.050180970E1,-5.217864513E0,-7.750774860E0,2.978214741E0
2.052207850E1,-5.137802124E0,-7.939390182E0,2.596046209E0
2.054234736E1,-5.094020367E0,-8.089254379E0,2.187529802E0
2.056261616E1,-5.065493584E0,-8.151056290E0,2.017782211E0
2.058288501E1,-5.033902645E0,-8.160472870E0,2.058376551E0
2.060315382E1,-5.035443306E0,-8.195072174E0,1.911932111E0
2.062342262E1,-5.075181007E0,-8.257934570E0,1.489779711E0
2.064369142E1,-5.080528736E0,-8.317282677E0,1.086934090E0
2.066396027E1,-5.005533218E0,-8.374327660E0,9.928112626E-1
2.068422908E1,-4.792373180E0,-8.463000298E0,1.257443190E0
2.070449788E1,-4.514166355E0,-8.570680618E0,1.528438091E0
2.072476668E1,-4.383113384E0,-8.633502960E0,1.556062102E0
2.074503553E1,-4.685844898E0,-8.484438896E0,1.492498159E0
2.076530434E1,-5.075079918E0,-8.252668381E0,1.519017816E0
2.078557314E1,-5.261276245E0,-8.113291740E0,1.632130742E0
2.080584199E1,-5.239613056E0,-8.110309601E0,1.714560390E0
2.082611074E1,-5.087455273E0,-8.214708328E0,1.675341368E0
2.084637960E1,-4.876513004E0,-8.372480392E0,1.513799071E0
2.086664840E1,-4.627972126E0,-8.532155991E0,1.398062587E0
2.088691720E1,-4.441224575E0,-8.633560181E0,1.381134391E0
2.090718600E1,-4.413467884E0,-8.656596184E0,1.324779153E0
2.092745480E1,-4.489751339E0,-8.638283730E0,1.180068731E0
2.094772361E1,-4.558034420E0,-8.628416061E0,9.721885920E-1
2.096799246E1,-4.543544292E0,-8.646556854E0,8.738723993E-1
2.098826126E1,-4.465909481E0,-8.684270859E0,8.997110128E-1
2.100853007E1,-4.352605820E0,-8.734191895E0,9.690675139E-1
2.102879887E1,-4.212079048E0,-8.783514023E0,1.130767584E0
2.104906767E1,-4.080712795E0,-8.804044724E0,1.416673779E0
2.106933647E1,-4.019664764E0,-8.750764847E0,1.853863239E0
2.108960527E1,-4.052195549E0,-8.572981834E0,2.500814438E0
2.110987408E1,-4.137580872E0,-8.267576218E0,3.270779133E0
2.113014288E1,-4.204421520E0,-7.900362015E0,4.009676456E0
2.115041168E1,-4.466267586E0,-7.573000431E0,4.344249249E0
2.117068053E1,-4.827185631E0,-7.385452747E0,4.280625343E0
2.119094934E1,-5.066695213E0,-7.327515125E0,4.099574566E0
2.121121814E1,-5.141616344E0,-7.355446339E0,3.953679562E0
2.123148694E1,-5.150204659E0,-7.415336609E0,3.828649521E0
2.125175569E1,-5.092311859E0,-7.501905441E0,3.736330271E0
2.127202449E1,-4.957592964E0,-7.635584831E0,3.645615578E0
2.129229335E1,-4.838774204E0,-7.819550514E0,3.407534122E0
2.131256210E1,-4.777716637E0,-8.044955254E0,2.936410427E0
2.133283090E1,-4.735686779E0,-8.263314247E0,2.336939573E0
2.135309975E1,-4.689182281E0,-8.393071175E0,1.933471680E0
2.137336855E1,-4.639926434E0,-8.441143990E0,1.840808392E0
2.139363736E1,-4.601546764E0,-8.483105659E0,1.741567254E0
2.141390616E1,-4.574260235E0,-8.554843903E0,1.435680389E0
2.143417496E1,-4.503926277E0,-8.640471458E0,1.107822418E0
2.145444376E1,-4.356822491E0,-8.716917038E0,1.097195983E0
2.147471256E1,-4.167582035E0,-8.755738258E0,1.462428331E0
2.149498137E1,-4.102295876E0,-8.736316681E0,1.737326860E0
2.151525017E1,-4.168544292E0,-8.702404022E0,1.749798417E0
2.153551897E1,-4.491988659E0,-8.554784775E0,1.675732613E0
2.155578777E1,-4.747961998E0,-8.351033211E0,1.971668482E0
2.157605658E1,-4.672889233E0,-8.279856682E0,2.403840542E0
2.159632538E1,-4.494273186E0,-8.290170670E0,2.691647291E0
2.161672532E1,-4.373445511E0,-8.361916542E0,2.668653727E0
2.163686288E1,-4.306734562E0,-8.479263306E0,2.392596245E0
2.165713168E1,-4.203598499E0,-8.614399910E0,2.071775198E0
2.167740048E1,-4.065302849E0,-8.743089676E0,1.789433599E0
2.169766928E1,-3.985541821E0,-8.831698418E0,1.512265325E0
2.171806928E1,-3.964008570E0,-8.877304077E0,1.284713864E0
2.173820689E1,-4.003292561E0,-8.882435799E0,1.116410375E0
2.175847569E1,-4.050254822E0,-8.876455307E0,9.871047139E-1
2.177874449E1,-4.018497944E0,-8.897121429E0,9.291316271E-1
2.179901324E1,-3.862931490E0,-8.967482567E0,9.123588204E-1
2.181941324E1,-3.609792471E0,-9.075919151E0,8.760635257E-1
2.183955085E1,-3.314761877E0,-9.191466331E0,8.364802599E-1
2.185981965E1,-3.096288204E0,-9.268951416E0,8.184905648E-1
2.188008845E1,-3.021400690E0,-9.290940285E0,8.484997749E-1
2.190035725E1,-3.026824474E0,-9.272308350E0,1.016370296E0
2.192075725E1,-3.127221107E0,-9.190248489E0,1.389323711E0
2.194089480E1,-3.349245310E0,-9.033300400E0,1.830962300E0
2.196116361E1,-3.624547958E0,-8.847553253E0,2.180330753E0
2.198143241E1,-3.932734489E0,-8.660309792E0,2.388100624E0
2.200170121E1,-4.302417278E0,-8.452907562E0,2.491575003E0
2.202210121E1,-4.635231495E0,-8.217307091E0,2.675981283E0
2.204223876E1,-4.841483116E0,-8.006692886E0,2.936546803E0
2.206250756E1,-4.961686611E0,-7.870162964E0,3.100418091E0
2.208277637E1,-5.036964417E0,-7.809995174E0,3.131031275E0
2.210304517E1,-5.095560074E0,-7.806464195E0,3.043807507E0
2.212331392E1,-5.150578499E0,-7.828433514E0,2.890942812E0
2.214358272E1,-5.195337772E0,-7.859401226E0,2.721886396E0
2.216385152E1,-5.187035084E0,-7.917200089E0,2.565737963E0
2.218412033E1,-5.106415749E0,-8.008397102E0,2.441410303E0
2.220438908E1,-4.986160755E0,-8.104265213E0,2.372651339E0
2.222465788E1,-4.825141907E0,-8.190721512E0,2.408418894E0
2.224492668E1,-4.645647526E0,-8.277530670E0,2.463905334E0
2.226519548E1,-4.516739845E0,-8.349719048E0,2.460006714E0
2.228546423E1,-4.514692307E0,-8.330711365E0,2.527289391E0
2.230573303E1,-4.547610760E0,-8.263879776E0,2.682893276E0
2.232600184E1,-4.567546844E0,-8.191495895E0,2.864838123E0
2.234627059E1,-4.562582493E0,-8.157574654E0,2.967690229E0
2.236653939E1,-4.426628590E0,-8.261035919E0,2.886283875E0
2.238680814E1,-4.190648556E0,-8.484379768E0,2.573744059E0
2.240707694E1,-3.919519901E0,-8.680174828E0,2.337158203E0
2.242734574E1,-3.658982992E0,-8.750267982E0,2.493000746E0
2.244761449E1,-3.414166927E0,-8.780542374E0,2.723221302E0
2.246788329E1,-3.221635342E0,-8.831540108E0,2.792014599E0
2.248815210E1,-3.115070105E0,-8.921228409E0,2.622672796E0
2.250842085E1,-3.086776018E0,-9.029651642E0,2.259998560E0
2.252868965E1,-3.139999628E0,-9.111984253E0,1.811777115E0
2.254895840E1,-3.286843061E0,-9.140212059E0,1.350396037E0
2.256922720E1,-3.485481024E0,-9.118988991E0,9.305016398E-1
2.258949595E1,-3.599866629E0,-9.095082283E0,7.005853653E-1
2.260976475E1,-3.559282780E0,-9.117004395E0,6.181570888E-1
2.263003350E1,-3.484082937E0,-9.151295662E0,5.341872573E-1
2.265030230E1,-3.459007025E0,-9.162590027E0,5.026037693E-1
2.267057105E1,-3.473767757E0,-9.157727242E0,4.892275035E-1
2.269083986E1,-3.482781410E0,-9.157500267E0,4.252132773E-1
2.271110861E1,-3.458489180E0,-9.172506332E0,2.727372050E-1
2.273137736E1,-3.429359913E0,-9.187460899E0,2.099348791E-2
2.275164616E1,-3.441276789E0,-9.178183556E0,-2.982307076E-1
2.277191491E1,-3.483385801E0,-9.151360512E0,-5.375857949E-1
2.279218371E1,-3.524869680E0,-9.133606911E0,-5.682550669E-1
2.281245246E1,-3.532813787E0,-9.134432793E0,-5.017482638E-1
2.283272121E1,-3.494822264E0,-9.148624420E0,-5.092027783E-1
2.285299001E1,-3.424674749E0,-9.167675018E0,-6.290747523E-1
2.287325876E1,-3.321315050E0,-9.192768097E0,-7.951445580E-1
2.289352757E1,-3.185111284E0,-9.230215073E0,-9.102640748E-1
2.291379632E1,-3.068672895E0,-9.270590782E0,-8.998740911E-1
2.293406507E1,-3.049839973E0,-9.290217400E0,-7.488203645E-1
2.295433387E1,-3.154668808E0,-9.273100853E0,-4.775482714E-1
2.297460262E1,-3.320373774E0,-9.226810455E0,-1.071032658E-1
2.299487142E1,-3.476776361E0,-9.164120674E0,3.182859421E-1
2.301514017E1,-3.603447437E0,-9.088519096E0,7.644442916E-1
2.303540892E1,-3.669217110E0,-9.010347366E0,1.233241796E0
2.305567772E1,-3.711546421E0,-8.920121193E0,1.681148529E0
2.307594647E1,-3.788907051E0,-8.804237366E0,2.073637962E0
2.309621522E1,-3.914844036E0,-8.649737358E0,2.454875708E0
2.311661522E1,-4.054070950E0,-8.463912964E0,2.845538378E0
2.313675277E1,-4.189096928E0,-8.276777267E0,3.180692911E0
2.315702152E1,-4.324282169E0,-8.116560936E0,3.404762745E0
2.317729032E1,-4.436734676E0,-8.006735802E0,3.518232346E0
2.319755908E1,-4.516967773E0,-7.955485821E0,3.532369137E0
2.321795908E1,-4.611547470E0,-7.949570179E0,3.421749115E0
2.323809658E1,-4.792404175E0,-7.928309441E0,3.216387749E0
2.325836532E1,-5.010788441E0,-7.871847153E0,3.016026258E0
2.327863413E1,-5.134451389E0,-7.827174664E0,2.922863960E0
2.329890288E1,-5.159090996E0,-7.803436756E0,2.942879915E0
2.331930288E1,-5.103095055E0,-7.796717167E0,3.056143284E0
2.333944038E1,-4.989544392E0,-7.804883957E0,3.218480349E0
2.335970913E1,-4.879731655E0,-7.840754509E0,3.298661470E0
2.337997793E1,-4.783409119E0,-7.935061455E0,3.213126183E0
2.340024668E1,-4.677074432E0,-8.078879356E0,3.004506588E0
2.342064668E1,-4.562980652E0,-8.227391243E0,2.767601967E0
2.344078418E1,-4.482244492E0,-8.328046799E0,2.592973709E0
2.346105293E1,-4.460614204E0,-8.339730263E0,2.592723131E0
2.348132168E1,-4.514684200E0,-8.274773598E0,2.704837084E0
2.350159043E1,-4.642341614E0,-8.197279930E0,2.724636078E0
2.352185923E1,-4.714079380E0,-8.193165779E0,2.611490011E0
2.354212798E1,-4.709622860E0,-8.288130760E0,2.301464319E0
2.356239673E1,-4.598823071E0,-8.421121597E0,2.026307106E0
2.358266548E1,-4.446603298E0,-8.485056877E0,2.098077059E0
2.360293423E1,-4.379459858E0,-8.456950188E0,2.338957548E0
2.362320298E1,-4.317308426E0,-8.426513672E0,2.554426908E0
2.364347173E1,-4.189738750E0,-8.466764450E0,2.632562399E0
2.366374043E1,-4.010300159E0,-8.580507278E0,2.542197466E0
2.368400923E1,-3.811646938E0,-8.748273849E0,2.260405540E0
2.370427798E1,-3.583059788E0,-8.926403999E0,1.910858154E0
2.372467798E1,-3.381159544E0,-9.051500320E0,1.675857306E0
2.374481548E1,-3.384166956E0,-9.065078735E0,1.594413877E0
2.376508423E1,-3.615746975E0,-8.983770370E0,1.545516372E0
2.378535298E1,-3.762181044E0,-8.945893288E0,1.409745216E0
2.380562173E1,-3.804488420E0,-8.947802544E0,1.277927876E0
2.382589048E1,-3.764428616E0,-8.978252411E0,1.179174900E0
2.384615928E1,-3.694797754E0,-9.019792557E0,1.078051329E0
2.386642798E1,-3.649644375E0,-9.053927422E0,9.364186525E-1
2.388669678E1,-3.640600920E0,-9.075723648E0,7.400434017E-1
2.390696548E1,-3.661179543E0,-9.084787369E0,4.824828804E-1
2.392723423E1,-3.719644070E0,-9.071038246E0,2.256067544E-1
2.394750298E1,-3.830611706E0,-9.026766777E0,1.195436418E-1
2.396777173E1,-3.948922396E0,-8.974041939E0,2.072965056E-1
2.398804048E1,-4.017031193E0,-8.939787865E0,3.377004266E-1
2.400830923E1,-4.045732498E0,-8.920096397E0,4.840730727E-1
2.402857798E1,-4.096440315E0,-8.878372192E0,7.510520220E-1
2.404884673E1,-4.123324394E0,-8.828379631E0,1.108280301E0
2.406911548E1,-4.078242779E0,-8.805593491E0,1.414156437E0
2.408938423E1,-4.016342640E0,-8.803267479E0,1.594321847E0
2.410965298E1,-3.957230091E0,-8.823741913E0,1.628589272E0
2.412992168E1,-3.907883406E0,-8.865045547E0,1.519802332E0
2.415019048E1,-3.875076056E0,-8.903770447E0,1.370057702E0
2.417045913E1,-3.933173180E0,-8.887024879E0,1.311994791E0
2.419072793E1,-4.059635639E0,-8.825484276E0,1.341858387E0
2.421099668E1,-4.165274620E0,-8.770435333E0,1.378527880E0
2.423126543E1,-4.188335419E0,-8.754406929E0,1.410174370E0
2.425153413E1,-4.146795750E0,-8.755758286E0,1.520257592E0
2.427180288E1,-4.050268650E0,-8.742830276E0,1.824459672E0
2.429207163E1,-3.883217096E0,-8.672092438E0,2.426073551E0
2.431234038E1,-3.750336409E0,-8.479979515E0,3.193009615E0
2.433260908E1,-3.839125395E0,-8.201630592E0,3.763610125E0
2.435287788E1,-4.197983265E0,-7.897312641E0,4.022408485E0
2.437314663E1,-4.691648960E0,-7.576647758E0,4.093070507E0
2.439341533E1,-4.983312607E0,-7.302999496E0,4.243017197E0
2.441368408E1,-5.078973770E0,-7.186644077E0,4.327418327E0
2.443395283E1,-5.158459187E0,-7.198375225E0,4.212373734E0
2.445422158E1,-5.248996735E0,-7.263028622E0,3.983320236E0
2.447449032E1,-5.273717403E0,-7.350819111E0,3.784673452E0
2.449475902E1,-5.223690987E0,-7.450243950E0,3.657500744E0
2.451515902E1,-5.166263103E0,-7.560066700E0,3.510770798E0
2.453529652E1,-5.133867741E0,-7.691667080E0,3.263746738E0
2.455556527E1,-5.054854870E0,-7.868435383E0,2.950687647E0
2.457583397E1,-4.886131763E0,-8.084550858E0,2.633656740E0
2.459610272E1,-4.685556889E0,-8.298820496E0,2.312040091E0
2.461650272E1,-4.490584850E0,-8.484271049E0,2.005538940E0
2.463664017E1,-4.307926655E0,-8.629999161E0,1.770669103E0
2.465690897E1,-4.188047409E0,-8.729291916E0,1.558878899E0
2.467717767E1,-4.170550823E0,-8.773932457E0,1.339780450E0
2.469744642E1,-4.199220181E0,-8.779921532E0,1.204119921E0
2.471784642E1,-4.226431370E0,-8.766989708E0,1.203139663E0
2.473798392E1,-4.244464397E0,-8.747766495E0,1.277293086E0
2.475825267E1,-4.305696964E0,-8.702564240E0,1.377218246E0
2.477852137E1,-4.379678249E0,-8.636711121E0,1.547912121E0
2.479879012E1,-4.356449127E0,-8.628637314E0,1.654796243E0
2.481919012E1,-4.243414402E0,-8.701715469E0,1.563321710E0
2.483932756E1,-4.219207764E0,-8.746919632E0,1.363842368E0
2.485959632E1,-4.380116940E0,-8.692195892E0,1.196113706E0
2.487986506E1,-4.675605297E0,-8.523479462E0,1.288182020E0
2.490013382E1,-4.873584270E0,-8.373183250E0,1.519327641E0
2.492040251E1,-4.808619499E0,-8.386028290E0,1.649879336E0
2.494067126E1,-4.686374664E0,-8.467547417E0,1.583964944E0
2.496094001E1,-4.548892975E0,-8.589568138E0,1.302792430E0
2.498120871E1,-4.402641773E0,-8.714426041E0,9.197378159E-1
2.500146954E1,-4.326069832E0,-8.779519081E0,6.128221750E-1
2.502166923E1,-4.331536293E0,-8.784578323E0,4.892562032E-1
2.504201611E1,-4.381200314E0,-8.761545181E0,4.591116905E-1
2.506228460E1,-4.407510757E0,-8.748257637E0,4.606748819E-1
2.508255319E1,-4.360334396E0,-8.768396378E0,5.225915313E-1
2.510282173E1,-4.266463280E0,-8.806843758E0,6.381037235E-1
2.512309033E1,-4.157229424E0,-8.850105286E0,7.506487370E-1
2.514335897E1,-4.045401096E0,-8.891091347E0,8.681125045E-1
2.516362757E1,-3.923650980E0,-8.931941986E0,9.978837371E-1
2.518389632E1,-3.803099632E0,-8.972434998E0,1.096462250E0
2.520416496E1,-3.766233683E0,-8.980454445E0,1.156414866E0
2.522443366E1,-3.816094398E0,-8.949301720E0,1.231990337E0
2.524470236E1,-3.849240541E0,-8.909846306E0,1.402985096E0
2.526497105E1,-3.874764204E0,-8.843449593E0,1.717554092E0
2.528523980E1,-3.945922852E0,-8.710829735E0,2.172906876E0
2.530550845E1,-4.005895615E0,-8.488258362E0,2.841239691E0
2.532577720E1,-4.063803196E0,-8.156667709E0,3.622796059E0
2.534604590E1,-4.225178719E0,-7.770521641E0,4.235237598E0
2.536631460E1,-4.635158539E0,-7.415912628E0,4.437332153E0
2.538658329E1,-5.028989315E0,-7.155846596E0,4.435484409E0
2.540685204E1,-5.102590084E0,-7.026899815E0,4.555944443E0
2.542712074E1,-5.079891682E0,-6.995502949E0,4.629040241E0
2.544738949E1,-5.063281059E0,-7.073841572E0,4.527067184E0
2.546765819E1,-5.005670547E0,-7.242630482E0,4.319485188E0
2.548792694E1,-4.916663647E0,-7.424338818E0,4.108041763E0
2.550819564E1,-4.871913433E0,-7.580448627E0,3.869320154E0
2.552846439E1,-4.867753506E0,-7.734377384E0,3.557353973E0
2.554873309E1,-4.884078026E0,-7.903711796E0,3.138074875E0
2.556900184E1,-4.873946190E0,-8.079836845E0,2.670444489E0
2.558927053E1,-4.821194172E0,-8.238988876E0,2.246225119E0
2.560953928E1,-4.712811947E0,-8.377523422E0,1.943424940E0
2.562980798E1,-4.591737270E0,-8.496042252E0,1.703999281E0
2.565007673E1,-4.548970222E0,-8.570755959E0,1.421051145E0
2.567034543E1,-4.570339680E0,-8.600742340E0,1.144387126E0
2.569061418E1,-4.586404800E0,-8.613136292E0,9.742491841E-1
2.571088288E1,-4.590087891E0,-8.612545013E0,9.620519876E-1
2.573115163E1,-4.621053696E0,-8.588529587E0,1.026360273E0
2.575142032E1,-4.692978859E0,-8.533509254E0,1.151333809E0
2.577168902E1,-4.682418346E0,-8.511875153E0,1.339156508E0
2.579195777E1,-4.530048370E0,-8.576364517E0,1.447419167E0
2.581222647E1,-4.399533272E0,-8.661881447E0,1.336529851E0
2.583249517E1,-4.561811924E0,-8.614318848E0,1.074136972E0
2.585276392E1,-4.930944920E0,-8.403656960E0,1.111177325E0
2.587303262E1,-5.113572598E0,-8.241573334E0,1.448528051E0
2.589330137E1,-5.047939777E0,-8.211306572E0,1.806415200E0
2.591357007E1,-4.921350002E0,-8.254764557E0,1.951814532E0
2.593383876E1,-4.792650223E0,-8.367025375E0,1.787114859E0
2.595410746E1,-4.645883083E0,-8.524047852E0,1.388081312E0
2.597450746E1,-4.507925510E0,-8.652871132E0,9.883417487E-1
2.599464491E1,-4.473687172E0,-8.689609528E0,8.044821620E-1
2.601491366E1,-4.558990955E0,-8.651685715E0,7.309740782E-1
2.603518236E1,-4.671350956E0,-8.598267555E0,6.470451355E-1
2.605545105E1,-4.703132153E0,-8.584918976E0,5.917087197E-1
2.607571975E1,-4.632008553E0,-8.620862961E0,6.289731860E-1
2.609598850E1,-4.507425785E0,-8.678495407E0,7.329537868E-1
2.611638850E1,-4.372307777E0,-8.737166405E0,8.457224965E-1
2.613652590E1,-4.264191628E0,-8.783428192E0,9.156624675E-1
2.615679460E1,-4.199666500E0,-8.814225197E0,9.179362655E-1
2.617706335E1,-4.160254955E0,-8.836414337E0,8.834261298E-1
2.619733204E1,-4.149715424E0,-8.844222069E0,8.543910980E-1
2.621773204E1,-4.179715633E0,-8.828041077E0,8.752488494E-1
2.623786944E1,-4.222254753E0,-8.794640541E0,9.986281991E-1
2.625813819E1,-4.253441811E0,-8.738630295E0,1.309567094E0
2.627840689E1,-4.270823956E0,-8.628774643E0,1.864052773E0
2.629867558E1,-4.267665863E0,-8.426776886E0,2.635688305E0
2.631907558E1,-4.225874424E0,-8.146512985E0,3.456400871E0
2.633921298E1,-4.317178249E0,-7.826118946E0,4.035370827E0
2.635948173E1,-4.748453140E0,-7.506803036E0,4.155778408E0
2.637975038E1,-5.186633110E0,-7.274368763E0,4.043859005E0
2.640001913E1,-5.330950737E0,-7.177599430E0,4.029070854E0
2.642041913E1,-5.369622707E0,-7.176267147E0,3.979790926E0
2.644055652E1,-5.399988174E0,-7.242084503E0,3.816113949E0
2.646082522E1,-5.366312981E0,-7.357278347E0,3.639166594E0
2.648109397E1,-5.261157990E0,-7.509984970E0,3.477173090E0
2.650136267E1,-5.146326542E0,-7.683415413E0,3.263562918E0
2.652163137E1,-5.033023357E0,-7.875419140E0,2.969315767E0
2.654190006E1,-4.950801373E0,-8.062169075E0,2.580962420E0
2.656216876E1,-4.902990341E0,-8.210540771E0,2.172119856E0
2.658243751E1,-4.828617573E0,-8.324928284E0,1.884250641E0
2.660270621E1,-4.704088211E0,-8.435755730E0,1.697046161E0
2.662297491E1,-4.583150387E0,-8.550388336E0,1.433872342E0
2.664324355E1,-4.480168343E0,-8.654252052E0,1.096538544E0
2.666351225E1,-4.423405647E0,-8.708576202E0,8.743982911E-1
2.668378100E1,-4.440858364E0,-8.690907478E0,9.577538967E-1
2.670404970E1,-4.512406826E0,-8.628368378E0,1.166126490E0
2.672431845E1,-4.655038834E0,-8.527970314E0,1.332188725E0
2.674458715E1,-4.680767536E0,-8.493361473E0,1.457260370E0
2.676485585E1,-4.514084339E0,-8.585715294E0,1.441848159E0
2.678512454E1,-4.321336746E0,-8.734701157E0,1.096094370E0
2.680539324E1,-4.433686256E0,-8.708958626E0,8.166107535E-1
2.682566194E1,-4.814553738E0,-8.492371559E0,9.327785969E-1
2.684593064E1,-5.065333366E0,-8.316702843E0,1.159843087E0
2.686619973E1,-5.063818932E0,-8.295120239E0,1.311149001E0
2.688646843E1,-4.918377399E0,-8.379348755E0,1.329080939E0
2.690673713E1,-4.680135250E0,-8.532447815E0,1.209976792E0
2.692700582E1,-4.440979958E0,-8.681123734E0,1.042196393E0
2.694727452E1,-4.318245888E0,-8.757811546E0,9.076715708E-1
2.696753926E1,-4.332733154E0,-8.758118629E0,8.325664401E-1
2.698777343E1,-4.402247906E0,-8.730524063E0,7.540354729E-1
2.700808124E1,-4.456015110E0,-8.710806847E0,6.604365110E-1
2.702834978E1,-4.445610523E0,-8.717863083E0,6.370131969E-1
2.704861838E1,-4.342408657E0,-8.763628960E0,7.160171270E-1
2.706888702E1,-4.181408405E0,-8.831347466E0,8.327824473E-1
2.708915572E1,-4.066977501E0,-8.876017570E0,9.199914336E-1
2.710942437E1,-4.029914856E0,-8.889636040E0,9.510704875E-1
2.712969301E1,-4.003925323E0,-8.898224831E0,9.800803661E-1
2.714996166E1,-3.963692427E0,-8.908659935E0,1.046570659E0
2.717023035E1,-3.953622818E0,-8.901644707E0,1.140163779E0
2.719049900E1,-3.996868134E0,-8.860462189E0,1.299091578E0
2.721076770E1,-4.050001144E0,-8.781699181E0,1.627773404E0
2.723103640E1,-4.094391346E0,-8.632732391E0,2.209586382E0
2.725130504E1,-4.126678467E0,-8.368517876E0,3.018081188E0
2.727157374E1,-4.138293266E0,-8.043804169E0,3.787099600E0
2.729184244E1,-4.290549278E0,-7.733301163E0,4.237645149E0
2.731211114E1,-4.647170067E0,-7.454385281E0,4.359627247E0
2.733237983E1,-4.789295197E0,-7.255170345E0,4.538231373E0
2.735264853E1,-4.747964382E0,-7.151161194E0,4.742163658E0
2.737291723E1,-4.802781105E0,-7.127348423E0,4.722774029E0
2.739318593E1,-4.935730457E0,-7.188475132E0,4.487179279E0
2.741345457E1,-5.061040401E0,-7.303300858E0,4.149463177E0
2.743372332E1,-5.127868176E0,-7.446209908E0,3.798595667E0
2.745399197E1,-5.154227257E0,-7.599312782E0,3.443077326E0
2.747426067E1,-5.129899025E0,-7.762269497E0,3.098660707E0
2.749452942E1,-5.064805508E0,-7.923112869E0,2.782522917E0
2.751479806E1,-5.015598297E0,-8.054756165E0,2.476908684E0
2.753506676E1,-4.975402832E0,-8.166336060E0,2.174098730E0
2.755533546E1,-4.955770016E0,-8.258586884E0,1.845663905E0
2.757560416E1,-4.973885536E0,-8.331380844E0,1.420889258E0
2.759587285E1,-4.961054325E0,-8.397686005E0,1.018431544E0
2.761627285E1,-4.896265984E0,-8.462241173E0,7.664422989E-1
2.763641025E1,-4.817409039E0,-8.493357658E0,9.087570906E-1
2.765667895E1,-4.766779423E0,-8.464583397E0,1.341274738E0
2.767694765E1,-4.739323616E0,-8.440127373E0,1.572721839E0
2.769721634E1,-4.633241177E0,-8.505008698E0,1.538926482E0
2.771761634E1,-4.633953094E0,-8.536183357E0,1.352940321E0
2.773775369E1,-4.934304714E0,-8.353601456E0,1.428410649E0
2.775802233E1,-5.211432457E0,-8.132201195E0,1.696664691E0
2.777829103E1,-5.292846203E0,-8.048244476E0,1.839001298E0
2.779855973E1,-5.208607674E0,-8.128315926E0,1.723738074E0
2.781895973E1,-5.048908710E0,-8.283761978E0,1.434641480E0
2.783909713E1,-4.800373077E0,-8.479506493E0,1.106697440E0
2.785936582E1,-4.602034569E0,-8.614866257E0,8.807626367E-1
2.787963452E1,-4.528921127E0,-8.664313316E0,7.674248815E-1
2.789990327E1,-4.536917210E0,-8.668268204E0,6.692568660E-1
2.792030322E1,-4.577548981E0,-8.654806137E0,5.574710965E-1
2.794044056E1,-4.582168579E0,-8.658557892E0,4.511002004E-1
2.796070926E1,-4.521894932E0,-8.690930367E0,4.365498722E-1
2.798097796E1,-4.411390305E0,-8.744967461E0,4.853523970E-1
2.800124666E1,-4.290708542E0,-8.803249359E0,5.128510594E-1
2.802164666E1,-4.195195675E0,-8.846310616E0,5.599255562E-1
2.804178400E1,-4.120383739E0,-8.876301765E0,6.356978416E-1
2.806205270E1,-4.070802212E0,-8.895333290E0,6.870114803E-1
2.808232140E1,-4.053106785E0,-8.899414062E0,7.369748354E-1
2.810259009E1,-4.029627323E0,-8.899554253E0,8.546435833E-1
2.812285879E1,-4.002346039E0,-8.892669678E0,1.035393476E0
2.814312744E1,-3.971707821E0,-8.878240585E0,1.254101276E0
2.816339614E1,-3.954460382E0,-8.835449219E0,1.570820332E0
2.818366478E1,-3.984651566E0,-8.717425346E0,2.073506594E0
2.820393353E1,-4.054664135E0,-8.503337860E0,2.724580765E0
2.822433353E1,-4.078649998E0,-8.262484550E0,3.356541395E0
2.824447088E1,-4.143180370E0,-8.041712761E0,3.786200285E0
2.826473957E1,-4.335922241E0,-7.817945957E0,4.031113148E0
2.828500827E1,-4.415469170E0,-7.637100697E0,4.283540249E0
2.830527697E1,-4.455911160E0,-7.554811954E0,4.386348724E0
2.832554567E1,-4.576322556E0,-7.573902130E0,4.226543903E0
2.834581431E1,-4.748037338E0,-7.643853664E0,3.898466110E0
2.836608301E1,-4.890943527E0,-7.720211506E0,3.556316853E0
2.838635171E1,-4.959417820E0,-7.789346218E0,3.301611900E0
2.840662041E1,-4.962801933E0,-7.857140064E0,3.131507397E0
2.842688905E1,-4.915420055E0,-7.947799206E0,2.973468542E0
2.844715775E1,-4.810948849E0,-8.086157799E0,2.763912201E0
2.846742645E1,-4.677597046E0,-8.262343407E0,2.454416513E0
2.848769509E1,-4.570374489E0,-8.428326607E0,2.060429335E0
2.850796379E1,-4.530795574E0,-8.539623260E0,1.648368835E0
2.852823249E1,-4.550208092E0,-8.590567589E0,1.291568398E0
2.854850119E1,-4.557940960E0,-8.631674767E0,9.432657957E-1
2.856876983E1,-4.535800934E0,-8.672383308E0,6.218289733E-1
2.858903853E1,-4.502245426E0,-8.691602707E0,5.968300104E-1
2.860930723E1,-4.416000366E0,-8.708923340E0,9.077419639E-1
2.862957588E1,-4.397178650E0,-8.687438011E0,1.167740941E0
2.864984462E1,-4.401731968E0,-8.661909103E0,1.329091311E0
2.867024463E1,-4.306600571E0,-8.692416191E0,1.437178612E0
2.869038197E1,-4.218497276E0,-8.764360428E0,1.249257088E0
2.871065067E1,-4.470679760E0,-8.658798218E0,1.099365234E0
2.873091931E1,-4.977463722E0,-8.324687958E0,1.447347999E0
2.875118801E1,-4.963923931E0,-8.226158142E0,1.964733481E0
2.877145671E1,-4.677747726E0,-8.338155746E0,2.182711363E0
2.879172535E1,-4.459926605E0,-8.504566193E0,1.987913013E0
2.881199405E1,-4.291269779E0,-8.691371918E0,1.488443971E0
2.883226275E1,-4.139723301E0,-8.835535049E0,9.830576181E-1
2.885253145E1,-4.087965965E0,-8.876379013E0,8.178083897E-1
2.887280015E1,-4.146058559E0,-8.844375610E0,8.704023361E-1
2.889306879E1,-4.243491173E0,-8.791941643E0,9.300140738E-1
2.891333749E1,-4.291922092E0,-8.772519112E0,8.903377652E-1
2.893360619E1,-4.245060444E0,-8.806621552E0,7.702306509E-1
2.895387483E1,-4.110249519E0,-8.878962517E0,6.635110974E-1
2.897414353E1,-3.893742085E0,-8.977521896E0,6.428661346E-1
2.899441223E1,-3.687259197E0,-9.062021255E0,6.739969850E-1
2.901481223E1,-3.586286783E0,-9.102103233E0,6.787164211E-1
2.903494957E1,-3.594521999E0,-9.102036476E0,6.346098781E-1
2.905521827E1,-3.649812698E0,-9.083473206E0,5.828931332E-1
2.907548697E1,-3.665730953E0,-9.071644783E0,6.618683338E-1
2.909575562E1,-3.679359913E0,-9.036259651E0,9.892994761E-1
2.911614306E1,-3.790443897E0,-8.923408508E0,1.475023150E0
2.913629296E1,-3.926744699E0,-8.767020226E0,1.972412229E0
2.915656166E1,-3.920517445E0,-8.654982567E0,2.427181005E0
2.917683035E1,-3.833129644E0,-8.614516258E0,2.695849419E0
2.919709905E1,-3.826928377E0,-8.576415062E0,2.823138237E0
2.921750702E1,-3.880863428E0,-8.486111641E0,3.015822172E0
2.923778499E1,-3.969171762E0,-8.313725471E0,3.361255169E0
2.925789822E1,-4.208353519E0,-8.110185623E0,3.561605215E0
2.927816827E1,-4.492533684E0,-7.992062092E0,3.480585098E0
2.929843687E1,-4.702512264E0,-7.986349106E0,3.205461025E0
2.931883806E1,-4.820203304E0,-8.062394142E0,2.816706419E0
2.933897629E1,-4.858616829E0,-8.175504684E0,2.392771244E0
2.935924572E1,-4.844800472E0,-8.288512230E0,1.999714851E0
2.937951489E1,-4.806059837E0,-8.378213882E0,1.696374536E0
2.939978353E1,-4.746035099E0,-8.445443153E0,1.523166299E0
2.942018405E1,-4.660807610E0,-8.504806519E0,1.454483986E0
2.944032171E1,-4.550672054E0,-8.572102547E0,1.407424569E0
2.946059067E1,-4.395903587E0,-8.642908096E0,1.465121984E0
2.948085962E1,-4.218683720E0,-8.688958168E0,1.695614696E0
2.950112848E1,-4.107709885E0,-8.702177048E0,1.889240980E0
2.952139733E1,-4.134063244E0,-8.687590599E0,1.898862362E0
2.954166614E1,-4.268136501E0,-8.632053375E0,1.855004430E0
2.956193489E1,-4.422338963E0,-8.537847519E0,1.928331852E0
2.958220364E1,-4.484715462E0,-8.447227478E0,2.168424606E0
2.960247239E1,-4.433335304E0,-8.431101799E0,2.330761433E0
2.962274108E1,-4.300475121E0,-8.525127411E0,2.235736847E0
2.964300978E1,-4.120615959E0,-8.682561874E0,1.950394273E0
2.966327853E1,-4.032623768E0,-8.789233208E0,1.630247593E0
2.968354723E1,-4.126016617E0,-8.768758774E0,1.501742125E0
2.970381593E1,-4.247590542E0,-8.694828033E0,1.590067148E0
2.972408463E1,-4.249174595E0,-8.674448013E0,1.693773866E0
2.974435332E1,-4.181503773E0,-8.709980965E0,1.679778576E0
2.976462202E1,-4.102745056E0,-8.784448624E0,1.473547935E0
2.978489072E1,-4.036619186E0,-8.872620583E0,1.073630571E0
2.980515936E1,-3.963559389E0,-8.953495979E0,5.436061025E-1
2.982542806E1,-3.874074459E0,-9.008716583E0,7.049374282E-2
2.984569671E1,-3.788124084E0,-9.043855667E0,-1.708522141E-1
2.986596541E1,-3.728410721E0,-9.066799164E0,-2.499810159E-1
2.988623410E1,-3.689981937E0,-9.080624580E0,-3.109240234E-1
2.990650275E1,-3.647567511E0,-9.092904091E0,-4.298071265E-1
2.992677145E1,-3.595798492E0,-9.102447510E0,-6.213469505E-1
2.994704009E1,-3.538154364E0,-9.109330177E0,-8.197338581E-1
2.996730879E1,-3.489733458E0,-9.117053986E0,-9.335229993E-1
2.998757744E1,-3.459773302E0,-9.127627373E0,-9.416788220E-1
3.000784614E1,-3.430561781E0,-9.140591621E0,-9.226190448E-1
3.002811478E1,-3.393527269E0,-9.151167870E0,-9.542001486E-1
3.004838348E1,-3.339264154E0,-9.161446571E0,-1.042880177E0
3.006865213E1,-3.284846783E0,-9.177494049E0,-1.074133515E0
3.008892082E1,-3.282728434E0,-9.192152977E0,-9.478442073E-1
3.010918947E1,-3.386051416E0,-9.176548004E0,-7.042790651E-1
3.012945817E1,-3.552308083E0,-9.132594109E0,-3.836872876E-1
3.014972681E1,-3.705294132E0,-9.079680443E0,2.404573001E-2
3.016999551E1,-3.785722733E0,-9.030922890E0,5.302070975E-1
3.019026416E1,-3.792789936E0,-8.978019714E0,1.086414814E0
3.021053285E1,-3.820712090E0,-8.892568588E0,1.579490185E0
3.023080150E1,-3.962928534E0,-8.751543045E0,1.968770623E0
3.025107020E1,-4.146883488E0,-8.576053619E0,2.329173803E0
3.027133884E1,-4.311586857E0,-8.386803627E0,2.691123247E0
3.029160754E1,-4.449159622E0,-8.197086334E0,3.030369997E0
3.031187619E1,-4.537353992E0,-8.028373718E0,3.335868597E0
3.033214489E1,-4.534099102E0,-7.896652699E0,3.640771866E0
3.035241353E1,-4.421383381E0,-7.835778713E0,3.901581049E0
3.037268223E1,-4.255121231E0,-7.866990089E0,4.021790981E0
3.039295088E1,-4.153820038E0,-7.952035427E0,3.959962368E0
3.041321957E1,-4.201871872E0,-8.018959045E0,3.769742250E0
3.043348822E1,-4.371591091E0,-8.032165527E0,3.541734695E0
3.045375692E1,-4.527154922E0,-8.009268761E0,3.395124197E0
3.047402556E1,-4.553074837E0,-7.997525692E0,3.388139009E0
3.049429426E1,-4.445804596E0,-8.021637917E0,3.472539186E0
3.051456291E1,-4.309845448E0,-8.056563377E0,3.561937332E0
3.053483160E1,-4.213515759E0,-8.091533661E0,3.597744465E0
3.055510025E1,-4.172774792E0,-8.148035049E0,3.516797543E0
3.057536895E1,-4.178967476E0,-8.229306221E0,3.314382792E0
3.059563759E1,-4.186057091E0,-8.319315910E0,3.071853161E0
3.061590624E1,-4.180010796E0,-8.389814377E0,2.882517576E0
3.063617494E1,-4.170522213E0,-8.411417961E0,2.832873344E0
3.065644358E1,-4.158579826E0,-8.390561104E0,2.911198854E0
3.067671228E1,-4.195924759E0,-8.354689598E0,2.960365295E0
3.069698093E1,-4.345881462E0,-8.324419022E0,2.826260805E0
3.071738093E1,-4.526714802E0,-8.322442055E0,2.533022642E0
3.073751827E1,-4.641813278E0,-8.350660324E0,2.211434603E0
3.075778692E1,-4.700132370E0,-8.357909203E0,2.055358410E0
3.077805562E1,-4.680285454E0,-8.309085846E0,2.285695314E0
3.079832426E1,-4.607476711E0,-8.195174217E0,2.789383411E0
3.081872426E1,-4.490906239E0,-8.157464981E0,3.075369358E0
3.083886160E1,-4.286492825E0,-8.304330826E0,2.972281694E0
3.085913025E1,-4.043306351E0,-8.554308891E0,2.577957392E0
3.087939895E1,-3.782018900E0,-8.812656403E0,2.050318956E0
3.089966759E1,-3.524138212E0,-9.012189865E0,1.590997577E0
3.092006759E1,-3.291842461E0,-9.135556221E0,1.369586468E0
3.094020494E1,-3.244471788E0,-9.157563210E0,1.335224032E0
3.096047358E1,-3.339775324E0,-9.105109215E0,1.453710318E0
3.098074223E1,-3.450840712E0,-9.037571907E0,1.607600808E0
3.100101093E1,-3.545219183E0,-9.011075020E0,1.549944282E0
3.102141093E1,-3.535936832E0,-9.063318253E0,1.234418869E0
3.104154822E1,-3.463984251E0,-9.135585785E0,8.439596891E-1
3.106181692E1,-3.397057533E0,-9.182425499E0,5.598670244E-1
3.108208556E1,-3.377353191E0,-9.195666313E0,4.512227774E-1
3.110235421E1,-3.398435354E0,-9.188855171E0,4.312500358E-1
3.112262291E1,-3.454664946E0,-9.168677330E0,4.135547578E-1
3.114289155E1,-3.531491995E0,-9.137840271E0,4.458919168E-1
3.116316020E1,-3.572735071E0,-9.112410545E0,6.082205176E-1
3.118342884E1,-3.564802647E0,-9.096118927E0,8.503977656E-1
3.120369754E1,-3.540372610E0,-9.085436821E0,1.044494033E0
3.122396619E1,-3.538352489E0,-9.072863579E0,1.154815674E0
3.124423483E1,-3.557927608E0,-9.051904678E0,1.254813313E0
3.126450348E1,-3.549368382E0,-9.035347939E0,1.390991092E0
3.128477218E1,-3.501352310E0,-9.033994675E0,1.515867233E0
3.130504082E1,-3.423336983E0,-9.057623863E0,1.552609205E0
3.132530947E1,-3.321041584E0,-9.103424072E0,1.506233454E0
3.134557817E1,-3.244517803E0,-9.140001297E0,1.450472832E0
3.136584681E1,-3.282339811E0,-9.122262955E0,1.476801276E0
3.138611546E1,-3.425107241E0,-9.035779953E0,1.671440005E0
3.140638410E1,-3.594470501E0,-8.859900475E0,2.179985285E0
3.142665280E1,-3.732361794E0,-8.566740036E0,2.975035191E0
3.144692145E1,-3.799054384E0,-8.264078140E0,3.666414499E0
3.146719009E1,-3.860003233E0,-8.051970482E0,4.054198742E0
3.148759009E1,-3.943515778E0,-7.900802612E0,4.265720367E0
3.150772733E1,-3.782577991E0,-7.790762424E0,4.600708485E0
3.152799608E1,-3.532255650E0,-7.724023342E0,4.902348042E0
3.154826473E1,-3.558145761E0,-7.716181755E0,4.895969391E0
3.156853338E1,-3.819505215E0,-7.752078533E0,4.635413170E0
3.158880202E1,-4.148811340E0,-7.812902451E0,4.232767582E0
3.160907067E1,-4.486990929E0,-7.867515564E0,3.760254145E0
3.162933931E1,-4.787457466E0,-7.916328430E0,3.253058195E0
3.164960801E1,-4.981687069E0,-7.976907253E0,2.778872728E0
3.166987666E1,-4.998080254E0,-8.078781128E0,2.433698177E0
3.169014530E1,-4.834552765E0,-8.232820511E0,2.240124464E0
3.171041395E1,-4.555194855E0,-8.402973175E0,2.193313360E0
3.173068259E1,-4.300162315E0,-8.547166824E0,2.150564671E0
3.175095124E1,-4.226255894E0,-8.646864891E0,1.881717920E0
3.177121994E1,-4.267306805E0,-8.717768669E0,1.400356770E0
3.179148858E1,-4.261531830E0,-8.771422386E0,1.035313964E0
3.181175723E1,-4.135303497E0,-8.837833405E0,9.809938073E-1
3.183202588E1,-3.976960897E0,-8.885613441E0,1.183229327E0
3.185229452E1,-3.906737089E0,-8.873267174E0,1.474082947E0
3.187256317E1,-3.894471407E0,-8.849771500E0,1.638601542E0
3.189283181E1,-3.998421907E0,-8.838261604E0,1.438099504E0
3.191310051E1,-4.557201385E0,-8.568455696E0,1.408501029E0
3.193336916E1,-4.937857151E0,-8.294669151E0,1.728122592E0
3.195363780E1,-4.702135563E0,-8.336731911E0,2.135229826E0
3.197390645E1,-4.320080280E0,-8.511910439E0,2.248263121E0
3.199417509E1,-4.083570480E0,-8.710183144E0,1.904610276E0
3.201444374E1,-3.989201784E0,-8.867799759E0,1.272312284E0
3.203471239E1,-3.971519947E0,-8.915437698E0,9.551865458E-1
3.205498103E1,-4.066902637E0,-8.862220764E0,1.044861674E0
3.207524968E1,-4.170378685E0,-8.797141075E0,1.178405881E0
3.209551832E1,-4.183113098E0,-8.793703079E0,1.158766270E0
3.211578702E1,-4.086905479E0,-8.856531143E0,1.014611959E0
3.213605567E1,-3.957436323E0,-8.923648834E0,9.367918372E-1
3.215632426E1,-3.843544960E0,-8.962254524E0,1.037084222E0
3.217659296E1,-3.751668215E0,-8.981193542E0,1.197295070E0
3.219686160E1,-3.701624393E0,-8.988481522E0,1.294436574E0
3.221726160E1,-3.706133604E0,-8.984399796E0,1.309780598E0
3.223739890E1,-3.731376410E0,-8.974392891E0,1.306711078E0
3.225766754E1,-3.703456640E0,-8.971897125E0,1.399948716E0
3.227793619E1,-3.636388302E0,-8.939428329E0,1.741749048E0
3.229820483E1,-3.575176239E0,-8.805306435E0,2.419728518E0
3.231860483E1,-3.498610497E0,-8.527973175E0,3.347207069E0
3.233874212E1,-3.658392429E0,-8.168172836E0,4.008429050E0
3.235901077E1,-4.072821617E0,-7.822856903E0,4.287822723E0
3.237927942E1,-4.441588402E0,-7.501614571E0,4.490931034E0
3.239954806E1,-4.428597927E0,-7.260283947E0,4.883255005E0
3.241994806E1,-4.230257034E0,-7.129716396E0,5.238554955E0
3.244008535E1,-4.225513935E0,-7.086617470E0,5.300498009E0
3.246035400E1,-4.388114929E0,-7.111621380E0,5.132218838E0
3.248062265E1,-4.504310131E0,-7.179276466E0,4.933514595E0
3.250089129E1,-4.554553032E0,-7.273545742E0,4.745731354E0
3.252115994E1,-4.620364666E0,-7.380124092E0,4.511806488E0
3.254142858E1,-4.767928123E0,-7.512810230E0,4.122490406E0
3.256169723E1,-4.912442207E0,-7.704792976E0,3.560120821E0
3.258196588E1,-4.968027592E0,-7.925945759E0,2.944226742E0
3.260223457E1,-4.979824066E0,-8.106091499E0,2.379709721E0
3.262250317E1,-4.987028599E0,-8.229222298E0,1.892043233E0
3.264277186E1,-5.007657051E0,-8.305879593E0,1.451247573E0
3.266304046E1,-5.035996437E0,-8.357779503E0,9.780794978E-1
3.268330916E1,-5.019007206E0,-8.397480011E0,6.799132228E-1
3.270357775E1,-4.997727871E0,-8.410444260E0,6.764134765E-1
3.272397775E1,-4.969696522E0,-8.406852722E0,8.929371834E-1
3.274411509E1,-4.912445545E0,-8.430654526E0,9.809807539E-1
3.276438369E1,-4.848982811E0,-8.471945763E0,9.401546717E-1
3.278465233E1,-4.753297806E0,-8.516272545E0,1.024528265E0
3.280492098E1,-4.649673462E0,-8.547945976E0,1.218007445E0
3.282518962E1,-4.561346531E0,-8.580181122E0,1.320985079E0
3.284545827E1,-4.800077915E0,-8.442200661E0,1.363410711E0
3.286572692E1,-5.209684372E0,-8.190563202E0,1.394366622E0
3.288599556E1,-5.239393711E0,-8.146554947E0,1.533877015E0
3.290626421E1,-5.013738632E0,-8.272231102E0,1.613379240E0
3.292653285E1,-4.727022648E0,-8.458991051E0,1.507022858E0
3.294680150E1,-4.478652954E0,-8.632303238E0,1.263093352E0
3.296707015E1,-4.361203194E0,-8.716887474E0,1.079894900E0
3.298733879E1,-4.381667137E0,-8.712982178E0,1.027292848E0
3.300760739E1,-4.457595825E0,-8.677944183E0,9.967483878E-1
3.302787603E1,-4.502065182E0,-8.662158966E0,9.320929050E-1
3.304814468E1,-4.475594521E0,-8.681317329E0,8.798756599E-1
3.306841332E1,-4.366174221E0,-8.735529900E0,8.929827809E-1
3.308868197E1,-4.209378242E0,-8.805709839E0,9.544711113E-1
3.310895062E1,-4.100821495E0,-8.850820541E0,1.008281946E0
3.312921926E1,-4.098345280E0,-8.850447655E0,1.021526575E0
3.314948791E1,-4.163177967E0,-8.821193695E0,1.012366414E0
3.316975650E1,-4.206941605E0,-8.798781395E0,1.026382923E0
3.319002515E1,-4.173068047E0,-8.799349785E0,1.152092814E0
3.321029379E1,-4.109576702E0,-8.780497551E0,1.478048921E0
3.323056244E1,-4.096697807E0,-8.665615082E0,2.072331429E0
3.325083108E1,-4.130180836E0,-8.411613464E0,2.890807867E0
3.327109968E1,-4.161572933E0,-8.084127426E0,3.674041986E0
3.329136827E1,-4.266359806E0,-7.787012100E0,4.163052082E0
3.331163697E1,-4.586127281E0,-7.537598610E0,4.280469418E0
3.333190562E1,-4.863479137E0,-7.357017040E0,4.288503647E0
3.335217426E1,-4.953116894E0,-7.264008999E0,4.344099045E0
3.337244285E1,-5.023007393E0,-7.242061615E0,4.300269604E0
3.339271150E1,-5.144026279E0,-7.284255028E0,4.080320358E0
3.341298015E1,-5.253444672E0,-7.365744114E0,3.783851624E0
3.343324879E1,-5.294855118E0,-7.474769592E0,3.501815319E0
3.345351744E1,-5.281025410E0,-7.605556011E0,3.230583429E0
3.347378603E1,-5.247058868E0,-7.769258499E0,2.877042532E0
3.349405468E1,-5.193965912E0,-7.956132412E0,2.427565098E0
3.351445468E1,-5.134202957E0,-8.085021019E0,2.107791185E0
3.353459197E1,-5.087823868E0,-8.136791229E0,2.019172430E0
3.355486056E1,-5.070538521E0,-8.175993919E0,1.900825500E0
3.357512921E1,-5.079528332E0,-8.253815651E0,1.497770548E0
3.359539785E1,-5.029068470E0,-8.354413033E0,1.040496707E0
3.361566650E1,-4.893537998E0,-8.453700066E0,8.709892035E-1
3.363593509E1,-4.734033108E0,-8.526353836E0,1.029855728E0
3.365620374E1,-4.622883797E0,-8.563177109E0,1.212981582E0
3.367647239E1,-4.627103806E0,-8.565078735E0,1.183098674E0
3.369674103E1,-4.604106903E0,-8.584270477E0,1.132647634E0
3.371714103E1,-4.523328304E0,-8.643948555E0,9.960188270E-1
3.373727827E1,-4.648129463E0,-8.593032837E0,8.515019417E-1
3.375754692E1,-4.960714817E0,-8.406933784E0,9.408311844E-1
3.377781556E1,-5.109027863E0,-8.287927628E0,1.174087644E0
3.379808416E1,-5.061222076E0,-8.286786079E0,1.372439742E0
3.381848416E1,-4.950914860E0,-8.345866203E0,1.416103840E0
3.383862145E1,-4.800703526E0,-8.457657814E0,1.261610270E0
3.385889004E1,-4.643201351E0,-8.583896637E0,9.632107615E-1
3.387915869E1,-4.533883572E0,-8.670514107E0,6.606606841E-1
3.389942733E1,-4.510471821E0,-8.694327354E0,4.844581783E-1
3.391982733E1,-4.546745777E0,-8.678810120E0,4.192105234E-1
3.393996457E1,-4.602133274E0,-8.651020050E0,3.880909085E-1
3.396023322E1,-4.614944935E0,-8.643226624E0,4.090182483E-1
3.398050186E1,-4.550015450E0,-8.672702789E0,5.019789338E-1
3.400077046E1,-4.429883003E0,-8.725704193E0,6.392293572E-1
3.402117046E1,-4.317164421E0,-8.770356178E0,7.831511497E-1
3.404130775E1,-4.230832100E0,-8.805715561E0,8.542934656E-1
3.406157634E1,-4.189341068E0,-8.822218895E0,8.878480196E-1
3.408184499E1,-4.196373940E0,-8.809435844E0,9.770727158E-1
3.410211364E1,-4.265627384E0,-8.753176689E0,1.164774656E0
3.412238228E1,-4.413001537E0,-8.622307777E0,1.533494353E0
3.414265088E1,-4.605308533E0,-8.377113342E0,2.187579393E0
3.416291952E1,-4.702373028E0,-8.055799484E0,3.026905775E0
3.418318812E1,-4.626501083E0,-7.766801834E0,3.800353527E0
3.420345676E1,-4.609854698E0,-7.544936180E0,4.241881371E0
3.422372541E1,-4.807830811E0,-7.365538597E0,4.336357594E0
3.424399405E1,-5.035106182E0,-7.208286285E0,4.342661381E0
3.426426265E1,-5.091987133E0,-7.113901615E0,4.431077957E0
3.428453129E1,-5.179613590E0,-7.074172497E0,4.392956734E0
3.430479994E1,-5.310799122E0,-7.097815990E0,4.193662167E0
3.432506853E1,-5.360595226E0,-7.187613964E0,3.971476793E0
3.434533718E1,-5.305485249E0,-7.335776329E0,3.769430161E0
3.436560582E1,-5.229126930E0,-7.516732693E0,3.510747433E0
3.438587442E1,-5.125486851E0,-7.729445934E0,3.186759233E0
3.440614306E1,-5.003819466E0,-7.951660633E0,2.811276913E0
3.442641171E1,-4.889629364E0,-8.155719757E0,2.397113085E0
3.444668030E1,-4.756156921E0,-8.338474274E0,2.004795313E0
3.446694895E1,-4.608242035E0,-8.497278214E0,1.652502060E0
3.448721759E1,-4.469510555E0,-8.621454239E0,1.365424871E0
3.450748624E1,-4.396132469E0,-8.693103790E0,1.128872991E0
3.452775483E1,-4.396872997E0,-8.715823174E0,9.339835048E-1
3.454802348E1,-4.413360596E0,-8.716924667E0,8.413485885E-1
3.456829212E1,-4.449785709E0,-8.684992790E0,9.698957801E-1
3.458856072E1,-4.553150654E0,-8.601315498E0,1.206887245E0
3.460882937E1,-4.692133427E0,-8.514793396E0,1.285526037E0
3.462909801E1,-4.693847179E0,-8.506165504E0,1.335414290E0
3.464936660E1,-4.527473450E0,-8.590015411E0,1.372586846E0
3.466963525E1,-4.443327427E0,-8.644954681E0,1.300767303E0
3.468990390E1,-4.691818237E0,-8.498095512E0,1.392695069E0
3.471017249E1,-4.915935993E0,-8.317719460E0,1.679133534E0
3.473044114E1,-4.882493973E0,-8.284578323E0,1.922867537E0
3.475070978E1,-4.762811184E0,-8.359857559E0,1.897051334E0
3.477097843E1,-4.631025791E0,-8.498850822E0,1.579092979E0
3.479124702E1,-4.524199009E0,-8.632656097E0,1.085929751E0
3.481151567E1,-4.516045094E0,-8.677605629E0,6.891100407E-1
3.483178431E1,-4.558524609E0,-8.663690567E0,5.750795007E-1
3.485205291E1,-4.593633175E0,-8.644873619E0,5.788610578E-1
3.487232155E1,-4.599413872E0,-8.642045975E0,5.751605034E-1
3.489259020E1,-4.554417610E0,-8.667264938E0,5.533490181E-1
3.491285884E1,-4.458548546E0,-8.715106010E0,5.819372535E-1
3.493312749E1,-4.321727276E0,-8.776504517E0,6.826750040E-1
3.495339608E1,-4.185844898E0,-8.831429482E0,8.092772365E-1
3.497379608E1,-4.120561600E0,-8.853552818E0,8.977528811E-1
3.499393338E1,-4.137681961E0,-8.844939232E0,9.038889408E-1
3.501420202E1,-4.183038235E0,-8.826586723E0,8.740457892E-1
3.503447067E1,-4.189508915E0,-8.818024635E0,9.278247356E-1
3.505473926E1,-4.170054913E0,-8.806467056E0,1.107775211E0
3.507500791E1,-4.175590992E0,-8.760514259E0,1.410040975E0
3.509527655E1,-4.184247971E0,-8.657047272E0,1.928211212E0
3.511554520E1,-4.152810097E0,-8.437291145E0,2.781487703E0
3.513581379E1,-4.070485115E0,-8.070644379E0,3.803450584E0
3.515608244E1,-4.088952065E0,-7.625780106E0,4.615012169E0
3.517635108E1,-4.437403679E0,-7.186172009E0,4.983850956E0
3.519661968E1,-5.063295841E0,-6.801493168E0,4.926774979E0
3.521701968E1,-5.387797356E0,-6.570721626E0,4.895676613E0
3.523715697E1,-5.343446255E0,-6.544899940E0,4.978178501E0
3.525742556E1,-5.227907658E0,-6.670398712E0,4.934080124E0
3.527769421E1,-5.114976406E0,-6.899365425E0,4.733514786E0
3.529796285E1,-5.049903393E0,-7.136666775E0,4.442618847E0
3.531836285E1,-5.032145500E0,-7.341369152E0,4.117305279E0
3.533850015E1,-5.018727303E0,-7.526348114E0,3.786402702E0
3.535876874E1,-5.016341209E0,-7.729250431E0,3.356396437E0
3.537903739E1,-5.018684387E0,-7.941243172E0,2.814223289E0
3.539930603E1,-5.008780479E0,-8.103738785E0,2.326354027E0
3.541970603E1,-4.943378925E0,-8.234103203E0,1.983163595E0
3.543984332E1,-4.818091869E0,-8.373332024E0,1.686321735E0
3.546011192E1,-4.651844978E0,-8.526867867E0,1.350276232E0
3.548038056E1,-4.489094257E0,-8.649354935E0,1.098669410E0
3.550064916E1,-4.422338009E0,-8.688092232E0,1.063186884E0
3.552091780E1,-4.431484699E0,-8.668845177E0,1.176197290E0
3.554118645E1,-4.469614506E0,-8.628396988E0,1.320486069E0
3.556145509E1,-4.448599815E0,-8.625701904E0,1.406277776E0
3.558172374E1,-4.369844437E0,-8.659732819E0,1.443568707E0
3.560199233E1,-4.344436646E0,-8.663738251E0,1.495290875E0
3.562226098E1,-4.606688976E0,-8.508248329E0,1.599540353E0
3.564252962E1,-4.754196167E0,-8.388881683E0,1.787365079E0
3.566279827E1,-4.667523384E0,-8.392012596E0,1.989660263E0
3.568306686E1,-4.594943047E0,-8.448688507E0,1.917430043E0
3.570333546E1,-4.552423954E0,-8.545130730E0,1.557743788E0
3.572360416E1,-4.489503860E0,-8.652675629E0,1.070490003E0
3.574387280E1,-4.432268620E0,-8.718547821E0,7.157472968E-1
3.576414140E1,-4.392236233E0,-8.750429153E0,5.555426478E-1
3.578441004E1,-4.358608723E0,-8.769823074E0,5.129411817E-1
3.580467869E1,-4.320399284E0,-8.787777901E0,5.286613107E-1
3.582494728E1,-4.288645267E0,-8.802371979E0,5.442078710E-1
3.584521593E1,-4.200209618E0,-8.843530655E0,5.662103295E-1
3.586548457E1,-4.049902916E0,-8.911464691E0,5.953642130E-1
3.588575322E1,-3.908632517E0,-8.972913742E0,6.162674427E-1
3.590602181E1,-3.834253550E0,-9.002900124E0,6.455203891E-1
3.592629046E1,-3.822038651E0,-9.004652023E0,6.918399930E-1
3.594655910E1,-3.782743692E0,-9.017633438E0,7.372559905E-1
3.596682770E1,-3.681296825E0,-9.054970741E0,7.911648154E-1
3.598709634E1,-3.592694998E0,-9.081856728E0,8.847641945E-1
3.600736499E1,-3.603686333E0,-9.057739258E0,1.068265200E0
3.602763364E1,-3.715439558E0,-8.962950706E0,1.425273657E0
3.604790223E1,-3.906861782E0,-8.774498940E0,1.978634000E0
3.606817088E1,-4.131519794E0,-8.496707916E0,2.628094673E0
3.608843952E1,-4.325116158E0,-8.202010155E0,3.192300797E0
3.610870812E1,-4.541924000E0,-7.938162804E0,3.539335966E0
3.612897676E1,-4.786932945E0,-7.733196259E0,3.667877913E0
3.614924541E1,-4.835822105E0,-7.612509251E0,3.851613045E0
3.616951405E1,-4.755736828E0,-7.547198772E0,4.073469162E0
3.618978265E1,-4.781322956E0,-7.531753063E0,4.072104454E0
3.621005129E1,-4.862492561E0,-7.569957256E0,3.901576281E0
3.623031994E1,-4.955544949E0,-7.638339520E0,3.642625809E0
3.625058853E1,-4.993741512E0,-7.733421326E0,3.380403996E0
3.627085718E1,-4.989647865E0,-7.851465225E0,3.102950811E0
3.629112582E1,-4.948666096E0,-7.988406181E0,2.804724216E0
3.631139442E1,-4.905592442E0,-8.127250671E0,2.460355759E0
3.633166301E1,-4.894813538E0,-8.244197845E0,2.060193062E0
3.635193171E1,-4.896111012E0,-8.334697723E0,1.652663708E0
3.637220030E1,-4.846946716E0,-8.410203934E0,1.394982457E0
3.639246895E1,-4.682697296E0,-8.498337746E0,1.421609759E0
3.641273759E1,-4.444588184E0,-8.597173691E0,1.582599998E0
3.643300624E1,-4.255368710E0,-8.664503098E0,1.728760242E0
3.645327483E1,-4.151615143E0,-8.664064407E0,1.966841221E0
3.647354348E1,-4.124860764E0,-8.601655960E0,2.273195028E0
3.649381207E1,-4.165671825E0,-8.542812347E0,2.416179180E0
3.651408072E1,-4.144410133E0,-8.549816132E0,2.427937746E0
3.653434937E1,-3.993373632E0,-8.649795532E0,2.324732780E0
3.655461796E1,-3.841229200E0,-8.774838448E0,2.101799488E0
3.657488660E1,-3.854160786E0,-8.811015129E0,1.918812156E0
3.659515525E1,-3.991184473E0,-8.737147331E0,1.975627422E0
3.661542384E1,-4.119954586E0,-8.631077766E0,2.168148041E0
3.663569249E1,-4.175859451E0,-8.580977440E0,2.258187532E0
3.665596108E1,-4.148650646E0,-8.636743546E0,2.089435577E0
3.667622973E1,-4.054592133E0,-8.774261475E0,1.656200171E0
3.669649838E1,-3.946283102E0,-8.914795876E0,1.060025930E0
3.671689838E1,-3.850102663E0,-9.004942894E0,5.080252886E-1
3.673703562E1,-3.763560295E0,-9.052345276E0,2.470798343E-1
3.675730421E1,-3.662196636E0,-9.095302582E0,1.848949045E-1
3.677757285E1,-3.577755213E0,-9.129549980E0,1.461653858E-1
3.679784145E1,-3.527419806E0,-9.150123596E0,5.414513871E-2
3.681824145E1,-3.497286081E0,-9.161344528E0,-9.562536329E-2
3.683837874E1,-3.480648518E0,-9.164130211E0,-2.723960876E-1
3.685864733E1,-3.479698658E0,-9.158275604E0,-4.336648285E-1
3.687891598E1,-3.500060797E0,-9.143459320E0,-5.631275177E-1
3.689918457E1,-3.517364264E0,-9.128133774E0,-6.897118092E-1
3.691958457E1,-3.480712652E0,-9.127972603E0,-8.574030399E-1
3.693972186E1,-3.403522253E0,-9.136376381E0,-1.055008769E0
3.695999046E1,-3.310831070E0,-9.148867607E0,-1.227601528E0
3.698025910E1,-3.193634510E0,-9.179433823E0,-1.307313085E0
3.700052770E1,-3.080274105E0,-9.220177650E0,-1.292529464E0
3.702092770E1,-3.002829075E0,-9.246163368E0,-1.289133430E0
3.704106499E1,-2.996407747E0,-9.243805885E0,-1.320599794E0
3.706133358E1,-3.093784809E0,-9.214695930E0,-1.299328685E0
3.708160223E1,-3.262396574E0,-9.178088188E0,-1.135711193E0
3.710187082E1,-3.409645319E0,-9.157754898E0,-8.247690201E-1
3.712213947E1,-3.512182951E0,-9.146768570E0,-4.142312407E-1
3.714240806E1,-3.547711134E0,-9.142225266E0,6.213957444E-2
3.716267671E1,-3.557685614E0,-9.121093750E0,5.647266507E-1
3.718294530E1,-3.608291864E0,-9.061882019E0,1.016331196E0
3.720321395E1,-3.751703501E0,-8.956686974E0,1.368529081E0
3.722361395E1,-3.973845482E0,-8.805604935E0,1.685303211E0
3.724375119E1,-4.200511932E0,-8.632556915E0,2.001260996E0
3.726401983E1,-4.398639202E0,-8.450797081E0,2.325164318E0
3.728428843E1,-4.519746780E0,-8.295613289E0,2.631554842E0
3.730455707E1,-4.562800884E0,-8.195973396E0,2.859589815E0
3.732482567E1,-4.575564384E0,-8.157253265E0,2.948528051E0
3.734509431E1,-4.595385551E0,-8.166675568E0,2.891060352E0
3.736536291E1,-4.649831772E0,-8.195428848E0,2.717426538E0
3.738563155E1,-4.739950657E0,-8.210721016E0,2.507448435E0
3.740590015E1,-4.833528996E0,-8.194621086E0,2.378147602E0
3.742616879E1,-4.883723736E0,-8.165213585E0,2.376746655E0
3.744643739E1,-4.860625744E0,-8.151794434E0,2.468390465E0
3.746670603E1,-4.776916027E0,-8.151326180E0,2.628182411E0
3.748697462E1,-4.687747478E0,-8.149489403E0,2.789483547E0
3.750724327E1,-4.638408184E0,-8.148157120E0,2.874559402E0
3.752751186E1,-4.631624222E0,-8.159908295E0,2.852076769E0
3.754778051E1,-4.647909164E0,-8.194332123E0,2.724014759E0
3.756804910E1,-4.655945301E0,-8.244327545E0,2.554140806E0
3.758831770E1,-4.633517265E0,-8.290566444E0,2.442828178E0
3.760858634E1,-4.594834328E0,-8.307356834E0,2.458802700E0
3.762885494E1,-4.603123665E0,-8.267325401E0,2.575456619E0
3.764912358E1,-4.741009235E0,-8.172868729E0,2.626296043E0
3.766939218E1,-4.991008282E0,-8.060364723E0,2.508139849E0
3.768966082E1,-5.164055347E0,-8.004483223E0,2.330487967E0
3.770992942E1,-5.201632023E0,-8.020422935E0,2.187745810E0
3.773019806E1,-5.172687054E0,-8.062923431E0,2.098325491E0
3.775046666E1,-5.090417385E0,-8.135689735E0,2.017075300E0
3.777073530E1,-4.927792072E0,-8.264608383E0,1.893012047E0
3.779100390E1,-4.753068447E0,-8.357117653E0,1.933213115E0
3.781127254E1,-4.645136833E0,-8.376139641E0,2.105558157E0
3.783154108E1,-4.526644707E0,-8.417198181E0,2.197873354E0
3.785180978E1,-4.358004570E0,-8.517945290E0,2.150068045E0
3.787207838E1,-4.149893284E0,-8.655922890E0,2.005932570E0
3.789234697E1,-3.891124964E0,-8.810732841E0,1.844051123E0
3.791261562E1,-3.595062494E0,-8.961437225E0,1.714225769E0
3.793288421E1,-3.338678837E0,-9.077769279E0,1.617934346E0
3.795315285E1,-3.214991093E0,-9.147187233E0,1.470772982E0
3.797342145E1,-3.258035660E0,-9.165602684E0,1.243913531E0
3.799369004E1,-3.394298553E0,-9.145202637E0,1.007174969E0
3.801409004E1,-3.526377678E0,-9.106141090E0,9.017972350E-1
3.803422728E1,-3.623710155E0,-9.069815636E0,8.817855120E-1
3.805449593E1,-3.644641876E0,-9.065367699E0,8.402839303E-1
3.807476452E1,-3.622243643E0,-9.082239151E0,7.501134276E-1
3.809503312E1,-3.598292828E0,-9.099793434E0,6.453198195E-1
3.811530176E1,-3.580622435E0,-9.113766670E0,5.373893380E-1
3.813557035E1,-3.567618132E0,-9.125501633E0,4.095285535E-1
3.815583900E1,-3.567086697E0,-9.131450653E0,2.507901192E-1
3.817610759E1,-3.611891031E0,-9.115921021E0,1.568858624E-1
3.819637619E1,-3.679006338E0,-9.087470055E0,2.306443453E-1
3.821677619E1,-3.713782072E0,-9.068604469E0,3.723070323E-1
3.823691343E1,-3.725968122E0,-9.058336258E0,4.838274717E-1
3.825718202E1,-3.731887579E0,-9.049729347E0,5.880507231E-1
3.827745067E1,-3.738778353E0,-9.034776688E0,7.514865398E-1
3.829771921E1,-3.747114658E0,-9.006019592E0,1.010505915E0
3.831811921E1,-3.732336521E0,-8.978074074E0,1.278378129E0
3.833825650E1,-3.668616056E0,-8.977519989E0,1.454568982E0
3.835852509E1,-3.575452805E0,-9.004632950E0,1.517600417E0
3.837879369E1,-3.461386681E0,-9.048959732E0,1.518395662E0
3.839906233E1,-3.367161751E0,-9.083280563E0,1.525327802E0
3.841946233E1,-3.361510515E0,-9.077167511E0,1.573422074E0
3.843959952E1,-3.436003208E0,-9.041555405E0,1.616951346E0
3.845986812E1,-3.544548512E0,-8.999567986E0,1.616893291E0
3.848013671E1,-3.618640423E0,-8.965218544E0,1.643373609E0
3.850040535E1,-3.610138655E0,-8.937104225E0,1.807052493E0
3.852067395E1,-3.538071871E0,-8.877412796E0,2.200903893E0
3.854094259E1,-3.518464327E0,-8.717749596E0,2.791351080E0
3.856121119E1,-3.649308681E0,-8.486445427E0,3.291378021E0
3.858147978E1,-3.902388334E0,-8.241876602E0,3.607387066E0
3.860174843E1,-4.185629368E0,-8.039174080E0,3.744671822E0
3.862201702E1,-4.258565903E0,-7.899911880E0,3.953023434E0
3.864228562E1,-4.191750050E0,-7.805210114E0,4.204558849E0
3.866255421E1,-4.244159698E0,-7.757266521E0,4.240554333E0
3.868282285E1,-4.449620724E0,-7.729204178E0,4.078070164E0
3.870309145E1,-4.701812267E0,-7.679739475E0,3.883933306E0
3.872336004E1,-4.894770622E0,-7.618888855E0,3.763527393E0
3.874362869E1,-5.026077747E0,-7.568987370E0,3.690441847E0
3.876389728E1,-5.074371815E0,-7.567064762E0,3.627762318E0
3.878416588E1,-5.024192333E0,-7.628343105E0,3.568790197E0
3.880443447E1,-4.898028374E0,-7.739877224E0,3.503427267E0
3.882470312E1,-4.726124763E0,-7.879684925E0,3.427052736E0
3.884497171E1,-4.557693481E0,-8.031337738E0,3.300826073E0
3.886524030E1,-4.421148300E0,-8.182353973E0,3.110130072E0
3.888550895E1,-4.304491997E0,-8.326967239E0,2.881552935E0
3.890577754E1,-4.248887062E0,-8.441861153E0,2.617694139E0
3.892604614E1,-4.302132607E0,-8.490559578E0,2.360600710E0
3.894631473E1,-4.421470165E0,-8.496719360E0,2.103980064E0
3.896658338E1,-4.546762943E0,-8.502319336E0,1.791060567E0
3.898685197E1,-4.664742470E0,-8.498819351E0,1.476697326E0
3.900712056E1,-4.748998642E0,-8.482750893E0,1.288538933E0
3.902738921E1,-4.770519733E0,-8.477097511E0,1.245531678E0
3.904765780E1,-4.755434513E0,-8.474440575E0,1.319115758E0
3.906792640E1,-4.733527184E0,-8.460157394E0,1.479807496E0
3.908819499E1,-4.668683052E0,-8.478465080E0,1.577788591E0
3.910846364E1,-4.586455345E0,-8.539551735E0,1.486901045E0
3.912873223E1,-4.539353848E0,-8.598763466E0,1.275115490E0
3.914900082E1,-4.546199799E0,-8.624802589E0,1.056048751E0
3.916926947E1,-4.656321049E0,-8.565633774E0,1.057824731E0
3.918953806E1,-4.859870911E0,-8.423481941E0,1.263722181E0
3.920980666E1,-4.990414143E0,-8.325489044E0,1.397278070E0
3.923007525E1,-4.951349735E0,-8.325033188E0,1.532426715E0
3.925034390E1,-4.769582748E0,-8.399094582E0,1.696078062E0
3.927061249E1,-4.551876068E0,-8.497555733E0,1.800656199E0
3.929088108E1,-4.426884174E0,-8.573901176E0,1.749662519E0
3.931114968E1,-4.449692249E0,-8.617223740E0,1.453983903E0
3.933141832E1,-4.534407616E0,-8.637852669E0,9.985219836E-1
3.935168692E1,-4.599091053E0,-8.640393257E0,6.019603014E-1
3.937195551E1,-4.634601593E0,-8.633033752E0,4.019818306E-1
3.939222410E1,-4.625527382E0,-8.642500877E0,2.864605784E-1
3.941249270E1,-4.573715687E0,-8.673031807E0,1.732928157E-1
3.943276134E1,-4.501131535E0,-8.711855888E0,1.173849851E-1
3.945302994E1,-4.403125763E0,-8.761157990E0,1.580394357E-1
3.947329853E1,-4.297754288E0,-8.811404228E0,2.425642908E-1
3.949356713E1,-4.225610733E0,-8.843438148E0,3.289484680E-1
3.951383572E1,-4.199076653E0,-8.851627350E0,4.322373271E-1
3.953410437E1,-4.200501919E0,-8.844440460E0,5.495843887E-1
3.955437296E1,-4.199633598E0,-8.837113380E0,6.624847054E-1
3.957464155E1,-4.189336777E0,-8.833365440E0,7.691033483E-1
3.959491015E1,-4.159418106E0,-8.839032173E0,8.608987331E-1
3.961517874E1,-4.133129597E0,-8.840603828E0,9.650745988E-1
3.963544739E1,-4.123773098E0,-8.825472832E0,1.129556894E0
3.965571598E1,-4.082205772E0,-8.812457085E0,1.358891010E0
3.967598457E1,-3.996288300E0,-8.790908813E0,1.708793640E0
3.969625322E1,-3.927841902E0,-8.689615250E0,2.287585258E0
3.971665322E1,-3.919699192E0,-8.447050095E0,3.074683189E0
3.973679041E1,-3.978444576E0,-8.134625435E0,3.764336824E0
3.975705900E1,-4.200860977E0,-7.826655865E0,4.155309200E0
3.977732759E1,-4.694072723E0,-7.487126827E0,4.251941204E0
3.979759619E1,-4.934370518E0,-7.189555168E0,4.486944675E0
3.981799619E1,-4.843748093E0,-7.054567337E0,4.789736748E0
3.983813343E1,-4.843462467E0,-7.040731430E0,4.810338020E0
3.985840202E1,-5.003209114E0,-7.105225563E0,4.544672966E0
3.987867062E1,-5.161736012E0,-7.170559883E0,4.255578518E0
3.989893921E1,-5.258962154E0,-7.198040009E0,4.086798668E0
3.991933921E1,-5.321643829E0,-7.226387978E0,3.953453541E0
3.993947640E1,-5.367216110E0,-7.312647343E0,3.726735353E0
3.995974504E1,-5.342044830E0,-7.482805252E0,3.411829472E0
3.998001364E1,-5.220829487E0,-7.702840328E0,3.095088720E0
4.000028223E1,-5.068809032E0,-7.919528008E0,2.785433292E0
4.002068223E1,-4.928871632E0,-8.106846809E0,2.481057644E0
4.004081942E1,-4.832310200E0,-8.244154930E0,2.202971220E0
4.006108801E1,-4.809169769E0,-8.321386337E0,1.948543072E0
4.008135660E1,-4.829486847E0,-8.348460197E0,1.774724364E0
4.010162520E1,-4.856850624E0,-8.361771584E0,1.631616592E0
4.012189379E1,-4.873710632E0,-8.386466980E0,1.443782330E0
4.014216244E1,-4.913419247E0,-8.394889832E0,1.246806741E0
4.016243103E1,-4.998131752E0,-8.347768784E0,1.226302147E0
4.018269963E1,-5.023485184E0,-8.304967880E0,1.400885701E0
4.020296822E1,-4.951671600E0,-8.313115120E0,1.594825983E0
4.022323681E1,-4.801150322E0,-8.399054527E0,1.604753256E0
4.024350541E1,-4.617708206E0,-8.536581993E0,1.404968619E0
4.026377400E1,-4.554833412E0,-8.606794357E0,1.160594583E0
4.028404259E1,-4.785311699E0,-8.464974403E0,1.270985007E0
4.030431119E1,-5.006581306E0,-8.283432961E0,1.577741623E0
4.032457978E1,-4.962152481E0,-8.257721901E0,1.832335472E0
4.034484843E1,-4.822803020E0,-8.328183174E0,1.884763360E0
4.036511702E1,-4.669680595E0,-8.458930016E0,1.676591396E0
4.038538556E1,-4.531514645E0,-8.587844849E0,1.372833133E0
4.040565421E1,-4.495300770E0,-8.633852005E0,1.191324234E0
4.042592280E1,-4.556616306E0,-8.607429504E0,1.148815274E0
4.044619140E1,-4.636770725E0,-8.568728447E0,1.116986394E0
4.046645999E1,-4.693329811E0,-8.546129227E0,1.052006602E0
4.048672858E1,-4.694793701E0,-8.552253723E0,9.941059947E-1
4.050699718E1,-4.617059708E0,-8.595027924E0,9.892653823E-1
4.052726577E1,-4.482792854E0,-8.660942078E0,1.031039834E0
4.054753437E1,-4.361224651E0,-8.714064598E0,1.102352381E0
4.056780296E1,-4.295474052E0,-8.736792564E0,1.178024769E0
4.058807155E1,-4.273432732E0,-8.742333412E0,1.216457367E0
4.060834015E1,-4.292030334E0,-8.733401299E0,1.215132952E0
4.062860874E1,-4.349149704E0,-8.704349518E0,1.220487356E0
4.064887733E1,-4.387077808E0,-8.674050331E0,1.297999501E0
4.066914593E1,-4.406139851E0,-8.635769844E0,1.476415753E0
4.068941447E1,-4.471238136E0,-8.521703720E0,1.886524081E0
4.070968306E1,-4.511288643E0,-8.282088280E0,2.688060999E0
4.072995171E1,-4.442550659E0,-7.916656017E0,3.709538460E0
4.075022030E1,-4.429712296E0,-7.523420811E0,4.466113091E0
4.077048890E1,-4.695294380E0,-7.194046974E0,4.729722977E0
4.079075749E1,-5.178268909E0,-6.964225292E0,4.566781521E0
4.081102608E1,-5.476318836E0,-6.815656185E0,4.441524982E0
4.083129468E1,-5.615844727E0,-6.734391212E0,4.390972614E0
4.085156327E1,-5.722702026E0,-6.775319576E0,4.185225964E0
4.087183187E1,-5.779131413E0,-6.937523365E0,3.826589108E0
4.089210046E1,-5.733483791E0,-7.169921875E0,3.448155165E0
4.091236905E1,-5.558353901E0,-7.433300972E0,3.165618420E0
4.093263765E1,-5.287606716E0,-7.712060928E0,2.955625772E0
4.095290619E1,-4.985695362E0,-7.988592148E0,2.737812996E0
4.097317468E1,-4.724754810E0,-8.216896057E0,2.515891314E0
4.099344338E1,-4.553647995E0,-8.359989166E0,2.354837418E0
4.101371197E1,-4.492240429E0,-8.435280800E0,2.199133873E0
4.103398056E1,-4.540009499E0,-8.488709450E0,1.870961905E0
4.105424916E1,-4.610628605E0,-8.528347015E0,1.476410031E0
4.107451775E1,-4.651861668E0,-8.542852402E0,1.245087385E0
4.109478634E1,-4.697175980E0,-8.520637512E0,1.227056384E0
4.111505489E1,-4.725630283E0,-8.478168488E0,1.399807930E0
4.113532348E1,-4.736178875E0,-8.431736946E0,1.626288772E0
4.115559213E1,-4.728862286E0,-8.429053307E0,1.661115885E0
4.117586067E1,-4.614695549E0,-8.501904488E0,1.610152841E0
4.119612921E1,-4.472106934E0,-8.598401070E0,1.496040583E0
4.121652921E1,-4.502000332E0,-8.617408752E0,1.281657219E0
4.123666640E1,-4.745692253E0,-8.483522415E0,1.295622110E0
4.125693499E1,-4.947681904E0,-8.317172050E0,1.586027384E0
4.127720358E1,-4.937225342E0,-8.256500244E0,1.903787136E0
4.129747218E1,-4.869071007E0,-8.280362129E0,1.974371791E0
4.131787223E1,-4.751031876E0,-8.399790764E0,1.744017124E0
4.133800942E1,-4.575550079E0,-8.571722984E0,1.326765060E0
4.135827801E1,-4.467578888E0,-8.677246094E0,9.573488832E-1
4.137854655E1,-4.475860119E0,-8.685623169E0,8.348745704E-1
4.139881509E1,-4.554515839E0,-8.640895844E0,8.727410436E-1
4.141921509E1,-4.647250175E0,-8.585464478E0,9.291137457E-1
4.143935228E1,-4.657094479E0,-8.579136848E0,9.382240772E-1
4.145962088E1,-4.564970493E0,-8.627033234E0,9.516960382E-1
4.147988947E1,-4.428556442E0,-8.691187859E0,1.010707736E0
4.150028947E1,-4.315242290E0,-8.737741470E0,1.095872879E0
4.152042666E1,-4.240954876E0,-8.764044762E0,1.173126340E0
4.154069525E1,-4.194460392E0,-8.778026581E0,1.234157562E0
4.156096379E1,-4.201745033E0,-8.771569252E0,1.255106688E0
4.158123239E1,-4.231728554E0,-8.759044647E0,1.241774917E0
4.160150098E1,-4.227137089E0,-8.750102043E0,1.318107724E0
4.162176957E1,-4.199640751E0,-8.716992378E0,1.596072078E0
4.164203817E1,-4.161951065E0,-8.637386322E0,2.060122252E0
4.166230681E1,-4.153171539E0,-8.474072456E0,2.666764975E0
4.168257541E1,-4.184795380E0,-8.201392174E0,3.375652075E0
4.170284400E1,-4.302081108E0,-7.864059925E0,3.977316856E0
4.172324395E1,-4.638589859E0,-7.515489101E0,4.262780666E0
