"Time (s)","Gyroscope x (rad/s)","Gyroscope y (rad/s)","Gyroscope z (rad/s)"
4.028798100E-2,-5.805686861E-2,-4.376901984E-1,-4.358259737E-1
6.055699200E-2,4.846949503E-2,-2.225069404E-1,-5.870934129E-1
8.066871000E-2,9.946899116E-2,-2.145174593E-1,-6.068007946E-1
1.009375650E-1,7.976161689E-2,-3.897533417E-1,-5.881586671E-1
1.212063670E-1,-4.793686327E-3,-7.523424625E-1,-6.494113207E-1
1.414752210E-1,-5.060002208E-2,-8.040077090E-1,-8.442214131E-1
1.617441790E-1,6.271740049E-2,-6.570013762E-1,-1.075916290E0
1.820130850E-1,1.069258377E-1,-7.454182506E-1,-1.345294833E0
2.024130850E-1,3.408843651E-2,-9.302414656E-1,-1.668602347E0
2.225510020E-1,1.761679798E-1,-2.299637944E-1,-1.946503043E0
2.428199600E-1,3.087933064E-1,1.161137372E-1,-1.979526162E0
2.630889190E-1,1.378184855E-1,-2.203764170E-1,-1.787778735E0
2.833578770E-1,2.024000883E-2,-3.615238369E-1,-1.663276076E0
3.036268350E-1,1.118526794E-2,-2.012016773E-1,-1.736779213E0
3.238958460E-1,1.261005849E-1,9.001477808E-2,-2.007223129E0
3.441648560E-1,1.000016257E-1,4.008054361E-2,-2.494447947E0
3.644338670E-1,2.496711612E-1,5.539371073E-2,-3.123353004E0
3.847028770E-1,1.092161536E0,-9.089362025E-1,-3.692603350E0
4.049718880E-1,2.043175697E0,-1.985385120E-1,-3.625491619E0
4.252408460E-1,2.508030176E0,1.285506845E0,-3.082340240E0
4.455098560E-1,2.902044535E0,1.051814675E0,-2.452370167E0
4.657788670E-1,2.024533510E0,-1.090563685E-1,-2.689923763E0
4.860478770E-1,5.591302514E-1,-8.173235059E-1,-3.164898396E0
5.064478770E-1,-2.551306486E-1,-3.791007102E-1,-3.218161345E0
5.265858460E-1,2.565953732E-1,8.202529699E-2,-2.856504440E0
5.468548560E-1,4.430165291E-1,4.910865426E-1,-2.320277452E0
5.671238670E-1,-6.853640079E-1,9.427583218E-2,-1.850629210E0
5.873928770E-1,-1.478852272E0,-2.230395675E-1,-1.702158093E0
6.077928770E-1,-1.720533967E0,1.001347825E-1,-1.306945324E0
6.279308460E-1,-1.666738153E0,-2.752375007E-1,-8.719182611E-1
6.481998560E-1,-1.486841679E0,-5.712476373E-1,-4.075964987E-1
6.684688670E-1,-8.835030198E-1,-3.407512009E-1,-8.602003753E-2
6.887378770E-1,-2.210422009E-1,9.181240797E-1,-2.350237966E-1
7.091378770E-1,2.134522051E-1,1.612542868E0,-4.741754830E-1
7.292758980E-1,5.060002208E-2,1.650892377E0,-4.981439114E-1
7.495449080E-1,-1.384842768E-2,7.839008570E-1,-4.139880836E-1
7.698139190E-1,8.881635964E-2,4.261054695E-1,-4.581965208E-1
7.900829290E-1,-2.194443047E-1,2.039979845E-1,-6.169208288E-1
8.104829290E-1,-9.330378175E-1,-3.045322299E-1,-6.536723971E-1
8.306209500E-1,-1.369662762E0,-1.129312634E0,-6.286386847E-1
8.508899080E-1,-1.011867285E0,-1.723063946E0,-8.303729892E-1
8.711589710E-1,-2.918822467E-1,-1.470729589E0,-1.196291089E0
8.914279810E-1,-9.587372653E-3,-6.458160877E-1,-1.402286410E0
9.116969400E-1,-2.711096108E-1,-9.488835931E-1,-8.580698371E-1
9.319659500E-1,-8.733830452E-1,-1.229447365E0,-1.412805915E-1
9.522350130E-1,-1.442633271E0,-1.247024298E0,-2.526006401E-1
9.725040230E-1,-1.623594999E0,-1.113866329E0,-8.570045829E-1
9.927730330E-1,-1.504418612E0,-1.081908345E0,-1.433179021E0
1.013173033E0,-1.341433287E0,-1.152215838E0,-1.772332430E0
1.033311054E0,-1.245026827E0,-7.550055981E-1,-1.880456686E0
1.053580065E0,-9.383640885E-1,-8.402267098E-2,-1.974732518E0
1.073849075E0,-4.580633640E-1,3.067959249E-1,-2.164881945E0
1.094118138E0,-2.183790505E-2,4.005391300E-1,-2.483795404E0
1.114387148E0,2.123869359E-1,6.752439737E-1,-2.889527559E0
1.134656158E0,2.470080107E-1,1.133706808E0,-3.210704565E0
1.154925221E0,1.836248189E-1,1.398424864E0,-3.309774160E0
1.175194231E0,2.725743353E-1,1.740773916E0,-3.249054193E0
1.195463242E0,4.760396779E-1,1.975664616E0,-3.198454142E0
1.215732304E0,5.554018021E-1,2.041178226E0,-3.119624615E0
1.236001315E0,4.414186180E-1,1.797765493E0,-2.762894392E0
1.256270377E0,2.017343044E-1,1.692304492E0,-2.190448284E0
1.276539440E0,-1.954758763E-1,1.979393005E0,-1.850629210E0
1.296808450E0,-4.591286182E-1,2.382994652E0,-1.661678076E0
1.317077513E0,-3.483411968E-1,2.347308397E0,-1.292564273E0
1.337346575E0,-2.274337858E-1,2.196573734E0,-9.523456693E-1
1.357615638E0,-2.588590682E-1,2.156226873E0,-8.010782599E-1
1.377884700E0,-3.755054474E-1,2.148237228E0,-5.402218103E-1
1.398153763E0,-4.463454783E-1,2.094974041E0,4.234423116E-2
1.418422825E0,-4.271707237E-1,1.951163530E0,5.993439555E-1
1.438691888E0,-3.126548827E-1,1.771134019E0,7.479482293E-1
1.458960950E0,-1.145158410E-1,1.709881306E0,6.073334217E-1
1.479230013E0,6.910897791E-2,1.727990746E0,4.262386262E-1
1.499499127E0,1.282311082E-1,1.574193358E0,5.812344551E-1
1.519768190E0,1.127847880E-1,1.375521660E0,1.058872104E0
1.540037304E0,1.958753467E-1,1.233841658E0,1.509345412E0
1.560306315E0,3.157175183E-1,1.103479981E0,1.759149790E0
1.580575481E0,2.576606572E-1,9.378314614E-1,1.842772961E0
1.600844544E0,-7.190529257E-2,7.258440256E-1,1.841707706E0
1.621113658E0,-4.957470596E-1,4.809665382E-1,1.697897077E0
1.641382721E0,-9.548757076E-1,2.535327375E-1,1.447693229E0
1.661651835E0,-1.474058509E0,7.243792713E-2,1.144625783E0
1.681920950E0,-1.629453897E0,-1.063932031E-1,8.789756894E-1
1.702190065E0,-4.431496859E-1,4.380896688E-2,6.712492704E-1
1.722459179E0,-3.318296373E-1,-1.479384899E-1,7.921566963E-1
1.742728294E0,-1.213601589E0,-4.494080842E-1,1.046088934E0
1.762997408E0,-1.330780625E0,-5.771065950E-1,1.153680563E0
1.783266523E0,-1.430915356E0,-3.881554306E-1,8.363651037E-1
1.803535638E0,-1.502820730E0,-2.155827284E-1,5.402218103E-1
1.823804752E0,-1.235972166E0,-1.900164038E-1,6.286386847E-1
1.844073867E0,-9.303746223E-1,-4.158523083E-1,8.709861636E-1
1.864343033E0,-7.876293063E-1,-3.679154217E-1,1.018924713E0
1.884612148E0,-7.705850601E-1,-1.324921697E-1,9.423588514E-1
1.904881315E0,-1.082041502E0,8.575372398E-2,4.480765164E-1
1.925150429E0,-6.336987019E-1,4.735096991E-1,2.058621943E-1
1.945419596E0,-1.043958366E-1,4.458128214E-1,9.614004195E-2
1.965688658E0,-1.246358454E-1,2.476737946E-1,-2.157158963E-2
1.985957877E0,-1.438105851E-1,-3.821633384E-2,-1.593900770E-1
2.006357877E0,-8.149266988E-2,-8.828372508E-2,-1.418132186E-1
2.026496158E0,5.645897239E-2,2.125200927E-1,-2.291648388E-1
2.046765325E0,8.934898674E-2,1.930790395E-2,-7.483476996E-1
2.067034492E0,-8.522109129E-3,-3.322291076E-1,-1.484844327E0
2.087303658E0,-5.282375813E-1,6.977476925E-2,-1.663276076E0
2.107703658E0,-1.577255964E0,-3.785680532E-1,-2.221873522E0
2.127841940E0,-3.335606813E0,-1.180445313E0,-1.795768142E0
2.148111106E0,-2.855838776E0,-2.384992123E0,4.890891612E-1
2.168380325E0,-1.306812167E0,-1.666072369E0,9.466199279E-1
2.188649440E0,4.101264849E-2,-3.791007102E-1,-7.536740601E-2
2.209049440E0,4.408859909E-1,1.123853177E-1,-5.977460742E-1
2.229187825E0,5.506081581E-1,1.608548164E-1,-7.946866751E-1
2.249456992E0,3.929491341E-1,-2.436790615E-2,-1.290433764E0
2.269726210E0,3.408843651E-2,2.119874656E-1,-1.736246586E0
2.289995377E0,-2.205095738E-1,5.145223141E-1,-1.720800281E0
2.310264596E0,-2.956106663E-1,7.812377214E-1,-1.843172431E0
2.330533763E0,-1.491369158E-1,1.102414727E0,-2.234656811E0
2.350802929E0,8.508793265E-2,1.290833235E0,-2.137185097E0
2.371072148E0,4.403533638E-1,8.936230540E-1,-2.327201605E0
2.391341367E0,5.330312848E-1,8.568714261E-1,-3.409775734E0
2.411531888E0,4.041343927E-1,1.827592969E0,-4.811929226E0
2.431879596E0,1.804290265E-1,2.209889412E0,-5.824728489E0
2.452188138E0,-7.137266546E-2,1.729056001E0,-5.993572712E0
2.472418085E0,-7.428882122E-1,9.932252169E-1,-5.095688820E0
2.492687252E0,-1.769003391E0,2.147704601E0,-3.487007380E0
2.512956471E0,-1.905357122E0,9.080041051E-1,-7.451519370E-1
2.533225742E0,-1.619866490E0,-1.596563905E-1,-3.287670016E-1
2.553494960E0,-7.711177468E-1,-1.528253794E0,-8.010782599E-1
2.573764231E0,-6.551371515E-2,-1.585644960E0,-1.238768458E0
2.594033398E0,7.741803527E-1,-1.098952651E0,-1.323989511E0
2.614302617E0,1.810948133E0,-1.732118726E0,-9.582046270E-1
2.634571835E0,2.031990290E0,-2.354099512E0,-8.878972530E-1
2.654841054E0,1.732651353E0,-2.682600260E0,-4.597944319E-1
2.675110273E0,1.225718975E0,-2.472343683E0,5.619265884E-2
2.695379544E0,6.101297736E-1,-1.937714577E0,2.735064328E-1
2.715648763E0,-2.876211889E-2,-1.028778315E0,2.894853950E-1
2.735917981E0,-3.893538713E-1,8.468846232E-2,2.583264373E-2
2.756187200E0,-4.298338890E-1,8.084019423E-1,-2.115879953E-1
2.776456419E0,-5.830987096E-1,1.422925949E0,-2.627206445E-1
2.796725690E0,-1.000681996E0,1.743969679E0,-8.388951421E-2
2.816994908E0,-1.590039134E0,1.756752849E0,4.123901725E-1
2.837264127E0,-1.893639326E0,1.482580662E0,9.853688478E-1
2.857533398E0,-1.026647806E0,8.803072572E-1,1.249021649E0
2.877802617E0,3.657849133E-1,6.528734565E-1,9.635309577E-1
2.898071835E0,7.166560888E-1,1.272990108E-1,2.133190483E-1
2.918341106E0,4.360923171E-1,-3.342264518E-2,-3.261038363E-1
2.938610325E0,5.805686861E-2,1.294295341E-1,-2.360890508E-1
2.958292929E0,-1.794969290E-1,-3.129211813E-2,-9.827057272E-2
2.978692929E0,-3.408843651E-2,-2.800311744E-1,-1.359542757E-1
2.999092929E0,1.378184855E-1,-1.772332340E-1,-1.110537350E-1
3.019492929E0,2.054627240E-1,1.688442826E-1,-3.462106921E-3
3.039892929E0,2.912164330E-1,3.637875319E-1,6.151897460E-2
3.060229648E0,4.632565379E-1,5.219792128E-1,8.708529919E-2
3.080497408E0,6.388918757E-1,5.741770864E-1,1.419463754E-1
3.100766210E0,7.464835048E-1,3.973433375E-1,1.978727281E-1
3.121035117E0,8.492814302E-1,8.255793154E-2,2.394180000E-1
3.141304023E0,9.334372878E-1,-4.036017656E-1,3.182475269E-1
3.161573033E0,1.065529943E0,-1.028778315E0,4.534028471E-1
3.181842096E0,1.169792652E0,-2.091112614E0,5.380913019E-1
3.202111158E0,1.280047417E0,-3.198054552E0,6.446176767E-1
3.222380377E0,1.751293421E0,-3.351985216E0,8.470177650E-1
3.242649492E0,2.449440479E0,-2.822682381E0,9.795098901E-1
3.262918710E0,2.720017433E0,-2.231061459E0,1.002413034E0
3.283187877E0,2.267280579E0,-1.905223966E0,9.130641222E-1
3.303457096E0,1.133174181E0,-2.030925035E0,5.615270734E-1
3.323726315E0,1.889511347E-1,-1.729988098E0,2.681801319E-1
3.343995533E0,-2.428801060E-1,-4.904207587E-1,-8.255792782E-3
3.364264804E0,-2.844253778E-1,1.065663099E0,-1.238368973E-1
3.384534075E0,-3.526022732E-1,1.863279223E0,-1.147821546E-1
3.404803346E0,-5.511407852E-1,1.888845563E0,-1.380847991E-1
3.425072669E0,-7.231808305E-1,1.718936086E0,-2.185122073E-1
3.445341940E0,-8.664588332E-1,1.767938137E0,-3.074617088E-1
3.465611158E0,-1.118793130E0,1.774329782E0,-3.372890949E-1
3.485880429E0,-1.496961713E0,1.365934253E0,-1.838911325E-1
3.506280429E0,-1.722131848E0,5.757750273E-1,-2.663159103E-4
3.526418971E0,-1.616138101E0,-4.627238810E-1,-2.423474751E-2
3.546688242E0,-1.378717422E0,-1.152748466E0,-2.696448565E-1
3.566957565E0,-1.317997456E0,-9.824393988E-1,-4.166512489E-1
3.587226835E0,-1.291365862E0,-2.970753908E-1,-2.360890508E-1
3.607626835E0,-8.408924937E-1,4.042675495E-1,-1.105211005E-1
3.627765429E0,2.183790505E-2,7.061366439E-1,-2.696448565E-1
3.648034700E0,5.554018021E-1,6.816355586E-1,-4.246407151E-1
3.668304023E0,2.661827505E-1,-3.450122476E-1,-5.114597082E-1
3.688573294E0,-4.026696682E-1,-2.094308376E0,-1.944106072E-2
3.708973294E0,4.962796867E-1,-6.969487667E-1,1.114798427E0
3.729111888E0,2.495246887E0,9.000146389E-1,1.668069720E0
3.749381210E0,2.282726765E0,-7.986814380E-1,1.027979374E0
3.769650481E0,9.435572624E-1,-1.968074560E0,-4.873581231E-2
3.790050481E0,-7.759113908E-1,-1.135171533E0,-4.065312445E-1
3.810347044E0,-1.942108750E0,2.402169555E-1,-9.368993640E-1
3.830655794E0,-2.479401112E0,9.245156646E-1,-1.322924256E0
3.850925221E0,-1.979393005E0,6.773745418E-1,-7.270424366E-1
3.871155221E0,-3.877559602E-1,2.205095738E-1,3.597927988E-1
3.891463971E0,9.350351691E-1,7.221155763E-1,7.314366698E-1
3.911693919E0,1.115597367E0,1.283908963E0,2.159821987E-1
3.931963242E0,3.418164849E-1,1.022519946E0,-4.342280924E-1
3.952232565E0,-5.538039207E-1,-5.179844499E-1,-5.364934206E-1
3.972501940E0,-7.412903309E-1,-1.757152319E0,-6.467481852E-1
3.992771263E0,-1.065263641E-3,-1.731586099E0,-7.760445476E-1
4.013040585E0,1.508013844E0,-9.233172536E-1,-4.358259737E-1
4.033309908E0,3.417498827E0,-4.323638678E-1,2.143843025E-1
4.053579179E0,4.911664486E0,-2.007489443E0,5.444828868E-1
4.073848554E0,5.350020409E0,-3.809382677E0,9.880320430E-1
4.094117877E0,3.693402290E0,-9.749825597E-1,2.120673656E0
4.114387200E0,1.664607644E0,3.580084801E0,2.384859085E0
4.134656523E0,9.621993899E-1,4.913928032E0,1.288969040E0
4.154925846E0,3.306311965E-1,1.545963883E0,6.451503038E-1
4.175195169E0,-3.552654386E-1,-4.020038545E-1,1.973400861E-1
4.195464492E0,-8.334356546E-1,-2.933469713E-1,-4.480765164E-1
4.215733815E0,-1.253016353E0,2.801643312E-1,-9.486172795E-1
4.236003138E0,-1.620931745E0,5.320991874E-1,-1.342099071E0
4.256272513E0,-1.961283565E0,1.090696812E0,-1.801627159E0
4.276541835E0,-2.276468515E0,2.340916872E0,-1.957155585E0
4.296811158E0,-2.210954666E0,2.074201584E0,-1.177648902E0
4.317080533E0,-2.028927803E0,-7.129276991E-1,5.492765903E-1
4.337349856E0,-2.337721109E0,-1.650093436E0,1.293230057E0
4.357619231E0,-2.643851280E0,-5.978792310E-1,6.558029056E-1
4.377888554E0,-2.409626245E0,1.432779580E-1,-5.135902166E-1
4.398157929E0,-9.587372839E-2,-1.595764875E0,-1.994439840E0
4.418427252E0,7.672561407E-1,-3.159838200E0,-2.289384604E0
4.438696627E0,-4.277033508E-1,-4.037881851E0,-6.366282105E-1
4.458965950E0,1.053279415E-1,-5.366265774E-2,1.807086587E0
4.479235273E0,3.667835951E0,3.501787901E0,3.307111025E0
4.499504648E0,2.590588093E0,-1.268862128E0,2.187252522E0
4.519773971E0,-9.214530140E-2,-2.713492870E0,5.139897019E-2
4.540043346E0,-1.991110921E0,-8.317046165E-1,-1.316532731E0
4.560312721E0,-2.082190990E0,8.590019941E-1,-2.378334284E0
4.580582044E0,-1.536909103E0,7.705850601E-1,-1.858086109E0
4.600851419E0,-4.628570378E-1,1.345694304E0,5.566002429E-2
4.621120794E0,3.785680532E-1,2.425072670E0,1.070589900E0
4.641390117E0,7.113298178E-1,3.540669918E0,8.560724854E-1
4.661659492E0,1.057540536E0,2.935733318E0,3.763043880E-1
4.681928867E0,1.374855876E0,7.190529257E-2,-3.542001545E-2
4.702198190E0,1.561277032E0,-2.473408937E0,-3.569964767E-1
4.722467565E0,2.588990211E0,-2.956905603E0,-3.905522823E-1
4.742736940E0,3.551722050E0,-3.319494724E0,-3.435475379E-2
4.763006315E0,3.533612728E0,-3.917506933E0,1.309741616E0
4.783275638E0,3.628953695E0,1.824264042E-2,2.571146965E0
4.803545013E0,2.686461687E0,5.291031361E0,2.335856915E0
4.823814388E0,9.520793557E-1,4.550806046E0,1.146756291E0
4.844083710E0,-1.166463718E-1,1.126250029E0,2.463422120E-1
4.864353085E0,-8.217177391E-1,1.571263820E-1,-5.807018280E-1
4.884622460E0,-1.586843371E0,2.338253707E-1,-1.456082225E0
4.904891835E0,-2.113482952E0,3.049317189E-2,-1.950231433E0
4.925161210E0,-2.420279026E0,4.223770201E-1,-2.145174742E0
4.945430585E0,-2.297773600E0,1.120524168E0,-1.820801854E0
4.965699960E0,-1.961816192E0,7.135934830E-1,-6.137250066E-1
4.985969335E0,-1.910150886E0,-8.103992939E-1,7.735145688E-1
5.006238710E0,-2.106558800E0,-1.531449676E0,1.234107971E0
5.026508085E0,-2.628005505E0,-1.115996838E0,7.127945423E-1
5.046777460E0,-2.776476622E0,-3.876228034E-1,-3.032006621E-1
5.067046835E0,-6.906903386E-1,-1.229979992E0,-2.256494761E0
5.087316210E0,4.420844093E-2,-1.521862268E0,-2.614290237E0
5.107585585E0,-4.277033508E-1,-3.329614639E0,-9.827057123E-1
5.127854960E0,-2.828274965E-1,-1.805089235E0,7.080008388E-1
5.148124335E0,2.582598448E0,3.147188187E0,1.981257200E0
5.168393710E0,3.374888420E0,1.632782817E0,2.113749266E0
5.188663085E0,7.507445216E-1,-2.312021494E0,6.014744639E-1
5.208932460E0,-1.476189137E0,-1.722531319E0,-7.584677339E-1
5.229201835E0,-2.205095768E0,6.044039726E-1,-1.964079857E0
5.249471263E0,-2.000698328E0,1.495896459E0,-1.845835567E0
5.269740638E0,-7.418229580E-1,1.060869455E0,-2.403501123E-1
5.290010013E0,7.651256323E-1,1.476721764E0,7.564703226E-1
5.310279388E0,1.454750657E0,2.948516607E0,7.777756453E-1
5.330548763E0,1.716672301E0,3.439470053E0,2.101232558E-1
5.350818138E0,1.259807467E0,1.068858862E0,-4.944154918E-1
5.371087513E0,5.793702602E-1,-1.970737696E0,-6.387587190E-1
5.391356888E0,9.536772966E-1,-2.886065483E0,-6.753771305E-1
5.411626263E0,2.534129143E0,-2.533063889E0,-6.918887496E-1
5.431895638E0,3.918572187E0,-2.923349857E0,-4.331628382E-1
5.452165065E0,4.569848061E0,-2.305097342E0,7.303713560E-1
5.472434440E0,4.270641804E0,1.295626879E0,2.830006123E0
5.492703815E0,3.081541300E0,5.759613991E0,3.271957159E0
5.512973190E0,1.396161199E0,6.137649536E0,1.618534923E0
5.533242565E0,-5.326318205E-4,1.701891780E0,1.952095628E-1
5.553511940E0,-1.014530420E0,-6.372939944E-1,-6.270408034E-1
5.573781367E0,-1.687510729E0,-2.155827284E-1,-1.485376954E0
5.594050742E0,-1.976197243E0,2.231727391E-1,-2.087117672E0
5.614320117E0,-2.254630566E0,-3.524691164E-1,-2.287254095E0
5.634589492E0,-2.262619972E0,-2.326269448E-1,-2.111618757E0
5.654858867E0,-1.643302321E0,8.948214352E-2,-1.092960477E0
5.675128242E0,-1.464471221E0,-4.153196514E-1,5.791039467E-1
5.695397617E0,-1.827060342E0,-5.153213143E-1,1.465802789E0
5.715667044E0,-2.712028027E0,-1.665806025E-1,8.677904010E-1
5.735936419E0,-3.012964964E0,-4.898881316E-1,-7.733814120E-1
5.756205794E0,-7.439534664E-1,-3.134271860E0,-3.237868786E0
5.776475169E0,-5.699160323E-2,-3.820035458E0,-2.696848154E0
5.796744544E0,-4.079959691E-1,-3.412705183E0,5.725792050E-2
5.817013919E0,1.132641554E0,4.644549489E-1,2.581799507E0
5.837283294E0,3.634279966E0,2.452236891E0,3.080343008E0
5.857552721E0,1.867407203E0,-6.325002760E-2,9.651288390E-1
5.877822096E0,-9.985514879E-1,-1.514405370E0,-6.483460665E-1
5.898091471E0,-2.375537872E0,-5.435507894E-1,-1.463006496E0
5.918360846E0,-2.021471024E0,2.561959028E-1,-1.894837737E0
5.938630221E0,-1.069790959E0,2.311622053E-1,-9.848362207E-1
5.958899596E0,-5.623260736E-1,9.133304358E-1,4.496744275E-1
5.979169023E0,-2.956106663E-1,2.096039295E0,7.229145169E-1
5.999438398E0,3.567301631E-1,3.134937763E0,3.374222517E-1
6.019707773E0,1.087900519E0,2.716422319E0,1.411474310E-2
6.039977148E0,1.030908942E0,5.672528744E-1,-3.447459340E-1
6.060246523E0,3.567301631E-1,-2.043708324E0,-6.504766345E-1
6.080515898E0,6.117276549E-1,-3.070356131E0,-6.494113207E-1
6.100785273E0,2.599642754E0,-2.603903770E0,-4.858933687E-1
6.121054648E0,4.173170090E0,-2.413754225E0,1.451421678E-1
6.141324075E0,4.245608330E0,-1.946236730E0,1.222922683E0
6.161593450E0,3.950530291E0,1.291898489E0,2.002562523E0
6.181862825E0,2.738659620E0,3.871301174E0,2.161686182E0
6.202132200E0,1.241165280E0,3.221224070E0,1.833185554E0
6.222401575E0,2.822948620E-2,1.462873340E0,9.455546141E-1
6.242670950E0,-8.195872307E-1,7.636608481E-1,-1.998700947E-1
6.262940325E0,-1.414936423E0,4.671181142E-1,-8.037413955E-1
6.283209700E0,-1.763677120E0,-4.034686089E-2,-1.004011035E0
6.303479075E0,-1.876595020E0,1.896169335E-1,-1.256877899E0
6.323748450E0,-2.007622480E0,1.365934253E0,-1.512008548E0
6.344017825E0,-2.254097939E0,2.116279364E0,-1.276052713E0
6.364287252E0,-2.466085434E0,6.081323624E-1,-4.006722867E-1
6.384556627E0,-2.775943995E0,-1.946769357E0,5.253081322E-1
6.404826002E0,-3.051847219E0,-2.912697077E0,7.985482812E-1
6.425095377E0,-3.338269949E0,-2.042110443E0,3.427485824E-1
6.445364752E0,-1.479384899E0,3.584612012E-1,-5.588639379E-1
6.465634127E0,8.466182947E-1,1.306812167E0,-1.298955798E0
6.485903502E0,6.559360623E-1,-3.524691164E-1,-9.598025680E-1
6.506172825E0,-4.936165512E-1,-1.904691339E0,-2.696448565E-1
6.526442252E0,-1.420795441E0,-2.515486956E0,-2.105227262E-1
6.546711627E0,-1.101748943E0,-1.242230535E0,8.442214131E-2
6.566980950E0,2.371676445E0,2.288186312E0,1.732518196E0
6.587250325E0,2.482996464E0,9.303746223E-1,1.349689007E0
6.607519700E0,3.375554085E-1,-1.149552584E0,-6.364950538E-2
6.627789075E0,-1.144359469E0,-1.270460010E0,-5.700492263E-1
6.648058450E0,-1.785515070E0,-2.406164259E-1,-5.881586671E-1
6.668327825E0,-1.681651831E0,3.115896285E-1,-6.574008465E-1
6.688597200E0,-6.890923977E-1,-2.273006290E-1,-6.568682194E-1
6.708905950E0,5.965476483E-2,3.589938581E-1,-3.415501416E-1
6.729135950E0,1.857553422E-1,1.276452184E0,-3.648528084E-2
6.749405325E0,-4.527370632E-2,1.512408018E0,6.205160543E-2
6.769674700E0,-5.592634156E-2,1.219460607E0,-9.614004195E-2
6.789944023E0,2.565953732E-1,5.480781198E-1,-3.516701460E-1
6.810213398E0,3.338269889E-1,-2.587259114E-1,-5.945502520E-1
6.830482773E0,1.079910994E-1,-8.583361506E-1,-6.828339696E-1
6.850752096E0,3.888212144E-2,-7.310371995E-1,-6.254429221E-1
6.871021471E0,2.986733019E-1,-4.141212255E-2,-4.560659826E-1
6.891290846E0,7.571361065E-1,4.809665382E-1,-2.035985142E-1
6.911560221E0,1.372725368E0,3.802991211E-1,1.850895584E-1
6.931829596E0,2.147571564E0,-5.595297217E-1,6.733797789E-1
6.952138294E0,3.080476046E0,-2.284324646E0,1.153680563E0
6.972093346E0,3.355180979E0,-3.383943081E0,1.791107655E0
6.992362304E0,2.419080496E0,-2.604436398E0,1.918939233E0
7.012750117E0,1.798697710E0,-7.352982163E-1,1.075383663E0
7.033018815E0,1.707085013E0,1.216264725E0,4.704470634E-1
7.053287981E0,1.338636875E0,6.113281846E-1,4.310323000E-1
7.073557252E0,5.005407333E-1,-2.134522051E-1,3.251717389E-1
7.093826471E0,-4.010717571E-1,2.625874877E-1,-1.731053367E-2
7.114095742E0,-1.029310942E0,8.041408658E-1,-2.211753577E-1
7.134365013E0,-1.258875251E0,1.076848388E0,-2.957438231E-1
7.154634335E0,-1.246624827E0,1.363803744E0,-4.411523044E-1
7.174903606E0,-1.281245828E0,1.810548663E0,-6.462155581E-1
7.195172929E0,-1.529452324E0,1.982588768E0,-8.868319988E-1
7.215442252E0,-1.939978242E0,9.293093681E-1,-1.029044628E0
7.235711627E0,-2.265815735E0,-1.301352739E0,-6.988129616E-1
7.255980950E0,-2.305763245E0,-2.296575308E0,-9.081372619E-2
7.276250325E0,-2.107091427E0,-9.174582958E-1,3.411506712E-1
7.296519648E0,-1.871801376E0,1.917474568E-1,2.500706315E-1
7.316788971E0,-1.575658083E0,2.711096108E-1,-2.749711871E-1
7.337058294E0,-1.185904741E0,1.699095517E-1,-6.823013425E-1
7.357327669E0,-2.609896064E-1,-5.840308070E-1,-9.848362207E-1
7.377596992E0,8.865656853E-1,-1.767804980E0,-1.376187444E0
7.397866367E0,6.079992056E-1,-1.435575962E0,-8.841688037E-1
7.418135638E0,-6.427534223E-1,-1.240100026E0,1.786979735E-1
7.438405065E0,-7.157239914E-1,-1.324921697E-1,6.254429221E-1
7.458674388E0,2.281128883E0,1.352085829E0,1.228248954E0
7.478943710E0,2.501105785E0,3.424822688E-1,4.768386483E-1
7.499213085E0,5.841639638E-1,-9.808415174E-1,-1.316932142E-1
7.519482408E0,-1.029310942E0,-8.902940750E-1,-3.115896136E-2
7.539751731E0,-1.598028660E0,-9.307741374E-2,-2.898848653E-1
7.560021106E0,-1.598561287E0,1.688442826E-1,-6.211818457E-1
7.580290429E0,-1.174186826E0,-1.026647836E-1,-6.568682194E-1
7.600559752E0,-6.091976166E-1,3.262370080E-2,-5.151881576E-1
7.620829075E0,-3.041327596E-1,9.804420471E-1,-2.456764281E-1
7.641098398E0,-1.427453309E-1,2.103496313E0,-1.864211401E-3
7.661367773E0,-3.195790946E-2,2.207226276E0,5.246423557E-2
7.681637096E0,-1.954758763E-1,4.394212663E-1,-1.343563795E-1
7.701906471E0,-7.103977203E-1,-1.582981825E0,-6.052029133E-1
7.722175794E0,-1.127315283E0,-2.362621546E0,-9.582046270E-1
7.742445117E0,-9.804420471E-1,-1.463805437E0,-1.005076289E0
7.762714440E0,-2.652506530E-1,2.143843099E-2,-7.946866751E-1
7.782983763E0,4.632565379E-1,2.636527419E-1,-5.455481410E-1
7.803253085E0,7.848330140E-1,-1.612542868E-1,-4.539354742E-1
7.823522460E0,7.715172172E-1,-7.645930052E-1,-4.033354521E-1
7.843791783E0,5.724460483E-1,-2.488322735E0,-3.735080659E-1
7.864061106E0,5.527386665E-1,-4.120972633E0,7.270424068E-2
7.884330429E0,7.257108688E-1,-3.965443850E0,8.193209171E-1
7.904599752E0,7.784414291E-1,-2.926545620E0,1.198954225E0
7.924869075E0,1.204413652E0,-7.544729710E-1,1.196823716E0
7.945138398E0,1.940910339E0,1.715740204E0,1.595099092E0
7.965407721E0,2.107091427E0,1.467666984E0,2.457829475E0
7.985677044E0,1.799230337E0,3.600591123E-1,2.610561609E0
8.006077044E0,6.410223842E-1,-4.430165291E-1,1.869937181E0
8.026215638E0,-7.364966273E-1,-1.519731760E0,1.195758462E0
8.046485013E0,-1.585778117E0,-2.155960560E0,8.613988161E-1
8.066754335E0,-1.774862409E0,-1.592569113E0,6.190513372E-1
8.087023658E0,-1.655020237E0,-6.383592486E-1,6.094639897E-1
8.107423658E0,-1.583114982E0,-3.071953952E-1,7.181208730E-1
8.127562304E0,-1.827592969E0,-9.840372801E-1,5.226449966E-1
8.147831575E0,-2.222672701E0,-1.906289339E0,1.781653464E-1
8.168100898E0,-2.409626245E0,-2.648511648E0,8.921582997E-2
8.188500898E0,-2.335590601E0,-3.623094797E0,3.222422674E-2
8.208797460E0,-2.086984634E0,-4.284357071E0,-1.796300858E-1
8.228909440E0,-1.607083321E0,-4.024566174E0,2.396843163E-3
8.249178606E0,-5.735113025E-1,-2.665023327E0,6.760429144E-1
8.269447825E0,-3.515370190E-2,-1.456881166E0,9.034767151E-1
8.289717044E0,8.881635964E-2,-1.406813741E0,1.191497326E0
8.309868502E0,-3.318296373E-1,-1.421194911E0,7.191861272E-1
8.330256419E0,-1.224786878E0,-9.621993899E-1,-1.004010960E-1
8.350525117E0,-2.057689905E0,-2.363553643E-1,-6.419544816E-1
8.370794335E0,-2.432529449E0,1.000149369E0,-8.809730411E-1
8.391063502E0,2.496711612E-1,1.205079436E0,-1.519332230E-1
8.411463502E0,8.556730151E-1,-1.845569253E0,-3.585943878E-1
8.431602096E0,-4.490086138E-1,-3.800328016E0,-9.432909489E-1
8.451871367E0,-1.735447645E0,-4.235488415E0,-9.480846524E-1
8.472140638E0,-2.571546316E0,-3.516035795E0,-4.278365076E-1
8.492409908E0,-2.840392351E0,-2.094308376E0,1.057274193E-1
8.512679179E0,-2.399506330E0,-2.763027549E-1,3.496727943E-1
8.532948502E0,-1.743437052E0,1.406148076E-1,6.131923795E-1
8.553217825E0,-1.068725705E0,1.832253486E-1,7.500787377E-1
8.573487096E0,1.384842768E-2,4.740423262E-1,3.816306889E-1
8.593756367E0,2.123869359E-1,5.049349666E-1,2.804306448E-1
8.614025638E0,-3.451454341E-1,1.134505793E-1,4.182491302E-1
8.634294960E0,-9.660609365E-1,-8.508793116E-1,3.347590864E-1
8.654564231E0,-1.349955320E0,-1.493632793E0,4.127896577E-2
8.674833554E0,-1.529452324E0,-1.358876944E0,-2.765690684E-1
8.695102825E0,-1.503885984E0,-5.872265697E-1,-3.564638495E-1
8.715372148E0,-1.264201641E0,2.753706574E-1,-1.908153445E-1
8.735641419E0,-8.371640444E-1,1.286039472E0,1.137168929E-1
8.755910742E0,-4.511391521E-1,1.646098614E0,3.171822429E-1
8.776180013E0,-3.760380745E-1,7.423555851E-1,2.426137924E-1
8.796449283E0,-6.518082023E-1,-5.850960612E-1,2.956106514E-2
8.816718606E0,-1.132108927E0,-1.526655912E0,-2.195774615E-1
8.836987877E0,-1.271658421E0,-1.739575505E0,-6.249102950E-1
8.857257200E0,-7.849661708E-1,-1.746499777E0,-8.964193463E-1
8.877526471E0,2.230395675E-1,-2.118676186E0,-5.849629045E-1
8.897795742E0,1.111336350E0,-2.023468256E0,2.053295672E-1
8.918065065E0,1.689508080E0,-2.011217833E0,6.792387366E-1
8.938334335E0,2.159289360E0,-2.325870037E0,7.687208652E-1
8.958564231E0,2.452103853E0,-2.897250891E0,7.703187466E-1
8.978872773E0,2.455299616E0,-2.527204752E0,6.611292362E-1
8.999142148E0,2.190714598E0,-9.808415174E-1,5.988113284E-1
9.019411419E0,1.715607047E0,3.621896505E-1,6.925545335E-1
9.039680690E0,1.190565228E0,-1.596563905E-1,1.074318409E0
9.059949960E0,8.732498884E-1,-1.984053493E0,1.569532871E0
9.080219231E0,8.631298542E-1,-2.730004311E0,1.697364450E0
9.100488502E0,5.527386665E-1,-1.976064086E0,1.406680584E0
9.120757773E0,-1.507348120E-1,-1.232110500E0,1.112135291E0
9.141027096E0,-9.325051308E-1,-8.652604222E-1,9.199883342E-1
9.161296367E0,-1.629986525E0,-8.583361506E-1,8.954872489E-1
9.181565690E0,-1.864877105E0,-1.077647328E0,1.115331054E0
9.201834908E0,-1.585245490E0,-1.386573792E0,1.094025731E0
9.222104231E0,-1.230645776E0,-1.422792792E0,8.624640703E-1
9.242373450E0,-9.767135978E-1,-1.476055980E0,6.760429144E-1
9.262642773E0,-9.303746223E-1,-2.043175697E0,4.422175586E-1
9.282911992E0,-1.144892097E0,-2.791257143E0,2.143843025E-1
9.303181315E0,-1.421860695E0,-2.654370785E0,-7.483477145E-2
9.323450533E0,-1.749296069E0,-1.804556608E0,-4.384891391E-1
9.343719804E0,-1.900030851E0,-8.556730151E-1,-5.924197435E-1
9.363989075E0,-1.442100644E0,-1.729721874E-1,-3.564638495E-1
9.384258346E0,-4.000065029E-1,4.434159771E-2,2.095906287E-1
9.404527617E0,3.940143883E-1,-1.410142779E-1,4.384891391E-1
9.424796888E0,4.259723127E-1,-2.917490900E-1,4.917523265E-1
9.445066106E0,-2.135853618E-1,-4.312986135E-1,3.656517565E-1
9.465335377E0,-1.326519608E0,1.954758763E-1,1.989379823E-1
9.485604544E0,-2.219476700E0,1.259940624E0,3.656517565E-1
9.505992617E0,-7.242461443E-1,1.147022605E0,4.400870502E-1
9.526143138E0,1.311472654E0,-1.532514930E0,1.829590350E-1
9.546412408E0,8.247803450E-1,-2.932937145E0,-6.823013425E-1
9.566681679E0,-5.649892092E-1,-2.004293442E0,-9.699225426E-1
9.586950898E0,-1.848365545E0,-8.972182870E-1,-7.744466662E-1
9.607350898E0,-2.426137924E0,-2.225069404E-1,-7.270424366E-1
9.627489388E0,-2.240249395E0,-2.763027549E-1,-8.165245652E-1
9.647758658E0,-1.488439679E0,-1.601623893E0,-7.866972089E-1
9.668027929E0,-9.958883524E-1,-2.149568796E0,-3.894870281E-1
9.688297148E0,9.254477918E-2,1.976063997E-1,3.629885912E-1
9.708697148E0,2.960101366E-1,1.205612183E0,4.656533599E-1
9.728835638E0,-4.792354703E-1,1.608548164E-1,5.519397259E-1
9.749104856E0,-1.054344654E0,-4.099933505E-1,3.241064548E-1
9.769374127E0,-1.160871029E0,-3.567301631E-1,-1.464737486E-2
9.789643346E0,-8.648608923E-1,-3.306311965E-1,-1.631184965E-1
9.810043346E0,-4.962796867E-1,-5.526055098E-1,-1.275653243E-1
9.830181731E0,-3.499391079E-1,-4.707133770E-1,3.009369783E-2
9.850451054E0,-2.295643091E-1,1.326253265E-1,1.739042848E-1
9.870720325E0,5.379581451E-2,6.896250248E-1,2.660495937E-1
9.890989544E0,2.038648278E-1,-2.596580051E-2,3.747064769E-1
9.911258763E0,1.601890177E-1,-9.153277874E-1,2.516685426E-1
9.931528033E0,4.474107176E-2,-1.047287345E0,1.411474310E-2
9.951797252E0,2.183790505E-2,-9.419593811E-1,-8.761793375E-2
9.972066471E0,2.294311523E-1,-9.009467363E-1,-1.243695319E-1
9.992335742E0,5.942839384E-1,-7.938877344E-1,-2.451438010E-1
1.001273574E1,8.306393027E-1,-6.921550632E-1,-3.665838540E-1
1.003287418E1,6.713824272E-1,-4.526038766E-1,-3.719101548E-1
1.005314340E1,1.106542572E-1,1.771000773E-2,-2.914827764E-1
1.007341262E1,-3.627222776E-1,8.415582776E-2,-4.607265070E-2
1.009368189E1,-3.222422600E-1,-6.175866127E-1,5.938844755E-2
1.011395111E1,4.474107176E-2,-1.133041024E0,-8.175898343E-2
1.013422033E1,2.336922139E-1,-1.049950480E0,-1.009337306E-1
1.015448954E1,4.499407411E-1,-1.573927045E0,1.217063740E-1
1.017475876E1,1.340767503E0,-2.682067633E0,6.068007946E-1
1.019502798E1,2.653971195E0,-3.511242151E0,1.129712105E0
1.021529720E1,3.174751997E0,-2.324804783E0,1.629720211E0
1.023556642E1,2.758233786E0,8.595346212E-1,1.896036148E0
1.025583564E1,2.801909685E0,3.411773205E0,1.237836361E0
1.027610486E1,1.684181809E0,8.179892898E-1,6.605966091E-1
1.029637402E1,2.182458937E-1,-1.394163817E-1,6.020070910E-1
1.031664329E1,-3.946801722E-1,1.026780963E0,5.306344628E-1
1.033691251E1,-2.258358896E-1,2.315883160E0,6.792387366E-1
1.035718173E1,-2.450106293E-2,1.556616545E0,6.376934648E-1
1.037745095E1,6.964161247E-2,-6.079992056E-1,3.640538454E-1
1.039772012E1,2.869553864E-1,-1.011201501E0,-7.004108280E-2
1.041798934E1,6.484792382E-2,2.695116997E-1,-4.560659826E-1
1.043825855E1,-7.524756193E-1,1.291898489E0,-7.765771747E-1
1.045852772E1,-1.508147001E0,1.042759895E0,-1.167528987E0
1.047879699E1,-1.888312936E0,4.186486006E-1,-1.456082225E0
1.049906616E1,-2.000165701E0,-2.038648278E-1,-1.282444239E0
1.051933538E1,-2.021471024E0,-7.171887755E-1,-6.595313549E-1
1.053960460E1,-2.207226276E0,-1.201217890E0,-9.986846894E-2
1.055987376E1,-2.342514753E0,-7.555382252E-1,4.873581231E-2
1.058014298E1,-2.724278688E0,3.296990991E-1,6.897582114E-2
1.060041220E1,-1.020256281E0,1.830256104E0,4.384891391E-1
1.062068137E1,1.378584266E0,3.021487236E0,2.159821987E-1
1.064095058E1,1.786979795E0,2.854773283E0,-3.009369783E-2
1.066121975E1,4.861596823E-1,-4.833633825E-2,1.771000773E-1
1.068148897E1,-1.205612183E0,-3.476621151E0,-3.543333113E-1
1.070175814E1,-1.916009784E0,-2.811496973E0,-9.693899155E-1
1.072202736E1,-1.946902514E0,-1.020256281E0,-5.247755051E-1
1.074229658E1,9.728519917E-1,2.744518518E0,1.596164465E0
1.076256574E1,3.030408859E0,3.211636782E0,2.196307421E0
1.078283491E1,1.955824018E0,-6.010749936E-1,3.731085956E-1
1.080310413E1,-4.703139067E-1,-3.883418560E0,-5.071986318E-1
1.082337329E1,-2.055559397E0,-3.659313679E0,-4.725775719E-1
1.084364251E1,-2.437323093E0,-1.626657605E0,-8.452867270E-1
1.086391168E1,-1.768470764E0,2.748380303E-1,-1.138234258E0
1.088418085E1,-4.813660085E-1,7.865640521E-1,-3.585943878E-1
1.090445006E1,8.029424548E-1,9.069388509E-1,2.942790687E-1
1.092471923E1,1.149552584E0,1.205612183E0,2.996053994E-1
1.094498840E1,8.253130317E-1,1.155544758E0,-6.657897960E-3
1.096525762E1,2.209090441E-1,4.910865426E-1,-3.447459340E-1
1.098552678E1,-2.013348341E-1,-3.045322299E-1,-6.392913461E-1
1.100592678E1,-3.126548827E-1,-8.892288208E-1,-8.894951344E-1
1.102606512E1,-1.406148076E-1,-1.054211497E0,-8.170571923E-1
1.104633434E1,1.703090221E-1,-4.233091474E-1,-4.203796685E-1
1.106660350E1,5.783050060E-1,3.797664940E-1,-1.251684781E-2
1.108687267E1,1.234241128E0,4.644549489E-1,2.458095849E-1
1.110727267E1,2.099102020E0,-7.054708600E-1,5.908218622E-1
1.112741100E1,2.733333349E0,-2.808301210E0,1.099352121E0
1.114768017E1,3.012831926E0,-3.488871574E0,1.479118586E0
1.116794934E1,2.940393925E0,-1.071788430E0,1.425855398E0
1.118821850E1,2.771549702E0,3.073685169E0,9.173251390E-1
1.120861850E1,1.972335577E0,4.176499367E0,6.041376591E-1
1.122875684E1,5.394228697E-1,1.040096760E0,6.930871606E-1
1.124902605E1,-4.037349224E-1,-9.147951752E-2,6.355628967E-1
1.126929517E1,-6.997450590E-1,7.865640521E-1,1.403484792E-1
1.128956428E1,-8.211851120E-1,1.364868999E0,-3.894870281E-1
1.130996428E1,-8.115977645E-1,1.390435338E0,-6.838992834E-1
1.133010267E1,-6.651239991E-1,1.566203833E0,-8.676572442E-1
1.135037184E1,-7.647261620E-1,1.731719255E0,-9.331709743E-1
1.137064100E1,-1.445296407E0,1.069924116E0,-9.592698812E-1
1.139091017E1,-2.139581919E0,-2.225069404E-1,-9.550088644E-1
1.141131017E1,-2.412822247E0,-1.930790305E0,-4.427502155E-1
1.143144850E1,-2.428268433E0,-2.784332752E0,-1.464737486E-2
1.145171762E1,-2.186453581E0,-1.423325419E0,4.394212365E-2
1.147198678E1,-2.007089853E0,8.536756635E-1,1.456748098E-1
1.149225595E1,-1.724262357E0,1.600292325E0,1.643169224E-1
1.151252506E1,-4.793686327E-3,1.279115319E0,1.611211300E-1
1.153279423E1,2.438255310E0,1.936249852E0,7.962846011E-2
1.155306340E1,1.775261879E0,5.996102691E-1,2.101232558E-1
1.157333257E1,-9.026777744E-1,-3.835481644E0,-1.083905771E-1
1.159360168E1,-2.488455772E0,-4.964927673E0,-1.102547884E0
1.161387085E1,-3.066228151E0,-2.817356110E0,-1.075383663E0
1.163413996E1,-2.013348341E-1,2.081125736E0,7.309040427E-1
1.165440913E1,2.932404518E0,3.554518461E0,2.091911554E0
1.167467819E1,3.066095114E0,1.993241429E0,1.066861510E0
1.169494741E1,1.224121094E0,-1.260872722E0,-9.294424951E-2
1.171521652E1,-8.291745782E-1,-2.356762648E0,-3.857586086E-1
1.173548569E1,-1.790841341E0,-1.263535857E0,-7.446193099E-1
1.175575480E1,-1.885649800E0,-4.478102028E-1,-1.097754240E0
1.177602397E1,-9.665936232E-1,-2.107890397E-1,-7.616634965E-1
1.179629308E1,2.145174593E-1,5.958818197E-1,-9.986846894E-2
1.181656220E1,7.811045647E-1,1.927727699E0,1.126516312E-1
1.183683137E1,8.764456511E-1,2.966093540E0,2.095906287E-1
1.185710048E1,6.836329699E-1,2.400571585E0,5.512739345E-2
1.187736965E1,4.930838943E-1,4.079959691E-1,-3.282343447E-1
1.189763876E1,3.034669757E-1,-1.188967347E0,-6.769750714E-1
1.191790788E1,2.747048736E-1,-1.708682895E0,-7.004108429E-1
1.193817699E1,8.135951161E-1,-1.441434860E0,-4.747081101E-1
1.195840678E1,2.205628395E0,-1.094158888E0,2.050632425E-2
1.197871522E1,3.828024864E0,-1.171390533E0,7.926893234E-1
1.199898434E1,3.981955528E0,-2.144775152E0,1.738377094E0
1.201925345E1,3.371160030E0,-1.568733811E0,1.873665571E0
1.203952256E1,2.584196329E0,1.119458914E0,1.413604856E0
1.205979173E1,1.582582355E0,1.956489801E0,1.080709934E0
1.208006085E1,5.740439296E-1,9.042756557E-1,9.539436102E-1
1.210032996E1,-1.235705838E-1,2.364885211E-1,4.789691567E-1
1.212059913E1,-6.305029392E-1,3.408843577E-1,4.660528526E-2
1.214086824E1,-1.052214146E0,1.576590240E-1,-2.850911915E-1
1.216113736E1,-1.197090030E0,3.941475451E-1,-7.174550891E-1
1.218140647E1,-1.137967944E0,1.377119541E0,-1.064731002E0
1.220167558E1,-1.294028997E0,2.031590939E0,-1.279248476E0
1.222194470E1,-1.790841341E0,2.154096127E0,-1.398558021E0
1.224221382E1,-2.300969362E0,8.749809265E-1,-1.049817324E0
1.226248293E1,-2.645981789E0,-1.211870551E0,-2.861564457E-1
1.228275204E1,-2.724278688E0,-1.853026152E0,1.978727281E-1
1.230302116E1,-2.531599045E0,-9.179909229E-1,1.925463974E-1
1.232329027E1,-2.007089853E0,-2.001364082E-1,-3.994738683E-3
1.234355939E1,-6.837661266E-1,9.069388509E-1,-3.000048697E-1
1.236382850E1,8.743151426E-1,1.358477473E0,-6.515418887E-1
1.238409757E1,1.168727398E0,3.328948980E-3,-5.279712677E-1
1.240436668E1,-6.977476925E-2,-2.364219427E0,-2.387522161E-1
1.242463579E1,-1.582582355E0,-3.395128489E0,-1.476721764E-1
1.244490491E1,-1.194426894E0,-7.342329621E-1,5.636576414E-1
1.246513465E1,2.120407343E0,3.066228151E0,1.799629807E0
1.248544303E1,2.298173189E0,1.939445615E0,9.949562550E-1
1.250571215E1,9.243825078E-1,-9.350351691E-1,-2.179795653E-1
1.252598126E1,-6.384924054E-1,-2.030925035E0,-5.215796828E-1
1.254625032E1,-1.527321696E0,-1.461142182E0,-6.977477074E-1
1.256651944E1,-1.704022408E0,-7.768434882E-1,-9.608678222E-1
1.258678850E1,-9.990841150E-1,-7.731150985E-1,-7.675224543E-1
1.260718850E1,-1.384842768E-2,-2.223737910E-2,-1.860216707E-1
1.262732668E1,5.032039285E-1,1.413338542E0,1.051947847E-1
1.264759585E1,4.414186180E-1,2.083788872E0,1.035968885E-1
1.266786496E1,1.740374416E-1,1.247157454E0,-4.181159660E-2
1.268813402E1,1.426121742E-1,1.070589945E-1,-3.042659163E-1
1.270853402E1,2.273006290E-1,-4.792354703E-1,-6.323671341E-1
1.272867220E1,2.837595940E-1,-7.033402920E-1,-6.435524225E-1
1.274894132E1,6.788392663E-1,-4.259723127E-1,-2.781669796E-1
1.276921038E1,1.928127170E0,-1.904158667E-2,3.592601717E-1
1.278947944E1,3.574625254E0,-5.440834165E-1,9.444893599E-1
1.280987944E1,3.977161884E0,-2.626274347E0,1.532248616E0
1.283001762E1,3.008038282E0,-3.259307384E0,1.835848689E0
1.285028673E1,2.280596256E0,-4.041343927E-1,1.640372872E0
1.287055579E1,1.585245490E0,2.072070837E0,1.226651073E0
1.289082486E1,9.909614921E-1,2.000698328E0,9.582046270E-1
1.291122486E1,2.555301189E-1,6.773745418E-1,6.760429144E-1
1.293136303E1,-4.415517747E-1,5.693834424E-1,8.495477587E-2
1.295163210E1,-9.836378098E-1,9.527451396E-1,-4.747081101E-1
1.297190116E1,-1.293496370E0,9.484841228E-1,-8.000130057E-1
1.299217027E1,-1.259407997E0,9.197220206E-1,-1.034903646E0
1.301243934E1,-1.233309031E0,1.459144831E0,-1.232909560E0
1.303270840E1,-1.554885387E0,2.189782619E0,-1.321859002E0
1.305297746E1,-2.050765753E0,8.552735448E-1,-9.166593552E-1
1.307324658E1,-2.375005245E0,-2.106558800E0,-1.518000662E-2
1.309351564E1,-2.524674892E0,-3.080476046E0,3.741738498E-1
1.311378470E1,-2.828141928E0,-9.637972713E-1,1.110537350E-1
1.313405376E1,-2.614156961E0,5.406212807E-1,-3.367564678E-1
1.315432283E1,-1.025582552E0,8.382292986E-1,-5.972134471E-1
1.317459194E1,8.839024901E-1,6.795050502E-1,-5.546028614E-1
1.319486100E1,1.406813741E0,2.700443268E-1,-4.869586527E-1
1.321513006E1,3.572627902E-1,-3.396859467E-1,-2.552638054E-1
1.323539913E1,-9.458209276E-1,-1.696964979E0,-2.840259075E-1
1.325566819E1,-1.702424407E0,-1.753423929E0,-2.392848432E-1
1.327593725E1,2.480732650E-1,1.392565846E0,8.821714520E-1
1.329620632E1,2.123603106E0,2.372874737E0,1.234107971E0
1.331647538E1,1.429184318E0,3.424822688E-1,3.091927767E-1
1.333674444E1,-1.773663908E-1,-1.304015875E0,-1.115863696E-1
1.335701350E1,-1.361673236E0,-1.569666028E0,-2.653838098E-1
1.337728257E1,-1.901096106E0,-9.339699149E-1,-6.679202914E-1
1.339755163E1,-1.742371798E0,-6.591318846E-1,-8.868319988E-1
1.341782069E1,-8.835030198E-1,-5.089297295E-1,-5.631250143E-1
1.343808975E1,1.857553422E-1,1.752358675E-1,-1.849564016E-1
1.345835882E1,7.731150985E-1,1.123054147E0,-2.530001104E-2
1.347862782E1,9.057404399E-1,1.831853986E0,6.125265732E-3
1.349889689E1,5.378249884E-1,1.513473272E0,-9.081372619E-2
1.351916595E1,2.024000883E-2,2.034653574E-1,-3.186469972E-1
1.353943501E1,-2.577938139E-1,-9.211867452E-1,-5.285038948E-1
1.355970402E1,-1.182442605E-1,-8.178561330E-1,-5.721797347E-1
1.357997308E1,3.316964805E-1,2.343579978E-1,-4.033354521E-1
1.360024215E1,7.427550554E-1,1.180045843E0,-1.105211005E-1
1.362051121E1,8.412919641E-1,1.208807945E0,-1.025316268E-1
1.364078022E1,8.354330063E-1,7.190529257E-2,-5.566002429E-2
1.366104928E1,1.100683689E0,-1.224121094E0,3.304980397E-1
1.368131835E1,1.794969201E0,-1.780588150E0,7.841671705E-1
1.370158741E1,2.877010822E0,-1.932920933E0,1.296958447E0
1.372185642E1,2.993657112E0,-2.106558800E0,1.765008688E0
1.374212548E1,2.475539446E0,-1.168194771E0,1.526922226E0
1.376239454E1,2.024000883E0,9.335704446E-1,1.094025731E0
1.378266355E1,1.440902233E0,1.467666984E0,9.566067457E-1
1.380293262E1,5.420860648E-1,-3.849596381E-1,7.570029497E-1
1.382320163E1,-3.131875098E-1,-9.403614998E-1,2.697780132E-1
1.384347069E1,-8.920251131E-1,-7.699192762E-1,-1.073253155E-1
1.386373975E1,-1.078313112E0,-2.251701057E-1,-3.495396376E-1
1.388400876E1,-9.825725555E-1,6.065344810E-1,-5.785713196E-1
1.390427777E1,-9.399620295E-1,1.125184774E0,-7.579351068E-1
1.392454684E1,-1.137435198E0,1.563008070E0,-8.660593629E-1
1.394481590E1,-1.619333863E0,1.760481358E0,-7.424887419E-1
1.396508491E1,-2.160887241E0,1.157675266E0,-3.495396376E-1
1.398535397E1,-2.454367399E0,-6.559360623E-1,-1.695100814E-1
1.400562298E1,-2.605634928E0,-1.451554894E0,-3.735080659E-1
1.402589199E1,-2.634796381E0,-1.292830586E0,-5.253081322E-1
1.404616105E1,-2.283392668E0,-1.129312634E0,-6.828339696E-1
1.406643006E1,-1.296692133E0,-2.725743353E-1,-6.238450408E-1
1.408669908E1,3.295659423E-1,1.301485896E0,-3.783017397E-1
1.410709908E1,1.575658083E0,2.152498245E0,-2.808301151E-1
1.412723715E1,1.428651690E0,1.203481555E0,5.352949724E-2
1.414750616E1,6.018739566E-2,-1.060070515E0,9.028109163E-2
1.416777522E1,-8.174566627E-1,-2.554368973E0,-5.727123618E-1
1.418804423E1,-1.218927979E0,-1.534645438E0,-7.398256063E-1
1.420844423E1,-4.181159735E-1,1.237570047E0,1.307611167E-1
1.422858225E1,1.923866153E0,1.787645578E0,1.045556307E0
1.424885126E1,2.085253477E0,-1.315201163E0,1.350221634E-1
1.426912033E1,7.624624372E-1,-3.025614977E0,-3.122554123E-1
1.428938934E1,-7.791072130E-1,-1.729988098E0,2.031990439E-1
1.430978934E1,-1.892041326E0,2.902843356E-1,1.920137703E-1
1.432992736E1,-2.157158852E0,1.147022605E0,-3.053312004E-1
1.435019637E1,-1.430382729E0,5.672528744E-1,-4.773712754E-1
1.437046538E1,-3.190464675E-1,2.972085476E-1,-3.660512269E-1
1.439073439E1,3.226417303E-1,9.884315133E-1,-2.350237966E-1
1.441113439E1,4.573975801E-1,1.851561308E0,-3.755054250E-2
1.443127241E1,1.384842768E-2,1.625858665E0,8.255792782E-3
1.445154142E1,-5.788376331E-1,-1.916143000E-1,-3.266364634E-1
1.447181043E1,-8.408924937E-1,-2.074068308E0,-7.968171835E-1
1.449207944E1,-6.960166097E-1,-2.544249058E0,-1.005076289E0
1.451234840E1,-2.812296152E-1,-1.593101740E0,-7.877624631E-1
1.453261746E1,1.436774284E-1,-6.399571300E-1,-4.273038805E-1
1.455288642E1,4.781702161E-1,-3.988080621E-1,-3.601922691E-1
1.457315543E1,6.681866050E-1,-9.004141092E-1,-5.636576414E-1
1.459342444E1,8.056056499E-1,-1.912680864E0,-5.082638860E-1
1.461369345E1,1.197489500E0,-2.956372976E0,2.047969401E-1
1.463396246E1,1.586843371E0,-3.562374830E0,1.159006834E0
1.465423147E1,1.786979795E0,-2.665555954E0,1.613741279E0
1.467450048E1,1.914278746E0,3.848264739E-2,1.448225975E0
1.469476944E1,1.980325103E0,2.118942499E0,1.148886800E0
1.471503845E1,1.855689287E0,1.889378190E0,1.061002612E0
1.473530746E1,1.159139991E0,2.189116776E-1,1.209606886E0
1.475557647E1,-4.420844093E-2,-8.929572701E-1,1.088699460E0
1.477584543E1,-9.612672925E-1,-8.636624813E-1,6.989461184E-1
1.479611444E1,-1.589506507E0,-9.888309836E-1,5.556681752E-1
1.481638345E1,-1.876062393E0,-1.210805297E0,3.731085956E-1
1.483665241E1,-1.740241289E0,-6.319676638E-1,6.950845569E-2
1.485692142E1,-1.726925492E0,-2.422143221E-1,-3.701791167E-2
1.487719043E1,-1.943706632E0,-3.412838280E-1,-1.864211401E-3
1.489745939E1,-2.249836922E0,-1.137834668E0,4.527370445E-3
1.491772840E1,-2.313752651E0,-1.897767186E0,-1.238368973E-1
1.493799741E1,-2.033188820E0,-2.107091427E0,-1.849564016E-1
1.495826637E1,-1.445829034E0,-2.276867867E0,2.316948399E-2
1.497853538E1,-9.436904192E-1,-2.258225679E0,2.122537792E-1
1.499880434E1,-5.213133693E-1,-1.348224282E0,2.623211741E-1
1.501907335E1,1.644500792E-1,-4.956139028E-1,4.002728164E-1
1.503934236E1,8.029424548E-1,-1.910816729E-1,5.311670899E-1
1.505961132E1,5.783050060E-1,-2.347574681E-1,5.034702420E-1
1.507988033E1,-5.996102691E-1,-1.910550356E0,4.326302111E-1
1.510014928E1,-1.302018523E0,-3.540536880E0,3.294327855E-1
1.512041829E1,-1.320127964E0,-2.779006481E0,4.880239069E-1
1.514068725E1,-1.688575983E0,-9.041424990E-1,2.692453861E-1
1.516095621E1,-1.550224900E0,9.596694112E-1,-5.455481410E-1
1.518122522E1,-8.020103574E-1,3.254380524E-1,-5.114597082E-1
1.520149418E1,1.255679578E-1,-1.580318570E0,5.695165992E-1
1.522176319E1,1.239700541E-1,-2.046371460E0,9.215862155E-1
1.524203215E1,-7.711177468E-1,-1.530384421E0,2.213085145E-1
1.526230105E1,-1.750893950E0,-1.038765192E0,-5.189165473E-1
1.528257012E1,-2.409626245E0,-7.677887678E-1,-7.174550891E-1
1.530283908E1,-2.527870655E0,-6.223802567E-1,-6.265081763E-1
1.532310809E1,-2.086984634E0,-6.293044686E-1,-4.507396817E-1
1.534337704E1,-1.373391151E0,-5.419528484E-1,-2.408827394E-1
1.536364605E1,-9.042756557E-1,-2.916159295E-2,-1.233042628E-1
1.538391501E1,-7.641934752E-1,8.309056610E-2,-8.761793375E-2
1.540418397E1,-9.106672406E-1,-1.916143000E-1,-8.815056831E-2
1.542445298E1,-1.210938454E0,-4.637891650E-1,-1.359542757E-1
1.544472194E1,-1.284974217E0,-4.584628344E-1,-1.657816470E-1
1.546499090E1,-8.749809265E-1,-1.149153188E-1,-1.482048035E-1
1.548525986E1,-3.771033287E-1,7.829687744E-2,-1.062600464E-1
1.550565986E1,-1.587242782E-1,1.597895473E-1,-1.137168929E-1
1.552579783E1,-1.432779580E-1,8.841688186E-2,-1.482048035E-1
1.554606684E1,-2.024000883E-2,-5.691171288E-1,-2.275669426E-1
1.556633579E1,6.804371625E-2,-1.648495436E0,-4.667186439E-1
1.558660475E1,3.812312186E-1,-2.155427933E0,-4.736428559E-1
1.560700475E1,1.253415823E0,-1.786979795E0,2.138516754E-1
1.562714267E1,2.327467918E0,-1.545830727E0,6.861629486E-1
1.564741168E1,2.887130737E0,-2.002162933E0,5.354281664E-1
1.566768064E1,2.786463261E0,-2.060219765E0,6.265081763E-1
1.568794960E1,2.356762648E0,-9.030772448E-1,8.507461548E-1
1.570834960E1,1.768870234E0,3.520696461E-1,1.217596292E0
1.572848751E1,1.105477333E0,8.415582776E-2,1.655819178E0
1.574875647E1,8.349003792E-1,-1.016527772E0,1.770334959E0
1.576902543E1,6.298371553E-1,-2.361023664E0,1.541835904E0
1.578929439E1,-1.331579592E-2,-2.769419193E0,1.198954225E0
1.580969439E1,-9.287767410E-1,-2.566087008E0,1.014130950E0
1.582983230E1,-1.745567679E0,-2.350371122E0,9.306409359E-1
1.585010132E1,-2.227466345E0,-1.803491354E0,8.896282911E-1
1.587037027E1,-2.273805141E0,-1.300287485E0,8.555398583E-1
1.589063918E1,-2.056624651E0,-1.397226453E0,7.245124578E-1
1.591090814E1,-1.720533967E0,-2.078861952E0,7.591335177E-1
1.593117704E1,-1.387239575E0,-2.498975277E0,7.436871529E-1
1.595144605E1,-1.254614234E0,-2.875412941E0,3.683148921E-1
1.597171501E1,-1.314269066E0,-3.498458862E0,-3.648528084E-2
1.599198397E1,-1.514538527E0,-3.108172894E0,-7.749792933E-2
1.601225293E1,-1.739708662E0,-1.979792476E0,-6.151897460E-2
1.603252189E1,-1.710946560E0,-8.966856599E-1,-1.636511236E-1
1.605279085E1,-1.117727876E0,-7.230476737E-1,1.131842583E-1
1.607305980E1,-1.368863732E-1,-7.560708523E-1,5.386239290E-1
1.609332871E1,3.727091253E-1,-3.700459599E-1,8.113313913E-1
1.611359767E1,1.181111038E-1,2.956106663E-1,8.049398661E-1
1.613386663E1,-7.157239914E-1,3.371559381E-1,5.285038948E-1
1.615413559E1,-1.574592829E0,1.837579757E-1,2.165148407E-1
1.617440454E1,-1.991110921E0,9.108003974E-2,1.206411049E-1
1.619467350E1,-1.132108927E0,-1.904158667E-2,-7.430213690E-2
1.621494241E1,7.390266657E-1,-1.318396926E0,-6.418213248E-2
1.623521137E1,2.518016994E-1,-2.988330841E0,-5.263733864E-1
1.625548032E1,-1.002279878E0,-2.959036112E0,-6.515418887E-1
1.627574923E1,-1.878192902E0,-2.175135136E0,-6.515418887E-1
1.629601819E1,-2.157158852E0,-1.297091603E0,-7.659245729E-1
1.631628715E1,-1.803091884E0,-1.109072566E0,-7.520761490E-1
1.633655605E1,-1.190165758E0,-1.682583928E0,-3.591270149E-1
1.635682501E1,-1.225852132E0,-1.233708501E0,1.137168929E-1
1.637709392E1,-1.571397066E0,-2.049300969E-1,3.608580530E-1
1.639736288E1,-1.387239575E0,1.426654339E0,1.962748319E-1
1.641763184E1,-8.046735525E-1,1.432513237E0,1.864211401E-3
1.643790074E1,-4.941491783E-1,-9.893636405E-2,2.479401082E-1
1.645816970E1,-5.197154880E-1,-1.234773755E0,3.059969842E-1
1.647843866E1,-8.004124761E-1,-1.179912686E0,1.557948142E-1
1.649870756E1,-1.149685740E0,-5.190497041E-1,-4.074633494E-2
1.651897647E1,-1.413338542E0,-3.448791057E-2,-1.711079776E-1
1.653924543E1,-1.569799185E0,1.699095517E-1,-1.169126853E-1
1.655951434E1,-1.506549120E0,9.341030717E-1,-1.304947957E-2
1.657978329E1,-9.048082829E-1,2.311622053E-1,-5.885581672E-2
1.660005220E1,-1.193095297E-1,-1.622929215E0,-9.187898785E-2
1.662032116E1,1.724395454E-1,-1.785381913E0,-2.743053809E-2
1.664059006E1,1.751027107E-1,-1.285906315E0,-1.254348010E-1
1.666085902E1,1.655153334E-1,-1.311472654E0,-1.599227041E-1
1.668112793E1,4.520712495E-1,-1.534112811E0,-4.234423116E-2
1.670139689E1,1.699628115E0,-1.594166994E0,2.617885470E-1
1.672166579E1,2.855705500E0,-1.286439061E0,6.659229398E-1
1.674193470E1,3.063964605E0,-6.996119022E-1,8.693882823E-1
1.676220366E1,2.778473854E0,-4.675175846E-1,8.129293323E-1
1.678247257E1,2.467017412E0,2.037316747E-2,6.275734305E-1
1.680274147E1,2.132657766E0,3.446127772E-1,5.737776160E-1
1.682301043E1,1.604952812E0,-3.631217480E-1,7.202513814E-1
1.684327934E1,9.025446177E-1,-1.521329641E0,8.480830193E-1
1.686354819E1,4.744417965E-1,-1.845569253E0,8.368977308E-1
1.688381715E1,3.237069845E-1,-1.368996978E0,8.587356806E-1
1.690408611E1,1.974732429E-1,-7.406245470E-1,9.274451733E-1
1.692435501E1,6.218476593E-2,-2.752375007E-1,7.681882381E-1
1.694462392E1,-1.368863732E-1,9.720530361E-3,4.480765164E-1
1.696502392E1,-3.669833243E-1,1.709748209E-1,1.573926955E-1
1.698516178E1,-5.974797606E-1,3.392864764E-1,6.125265732E-3
1.700543069E1,-7.775092721E-1,4.479433596E-1,-6.311687082E-2
1.702569960E1,-8.707198501E-1,4.527370334E-1,-1.572595388E-1
1.704596850E1,-1.006541014E0,1.986716688E-1,-3.000048697E-1
1.706623746E1,-1.249820590E0,-8.668582886E-2,-4.299670458E-1
1.708650637E1,-1.488972306E0,-2.789659202E-1,-3.261038363E-1
1.710690637E1,-1.707218170E0,-3.285006881E-1,5.246423557E-2
1.712704418E1,-1.765275002E0,6.285055727E-2,3.976096511E-1
1.714731308E1,-1.503353357E0,5.278381109E-1,4.832302332E-1
1.716758199E1,-7.641934752E-1,3.030675054E-1,2.356895804E-1
1.718785090E1,-2.130527282E-3,-2.491385341E-1,-1.460742801E-1
1.720825090E1,6.644582003E-2,-7.006771564E-1,-3.639206886E-1
1.722838871E1,-7.593998313E-1,-1.663409233E0,-4.406196773E-1
1.724865762E1,-1.819070816E0,-2.152764559E0,-5.056007504E-1
1.726892658E1,-2.211487293E0,-1.672463894E0,-6.982803345E-1
1.728919543E1,-1.349955320E0,-7.763108611E-1,-6.462155581E-1
1.730959543E1,7.006771564E-1,-7.869634777E-2,3.960117698E-1
1.732973324E1,2.034121037E0,1.318530083E0,1.346493244E0
1.735000215E1,1.318396926E0,6.827008128E-1,7.479482293E-1
1.737027105E1,1.932121962E-1,-1.718270302E0,-1.864211401E-3
1.739053996E1,-8.174566627E-1,-2.922817230E0,-7.110634446E-2
1.741093996E1,-1.414403796E0,-1.560211778E0,-6.125265732E-3
1.743107777E1,-1.702957034E0,6.544713378E-1,-1.201084778E-1
1.745134668E1,-1.805222392E0,1.920270920E0,-1.464737486E-2
1.747161559E1,-8.909598589E-1,1.735447645E0,2.335590571E-1
1.749188449E1,2.241048366E-1,1.247690082E0,2.399506420E-1
1.751215340E1,4.137217700E-1,9.058735967E-1,1.019989923E-1
1.753242230E1,-1.225053146E-2,1.635179669E-1,-8.974846452E-2
1.755269121E1,-5.016059875E-1,-8.823046088E-1,-3.601922691E-1
1.757296012E1,-5.777723789E-1,-1.750760794E0,-6.940192580E-1
1.759322897E1,-3.062632978E-1,-2.131459475E0,-8.245140314E-1
1.761349788E1,-1.065263674E-1,-1.569133401E0,-6.350302696E-1
1.763376678E1,-1.171789970E-2,-3.034669757E-1,-3.250385821E-1
1.765403569E1,2.198437899E-1,5.752423406E-1,-2.849580161E-2
1.767430460E1,8.998814821E-1,1.240233183E0,2.553969622E-1
1.769457345E1,1.880723000E0,1.714142323E0,4.826975763E-1
1.771484236E1,2.283259392E0,4.713791609E-1,6.009418368E-1
1.773511126E1,2.236387968E0,-3.018158197E0,7.223818898E-1
1.775538017E1,2.926545620E0,-3.820035458E0,6.813692451E-1
1.777564908E1,3.267962456E0,-1.964878798E0,5.514070988E-1
1.779591793E1,3.480882168E0,1.754089713E0,2.937464416E-1
1.781618684E1,2.928676128E0,4.460258961E0,4.645881057E-1
1.783645574E1,1.761413455E0,3.214299917E0,9.205209613E-1
1.785672454E1,5.372923613E-1,6.486123800E-1,1.091362596E0
1.787699350E1,-1.677790284E-1,-9.307741374E-2,8.528767228E-1
1.789726241E1,-4.735096991E-1,4.783033729E-1,2.016011477E-1
1.791753126E1,-7.045387626E-1,7.641934752E-1,-4.752407372E-1
1.793780017E1,-8.733830452E-1,5.091960430E-1,-1.015728831E0
1.795806908E1,-8.989493847E-1,6.624608040E-1,-1.335174799E0
1.797833793E1,-9.745830894E-1,9.101346135E-1,-1.481648564E0
1.799860684E1,-1.332378507E0,7.721830010E-1,-1.401753783E0
1.801887574E1,-1.917075038E0,1.267663687E-1,-1.002945662E0
1.803914460E1,-2.327068329E0,-6.564686894E-1,-3.463438451E-1
1.805941350E1,-2.112950325E0,-8.535425067E-1,7.643266767E-2
1.807968236E1,-1.853691936E0,8.552735448E-1,2.580601275E-1
1.809995126E1,-1.284441590E0,1.405349016E0,2.053295672E-1
1.812022017E1,-5.458144546E-1,4.628570378E-1,-9.853689000E-3
1.814048902E1,2.257027328E-1,5.395560265E-1,-1.657816470E-1
1.816075793E1,1.171390533E0,1.441035390E0,-2.621880174E-1
1.818102678E1,1.033572078E0,9.426251650E-1,-7.803056389E-2
1.820129569E1,-3.504717350E-1,-8.796414733E-1,-1.876195520E-1
1.822156454E1,-1.500690103E0,-2.865292788E0,-4.725775719E-1
1.824183345E1,-1.078313112E0,-1.305081129E0,2.316948399E-2
1.826210230E1,3.013364673E-1,8.733830452E-1,1.220792174E0
1.828237116E1,1.096422553E0,6.225134134E-1,1.090829968E0
1.830264007E1,1.109205723E0,-4.201133549E-1,3.139864504E-1
1.832290892E1,5.101281404E-1,-1.755021811E0,-1.716406047E-1
1.834317782E1,-4.612591565E-1,-2.168210983E0,-2.728406489E-1
1.836344668E1,-1.233841658E0,-1.474990726E0,-4.768386483E-1
1.838371553E1,-1.539039612E0,-4.945486486E-1,-8.138614297E-1
1.840398444E1,-1.100683689E0,3.581948951E-2,-7.957519293E-1
1.842425329E1,-2.327601016E-1,4.617917836E-1,-1.471395344E-1
1.844452215E1,3.609912097E-1,9.681915045E-1,1.611211300E-1
1.846479105E1,2.059953511E-1,9.090693593E-1,-5.992107838E-2
1.848505991E1,-1.118526831E-1,1.592569202E-1,-2.946785688E-1
1.850532876E1,-2.716422267E-2,-4.632565379E-1,-5.242428780E-1
1.852559767E1,4.270375669E-1,-3.460775316E-1,-8.452867270E-1
1.854586647E1,7.395592928E-1,7.616634667E-2,-8.287751079E-1
1.856613538E1,7.592666745E-1,3.126548827E-1,-4.912196994E-1
1.858640423E1,1.063399434E0,-4.460791498E-2,1.518000662E-2
1.860680423E1,2.302966833E0,-1.234241128E0,7.202513814E-1
1.862694194E1,4.111384869E0,-2.766223431E0,1.333710074E0
1.864721085E1,3.956389189E0,-3.364768267E0,1.986583591E0
1.866747970E1,2.441451073E0,-1.593101740E0,2.082856655E0
1.868774855E1,2.150767326E0,1.628521800E0,1.423192263E0
1.870814855E1,1.994173527E0,3.009769201E0,8.592683077E-1
1.872828626E1,1.119325757E0,1.583248138E0,6.462155581E-1
1.874855512E1,3.302317113E-2,5.496760607E-1,5.615270734E-1
1.876882397E1,-7.050713897E-1,8.739156723E-1,1.744369268E-1
1.878909288E1,-1.127847910E0,1.019324183E0,-3.591270149E-1
1.880949288E1,-1.309475303E0,5.555350184E-1,-8.463519812E-1
1.882963058E1,-1.330247998E0,6.928208470E-1,-1.266465306E0
1.884989944E1,-1.567668557E0,1.459144831E0,-1.598294973E0
1.887016829E1,-1.985251904E0,1.712011814E0,-1.708017111E0
1.889043715E1,-2.292979956E0,-1.559279710E-1,-1.029577255E0
1.891070600E1,-2.412289619E0,-1.984053493E0,5.060002208E-3
1.893097486E1,-2.315883160E0,-1.387639046E0,4.077296555E-1
1.895124371E1,-2.250369549E0,4.873581231E-1,1.472726911E-1
1.897151256E1,-1.846767664E0,1.129445791E0,-2.882869840E-1
1.899178142E1,-4.410191476E-1,9.490167499E-1,-7.201182246E-1
1.901205027E1,8.998814821E-1,1.789642870E-1,-1.104145765E0
1.903231913E1,7.123950720E-1,-8.849677444E-1,-8.873646259E-1
1.905258798E1,-4.319643974E-1,-2.039979935E0,-2.121206224E-1
1.907285684E1,-1.779656053E0,-2.104960918E0,5.476786494E-1
1.909312569E1,1.575258672E-1,1.263669014E0,1.752225518E0
1.911339449E1,2.862097025E0,2.340916872E0,2.197905302E0
1.913366340E1,2.457962751E0,-1.601890177E-1,8.049398661E-1
1.915393220E1,7.475487590E-1,-1.722531319E0,-1.684448123E-1
1.917420105E1,-1.132641554E0,-2.024000883E0,-2.073269337E-1
1.919446991E1,-2.256228447E0,-1.025049925E0,-6.833665967E-1
1.921486991E1,-2.300436735E0,6.977476925E-2,-1.320793748E0
1.923500762E1,-1.324388981E0,1.832253486E-1,-1.038099408E0
1.925527647E1,-6.924213469E-2,1.480716467E-1,-1.684448123E-1
1.927554532E1,5.809681416E-1,9.974862337E-1,2.660495937E-1
1.929581418E1,6.783066392E-1,1.837712884E0,3.560643792E-1
1.931608303E1,6.250434518E-1,1.568334341E0,5.779055133E-2
1.933635184E1,3.641870022E-1,7.297056168E-2,-5.263733864E-1
1.935662069E1,-1.763011366E-1,-1.712411284E0,-9.092025161E-1
1.937688954E1,-1.629853398E-1,-2.134122610E0,-9.741836190E-1
1.939715840E1,5.287702680E-1,-1.555950761E0,-8.554067016E-1
1.941742725E1,1.626790762E0,-9.254477620E-1,-2.563290596E-1
1.943769611E1,2.936132908E0,-6.042708158E-1,5.285038948E-1
1.945796491E1,3.827492237E0,-1.348756909E0,1.582315922E0
1.947823376E1,3.973966122E0,-1.932920933E0,2.485526323E0
1.949850262E1,3.420161963E0,9.905620217E-1,1.933320403E0
1.951877142E1,2.168876886E0,3.108838797E0,1.249021649E0
1.953904027E1,6.980140209E-1,2.300969362E0,1.024250984E0
1.955930913E1,-2.790990770E-1,1.269527912E0,3.704454303E-1
1.957957798E1,-6.645913720E-1,9.282441139E-1,-1.657816470E-1
1.959984678E1,-8.179892898E-1,1.078579482E-2,-3.532680571E-1
1.962011564E1,-8.419577479E-1,-2.944122255E-1,-6.430197358E-1
1.964038444E1,-8.941556811E-1,5.910881758E-1,-9.528783560E-1
1.966065329E1,-1.218927979E0,1.992176175E0,-1.231311560E0
1.968092215E1,-1.898432970E0,3.026280880E0,-1.488040090E0
1.970119100E1,-2.400038958E0,1.419197440E0,-1.524791718E0
1.972145986E1,-2.646514416E0,-2.022935629E0,-8.586025238E-1
1.974172866E1,-2.692320585E0,-3.651856899E0,-1.402153224E-1
1.976199751E1,-2.500706434E0,-2.358360529E0,8.788425475E-3
1.978226632E1,-2.327600956E0,-9.946899116E-2,-4.713791609E-2
1.980253517E1,-1.301485896E0,1.651425004E0,-1.934785098E-1
1.982280402E1,7.363634706E-1,1.809483409E0,-5.205144286E-1
1.984307282E1,1.402552724E0,-1.862879843E-1,-7.137266397E-1
1.986334168E1,-6.391582079E-3,-2.729471684E0,-4.273038805E-1
1.988361048E1,-1.720001340E0,-3.521362066E0,-2.396843163E-3
1.990387934E1,-7.956187725E-1,4.487423226E-2,8.624640703E-1
1.992414819E1,1.968074560E0,2.120540380E0,1.325187922E0
1.994441699E1,1.747032404E0,3.472759426E-1,1.035968885E-1
1.996468585E1,5.564671159E-1,-1.035569429E0,-4.198470414E-1
1.998495465E1,-6.768419147E-1,-1.020256281E0,-3.601922691E-1
2.000535465E1,-1.357944846E0,-1.782985032E-1,-4.688491523E-1
2.002549230E1,-1.579386473E0,6.299703121E-1,-5.876260400E-1
2.004576116E1,-1.383511186E0,1.131576300E0,-4.731102288E-1
2.006603001E1,-5.575323701E-1,1.106143117E0,-1.354216337E-1
2.008629882E1,2.912164330E-1,1.071522117E0,4.500738904E-2
2.010669882E1,4.968123436E-1,9.708546400E-1,-1.785648167E-1
2.012683647E1,3.428817391E-1,6.070671082E-1,-4.187817574E-1
2.014710533E1,1.767006069E-1,-1.772332340E-1,-4.097270370E-1
2.016737413E1,-5.326318205E-4,-9.840372801E-1,-4.150533378E-1
2.018764298E1,-1.326253265E-1,-1.112268448E0,-5.908218622E-1
2.020804298E1,-1.225053146E-2,-6.293044686E-1,-5.556681752E-1
2.022818058E1,6.016076207E-1,2.615222335E-1,-1.881521940E-1
2.024844944E1,1.799762964E0,1.085903168E0,1.893506050E-1
2.026871824E1,2.849313974E0,5.768402815E-1,5.386239290E-1
2.028898710E1,2.863694906E0,-1.507481217E0,9.944236279E-1
2.030938710E1,2.545846939E0,-2.758766413E0,1.523193836E0
2.032952475E1,2.627339602E0,-1.517068624E0,1.796966553E0
2.034979355E1,2.235855341E0,9.415599108E-1,1.585511804E0
2.037006236E1,1.229447365E0,2.561959028E0,1.212802649E0
2.039033121E1,8.508793265E-2,2.140780449E0,8.645945787E-1
2.041073121E1,-3.621896505E-1,8.925577998E-1,4.901544452E-1
2.043086882E1,-4.591286182E-1,6.178529188E-2,-7.323687524E-2
2.045113767E1,-6.379597783E-1,-6.713824272E-1,-4.869586527E-1
2.047140647E1,-8.558061719E-1,-1.049950480E0,-7.632613778E-1
2.049167527E1,-9.564735889E-1,-2.438122183E-1,-9.933583736E-1
2.051194408E1,-1.168327928E0,1.141696334E0,-1.098819494E0
2.053221293E1,-1.567668557E0,1.732251883E0,-9.885646701E-1
2.055248173E1,-1.693902373E0,5.033370852E-1,-4.352933466E-1
2.057275058E1,-1.501755476E0,-2.027196646E0,2.255695760E-1
2.059301939E1,-1.384576440E0,-2.168210983E0,3.368896246E-1
2.061328819E1,-1.861681342E0,-3.595264861E-3,2.042642981E-1
2.063355699E1,-2.328133583E0,6.768419147E-1,8.388951421E-2
2.065382585E1,-1.476721764E0,5.566002727E-1,-1.498026997E-1
2.067409465E1,-1.651158556E-2,-1.079245210E0,-6.297039986E-1
2.069436345E1,6.484792382E-2,-3.409509420E0,-9.331709743E-1
2.071463225E1,-8.579366803E-1,-3.780087948E0,-8.175898194E-1
2.073490111E1,-4.936165512E-1,-2.123869359E-1,3.075948656E-1
2.075516991E1,1.310940027E0,2.583796978E0,1.836913943E0
2.077543871E1,1.655020237E0,2.033188820E0,1.413072228E0
2.079570756E1,8.306393027E-1,1.352884769E-1,5.077312589E-1
2.081597632E1,-4.914860129E-1,-1.142095804E0,-2.323606312E-1
2.083624517E1,-1.331845880E0,-1.228382111E0,-7.558045387E-1
2.085651397E1,-1.507081747E0,-8.727172613E-1,-1.077514172E0
2.087678277E1,-8.201198578E-1,-9.265130758E-1,-1.179779530E0
2.089705158E1,-1.816274524E-1,-2.862896025E-2,-6.291713119E-1
2.091732038E1,2.976080179E-1,1.640772343E0,-1.121189967E-1
2.093758918E1,4.083954394E-1,2.881937504E0,5.406212807E-2
2.095785803E1,1.825595498E-1,2.314817905E0,-1.732385010E-1
2.097812684E1,7.922898233E-2,5.878923535E-1,-4.443480968E-1
2.099839564E1,-3.195791040E-3,-3.221091032E-1,-5.503418446E-1
2.101866444E1,9.201214463E-2,-8.269109130E-1,-6.115944982E-1
2.103893324E1,6.809697747E-1,-1.050483108E0,-6.499440074E-1
2.105920204E1,1.484578013E0,-9.515467286E-1,-4.363586307E-1
2.107947085E1,2.536792278E0,-1.048352599E0,1.110537350E-1
2.109973965E1,3.580484152E0,-1.361540079E0,8.049398661E-1
2.112000845E1,3.494730473E0,-2.781669617E0,1.406147957E0
2.114027725E1,2.943057060E0,-1.507481217E0,1.701092839E0
2.116054611E1,1.902560830E0,1.849430799E0,1.272990108E0
2.118081491E1,8.002793193E-1,2.767954350E0,6.147902608E-1
2.120108371E1,-4.687159881E-2,1.540637493E0,1.376853287E-1
2.122135251E1,-5.250418186E-1,4.697812796E-1,-5.352949724E-2
2.124162132E1,-6.432861090E-1,1.027979404E-1,-1.817606091E-1
2.126189007E1,-7.519429922E-1,-4.547344148E-1,-4.795017838E-1
2.128215892E1,-8.962861896E-1,1.771000773E-2,-9.006804228E-1
2.130242772E1,-1.263669014E0,1.520930171E0,-1.211071610E0
2.132269647E1,-1.872866631E0,2.736529112E0,-1.323989511E0
2.134296532E1,-2.359026432E0,1.711479187E0,-8.687224984E-1
2.136323413E1,-2.292979956E0,-1.462740183E0,-4.554001987E-2
2.138350293E1,-2.016677141E0,-3.185271502E0,3.565970063E-1
2.140377173E1,-2.090180397E0,-1.592036486E0,1.946769357E-1
2.142404053E1,-2.067277193E0,-5.952160433E-2,-1.551290154E-1
2.144430934E1,-1.163534164E0,4.330296814E-1,-5.785713196E-1
2.146457814E1,1.058605790E0,-4.993423447E-2,-9.076046348E-1
2.148484694E1,1.795501828E0,-8.109319210E-1,-5.966808200E-1
2.150511574E1,3.402185738E-1,-1.618668079E0,2.527337968E-1
2.152538454E1,-1.330247998E0,-1.653289199E0,1.171257377E0
2.154565335E1,8.423572183E-1,6.954839826E-1,1.834783435E0
2.156592215E1,1.959019780E0,-9.249151349E-1,5.412870646E-1
2.158619095E1,1.184706330E0,-2.106558800E0,-3.383543491E-1
2.160659095E1,-6.924213842E-3,-1.763543963E0,-3.346259296E-1
2.162672850E1,-1.009204149E0,-1.660479754E-1,-3.458112180E-1
2.164699730E1,-1.539039612E0,6.209155321E-1,-5.199818015E-1
2.166726611E1,-1.539572239E0,3.078611791E-1,-7.376950979E-1
2.168753491E1,-1.395229101E0,3.696464896E-1,-7.456845641E-1
2.170793491E1,-1.118793130E0,7.082671523E-1,-4.667186439E-1
2.172807251E1,-6.352965832E-1,1.036900997E0,-1.828258783E-1
2.174834132E1,-2.412822098E-1,1.453285933E0,1.304947957E-2
2.176861012E1,-3.515370190E-2,1.326519608E0,-1.540637612E-1
2.178887887E1,-1.145158410E-1,2.625874877E-1,-6.030724049E-1
2.180927887E1,-6.821681857E-1,-1.210272670E0,-1.038099408E0
2.182941647E1,-1.223188996E0,-2.454766989E0,-1.320261121E0
2.184968527E1,-1.227450013E0,-2.831737041E0,-1.301619053E0
2.186995408E1,-7.599324584E-1,-2.147438288E0,-6.913561225E-1
2.189022288E1,-1.246358454E-1,-1.615472317E0,-1.322258562E-1
2.191062288E1,7.049382329E-1,-2.127730846E0,2.841590643E-1
2.193076043E1,1.436108589E0,-2.719351768E0,1.111070037E0
2.195102923E1,1.547961235E0,-2.187385798E0,1.776193976E0
2.197129803E1,1.527721167E0,-4.451470375E-1,1.695233941E0
2.199156684E1,1.665672898E0,1.558747053E0,1.579120159E0
2.201196684E1,1.687377572E0,1.885117173E0,1.714408636E0
2.203210439E1,1.301352739E0,-2.475406379E-1,1.825728774E0
2.205237319E1,3.593933284E-1,-1.747565031E0,1.600958109E0
2.207264199E1,-5.287702680E-1,-1.951030374E0,1.328383803E0
2.209291079E1,-1.257277369E0,-1.795501828E0,1.070589900E0
2.211317954E1,-1.461808085E0,-1.141563177E0,7.729819417E-1
2.213344835E1,-1.388837457E0,-6.516750455E-1,5.455481410E-1
2.215371715E1,-1.428252220E0,-7.118624449E-1,4.171838760E-1
2.217398595E1,-1.778058171E0,-1.506415963E0,2.261022031E-1
2.219425470E1,-2.084321499E0,-2.342381477E0,1.339569092E-1
2.221452350E1,-1.974066734E0,-2.960101366E0,9.986846894E-2
2.223479230E1,-1.693369746E0,-3.390867233E0,-9.321057238E-3
2.225506111E1,-1.548094392E0,-2.973949671E0,-1.412805915E-1
2.227532986E1,-1.286039472E0,-2.409493208E0,2.111885101E-1
2.229559866E1,-5.809681416E-1,-2.305097342E0,8.624640703E-1
2.231586746E1,-2.641853690E-1,-2.211886883E0,8.358324766E-1
2.233613621E1,-2.615222335E-1,-2.038914680E0,8.502135277E-1
2.235640501E1,-7.109303474E-1,-1.513872743E0,2.442116886E-1
2.237667376E1,-1.467666984E0,-1.153813720E0,-7.515435219E-1
2.239694256E1,-1.887780309E0,-5.046686530E-2,-1.462473869E0
2.241721137E1,-3.621896505E-1,-5.520728827E-1,-1.372991681E0
2.243748012E1,3.988080621E-1,-2.321076393E0,-8.143940568E-1
2.245774892E1,-1.848232448E-1,-3.148120403E0,-3.985417485E-1
2.247801772E1,-1.300420642E0,-3.317896843E0,8.708529919E-2
2.249828647E1,-2.192845106E0,-2.464354277E0,2.868222296E-1
2.251855527E1,-2.426670551E0,-9.430246353E-1,2.271674722E-1
2.253882402E1,-2.208824158E0,5.438171029E-1,4.113249183E-1
2.255909282E1,-1.977262497E0,1.025183082E0,8.177229762E-1
2.257936158E1,-1.672064424E0,7.934882641E-1,9.811078310E-1
2.259963038E1,-8.856335878E-1,-1.500690132E-1,3.289001584E-1
2.261989913E1,-4.021370113E-1,3.840275407E-1,-2.909501195E-1
2.264016793E1,-1.416800618E-1,4.564654827E-1,-2.957438231E-1
2.266043668E1,-2.087916732E-1,-5.584644675E-1,7.723161485E-3
2.268070548E1,-5.484775901E-1,-1.255013704E0,1.249021590E-1
2.270097423E1,-9.511472583E-1,-1.260340095E0,-2.636527456E-2
2.272124298E1,-1.273789048E0,-6.293044686E-1,-2.435459048E-1
2.274151178E1,-1.300420642E0,8.600672483E-1,-1.822932363E-1
2.276178053E1,-8.147935271E-1,2.447443247E0,1.222390011E-1
2.278204934E1,-1.853558719E-1,1.724262357E0,2.537990510E-1
2.280231809E1,2.001364082E-1,-6.258423906E-3,9.028109163E-2
2.282258684E1,-3.142527863E-2,-7.241129875E-1,-1.663142890E-1
2.284285564E1,-6.464818716E-1,-8.487488031E-1,-3.740406930E-1
2.286312439E1,-1.177915215E0,-9.579383135E-1,-4.992091656E-1
2.288339319E1,-1.323323727E0,-1.281112671E0,-7.456845641E-1
2.290366194E1,-9.575388432E-1,-1.598428130E0,-8.655267358E-1
2.292393069E1,-1.640505940E-1,-1.495763302E0,-6.350302696E-1
2.294419949E1,6.314350367E-1,-1.340767503E0,-2.370211668E-2
2.296446824E1,1.102281570E0,-1.751293421E0,5.215796828E-1
2.298473704E1,1.375388503E0,-2.204429865E0,6.946850419E-1
2.300500579E1,1.522927523E0,-2.183124781E0,7.277082205E-1
2.302527454E1,1.686312318E0,-2.077264071E0,6.605966091E-1
2.304554335E1,1.943573475E0,-1.655419707E0,4.896217883E-1
2.306581210E1,2.073003054E0,-8.317046165E-1,4.720449448E-1
2.308608085E1,1.984586120E0,-5.664539337E-1,7.538071871E-1
2.310648085E1,1.575658083E0,-1.577655435E0,1.228781581E0
2.312661840E1,1.039430976E0,-2.507497549E0,1.595631719E0
2.314688715E1,4.898881316E-1,-2.544249058E0,1.709082365E0
2.316715595E1,-7.882951200E-2,-2.200168848E0,1.618002295E0
2.318742470E1,-5.511407852E-1,-1.918539762E0,1.350754261E0
2.320782470E1,-1.112401605E0,-1.690573454E0,1.141430020E0
2.322796220E1,-1.757285476E0,-1.463805437E0,1.347558498E0
2.324823095E1,-1.965544581E0,-1.187902093E0,1.801227689E0
2.326849975E1,-1.815342426E0,-1.526123285E0,1.728789687E0
2.328876850E1,-1.634780169E0,-2.357827902E0,1.367265940E0
2.330916850E1,-1.415469050E0,-2.955840349E0,1.084438443E0
2.332930600E1,-1.192829013E0,-3.342930555E0,8.384956717E-1
2.334957475E1,-1.173121572E0,-3.250785112E0,6.925545335E-1
2.336984355E1,-1.510810137E0,-2.409493208E0,4.906870723E-1
2.339011230E1,-1.876595020E0,-1.412140131E0,6.205160543E-2
2.341051230E1,-1.914411902E0,-7.411571741E-1,-3.047985733E-1
2.343064980E1,-1.585245490E0,-3.407512009E-1,-4.358259737E-1
2.345091855E1,-8.366314173E-1,-1.996037811E-1,-2.526006401E-1
2.347118730E1,7.989477366E-3,-8.008119464E-1,2.234390527E-1
2.349145605E1,4.261054471E-2,-7.539403439E-1,7.399587631E-1
2.351172486E1,-3.749727905E-1,-2.219743133E-1,7.090660930E-1
2.353199361E1,-9.005472660E-1,4.362254739E-1,5.885581672E-2
2.355226236E1,-1.320660591E0,9.889641404E-1,-5.130575895E-1
2.357253111E1,-5.532712936E-1,1.038632020E-1,-8.580698371E-1
2.359279986E1,6.079992056E-1,-9.494162202E-1,-3.974764943E-1
2.361306861E1,8.114646077E-1,-1.144758940E0,5.672528967E-2
2.363333736E1,2.800311744E-1,-1.267796874E0,-1.311605871E-1
2.365360605E1,-5.511407852E-1,-1.289634824E0,-5.013396740E-1
2.367387486E1,-1.253016353E0,-7.571361065E-1,-8.191877604E-1
2.369414361E1,-1.696032882E0,-1.637842879E-2,-1.155278444E0
2.371454361E1,-1.577255964E0,-2.608564198E-1,-1.187768936E0
2.373468111E1,-1.370728016E0,-1.225718975E0,-5.700492263E-1
2.375494986E1,-4.953476042E-2,8.243808746E-1,5.950828791E-1
2.377521861E1,2.874880135E-1,2.347841024E0,7.048050761E-1
2.379548736E1,-4.607265294E-1,7.119956017E-1,3.853591084E-1
2.381575611E1,-8.483493328E-1,-6.580666304E-1,1.105211005E-1
2.383602491E1,-8.664588332E-1,-1.011201501E0,-2.046637833E-1
2.385629361E1,-9.069388509E-1,-8.189214468E-1,-2.515353858E-1
2.387656241E1,-1.045289993E0,-4.739091694E-1,-1.158474237E-1
2.389683111E1,-1.138500571E0,2.545980215E-1,-3.062633052E-2
2.391709986E1,-9.719198942E-1,1.480450153E0,4.021370411E-2
2.393736861E1,-5.079975724E-1,1.692304492E0,3.283675313E-1
2.395763736E1,-2.876211889E-2,9.587372839E-2,6.339650154E-1
2.397790611E1,1.500690132E-1,-1.197489500E0,5.641902685E-1
2.399817486E1,2.556632832E-2,-1.472860098E0,3.065296113E-1
2.401844361E1,3.380880356E-1,-1.420662165E0,2.617885470E-1
2.403871236E1,1.328516960E0,-9.531446695E-1,4.267712533E-1
2.405898111E1,1.840775609E0,-2.411490530E-1,3.115896136E-2
2.407924986E1,1.552222252E0,1.715074480E-1,-3.037332892E-1
2.409951861E1,7.081339955E-1,-7.337003201E-2,-3.079943359E-1
2.411978730E1,-3.856254518E-1,-7.038729787E-1,-1.636511236E-1
2.414005611E1,-1.256744742E0,-1.150617838E0,-1.137168929E-1
2.416032475E1,-7.817703485E-1,-4.514054582E-2,-4.660528526E-2
2.418059355E1,4.829638898E-1,1.291898489E0,2.303632647E-1
2.420086230E1,6.612623930E-1,9.958883524E-1,4.368912578E-1
2.422113105E1,-3.834949061E-2,-3.934817612E-1,3.209106624E-1
2.424139975E1,-6.139913201E-1,-1.841308236E0,1.254348010E-1
2.426166850E1,-4.277033508E-1,-3.032539368E0,1.147821546E-1
2.428193725E1,5.037365556E-1,-4.119374275E0,1.360874325E-1
2.430220600E1,1.944638729E0,-4.911664486E0,3.374222517E-1
2.432247470E1,2.631067991E0,-3.662509441E0,1.151017308E0
2.434274350E1,2.688059568E0,-2.022669315E-1,1.461541772E0
2.436301225E1,3.004309893E0,3.867040157E0,1.137168884E0
2.438328095E1,2.810431719E0,3.531615257E0,9.928256869E-1
2.440354970E1,1.258209467E0,3.707117438E-1,1.041295171E0
2.442381845E1,-3.099917173E-1,-3.498059511E-1,7.229145169E-1
2.444408720E1,-8.648608923E-1,5.496760607E-1,2.964096069E-1
2.446435595E1,-9.282441139E-1,7.498124242E-1,-2.689790726E-2
2.448462465E1,-6.773745418E-1,4.681833684E-1,-3.937480748E-1
2.450502465E1,-4.175833464E-1,4.761728346E-1,-6.627271175E-1
2.452516215E1,-4.751075804E-1,1.131043673E0,-7.488803267E-1
2.454543090E1,-8.925577998E-1,1.437307000E0,-8.420909047E-1
2.456569960E1,-1.575658083E0,6.427534223E-1,-9.853688478E-1
2.458596835E1,-2.255695820E0,-5.973466039E-1,-9.805752039E-1
2.460636835E1,-2.733865976E0,-1.446761131E0,-7.792403698E-1
2.462650579E1,-2.740257502E0,-1.937714577E0,-6.568682194E-1
2.464677460E1,-2.052896261E0,-1.477653861E0,-6.705834866E-1
2.466704329E1,-1.495896459E0,-3.945470154E-1,-3.154512048E-1
2.468731204E1,-1.088433146E0,7.057371549E-3,7.217161357E-2
2.470771204E1,-3.259706795E-1,3.414169848E-1,1.861548275E-1
2.472784954E1,9.403614998E-1,1.644500732E0,-2.316948399E-2
2.474811829E1,2.131059885E0,3.723895311E0,-2.227732539E-1
2.476838699E1,2.094308376E0,2.742920637E0,1.137168929E-1
2.478865574E1,6.255760789E-1,-7.965508699E-1,3.699128032E-1
2.480905574E1,-7.034734488E-1,-1.719335556E0,-9.507478029E-2
2.482919319E1,-7.498124242E-1,2.103895694E-1,-6.446176767E-1
2.484946194E1,-2.077264041E-1,1.813744545E0,-4.980107397E-2
2.486973069E1,6.154560447E-1,1.783917069E0,9.242493510E-1
2.488999944E1,1.988847256E0,1.580584884E0,1.292697430E0
2.491026814E1,1.252883196E0,8.894951642E-2,2.340916842E-1
2.493053689E1,-6.555365920E-1,-1.691638708E0,-3.527354300E-1
2.495080564E1,-2.089115143E0,-2.038914680E0,-2.978743315E-1
2.497107434E1,-2.644916534E0,-1.324255824E0,-6.233124137E-1
2.499134308E1,-2.337188482E0,-5.494097471E-1,-6.206492186E-1
2.501153324E1,-1.213601589E0,2.037316747E-2,-1.956090331E-1
2.503188043E1,-5.060002208E-2,6.544713378E-1,1.419463754E-1
2.505214918E1,5.293028951E-1,1.313203812E0,2.319611609E-1
2.507241798E1,5.559344888E-1,9.713872671E-1,-5.406212807E-2
2.509268668E1,3.210438192E-1,-2.571280003E-1,-3.740406930E-1
2.511295543E1,1.234374270E-1,-9.845699072E-1,-5.071986318E-1
2.513322418E1,8.775109053E-2,-1.142095804E0,-5.407544374E-1
2.515349288E1,1.229047924E-1,-1.399356961E0,-5.034702420E-1
2.517376168E1,6.910897791E-2,-1.450489640E0,-5.636576414E-1
2.519403038E1,1.793637723E-1,-5.691171288E-1,-4.901544452E-1
2.521429913E1,6.277065873E-1,7.636608481E-1,-4.181159660E-2
2.523456783E1,9.361004233E-1,7.695198059E-1,1.552621722E-1
2.525483658E1,8.897614479E-1,-9.052077532E-1,1.808284968E-1
2.527510533E1,1.102814198E0,-2.090047359E0,5.514070988E-1
2.529537402E1,1.937181950E0,-2.471811056E0,9.444893599E-1
2.531564277E1,2.806170702E0,-3.399389505E0,1.381114364E0
2.533591147E1,3.305646181E0,-2.616154432E0,1.695233941E0
2.535618022E1,3.408444166E0,8.552735448E-1,1.393897533E0
2.537644892E1,2.725876570E0,3.742004871E0,1.053013086E0
2.539671767E1,1.452620149E0,1.611477613E0,7.442198396E-1
2.541698637E1,8.242477477E-2,-1.070190430E0,7.340998054E-1
2.543725512E1,-6.273071170E-1,-7.699192762E-1,4.459459782E-1
2.545752382E1,-1.010802031E0,1.592569202E-1,-3.308975101E-1
2.547779256E1,-1.136902571E0,3.653854430E-1,-8.729835749E-1
2.549806126E1,-7.897598147E-1,9.575388432E-1,-1.047686815E0
2.551833001E1,-6.113281846E-1,1.733849764E0,-1.034903646E0
2.553859871E1,-8.440882564E-1,2.364352703E0,-9.720530510E-1
2.555886746E1,-1.574060202E0,2.001763582E0,-7.355645299E-1
2.557913616E1,-2.266880989E0,8.387619853E-1,-4.608596861E-1
2.559940491E1,-2.500173807E0,-4.898881316E-1,-3.543333113E-1
2.561967361E1,-2.291382074E0,-1.218794823E0,-4.608596861E-1
2.563994236E1,-1.880856156E0,-5.803023577E-1,-4.747081101E-1
2.566021105E1,-1.578853846E0,3.281011879E-1,-7.376950979E-2
2.568047980E1,-1.171523690E0,3.984085917E-1,9.454214573E-2
2.570074850E1,-2.998717129E-1,6.081323624E-1,1.864211401E-3
2.572101725E1,1.178847432E0,2.099235058E0,-1.147821546E-1
2.574128595E1,2.126798868E0,3.194592476E0,3.009369783E-2
2.576155465E1,1.235306382E0,4.490086138E-1,2.916159332E-1
2.578182340E1,-2.071937770E-1,-2.399905920E0,-5.459476262E-2
2.580209210E1,-9.990841150E-1,-2.249703646E0,-6.574008465E-1
2.582236079E1,-1.150750995E0,2.247706354E-1,-2.398174703E-1
2.584262954E1,3.705785871E-1,2.589655876E0,1.232510090E0
2.586289824E1,2.287520409E0,1.769003391E0,1.534379125E0
2.588316699E1,1.714541793E0,-9.243825078E-1,3.784348965E-1
2.590343569E1,-1.384842768E-2,-2.882869720E0,-3.648528084E-2
2.592370439E1,-1.432513237E0,-2.607632160E0,-7.004108280E-2
2.594397309E1,-2.247706175E0,-1.104811549E0,-4.832302332E-1
2.596437309E1,-2.324405193E0,2.391516864E-1,-8.319709301E-1
2.598451053E1,-1.421860695E0,6.321008205E-1,-6.105292439E-1
2.600477928E1,-1.166463718E-1,1.024117827E0,5.725792050E-2
2.602504798E1,4.728438854E-1,1.806820273E0,4.581965208E-1
2.604531668E1,2.890859246E-1,1.532648087E0,3.166496158E-1
2.606558538E1,-5.965476483E-2,1.496695429E-1,-1.711079776E-1
2.608585413E1,-3.025348783E-1,-1.301885366E0,-5.178512931E-1
2.610625413E1,-3.627222776E-1,-1.931855559E0,-5.956155062E-1
2.612639152E1,-2.306295782E-1,-1.572861791E0,-5.487439036E-1
2.614666022E1,3.888212144E-2,-4.121238589E-1,-4.310323000E-1
2.616692897E1,2.315616906E-1,6.550039649E-1,-3.479417264E-1
2.618719767E1,2.603237927E-1,9.799094200E-1,-2.893522382E-1
2.620759767E1,3.535343707E-1,9.729851484E-1,-1.402153224E-1
2.622773506E1,5.197154880E-1,5.102612972E-1,6.684529036E-2
2.624800382E1,7.337003350E-1,-7.118624449E-1,1.792306006E-1
2.626827251E1,1.236904263E0,-2.237453222E0,4.416849315E-1
2.628854121E1,2.268878460E0,-3.115629911E0,7.159903049E-1
2.630894121E1,3.150783539E0,-3.395661116E0,9.640635848E-1
2.632907861E1,3.242396116E0,-2.663958073E0,1.115331054E0
2.634934736E1,3.010701418E0,8.835030198E-1,1.312937379E0
2.636961600E1,2.304564714E0,4.138682365E0,1.287903786E0
2.638988475E1,8.689888120E-1,1.904824495E0,9.635309577E-1
2.641028475E1,-3.515369892E-1,-4.105259776E-1,6.962829232E-1
2.643042215E1,-7.583345771E-1,-6.058686972E-2,2.319611609E-1
2.645069085E1,-7.945535183E-1,5.347623229E-1,-3.042659163E-1
2.647095960E1,-7.455514073E-1,3.771033287E-1,-7.930887938E-1
2.649122829E1,-6.214481592E-1,7.705850601E-1,-1.142495275E0
2.651149699E1,-6.566019058E-1,1.408544898E0,-1.349555850E0
2.653176569E1,-1.114532113E0,1.599227071E0,-1.262736917E0
2.655203439E1,-1.967675090E0,9.490167499E-1,-7.185203433E-1
2.657230314E1,-2.610428572E0,-6.772413850E-1,-1.556616426E-1
2.659257184E1,-2.635861635E0,-2.175135136E0,-1.105211005E-1
2.661284053E1,-2.497510672E0,-2.291249037E0,-2.957438231E-1
2.663310923E1,-2.474074841E0,-1.223588467E0,-3.921501637E-1
2.665337788E1,-2.088582516E0,-4.265049398E-1,-4.198470414E-1
2.667364663E1,-1.422126889E-1,9.570062160E-1,-1.364869028E-1
2.669391533E1,2.551705837E0,3.401653051E0,-4.234423116E-2
2.671418408E1,3.251451015E0,4.113648891E0,2.335590571E-1
2.673445277E1,8.077361584E-1,-2.715090811E-1,7.090660930E-1
2.675472147E1,-1.747698188E0,-4.488887787E0,3.576622605E-1
2.677499017E1,-2.495912790E0,-3.060236216E0,-7.334340215E-1
2.679525887E1,-1.871801376E0,9.202546477E-1,-8.080024719E-1
2.681552756E1,1.328516960E0,3.556116343E0,1.100417376E0
2.683579626E1,2.263552189E0,1.849963427E0,1.820402384E0
2.685606496E1,8.886961937E-1,-4.840291739E-1,7.458177209E-1
2.687633442E1,-1.111336350E0,-2.802442312E0,1.731053367E-2
2.689660275E1,-2.067277193E0,-3.063431978E0,-6.020070910E-1
2.691687145E1,-1.912814021E0,-1.903626084E0,-1.135038376E0
2.693714015E1,-1.198155284E0,-6.575340033E-1,-9.933583736E-1
2.695740884E1,-3.616569936E-1,4.346275628E-1,-3.101248741E-1
2.697763827E1,1.974732429E-1,1.154479504E0,1.888179779E-1
2.699794624E1,2.986733019E-1,1.683782339E0,2.245043069E-1
2.701821494E1,1.687111259E-1,1.258342624E0,2.902843431E-2
2.703848364E1,1.278316416E-2,-1.798963994E-1,-3.069290817E-1
2.705875233E1,-1.017326787E-1,-1.345028520E0,-6.812360883E-1
2.707902108E1,-2.024000883E-2,-1.297624230E0,-7.313035131E-1
2.709928978E1,2.118543088E-1,-2.352901101E-1,-3.846933246E-1
2.711955848E1,3.530017436E-1,4.655202031E-1,-1.860216707E-1
2.713982718E1,3.806985915E-1,2.237053663E-1,-2.419480085E-1
2.716009588E1,3.908185959E-1,-1.058605760E-1,-2.312953621E-1
2.718036457E1,5.596628785E-1,-4.567318037E-2,1.358211134E-2
2.720063327E1,1.000016212E0,-5.025381446E-1,2.777675092E-1
2.722090197E1,1.491502285E0,-2.074600935E0,5.593965650E-1
2.724117067E1,2.312554121E0,-3.623094797E0,1.095090985E0
2.726143936E1,2.831737041E0,-4.394079208E0,1.638774991E0
2.728170806E1,2.817888737E0,-2.382861614E0,1.556217074E0
2.730197676E1,2.923882484E0,1.934651971E0,8.587356806E-1
2.732224546E1,2.583131075E0,3.069423914E0,4.129228294E-1
2.734251416E1,1.456881166E0,-1.255679578E-1,2.878875136E-1
2.736278285E1,3.551322520E-1,-5.675191879E-1,4.018706977E-1
2.738305155E1,-5.383576155E-1,5.480781198E-1,3.448790908E-1
2.740332020E1,-1.111868978E0,1.294028997E0,9.028109163E-2
2.742358895E1,-1.158207893E0,1.681651831E0,-3.532680571E-1
2.744385759E1,-9.271788597E-1,2.024666786E0,-7.653919458E-1
2.746412629E1,-9.335704446E-1,1.987915158E0,-8.889625072E-1
2.748439504E1,-1.373391151E0,1.069924116E0,-7.792403698E-1
2.750466369E1,-1.904291868E0,-2.703106403E-2,-4.129228294E-1
2.752493239E1,-2.287653685E0,-6.831002831E-1,-6.844318658E-2
2.754520108E1,-2.345710516E0,-6.506097913E-1,-6.897582114E-2
2.756546978E1,-2.199769497E0,1.981390417E-1,-5.459476262E-2
2.758573848E1,-2.258891582E0,6.592650414E-1,1.251684781E-2
2.760613848E1,-2.020405769E0,-3.608580679E-2,-1.721732318E-1
2.762627588E1,-1.038898349E0,-5.504750013E-1,-3.692470193E-1
2.764654457E1,1.748630285E0,-3.502054140E-2,-3.106575012E-1
2.766681327E1,2.435592175E0,3.605917394E-1,-7.270424068E-2
2.768708197E1,-2.631201148E-1,-2.059687138E0,2.476738021E-2
2.770748197E1,-1.406946898E0,-1.193761110E0,-4.187817574E-1
2.772761937E1,4.589954615E-1,1.948500395E0,4.331628382E-1
2.774788801E1,2.690190077E0,2.495912790E0,1.401886940E0
2.776815671E1,1.976596713E0,5.857618451E-1,9.466199279E-1
2.778842541E1,-3.408843577E-1,-7.523424625E-1,6.844318658E-2
2.780882541E1,-2.129994631E0,-1.459544301E0,-3.447459340E-1
2.782896275E1,-2.693918705E0,-1.213468432E0,-9.273120165E-1
2.784923150E1,-2.243445158E0,-9.653951526E-1,-1.276585340E0
2.786950015E1,-1.186437368E0,-5.243760347E-1,-7.440866828E-1
2.788976890E1,-2.913496196E-1,4.948149621E-1,-2.094574571E-1
2.791016890E1,1.175784767E-1,1.397359610E0,4.127896577E-2
2.793030624E1,2.406164259E-1,1.844104528E0,6.578002870E-2
2.795057494E1,4.261054564E-3,8.968188167E-1,-1.227716357E-1
2.797084364E1,-2.316948473E-1,-6.303697824E-1,-4.246407151E-1
2.799111233E1,-2.087916732E-1,-7.246456146E-1,-6.775076985E-1
2.801151233E1,4.154528305E-2,-2.427469492E-1,-6.611292362E-1
2.803164968E1,2.826943398E-1,-2.699111700E-1,-4.890891612E-1
2.805191838E1,4.685828388E-1,1.416800618E-1,-4.304996729E-1
2.807218707E1,6.532729268E-1,9.388967156E-1,-3.122554123E-1
2.809245577E1,8.466182947E-1,1.025715709E0,-2.323606312E-1
2.811272447E1,8.615319729E-1,8.309056610E-2,-2.169143111E-1
2.813299312E1,5.415533781E-1,-1.177249432E0,-1.206411049E-1
2.815326181E1,3.125217259E-1,-2.316282511E0,2.530001104E-2
2.817353046E1,6.538055539E-1,-3.387138844E0,5.040028691E-1
2.819379921E1,1.360474825E0,-4.348272800E0,1.246891141E0
2.821419921E1,1.908952475E0,-4.284357071E0,1.684581280E0
2.823433655E1,2.592718601E0,-1.742238641E0,8.816388249E-1
2.825460525E1,3.252516270E0,2.261554718E0,-4.527370445E-3
2.827487395E1,2.992059231E0,2.653039217E0,-1.233042628E-1
2.829514265E1,1.362605333E0,1.113200486E-1,3.368896246E-1
2.831541134E1,-7.669898123E-2,1.001347825E-1,5.093291998E-1
2.833567999E1,-8.451535702E-1,1.351553202E0,2.617885470E-1
2.835594869E1,-1.020256281E0,1.902693987E0,7.962846011E-2
2.837621739E1,-9.277114868E-1,1.541170120E0,-5.725792050E-2
2.839648608E1,-6.773745418E-1,9.277114868E-1,-2.137185186E-1
2.841675473E1,-5.298355222E-1,6.741787195E-1,-4.155859649E-1
2.843702343E1,-7.812377214E-1,4.862928391E-1,-6.456829309E-1
2.845729213E1,-1.374456406E0,2.540653646E-1,-8.538088202E-1
2.847756077E1,-2.161952496E0,-4.087949172E-2,-7.685877085E-1
2.849782947E1,-2.835066080E0,-6.820350289E-1,-3.404848874E-1
2.851809817E1,-3.004975557E0,-1.251285315E0,1.664474458E-1
2.853836686E1,-2.649710178E0,-1.142095804E0,2.958769798E-1
2.855863551E1,-2.239184141E0,-5.142560005E-1,6.205160543E-2
2.857890421E1,-1.319595337E0,2.125200927E-1,-1.290300637E-1
2.859917291E1,1.263003230E0,9.016125202E-1,-2.573943138E-1
2.861944155E1,3.236004591E0,3.185537815E0,-5.546028614E-1
2.863971030E1,1.845036626E0,1.210405827E0,6.125265732E-3
2.866011030E1,-5.559344888E-1,-3.227881908E0,2.548643351E-1
2.868024765E1,-2.005491972E0,-4.393546581E0,-2.530001104E-2
2.870051634E1,-2.108689308E0,-1.105344176E0,-5.139897019E-2
2.872078499E1,2.821617126E0,4.724977016E0,1.909884572E0
2.874105369E1,3.848264933E0,1.544898629E0,1.463672280E0
2.876132239E1,6.522076726E-1,-2.995254993E0,-5.364934206E-1
2.878159103E1,-1.911216140E0,-3.801393270E0,-5.205144286E-1
2.880185973E1,-2.782868147E0,-1.449957013E0,-6.371608377E-1
2.882212843E1,-2.712560654E0,7.391598225E-1,-9.491499066E-1
2.884239712E1,-1.460210085E0,1.144892097E0,-7.462171912E-1
2.886266582E1,1.143826842E-1,5.102612972E-1,3.115896136E-2
2.888293447E1,8.412919641E-1,1.003877878E0,3.555317521E-1
2.890320317E1,7.496792674E-1,1.499092221E0,2.852243483E-1
2.892347187E1,-2.609895915E-2,1.090696812E0,-1.391500682E-1
2.894374051E1,-6.155892015E-1,3.653854430E-1,-5.663207769E-1
2.896400921E1,-6.091976166E-1,-3.679154217E-1,-9.752488732E-1
2.898427791E1,-3.696464896E-1,-1.056874633E0,-1.203215241E0
2.900467791E1,-3.046653867E-1,-1.207076907E0,-8.894951344E-1
2.902481525E1,-3.994738758E-1,-7.992140651E-1,-3.106575012E-1
2.904508395E1,-2.530001104E-1,2.545980215E-1,6.897582114E-2
2.906535265E1,2.081258893E-1,8.946883082E-1,4.767054692E-2
2.908562129E1,5.639239550E-1,-1.003211975E0,-8.255792782E-3
2.910600874E1,6.873613596E-1,-3.863178492E0,6.052029133E-1
2.912615864E1,6.037381887E-1,-5.067193031E0,1.575391769E0
2.914642733E1,4.589954615E-1,-5.376518726E0,1.638242364E0
2.916669603E1,7.422224283E-1,-3.394595861E0,5.769734383E-1
2.918696473E1,1.177249432E0,-8.349003643E-2,-2.818953991E-1
2.920736473E1,1.496295929E0,1.454351187E0,-2.318280041E-1
2.922765999E1,1.603354931E0,-9.041424841E-2,4.374238849E-1
2.924777134E1,1.508546472E0,-8.088014126E-1,1.285240531E0
2.926803994E1,4.222438633E-1,5.432844535E-2,1.654221296E0
2.928830853E1,-9.458209276E-1,3.020022511E-1,1.388038516E0
2.930870853E1,-1.864344478E0,2.679138184E-1,8.667251468E-1
2.932884577E1,-2.319611549E0,2.460758984E-1,3.592601717E-1
2.934911442E1,-2.524142265E0,-1.181111038E-1,8.016108721E-2
2.936938301E1,-2.485792637E0,-7.182540298E-1,1.251684781E-2
2.938965166E1,-2.193910360E0,-1.393497944E0,1.997369342E-2
2.941005166E1,-1.888312936E0,-2.215082645E0,-1.331579522E-3
2.943018895E1,-1.733849764E0,-2.561293364E0,-1.179779470E-1
2.945045759E1,-1.594300151E0,-2.465952158E0,-3.271690905E-1
2.947072629E1,-1.068193078E0,-3.585278034E0,-3.378217220E-1
2.949099494E1,-5.330312848E-1,-3.813111305E0,-9.773793817E-2
2.951126364E1,-3.057306707E-1,-1.858885050E0,1.653821766E-1
2.953153233E1,9.587372653E-3,5.990776420E-1,3.976096511E-1
2.955180098E1,5.687175989E-1,1.417066932E0,6.227797270E-1
2.957206962E1,8.002793193E-1,-1.000016257E-1,7.426218987E-1
2.959233832E1,4.424838722E-1,-1.973400950E0,4.677838981E-1
2.961260697E1,-7.556713820E-1,-2.266747952E0,1.304947957E-2
2.963287562E1,-1.611344457E0,-1.244361043E0,-6.737792492E-1
2.965314431E1,-1.679521322E0,-6.538055837E-2,-1.061535239E0
2.967341301E1,-1.168327928E0,3.254380524E-1,-1.972069293E-1
2.969368166E1,1.426121742E-1,1.901495606E-1,6.062681675E-1
2.971395035E1,7.134603262E-1,-9.307741374E-2,3.917506933E-1
2.973421905E1,1.857553422E-1,-5.510076284E-1,-1.295626909E-1
2.975448770E1,-8.531430364E-1,-8.114646077E-1,-2.536658943E-1
2.977475640E1,-1.882454038E0,-6.101297736E-1,-2.627206445E-1
2.979502504E1,-2.617352724E0,-8.988162130E-2,-3.026680350E-1
2.981529374E1,-2.789792299E0,2.796317041E-1,-4.097270370E-1
2.983556239E1,-2.088049889E0,-1.165132076E-1,-4.656533599E-1
2.985583108E1,-1.042094111E0,-6.655234694E-1,-4.225101769E-1
2.987609978E1,-5.878923535E-1,-7.422224283E-1,-2.850911915E-1
2.989636843E1,-6.273071170E-1,-5.078644156E-1,-2.472743243E-1
2.991663712E1,-8.249135613E-1,9.108003974E-2,-2.984069884E-1
2.993690577E1,-8.259788156E-1,9.900293946E-1,-3.111901283E-1
2.995717447E1,-4.941491783E-1,1.236504793E0,-2.680469751E-1
2.997744312E1,-1.800295562E-1,4.362254739E-1,-2.233058959E-1
2.999771181E1,-5.699160323E-2,-4.403533638E-1,-2.456764281E-1
3.001798046E1,-2.221074700E-1,-6.165213585E-1,-3.053312004E-1
3.003824916E1,-4.761728346E-1,-2.214416862E-1,-3.442133069E-1
3.005851780E1,-5.207807422E-1,8.255793154E-2,-3.905522823E-1
3.007878650E1,-2.759032845E-1,-1.102148414E0,-4.187817574E-1
3.009905515E1,8.721846342E-2,-2.373806953E0,-1.615206003E-1
3.011932384E1,4.046670198E-1,-2.898848772E0,4.013380706E-1
3.013959249E1,6.804371476E-1,-3.210305214E0,6.313018799E-1
3.015986119E1,1.086835265E0,-3.440402031E0,5.876260400E-1
3.018012983E1,1.709215522E0,-3.082073927E0,3.858917654E-1
3.020039853E1,2.283259392E0,-1.874863982E0,2.458095849E-1
3.022066718E1,2.383394241E0,-4.376901984E-1,5.593965650E-1
3.024093588E1,1.892440915E0,-6.484792233E-1,1.175518394E0
3.026120452E1,1.283775806E0,-1.818405032E0,1.519465446E0
3.028147322E1,8.902940750E-1,-2.454766989E0,1.628122330E0
3.030174186E1,4.451470375E-1,-2.856238127E0,1.654221296E0
3.032201056E1,-1.113200486E-1,-3.656117916E0,1.686179161E0
3.034227921E1,-4.898881316E-1,-4.264117241E0,1.497627497E0
3.036254791E1,-8.989493847E-1,-4.098069191E0,1.009869933E0
3.038281655E1,-1.354216456E0,-3.103379250E0,5.860281587E-1
3.040308525E1,-1.500157475E0,-1.501622319E0,5.024049878E-1
3.042335390E1,-1.378717422E0,-2.779006660E-1,8.209187984E-1
3.044362259E1,-1.173654199E0,-7.922898233E-2,1.163800478E0
3.046389124E1,-9.697893858E-1,-1.066994667E0,1.139832139E0
3.048415994E1,-9.490167499E-1,-2.357295275E0,7.942872047E-1
3.050442858E1,-9.852356911E-1,-2.953709841E0,5.290365815E-1
3.052469728E1,-9.681915045E-1,-2.645315886E0,5.093291998E-1
3.054496593E1,-1.097487807E0,-1.909485102E0,5.050681233E-1
3.056523463E1,-1.413871169E0,-9.558078051E-1,4.289017618E-1
3.058550327E1,-1.551290154E0,-2.747048736E-1,2.713759243E-1
3.060577192E1,-1.339835286E0,7.669898123E-2,2.316948399E-2
3.062604062E1,-8.621977568E-1,-1.340900660E-1,-6.657897960E-3
3.064630926E1,-3.813643754E-1,-8.769782782E-1,1.653821766E-1
3.066657796E1,-2.828274965E-1,-1.528786540E0,3.970770240E-1
3.068684660E1,-6.933534741E-1,-1.036634684E0,7.580682635E-1
3.070724660E1,-1.251418471E0,7.084003091E-2,9.560741186E-1
3.072738395E1,-1.405349016E0,8.771114349E-1,5.918871164E-1
3.074765259E1,-1.110270977E0,8.323704004E-1,2.841590643E-1
3.076792129E1,-1.677790284E-1,-4.776375890E-1,3.086601496E-1
3.078818994E1,8.791088462E-1,-2.695915937E0,4.848281145E-1
3.080858994E1,1.016527772E0,-2.962764502E0,5.364934206E-1
3.082872728E1,-2.918822467E-1,-1.582981825E0,-3.186469972E-1
3.084899593E1,-1.783384442E0,-5.973466039E-1,-1.141430020E0
3.086926463E1,-2.845185995E0,-5.062665343E-1,-1.316000104E0
3.088953327E1,-3.302051067E0,-1.337038994E0,-1.210538983E0
3.090993327E1,-2.838261843E0,-2.824280262E0,-9.331709743E-1
3.093007062E1,-1.652889729E0,-3.000581264E0,-5.993439555E-1
3.095033926E1,5.858949944E-2,-1.676458716E-1,2.724411786E-1
3.097060791E1,1.154878974E0,8.840356469E-1,4.182491302E-1
3.099087660E1,2.885532975E-1,-2.768353820E-1,7.122619152E-1
3.101127660E1,-1.478319645E0,-1.111735821E0,5.040028691E-1
3.103141390E1,-2.405365229E0,-9.680583477E-1,-1.089232042E-1
3.105168259E1,-2.297773600E0,-1.004277349E0,-3.330280483E-1
3.107195124E1,-1.423991203E0,-1.062733650E0,-2.062616795E-1
3.109221989E1,-5.138565302E-1,-7.848330140E-1,2.103895694E-2
3.111248858E1,-1.613874435E-1,-2.800311744E-1,1.968074590E-1
3.113275723E1,1.058605760E-1,5.012065172E-1,3.395527899E-1
3.115302588E1,7.731150985E-1,1.039031506E0,3.081275225E-1
3.117329452E1,1.050083637E0,-1.335574239E-1,1.174453199E-1
3.119356322E1,6.862961054E-1,-1.460609555E0,3.169159219E-2
3.121383187E1,2.885532975E-1,-1.368464351E0,4.713791609E-2
3.123410051E1,3.061301410E-1,-5.158539414E-1,1.067926809E-1
3.125436916E1,7.315698266E-1,2.652506530E-1,4.340949282E-2
3.127463785E1,8.460856676E-1,1.267663687E-1,-1.636511236E-1
3.129490650E1,3.242396116E-1,-5.062665343E-1,-2.621880174E-1
3.131517515E1,-3.526022732E-1,-9.110667109E-1,-3.724428117E-1
3.133544384E1,-6.763092279E-1,-9.201214910E-1,-4.587291479E-1
3.135571249E1,-2.689790726E-1,-1.756353378E-1,-2.483395934E-1
3.137598114E1,5.468797088E-1,2.024000883E-1,3.171822429E-1
3.139624978E1,1.365801096E0,-9.696562290E-1,9.109335542E-1
3.141651848E1,2.683265924E0,-2.677273750E0,1.446095347E0
3.143678713E1,3.296591520E0,-3.207109451E0,1.724528670E0
3.145705577E1,2.499507904E0,-1.951030374E0,1.300154328E0
3.147745577E1,2.169942141E0,8.350335360E-1,3.986749053E-1
3.149759301E1,2.209356785E0,1.184306860E0,-4.512723088E-1
3.151786176E1,1.379116893E0,-1.960085154E0,-3.596596420E-1
3.153813041E1,1.218395308E-1,-2.014946222E0,4.251733422E-1
3.155839905E1,-8.089345694E-1,1.134505793E-1,9.423588514E-1
3.157866770E1,-1.174186826E0,1.850496054E0,7.958850861E-1
3.159893634E1,-9.660609365E-1,3.305779457E0,2.665822208E-1
3.161920499E1,-8.169240355E-1,3.910183430E0,1.073253155E-1
3.163947369E1,-8.723177910E-1,3.697796345E0,5.139897019E-2
3.165974233E1,-8.861662149E-1,2.746116400E0,-2.728406489E-1
3.168001098E1,-1.030908942E0,1.009204149E0,-7.797729969E-1
3.170027962E1,-1.548094392E0,-1.435043335E0,-1.037034154E0
3.172054827E1,-2.011883497E0,-3.458511591E0,-8.575372100E-1
3.174081692E1,-2.309491634E0,-2.922284365E0,-3.996070325E-1
3.176108562E1,-2.469813824E0,-1.537974328E-1,6.205160543E-2
3.178135426E1,-2.346775770E0,7.498124242E-1,1.499358565E-1
3.180162291E1,-1.049018383E0,7.274419069E-1,-3.410175145E-1
3.182189155E1,9.217193723E-1,1.164066792E0,-9.219856858E-1
3.184216020E1,1.829057693E0,7.077345252E-1,-7.089329362E-1
3.186242884E1,5.069323182E-1,-2.889261246E0,2.383527458E-1
3.188269749E1,-1.360607982E0,-3.341332674E0,6.834998131E-1
3.190296619E1,-5.298355222E-1,1.917075038E0,1.074851036E0
3.192323483E1,3.197655201E0,4.340017319E0,2.600974321E0
3.194350348E1,1.075649977E0,-2.490453243E0,7.538071871E-1
3.196377213E1,-1.349955320E0,-5.724327564E0,-6.918887496E-1
3.198404077E1,-2.311622143E0,-3.713642120E0,-8.506129980E-1
3.200430942E1,-2.565687418E0,7.237134576E-1,-9.171919823E-1
3.202457806E1,-1.800428748E0,2.818021774E0,-6.435524225E-1
3.204484671E1,-2.929474972E-2,9.415599108E-1,1.946769357E-1
3.206511535E1,7.885614038E-1,6.657897681E-2,6.691187024E-1
3.208538400E1,4.137217700E-1,1.400821656E-1,3.688475490E-1
3.210565270E1,-5.607281327E-1,3.635212034E-2,-2.621880174E-1
3.212592134E1,-9.420925379E-1,-2.720417082E-1,-6.579334736E-1
3.214618994E1,-2.972085476E-1,-6.170539856E-1,-6.478134394E-1
3.216645864E1,6.926876903E-1,-2.107890397E-1,-5.631250143E-1
3.218672728E1,8.716519475E-1,2.551306486E-1,-4.454133511E-1
3.220712728E1,4.781702161E-1,3.946801722E-1,-2.126532495E-1
3.222726457E1,1.900164038E-1,4.996086359E-1,2.929474926E-3
3.224753322E1,3.316964805E-1,5.464802384E-1,-7.590003312E-2
3.226780186E1,1.037833095E0,5.858949944E-2,-3.852259517E-1
3.228807051E1,2.037316799E0,-1.595232248E0,-9.294424951E-2
3.230847051E1,2.929208755E0,-4.215780735E0,5.833650231E-1
3.232860780E1,3.494197845E0,-3.738010168E0,1.410409093E0
3.234887645E1,3.001646519E0,1.704421788E-1,1.814010859E0
3.236914509E1,3.297656775E0,3.816440105E0,8.773777485E-1
3.238941374E1,3.505915880E0,2.637060165E0,-4.394212365E-2
3.240981374E1,2.052762985E0,-1.279514790E0,-9.294424951E-2
3.242995103E1,6.079992056E-1,-1.546363354E0,3.400854170E-1
3.245021968E1,-2.157158852E-1,4.580633640E-1,3.837612271E-1
3.247048832E1,-7.013429403E-1,1.004943132E0,2.990727723E-1
3.249075697E1,-8.217177391E-1,6.443513632E-1,-2.370211668E-2
3.251102562E1,-5.032039285E-1,1.366466880E0,-5.945502520E-1
3.253129426E1,-5.079975724E-1,2.348373652E0,-7.494129539E-1
3.255156291E1,-1.076182604E0,3.298855066E0,-7.259771824E-1
3.257183155E1,-2.083256245E0,2.738126993E0,-6.472808123E-1
3.259210025E1,-2.834000826E0,1.327052236E0,-3.532680571E-1
3.261236884E1,-3.262636185E0,-1.926795542E-1,8.868319541E-2
3.263263754E1,-3.215231895E0,-6.111950278E-1,1.866874546E-1
3.265290614E1,-2.409093618E0,8.084019423E-1,6.657897960E-3
3.267317483E1,-1.778058171E0,1.272191048E0,-9.294424951E-2
3.269344343E1,-1.074052095E0,-6.484792382E-2,-1.412805915E-1
3.271384343E1,2.464753687E-1,-5.547360182E-1,-7.190529723E-3
3.273398077E1,1.560211778E0,1.046488404E0,-2.573943138E-1
3.275424936E1,1.293895841E0,2.230129480E0,-4.470112622E-1
3.277451801E1,4.057323039E-1,4.356928170E-1,-4.608596861E-1
3.279478666E1,-7.776424289E-2,-2.214017391E0,-2.952111959E-1
3.281505530E1,-4.223770201E-1,-2.987265587E0,-2.110553533E-1
3.283532395E1,-1.518000662E-1,-6.532729268E-1,2.370211668E-2
3.285559259E1,2.205628395E0,3.808583736E0,1.598827600E0
3.287586124E1,1.363137960E0,1.381380677E0,1.214933157E0
3.289612989E1,-7.583345771E-1,-2.620415449E0,-2.792322338E-1
3.291639853E1,-1.846767664E0,-3.108172894E0,-9.326383471E-1
3.293666718E1,-2.115081072E0,-1.869537711E0,-1.245692611E0
3.295693582E1,-1.495363832E0,-2.257027328E-1,-1.048752069E0
3.297720447E1,-2.812296152E-1,6.965492368E-1,-3.633880615E-1
3.299747306E1,4.259723127E-1,1.141696334E0,2.005358785E-1
3.301774171E1,4.414186180E-1,1.417599559E0,2.191779912E-1
3.303801035E1,5.060002208E-2,9.388967156E-1,-3.701791167E-2
3.305827900E1,-3.174485564E-1,-2.725743353E-1,-3.271690905E-1
3.307854765E1,-4.909533858E-1,-1.386573792E0,-6.083986759E-1
3.309881629E1,-2.865559161E-1,-1.300287485E0,-6.716487408E-1
3.311908494E1,2.395511568E-1,1.395495385E-1,-3.735080659E-1
3.313935358E1,7.406245470E-1,1.610412359E0,-2.663159103E-4
3.315962218E1,9.680583477E-1,2.149302483E0,9.667267650E-2
3.317989082E1,9.451551437E-1,1.461275458E0,-1.636511236E-1
3.320015947E1,9.930920005E-1,-2.587259114E-1,-3.585943878E-1
3.322042812E1,1.465403318E0,-2.076731443E0,2.423474751E-2
3.324069676E1,2.437190056E0,-3.563972712E0,8.507461548E-1
3.326096535E1,2.927078247E0,-4.230694771E0,1.591370702E0
3.328123395E1,2.860499144E0,-2.646913767E0,1.485510111E0
3.330150265E1,2.994722366E0,1.733317137E0,5.673860312E-1
3.332177129E1,2.666221619E0,4.066244602E0,9.081372619E-2
3.334203994E1,1.436641216E0,1.839310884E0,2.154495716E-1
3.336230853E1,1.452753246E-1,-5.366265774E-2,5.098618269E-1
3.338257718E1,-6.315681934E-1,3.371559381E-1,4.763059914E-1
3.340284582E1,-1.068725705E0,9.793767333E-1,2.484727502E-1
3.342311447E1,-1.160871029E0,1.082707286E0,-7.590003312E-2
3.344338312E1,-8.957535625E-1,1.242896318E0,-5.498092175E-1
3.346365171E1,-8.052061796E-1,1.670999169E0,-9.102677703E-1
3.348392035E1,-1.389902711E0,1.886182427E0,-1.029044628E0
3.350432035E1,-2.139581919E0,7.854987979E-1,-7.211834788E-1
3.352445765E1,-2.315350533E0,-1.763543963E0,6.151897460E-2
3.354472624E1,-2.102830410E0,-2.781669617E0,4.257059693E-1
3.356499489E1,-2.103363037E0,-8.434224725E-1,2.447443157E-1
3.358526353E1,-2.330264330E0,8.217177391E-1,-1.067926809E-1
3.360553218E1,-1.806287646E0,7.823029757E-1,-5.716471076E-1
3.362580077E1,4.633896798E-2,2.103895694E-1,-8.053393364E-1
3.364606942E1,1.327451706E0,2.609896064E-1,-7.760445476E-1
3.366633806E1,8.609993458E-1,6.097303033E-1,-2.898848653E-1
3.368660671E1,-5.181176066E-1,-5.680518150E-1,1.728390306E-1
3.370700671E1,-1.454883814E0,-2.279531002E0,-9.720530361E-2
3.372714395E1,-1.421860695E0,-7.448856235E-1,-2.094574571E-1
3.374741259E1,1.446228504E0,3.302051067E0,9.816404581E-1
3.376768124E1,2.521878481E0,2.437855959E0,1.228248954E0
3.378794983E1,1.178314686E0,-4.158523083E-1,2.676474750E-1
3.380834983E1,-5.021386743E-1,-2.222006798E0,-6.578002870E-2
3.382848712E1,-1.468732238E0,-2.068742037E0,-3.527354300E-1
3.384875572E1,-1.891508698E0,-1.033438921E0,-7.099981904E-1
3.386902436E1,-1.730654001E0,1.129179448E-1,-7.781751156E-1
3.388929301E1,-9.596694112E-1,8.712524772E-1,-4.480765164E-1
3.390969301E1,-1.278316416E-2,1.193361640E0,-4.527370445E-3
3.392983025E1,6.671213508E-1,1.916542411E0,1.749695539E-1
3.395009890E1,9.414267540E-1,2.085386753E0,1.259674281E-1
3.397036754E1,7.992140651E-1,9.863009453E-1,-1.684448123E-1
3.399063614E1,5.825660825E-1,-1.101216301E-1,-5.279712677E-1
3.401103614E1,5.644565821E-1,-5.233107805E-1,-6.360955238E-1
3.403117343E1,6.245108247E-1,-6.058686972E-2,-5.604618192E-1
3.405144202E1,6.420876384E-1,8.696545959E-1,-4.773712754E-1
3.407171067E1,7.704519033E-1,1.056608319E0,-2.568616867E-1
3.409197931E1,9.765804410E-1,6.155892015E-1,1.304947957E-2
3.411224796E1,1.260872722E0,-3.141196072E-1,4.779039025E-1
3.413251655E1,1.837047100E0,-1.819470286E0,1.167528987E0
3.415278520E1,2.866890669E0,-3.004842520E0,1.728257060E0
3.417305379E1,2.878076077E0,-4.048001766E0,1.545564413E0
3.419332244E1,2.436657429E0,-2.849313974E0,9.598025680E-1
3.421359108E1,2.004293442E0,3.036001325E-1,5.263733864E-1
3.423385973E1,1.659813881E0,2.397375822E0,4.874912798E-1
3.425412832E1,9.004141092E-1,7.460840344E-1,6.249102950E-1
3.427439697E1,-4.207791388E-2,-5.856286883E-1,7.745798230E-1
3.429466562E1,-7.269092798E-1,1.528653353E-1,7.175882459E-1
3.431493421E1,-1.137435198E0,4.825644195E-1,3.304980397E-1
3.433520285E1,-1.018125772E0,5.134570599E-1,-4.267712533E-1
3.435547150E1,-7.274419069E-1,1.023585200E0,-1.042360425E0
3.437574009E1,-8.169240355E-1,1.562475443E0,-1.269661069E0
3.439600874E1,-1.491102815E0,1.070989490E0,-1.176583648E0
3.441627739E1,-2.313220024E0,2.428801060E-1,-8.149266839E-1
3.443654598E1,-2.903242826E0,-6.751108170E-1,-5.295692086E-1
3.445681462E1,-3.049716711E0,-1.354615927E0,-5.269060135E-1
3.447708327E1,-2.663025856E0,-1.219327450E0,-6.105292439E-1
3.449735192E1,-1.942641377E0,-7.592666745E-1,-5.444828868E-1
3.451762051E1,-1.449557543E0,-3.721764982E-1,-1.009337306E-1
3.453788916E1,-1.055409908E0,-2.741722167E-1,1.499358565E-1
3.455815780E1,-2.428801060E-1,-1.782985032E-1,1.866874546E-1
3.457842640E1,1.674727559E0,1.299888015E0,3.145190775E-1
3.459869504E1,2.642786026E0,3.151982069E0,4.699144363E-1
3.461896369E1,1.116662621E0,1.350487947E0,3.853591084E-1
3.463923228E1,-4.452801943E-1,-1.968074560E0,-2.227732539E-1
3.465950093E1,-9.926925302E-1,-1.845569253E0,-7.291729450E-1
3.467976957E1,2.091911435E-1,8.973514438E-1,1.552621722E-1
3.470003817E1,2.305097342E0,2.016144514E0,1.244760513E0
3.472030681E1,1.621464372E0,-3.972101808E-1,5.652555227E-1
3.474057546E1,-3.701791167E-1,-2.016011477E0,-1.270326823E-1
3.476084410E1,-1.869670868E0,-1.606950164E0,-3.037332892E-1
3.478111270E1,-2.486857891E0,-1.303616315E-1,-6.844319105E-1
3.480138134E1,-2.224270582E0,1.009736776E0,-4.901544452E-1
3.482164999E1,-9.053409100E-1,1.104545236E0,3.755054250E-2
3.484191858E1,4.030691385E-1,1.117861032E0,1.616537571E-1
3.486218723E1,8.343677521E-1,1.588041782E0,1.358211134E-2
3.488245588E1,5.159870982E-1,1.298822641E0,-1.929458827E-1
3.490272452E1,-1.129179448E-1,-2.063948289E-2,-3.548659384E-1
3.492299317E1,-4.293012619E-1,-1.464870691E0,-5.348954797E-1
3.494326176E1,-2.386190593E-1,-1.818937659E0,-6.913561225E-1
3.496366176E1,9.787109494E-2,-1.195358992E0,-5.322323442E-1
3.498379905E1,2.555301189E-1,-1.122521535E-1,-1.476721764E-1
3.500406770E1,3.897533417E-1,1.069391489E0,7.962846011E-2
3.502433634E1,6.894918680E-1,1.596031308E0,2.103895694E-2
3.504460494E1,1.045822620E0,9.660609365E-1,-1.913479865E-1
3.506487358E1,1.209740043E0,-6.857634336E-2,-1.137168929E-1
3.508514223E1,1.366866350E0,-1.535178065E0,2.282327414E-1
3.510541088E1,2.306162596E0,-2.983537197E0,5.780386925E-1
3.512567947E1,3.624160051E0,-4.305130005E0,9.933583736E-1
3.514594812E1,3.808450699E0,-4.322174072E0,1.560478091E0
3.516621676E1,3.457446337E0,-1.276851654E0,1.801227689E0
3.518648535E1,2.692320585E0,2.509761095E0,1.943972945E0
3.520688535E1,1.854624033E0,3.483678341E0,1.667004466E0
3.522702265E1,7.512772083E-1,4.500738978E-1,6.201165915E-1
3.524729124E1,-4.506065249E-1,-9.680583477E-1,2.263685316E-2
3.526755989E1,-1.412805915E0,-6.681866050E-1,-4.166512489E-1
3.528782853E1,-1.863279223E0,-1.175784767E-1,-6.897581816E-1
3.530822853E1,-1.635845423E0,7.402250767E-1,-7.957519293E-1
3.532836582E1,-1.209340572E0,1.429317474E0,-9.598025680E-1
3.534863442E1,-1.007606268E0,2.126399279E0,-1.161137342E0
3.536890306E1,-1.403751135E0,2.667952776E0,-1.228115797E0
3.538917171E1,-2.329731464E0,1.619467020E0,-6.605966091E-1
3.540957171E1,-3.020954609E0,-7.986814380E-1,-7.989477599E-4
3.542970900E1,-3.310040474E0,-2.431863785E0,2.396843163E-3
3.544997759E1,-3.332411051E0,-2.428668022E0,-3.143859208E-1
3.547024624E1,-2.985268116E0,-1.882320881E0,-6.153228879E-1
3.549051483E1,-1.412273288E0,-6.532729268E-1,-5.583313107E-1
3.551078348E1,1.290700078E0,2.196573734E0,-2.744385600E-1
3.553105212E1,2.724811316E0,3.753190041E0,-1.689774394E-1
3.555132077E1,1.799230337E0,1.869670868E0,-3.488738462E-2
3.557158942E1,5.113265663E-2,-9.387635589E-1,-1.476721764E-1
3.559185801E1,-9.202546477E-1,-2.579402685E0,-7.323687524E-2
3.561212666E1,1.836248189E-1,-2.619217038E-1,4.550007284E-1
3.563239530E1,2.129462004E0,2.546512842E0,9.008135796E-1
3.565266395E1,7.986814380E-1,-1.096289396E0,1.387505829E-1
3.567293254E1,-9.628651738E-1,-2.815758228E0,5.938844755E-2
3.569320114E1,-2.096971512E0,-1.625059724E0,9.827057272E-2
3.571346983E1,-2.583264351E0,-1.159805804E-1,-2.717753947E-1
3.573373848E1,-2.225868464E0,5.826992393E-1,-4.704470634E-1
3.575400707E1,-1.054877281E0,7.290397882E-1,-3.404848874E-1
3.577427572E1,-1.155811027E-1,9.394294024E-1,-2.478069514E-1
3.579454436E1,3.961449265E-1,1.063532591E0,-2.547311783E-1
3.581481296E1,2.816290855E-1,5.161202550E-1,-1.822932363E-1
3.583508160E1,-2.146506310E-1,-5.744433999E-1,-2.131858915E-1
3.585535025E1,-5.569997430E-1,-1.487241149E0,-6.105292439E-1
3.587561890E1,-5.825660825E-1,-1.552222252E0,-8.159919381E-1
3.589588749E1,-2.844253778E-1,-8.588688374E-1,-6.472808123E-1
3.591615614E1,1.580584943E-1,-9.680583328E-2,-2.653838098E-1
3.593642478E1,3.668501675E-1,2.849580348E-1,-1.275653243E-1
3.595669338E1,2.858901322E-1,1.155811027E-1,-4.427502155E-1
3.597696202E1,7.976161689E-2,-6.293044686E-1,-6.238450408E-1
3.599723067E1,-5.326318205E-4,-1.633049130E0,-2.355564237E-1
3.601749931E1,2.960101366E-1,-2.586327076E0,4.981439114E-1
3.603776791E1,1.138900042E0,-3.177415133E0,1.190432072E0
3.605803655E1,2.017609358E0,-3.375953674E0,1.861947656E0
3.607830520E1,2.399905920E0,-2.787528515E0,2.069008350E0
3.609857379E1,2.412688971E0,-1.033971548E0,1.612143397E0
3.611884244E1,2.047436714E0,7.988145947E-1,1.268728971E0
3.613911108E1,1.599626541E0,1.396826982E0,7.095987201E-1
3.615937973E1,8.929572701E-1,-1.028778315E0,3.012032807E-1
3.617964832E1,-3.483411968E-1,-1.798165083E0,7.452850938E-1
3.619991697E1,-1.475656509E0,-1.422792792E0,1.021587849E0
3.622018562E1,-2.009220362E0,-8.950877786E-1,9.550088644E-1
3.624045421E1,-1.936249852E0,-4.584628344E-1,5.583313107E-1
3.626072285E1,-1.818005562E0,-2.821617126E-1,1.573926955E-1
3.628099150E1,-1.967142463E0,-4.110586047E-1,-1.571263932E-2
3.630126009E1,-2.338253736E0,-7.795066833E-1,-2.849580161E-2
3.632152869E1,-2.676341772E0,-8.130624890E-1,9.294424951E-2
3.634179739E1,-2.870219707E0,-6.740455627E-1,2.090579867E-1
3.636206598E1,-2.862762928E0,-1.053678870E0,1.483379602E-1
3.638233463E1,-2.265283108E0,-2.445179462E0,-1.556616426E-1
3.640260327E1,-1.305746913E0,-3.475023270E0,-5.918871164E-1
3.642287192E1,-5.522060394E-1,-2.769419193E0,-7.158571482E-1
3.644314051E1,1.394163817E-1,-1.399356961E0,-4.741754830E-1
3.646340916E1,1.185238957E0,-7.049382329E-1,-1.041295230E-1
3.648367775E1,1.550624371E0,7.657914162E-1,2.689790726E-2
3.650394640E1,3.221091032E-1,-4.977444410E-1,2.601906359E-1
3.652421504E1,-1.084172130E0,-2.312554121E0,1.430116445E-1
3.654448364E1,-1.381380677E0,-1.893506169E0,-7.605982423E-1
3.656475228E1,-1.609746575E0,-9.147951603E-1,-4.752407372E-1
3.658502093E1,-5.432844535E-2,7.189198136E-1,1.419463754E-1
3.660528952E1,1.389769554E0,1.101349473E0,4.645881057E-1
3.662555817E1,9.227846265E-1,-5.158539414E-1,6.094639897E-1
3.664582676E1,-6.352965832E-1,-1.338104248E0,4.624575675E-1
3.666609541E1,-2.085919380E0,-1.061135769E0,-8.815056831E-2
3.668636405E1,-3.154112577E0,-5.520728827E-1,-4.438154697E-1
3.670676405E1,-3.571562767E0,-5.861613154E-1,-4.443480968E-1
3.672690129E1,-2.927211285E0,-1.228382111E0,-3.154512048E-1
3.674716989E1,-1.404816389E0,-1.508546472E0,-3.761712313E-1
3.676743853E1,-4.767054915E-1,-6.969487667E-1,-4.496744275E-1
3.678770713E1,-4.303665161E-1,-3.647196293E-1,-3.298322558E-1
3.680810712E1,-7.077345252E-1,-1.964079887E-1,-2.062616795E-1
3.682824442E1,-9.127978086E-1,-4.407528415E-2,-1.727058738E-1
3.684851301E1,-9.367662072E-1,7.590003312E-3,-1.233042628E-1
3.686878166E1,-7.492797971E-1,8.894951642E-2,-5.086633936E-2
3.688905025E1,-5.175849795E-1,3.696464896E-1,5.992107838E-2
3.690945025E1,-4.458128214E-1,8.430230021E-1,-4.926844314E-2
3.692958754E1,-6.113281846E-1,1.101349473E0,-2.824280262E-1
3.694985614E1,-8.792420030E-1,6.225134134E-1,-3.894870281E-1
3.697012478E1,-9.159935713E-1,-2.592585385E-1,-5.865607858E-1
3.699039338E1,-6.566019058E-1,-1.335973740E0,-8.612656593E-1
3.701079338E1,-5.522060394E-1,-1.961683035E0,-9.139962196E-1
3.703093067E1,-5.980123878E-1,-1.468066454E0,-6.036050320E-1
3.705119926E1,-4.165180922E-1,-8.178561330E-1,-8.442214131E-2
3.707146791E1,1.042626798E-1,-8.418245912E-1,4.816323221E-1
3.709173650E1,7.352982163E-1,-1.427053809E0,6.126597524E-1
3.711200515E1,1.115064740E0,-2.192712069E0,4.560659826E-1
3.713227374E1,1.357279062E0,-2.686328650E0,2.617885470E-1
3.715254239E1,1.629986525E0,-2.740657091E0,9.614004195E-2
3.717281098E1,1.784849286E0,-2.374872208E0,2.751043439E-1
3.719307962E1,1.794969201E0,-1.252350569E0,6.424871087E-1
3.721347963E1,1.690040708E0,-4.494080842E-1,1.115331054E0
3.723361686E1,1.394030690E0,-1.018658400E0,1.464204907E0
3.725388551E1,1.100151062E0,-1.676192284E0,1.576457024E0
3.727415410E1,8.066709042E-1,-2.242246866E0,1.508280158E0
3.729442275E1,2.427469492E-1,-2.788594007E0,1.259674311E0
3.731469134E1,-4.330296814E-1,-2.758233786E0,1.021055222E0
3.733495999E1,-1.164066792E0,-2.454234362E0,8.965525031E-1
3.735522858E1,-1.763144493E0,-2.052230358E0,8.986830115E-1
3.737549723E1,-2.103363037E0,-1.744369268E0,9.970867634E-1
3.739576582E1,-2.061950922E0,-1.880723000E0,1.164333105E0
3.741603447E1,-1.597496033E0,-2.272606850E0,1.172322631E0
3.743630306E1,-1.066595197E0,-2.476604700E0,8.970851302E-1
3.745657171E1,-7.359640002E-1,-2.650109529E0,5.434176326E-1
3.747684030E1,-6.060018539E-1,-2.889261246E0,4.491417706E-1
3.749710895E1,-6.869618893E-1,-2.625209093E0,5.487439036E-1
3.751737754E1,-8.179892898E-1,-1.834383965E0,5.689839721E-1
3.753764619E1,-9.378314614E-1,-8.498140574E-1,4.352933466E-1
3.755791478E1,-9.910946488E-1,-5.206476152E-2,1.973400861E-1
3.757818338E1,-9.202546477E-1,2.889527567E-2,1.677790284E-2
3.759845202E1,-6.954839826E-1,-5.882918239E-1,-2.956106514E-2
3.761872062E1,-3.733749092E-1,-1.340234876E0,1.675127149E-1
3.763898926E1,-1.800295562E-1,-1.412672758E0,6.520745158E-1
3.765925785E1,-4.909533858E-1,-4.893554747E-1,1.228248954E0
3.767952650E1,-9.602020383E-1,2.942790836E-2,1.295893192E0
3.769979509E1,-1.088433146E0,-1.111868918E-1,5.652555227E-1
3.772006374E1,-1.100683689E0,-5.962813497E-1,1.360874325E-1
3.774033233E1,-1.058073163E0,-9.914941192E-1,-3.542001545E-2
3.776060098E1,-1.173654199E0,-9.558078051E-1,-4.422175586E-1
3.778086957E1,-1.289767981E0,-1.408411741E0,-7.536740303E-1
3.780113822E1,-3.472759426E-1,-2.035186291E0,-3.282343447E-1
3.782140676E1,-5.858949944E-2,-1.690573454E0,-1.460742801E-1
3.784167546E1,-4.612591565E-1,-1.221990585E0,-4.901544452E-1
3.786194405E1,-1.055409908E0,-1.034504175E0,-7.893603444E-1
3.788221265E1,-1.449557543E0,-1.387106419E0,-9.661940932E-1
3.790248129E1,-1.484178543E0,-1.811480880E0,-1.175518394E0
3.792274989E1,-1.324921608E0,-2.227865696E0,-1.176051021E0
3.794301853E1,-1.310007930E0,-2.363686800E0,-6.988129616E-1
3.796328712E1,-1.529984951E0,-1.593101740E0,-1.091895252E-2
3.798355572E1,-1.045822620E0,1.169393182E0,4.171838760E-1
3.800395572E1,-2.130527347E-1,2.308426380E0,4.880239069E-1
3.802409296E1,-2.769685537E-2,6.693850160E-1,6.270408034E-1
3.804436160E1,-1.986716688E-1,-2.938795984E-1,3.938812315E-1
3.806463020E1,-4.660528302E-1,-3.940143883E-1,5.592633970E-3
3.808489879E1,-6.858966351E-1,-4.977444410E-1,-9.773793817E-2
3.810516744E1,-7.892271876E-1,-7.065361142E-1,-7.217161357E-2
3.812543603E1,-8.446208835E-1,-6.751108170E-1,-5.992107838E-2
3.814570468E1,-8.403598666E-1,-2.277000993E-2,-7.643266767E-2
3.816597327E1,-4.751075804E-1,1.134772062E0,4.607265070E-2
3.818624186E1,9.946899116E-2,6.257092357E-1,2.937464416E-1
3.820664186E1,4.174501896E-1,-6.319676638E-1,2.745717168E-1
3.822677910E1,3.476754129E-1,-9.014793634E-1,1.312937438E-1
3.824704770E1,2.241048366E-1,-8.700540662E-1,9.933583438E-2
3.826731634E1,3.316964805E-1,-7.544729710E-1,9.347688407E-2
3.828758489E1,8.668583035E-1,-5.968139768E-1,1.296958476E-1
3.830798489E1,1.232110500E0,-6.181192398E-1,1.211737394E-1
3.832812218E1,9.680583477E-1,-7.885614038E-1,-8.016108721E-2
3.834839077E1,3.066627681E-1,-1.006407857E0,-3.090596199E-1
3.836865936E1,-3.478085697E-1,-1.361007452E0,-3.804322779E-1
3.838892801E1,-5.048018098E-1,-1.296026349E0,-4.837628603E-1
3.840932801E1,-1.491369121E-2,-3.780354261E-1,-3.399522603E-1
3.842946520E1,6.106624007E-1,8.472840786E-1,-5.139897019E-2
3.844973379E1,7.102645040E-1,1.542768121E0,1.547295451E-1
3.847000239E1,3.593933284E-1,1.001747251E0,2.798980176E-1
3.849027103E1,7.550056279E-2,-8.349003792E-1,2.857569754E-1
3.851053962E1,2.043974549E-1,-3.012299299E0,2.969422340E-1
3.853080827E1,9.803088903E-1,-4.680635452E0,7.181208730E-1
3.855107686E1,1.739575505E0,-4.007521629E0,1.553553820E0
3.857134546E1,1.884451389E0,-1.618135452E0,1.864610791E0
3.859161410E1,2.314152002E0,1.846767664E0,1.152615309E0
3.861188270E1,2.404699564E0,2.922950268E0,1.478053331E-1
3.863215129E1,1.655552864E0,6.870950758E-2,-8.442214131E-2
3.865241989E1,5.367597342E-1,-9.329046607E-1,3.507380486E-1
3.867268853E1,-2.636527419E-1,3.552654386E-1,6.020070910E-1
3.869295712E1,-5.319660306E-1,1.145957351E0,8.544746041E-1
3.871322572E1,-8.255793154E-2,1.519332290E0,6.435524225E-1
3.873349437E1,4.440817833E-1,1.541170120E0,2.527337968E-1
3.875376296E1,3.806985915E-1,1.181111097E0,5.086633936E-2
3.877403155E1,-1.390169114E-1,3.206443489E-1,-1.073253155E-1
3.879430015E1,-5.942839384E-1,-3.434143662E-1,-3.351585865E-1
3.881456879E1,-8.355661631E-1,-6.266413331E-1,-5.892239809E-1
3.883483739E1,-9.729851484E-1,-6.090644598E-1,-7.632613778E-1
3.885510598E1,-1.064997315E0,-7.283740491E-2,-8.351666927E-1
3.887537462E1,-1.104412079E0,3.723096550E-1,-8.426235318E-1
3.889564322E1,-1.213601589E0,4.484759867E-1,-7.179877162E-1
3.891591181E1,-1.450090170E0,1.038632020E-1,-9.986846894E-2
3.893618041E1,-1.537974358E0,-2.518016994E-1,5.759081841E-1
3.895644905E1,-1.377119541E0,5.044023395E-1,5.609944463E-1
3.897671765E1,-1.115064740E0,1.657283902E0,2.889527678E-1
3.899698624E1,-4.575307369E-1,2.273805141E0,1.664474458E-1
3.901725489E1,2.890859246E-1,2.007622480E0,4.527370445E-3
3.903752348E1,8.705866933E-1,1.641304970E0,-2.403501123E-1
3.905779207E1,9.361004233E-1,4.554001987E-1,-1.647163928E-1
3.907806067E1,2.422143221E-1,-1.226784229E0,2.796317078E-2
3.909832931E1,-6.725808382E-1,-1.415868521E0,-1.886848211E-1
3.911859791E1,-1.186969995E0,-5.856286883E-1,-3.032006621E-1
3.913886650E1,-1.203481555E0,8.735162020E-2,-1.886848211E-1
3.915913515E1,-5.303681493E-1,7.034734488E-1,1.259674281E-1
3.917940374E1,1.464338064E0,1.352618456E0,8.225166798E-1
3.919967233E1,1.697497606E0,8.797746301E-1,9.534109831E-1
3.921994093E1,3.311638236E-1,-6.772413850E-1,3.235738277E-1
3.924020957E1,-4.687159956E-1,-2.456364870E0,-2.456764281E-1
3.926047817E1,-6.544713378E-1,-2.821084499E0,-6.886929274E-1
3.928074676E1,-8.030756116E-1,-2.117078304E0,-6.052029133E-1
3.930101535E1,-1.036767840E0,-3.471427858E-1,-1.961416751E-1
3.932128400E1,-1.366999626E0,1.618934393E0,1.344895363E-1
3.934155259E1,-1.283908963E0,2.484194756E0,1.259674281E-1
3.936182119E1,-6.800376773E-1,1.952228785E0,1.179779470E-1
3.938208978E1,-2.082590461E-1,1.171523690E0,-1.864211401E-3
3.940235838E1,-3.105243444E-1,7.231808305E-1,-2.424806356E-1
3.942262702E1,-6.869618893E-1,-1.298290044E-1,-3.490070105E-1
3.944289562E1,-7.961513996E-1,-1.359942198E0,-3.969438672E-1
3.946316421E1,-4.495412707E-1,-1.601091266E0,-5.423523784E-1
3.948343280E1,7.443529367E-2,-7.853656411E-1,-5.034702420E-1
3.950370140E1,5.111933947E-1,2.356895804E-2,-2.962764502E-1
3.952397004E1,7.539403439E-1,2.759032845E-1,-7.376950979E-2
3.954423864E1,8.641951084E-1,4.740423262E-1,-2.210422046E-2
3.956450723E1,8.711193204E-1,5.592634082E-1,-9.187898785E-2
3.958477582E1,6.463487148E-1,1.736379713E-1,-1.567269117E-1
3.960504442E1,2.757701278E-1,-4.755070508E-1,-2.158490419E-1
3.962531306E1,1.585911214E-1,-1.145824194E0,-6.205160543E-2
3.964558166E1,3.434143662E-1,-1.510676980E0,-3.462106921E-3
3.966585025E1,6.042708158E-1,-1.914278746E0,-1.604553312E-1
3.968611890E1,1.177782059E0,-2.755038023E0,-3.275685757E-2
3.970651890E1,2.250236273E0,-3.749727964E0,6.648576856E-1
3.972665608E1,2.784865379E0,-4.008586884E0,1.525856972E0
3.974692468E1,2.528802633E0,-2.173537254E0,1.721865535E0
3.976719327E1,2.863162279E0,2.450106382E0,1.253282666E0
3.978746187E1,3.377018929E0,4.270242691E0,8.038745522E-1
3.980786186E1,2.286455154E0,1.065263674E-1,3.342264593E-1
3.982799910E1,5.809681416E-1,-1.017593145E0,2.463422120E-1
3.984826770E1,-3.419496417E-1,8.579366803E-1,2.902843431E-2
3.986853629E1,-8.430230021E-1,1.770601273E0,-2.370211668E-2
3.988880489E1,-6.347639561E-1,1.259407997E0,-1.464737486E-2
3.990920489E1,5.326318205E-4,1.276452184E0,-2.387522161E-1
3.992934207E1,5.912213027E-2,1.647696495E0,-5.024049878E-1
3.994961072E1,-5.436839461E-1,1.797765493E0,-7.419561148E-1
3.996987931E1,-1.395761728E0,1.000681996E0,-9.145288467E-1
3.999014791E1,-1.947435141E0,4.221107066E-2,-9.108003974E-1
4.001054791E1,-2.193377733E0,-4.126565158E-1,-7.637940049E-1
4.003068509E1,-2.164083004E0,-5.179844499E-1,-5.908218622E-1
4.005095369E1,-1.810548663E0,-1.410142779E-1,-3.575291038E-1
4.007122228E1,-1.330247998E0,3.741738573E-2,-1.358211134E-2
4.009149088E1,-9.761809707E-1,-2.193111479E-1,1.760348231E-1
4.011175947E1,-9.793767333E-1,-1.165132076E-1,1.344895363E-1
4.013202812E1,-1.018658400E0,4.356928170E-1,2.956106514E-2
4.015229671E1,-3.765707016E-1,1.191763639E0,2.303632647E-1
4.017256530E1,1.494698048E0,2.080593109E0,1.552621722E-1
4.019283390E1,1.400954843E0,1.853558719E-1,-8.388951421E-2
4.021310249E1,-4.388886094E-1,-2.255562544E0,-2.073269337E-1
4.023337108E1,-1.559679151E0,-2.100167274E0,-6.265081763E-1
4.025363968E1,-1.674194932E0,-4.945486486E-1,-8.458193541E-1
4.027390827E1,-2.066611499E-1,8.696545959E-1,1.536642760E-1
4.029417687E1,2.212019920E0,1.271658421E0,1.378451109E0
4.031444546E1,1.607083321E0,-3.860249221E-1,5.609944463E-1
4.033471410E1,-2.695116997E-1,-2.323739529E0,-1.567269117E-1
4.035498270E1,-1.792971849E0,-2.389253139E0,-2.478069514E-1
4.037525124E1,-2.207758904E0,-1.052613616E0,-6.222470999E-1
4.039551989E1,-1.647030711E0,-2.784332931E-1,-4.960133731E-1
4.041578848E1,-4.644549489E-1,1.672463864E-1,8.229161799E-2
4.043605707E1,2.917490900E-1,8.078693151E-1,3.416832983E-1
4.045632567E1,5.095955133E-1,1.483113289E0,2.197106332E-1
4.047659426E1,3.466101587E-1,1.457014322E0,1.518000662E-2
4.049686285E1,8.522109129E-3,4.814991653E-1,-2.515353858E-1
4.051713145E1,-2.396843135E-1,-5.781718493E-1,-5.641902685E-1
4.053740004E1,-2.545980215E-1,-1.094158888E0,-6.727139950E-1
4.055766864E1,1.597895473E-2,-8.625972271E-1,-4.502070546E-1
4.057793723E1,2.997385561E-1,-1.266332120E-1,-2.419480085E-1
4.059820582E1,4.291680753E-1,6.837661266E-1,-1.423458606E-1
4.061847442E1,5.095955133E-1,1.186437368E0,2.316948399E-2
4.063874301E1,5.932186842E-1,8.909598589E-1,1.680453420E-1
4.065901160E1,6.154560447E-1,-6.644582003E-2,6.578002870E-2
4.067928020E1,8.956204057E-1,-1.099485278E0,3.091927767E-1
4.069954874E1,2.116678953E0,-2.286455154E0,8.699209094E-1
4.071981739E1,3.692337036E0,-3.742803812E0,1.107874155E0
4.074008598E1,3.573027372E0,-4.360523701E0,1.554086447E0
4.076035457E1,2.675276518E0,-1.609613419E0,1.728789687E0
4.078062317E1,2.098569393E0,2.683931828E0,1.196823716E0
4.080089176E1,1.498959064E0,3.868638039E0,6.233124137E-1
4.082116035E1,5.777723789E-1,1.259407997E0,6.675208211E-1
4.084142895E1,-3.669833243E-1,5.028044581E-1,5.844302773E-1
4.086169754E1,-9.863009453E-1,1.313203812E0,-1.700427085E-1
4.088196614E1,-1.169393182E0,1.865409851E0,-9.906951785E-1
