"Time (s)","Acceleration x (m/s^2)","Acceleration y (m/s^2)","Acceleration z (m/s^2)"
8.361990000E-3,-2.911947727E0,1.849520802E0,7.703343868E0
2.855792700E-2,-2.356492996E0,1.911770105E0,9.211690903E0
4.875282300E-2,-1.980603337E0,1.495178938E0,1.029865837E1
6.895042700E-2,-2.263119221E0,1.368286252E0,9.846154213E0
8.914131300E-2,-2.639008760E0,1.341950059E0,9.202114105E0
1.093202190E-1,-2.703652382E0,1.385045648E0,9.240421295E0
1.294995940E-1,-2.435501575E0,1.425747156E0,9.580398560E0
1.496797500E-1,-2.220023632E0,1.382651448E0,9.467870712E0
1.698609480E-1,-2.282272816E0,1.322796464E0,9.343372345E0
1.900433960E-1,-2.349310398E0,1.303642869E0,9.271546364E0
2.102273020E-1,-2.404376984E0,1.420958757E0,9.130288124E0
2.304127710E-1,-2.299032211E0,1.437718153E0,9.154230118E0
2.505998020E-1,-2.301426411E0,1.353921056E0,9.302670479E0
2.707883440E-1,-2.260725021E0,1.267729759E0,9.376891136E0
2.909782920E-1,-2.267907619E0,1.231816769E0,9.151836395E0
3.111695420E-1,-2.279878616E0,1.277306557E0,8.993818283E0
3.313619380E-1,-2.133832216E0,1.267729759E0,9.214085579E0
3.515552190E-1,-1.815403461E0,1.143231273E0,9.537302017E0
3.717491250E-1,-1.602319479E0,1.047463298E0,9.597157478E0
3.919433960E-1,-1.513733983E0,1.001973391E0,9.427168846E0
4.121376670E-1,-1.118690729E0,1.025915384E0,9.355342865E0
4.323286040E-1,-6.973112226E-1,9.780313969E-1,9.570821762E0
4.525136040E-1,-6.326677799E-1,6.524199843E-1,9.597157478E0
4.726961040E-1,-5.805939063E-2,3.172317147E-1,9.475052834E0
4.928791250E-1,4.064157307E-1,-1.077390742E-2,9.393650055E0
5.130628230E-1,1.861491799E-1,-1.520318091E-1,9.348160744E0
5.332473020E-1,7.775170207E-1,-3.387795389E-1,8.754398346E0
5.534326670E-1,2.029684544E0,-5.973533392E-1,8.400056839E0
5.736189690E-1,2.036867142E0,-7.601590157E-1,7.863755703E0
5.938062080E-1,2.044049740E0,-5.805938840E-1,7.803900242E0
6.139943850E-1,2.381632090E0,-6.045359373E-1,7.933187485E0
6.341834480E-1,2.810194254E0,-8.655039072E-1,8.062474251E0
6.543732920E-1,2.712032080E0,-1.392228246E0,7.985859871E0
6.745638130E-1,1.732803464E0,-1.389834046E0,7.993042469E0
6.947549060E-1,1.376067400E0,-1.207874775E0,8.179790497E0
7.149464170E-1,1.277905107E0,-1.157596469E0,9.032125473E0
7.351381350E-1,6.649895310E-1,-1.363497853E0,9.297882080E0
7.553353230E-1,1.981201917E-1,-1.974019289E0,9.419986725E0
7.755254790E-1,5.859808922E-1,-2.642001629E0,9.654618263E0
7.957033440E-1,3.061585426E0,-4.313154221E0,9.099164009E0
8.158817290E-1,4.835689068E0,-4.483142853E0,7.219715118E0
8.360610000E-1,3.308188200E0,-2.718616009E0,1.102888966E1
8.562414690E-1,8.493430614E-1,-2.060210466E0,1.159152794E1
8.764233960E-1,9.834183455E-1,-3.362656355E0,1.205600262E1
8.966069380E-1,2.091933727E0,-2.565387011E0,1.357632065E1
9.167921980E-1,3.652953148E0,-2.007538080E0,1.263061142E1
9.369792290E-1,4.895544052E0,-1.176750183E0,1.017894840E1
9.571679790E-1,5.807734966E0,-1.447294950E0,9.331400871E0
9.773583440E-1,6.770204067E0,-1.375468850E0,1.063863564E1
9.975501670E-1,8.297704697E0,-8.702923059E-1,1.097382355E1
1.017743188E0,1.007180786E1,-1.495178938E0,9.534908295E0
1.037937146E0,1.214279270E1,-4.991910458E-1,6.736086369E0
1.058131781E0,9.928155899E0,1.368286252E0,6.551733017E0
1.078326781E0,8.472481728E0,1.176750183E0,9.601945877E0
1.098521365E0,7.107786179E0,-7.146692276E-1,1.041597462E1
1.118712250E0,3.080739021E0,-1.717839718E0,1.062905884E1
1.138897250E0,1.802235365E0,-1.811213613E0,1.008796883E1
1.159079750E0,3.363254786E0,-1.291671872E0,9.616311073E0
1.179262771E0,5.362413406E0,-5.303156972E-1,5.491101742E0
1.199446469E0,4.608239651E0,-2.430114746E-1,-6.763619781E-1
1.219630948E0,4.737526417E0,-1.871068597E0,2.184709072E0
1.239816313E0,6.214748859E0,-1.701080322E0,6.125565052E0
1.260002615E0,6.011241913E0,-8.463503122E-1,3.604470730E0
1.280189854E0,6.073491096E0,-1.851915002E0,2.366668463E0
1.300378031E0,7.967304707E0,-3.027467966E0,1.028668785E1
1.320567094E0,1.024419022E1,-2.282871246E0,1.318606567E1
1.340756938E0,1.195604515E1,-1.715445518E0,6.257246017E0
1.360947458E0,8.721478462E0,-1.320402265E0,8.678981066E-1
1.381138552E0,7.840412140E0,-6.093243361E-1,2.993949175E0
1.401330063E0,8.304886818E0,-1.818396211E0,5.043385983E0
1.421521781E0,7.876325130E0,-3.606864929E0,1.969230890E0
1.441718969E0,6.569090843E0,-3.489548922E0,-7.122750282E-1
1.461909125E0,7.833229542E0,-5.819107056E0,1.926135302E0
1.482086990E0,1.219307041E1,-7.246051311E0,6.020220280E0
1.502265375E0,1.005744267E1,-4.768052578E0,3.520673513E0
1.522444646E0,8.834005356E0,-4.147954464E0,3.675099611E-1
1.542625115E0,8.448538780E0,-4.337096214E0,-6.859387755E-1
1.562807042E0,7.852383137E0,-4.195838451E0,-1.280897856E-1
1.582990583E0,7.773374557E0,-3.479972124E0,-5.877765417E-1
1.603175844E0,6.952163219E0,-3.434482336E0,-5.686228871E-1
1.623362875E0,7.162852764E0,-3.614047527E0,6.667851806E-1
1.643551625E0,6.504447460E0,-4.341884613E0,4.138377666E0
1.663741990E0,6.487688065E0,-4.289212227E0,3.728969097E0
1.683933813E0,7.143699169E0,-4.349067211E0,1.461660147E0
1.704126833E0,7.344812393E0,-5.127182961E0,1.418564558E0
1.724320792E0,7.502829552E0,-6.496666431E0,3.185485363E0
1.744515427E0,7.021595001E0,-7.787140846E0,4.696226597E0
1.764710427E0,5.371990204E0,-7.131129742E0,3.228580952E0
1.784905010E0,4.364031315E0,-6.345831394E0,2.335543871E0
1.805095896E0,3.978564739E0,-5.986701488E0,1.902193308E0
1.825280896E0,4.021660328E0,-6.044162273E0,1.684320927E0
1.845463396E0,4.840477467E0,-7.305906296E0,8.176198602E-1
1.865646365E0,4.026448727E0,-7.803900242E0,6.045359373E-1
1.885829958E0,2.350507498E0,-5.670666695E0,2.009932280E0
1.906014333E0,1.790264368E0,-5.445611954E0,1.660378933E0
1.926199594E0,1.119887829E0,-5.297171116E0,7.218518257E-1
1.946385792E0,3.513490856E-1,-5.175066948E0,-2.717418969E-1
1.966572979E0,-2.735375464E-1,-6.013037682E0,-1.710657120E0
1.986761156E0,1.174954534E0,-1.217571259E1,-4.097676277E0
2.006950219E0,3.205237627E0,-2.540128326E1,-6.463147640E0
2.027140063E0,3.892373323E0,-2.721848297E1,-5.086481571E0
2.047330583E0,1.979406238E0,-1.473032570E1,-5.039794445E-1
2.067521677E0,2.309806108E0,-8.170213699E0,8.870517015E-1
2.087713188E0,3.200449228E0,-7.092822552E0,5.853823423E-1
2.107904958E0,3.408744574E0,-8.220491409E0,-4.465186298E-1
2.128102250E0,2.204461098E0,-8.835801125E0,-8.655039072E-1
2.148292563E0,1.258751512E0,-8.967482567E0,-6.691793799E-1
2.168470635E0,9.044097066E-1,-9.410409927E0,-7.481880188E-1
2.188649229E0,7.128735781E-1,-9.554061890E0,-9.253589511E-1
2.208828708E0,6.961141229E-1,-9.431957245E0,-1.013944387E0
2.229009385E0,1.086369038E0,-8.854954720E0,-1.423352957E0
2.249191469E0,1.672948480E0,-8.689755440E0,-1.365892053E0
2.269375115E0,2.518101692E0,-9.714473724E0,-2.093729496E0
2.289560427E0,2.549226284E0,-1.002571964E1,-2.438494444E0
2.309747406E0,2.087145329E0,-9.702502251E0,-1.555034041E0
2.329936052E0,1.670554280E0,-9.599552155E0,-1.509544134E0
2.350126260E0,2.211643934E0,-9.879673004E0,-1.713051319E0
2.370317875E0,3.087921619E0,-9.872490883E0,-1.677138329E0
2.390510688E0,3.712808371E0,-9.441534042E0,-1.164779186E0
2.410704438E0,4.004900932E0,-8.869319916E0,-6.524199843E-1
2.430898865E0,3.746327162E0,-8.586804390E0,-4.153940082E-1
2.451093656E0,3.104681015E0,-8.816647530E0,-6.332663298E-1
2.471288344E0,2.616263866E0,-9.317035675E0,-1.009155989E0
2.491479490E0,2.355295897E0,-9.558850288E0,-7.170634270E-1
2.511667250E0,2.360084295E0,-9.587580681E0,-3.722983599E-1
2.531852250E0,2.415150881E0,-9.680954933E0,-4.321534038E-1
2.552034750E0,2.142211914E0,-9.489418030E0,-5.638344884E-1
2.572217719E0,2.269104719E0,-9.058462143E0,-3.339911401E-1
2.592401313E0,3.078344822E0,-9.151836395E0,1.400607973E-1
2.612585688E0,3.904344320E0,-9.611522675E0,4.417302012E-1
2.632770948E0,3.765480757E0,-9.415198326E0,7.302315533E-2
2.652957146E0,3.348889589E0,-9.372102737E0,-3.411737382E-1
2.673144281E0,2.929904222E0,-9.012971878E0,-6.763619781E-1
2.693332354E0,2.697666883E0,-8.835801125E0,-1.344344258E0
2.713521365E0,2.896385431E0,-9.139864922E0,-1.636436820E0
2.733711208E0,3.358466387E0,-9.475052834E0,-9.445125461E-1
2.753901729E0,3.640982151E0,-9.254786491E0,-6.045359373E-1
2.774092823E0,3.940257549E0,-8.881291389E0,-5.925649405E-1
2.794284333E0,3.861248732E0,-8.948328972E0,-4.249708056E-1
2.814476104E0,3.667318344E0,-8.301894188E0,-3.220201433E-1
2.834673396E0,4.050390720E0,-8.081627846E0,-6.069301367E-1
2.854863813E0,4.407126904E0,-8.330624580E0,-1.069011092E0
2.875042094E0,4.493318081E0,-8.768763542E0,-1.662773132E0
2.895220896E0,4.244320869E0,-8.711302757E0,-1.816002011E0
2.915400583E0,4.124610901E0,-8.261193275E0,-1.408987641E0
2.935581417E0,4.481347084E0,-8.021772385E0,-9.756371975E-1
2.955763604E0,4.909909248E0,-7.990648270E0,-6.643909812E-1
2.975947302E0,5.067926407E0,-7.854178905E0,-5.566518903E-1
2.996132615E0,5.039196014E0,-7.703343868E0,-4.513070285E-1
3.016319594E0,4.869207859E0,-7.739256859E0,-6.093243361E-1
3.036508188E0,4.914697647E0,-8.670601845E0,-1.310825467E0
3.056698292E0,5.053561211E0,-9.716867447E0,-1.859097600E0
3.076889750E0,4.727949619E0,-1.004008484E1,-1.892616391E0
3.097082354E0,5.309741020E0,-1.067933655E1,-9.588778019E-1
3.117275896E0,6.681618214E0,-1.177109241E1,5.422866940E-1
3.137470115E0,6.648099422E0,-1.227387524E1,3.914519846E-1
3.157664698E0,4.261080265E0,-1.131379986E1,-2.021903276E0
3.177856677E0,2.379237890E0,-1.068173122E1,-5.783194065E0
3.198046000E0,1.857301950E0,-1.187883186E1,-3.405751944E0
3.218240792E0,1.038484931E0,-1.285327148E1,5.494692922E-1
3.238430531E0,1.366490602E0,-1.160828686E1,1.904587507E0
3.258609958E0,3.078344822E0,-9.580398560E0,1.552639842E0
3.278789854E0,4.945822239E0,-9.352949142E0,5.351040959E-1
3.298970479E0,6.435015678E0,-1.033696556E1,-1.954865694E0
3.319152094E0,7.244256020E0,-1.002332497E1,-1.966836691E0
3.339334906E0,7.232284546E0,-8.258798599E0,-9.493009448E-1
3.359519073E0,5.750273705E0,-6.647500992E0,-1.279700756E0
3.379704698E0,2.939481020E0,-5.907692909E0,-1.425747156E0
3.399891781E0,7.679402232E-1,-5.977124691E0,-1.476025343E0
3.420080271E0,4.064157307E-1,-6.262034416E0,-1.385045648E0
3.440270063E0,6.793547273E-1,-6.585251808E0,-1.397016644E0
3.460461052E0,7.152677774E-1,-6.652289391E0,-1.969230890E0
3.480653083E0,9.068039060E-1,-6.104017258E0,-2.009932280E0
3.500845948E0,1.052850246E0,-5.701791286E0,-2.309207439E0
3.521039385E0,1.649006367E0,-5.811924458E0,-2.814383984E0
3.541233135E0,2.879626036E0,-6.278793812E0,-2.850297213E0
3.561424281E0,4.390367508E0,-6.415263653E0,-3.266888142E0
3.581612771E0,6.030395508E0,-5.981913090E0,-3.432088137E0
3.601801365E0,6.686406612E0,-4.947618008E0,-3.417722940E0
3.621990063E0,6.164470673E0,-4.176684856E0,-3.420117140E0
3.642184229E0,5.400720596E0,-4.787206173E0,-2.493561029E0
3.662373448E0,4.613028049E0,-6.199785233E0,-1.128866076E0
3.682552458E0,3.772663355E0,-6.932411194E0,-3.315969408E-1
3.702731938E0,3.346495390E0,-7.602787495E0,-7.864952683E-1
3.722912198E0,3.334524393E0,-8.972270966E0,-3.192667961E0
3.743093500E0,3.626616955E0,-1.040639782E1,-6.822277546E0
3.763276052E0,4.419097900E0,-1.006163311E1,-5.538985729E0
3.783460010E0,5.573102951E0,-8.536525726E0,-2.239775658E0
3.803645479E0,5.182847977E0,-8.933963776E0,-6.907271743E-1
3.823832510E0,4.138976097E0,-1.025316906E1,-1.732204914E0
3.844021052E0,2.489371300E0,-1.106959152E1,-3.049015760E0
3.864211000E0,1.151012421E0,-1.137126064E1,-3.384204149E0
3.884402198E0,4.091092110E0,-1.462019253E1,-5.392939091E0
3.904594438E0,1.138383007E1,-1.727296829E1,2.813186944E-1
3.924787510E0,1.289936066E1,-1.219965458E1,1.107318282E0
3.944981208E0,9.382277489E0,-5.969942093E0,-7.098808289E-1
3.965175271E0,7.917026520E0,-5.893327713E0,-9.457096457E-2
3.985366729E0,6.456563473E0,-8.807070732E0,-1.205480576E0
4.005555531E0,4.766256809E0,-1.000417137E1,-3.092111588E0
4.025744438E0,3.552396774E0,-8.711302757E0,-4.425682068E0
4.045938813E0,3.968987942E0,-7.444770336E0,-2.572569609E0
4.066128240E0,4.823718071E0,-6.443994045E0,-4.896142483E-1
4.086307458E0,4.665700436E0,-5.340266705E0,-1.646013618E0
4.106487146E0,4.636970043E0,-4.815936565E0,-3.604470730E0
4.126667615E0,4.799776077E0,-5.081693172E0,-3.901351690E0
4.146849125E0,4.660912037E0,-5.802347660E0,-2.213439465E0
4.167031885E0,3.777451754E0,-5.608417511E0,-1.198297977E0
4.187216052E0,3.363254786E0,-4.923676014E0,-9.780313969E-1
4.207401677E0,3.358466387E0,-4.880579948E0,-1.844732404E0
4.227588760E0,3.413532972E0,-4.739322186E0,-3.345896959E0
4.247777302E0,3.664924145E0,-5.199008942E0,-1.442506552E0
4.267967250E0,5.084685802E0,-7.030573368E0,-2.179920673E0
4.288158448E0,5.676053524E0,-8.672995567E0,-1.643619418E0
4.308350688E0,4.177283287E0,-7.504625320E0,-3.124433160E-1
4.328543760E0,3.430292368E0,-6.709750175E0,-4.752490520E-1
4.348737406E0,4.711190224E0,-8.438364029E0,-1.516726732E0
4.368931365E0,6.186018467E0,-1.207036781E1,-2.524685621E0
4.389125063E0,7.395090580E0,-1.448372364E1,-4.428076267E0
4.409315635E0,8.415019989E0,-1.645175743E1,-6.575675011E0
4.429503344E0,7.809287548E0,-1.862090302E1,-6.862978935E0
4.449688240E0,4.646546841E0,-1.557308483E1,-3.702632904E0
4.469870635E0,4.462193489E0,-1.029865837E1,-2.278082848E0
4.490053552E0,6.468534470E0,-8.500613213E0,-4.121618271E0
4.510237146E0,8.300098419E0,-9.333795547E0,-4.004302502E0
4.530421521E0,8.199542046E0,-9.008183479E0,-2.261323452E0
4.550606781E0,6.514024258E0,-7.823053837E0,-1.085770488E0
4.570793031E0,4.519654274E0,-7.052121162E0,-2.048239470E0
4.590980323E0,2.257133722E0,-6.271611214E0,-2.946065187E0
4.611168604E0,2.005143911E-1,-5.340266705E0,-3.060986757E0
4.631357771E0,-7.499836683E-1,-4.780023575E0,-3.163937569E0
4.651547719E0,3.705027103E-1,-5.213374138E0,-3.525461912E0
4.671738344E0,2.249951124E0,-6.329071999E0,-3.209427357E0
4.691929542E0,3.341706991E0,-7.212532520E0,-1.938106298E0
4.712121156E0,3.269881010E0,-6.951564789E0,-1.397016644E0
4.732312979E0,2.000954151E0,-5.718550682E0,-1.464054346E0
4.752510271E0,1.153406620E0,-4.248510838E0,-1.818396211E0
4.772700271E0,1.886032343E0,-2.986766577E0,-1.962048292E0
4.792877771E0,3.858854532E0,-2.483984232E0,-1.533486247E0
4.813055844E0,6.303334713E0,-2.543839216E0,-1.689109325E0
4.833234854E0,8.812458038E0,-2.811989784E0,-2.541445017E0
4.853415115E0,9.985616684E0,-3.654748917E0,-3.219004154E0
4.873596833E0,8.525154114E0,-5.941211700E0,-2.761711597E0
4.893780219E0,7.055113792E0,-8.167819023E0,-1.839944005E0
4.913965375E0,5.956175327E0,-8.898050308E0,-1.801636815E0
4.934152302E0,3.719990969E0,-9.247604370E0,-4.763264179E0
4.954341000E0,2.822165251E0,-1.023880386E1,-7.365761757E0
4.974531365E0,3.394379377E0,-1.158673954E1,-4.801571369E0
4.994723188E0,2.630629063E0,-1.282932949E1,-2.472013235E0
5.014916260E0,4.024054527E0,-1.760097313E1,-1.063863564E1
5.035110323E0,1.033995819E1,-2.139338875E1,-3.479972124E0
5.055305063E0,9.123703957E0,-1.584123516E1,3.427299738E0
5.075500167E0,7.237073421E0,-8.344989777E0,-4.848258495E-1
5.095695323E0,7.150881767E0,-5.651513100E0,2.780865192E0
5.115886781E0,7.677606106E0,-8.368931770E0,-7.601590157E-1
5.136074542E0,7.718307495E0,-1.213501167E1,-1.823184609E0
5.156259542E0,5.479729176E0,-1.060511684E1,-1.507149935E0
5.176442042E0,4.407126904E0,-7.686584473E0,-1.777694821E0
5.196625010E0,3.126228809E0,-6.075286865E0,-2.323572636E0
5.216808604E0,9.522937536E-1,-5.658695698E0,-4.339490414E0
5.236992979E0,6.147112846E-1,-6.183025837E0,-4.499902248E0
5.257178240E0,1.909974456E0,-7.121552944E0,-3.532644510E0
5.277364438E0,4.466981888E0,-6.810306549E0,-1.198297977E0
5.297551573E0,5.316923618E0,-5.335478306E0,-7.338228226E-1
5.317739646E0,5.053561211E0,-3.812766314E0,-1.696291924E0
5.337928656E0,4.553173065E0,-3.570951939E0,-1.952471495E0
5.358118552E0,3.629011154E0,-3.853467703E0,-9.995791912E-1
5.378309177E0,3.858854532E0,-3.690661907E0,-1.631648421E0
5.398500375E0,5.884349346E0,-5.828683853E0,-2.546233416E0
5.418691990E0,5.798158169E0,-8.163030624E0,-1.054645896E0
5.438883813E0,4.086303711E0,-7.542932510E0,-8.200140595E-1
5.459081104E0,3.174112797E0,-6.223727226E0,-3.770867586E-1
5.479271313E0,5.522824764E0,-8.531737328E0,-1.588552833E0
5.499449177E0,8.434173584E0,-1.238161373E1,-1.207874775E0
5.519627563E0,7.234679222E0,-1.155082607E1,-2.615665436E0
5.539806833E0,5.407903194E0,-1.139280891E1,-4.466383457E0
5.559987302E0,5.831676960E0,-1.518761826E1,-5.625176907E0
5.580169229E0,5.374384403E0,-1.820191765E1,-5.124788761E0
5.600352771E0,4.301782131E0,-1.685158920E1,-2.352303267E0
5.620538031E0,5.819705963E0,-1.182376480E1,-2.136825085E0
5.640725063E0,7.967304707E0,-8.986636162E0,-3.331531763E0
5.660913813E0,8.410231590E0,-8.400056839E0,-3.697844505E0
5.681104177E0,7.641693115E0,-7.753622055E0,-2.749740601E0
5.701296000E0,5.508459568E0,-6.865373611E0,-2.127248287E0
5.721489021E0,2.190095901E0,-6.106411457E0,-2.393004656E0
5.741682979E0,-7.781155407E-3,-5.756857872E0,-2.833537817E0
5.761877615E0,-7.547720671E-1,-5.680243492E0,-2.553416014E0
5.782072615E0,-9.157821536E-2,-5.462371349E0,-2.335543871E0
5.802267198E0,1.117493629E0,-4.784811974E0,-1.849520802E0
5.822458083E0,1.656189084E0,-4.112041473E0,-1.696291924E0
5.842643083E0,2.113481522E0,-3.762487888E0,-1.634042621E0
5.862825583E0,2.848501444E0,-4.119224072E0,-1.497573137E0
5.883008552E0,3.830124140E0,-4.712985992E0,-1.588552833E0
5.903192146E0,4.773439407E0,-4.961983204E0,-2.582146645E0
5.923376521E0,5.225943565E0,-4.509479046E0,-3.326743364E0
5.943561781E0,5.570708752E0,-4.250905037E0,-3.319560766E0
5.963747979E0,7.138910770E0,-4.818330765E0,-3.099294186E0
5.983935115E0,8.477270126E0,-5.685031891E0,-2.268506050E0
6.004123188E0,6.779780865E0,-6.297947407E0,-2.428917646E0
6.024312198E0,4.660912037E0,-7.648277283E0,-3.209427357E0
6.044502094E0,4.028842926E0,-8.998606682E0,-2.725798607E0
6.064692719E0,1.277905107E0,-1.224275017E1,-1.050455952E1
6.084883917E0,3.870825529E0,-1.692102051E1,-8.687360764E0
6.105075531E0,7.948151112E0,-1.906143761E1,5.518634915E-1
6.125267354E0,9.703101158E0,-1.841739655E1,1.586158633E0
6.145464646E0,9.437344551E0,-1.200572395E1,-3.659537315E0
6.165654854E0,7.093420982E0,-8.067262650E0,2.665943623E0
6.185832719E0,5.714360714E0,-8.143877029E0,4.632780254E-1
6.206011104E0,7.991246700E0,-1.292749214E1,-4.411316395E0
6.226190375E0,7.536348343E0,-1.184531307E1,-3.343502760E0
6.246370844E0,5.326500416E0,-8.886079788E0,-2.076969862E0
6.266552771E0,4.577115059E0,-7.715314865E0,-1.428141356E0
6.286736313E0,3.789422750E0,-7.631517887E0,-1.526303530E0
6.306921573E0,2.288258314E0,-7.382521152E0,-2.663549423E0
6.327108604E0,1.780687571E0,-7.387309551E0,-3.740940094E0
6.347297354E0,3.217208624E0,-7.672219276E0,-2.979583979E0
6.367487719E0,4.397550106E0,-7.047332764E0,-2.158372879E0
6.387679542E0,4.304176331E0,-5.929240704E0,-2.117671490E0
6.407872563E0,3.827729940E0,-4.849455357E0,-2.548627615E0
6.428066521E0,4.160523891E0,-4.191050053E0,-3.556586742E0
6.448261156E0,4.960187435E0,-4.291606426E0,-3.010708570E0
6.468456156E0,5.005677223E0,-4.569334030E0,-1.030703783E0
6.488650792E0,4.890755653E0,-4.313154221E0,-1.423352957E0
6.508841729E0,5.154117584E0,-4.408922195E0,-1.756146908E0
6.529026729E0,5.340865612E0,-5.397727966E0,-1.102529883E0
6.549209229E0,5.039196014E0,-6.242880821E0,-1.294066072E0
6.569392250E0,4.148552895E0,-6.216544628E0,-1.504755735E0
6.589575948E0,4.244320869E0,-6.554127216E0,-2.287659645E0
6.609760427E0,5.501276970E0,-8.160636902E0,-3.116053581E0
6.629945792E0,7.126939774E0,-1.045667553E1,-2.905363798E0
6.650132094E0,7.866748333E0,-1.244625759E1,-2.898181200E0
6.670319333E0,8.675988197E0,-1.470877838E1,-5.448006153E0
6.690507510E0,9.075819969E0,-1.760336876E1,-6.590040207E0
6.710696573E0,6.341641903E0,-1.539830780E1,-5.263652325E0
6.730886417E0,4.574720860E0,-1.009275723E1,-3.159149170E0
6.751076938E0,7.035960197E0,-8.036137581E0,-2.642001629E0
6.771268031E0,9.401431084E0,-8.242039680E0,-2.950853586E0
6.791459542E0,9.545084000E0,-8.476671219E0,-3.424905539E0
6.811651260E0,7.790133953E0,-8.986636162E0,-2.519897223E0
6.831848448E0,5.118204594E0,-9.190143585E0,-2.876633406E0
6.852038604E0,2.173336506E0,-8.052897453E0,-2.840720415E0
6.872216469E0,-4.722562730E-1,-6.388927460E0,-2.428917646E0
6.892394854E0,-1.458667397E0,-4.897339344E0,-2.297236443E0
6.912574125E0,-1.008557439E0,-3.542221308E0,-2.103306293E0
6.932754594E0,1.717839688E-1,-2.732981205E0,-1.710657120E0
6.952936521E0,1.435922503E0,-3.015496969E0,-1.028309584E0
6.973120063E0,2.460640907E0,-3.752911091E0,-5.805938840E-1
6.993305323E0,3.729567766E0,-4.305971622E0,-7.649474144E-1
7.013492354E0,6.279392719E0,-4.758475780E0,-1.358709455E0
7.033681104E0,8.625710487E0,-4.310760021E0,-3.209427357E0
7.053871469E0,9.207501411E0,-3.360262156E0,-4.507084846E0
7.074063292E0,7.905055523E0,-2.962824583E0,-2.579752445E0
7.094256313E0,5.824494362E0,-3.975571871E0,-1.471236944E0
7.114450271E0,3.660135746E0,-6.760028362E0,-2.938882589E0
7.134644906E0,2.719214678E0,-9.113529205E0,-4.732139587E0
7.154839906E0,2.664147854E0,-1.054765606E1,-5.208585739E0
7.175034542E0,1.977012038E0,-1.213261700E1,-5.646724701E0
7.195225531E0,1.352125406E0,-1.492425632E1,-7.744045258E0
7.215413292E0,4.950610638E0,-1.740225410E1,-5.268440723E0
7.235598292E0,8.944138527E0,-1.883638191E1,-8.583213091E-1
7.255780792E0,9.789292336E0,-1.708143234E1,5.620388508E0
7.275963813E0,8.110957146E0,-1.048301220E1,1.777694821E0
7.296147510E0,6.085462093E0,-4.382586002E0,-2.598906040E0
7.316331990E0,6.025607109E0,-6.774393559E0,-2.984372377E0
7.336517354E0,9.731831551E0,-1.299452972E1,-1.782483220E0
7.356703656E0,8.728660583E0,-1.343745708E1,-1.825578809E0
7.376890896E0,6.523601055E0,-9.922768593E0,-8.846575022E-1
7.397079073E0,4.519654274E0,-7.313088894E0,-7.122750282E-1
7.417268135E0,1.716044068E0,-5.950788498E0,-2.596511841E0
7.437457979E0,3.154360652E-1,-6.240486622E0,-3.384204149E0
7.457648500E0,1.392826796E0,-7.047332764E0,-2.184709072E0
7.477839594E0,3.916315317E0,-7.195773125E0,-2.464830637E0
7.498031104E0,6.322488308E0,-6.197391033E0,-2.330755472E0
7.518222823E0,6.624157429E0,-4.454412460E0,-2.934094191E0
7.538420010E0,6.901885033E0,-3.379415751E0,-5.187037945E0
7.558610271E0,7.165246964E0,-3.642777920E0,-3.439270735E0
7.578788344E0,5.975328922E0,-3.628412724E0,-3.483563364E-1
7.598966938E0,3.439869404E0,-3.235763550E0,8.990227580E-1
7.619146417E0,2.012925148E0,-3.561375141E0,-1.975216419E-1
7.639327094E0,2.640205860E0,-5.620388508E0,-2.634819031E0
7.659509177E0,3.356072187E0,-8.246828079E0,-2.965218782E0
7.679692823E0,2.886808634E0,-8.653841972E0,-1.065419763E-1
7.699878135E0,3.909132719E0,-7.516596317E0,-3.020285368E0
7.720065115E0,5.199607372E0,-7.655459881E0,-1.492784739E0
7.740253760E0,7.098209381E0,-8.924386978E0,-1.622071624E0
7.760444021E0,9.140463829E0,-1.059075165E1,-2.383427858E0
7.780635740E0,9.432556152E0,-1.224514484E1,-3.163937569E0
7.800828656E0,8.494029045E0,-1.424909115E1,-4.650736809E0
7.821022510E0,7.138910770E0,-1.675342560E1,-6.815094948E0
7.841217042E0,5.252279758E0,-1.742380333E1,-6.211756229E0
7.861411938E0,5.743091106E0,-1.333211231E1,-4.231751442E0
7.881606573E0,7.170035362E0,-9.197325706E0,-2.771288395E0
7.901797563E0,8.132504463E0,-7.514202118E0,-3.362656355E0
7.921982563E0,8.024765968E0,-7.396886349E0,-2.840720415E0
7.942165063E0,7.320870399E0,-7.858967304E0,-3.506308317E0
7.962348083E0,5.048772812E0,-8.048109055E0,-3.367444754E0
7.982531781E0,1.725620866E0,-7.269993305E0,-2.744952202E0
8.002716260E0,-5.608417392E-1,-6.120776653E0,-2.122459888E0
8.022901625E0,-8.649053574E-1,-5.495890141E0,-1.784877419E0
8.043087927E0,1.358709484E-1,-4.983530998E0,-1.600523829E0
8.063275167E0,1.299453020E0,-4.272452831E0,-1.377863050E0
8.083463344E0,1.795052767E0,-3.738545895E0,-1.365892053E0
8.103652406E0,1.780687571E0,-2.867056608E0,-1.167173386E0
8.123842250E0,1.761533856E0,-2.031480074E0,-9.612720013E-1
8.144032771E0,2.269104719E0,-1.511938334E0,-4.824316502E-1
8.164223865E0,3.691260576E0,-1.466448545E0,-2.645592988E-1
8.184415375E0,6.011241913E0,-1.681926727E0,-2.057816267E0
8.204607146E0,9.006388664E0,-2.622848034E0,-4.540603638E0
8.224804438E0,9.995193481E0,-4.325125217E0,-3.582922935E0
8.244994750E0,7.890690327E0,-6.556521416E0,-2.946065187E0
8.265172823E0,5.534795761E0,-9.714473724E0,-6.776787758E0
8.285351417E0,4.531625271E0,-1.474469090E1,-8.584410667E0
8.305530896E0,2.826953650E0,-1.947323990E1,-8.653841972E0
8.325711573E0,2.230797529E0,-2.268865204E1,-5.354631901E0
8.345893656E0,8.465298653E0,-1.550604725E1,8.139088631E0
8.366077302E0,1.042375565E1,-8.467094421E0,5.973533392E-1
8.386262615E0,1.015799904E1,-6.240486622E0,-2.993949175E0
8.406449594E0,1.203744793E1,-1.246301651E1,-5.124788761E0
8.426638240E0,9.868300438E0,-1.482130527E1,-1.207874775E0
8.446828500E0,5.951386929E0,-1.329619884E1,-4.824316502E-1
8.467020219E0,5.213972569E0,-1.094988155E1,-8.128314614E-1
8.487213135E0,4.450222492E0,-8.368931770E0,-2.282871246E0
8.507406990E0,3.588309765E0,-7.404068947E0,-2.371456861E0
8.527601521E0,3.542819977E0,-7.346607685E0,-1.329979062E0
8.547796417E0,3.171718597E0,-6.930016994E0,-2.002749681E0
8.567991052E0,2.917933226E0,-6.041768074E0,-1.933317900E0
8.588182042E0,3.401561975E0,-5.256469727E0,-1.262941360E0
8.608367042E0,3.449446201E0,-4.708197594E0,-1.231816769E0
8.628549542E0,3.044826031E0,-4.624400616E0,-1.689109325E0
8.648732563E0,3.016095638E0,-4.978742599E0,-2.215833664E0
8.668916260E0,3.238756418E0,-5.141548157E0,-1.983596087E0
8.689100740E0,4.002506733E0,-5.675455093E0,-2.076969862E0
8.709286104E0,5.398326397E0,-6.561309814E0,-1.612494826E0
8.729472406E0,5.793369770E0,-6.228515625E0,-5.734112859E-1
8.749659646E0,6.243479252E0,-5.759252071E0,-8.295909166E-1
8.769847823E0,7.402273178E0,-6.575675011E0,-5.662286878E-1
8.790036885E0,8.113350868E0,-7.662642479E0,-4.608838260E-1
8.810226729E0,8.403049469E0,-8.672995567E0,-1.320402265E0
8.830417250E0,8.740632057E0,-9.728838921E0,-3.860650301E0
8.850608344E0,9.411007881E0,-9.791088104E0,-3.482366323E0
8.870799854E0,8.101380348E0,-8.479064941E0,-2.330755472E0
8.890991625E0,7.088632584E0,-9.048885345E0,-3.171120167E0
8.911188917E0,6.832453251E0,-1.168011284E1,-2.653972626E0
8.931379229E0,5.202001572E0,-1.461779881E1,-1.911770105E0
8.951557302E0,3.787028551E0,-1.680130959E1,-1.504755735E0
8.971735896E0,3.394379377E0,-1.617163467E1,-1.368286252E0
8.991915375E0,3.968987942E0,-1.178306389E1,-2.070984542E-1
9.012096052E0,4.366425514E0,-8.871714592E0,9.421183467E-1
9.032278188E0,6.016030312E0,-9.130288124E0,5.039794445E-1
9.052461938E0,8.436568260E0,-9.642647743E0,-1.947683096E0
9.072647354E0,8.786121368E0,-9.345766068E0,-1.952471495E0
9.092834438E0,6.559514046E0,-8.914810181E0,-1.617283225E0
9.113023188E0,2.697666883E0,-8.160636902E0,-1.404199243E0
9.133213500E0,1.107916832E0,-7.121552944E0,-2.214636505E-1
9.153405167E0,1.057638645E0,-6.290764809E0,-4.189852998E-2
9.173597979E0,1.153406620E0,-6.089652061E0,-1.162384868E0
9.193791729E0,1.110311031E0,-6.362590790E0,-1.210268974E0
9.213986156E0,8.182184100E-1,-6.484695435E0,-1.885433793E0
9.234180948E0,1.095945835E0,-6.384139061E0,-2.661155224E0
9.254375531E0,2.570774078E0,-6.475118637E0,-3.484760523E0
9.274566573E0,5.580285549E0,-7.279570103E0,-4.724956989E0
9.294751677E0,9.329605103E0,-8.649053574E0,-5.989095688E0
9.314934281E0,1.016757584E1,-9.429563522E0,-5.153519154E0
9.335117354E0,6.344036102E0,-8.661025047E0,-3.709815502E0
9.355301052E0,3.102286816E0,-6.206967831E0,-2.840720415E0
9.375485531E0,2.331353903E0,-3.654748917E0,-7.745242715E-1
9.395670896E0,4.902726650E0,-5.342660904E0,1.586158633E0
9.415857198E0,1.026573849E1,-1.394742203E1,7.170634270E-1
9.436044438E0,1.299034023E1,-2.128086090E1,-7.653065681E0
9.456232615E0,6.188412666E0,-1.330817032E1,-3.053804159E0
9.476421677E0,2.022501945E0,-6.544550419E0,1.442506552E0
9.496611521E0,1.371279001E0,-3.858256102E0,1.325190663E0
9.516802042E0,1.871667147E0,-4.250905037E0,1.401805043E0
9.536993135E0,3.293823004E0,-8.249221802E0,2.246958256E0
9.557184646E0,3.935469151E0,-1.294425106E1,2.486378431E0
9.577376365E0,3.629011154E0,-1.280538750E1,1.353921056E0
9.597573552E0,3.126228809E0,-9.728838921E0,-8.152256608E-1
9.617763760E0,2.077568531E0,-7.423222542E0,-3.970783472E0
9.637941729E0,2.316988707E0,-7.284358501E0,-5.249287128E0
9.658120219E0,3.765480757E0,-7.550115108E0,-3.173514366E0
9.678299594E0,4.869207859E0,-7.365761757E0,-1.121683478E0
9.698480167E0,5.565920353E0,-6.965929985E0,2.513911761E-2
9.718662198E0,5.575497150E0,-6.554127216E0,8.248024583E-1
9.738845844E0,5.625775337E0,-7.088034153E0,9.612720013E-1
9.759031208E0,5.036801815E0,-7.763198853E0,4.896142483E-1
9.779218344E0,4.119822502E0,-7.954735279E0,-8.918401599E-1
9.799407198E0,3.521272182E0,-8.009801865E0,-2.354697466E0
9.819597615E0,3.985747337E0,-8.854954720E0,-2.230198860E0
9.839789438E0,4.821323872E0,-9.633070946E0,-7.386112213E-1
9.859982458E0,4.914697647E0,-9.338583946E0,3.794809580E-1
9.880176417E0,5.051167011E0,-8.783128738E0,8.655039072E-1
9.900371052E0,5.486911774E0,-9.108740807E0,1.159990668E0
9.920566052E0,4.988917828E0,-9.800664902E0,6.356605291E-1
9.940760375E0,4.337695122E0,-1.047343540E1,-9.493009448E-1
9.960951000E0,5.043984413E0,-1.153406715E1,-3.604470730E0
9.981136000E0,7.062296391E0,-1.153646088E1,-2.876633406E0
1.000131850E1,8.383895874E0,-1.076073933E1,7.410054207E-1
1.002150152E1,8.450933456E0,-1.019331360E1,1.792060018E0
1.004168522E1,7.392696381E0,-9.568427086E0,1.150413871E0
1.006186970E1,5.281010628E0,-9.199720383E0,3.842693865E-1
1.008205506E1,2.565985680E0,-9.094375610E0,-1.365892053E0
1.010224137E1,5.380968451E-1,-9.953893661E0,-4.279635429E0
1.012242860E1,1.737591863E0,-1.044949341E1,-1.783680320E-1
1.014261678E1,2.824559450E0,-9.094375610E0,3.147178173E0
1.016280584E1,4.153341293E0,-8.304288864E0,3.597288132E0
1.018299569E1,5.470152378E0,-8.036137581E0,3.199850559E0
1.020318621E1,7.737461567E0,-8.474276543E0,-1.669955730E0
1.022337730E1,8.336011887E0,-8.974664688E0,-2.146401882E0
1.024356881E1,7.311293602E0,-8.768763542E0,-3.315969408E-1
1.026376058E1,5.946598530E0,-8.661025047E0,-6.165069342E-1
1.028395788E1,3.746327162E0,-9.147047997E0,-7.386112213E-1
1.030414814E1,2.453458309E0,-9.305065155E0,-7.457938194E-1
1.032432610E1,2.130240917E0,-8.495824814E0,-1.040280581E0
1.034450459E1,2.767098665E0,-6.906075001E0,-1.430535555E0
1.036468397E1,3.856460333E0,-5.766434669E0,-1.796848416E0
1.038486454E1,4.201225281E0,-5.457582951E0,-2.012326479E0
1.040504657E1,3.605069160E0,-5.340266705E0,-1.971625090E0
1.042523022E1,2.774281263E0,-5.349843502E0,-2.081758261E0
1.044541558E1,2.367266893E0,-5.601234913E0,-2.598906040E0
1.046560272E1,2.791040659E0,-5.752069473E0,-3.539827108E0
1.048579157E1,3.624222755E0,-5.163095951E0,-4.277241230E0
1.050598199E1,4.553173065E0,-5.074510574E0,-4.267664433E0
1.052617381E1,7.213130951E0,-7.351396084E0,-5.294776917E0
1.054636683E1,1.017475891E1,-9.525331497E0,-5.744886875E0
1.056656079E1,9.320028305E0,-1.048301220E1,-4.131195068E0
1.058675543E1,5.108627796E0,-1.068891335E1,-4.578910828E0
1.060695043E1,3.581127167E0,-1.069370174E1,-6.068104267E0
1.062714470E1,7.517194748E0,-1.170644951E1,-3.942053080E0
1.064733532E1,8.845976830E0,-1.315972996E1,-2.318784237E0
1.066752308E1,5.036801815E0,-9.180566788E0,-3.274070740E0
1.068770808E1,1.742380261E0,-4.432864666E0,-4.177882075E-1
1.070789058E1,2.733579874E0,-5.007472992E0,1.578976035E0
1.072807360E1,4.421492100E0,-7.784746647E0,1.717839718E0
1.074825730E1,5.034407616E0,-1.058596325E1,1.557428241E0
1.076844178E1,4.641758442E0,-1.161068153E1,1.217451572E0
1.078862715E1,3.664924145E0,-1.029147625E1,5.147533491E-2
1.080881345E1,2.817376852E0,-8.615534782E0,-2.761711597E0
1.082900069E1,3.878008127E0,-8.649053574E0,-1.413776159E0
1.084918886E1,4.277839661E0,-9.127894402E0,-5.255272985E-1
1.086937793E1,3.485359192E0,-9.652224541E0,-1.279700756E0
1.088956777E1,3.198055029E0,-9.630676270E0,-1.739387512E0
1.090975829E1,3.605069160E0,-8.732851028E0,-1.492784739E0
1.092994938E1,4.095880508E0,-7.633912086E0,-6.596025825E-1
1.095014090E1,4.431068897E0,-6.827065945E0,-3.339911401E-1
1.097033267E1,4.289810658E0,-6.379350662E0,-4.920084476E-1
1.099052996E1,4.220378876E0,-6.659471989E0,-6.356605291E-1
1.101072022E1,4.407126904E0,-7.337030888E0,-7.601590157E-1
1.103089819E1,4.332906723E0,-7.612364292E0,-5.877765417E-1
1.105107668E1,4.172494888E0,-7.830236435E0,-1.256955862E-1
1.107125605E1,3.882796526E0,-8.294712067E0,1.927332431E-1
1.109143662E1,3.660135746E0,-8.732851028E0,4.189852998E-2
1.111161866E1,3.327341795E0,-8.814253807E0,-5.925649405E-1
1.113180230E1,3.145382404E0,-8.505401611E0,-9.301473498E-1
1.115198767E1,3.664924145E0,-8.651448250E0,-7.769184709E-1
1.117217480E1,4.584297657E0,-9.367314339E0,-6.859387755E-1
1.119236366E1,5.520430565E0,-1.005445004E1,-9.708487988E-1
1.121255407E1,6.509235859E0,-1.061948204E1,-8.798691034E-1
1.123274590E1,5.781398773E0,-1.025556278E1,-5.614402890E-1
1.125293892E1,5.269039154E0,-9.884461403E0,-7.984662652E-1
1.127313288E1,6.456563473E0,-9.917980194E0,-1.028309584E0
1.129332751E1,7.737461567E0,-9.578003883E0,-1.376665980E-1
1.131352251E1,8.228272438E0,-9.029731750E0,1.344344258E0
1.133371678E1,8.213907242E0,-9.068038940E0,1.377863050E0
1.135390741E1,6.882731438E0,-9.496601105E0,5.973533392E-1
1.137409517E1,4.002506733E0,-9.992200851E0,-1.375468850E0
1.139428017E1,9.906009436E-1,-1.146942329E1,-4.018667698E0
1.141446267E1,8.254010081E-1,-1.306635571E1,-1.459265947E0
1.143464569E1,1.352125406E0,-1.280299377E1,1.179144382E0
1.145482938E1,2.034472942E0,-1.073919201E1,2.330755472E0
1.147501387E1,3.032855034E0,-8.912415504E0,2.586935043E0
1.149519923E1,4.840477467E0,-8.160636902E0,8.463503122E-1
1.151538553E1,6.808511257E0,-8.299500465E0,-9.971849918E-1
1.153557277E1,7.866748333E0,-8.503006935E0,-8.559271097E-1
1.155576095E1,8.067861557E0,-8.045714378E0,-1.270123959E0
1.157595001E1,6.367978096E0,-7.167042732E0,-1.940500498E0
1.159613985E1,3.894767523E0,-6.590040207E0,-1.902193308E0
1.161633038E1,2.367266893E0,-6.530185223E0,-1.851915002E0
1.163652147E1,1.713649869E0,-6.733692169E0,-1.545457244E0
1.165671298E1,1.696890473E0,-6.965929985E0,-6.763619781E-1
1.167690470E1,2.089539528E0,-7.162254333E0,-2.885012925E-1
1.169710188E1,2.764704466E0,-6.752845764E0,-7.074866295E-1
1.171729215E1,3.236362219E0,-6.518214226E0,-1.612494826E0
1.173747022E1,3.724779367E0,-7.102399349E0,-2.577358246E0
1.175764881E1,4.217984676E0,-7.645883083E0,-3.606864929E0
1.177782829E1,4.270657063E0,-7.995436668E0,-4.710591793E0
1.179800897E1,4.402338505E0,-8.316259384E0,-5.000290394E0
1.181819105E1,4.917091846E0,-8.864531517E0,-4.887762547E0
1.183837470E1,4.945822239E0,-8.649053574E0,-5.919663906E0
1.185856001E1,4.225167274E0,-6.719326973E0,-5.766434669E0
1.187874699E1,3.906738520E0,-6.439205647E0,-2.996343374E0
1.189893564E1,4.519654274E0,-7.497442722E0,-3.411737382E-1
1.191912584E1,7.126939774E0,-9.451110840E0,-5.087678432E-1
1.193931746E1,1.161606789E1,-1.544379807E1,-4.282029629E0
1.195951027E1,1.059134960E1,-1.955464172E1,-2.833537817E0
1.197970402E1,3.116652012E0,-1.238400841E1,-3.220201433E-1
1.199989845E1,-2.416347980E0,-2.876633406E0,-3.642777920E0
1.202009324E1,-7.858967185E-1,-1.492784739E0,-8.259996027E-2
1.204028803E1,2.561197281E0,-3.736151695E0,1.768117905E0
1.206047928E1,5.798158169E0,-9.321824074E0,2.941276789E0
1.208066438E1,6.968922615E0,-1.509185028E1,2.108094692E0
1.210084699E1,4.972158432E0,-1.381095219E1,4.776432514E-1
1.212103006E1,2.436698675E0,-9.355342865E0,-5.239710331E0
1.214121376E1,3.315370798E0,-8.543708801E0,-5.225345135E0
1.216139824E1,4.110245705E0,-8.917203903E0,2.047042400E-1
1.218158360E1,2.599504471E0,-8.517372131E0,-1.280897856E-1
1.220176991E1,2.843713045E0,-8.155848503E0,-9.493009448E-1
1.222195715E1,3.389590979E0,-7.964312077E0,-1.768117905E0
1.224214532E1,4.598662853E0,-7.554903507E0,-1.327584863E0
1.226233438E1,5.103839397E0,-6.788758755E0,-7.649474144E-1
1.228252423E1,5.015254021E0,-6.252457619E0,-1.631648421E0
1.230271475E1,5.063138008E0,-6.477512836E0,-3.180696964E0
1.232290584E1,5.178059578E0,-6.946776390E0,-3.812766314E0
1.234309735E1,4.641758442E0,-6.831854343E0,-3.020285368E0
1.236328907E1,4.246715069E0,-6.250063419E0,-3.918111086E0
1.238348626E1,3.418321371E0,-5.687426090E0,-4.291606426E0
1.240367636E1,2.774281263E0,-5.409698963E0,-3.087323189E0
1.242385412E1,3.420715570E0,-5.948394299E0,-1.578976035E0
1.244403241E1,3.636193752E0,-6.568492413E0,1.119289279E0
1.246421157E1,3.760692358E0,-5.866991043E0,1.061828494E0
1.248439194E1,3.353677988E0,-4.229357243E0,-1.334767461E0
1.250457376E1,3.025672436E0,-3.060986757E0,-5.033809185E0
1.252475720E1,3.035249233E0,-5.313930511E0,4.429273307E-2
1.254494235E1,2.822165251E0,-8.014590263E0,7.386112213E-1
1.256512928E1,5.218760967E0,-9.939528465E0,-3.343502760E0
1.258531793E1,7.363965988E0,-1.049977112E1,-2.302024841E0
1.260550819E1,8.570643425E0,-1.094509315E1,-3.080140591E0
1.262569991E1,1.014363384E1,-1.353083134E1,-6.800729752E0
1.264589288E1,1.012208652E1,-1.907340813E1,-7.770381451E0
1.266608683E1,6.195595264E0,-2.126410294E1,-5.620388508E0
1.268628147E1,5.611410141E0,-1.741901398E1,-4.018667698E0
1.270647652E1,8.185176849E0,-1.085650730E1,-3.884592295E0
1.272666902E1,8.582614899E0,-7.559691906E0,-3.752911091E0
1.274685886E1,6.418256283E0,-6.118382454E0,-3.156754971E0
1.276705418E1,3.413532972E0,-5.622782707E0,-2.857479811E0
1.278724360E1,1.668160081E0,-5.876567841E0,-3.080140591E0
1.280742188E1,1.883638144E0,-6.254851818E0,-3.185485363E0
1.282760069E1,1.797446966E0,-5.649118900E0,-2.562992811E0
1.284778038E1,9.498994946E-1,-4.092887878E0,-1.559822440E0
1.286796121E1,6.721721292E-1,-3.108870983E0,-1.713051319E0
1.288814340E1,2.072780132E0,-4.097676277E0,-2.445677042E0
1.290832709E1,3.389590979E0,-6.087257862E0,-2.510320425E0
1.292851241E1,3.684077978E0,-7.605181694E0,-1.988384485E0
1.294869939E1,3.451840401E0,-7.229291916E0,-1.567005038E0
1.296888798E1,3.255515814E0,-5.589263916E0,-1.856703401E0
1.298907808E1,3.712808371E0,-4.315548420E0,-2.357091665E0
1.300926954E1,4.727949619E0,-3.910928488E0,-2.577358246E0
1.302946215E1,5.886743546E0,-3.903745890E0,-2.948459387E0
1.304965569E1,7.119757175E0,-4.456806660E0,-2.701856613E0
1.306984991E1,8.415019989E0,-6.013037682E0,-1.851915002E0
1.309004449E1,7.277774811E0,-7.653065681E0,-2.045845270E0
1.311023647E1,3.913921118E0,-8.040925980E0,-3.877409697E0
1.313042579E1,1.474229693E0,-8.122329712E0,-4.717774391E0
1.315061522E1,1.789665818E-1,-8.749609947E0,-5.237316132E0
1.317081012E1,-2.448071241E-1,-1.108874512E1,-6.949170589E0
1.319099913E1,1.574786186E0,-1.433288860E1,-6.036979675E0
1.321117699E1,3.648164749E0,-1.529296303E1,-2.735375404E0
1.323135538E1,6.298546314E0,-1.624824905E1,-4.704606235E-1
1.325153465E1,1.032798767E1,-1.904467773E1,-2.668337822E0
1.327171512E1,1.028728580E1,-1.358110905E1,-6.645106792E0
1.329189704E1,5.664082527E0,-7.916428089E0,3.965995073E0
1.331208058E1,5.893926144E0,-6.479907036E0,4.490325451E0
1.333226584E1,7.703942299E0,-1.103367901E1,1.583764434E0
1.335245288E1,8.503605843E0,-1.343985081E1,-3.884592295E0
1.337264162E1,6.595427036E0,-1.029626465E1,-3.872621298E0
1.339283199E1,4.522048473E0,-7.478289127E0,-8.224082589E-1
1.341302381E1,2.984971046E0,-5.445611954E0,-4.967968464E-1
1.343321683E1,1.692102075E0,-4.791994572E0,-3.914519846E-1
1.345341079E1,3.776853085E-1,-5.503072739E0,-9.205705523E-1
1.347360543E1,-3.046621680E-1,-7.942764282E0,-2.675520420E0
1.349380043E1,1.517325282E0,-9.702502251E0,-3.475183725E0
1.351399506E1,3.664924145E0,-8.050502777E0,-2.048239470E0
1.353418600E1,4.127005100E0,-5.835866451E0,-1.727416515E0
1.355437100E1,4.352060318E0,-4.167108059E0,-1.636436820E0
1.357455350E1,5.467758179E0,-3.901351690E0,-1.282094955E0
1.359473652E1,7.074267387E0,-5.110423565E0,-9.828197956E-1
1.361492022E1,6.727108002E0,-5.778405666E0,-7.936778665E-1
1.363510470E1,4.699219227E0,-5.340266705E0,-3.268085420E-1
1.365529006E1,3.456628799E0,-4.945223808E0,-6.165069342E-1
1.367547637E1,3.638587952E0,-5.840654850E0,-1.492784739E0
1.369566360E1,5.946598530E0,-9.494206429E0,-2.943670988E0
1.371585178E1,6.107009888E0,-1.148378849E1,-2.742558002E0
1.373604084E1,4.040813923E0,-8.524555206E0,-6.308721304E-1
1.375623069E1,3.822941542E0,-7.353790283E0,-3.166331768E0
1.377642121E1,5.091868401E0,-9.625887871E0,-4.363432407E0
1.379661230E1,4.644152641E0,-1.144308662E1,-2.718616009E0
1.381680381E1,4.998494625E0,-1.230021095E1,-2.630030632E0
1.383699553E1,7.696759701E0,-1.606628990E1,-3.951629877E0
1.385719272E1,8.467693329E0,-1.892736244E1,-1.674744129E0
1.387738293E1,7.766191959E0,-1.494819832E1,-1.188721180E0
1.389756090E1,7.332841396E0,-1.003290176E1,-2.021903276E0
1.391773938E1,6.976105213E0,-8.967482567E0,-3.092111588E0
1.393791876E1,5.257068157E0,-8.562862396E0,-3.891774893E0
1.395809933E1,3.980958939E0,-7.315483093E0,-2.601300240E0
1.397828136E1,2.884414434E0,-6.190208435E0,-1.938106298E0
1.399846501E1,2.393603086E0,-5.845443249E0,-2.725798607E0
1.401865038E1,2.005742550E0,-5.040991783E0,-2.551021814E0
1.403883746E1,1.143829823E0,-3.975571871E0,-1.715445518E0
1.405902621E1,4.231751561E-1,-3.034650564E0,-9.157821536E-1
1.407921652E1,5.309142470E-1,-2.778470993E0,-6.524199843E-1
1.409940824E1,1.531690478E0,-3.412934542E0,-9.181763530E-1
1.411960116E1,3.391985178E0,-4.849455357E0,-1.523909330E0
1.413979501E1,5.565920353E0,-6.360196590E0,-2.491166830E0
1.415998954E1,6.700771809E0,-6.795941353E0,-2.838326216E0
1.418018444E1,5.984905720E0,-5.716156483E0,-2.586935043E0
1.420037897E1,5.168482780E0,-4.344278812E0,-2.136825085E0
1.422056985E1,5.259462357E0,-3.611653328E0,-1.282094955E0
1.424075485E1,4.531625271E0,-3.819948912E0,-1.057040095E0
1.426093735E1,3.832518339E0,-5.634753704E0,-1.995567083E0
1.428112032E1,3.324947596E0,-1.086608410E1,-7.451952934E0
1.430130392E1,3.605069160E0,-1.838866615E1,-1.157476807E1
1.432148829E1,5.273828030E0,-1.997602272E1,-5.208585739E0
1.434167355E1,7.098209381E0,-2.138620758E1,-4.926070213E0
1.436185975E1,8.508394241E0,-1.851077080E1,5.517437935E0
1.438204694E1,6.516418457E0,-9.477447510E0,3.779247284E0
1.440223512E1,5.362413406E0,-5.215768337E0,4.119224072E0
1.442242418E1,7.442974567E0,-8.696937561E0,-3.913322687E0
1.444261402E1,1.075176144E1,-1.544140339E1,-3.463212729E0
1.446280454E1,7.960122108E0,-1.327943993E1,-1.727416515E0
1.448299564E1,5.410297394E0,-8.033743858E0,-3.257311344E0
1.450318715E1,3.332130194E0,-5.914875507E0,-2.067393064E0
1.452337892E1,2.328959703E0,-5.905298710E0,-1.009155989E0
1.454357621E1,1.476623893E0,-6.199785233E0,-1.624465823E0
1.456376657E1,5.764040351E-1,-6.142324448E0,-4.416105270E0
1.458394475E1,2.546832085E0,-6.590040207E0,-4.030638695E0
1.460412345E1,4.466981888E0,-5.663484097E0,-1.143231273E0
1.462430303E1,4.325724125E0,-4.219780445E0,4.297592044E-1
1.464448376E1,4.241926670E0,-3.293224335E0,3.196259141E-1
1.466466584E1,5.439027786E0,-3.195062160E0,-2.620453835E0
1.468484949E1,6.078279495E0,-3.558980942E0,-5.333084106E0
1.470503480E1,2.896385431E0,-3.925293684E0,-6.584054977E-2
1.472522178E1,1.979406238E0,-4.301183224E0,1.124077678E0
1.474541043E1,3.193266630E0,-6.400898457E0,8.990227580E-1
1.476560064E1,6.152499676E0,-9.312247276E0,-4.542997837E0
1.478579225E1,6.217143059E0,-8.799888611E0,-2.445677042E0
1.480598506E1,6.458957672E0,-8.057685852E0,-1.662773132E0
1.482617881E1,6.839635849E0,-9.611522675E0,-3.326743364E0
1.484637324E1,5.144540787E0,-1.022922707E1,-1.827973008E0
1.486656803E1,5.776610374E0,-1.214458847E1,-3.456030130E0
1.488676256E1,8.501212120E0,-1.675103188E1,-6.353013992E0
1.490695355E1,8.168417931E0,-1.977969742E1,-5.249287128E0
1.492714131E1,7.514800549E0,-1.632007599E1,-3.362656355E0
1.494732631E1,8.134899139E0,-1.021965027E1,-2.462436438E0
1.496750881E1,7.651269913E0,-8.289923668E0,-3.867832899E0
1.498769178E1,6.789357662E0,-9.276334763E0,-4.368220806E0
1.500787538E1,6.226719856E0,-9.903614998E0,-4.128800869E0
1.502805975E1,5.079897404E0,-9.242815971E0,-3.965995073E0
1.504824501E1,3.260304213E0,-7.703343868E0,-2.981978178E0
1.506843121E1,1.792658567E0,-6.084863663E0,-2.057816267E0
1.508861840E1,1.220444322E0,-4.916493416E0,-1.148019671E0
1.510880657E1,1.048061848E0,-3.872621298E0,-5.590460896E-1
1.512899564E1,1.198896527E0,-3.173514366E0,-7.433996201E-1
1.514918548E1,1.716044068E0,-3.305195332E0,-1.080982089E0
1.516937600E1,2.302623510E0,-3.666719913E0,-1.078587890E0
1.518956709E1,2.917933226E0,-3.496731520E0,-7.146692276E-1
1.520975860E1,3.719990969E0,-2.948459387E0,-6.883329749E-1
1.522995038E1,5.087080002E0,-2.665943623E0,-1.298854470E0
1.525014767E1,6.695983410E0,-3.077746391E0,-1.981201887E0
1.527033803E1,7.301716805E0,-3.951629877E0,-2.213439465E0
1.529051621E1,6.253056526E0,-4.622006416E0,-1.717839718E0
1.531069491E1,4.723161221E0,-5.656301498E0,-1.638831019E0
1.533087449E1,3.006518841E0,-7.526173115E0,-4.353855610E0
1.535105522E1,2.788646460E0,-1.151730728E1,-6.582857609E0
1.537123730E1,2.312200308E0,-1.610938644E1,-5.680243492E0
1.539142095E1,2.525284290E0,-1.646612167E1,-1.511938334E0
1.541160626E1,6.083067894E0,-1.908298492E1,-4.265270233E0
1.543179324E1,1.273655415E1,-2.414911461E1,-1.401805043E0
1.545198188E1,9.051877975E0,-1.576701546E1,2.007538080E0
1.547217209E1,6.976105213E0,-6.077681065E0,-6.931213737E-1
1.549236371E1,7.766191959E0,-4.722562790E0,4.243722439E0
1.551255652E1,9.545084000E0,-1.035851383E1,7.793126702E-1
1.553275027E1,8.778939247E0,-1.416289997E1,-3.930082083E0
1.555294470E1,5.225943565E0,-1.191474438E1,-2.122459888E0
1.557313949E1,3.071162224E0,-9.065644264E0,-1.198297977E0
1.559333402E1,8.158242106E-1,-6.915651798E0,-2.227804661E0
1.561352496E1,-4.147954583E-1,-5.843049049E0,-2.364274263E0
1.563370996E1,-8.625111580E-1,-4.969165802E0,-2.275688648E0
1.565389246E1,6.075286865E-1,-5.091269970E0,-4.282029629E0
1.567407548E1,4.026448727E0,-5.840654850E0,-2.622848034E0
1.569425918E1,5.051167011E0,-5.448006153E0,6.500257850E-1
1.571444366E1,5.039196014E0,-4.581305027E0,1.636436820E0
1.573462902E1,4.349666119E0,-4.097676277E0,9.253589511E-1
1.575481532E1,3.157353401E0,-3.410540342E0,-4.273650050E-1
1.577500256E1,3.073556423E0,-2.713827610E0,-3.250128746E0
1.579519074E1,5.180453777E0,-5.409698963E0,-4.607641220E0
1.581537980E1,5.745485306E0,-7.533355713E0,9.181763530E-1
1.583556965E1,5.017648220E0,-7.040150166E0,7.314286232E-1
1.585576017E1,3.854066133E0,-4.724956989E0,-1.066616893E0
1.587595126E1,4.553173065E0,-5.615600109E0,-2.184709072E0
1.589614277E1,6.226719856E0,-9.520543098E0,-1.897404790E0
1.591633449E1,7.462128162E0,-1.307114410E1,-2.773682594E0
1.593653168E1,6.490082264E0,-1.371997261E1,-5.254075527E0
1.595672178E1,6.255450726E0,-1.374870300E1,-5.550956726E0
1.597689954E1,7.399878979E0,-1.567842960E1,-5.483919144E0
1.599707782E1,7.493252754E0,-1.664329338E1,-3.491943121E0
1.601725699E1,9.485228539E0,-1.563533401E1,-2.349909067E0
1.603743735E1,1.172380733E1,-1.203684902E1,-2.431311846E0
1.605761918E1,8.678382874E0,-9.601945877E0,-3.985148668E0
1.607780262E1,5.257068157E0,-8.828619003E0,-3.645172119E0
1.609798777E1,3.822941542E0,-8.783128738E0,-2.912546396E0
1.611817470E1,3.267486811E0,-8.586804390E0,-2.584540844E0
1.613836334E1,2.961029053E0,-7.406463146E0,-2.177526474E0
1.615855360E1,2.063203335E0,-5.761646271E0,-1.430535555E0
1.617874532E1,8.613140583E-1,-4.442441463E0,-1.363497853E0
1.619893829E1,4.950011969E-1,-3.870227098E0,-1.629254222E0
1.621913225E1,1.342548609E0,-3.989937067E0,-1.617283225E0
1.623932688E1,2.173336506E0,-4.502296448E0,-1.212663174E0
1.625952188E1,2.194884300E0,-4.669890404E0,-9.062053561E-1
1.627971428E1,2.226009130E0,-4.468777657E0,-9.253589511E-1
1.629990402E1,2.927510023E0,-4.243722439E0,-1.586158633E0
1.632009923E1,4.050390720E0,-4.200626850E0,-2.776076794E0
1.634028871E1,5.644928932E0,-4.212597847E0,-3.235763550E0
1.636046720E1,7.471704960E0,-4.107253075E0,-2.400187254E0
1.638064621E1,8.130110741E0,-3.707421303E0,-2.220622063E0
1.640082605E1,7.234679222E0,-3.858256102E0,-2.129642487E0
1.642100699E1,5.328894615E0,-4.926070213E0,-9.133879542E-1
1.644118928E1,3.411138773E0,-6.872556210E0,-9.780313969E-1
1.646137308E1,2.685695648E0,-1.104325581E1,-4.559757233E0
1.648155850E1,9.882067442E-1,-1.685877037E1,-1.177588081E1
1.650174558E1,2.479794502E0,-2.155140686E1,-1.354519653E1
1.652193428E1,7.574655533E0,-2.116115189E1,-7.625532150E-1
1.654212449E1,7.466916561E0,-1.479496956E1,8.514978409E0
1.656231605E1,7.490858555E0,-6.534973621E0,5.675455093E0
1.658250876E1,1.129045677E1,-6.743268967E0,-2.220622063E0
1.660270235E1,1.421856499E1,-1.280778217E1,-5.483919144E0
1.662289657E1,9.329605103E0,-1.280538750E1,-1.150413871E0
1.664309116E1,6.344036102E0,-1.191474438E1,-1.107318282E0
1.666328522E1,5.470152378E0,-1.072961521E1,-3.711012751E-2
1.668347579E1,3.755903959E0,-9.254786491E0,-7.003039718E-1
1.670366079E1,1.325789213E0,-8.139088631E0,-2.905363798E0
1.672384329E1,1.262941360E-1,-7.305906296E0,-3.470395327E0
1.674402626E1,-3.477577865E-1,-6.479907036E0,-2.287659645E0
1.676420985E1,7.487865686E-1,-5.682637691E0,-1.025915384E0
1.678439423E1,2.659359455E0,-4.978742599E0,-1.113303825E-1
1.680457949E1,3.648164749E0,-4.212597847E0,-4.082113802E-1
1.682476569E1,3.976170540E0,-3.891774893E0,-1.499967337E0
1.684495282E1,3.708019972E0,-4.013879299E0,-2.450465441E0
1.686514090E1,3.207631826E0,-3.942053080E0,-1.555034041E0
1.688532991E1,3.336918592E0,-3.872621298E0,-6.979097724E-1
1.690551980E1,4.433463097E0,-4.217386246E0,-1.831564307E-1
1.692571043E1,6.746262074E0,-5.388150692E0,-1.471236944E0
1.694590162E1,9.269750595E0,-6.709750175E0,-3.942053080E0
1.696609324E1,8.558672905E0,-6.973112583E0,-1.624465823E0
1.698628506E1,8.613739014E0,-8.366538048E0,-1.842338204E0
1.700648235E1,8.041524887E0,-1.001614285E1,-4.030638695E0
1.702667256E1,8.704718590E0,-1.203924370E1,-4.004302502E0
1.704685043E1,1.005026054E1,-1.579095745E1,-3.791218281E0
1.706702881E1,9.274538994E0,-2.001911736E1,-3.343502760E0
1.708720808E1,6.087856293E0,-1.839105988E1,-2.002749681E0
1.710738855E1,4.526836872E0,-1.255878544E1,-1.679532528E0
1.712757048E1,4.440645695E0,-9.036913872E0,-1.241393566E0
1.714775402E1,5.429450989E0,-7.538144112E0,-4.848258495E-1
1.716793928E1,6.334459305E0,-7.329848289E0,-2.012326479E0
1.718812631E1,6.468534470E0,-6.769605160E0,-3.113659382E0
1.720831506E1,3.207631826E0,-6.460753441E0,-3.312378168E0
1.722850543E1,3.369838893E-1,-6.374562263E0,-2.970007181E0
1.724869725E1,-3.094505668E-1,-5.728127480E0,-2.060210466E0
1.726889027E1,2.220622003E-1,-4.813542366E0,-1.543063045E0
1.728908423E1,1.105522633E0,-4.341884613E0,-1.387439847E0
1.730927886E1,1.759139657E0,-4.483142853E0,-1.116895080E0
1.732947386E1,2.357690096E0,-4.693832397E0,-7.697358727E-1
1.734966840E1,2.525284290E0,-4.698620796E0,-5.973533392E-1
1.736985923E1,2.635417461E0,-4.782417774E0,-1.100135684E0
1.739004423E1,3.018489838E0,-5.483919144E0,-2.426523447E0
1.741022673E1,4.198831081E0,-7.011419773E0,-4.770446777E0
1.743040970E1,8.750208855E0,-8.790311813E0,-9.233239174E0
1.745059329E1,1.122581291E1,-8.840589523E0,-9.463082314E0
1.747077767E1,6.085462093E0,-9.977835655E0,-6.494272232E0
1.749096293E1,1.567603588E0,-1.202966690E1,-7.581239700E0
1.751114912E1,2.752733469E0,-1.060990524E1,-1.076193690E0
1.753133626E1,2.635417461E0,-1.046146393E1,2.460042238E0
1.755152433E1,8.254609108E0,-1.772786713E1,1.795651205E-2
1.757171334E1,1.305498314E1,-2.207334328E1,4.437653065E0
1.759190319E1,9.705494881E0,-1.329619884E1,8.194155693E0
1.761209371E1,4.584297657E0,-7.181407928E0,3.657143116E0
1.763228480E1,4.766256809E0,-8.541314125E0,6.189011335E-1
1.765247631E1,6.312911510E0,-1.521156025E1,-2.996343374E0
1.767266808E1,4.239532471E0,-1.704551888E1,-4.689043999E0
1.769286538E1,1.716044068E0,-1.222359657E1,-1.722628117E0
1.771305574E1,-2.735375464E-1,-8.299500465E0,-1.361103654E0
1.773323392E1,2.094926499E-2,-6.333860397E0,-1.265335560E0
1.775341262E1,2.412158251E-1,-4.669890404E0,-1.997961283E0
1.777359220E1,8.780734539E-1,-3.678690910E0,-2.206256866E0
1.779377293E1,3.413532972E0,-4.689043999E0,-9.217676520E-2
1.781395501E1,4.871602058E0,-5.443217754E0,2.170343876E0
1.783413866E1,5.142146587E0,-5.483919144E0,2.630030632E0
1.785432397E1,5.565920353E0,-5.811924458E0,1.918952703E0
1.787451095E1,6.358401299E0,-6.841431141E0,2.573766708E-1
1.789469959E1,7.067084789E0,-8.593987465E0,-3.264493942E0
1.791488980E1,7.091026783E0,-1.038724422E1,-6.965929985E0
1.793508137E1,6.942586422E0,-1.095227528E1,-3.570951939E0
1.795527407E1,7.553107738E0,-1.105043793E1,6.021417379E-1
1.797546772E1,7.287351608E0,-1.131619453E1,1.459265947E0
1.799566204E1,6.695983410E0,-1.141435623E1,2.358288616E-1
1.801585673E1,7.586626530E0,-1.163701725E1,-8.726865053E-1
1.803605142E1,8.776544571E0,-1.115338898E1,-9.229647517E-1
1.805624256E1,7.905055523E0,-9.843760490E0,-8.367735147E-1
1.807642756E1,5.893926144E0,-9.944316864E0,-1.466448545E0
1.809661006E1,3.657741547E0,-1.078707600E1,-1.504755735E0
1.811679303E1,2.163759708E0,-1.194826317E1,-5.973533392E-1
1.813697663E1,1.373673201E0,-1.266891861E1,1.328781992E-1
1.815716100E1,1.581968784E0,-1.098340034E1,1.461660147E0
1.817734626E1,2.565985680E0,-8.433575630E0,3.415328741E0
1.819753246E1,3.478176594E0,-7.248445511E0,4.643554211E0
1.821771959E1,5.448604584E0,-7.490260124E0,1.835155606E0
1.823790767E1,8.850765228E0,-8.455122948E0,-1.842338204E0
1.825809668E1,1.119229412E1,-8.778340340E0,-1.976413488E0
1.827828652E1,8.793304443E0,-7.973888874E0,-2.005143881E0
1.829847704E1,3.729567766E0,-8.050502777E0,-1.593341231E0
1.831866814E1,1.687313676E0,-7.753622055E0,-1.200692177E0
1.833885965E1,1.467047095E0,-7.298723698E0,-6.763619781E-1
1.835905142E1,1.411980510E0,-7.322665691E0,-7.074866295E-1
1.837924871E1,2.372055292E0,-6.965929985E0,-1.138442874E0
1.839943907E1,3.815758944E0,-6.558915615E0,-1.753752708E0
1.841961725E1,4.103063107E0,-6.400898457E0,-2.467224836E0
1.843979595E1,3.708019972E0,-6.297947407E0,-2.661155224E0
1.845997553E1,3.686472178E0,-6.558915615E0,-2.682703018E0
1.848015626E1,3.791816950E0,-6.815094948E0,-2.852691412E0
1.850033834E1,4.206013680E0,-6.690596581E0,-3.288435936E0
1.852052199E1,5.084685802E0,-6.331466198E0,-3.163937569E0
1.854070730E1,5.927444935E0,-6.738480568E0,-2.943670988E0
1.856089428E1,5.822100163E0,-8.091204643E0,-3.484760523E0
1.858108293E1,3.365648985E0,-7.935581684E0,-5.129577160E0
1.860127314E1,3.284246206E0,-7.121552944E0,-5.555745125E0
1.862146470E1,7.086238384E0,-6.566098213E0,-3.772064686E0
1.864165741E1,1.141974354E1,-7.416039944E0,-1.938106298E0
1.866185105E1,1.441967869E1,-1.204163742E1,-8.726865053E-1
1.868204538E1,1.244685650E1,-1.747168732E1,-2.932897210E-1
1.870224006E1,8.204330444E0,-1.718677711E1,-3.324349165E0
1.872243470E1,-7.739257216E-1,-7.590816498E0,-4.624400616E0
1.874262579E1,-2.459443808E0,-3.403357744E0,-1.629254222E0
1.876281079E1,-4.842272997E-1,-3.417722940E0,5.853823423E-1
1.878299329E1,1.368884802E0,-6.374562263E0,1.428141356E0
1.880317626E1,2.925115824E0,-1.148618221E1,2.986766577E0
1.882335985E1,4.172494888E0,-1.525705051E1,3.604470730E0
1.884354423E1,4.301782131E0,-1.241034412E1,1.066616893E0
1.886372949E1,3.777451754E0,-8.311470985E0,-3.910928488E0
1.888391569E1,4.627393246E0,-6.391321659E0,-6.987477779E0
1.890410282E1,5.304952621E0,-7.516596317E0,-1.691503525E0
1.892429090E1,4.778227806E0,-8.378508568E0,-3.986345828E-1
1.894447985E1,3.542819977E0,-8.435969353E0,-4.967968464E-1
1.896466965E1,2.774281263E0,-8.440757751E0,-7.912836671E-1
1.898486017E1,2.108693123E0,-8.323442459E0,-1.394622445E0
1.900505126E1,2.202066898E0,-7.971494675E0,-2.033874273E0
1.902524277E1,3.504512787E0,-7.691372871E0,-1.626860023E0
1.904543454E1,4.799776077E0,-7.686584473E0,-7.505822182E-1
1.906563183E1,5.628169537E0,-7.796717644E0,-2.669534981E-1
1.908582220E1,5.680841923E0,-7.813477039E0,8.379706182E-3
1.910600038E1,5.115810394E0,-7.679401875E0,-1.089361757E-1
1.912617907E1,4.589086056E0,-7.688978672E0,-1.016338587E0
1.914635866E1,4.328118324E0,-7.892486095E0,-1.684320927E0
1.916653938E1,4.191648483E0,-8.019378662E0,-1.370680451E0
1.918672147E1,4.088697910E0,-8.258798599E0,-5.231330991E-1
1.920690512E1,4.038419724E0,-8.644265175E0,2.023100406E-1
1.922709043E1,4.263474464E0,-8.991424561E0,8.846575022E-1
1.924727741E1,4.660912037E0,-9.324218750E0,1.248576164E0
1.926746605E1,4.979341030E0,-9.582792282E0,8.966285586E-1
1.928765626E1,5.604227543E0,-9.601945877E0,-5.590460896E-1
1.930784782E1,7.706336498E0,-1.038724422E1,-1.155202270E0
1.932804053E1,8.836400032E0,-9.874884605E0,9.014169574E-1
1.934823418E1,9.281721115E0,-9.372102737E0,2.541445017E0
1.936842850E1,9.367912292E0,-1.043033981E1,2.572569609E0
1.938862319E1,6.875548840E0,-1.156519127E1,1.080982089E0
1.940881788E1,2.589927673E0,-1.287960815E1,-2.048239470E0
1.942900902E1,-1.128267527E0,-1.382531738E1,-3.671508312E0
1.944919402E1,-1.156997919E0,-1.324352646E1,-9.923965931E-1
1.946937652E1,-6.398503780E-1,-1.109592819E1,-6.584054977E-2
1.948955949E1,4.830302000E-1,-8.783128738E0,7.266402245E-1
1.950974308E1,1.811812162E0,-7.863755703E0,2.007538080E0
1.952992746E1,3.478176594E0,-7.918822289E0,3.355473757E0
1.955011272E1,5.711966515E0,-8.265981674E0,1.083376288E0
1.957029892E1,7.488464355E0,-8.632294655E0,-2.349909067E0
1.959048605E1,7.205948353E0,-8.730456352E0,-1.543063045E0
1.961067413E1,6.061520100E0,-8.198944092E0,-6.596025825E-1
1.963086308E1,5.254673958E0,-7.612364292E0,-8.271966577E-1
1.965105288E1,4.155735493E0,-7.602787495E0,-9.038111567E-1
1.967124340E1,3.054402828E0,-8.043320656E0,-6.189011335E-1
1.969143449E1,2.927510023E0,-8.215703011E0,2.035071515E-2
1.971162600E1,3.363254786E0,-8.179790497E0,-4.297592044E-1
1.973181777E1,3.813364744E0,-7.914033890E0,-2.012326479E0
1.975201506E1,3.669712543E0,-7.540538311E0,-2.809595585E0
1.977220548E1,3.047220230E0,-7.502231121E0,-2.515108824E0
1.979238376E1,3.025672436E0,-7.566874504E0,-2.021903276E0
1.981256256E1,3.538031578E0,-7.487865925E0,-2.019509077E0
1.983274225E1,4.253897667E0,-7.291541100E0,-2.416946650E0
1.985292308E1,4.972158432E0,-7.133523941E0,-2.620453835E0
1.987310527E1,5.285799026E0,-6.719326973E0,-2.807201385E0
1.989328897E1,5.314529419E0,-6.183025837E0,-3.106476784E0
1.991347428E1,5.127781391E0,-6.060921669E0,-3.120841980E0
1.993366126E1,4.689642429E0,-6.175843239E0,-3.223792553E0
1.995384985E1,4.249109268E0,-5.857414246E0,-3.434482336E0
1.997403996E1,5.415085793E0,-6.575675011E0,-3.348291159E0
1.999423142E1,6.643311024E0,-8.122329712E0,-2.804807186E0
2.001442402E1,6.870760441E0,-8.974664688E0,-2.826355219E0
2.003461756E1,7.428609371E0,-7.997830868E0,-4.423287868E0
2.005481178E1,7.586626530E0,-6.388927460E0,-5.220556736E0
2.007500636E1,7.488464355E0,-7.638700485E0,-3.527856112E0
2.009520100E1,7.198765755E0,-1.153406715E1,-2.074575663E0
2.011539220E1,5.841253757E0,-1.508945656E1,-1.832761407E0
2.013557996E1,5.632957935E0,-1.803671837E1,-3.515885115E0
2.015576496E1,3.339312792E0,-1.355956173E1,-1.511938334E0
2.017594746E1,-2.214636654E-2,-5.120000362E0,-2.765302956E-1
2.019613043E1,-1.159392118E0,-2.017114878E0,-1.993172884E0
2.021631402E1,5.835866928E-1,-3.573346138E0,-3.172317147E-1
2.023649840E1,3.171718597E0,-7.542932510E0,1.545457244E0
2.025668366E1,5.175665379E0,-1.255639076E1,2.900575399E0
2.027686985E1,6.099827290E0,-1.437837791E1,2.297236443E0
2.029705699E1,5.642534733E0,-1.072961521E1,5.758054852E-1
2.031724506E1,4.486135483E0,-7.597999096E0,-5.189432144E0
2.033743402E1,4.397550106E0,-7.787140846E0,-4.480748653E0
2.035762381E1,3.798999548E0,-9.094375610E0,-2.382230759E-1
2.037781433E1,2.506130695E0,-8.936357498E0,-5.446808934E-1
2.039800543E1,2.252345324E0,-8.617929459E0,-1.459265947E0
2.041819694E1,2.700061083E0,-8.270770073E0,-1.071405292E0
2.043838871E1,2.843713045E0,-7.796717644E0,-6.356605291E-1
2.045858600E1,3.396773577E0,-7.732074261E0,-1.076193690E0
2.047877636E1,4.292205334E0,-7.588422298E0,-1.945288897E0
2.049895454E1,4.876390457E0,-7.382521152E0,-2.577358246E0
2.051913324E1,5.055955410E0,-7.298723698E0,-2.637213230E0
2.053931282E1,5.304952621E0,-7.061697960E0,-3.283647537E0
2.055949355E1,4.727949619E0,-6.338648796E0,-3.072957993E0
2.057967564E1,3.921103716E0,-5.266046524E0,-2.800018787E0
2.059985928E1,3.672106743E0,-4.794388771E0,-3.922899485E0
2.062004459E1,3.418321371E0,-5.685031891E0,-1.444900751E0
2.064023157E1,4.229955673E0,-6.396110058E0,1.198297977E0
2.066042022E1,4.531625271E0,-6.470330238E0,2.190694511E-1
2.068061043E1,3.734356165E0,-5.929240704E0,-1.318008065E0
2.070080199E1,2.554014683E0,-5.225345135E0,-2.646790028E0
2.072099470E1,2.204461098E0,-6.046556473E0,-1.248576164E0
2.074118834E1,3.669712543E0,-8.479064941E0,-7.721300721E-1
2.076138267E1,5.333683014E0,-9.807847023E0,-2.120065689E0
2.078157735E1,6.502053261E0,-9.180566788E0,-2.225410461E0
2.080177199E1,6.842030048E0,-8.943540573E0,-2.402581453E0
2.082196308E1,6.758233070E0,-1.029386997E1,-3.365050554E0
2.084214808E1,6.197989464E0,-1.272398472E1,-4.689043999E0
2.086233058E1,6.595427036E0,-1.763928032E1,-8.215703011E0
2.088251355E1,4.888361454E0,-2.080681038E1,-6.525396824E0
2.090269715E1,4.088697910E0,-1.718198776E1,-1.329979062E0
2.092288152E1,5.553949356E0,-1.004487324E1,-9.828197956E-1
2.094306678E1,6.559514046E0,-7.068880558E0,-3.125630379E0
2.096325298E1,7.864354134E0,-6.578069210E0,-2.773682594E0
2.098344012E1,8.388684273E0,-5.893327713E0,-2.910152197E0
2.100362819E1,7.059902191E0,-5.529408932E0,-2.941276789E0
2.102381715E1,4.215590477E0,-6.173449039E0,-2.879027605E0
2.104400694E1,1.943493247E0,-6.247669220E0,-2.610877037E0
2.106419746E1,8.828618526E-1,-5.799953461E0,-1.722628117E0
2.108438855E1,6.769605279E-1,-5.359420300E0,-1.523909330E0
2.110458006E1,1.098340034E0,-5.543774128E0,-2.562992811E0
2.112477183E1,2.036867142E0,-6.192602634E0,-3.228580952E0
2.114496913E1,2.271498919E0,-6.831854343E0,-3.199850559E0
2.116515949E1,1.962646842E0,-6.551733017E0,-2.910152197E0
2.118533767E1,1.723226666E0,-5.754463673E0,-2.055422068E0
2.120551636E1,2.716820478E0,-5.060145378E0,-1.253364563E0
2.122569595E1,5.010465622E0,-4.861426353E0,-1.595735431E0
2.124587668E1,8.302493095E0,-4.341884613E0,-3.324349165E0
2.126605876E1,1.039263058E1,-2.895787001E0,-3.623624325E0
2.128624241E1,9.276932716E0,-1.928529501E0,-3.479972124E0
2.130642772E1,7.000047207E0,-3.487154722E0,-2.972401381E0
2.132661470E1,3.573944569E0,-5.340266705E0,-1.997961283E0
2.134680334E1,1.385644197E0,-6.353013992E0,-1.636436820E0
2.136699355E1,1.450287700E0,-6.889315605E0,-2.148796082E0
2.138718512E1,3.135805607E0,-8.989029884E0,-5.045780182E0
2.140737782E1,6.791751862E0,-1.340872669E1,-1.144787502E1
2.142757147E1,6.253056526E0,-1.566645908E1,-5.448006153E0
2.144776579E1,5.388749599E0,-1.814685249E1,4.162319660E0
2.146796048E1,7.900267124E0,-2.215953445E1,-9.277531505E-1
2.148815512E1,7.244256020E0,-1.638232422E1,-2.584540844E0
2.150834621E1,4.756680012E0,-9.561244011E0,9.364919662E0
2.152853121E1,5.999270916E0,-9.118317604E0,-6.171054840E0
2.154871371E1,1.104385376E1,-1.513734055E1,-1.440112352E0
2.156889668E1,9.274538994E0,-1.341590881E1,-1.471236944E0
2.158908027E1,7.419032574E0,-8.720879555E0,-4.303577423E0
2.160926465E1,5.611410141E0,-6.884527206E0,-1.574187636E0
2.162944991E1,4.574720860E0,-5.644330502E0,-4.034229815E-1
2.164963610E1,3.377619982E0,-4.641160011E0,-3.196259141E-1
2.166982324E1,2.199672699E0,-3.954024076E0,-1.258152962E0
2.169001131E1,1.383249998E0,-4.140771866E0,-2.699462414E0
2.171020027E1,3.128623009E0,-6.046556473E0,-1.899798989E0
2.173039006E1,4.778227806E0,-6.841431141E0,-7.050924301E-1
2.175058058E1,4.452616692E0,-6.087257862E0,-9.612720013E-1
2.177077168E1,4.019266129E0,-5.187037945E0,-2.914940596E0
2.179096319E1,5.034407616E0,-5.843049049E0,-6.080075264E0
2.181115496E1,5.393537998E0,-7.631517887E0,-4.595670223E0
2.183135225E1,4.285022259E0,-8.275558472E0,-4.465186298E-1
2.185154256E1,2.901173830E0,-6.551733017E0,7.601590157E-1
2.187172064E1,1.555632591E0,-4.030638695E0,7.601590157E-1
2.189189923E1,1.601122379E0,-3.192667961E0,-6.452373862E-1
2.191207871E1,4.739920616E0,-6.602011204E0,-2.931699991E0
2.193225933E1,7.816470146E0,-9.314641953E0,-4.607641220E0
2.195244137E1,7.083844185E0,-8.634688377E0,-2.582146645E0
2.197262501E1,6.016030312E0,-8.189367294E0,-1.914164305E0
2.199281032E1,5.795763969E0,-8.613141060E0,-1.780089021E0
2.201299730E1,4.701613426E0,-8.407238960E0,-3.178302765E0
2.203318595E1,4.419097900E0,-9.254786491E0,-4.660313606E0
2.205337616E1,5.122992992E0,-1.208473301E1,-5.005078793E0
2.207356777E1,7.371148586E0,-1.732563972E1,-6.721721172E0
2.209376058E1,8.553884506E0,-2.016995239E1,-3.429693937E0
2.211395433E1,6.624157429E0,-1.444302177E1,-1.981201887E0
2.213414876E1,6.248267651E0,-9.108740807E0,-2.031480074E0
2.215434355E1,7.938574314E0,-8.265981674E0,-3.041833162E0
2.217453814E1,8.374319077E0,-8.119935036E0,-3.975571871E0
2.219472913E1,7.773374557E0,-6.669048786E0,-4.145560265E0
2.221491412E1,6.305728912E0,-5.850231647E0,-3.029862165E0
2.223509662E1,3.123834610E0,-5.546168327E0,-2.220622063E0
2.225527959E1,1.253963113E0,-4.930858612E0,-1.181538582E0
2.227546319E1,4.806360006E-1,-3.903745890E0,-8.918401599E-1
2.229564756E1,5.686229095E-2,-2.895787001E0,-1.373074651E0
2.231583282E1,3.848679364E-1,-2.412158251E0,-1.406593442E0
2.233601902E1,1.067215443E0,-2.886210203E0,-1.037886381E0
2.235620616E1,1.768716455E0,-3.918111086E0,-1.262941360E0
2.237639423E1,3.075950623E0,-5.108029366E0,-1.459265947E0
2.239658319E1,5.125387192E0,-5.591658115E0,-7.098808289E-1
2.241677298E1,7.119757175E0,-5.026626587E0,-5.686228871E-1
2.243696350E1,8.158841133E0,-3.676296711E0,-1.624465823E0
2.245715459E1,8.312069893E0,-2.989160776E0,-1.423352957E0
2.247734610E1,8.048707962E0,-3.657143116E0,-1.471236944E0
2.249753788E1,7.265803814E0,-5.148730755E0,-3.345896959E0
2.251773517E1,4.854842663E0,-8.304288864E0,-6.357802391E0
2.253792548E1,2.944269657E0,-1.293706894E1,-6.831854343E0
2.255810355E1,1.809417963E0,-1.933437538E1,-9.592369080E0
2.257828215E1,3.114257812E0,-2.468541718E1,-1.085890198E1
2.259846163E1,8.010400772E0,-2.403658867E1,3.956418276E0
2.261864225E1,6.437409878E0,-1.222359657E1,4.796782970E0
2.263882423E1,7.344812393E0,-4.504690647E0,1.811213613E0
2.265900777E1,1.114919853E1,-5.981913090E0,-1.248576164E0
2.267919298E1,1.484824085E1,-1.378940487E1,-3.405751944E0
2.269937991E1,9.497200012E0,-1.422993755E1,1.280897856E-1
2.271956855E1,5.960963726E0,-1.090917969E1,-2.382230759E-1
2.273975876E1,4.256291866E0,-8.299500465E0,2.382230759E-1
2.275995038E1,1.859696150E0,-6.089652061E0,-1.496376097E-1
2.278014319E1,-1.152209520E0,-5.404910564E0,-2.625242233E0
2.280033694E1,-2.390011787E0,-6.187814236E0,-3.384204149E0
2.282053136E1,-9.391255975E-1,-8.033743858E0,-2.076969862E0
2.284072616E1,2.757521868E0,-8.230068207E0,-7.936778665E-1
2.286092084E1,4.613028049E0,-7.128735542E0,1.903390288E-1
2.288111194E1,5.635352135E0,-5.677849293E0,-1.155202270E0
2.290129694E1,7.258621216E0,-4.164713860E0,-5.646724701E0
2.292147944E1,7.210736752E0,-3.594893932E0,-5.237316132E0
2.294166241E1,5.254673958E0,-3.626018524E0,-6.117185354E-1
2.296184600E1,4.294599533E0,-3.324349165E0,2.477998734E-1
2.298203038E1,4.397550106E0,-3.721786499E0,-4.225766063E-1
2.300221564E1,4.670488834E0,-4.552574635E0,-7.625532150E-1
2.302240183E1,3.708019972E0,-4.813542366E0,-3.268085420E-1
2.304258897E1,2.726397276E0,-5.232527733E0,-9.708487988E-1
2.306277704E1,2.855684042E0,-6.415263653E0,-1.751358509E0
2.308296600E1,3.269881010E0,-7.617152691E0,-1.023521185E0
2.310315574E1,4.948216438E0,-9.491812706E0,-2.531868219E0
2.312334616E1,5.704783916E0,-1.135689545E1,-2.615665436E0
2.314353715E1,8.383895874E0,-1.475905609E1,-7.250839710E0
2.316372855E1,1.215715790E1,-2.169984627E1,-8.625111580E0
2.318392022E1,1.018433571E1,-2.412038422E1,-5.493495941E0
2.320411741E1,8.944138527E0,-1.577419758E1,-1.792060018E0
2.322430793E1,9.731831551E0,-8.495824814E0,-2.381033659E0
2.324448652E1,9.609726906E0,-7.090428352E0,-3.032256365E0
2.326466558E1,7.818864346E0,-8.016983986E0,-3.384204149E0
2.328484543E1,5.154117584E0,-8.467094421E0,-2.732981205E0
2.330502636E1,2.628234863E0,-8.498218536E0,-2.033874273E0
2.332520866E1,1.534084797E0,-7.801506042E0,-2.177526474E0
2.334539246E1,1.378461599E0,-6.331466198E0,-1.837549806E0
2.336557788E1,6.003460884E-1,-4.456806660E0,-9.469067454E-1
2.338576496E1,6.883329898E-2,-2.713827610E0,-1.030703783E0
2.340595366E1,5.979518890E-1,-2.512714624E0,-1.751358509E0
2.342614386E1,1.629852772E0,-4.325125217E0,-1.641225219E0
2.344633543E1,2.147000313E0,-6.252457619E0,-9.732429981E-1
2.346652814E1,2.091933727E0,-6.621164799E0,-4.656722248E-1
2.348672173E1,1.816600561E0,-5.450400352E0,-7.864952683E-1
2.350691590E1,2.503736496E0,-4.124012470E0,-1.308431268E0
2.352711038E1,3.849277735E0,-3.269282341E0,-2.347514868E0
2.354730418E1,5.501276970E0,-3.424905539E0,-3.889380693E0
2.356749454E1,8.142081261E0,-5.148730755E0,-4.966771603E0
2.358767954E1,8.357559204E0,-6.343437195E0,-3.661931515E0
2.360786204E1,6.087856293E0,-7.645883083E0,-1.159990668E0
2.362804501E1,3.827729940E0,-8.895656586E0,-1.143231273E0
2.364822860E1,1.627458572E0,-9.463082314E0,-5.244498730E0
2.366841298E1,1.416768909E0,-9.704896927E0,-6.891709805E0
2.368859824E1,3.470993996E0,-1.138562584E1,-3.690661907E0
2.370878444E1,6.339247704E0,-1.685877037E1,-8.708909035E0
2.372897157E1,1.220983028E1,-2.197517967E1,-4.641160011E0
2.374915965E1,1.151311779E1,-1.657625580E1,4.387374401E0
2.376934860E1,8.927379608E0,-8.251616478E0,3.824737310E0
2.378953834E1,7.411849976E0,-5.663484097E0,1.301248670E0
2.380972876E1,9.456498146E0,-1.098818874E1,-6.194996834E0
2.382991975E1,7.914632320E0,-1.384686565E1,1.472434103E-1
2.385011116E1,5.388749599E0,-1.237203693E1,2.310404629E-1
2.387030282E1,4.893149853E0,-9.238027573E0,6.452373862E-1
2.389050001E1,3.133411407E0,-6.649895191E0,-1.382651448E0
2.391069043E1,7.966706157E-1,-5.522226334E0,-3.472789526E0
2.393086881E1,-2.879027426E-1,-6.118382454E0,-2.910152197E0
2.395104772E1,-1.453878999E0,-7.143100739E0,-3.652354717E0
2.397122751E1,4.495113790E-1,-8.680178642E0,-2.716221809E0
2.399140845E1,3.506906986E0,-7.461529732E0,-8.487445116E-1
2.401159074E1,4.273051262E0,-5.122394562E0,-9.516952038E-1
2.403177454E1,5.434239388E0,-3.515885115E0,-2.026691675E0
2.405195996E1,6.691195011E0,-2.890998602E0,-3.180696964E0
2.407214704E1,6.075885296E0,-2.795230389E0,-5.159504414E-1
2.409233574E1,4.414309502E0,-2.266111851E0,3.363853395E-1
2.411252595E1,3.727173567E0,-2.510320425E0,-6.811503768E-1
2.413271751E1,4.510077477E0,-4.832695961E0,-1.528697729E0
2.415291022E1,4.601057053E0,-6.738480568E0,-8.990227580E-1
2.417310381E1,4.036025524E0,-7.791929245E0,-7.290344238E-1
2.419329798E1,4.589086056E0,-9.412803650E0,-1.341950059E0
2.421349246E1,5.771821976E0,-1.145266342E1,-3.867832899E0
2.423368636E1,5.977723122E0,-1.245822811E1,-4.969165802E0
2.425387688E1,7.744644165E0,-1.452203083E1,-6.997054577E0
2.427406465E1,8.886677742E0,-1.760576248E1,-6.776787758E0
2.429425230E1,7.926603317E0,-1.844612694E1,-4.581305027E0
2.431443720E1,8.225878716E0,-1.485003567E1,-3.025073767E0
2.433461959E1,8.699930191E0,-1.059075165E1,-3.487154722E0
2.435480251E1,8.659229279E0,-9.175778389E0,-4.270058632E0
2.437498610E1,7.045536995E0,-9.005789757E0,-4.121618271E0
2.439517048E1,3.918709517E0,-8.816647530E0,-3.494337320E0
2.441535574E1,1.840542555E0,-8.529343605E0,-2.618059635E0
2.443554194E1,9.546879530E-1,-7.717709064E0,-2.215833664E0
2.445572907E1,6.530185342E-1,-6.405686855E0,-1.835155606E0
2.447591715E1,7.631517649E-1,-4.794388771E0,-1.519120932E0
2.449610616E1,1.531690478E0,-3.817554712E0,-2.117671490E0
2.451629600E1,2.712032080E0,-4.780023575E0,-2.100912094E0
2.453648652E1,2.719214678E0,-5.809530258E0,-1.581370234E0
2.455667762E1,1.977012038E0,-6.274005413E0,-1.090558887E0
2.457686912E1,1.562815189E0,-6.125565052E0,-9.995791912E-1
2.459706090E1,1.483806491E0,-5.278017521E0,-1.373074651E0
2.461725819E1,2.314594507E0,-4.463989258E0,-1.509544134E0
2.463744850E1,3.617040157E0,-3.985148668E0,-1.916558504E0
2.465762657E1,5.364807606E0,-4.344278812E0,-3.001131773E0
2.467780517E1,7.663240910E0,-5.986701488E0,-3.915716887E0
2.469798465E1,7.414244175E0,-6.453570843E0,-4.389768600E0
2.471816532E1,5.783792973E0,-5.941211700E0,-3.654748917E0
2.473834741E1,4.797381878E0,-6.245275021E0,-1.619677424E0
2.475853105E1,4.074332714E0,-6.427234650E0,-3.866635859E-1
2.477871636E1,4.316147327E0,-7.650671482E0,-7.050924301E-1
2.479890334E1,4.840477467E0,-9.953893661E0,-1.552639842E0
2.481909199E1,4.253897667E0,-1.503438950E1,-1.018852520E1
2.483928220E1,8.585008621E0,-2.279878616E1,-1.044231033E1
2.485947381E1,1.191773796E1,-2.370858192E1,3.962403834E-1
2.487966663E1,6.976105213E0,-1.427782154E1,1.906981707E0
2.489986038E1,4.239532471E0,-5.313930511E0,2.357091665E0
2.492005480E1,5.711966515E0,-3.547009706E0,3.427299738E0
2.494024959E1,1.055064869E1,-9.757569313E0,2.507926226E0
2.496044428E1,1.089301872E1,-1.483327675E1,1.782483220E0
2.498063538E1,6.827664852E0,-1.287481976E1,-2.091335297E0
2.500082038E1,3.674500942E0,-9.616311073E0,-4.229357243E0
2.502100288E1,3.925892353E0,-8.452729225E0,-7.074866295E-1
2.504118590E1,1.620275974E0,-6.532579422E0,-6.141127348E-1
2.506136959E1,-3.876811028E0,-5.165490150E0,-6.115988255E0
2.508155407E1,-4.348468781E0,-6.992266178E0,-4.277241230E0
2.510173944E1,-1.326986313E0,-7.818265438E0,3.675099611E-1
2.512192574E1,3.752911091E-1,-5.697002888E0,1.404199243E0
2.514211298E1,7.894880176E-1,-3.072957993E0,1.078587890E0
2.516230116E1,1.052850246E0,-1.394622445E0,1.783680320E-1
2.518249022E1,2.470217705E0,-1.277306557E0,-5.566518903E-1
2.520268006E1,6.930615425E0,-6.417657852E0,3.292027414E-1
2.522287058E1,1.195125675E1,-1.041836834E1,-5.524620533E0
2.524306168E1,1.290893745E1,-8.301894188E0,-5.594052315E0
2.526325319E1,7.543530941E0,-3.870227098E0,1.432929754E0
2.528344496E1,5.606621742E0,-1.423352957E0,-2.573766708E-1
2.530364225E1,7.304111004E0,-4.016273499E0,-1.545457244E0
2.532383251E1,7.787739754E0,-6.855796337E0,-2.740163803E0
2.534401048E1,7.016806602E0,-8.957905769E0,-2.622848034E0
2.536418897E1,7.275380611E0,-1.249174690E1,-3.807977915E0
2.538436834E1,8.965686798E0,-1.881483459E1,-4.313154221E0
2.540454892E1,7.565078735E0,-2.333508682E1,-2.378639460E0
2.542473095E1,5.570708752E0,-1.986828232E1,-2.634819031E0
2.544491459E1,6.087856293E0,-1.257075596E1,-2.495955229E0
2.546509996E1,7.342418194E0,-9.702502251E0,-2.029085875E0
2.548528709E1,7.770980358E0,-8.962694168E0,-1.964442492E0
2.550547595E1,7.351994991E0,-7.923610687E0,-3.128024578E0
2.552566637E1,4.974552631E0,-6.649895191E0,-3.685873508E0
2.554585819E1,1.996165633E0,-6.338648796E0,-3.501519918E0
2.556605121E1,9.834183455E-1,-5.974730492E0,-2.388216257E0
2.558624517E1,3.681085110E-1,-5.155913353E0,-1.662773132E0
2.560643980E1,1.071405262E-1,-4.217386246E0,-1.442506552E0
2.562663480E1,8.038532138E-1,-3.726574898E0,-1.133654475E0
2.564682923E1,2.202066898E0,-4.033032894E0,-8.463503122E-1
2.566702001E1,3.375225782E0,-4.526238441E0,-9.947907925E-1
2.568720777E1,3.813364744E0,-5.031414986E0,-1.327584863E0
2.570739277E1,3.509301186E0,-5.462371349E0,-2.079364061E0
2.572757527E1,3.109469414E0,-6.147112846E0,-3.530250311E0
2.574775829E1,3.463811398E0,-7.406463146E0,-5.258863926E0
2.576794199E1,4.337695122E0,-8.416815758E0,-5.725733280E0
2.578812647E1,4.555567265E0,-8.261193275E0,-5.187037945E0
2.580831183E1,4.457405090E0,-7.267599106E0,-6.331466198E0
2.582849814E1,6.265027523E0,-8.428787231E0,-6.982689381E0
2.584868538E1,8.841188431E0,-1.196741676E1,-6.951564789E0
2.586887355E1,8.635287285E0,-1.673187828E1,5.055356979E0
2.588906262E1,7.672817707E0,-2.459922600E1,2.184709072E0
2.590925246E1,3.135805607E0,-1.790264320E1,-1.083376288E0
2.592944298E1,2.223614931E0,-6.999448776E0,5.340266705E0
2.594963407E1,2.664147854E0,-7.937975883E0,3.597288132E0
2.596982558E1,7.076661587E0,-1.598967648E1,2.134430885E0
2.599001735E1,9.648034096E0,-1.752675438E1,-7.098808289E-1
2.601021465E1,6.940192223E0,-8.936357498E0,-6.357802391E0
2.603040517E1,4.538807869E0,-5.443217754E0,-1.540668845E0
2.605058366E1,3.322553396E0,-5.040991783E0,9.804255962E-1
2.607076267E1,2.472611904E0,-5.452794552E0,5.781996846E-1
2.609094251E1,1.270722508E0,-5.804741859E0,-8.319851160E-1
2.611112345E1,-3.046621680E-1,-6.781576157E0,-3.209427357E0
2.613130574E1,1.153406620E0,-8.095993042E0,-1.667561531E0
2.615148954E1,2.874837637E0,-7.763198853E0,6.165069342E-1
2.617167496E1,2.860472441E0,-7.377732754E0,9.804255962E-1
2.619186204E1,3.538031578E0,-8.328230858E0,4.967968464E-1
2.621205074E1,4.797381878E0,-1.021965027E1,-2.024297476E0
2.623224095E1,4.677671432E0,-1.071285534E1,-4.806359768E0
2.625243251E1,5.072714806E0,-9.312247276E0,-1.674744129E0
2.627262522E1,5.101445198E0,-8.309077263E0,6.105214357E-2
2.629281881E1,5.558737755E0,-8.117541313E0,6.428431273E-1
2.631301303E1,6.111798286E0,-8.802282333E0,5.231330991E-1
2.633320762E1,5.635352135E0,-9.285911560E0,-2.477998734E-1
2.635340204E1,5.371990204E0,-9.020154953E0,-2.304419041E0
2.637359303E1,6.432621479E0,-8.395268440E0,-3.305195332E0
2.639377814E1,7.672817707E0,-8.318654060E0,-1.404199243E0
2.641396074E1,8.429385185E0,-8.905233383E0,8.738835901E-2
2.643414381E1,9.420584679E0,-9.994594574E0,1.322796464E0
2.645432751E1,9.784503937E0,-1.089242077E1,1.686715126E0
2.647451199E1,7.852383137E0,-1.100734234E1,1.399410844E0
2.649469735E1,4.320935726E0,-1.167053604E1,-1.049857497E0
2.651488366E1,2.465429306E0,-1.333929443E1,-1.765723705E0
2.653507090E1,2.187701702E0,-1.383010578E1,1.185129806E-1
2.655525907E1,2.072780132E0,-1.136407852E1,1.272518158E0
2.657544814E1,1.945887446E0,-8.131906509E0,2.603694439E0
2.659563798E1,2.501342297E0,-6.391321659E0,3.681085110E0
2.661582850E1,3.973776340E0,-5.620388508E0,1.224634171E0
2.663601959E1,6.080673695E0,-5.972336292E0,-1.914164305E0
2.665621110E1,7.505223751E0,-7.293935299E0,-1.212663174E0
2.667640288E1,7.988852501E0,-8.019378662E0,-1.126471877E0
2.669660017E1,6.418256283E0,-8.222886086E0,-1.449689150E0
2.671679058E1,4.062361717E0,-8.500613213E0,-8.200140595E-1
2.673696886E1,3.107075214E0,-9.039308548E0,-4.273650050E-1
2.675714767E1,2.554014683E0,-9.403226852E0,-5.111620426E-1
2.677732735E1,2.340930700E0,-8.917203903E0,-1.377863050E0
2.679750819E1,2.755127668E0,-7.976283073E0,-2.213439465E0
2.681769038E1,3.356072187E0,-7.291541100E0,-2.967612982E0
2.683787413E1,3.669712543E0,-6.891709805E0,-3.147178173E0
2.685805954E1,3.669712543E0,-6.932411194E0,-2.689885616E0
2.687824663E1,3.317764997E0,-6.894104004E0,-2.328361034E0
2.689843532E1,2.994547844E0,-6.432023048E0,-2.852691412E0
2.691862553E1,3.504512787E0,-6.003460884E0,-3.365050554E0
2.693881709E1,4.732738018E0,-5.835866451E0,-3.166331768E0
2.695900980E1,6.466140270E0,-5.701791286E0,-3.482366323E0
2.697920345E1,9.303269386E0,-6.099228859E0,-3.982754469E0
2.699939777E1,1.146523380E1,-6.451176643E0,-2.948459387E0
2.701959246E1,1.049797630E1,-6.075286865E0,-2.572569609E0
2.703978454E1,8.996811867E0,-7.428010941E0,-2.297236443E0
2.705997397E1,8.120533943E0,-1.235527802E1,-4.560954273E-1
2.708016886E1,6.236296654E0,-1.793616295E1,-2.759317398E0
2.710035855E1,3.842095137E0,-1.852992439E1,-4.284423828E0
2.712053777E1,-1.408389091E0,-7.918822289E0,-2.814383984E0
2.714071746E1,-3.450643301E0,-2.215833664E0,-3.683479309E0
2.716089793E1,-8.313865662E-1,-3.022679567E0,6.093243361E-1
2.718107944E1,2.099116325E0,-6.633135796E0,1.981201887E0
2.720126220E1,5.364807606E0,-1.198178196E1,3.513490915E0
2.722144637E1,7.739855766E0,-1.521156025E1,2.898181200E0
2.724163204E1,7.981669903E0,-1.266413021E1,-1.376665980E-1
2.726181923E1,5.795763969E0,-8.105569839E0,-8.512583733E0
2.728200788E1,6.166864872E0,-7.626729488E0,-2.072181463E0
2.730219793E1,5.316923618E0,-7.835024834E0,4.201824069E-1
2.732238923E1,3.353677988E0,-7.837419033E0,-1.089361757E-1
2.734258157E1,3.200449228E0,-8.220491409E0,-6.356605291E-1
2.736277475E1,2.781463861E0,-8.361749649E0,-9.708487988E-1
2.738296850E1,2.008136749E0,-8.117541313E0,-1.315613866E0
2.740316256E1,1.900397658E0,-7.911639690E0,-1.452083349E0
2.742335631E1,2.237980127E0,-7.906851292E0,-1.171961784E0
2.744354688E1,2.625840664E0,-7.808688641E0,-1.095347285E0
2.746373199E1,3.221997023E0,-7.609970093E0,-8.104372621E-1
2.748391459E1,4.045602322E0,-7.468712330E0,-4.129997790E-1
2.750409767E1,4.352060318E0,-7.116764545E0,1.197100850E-3
2.752428136E1,4.524442673E0,-7.255628109E0,3.699041605E-1
2.754446584E1,4.950610638E0,-8.167819023E0,5.207388401E-1
2.756465121E1,5.118204594E0,-8.778340340E0,1.687912196E-1
2.758483751E1,5.609015942E0,-9.285911560E0,-2.166752517E-1
2.760502475E1,6.624157429E0,-9.980229378E0,2.035071515E-2
2.762521293E1,7.371148586E0,-1.004726696E1,3.363853395E-1
2.764540199E1,7.270592213E0,-9.700108528E0,3.699041605E-1
2.766559183E1,7.521983147E0,-1.068891335E1,5.087678432E-1
2.768578235E1,7.979275703E0,-1.227866364E1,6.021417379E-1
2.770597345E1,7.150881767E0,-1.283411789E1,2.238578647E-1
2.772616496E1,5.249885559E0,-1.280778217E1,-4.010287821E-1
2.774635673E1,2.460640907E0,-1.240316200E1,-2.534262419E0
2.776655402E1,1.837549806E-1,-1.212064648E1,-4.162319660E0
2.778674449E1,-9.534908533E-1,-1.212543488E1,-1.550245643E0
2.780692288E1,-1.863287449E0,-1.051413631E1,-9.217676520E-2
2.782710178E1,-4.626794755E-1,-7.830236435E0,1.016338587E0
2.784728157E1,1.495777488E0,-6.958747387E0,2.572569609E0
2.786746251E1,3.301005602E0,-7.990648270E0,3.494337320E0
2.788764480E1,5.261856556E0,-9.515754700E0,2.029085875E0
2.790782860E1,8.549096107E0,-9.798270226E0,-1.954865694E0
2.792801402E1,8.963293076E0,-8.431180954E0,-3.096899986E0
2.794820110E1,7.191583157E0,-6.843825340E0,-3.082534790E0
2.796838980E1,5.099050999E0,-6.757634163E0,-1.895010591E0
2.798858001E1,3.166930199E0,-7.978677273E0,-9.612720013E-1
2.800877157E1,2.099116325E0,-8.476671219E0,-4.872200489E-1
2.802896428E1,1.672948480E0,-7.952341080E0,-7.912836671E-1
2.804915793E1,1.273116708E0,-7.255628109E0,-9.636662006E-1
2.806935225E1,1.036090732E0,-6.827065945E0,-1.145625472E0
2.808954694E1,1.155800819E0,-6.432023048E0,-1.385045648E0
2.810974147E1,1.869272947E0,-6.563704014E0,-2.129642487E0
2.812993251E1,3.147776604E0,-7.107187748E0,-3.302801132E0
2.815011762E1,5.508459568E0,-7.767987251E0,-3.987542868E0
2.817030022E1,8.048707962E0,-8.045714378E0,-3.750516891E0
2.819048329E1,8.391077995E0,-7.564480305E0,-3.573346138E0
2.821066699E1,6.475717068E0,-7.195773125E0,-4.432864666E0
2.823085147E1,4.208407879E0,-6.760028362E0,-5.273229122E0
2.825103683E1,2.953846455E0,-6.353013992E0,-4.131195068E0
2.827122314E1,3.090315819E0,-6.604405403E0,-2.325966835E0
2.829141038E1,4.601057053E0,-6.963535786E0,-6.955155730E-1
2.831159855E1,6.559514046E0,-7.401674747E0,-2.419340849E0
2.833178762E1,6.909067631E0,-8.479064941E0,-5.747281075E0
2.835197746E1,6.097433090E0,-1.132577133E1,-5.218162537E0
2.837216798E1,5.352836609E0,-1.506790829E1,-4.392162800E0
2.839235907E1,5.352836609E0,-1.759618568E1,-2.115277290E0
2.841255058E1,3.119046211E0,-1.437837791E1,8.774749041E-1
2.843274235E1,1.038484931E0,-6.611588001E0,7.793126702E-1
2.845293965E1,1.239597917E0,-3.482366323E0,6.428431273E-1
2.847313012E1,3.097498417E0,-4.088099480E0,1.246181965E0
2.849330850E1,5.283404827E0,-7.978677273E0,2.278082848E0
2.851348741E1,5.884349346E0,-1.275032139E1,2.182314873E0
2.853366720E1,4.909909248E0,-1.351885986E1,1.270123959E0
2.855384814E1,4.141370296E0,-1.021965027E1,-1.424549967E-1
2.857403043E1,1.962646842E0,-8.040925980E0,-6.106411457E0
2.859421423E1,2.532466888E0,-8.500613213E0,-2.642001629E0
2.861439965E1,2.613869667E0,-8.890868187E0,-6.619967818E-1
2.863458673E1,2.484582901E0,-8.558073997E0,-6.236895323E-1
2.865477543E1,2.927510023E0,-8.292317390E0,-8.343793154E-1
2.867496564E1,3.660135746E0,-7.949946880E0,-7.577648163E-1
2.869515720E1,4.110245705E0,-7.349001884E0,-1.663970202E-1
2.871534991E1,4.273051262E0,-7.179013729E0,-3.914519846E-1
2.873554355E1,4.845265865E0,-7.483077526E0,-1.327584863E0
2.875573788E1,5.829282761E0,-7.741651058E0,-2.962824583E0
2.877593256E1,6.085462093E0,-7.674613476E0,-3.424905539E0
2.879612709E1,4.972158432E0,-7.035361767E0,-2.129642487E0
2.881631814E1,3.894767523E0,-6.345831394E0,-1.899798989E0
2.883650590E1,2.956240654E0,-5.957971096E0,-2.527079821E0
2.885669090E1,2.407968283E0,-5.584475517E0,-2.560598612E0
2.887687340E1,2.747945070E0,-5.397727966E0,-1.380257249E0
2.889705642E1,3.696048975E0,-6.029797077E0,-1.735796183E-1
2.891724012E1,3.954622746E0,-6.455965042E0,1.112106681E0
2.893742459E1,3.686472178E0,-5.946000099E0,9.301473498E-1
2.895760996E1,3.066373825E0,-5.196614742E0,9.756371975E-1
2.897779626E1,3.612251759E0,-5.234921932E0,-3.130418777E0
2.899798350E1,5.762245178E0,-7.815871239E0,-6.317101002E0
2.901817168E1,4.847660065E0,-1.023162079E1,1.746570110E0
2.903836074E1,6.722319603E0,-9.812635422E0,-2.361880064E0
2.905855064E1,6.468534470E0,-8.062474251E0,-3.029862165E0
2.907874126E1,4.347271919E0,-9.475052834E0,-2.864662409E0
2.909893246E1,5.666476727E0,-1.375349140E1,-6.388927460E0
2.911912407E1,7.411849976E0,-1.959534454E1,-7.897274494E0
2.913931595E1,5.573102951E0,-2.158253098E1,-3.817554712E0
2.915951334E1,5.570708752E0,-1.582686996E1,-3.244143426E-1
2.917970371E1,7.193977356E0,-8.811859131E0,-1.772906303E0
2.919988178E1,8.695141792E0,-7.447164536E0,-3.314772367E0
2.922006038E1,8.728660583E0,-7.945158482E0,-3.654748917E0
2.924023985E1,6.437409878E0,-8.194155693E0,-3.707421303E0
2.926042053E1,3.844489336E0,-7.631517887E0,-2.759317398E0
2.928060267E1,1.500565886E0,-6.451176643E0,-2.608482838E0
2.930078642E1,1.502361596E-1,-5.282805920E0,-2.266111851E0
2.932097183E1,-5.728127360E-1,-4.617218018E0,-1.768117905E0
2.934115892E1,-3.645172119E-1,-4.586093426E0,-1.655590534E0
2.936134767E1,5.476736426E-1,-4.844666958E0,-1.638831019E0
2.938153798E1,1.354519606E0,-5.261258125E0,-1.387439847E0
2.940172970E1,1.912368655E0,-5.708973885E0,-1.523909330E0
2.942192262E1,2.386420488E0,-5.503072739E0,-2.081758261E0
2.944211647E1,3.679289579E0,-5.112817764E0,-1.928529501E0
2.946231100E1,6.138134480E0,-4.966771603E0,-1.131260276E0
2.948250590E1,8.616133690E0,-4.693832397E0,-1.255758762E0
2.950270053E1,9.209895134E0,-4.413711071E0,-1.552639842E0
2.952289157E1,7.428609371E0,-4.521450043E0,-1.476025343E0
2.954307933E1,4.926668644E0,-5.531803131E0,-1.727416515E0
2.956326433E1,3.284246206E0,-6.985083580E0,-2.074575663E0
2.958344683E1,2.295440912E0,-7.988254070E0,-2.505532026E0
2.960362985E1,1.184531331E0,-9.005789757E0,-5.230133533E0
2.962381355E1,2.185307503E0,-1.197938824E1,-6.714538574E0
2.964399803E1,4.759074211E0,-1.479257488E1,-3.178302765E0
2.966418340E1,6.717531204E0,-1.846288681E1,-4.384980202E0
2.968436970E1,1.051234150E1,-2.557845306E1,-1.333929443E1
2.970455694E1,7.739855766E0,-1.856823158E1,2.910152197E0
2.972474512E1,5.489305973E0,-8.258798599E0,4.655525208E0
2.974493418E1,5.484517574E0,-4.298789024E0,4.863820553E0
2.976512402E1,7.277774811E0,-6.470330238E0,1.952471495E0
2.978531454E1,1.060092640E1,-1.200333023E1,-2.287659645E0
2.980550564E1,8.491635323E0,-1.098340034E1,-3.769670486E0
2.982569715E1,5.968146324E0,-8.953117371E0,-5.135562420E-1
2.984588892E1,3.729567766E0,-7.315483093E0,-7.781155407E-2
2.986608621E1,1.560420990E0,-6.369773388E0,2.430114746E-1
2.988627678E1,5.925649032E-2,-6.384139061E0,-3.483563364E-1
2.990645538E1,-2.674921751E0,-6.908469200E0,-4.234145641E0
2.992663444E1,-1.870470047E0,-7.858967304E0,-3.075352192E0
2.994681428E1,1.720832467E0,-7.961917877E0,-6.763619781E-1
2.996699522E1,3.241150618E0,-6.487089634E0,-5.901707411E-1
2.998717751E1,3.518877983E0,-4.605247021E0,-1.871068597E0
3.000736131E1,4.814141273E0,-4.112041473E0,-3.700238705E0
3.002754673E1,6.245873451E0,-5.256469727E0,-1.693897724E0
3.004773381E1,6.413467884E0,-5.771223068E0,5.781996846E-1
3.006792251E1,5.728725910E0,-4.940435410E0,4.034229815E-1
3.008811272E1,4.838083267E0,-4.449624062E0,1.077390742E-2
3.010830428E1,4.457405090E0,-5.120000362E0,-3.220201433E-1
3.012849699E1,3.954622746E0,-5.730521679E0,-6.619967818E-1
3.014869058E1,4.292205334E0,-7.365761757E0,-2.323572636E0
3.016888480E1,5.355230808E0,-1.058835697E1,-4.150348663E0
3.018907939E1,6.482899666E0,-1.332492924E1,-2.450465441E0
3.020927386E1,7.763797760E0,-1.382531738E1,-3.142389774E0
3.022946491E1,8.934561729E0,-1.413895798E1,-4.155137062E0
3.024965001E1,8.589797020E0,-1.765364647E1,-6.594828606E0
3.026983262E1,5.786187172E0,-1.915720558E1,-5.079298973E0
3.029001569E1,4.933851242E0,-1.519480133E1,-2.819172382E0
3.031019938E1,6.755838871E0,-1.029626465E1,-2.661155224E0
3.033038386E1,7.955333710E0,-9.549273491E0,-3.745728493E0
3.035056923E1,7.454945564E0,-9.862914085E0,-3.549403906E0
3.037075553E1,5.685630322E0,-8.756793022E0,-2.591723442E0
3.039094277E1,3.535637379E0,-6.846219540E0,-1.715445518E0
3.041113095E1,1.677736878E0,-5.012261391E0,-1.025915384E0
3.043132001E1,2.555810213E-1,-3.822343111E0,-8.343793154E-1
3.045150985E1,-6.254851818E-1,-3.379415751E0,-1.361103654E0
3.047170038E1,-7.092822790E-1,-3.623624325E0,-1.775300503E0
3.049189147E1,2.627636492E-1,-4.167108059E0,-1.487996340E0
3.051208298E1,1.299453020E0,-4.957194805E0,-1.136048675E0
3.053227475E1,2.230797529E0,-5.629965305E0,-9.181763530E-1
3.055247204E1,3.226785421E0,-5.522226334E0,-9.493009448E-1
3.057266251E1,4.759074211E0,-5.069722176E0,-1.368286252E0
3.059284090E1,6.514024258E0,-5.093664169E0,-1.796848416E0
3.061301980E1,7.464522362E0,-5.519832134E0,-2.785653591E0
3.063319959E1,7.431003571E0,-5.553350925E0,-3.894169092E0
3.065338053E1,5.956175327E0,-5.170278549E0,-2.675520420E0
3.067356282E1,4.569932461E0,-6.135141850E0,-2.670732021E0
3.069374663E1,4.000112534E0,-7.949946880E0,-3.056198359E0
3.071393204E1,3.827729940E0,-9.985017776E0,-2.862268209E0
3.073411913E1,2.103904724E0,-1.134971333E1,-4.981136799E0
3.075430782E1,9.451110959E-1,-1.167532444E1,-3.432088137E0
3.077449803E1,4.686649740E-1,-1.081820011E1,-1.851915002E0
3.079468959E1,3.700837374E0,-1.726817894E1,-7.329848289E0
3.081488230E1,9.205106735E0,-2.346437454E1,-3.472789526E0
3.083507595E1,8.125322342E0,-1.747168732E1,6.269217014E0
3.085527027E1,8.288127899E0,-6.417657852E0,3.591302549E-3
3.087546496E1,1.009814453E1,-4.724956989E0,3.815160513E0
3.089565944E1,1.325609589E1,-1.045428181E1,-6.344634295E-2
3.091585043E1,1.209490871E1,-1.446696377E1,-3.819948912E0
3.093603553E1,6.248267651E0,-1.175672722E1,-1.377863050E0
3.095621814E1,3.748721361E0,-8.634688377E0,-5.446808934E-1
3.097640121E1,2.295440912E0,-6.645106792E0,-5.614402890E-1
3.099658491E1,9.235633016E-1,-5.606023312E0,-2.549824715E-1
3.101676939E1,-9.175778031E-1,-5.242104530E0,-7.721300721E-1
3.103695475E1,-2.878428936E0,-6.104017258E0,-3.070563793E0
3.105714105E1,-4.914098978E-1,-8.567650795E0,-2.816778183E0
3.107732829E1,3.068768024E0,-9.178172112E0,-1.744175911E0
3.109751647E1,4.466981888E0,-7.983465672E0,-7.817068696E-1
3.111770553E1,4.953004837E0,-6.262034416E0,-1.085770488E0
3.113789538E1,6.334459305E0,-5.852625847E0,-1.916558504E0
3.115808590E1,7.742249966E0,-6.082469463E0,-2.153584480E0
3.117827699E1,7.442974567E0,-5.256469727E0,-1.578976035E0
3.119846850E1,5.817311764E0,-4.049792290E0,-7.050924301E-1
3.121866027E1,4.656123638E0,-4.662707806E0,-5.710170865E-1
3.123885756E1,5.501276970E0,-7.265204906E0,-1.545457244E0
3.125904798E1,6.011241913E0,-8.689755440E0,-2.828749418E0
3.127922626E1,3.961805344E0,-7.152677536E0,-7.864952683E-1
3.129940506E1,2.970605850E0,-5.005078793E0,-1.813607812E0
3.131958475E1,4.567538261E0,-5.388150692E0,-3.324349165E0
3.133976558E1,5.182847977E0,-8.031349182E0,-1.619677424E0
3.135994777E1,6.305728912E0,-1.039203262E1,-1.892616391E0
3.138013152E1,5.618592739E0,-1.028668785E1,-3.336320162E0
3.140031694E1,4.933851242E0,-9.745597839E0,-4.325125217E0
3.142050402E1,5.118204594E0,-1.208712769E1,-4.545392036E0
3.144069272E1,7.124545574E0,-1.774702072E1,-4.815936565E0
3.146088293E1,8.563461304E0,-2.039979553E1,-3.223792553E0
3.148107449E1,8.532336235E0,-1.598249340E1,-2.970007181E0
3.150126720E1,8.517971039E0,-9.834183693E0,-3.393780947E0
3.152146084E1,8.063073158E0,-7.846996307E0,-1.736993313E0
3.154165517E1,7.043142796E0,-6.412869453E0,-1.827973008E0
3.156184985E1,5.520430565E0,-4.717774391E0,-2.929305792E0
3.158204459E1,3.320159197E0,-3.697844505E0,-2.203862667E0
3.160223579E1,2.627636492E-1,-3.242946148E0,-2.108094692E0
3.162242079E1,-7.930793166E-1,-3.463212729E0,-2.675520420E0
3.164260329E1,-3.890577704E-2,-4.466383457E0,-2.536656618E0
3.166278631E1,8.924387097E-1,-5.407304764E0,-1.895010591E0
3.168297001E1,1.380855799E0,-5.045780182E0,-1.320402265E0
3.170315449E1,1.246780515E0,-4.025850296E0,-9.445125461E-1
3.172333985E1,1.524507880E0,-3.537432909E0,-6.476315856E-1
3.174352616E1,2.783858061E0,-4.124012470E0,-7.553706169E-1
3.176371340E1,4.526836872E0,-5.462371349E0,-6.524199843E-1
3.178390157E1,5.453392982E0,-6.312312603E0,-1.155202270E0
3.180409064E1,6.413467884E0,-5.776011467E0,-4.272452831E0
3.182428048E1,7.928997517E0,-4.712985992E0,-4.203021049E0
3.184447100E1,6.485293865E0,-4.712985992E0,-1.128866076E0
3.186466209E1,5.699995518E0,-5.728127480E0,-2.555810213E0
3.188485360E1,4.893149853E0,-1.038724422E1,-3.673902512E0
3.190504538E1,2.613869667E0,-2.111326790E1,-1.655949593E1
3.192524267E1,7.332841396E0,-2.846346664E1,-1.457949162E1
3.194543314E1,8.587403297E0,-2.501102829E1,4.704606235E-1
3.196561152E1,2.611475468E0,-1.008078671E1,8.670601845E0
3.198579043E1,2.491765499E0,-1.640028208E-1,5.823895454E0
3.200597022E1,6.921038628E0,-2.649184227E0,3.051409960E0
3.202615116E1,1.352664089E1,-1.323873806E1,-1.069011092E0
3.204633345E1,1.649545097E1,-1.553956604E1,-7.818265438E0
3.206651725E1,1.142453194E1,-1.215655899E1,-2.382230759E-1
3.208670267E1,6.997653008E0,-1.002811337E1,1.282094955E0
3.210688975E1,3.073556423E0,-8.301894188E0,1.351526856E0
3.212707845E1,6.266822815E-1,-7.746439457E0,1.544260085E-1
3.214726866E1,-5.155314922E0,-8.072051048E0,-7.090428352E0
3.216746022E1,-4.180874825E0,-8.974664688E0,-3.171120167E0
3.218765293E1,-1.059434265E-1,-6.594828606E0,-1.387439847E0
3.220784657E1,1.871667147E0,-3.745728493E0,-1.677138329E0
3.222804090E1,2.515707493E0,-2.534262419E0,-2.505532026E0
3.224823558E1,3.255515814E0,-2.974795580E0,-2.692279816E0
3.226843006E1,4.596268654E0,-4.329913616E0,-1.265335560E0
3.228862100E1,6.284181118E0,-5.124788761E0,-1.363497853E0
3.230880600E1,7.328052998E0,-5.182249546E0,-1.325190663E0
3.232898850E1,6.777386665E0,-4.574122429E0,1.855506301E-1
3.234917152E1,6.427833080E0,-3.863044500E0,-1.880645394E0
3.236935522E1,6.765415668E0,-5.055356979E0,-2.627636433E0
3.238953970E1,6.085462093E0,-7.265204906E0,1.879448295E-1
3.240972506E1,7.184400558E0,-9.726444244E0,-2.304419041E0
3.242991136E1,6.566696644E0,-1.058117485E1,-3.542221308E0
3.245009860E1,5.403114796E0,-1.139280891E1,-3.642777920E0
3.247028678E1,7.196371555E0,-1.546295166E1,-6.683413982E0
3.249047584E1,6.593032837E0,-2.002151108E1,-7.430405140E0
3.251066494E1,3.248333216E0,-1.941098976E1,-3.400963545E0
3.253085546E1,6.028001308E0,-1.392826843E1,-1.811213613E0
3.255104655E1,1.022982502E1,-1.120606136E1,-3.855861902E0
3.257123806E1,9.782109261E0,-1.038963795E1,-4.636371613E0
3.259142983E1,6.224325657E0,-8.771158218E0,-3.932476282E0
3.261162712E1,2.498948097E0,-7.068880558E0,-2.539050817E0
3.263181759E1,5.428852439E-1,-6.226121426E0,-2.340332270E0
3.265199598E1,1.478419602E-1,-6.044162273E0,-2.479195833E0
3.267217488E1,-3.142389655E-1,-5.443217754E0,-2.321178436E0
3.269235468E1,-7.236474752E-1,-4.301183224E0,-2.029085875E0
3.271253561E1,5.925649032E-2,-3.549403906E0,-1.440112352E0
3.273271790E1,1.589151382E0,-4.112041473E0,-1.085770488E0
3.275290171E1,3.028066635E0,-5.335478306E0,-9.229647517E-1
3.277308712E1,4.287416458E0,-5.986701488E0,-8.128314614E-1
3.279327421E1,5.292981625E0,-5.579687119E0,-9.062053561E-1
3.281346290E1,6.348824501E0,-4.892550945E0,-1.847126603E0
3.283365311E1,7.191583157E0,-4.523844242E0,-2.414552450E0
3.285384468E1,7.938574314E0,-4.370615005E0,-2.589329243E0
3.287403738E1,8.218695641E0,-4.394556999E0,-2.785653591E0
3.289423098E1,6.887519836E0,-4.844666958E0,-2.584540844E0
3.291442520E1,4.028842926E0,-5.821501255E0,-3.475183725E0
3.293461978E1,1.732803464E0,-7.523778915E0,-4.286818027E0
3.295481426E1,7.559691668E-1,-9.242815971E0,-2.821566820E0
3.297500530E1,-1.849520802E-1,-1.049977112E1,-3.398569345E0
3.299519306E1,6.171054840E-1,-1.245822811E1,-4.516661644E0
3.301537806E1,2.510919094E0,-1.307114410E1,-3.128024578E0
3.303556056E1,6.830059052E0,-1.833838844E1,-7.581239700E0
3.305574358E1,1.133594608E1,-2.089060783E1,-6.979097724E-1
3.307592728E1,9.439739227E0,-1.280778217E1,2.765302956E-1
3.309611176E1,9.003993988E0,-6.135141850E0,2.294842243E0
3.311629712E1,1.092653847E1,-8.213309288E0,3.104082584E0
3.313648342E1,1.091456699E1,-1.329859352E1,-1.665167332E0
3.315667066E1,6.942586422E0,-1.301128960E1,-3.645172119E0
3.317685884E1,5.170876980E0,-1.077749920E1,-1.200692177E0
3.319704790E1,3.691260576E0,-8.866926193E0,-3.483563364E-1
3.321723775E1,2.427121878E0,-7.195773125E0,1.520318091E-1
3.323742827E1,1.031302333E0,-5.946000099E0,9.935937077E-2
3.325761936E1,-1.607107878E0,-6.075286865E0,-3.628412724E0
3.327781087E1,-1.336563110E0,-8.107964516E0,-4.830301762E0
3.329800264E1,2.609081268E0,-7.969100475E0,-9.085995555E-1
3.331819994E1,4.050390720E0,-6.386533260E0,7.541735470E-2
3.333839030E1,4.052784920E0,-4.191050053E0,-7.505822182E-1
3.335856848E1,4.402338505E0,-3.570951939E0,-1.432929754E0
3.337874718E1,6.221931458E0,-5.278017521E0,-1.959654093E0
3.339892676E1,6.616974831E0,-5.993884087E0,-1.875856996E0
3.341910749E1,4.969764233E0,-4.643554211E0,-1.966836691E0
3.343928957E1,3.267486811E0,-3.551798105E0,-1.064222693E0
3.345947322E1,2.295440912E0,-3.333925962E0,-4.668693244E-2
3.347965853E1,2.477400303E0,-4.894945145E0,3.914519846E-1
3.349984551E1,3.973776340E0,-8.028955460E0,-2.268506050E0
3.352003415E1,6.387131691E0,-9.774328232E0,-7.044938564E0
3.354022436E1,6.396708488E0,-8.196549416E0,3.962403834E-1
3.356041598E1,7.699153900E0,-6.520608425E0,-1.556231081E-2
3.358060879E1,7.641693115E0,-5.912481308E0,-2.211045265E0
3.360080254E1,9.676764488E0,-9.704896927E0,-4.928464413E0
3.362099697E1,1.179802704E1,-1.652118874E1,-8.254010201E0
3.364119176E1,9.399037361E0,-2.182674026E1,-5.749675274E0
3.366138655E1,5.893926144E0,-2.081638718E1,-4.708197594E0
3.368157780E1,5.264250755E0,-1.274074459E1,-4.574122429E0
3.370176290E1,6.145317078E0,-8.330624580E0,-3.207033157E0
3.372194551E1,7.392696381E0,-7.947552681E0,-2.191891670E0
3.374212858E1,8.194753647E0,-8.845377922E0,-2.907757998E0
3.376231228E1,5.716754913E0,-9.080010414E0,-3.137601376E0
3.378249676E1,2.613869667E0,-8.131906509E0,-2.584540844E0
3.380268212E1,5.740098357E-1,-6.499060631E0,-1.859097600E0
3.382286842E1,-6.709750295E-1,-5.167884350E0,-1.066616893E0
3.384305566E1,-1.077989340E0,-4.478354454E0,-1.559822440E0
3.386324384E1,-3.908534348E-1,-4.528632641E0,-2.170343876E0
3.388343290E1,7.272387743E-1,-5.270834923E0,-2.103306293E0
3.390362275E1,1.737591863E0,-5.883750439E0,-1.669955730E0
3.392381327E1,2.582745075E0,-5.524620533E0,-1.219845772E0
3.394400436E1,3.499724388E0,-4.380191803E0,-9.469067454E-1
3.396419587E1,4.086303711E0,-3.005920172E0,-1.138442874E0
3.398438759E1,5.091868401E0,-3.372233152E0,-1.741781712E0
3.400458478E1,6.506841660E0,-5.802347660E0,-2.989160776E0
3.402477504E1,6.083067894E0,-8.426392555E0,-6.846219540E0
3.404495311E1,2.829347849E0,-1.001614285E1,-7.813477039E0
3.406513171E1,2.334346622E-2,-1.101452446E1,-6.434417248E0
3.408531119E1,-8.385691643E-1,-1.261863995E1,-7.128735542E0
3.410549186E1,4.997895956E-1,-1.470398998E1,-6.187814236E0
3.412567395E1,4.318541527E0,-1.851555824E1,-2.984372377E0
3.414585759E1,6.502053261E0,-2.206616020E1,-2.663549423E0
3.416604290E1,8.568249702E0,-1.333450603E1,1.160349846E1
3.418622988E1,6.296152115E0,-4.698620796E0,5.194220543E0
3.420641853E1,8.929773331E0,-4.492719650E0,-2.711433411E0
3.422660874E1,1.297597504E1,-1.242710400E1,9.660604000E-1
3.424680035E1,9.648034096E0,-1.570955467E1,1.047463298E0
3.426699316E1,4.912303448E0,-1.257793903E1,-4.225766063E-1
3.428718692E1,1.680131078E0,-9.501389503E0,-3.159149170E0
3.430738134E1,-6.709750295E-1,-8.431180954E0,-3.343502760E0
3.432757613E1,-1.465849996E0,-8.263586998E0,-8.990227580E-1
3.434777098E1,-1.702875972E0,-7.140706539E0,-5.781996846E-1
3.436796228E1,-2.663549483E-1,-5.771223068E0,-9.804255962E-1
3.438815004E1,3.166930199E0,-5.610811710E0,4.417302012E-1
3.440833504E1,5.247491360E0,-5.809530258E0,2.237381458E0
3.442851754E1,6.633734226E0,-6.412869453E0,3.132812977E0
3.444870056E1,7.636904716E0,-7.432799339E0,2.153584480E0
3.446888426E1,8.359953880E0,-9.075222015E0,-1.669955730E0
3.448906874E1,7.919420719E0,-9.987412453E0,-8.299500465E0
3.450925410E1,6.583456039E0,-9.010578156E0,-6.295553207E0
3.452944040E1,5.850830555E0,-8.153453827E0,-2.395398855E0
3.454962764E1,5.240308762E0,-8.637083054E0,8.918401599E-1
3.456981582E1,4.320935726E0,-9.374496460E0,2.060210466E0
3.459000488E1,3.528454781E0,-1.015979481E1,2.464830637E0
3.461019473E1,3.243544817E0,-1.075116253E1,1.732204914E0
3.463038525E1,2.870049238E0,-1.176391029E1,-3.477577925E0
3.465057634E1,4.780622005E0,-1.241273880E1,-6.736086369E0
3.467076785E1,7.861959934E0,-1.137604904E1,-2.390610456E0
3.469095962E1,9.509170532E0,-1.008557510E1,1.696291924E0
3.471115692E1,9.638457298E0,-8.491036415E0,2.606088638E0
3.473134718E1,8.185176849E0,-7.317877293E0,2.053027868E0
3.475152514E1,5.154117584E0,-6.860584736E0,3.699041605E-1
3.477170363E1,1.763928056E0,-7.875726700E0,-4.930858612E0
3.479188301E1,1.251568913E0,-1.083017159E1,-4.262876034E0
3.481206358E1,1.732803464E0,-1.256117916E1,-7.290344238E-1
3.483224561E1,2.434304476E0,-1.236246014E1,1.112106681E0
3.485242926E1,3.504512787E0,-1.109832191E1,2.680308819E0
3.487261462E1,3.743932962E0,-1.010712242E1,2.606088638E0
3.489280176E1,4.974552631E0,-9.482235909E0,-2.274491638E-2
3.491299061E1,6.085462093E0,-8.962694168E0,-7.003039718E-1
3.493318103E1,6.372766495E0,-8.273163795E0,-1.090558887E0
3.495337285E1,6.200383663E0,-7.564480305E0,-2.129642487E0
3.497356587E1,5.024830818E0,-7.162254333E0,-2.713827610E0
3.499375983E1,3.260304213E0,-7.040150166E0,-2.333149672E0
3.501395447E1,2.178124905E0,-6.894104004E0,-1.528697729E0
3.503414947E1,2.230797529E0,-6.697779179E0,-8.894459605E-1
3.505434369E1,3.047220230E0,-6.403292656E0,-9.588778019E-1
3.507453426E1,3.767874956E0,-6.082469463E0,-1.483207941E0
3.509471936E1,3.538031578E0,-5.874173641E0,-2.170343876E0
3.511490197E1,2.542043686E0,-5.589263916E0,-2.452859640E0
3.513508504E1,2.314594507E0,-5.155913353E0,-2.582146645E0
3.515526874E1,3.001730442E0,-5.337872505E0,-2.984372377E0
3.517545322E1,4.869207859E0,-7.365761757E0,-4.296394825E0
3.519563858E1,7.818864346E0,-1.112465858E1,-5.163095951E0
3.521582488E1,9.346364975E0,-1.446935844E1,-5.831078053E0
3.523601212E1,4.790199280E0,-1.339436150E1,-7.832630634E0
3.525620030E1,3.078344822E0,-9.745597839E0,-5.567716122E0
3.527638936E1,4.976946831E0,-6.623558998E0,4.954800606E0
3.529657921E1,4.390367508E0,-6.700173378E0,4.959589005E0
3.531676973E1,6.947374821E0,-9.568427086E0,-1.859097600E0
3.533696082E1,8.216301918E0,-1.010951710E1,-8.366538048E0
3.535715233E1,6.030395508E0,-8.653841972E0,-9.971849918E-1
3.537734405E1,3.358466387E0,-7.253233910E0,1.224634171E0
3.539754124E1,1.941099048E0,-6.994660378E0,9.109937549E-1
3.541773134E1,1.658583283E0,-7.679401875E0,1.253364563E0
3.543790910E1,2.034472942E0,-8.914810181E0,1.708262920E0
3.545808738E1,2.774281263E0,-1.055962658E1,1.076193690E0
3.547826655E1,2.968211651E0,-1.102649593E1,-6.500257850E-1
3.549844692E1,3.511695385E0,-1.066975975E1,-4.090493679E0
3.551862874E1,4.598662853E0,-1.005684471E1,-4.114435673E0
3.553881218E1,4.732738018E0,-8.857349396E0,-1.990778685E0
3.555899733E1,4.457405090E0,-7.389703751E0,-1.236605167E0
3.557918426E1,4.555567265E0,-6.925228596E0,-6.835445762E-1
3.559937290E1,4.936245441E0,-6.956353188E0,-3.711012751E-2
3.561956316E1,5.118204594E0,-6.903680801E0,-1.161187813E-1
3.563975488E1,4.593874454E0,-7.131129742E0,-8.032546639E-1
3.565994785E1,4.215590477E0,-7.748833656E0,-2.033874273E0
3.568014181E1,4.538807869E0,-8.404845238E0,-2.993949175E0
3.570033645E1,4.976946831E0,-8.553285599E0,-2.309207439E0
3.572053150E1,4.909909248E0,-8.086416245E0,-5.805938840E-1
3.574072400E1,4.478952885E0,-7.744045258E0,2.621650994E-1
3.576091384E1,4.110245705E0,-7.923610687E0,5.255272985E-1
3.578110915E1,4.227561474E0,-8.423998833E0,4.920084476E-1
3.580129863E1,4.474164486E0,-8.646659851E0,-2.549824715E-1
3.582147702E1,5.491700172E0,-8.864531517E0,-1.581370234E0
3.584165593E1,6.310517311E0,-9.125499725E0,-1.428141356E0
3.586183572E1,5.297770023E0,-9.314641953E0,-3.028665185E-1
3.588201665E1,4.847660065E0,-1.012148762E1,1.855506301E-1
3.590219895E1,5.968146324E0,-1.144308662E1,-3.435679376E-1
3.592238275E1,7.038354397E0,-1.117733097E1,-2.522291422E0
3.594256817E1,7.531559944E0,-9.518148422E0,-1.770512104E0
3.596275525E1,7.957727909E0,-9.228450775E0,1.045069098E0
3.598294395E1,7.773374557E0,-9.676166534E0,1.813607812E0
3.600313415E1,5.788581371E0,-1.048780060E1,7.577648163E-1
3.602332572E1,2.479794502E0,-1.238400841E1,-2.167949677E0
3.604351842E1,9.714473486E-1,-1.487876606E1,-2.608482838E0
3.606371202E1,8.517372608E-1,-1.467525959E1,7.541735470E-2
3.608390624E1,2.867056429E-1,-1.138562584E1,2.874239206E0
3.610410082E1,7.990648150E-1,-8.218097687E0,3.266888142E0
3.612429504E1,2.704849482E0,-6.635529995E0,7.673416734E-1
3.614448577E1,5.458181381E0,-6.635529995E0,-1.947683096E0
3.616467077E1,8.383895874E0,-7.590816498E0,-2.677914619E0
3.618485327E1,1.023700809E1,-7.875726700E0,-2.560598612E0
3.620503629E1,7.488464355E0,-7.523778915E0,-2.100912094E0
3.622521999E1,2.870049238E0,-7.990648270E0,-1.866280198E0
3.624540447E1,1.479018092E0,-8.232462883E0,-1.145625472E0
3.626558983E1,1.014542937E0,-8.151060104E0,-1.795651205E-2
3.628577613E1,1.486200690E0,-7.679401875E0,1.304839998E-1
3.630596337E1,2.276287317E0,-6.937199593E0,-1.669955730E0
3.632615155E1,2.860472441E0,-6.111199856E0,-3.149572372E0
3.634634061E1,3.573944569E0,-5.706579685E0,-3.015496969E0
3.636653046E1,3.961805344E0,-5.878962040E0,-2.060210466E0
3.638672098E1,4.167706490E0,-6.240486622E0,-1.387439847E0
3.640691207E1,4.426280499E0,-6.484695435E0,-1.437718153E0
3.642710358E1,4.833294868E0,-6.451176643E0,-1.947683096E0
3.644729530E1,5.450998783E0,-6.274005413E0,-2.680308819E0
3.646749249E1,6.475717068E0,-6.293159008E0,-3.307589531E0
3.648768270E1,7.711124897E0,-6.987477779E0,-3.685873508E0
3.650786066E1,8.376712799E0,-7.729680061E0,-4.282029629E0
3.652803915E1,8.355165482E0,-8.409633636E0,-4.679467201E0
3.654821853E1,6.897096634E0,-9.199720383E0,-4.346673012E0
3.656839910E1,4.720767021E0,-9.460687637E0,-3.906140089E0
3.658858113E1,4.217984676E0,-8.931569099E0,-3.283647537E0
3.660876478E1,4.613028049E0,-8.672995567E0,-3.846285105E0
3.662895014E1,5.994482517E0,-1.049019432E1,-5.280411720E0
3.664913723E1,6.109404087E0,-1.126112747E1,-4.894945145E0
3.666932598E1,5.429450989E0,-9.891644478E0,-2.594117641E0
3.668951629E1,5.029619217E0,-1.071285534E1,-1.128866076E0
3.670970801E1,4.153341293E0,-1.180221748E1,2.142810524E-1
3.672990092E1,2.403179884E0,-9.163806915E0,1.148019671E0
3.675009478E1,1.328183413E0,-6.532579422E0,6.105214357E-2
3.677028931E1,1.426345706E0,-6.611588001E0,-2.956839204E-1
3.679048421E1,2.544437885E0,-8.672995567E0,4.153940082E-1
3.681067874E1,3.842095137E0,-1.055244446E1,1.191115379E0
3.683086962E1,4.500500679E0,-1.083735371E1,1.073799491E0
3.685105462E1,4.378396511E0,-9.429563522E0,5.351040959E-1
3.687123712E1,4.093486309E0,-7.933187485E0,-2.669534981E-1
3.689142014E1,4.055179119E0,-7.401674747E0,-1.277306557E0
3.691160384E1,3.933074951E0,-8.289923668E0,-2.697068214E0
3.693178832E1,3.482964993E0,-9.245209694E0,-3.664325714E0
3.695197369E1,3.870825529E0,-9.180566788E0,-2.529474020E0
3.697215999E1,4.115034103E0,-8.227674484E0,-1.473631144E0
3.699234723E1,4.076726913E0,-7.586028099E0,-9.229647517E-1
3.701253540E1,4.359242916E0,-7.684190273E0,-5.614402890E-1
3.703272447E1,4.699219227E0,-7.935581684E0,-3.579331636E-1
3.705291431E1,4.646546841E0,-7.969100475E0,-4.632780254E-1
3.707310483E1,4.306570530E0,-7.880515099E0,-8.295909166E-1
3.709329592E1,4.115034103E0,-7.777564049E0,-9.684545994E-1
3.711348744E1,4.253897667E0,-7.724891663E0,-7.769184709E-1
3.713367915E1,4.402338505E0,-7.779958248E0,-3.579331636E-1
3.715387634E1,4.462193489E0,-7.949946880E0,-1.999158412E-1
3.717406655E1,4.538807869E0,-8.131906509E0,-4.872200489E-1
3.719424452E1,5.012859821E0,-8.364143372E0,-8.846575022E-1
3.721442301E1,5.901108742E0,-9.041702271E0,-1.423352957E0
3.723460238E1,5.139752388E0,-9.640253067E0,-2.649184227E0
3.725478296E1,3.832518339E0,-9.985017776E0,-3.219004154E0
3.727496499E1,3.684077978E0,-1.009994030E1,-2.127248287E0
3.729514863E1,5.283404827E0,-1.070567322E1,4.177882075E-1
3.731533400E1,6.846818447E0,-1.131379986E1,1.701080322E0
3.733552108E1,7.711124897E0,-1.127788734E1,1.923741102E0
3.735570983E1,7.344812393E0,-1.127549267E1,1.483207941E0
3.737590014E1,4.335300922E0,-1.105283260E1,3.950432688E-2
3.739609186E1,1.117493629E0,-1.115578270E1,-2.754528999E0
3.741628478E1,6.889315248E-1,-1.156519127E1,-9.684545994E-1
3.743647863E1,5.380968451E-1,-1.091636276E1,5.231330991E-1
3.745667317E1,1.510142684E0,-9.498994827E0,1.052251697E0
3.747686806E1,2.853289843E0,-8.661025047E0,1.416170359E0
3.749706259E1,3.581127167E0,-9.273940086E0,-2.645592988E-1
3.751725353E1,4.124610901E0,-9.551667213E0,-1.468842745E0
3.753744129E1,5.345654011E0,-8.763975143E0,-1.514332533E0
3.755762629E1,6.645705223E0,-7.518990517E0,-1.693897724E0
3.757780879E1,5.999270916E0,-6.807912350E0,-2.385822058E0
3.759799181E1,3.363254786E0,-7.109581947E0,-2.091335297E0
3.761817551E1,2.003348351E0,-7.516596317E0,-1.057040095E0
3.763835999E1,1.886032343E0,-7.688978672E0,-1.831564307E-1
3.765854535E1,2.173336506E0,-7.775169849E0,-1.069011092E0
3.767873165E1,2.407968283E0,-7.564480305E0,-2.529474020E0
3.769891889E1,2.522890091E0,-7.320271492E0,-2.721010208E0
3.771910707E1,2.625840664E0,-7.097610950E0,-2.376245260E0
3.773929613E1,2.795829058E0,-7.023390770E0,-1.995567083E0
3.775948598E1,3.243544817E0,-7.143100739E0,-1.914164305E0
3.777967650E1,3.679289579E0,-7.018602371E0,-1.945288897E0
3.779986759E1,3.787028551E0,-6.403292656E0,-2.122459888E0
3.782005910E1,3.226785421E0,-4.993107796E0,-2.503137827E0
3.784025082E1,2.922721624E0,-3.554192305E0,-3.886986494E0
3.786044801E1,3.662529945E0,-3.417722940E0,-4.411316395E0
3.788063827E1,4.871602058E0,-4.442441463E0,-2.838326216E0
3.790081634E1,5.553949356E0,-4.923676014E0,-3.818751574E-1
3.792099494E1,6.360795498E0,-4.025850296E0,3.232172132E-2
3.794117442E1,7.222707748E0,-3.288435936E0,-2.493561029E0
3.796135509E1,7.086238384E0,-4.370615005E0,-4.317942619E0
3.798153718E1,4.953004837E0,-6.771999359E0,-3.116053581E0
3.800172082E1,3.205237627E0,-8.854954720E0,-1.760935307E0
3.802190613E1,7.918822169E-1,-1.077031612E1,-2.886210203E0
3.804209311E1,-2.236783028E0,-1.625303841E1,-8.699332237E0
3.806228176E1,-1.609502077E0,-2.674203682E1,-1.647330475E1
3.808247197E1,7.198765755E0,-3.178661919E1,-7.554903507E0
3.810266358E1,6.921038628E0,-1.982758141E1,1.384447098E1
3.812285639E1,6.255450726E0,-3.757699490E0,5.155913353E0
3.814305014E1,8.077438354E0,1.564610839E0,2.646790028E0
3.816324457E1,1.476204872E1,-4.145560265E0,-5.821501255E0
3.818343936E1,1.418983459E1,-1.281017590E1,-1.116895080E0
3.820363415E1,8.122927666E0,-1.366011810E1,3.603273630E-1
3.822382535E1,2.439092875E0,-9.321824074E0,-3.274070740E0
3.824401035E1,-2.280477136E-1,-7.116764545E0,-4.990713596E0
3.826419285E1,-8.768763542E-1,-7.468712330E0,-1.533486247E0
3.828437587E1,-2.725200176E0,-7.700949669E0,-2.687491417E0
3.830455957E1,-1.647809267E0,-6.920440197E0,-4.085705280E0
3.832474405E1,2.893991232E0,-6.771999359E0,-1.930923700E0
3.834492942E1,5.666476727E0,-6.274005413E0,-1.492784739E0
3.836511572E1,7.981669903E0,-5.177461147E0,-3.513490915E0
3.838530296E1,7.871536732E0,-3.434482336E0,-2.986766577E0
3.840549113E1,6.583456039E0,-2.965218782E0,-1.940500498E0
3.842568020E1,5.163694382E0,-4.267664433E0,-1.461660147E0
3.844587004E1,3.832518339E0,-5.555745125E0,-8.391677141E-1
3.846606056E1,3.049614429E0,-6.036979675E0,-1.329979062E0
3.848625165E1,3.466205597E0,-6.242880821E0,-1.171961784E0
3.850644316E1,4.143764496E0,-6.673837185E0,-1.033097982E0
3.852663488E1,4.811747074E0,-7.914033890E0,-2.179920673E0
3.854683207E1,4.998494625E0,-8.900444984E0,-2.852691412E0
3.856702233E1,5.465363979E0,-9.702502251E0,-1.555034041E0
3.858720040E1,6.035183907E0,-1.042794514E1,-2.785653591E0
3.860737900E1,5.781398773E0,-9.946710587E0,-3.223792553E0
3.862755848E1,7.098209381E0,-1.156519127E1,-5.720944881E0
3.864773915E1,7.792528152E0,-1.611178017E1,-8.127118111E0
3.866792124E1,5.130175591E0,-1.857780838E1,-4.289212227E0
3.868810488E1,5.477334976E0,-1.684201241E1,-8.319851160E-1
3.870829020E1,7.737461567E0,-1.180461121E1,-2.646790028E0
3.872847718E1,7.433397770E0,-8.637083054E0,-3.190273762E0
3.874866582E1,7.249044418E0,-7.111976147E0,-2.718616009E0
3.876885603E1,6.427833080E0,-6.645106792E0,-3.326743364E0
3.878904764E1,3.976170540E0,-6.685808182E0,-2.993949175E0
3.880924046E1,1.974617839E0,-5.931634903E0,-2.519897223E0
3.882943421E1,1.083974838E0,-4.940435410E0,-2.275688648E0
3.884962863E1,1.074398041E0,-4.095282078E0,-1.823184609E0
3.886982342E1,1.043273449E0,-3.379415751E0,-1.890222192E0
3.889001827E1,1.227626920E0,-3.202244759E0,-2.146401882E0
3.891020957E1,1.988983035E0,-3.918111086E0,-2.009932280E0
3.893039733E1,3.140594006E0,-5.160701752E0,-1.471236944E0
3.895058233E1,4.656123638E0,-5.917269707E0,-1.337161660E0
3.897076483E1,6.011241913E0,-5.646724701E0,-8.607155085E-1
3.899094785E1,6.145317078E0,-4.487931252E0,-1.097741485E0
3.901113155E1,7.160458565E0,-4.322731018E0,-3.013102770E0
3.903131603E1,8.465298653E0,-5.220556736E0,-3.187879562E0
3.905150139E1,6.628945827E0,-5.747281075E0,-2.050633669E0
3.907168770E1,4.354454517E0,-7.281964302E0,-3.005920172E0
3.909187494E1,2.479794502E0,-8.950722694E0,-3.934870481E0
3.911206311E1,4.327519536E-1,-1.021486187E1,-5.311536312E0
3.913225218E1,-6.326677799E-1,-1.206557941E1,-6.642712593E0
3.915244202E1,1.000177741E0,-1.276468658E1,-5.072116375E0
3.917263254E1,3.109469414E0,-1.336563110E1,-3.475183725E0
3.919282363E1,8.302493095E0,-1.842936707E1,1.687912196E-1
3.921301514E1,1.090977859E1,-1.870709419E1,-7.697358727E-1
3.923320692E1,1.161127949E1,-1.033217716E1,-2.589329243E0
3.925340421E1,9.537900925E0,-6.290764809E0,8.045714378E0
3.927359447E1,9.983222961E0,-7.700949669E0,-2.789244950E-1
3.929377244E1,1.178366184E1,-1.224993324E1,-6.769605160E0
3.931395092E1,7.433397770E0,-1.124676228E1,-4.106055796E-1
3.933413030E1,4.026448727E0,-9.376891136E0,-8.271966577E-1
3.935431087E1,2.427121878E0,-7.885303497E0,-1.215057373E0
3.937449290E1,9.834183455E-1,-6.353013992E0,-2.251746655E0
3.939467655E1,-1.753752679E-1,-5.428852558E0,-3.269282341E0
3.941486192E1,-4.147954583E-1,-5.371391296E0,-3.415328741E0
3.943504905E1,1.886032343E0,-6.388927460E0,-2.543839216E0
3.945523790E1,4.926668644E0,-6.992266178E0,-5.351040959E-1
3.947542832E1,6.379949093E0,-5.993884087E0,-4.249708056E-1
3.949562014E1,6.372766495E0,-4.317942619E0,-1.902193308E0
3.951581317E1,6.171653271E0,-3.949235678E0,-2.831143618E0
3.953600712E1,5.094262600E0,-5.069722176E0,-1.459265947E0
3.955620176E1,4.000112534E0,-5.919663906E0,-5.925649405E-1
3.957639676E1,3.758298159E0,-6.089652061E0,-5.494692922E-1
3.959659103E1,3.911526918E0,-5.979518890E0,-8.822633028E-1
3.961678165E1,4.589086056E0,-6.616376400E0,-1.511938334E0
3.963696942E1,5.525218964E0,-7.851784706E0,-2.874239206E0
3.965715442E1,6.298546314E0,-9.386467934E0,-2.732981205E0
3.967733692E1,7.014412403E0,-1.055483818E1,-2.558204412E0
3.969751994E1,5.690418720E0,-1.057159805E1,-2.246958256E0
3.971770363E1,4.308964729E0,-9.989806175E0,-2.079364061E0
3.973788811E1,5.101445198E0,-1.127070427E1,-4.150348663E0
3.975807348E1,6.995258808E0,-1.548210526E1,-7.059303761E0
3.977825978E1,5.642534733E0,-1.836951256E1,-5.438429356E0
3.979844702E1,5.039196014E0,-1.716283417E1,-2.555810213E0
3.981863520E1,6.602609634E0,-1.233612442E1,-1.983596087E0
3.983882426E1,7.308899403E0,-9.410409927E0,-3.482366323E0
3.985901410E1,6.772598267E0,-7.835024834E0,-2.833537817E0
3.987920462E1,5.628169537E0,-6.285976410E0,-2.404975653E0
3.989939572E1,4.055179119E0,-5.404910564E0,-2.033874273E0
3.991958723E1,2.743156672E0,-5.395333767E0,-1.765723705E0
3.993977900E1,1.610699177E0,-5.457582951E0,-2.014720678E0
3.995997629E1,8.397662640E-1,-5.179855347E0,-1.940500498E0
3.998016655E1,1.060032845E0,-4.959589005E0,-1.796848416E0
4.000034452E1,1.972223639E0,-4.892550945E0,-1.653196216E0
4.002052301E1,2.427121878E0,-4.574122429E0,-1.100135684E0
4.004070238E1,2.185307503E0,-3.982754469E0,-1.021126986E0
4.006088296E1,2.228403330E0,-3.587711334E0,-1.112106681E0
4.008106499E1,3.174112797E0,-3.633201122E0,-1.195903778E0
4.010124863E1,5.091868401E0,-4.265270233E0,-1.186326981E0
4.012143400E1,7.598597527E0,-5.055356979E0,-2.172738075E0
4.014162113E1,1.003110695E1,-4.921281815E0,-3.781641483E0
4.016180999E1,8.910619736E0,-4.315548420E0,-2.019509077E0
4.018200040E1,6.466140270E0,-5.565321922E0,-1.109712481E0
4.020219223E1,3.554790974E0,-7.559691906E0,-2.610877037E0
4.022238525E1,2.268506140E-1,-1.100734234E1,-7.791929245E0
4.024257921E1,-1.434725404E0,-1.622909546E1,-1.168011284E1
4.026277384E1,1.203684926E0,-1.605910873E1,-1.622071624E0
4.028296884E1,5.585073948E0,-2.152746391E1,-3.343502760E0
4.030316311E1,1.104146004E1,-2.206376648E1,-6.763619781E-1
4.032335374E1,9.784503937E0,-1.182855320E1,-3.494337320E0
4.034354150E1,8.278551102E0,-7.435193539E0,8.050502777E0
4.036372650E1,9.133280754E0,-8.687360764E0,2.644395828E0
4.038390900E1,1.227686787E1,-1.399051762E1,-4.016273499E0
4.040409202E1,8.592191696E0,-1.186686039E1,-2.038662672E0
4.042427572E1,4.998494625E0,-8.761581421E0,-1.083376288E0
4.044446020E1,3.566761971E0,-7.602787495E0,-5.374982953E-1
4.046464556E1,1.766322255E0,-6.525396824E0,-6.284779310E-1
4.048483186E1,-3.142389655E-1,-5.907692909E0,-1.988384485E0
4.050501910E1,-2.974197149E0,-5.562927723E0,-4.976348400E0
4.052520728E1,-1.966238141E0,-6.434417248E0,-4.001908302E0
4.054539634E1,2.135029316E0,-7.066486359E0,-1.250970364E0
4.056558619E1,4.253897667E0,-6.690596581E0,7.314286232E-1
4.058577671E1,5.055955410E0,-5.234921932E0,8.259996027E-2
4.060596780E1,5.424662590E0,-3.872621298E0,-1.428141356E0
4.062615931E1,6.382343292E0,-4.037821293E0,-1.993172884E0
4.064635108E1,7.687182903E0,-5.210979939E0,-1.916558504E0
4.066654837E1,8.113350868E0,-6.685808182E0,-1.138442874E0
4.068673863E1,7.205948353E0,-6.910863400E0,-1.578976035E0
4.070691660E1,4.701613426E0,-5.809530258E0,-9.038111567E-1
4.072709509E1,2.807800055E0,-5.297171116E0,3.339911401E-1
4.074727447E1,2.039261341E0,-6.199785233E0,-3.124433160E-1
4.076745504E1,3.466205597E0,-8.878896713E0,-2.323572636E0
4.078763707E1,4.320935726E0,-9.779116631E0,-4.387374401E0
4.080782072E1,4.028842926E0,-8.471882820E0,-2.246958256E0
4.082800608E1,6.454169273E0,-9.901221275E0,-2.081758261E0
4.084819322E1,8.534730911E0,-1.150533581E1,-4.734533787E0
4.086838207E1,1.026095009E1,-1.366490650E1,-4.442441463E0
4.088857249E1,1.016757584E1,-1.741422653E1,-5.357026100E0
4.090876431E1,7.009624004E0,-1.881243896E1,-4.325125217E0
4.092895733E1,5.218760967E0,-1.441429138E1,-2.955641985E0
4.094915129E1,6.499659061E0,-1.008796883E1,-2.371456861E0
4.096934593E1,6.944980621E0,-7.791929245E0,-2.819172382E0
4.098954092E1,5.877166748E0,-6.704961777E0,-2.043451071E0
4.100973520E1,5.237914562E0,-6.281188011E0,-1.514332533E0
4.102992582E1,4.522048473E0,-6.539762020E0,-2.088941097E0
4.105011358E1,2.259527922E0,-6.819883347E0,-2.855085611E0
4.107029858E1,-1.538274586E-1,-6.807912350E0,-2.251746655E0
4.109048108E1,-1.338957310E0,-6.094440460E0,-1.681926727E0
4.111066410E1,-1.149815321E0,-5.232527733E0,-1.569399238E0
4.113084780E1,1.669955701E-1,-5.091269970E0,-1.167173386E0
4.115103228E1,1.258751512E0,-5.809530258E0,-9.923965931E-1
4.117121764E1,1.610699177E0,-6.307524204E0,-8.032546639E-1
4.119140395E1,1.893214941E0,-6.027402878E0,-6.452373862E-1
4.121159119E1,2.515707493E0,-5.194220543E0,-1.042674899E0
4.123177936E1,3.868431330E0,-4.490325451E0,-1.725022316E0
4.125196842E1,6.846818447E0,-5.026626587E0,-2.158372879E0
4.127215827E1,1.085710621E1,-6.264428616E0,-3.647566319E0
4.129234879E1,1.028489208E1,-5.584475517E0,-4.624400616E0
4.131253988E1,7.351994991E0,-5.579687119E0,-1.583764434E0
4.133273139E1,4.208407879E0,-6.235698223E0,-1.241393566E0
4.135292311E1,2.175730705E0,-7.372944355E0,-2.321178436E0
4.137312030E1,1.991377234E0,-8.816647530E0,-2.117671490E0
4.139331061E1,1.902791858E0,-1.213261700E1,-6.781576157E0
4.141348879E1,2.465429306E0,-1.380137539E1,-4.887762547E0
4.143366749E1,4.675277233E0,-1.664329338E1,-7.375338554E0
4.145384707E1,1.044769764E1,-2.281554604E1,-6.573280811E0
4.147402780E1,8.201936722E0,-1.730888176E1,2.828749418E0
4.149420988E1,5.491700172E0,-7.219715118E0,4.590881824E0
4.151439353E1,7.550713539E0,-4.629189014E0,4.212597847E0
4.153457884E1,1.165198135E1,-1.162744045E1,-2.142810524E-1
4.155476582E1,1.243488503E1,-1.559942150E1,-4.468777657E0
4.157495447E1,7.787739754E0,-1.175433350E1,-1.021126986E0
