"Time (s)","Gyroscope x (rad/s)","Gyroscope y (rad/s)","Gyroscope z (rad/s)"
3.865672900E-2,-4.644549489E-1,-2.543317080E-1,9.307741374E-2
5.884891700E-2,-2.178464085E-1,-6.737792492E-2,-5.126581341E-2
7.905193800E-2,-1.145158410E-1,9.720530361E-2,-5.179844424E-2
9.923068800E-2,-1.949432492E-1,1.227716357E-1,6.111950055E-2
1.194097500E-1,-2.024000883E-1,2.689790726E-2,1.431448013E-1
1.395894380E-1,-7.297056168E-2,-6.524740160E-2,1.223721579E-1
1.597700630E-1,-2.130527282E-3,-6.311687082E-2,5.206476152E-2
1.799518330E-1,-2.024000883E-2,2.263685316E-2,3.661843762E-2
2.001349580E-1,-5.539371073E-2,5.299686641E-2,4.141212255E-2
2.203196460E-1,-8.042740822E-2,-3.275685757E-2,4.141212255E-2
2.405058960E-1,-7.350318879E-2,-1.707084924E-1,8.921583183E-3
2.606937080E-1,-4.527370632E-2,-1.984053552E-1,-2.090579830E-2
2.808829790E-1,-2.237053588E-2,-1.786979735E-1,-1.504684892E-2
3.010736040E-1,-6.977476925E-2,-1.840242893E-1,-1.078579482E-2
3.212654790E-1,-1.784316599E-1,-2.346243113E-1,1.464737463E-3
3.414583960E-1,-2.343579978E-1,-2.932138145E-1,-1.731053460E-3
3.616520420E-1,-2.066611499E-1,-3.624559641E-1,-4.966791719E-2
3.818462080E-1,-1.816274524E-1,-4.822981060E-1,-7.044056058E-2
4.020405830E-1,-2.242379934E-1,-6.271739602E-1,1.997369342E-3
4.222347500E-1,-2.833601236E-1,-6.889592409E-1,8.934898674E-2
4.424224580E-1,-2.812296152E-1,-8.146603703E-1,8.402267098E-2
4.626047500E-1,-2.695116997E-1,-1.145424724E0,9.893636405E-2
4.827874580E-1,-3.163833022E-1,-1.419730067E0,1.798963994E-1
5.029707920E-1,-3.366233110E-1,-1.449557543E0,3.269027770E-1
5.231548540E-1,-2.769685388E-1,-1.630119681E0,4.728438854E-1
5.433397500E-1,-2.412822098E-1,-1.912947178E0,4.946818054E-1
5.635255830E-1,-2.796317041E-1,-2.135054588E0,5.261070728E-1
5.837123540E-1,-4.032022953E-1,-2.157425165E0,6.310355663E-1
6.039000630E-1,-4.884233773E-1,-2.296442032E0,6.821681857E-1
6.240887080E-1,-4.729770422E-1,-2.210155725E0,6.198502779E-1
6.442781880E-1,-4.154528081E-1,-1.725460768E0,6.166545153E-1
6.644683960E-1,-4.058654606E-1,-1.368064880E0,8.717851043E-1
6.846592290E-1,-4.053328037E-1,-1.264734268E0,1.414536953E0
7.048505830E-1,-3.041327596E-1,-1.150218368E0,1.990844607E0
7.250422500E-1,4.953476042E-2,-1.435709119E0,2.618817568E0
7.452340210E-1,5.784381628E-1,-1.737178683E0,3.131209373E0
7.654366250E-1,1.023185730E0,-2.187785149E0,3.382611513E0
7.856143330E-1,1.058339477E0,-2.426936865E0,3.355447292E0
8.057923540E-1,-1.230379492E-1,-1.645565987E0,2.357827902E0
8.259711040E-1,-1.437040687E0,-1.478053331E-1,1.349555850E0
8.461508960E-1,-1.537708044E0,4.327633679E-1,1.348490596E0
8.663320420E-1,-1.108406782E0,4.087949097E-1,1.808151841E0
8.865147500E-1,-5.006738901E-1,-4.498075843E-1,2.039846659E0
9.066991250E-1,2.045306265E-1,-1.632782817E0,2.111752033E0
9.268852710E-1,5.816339254E-1,-1.520930171E0,2.317348003E0
9.470731880E-1,3.861580789E-1,-9.382309318E-1,2.570348024E0
9.672627710E-1,1.693769246E-1,-1.030376315E0,2.414286852E0
9.874539170E-1,3.994738758E-1,-1.323323727E0,2.080326796E0
1.007646417E0,6.114613414E-1,-8.737825155E-1,1.771932960E0
1.027839958E0,5.267728567E-1,-2.202432603E-1,1.150351524E0
1.048034333E0,2.263685167E-1,-6.471476704E-2,1.000016257E-1
1.068229229E0,1.113200486E-1,-3.816306889E-1,-4.826975763E-1
1.088424333E0,4.186486006E-1,-8.194540739E-1,-7.282408476E-1
1.108618396E0,7.685877085E-1,-7.209171653E-1,-7.964177132E-1
1.128806104E0,1.096688867E0,-8.093340397E-1,-2.483395934E-1
1.148988396E0,1.503619671E0,-1.155012131E0,3.237069845E-1
1.169171104E0,1.893506169E0,-1.331845880E0,4.616586268E-1
1.189354438E0,1.508945942E0,-1.406946898E0,2.475406379E-1
1.209538500E0,3.339601457E-1,-1.589107037E0,3.247722387E-1
1.229723396E0,-4.314317927E-2,-2.020538807E0,5.633913279E-1
1.249909229E0,2.332927436E-1,-2.938796043E0,6.970819235E-1
1.270096000E0,-2.482064217E-1,-3.321758270E0,1.086435795E0
1.290283708E0,-9.321056604E-1,-3.190198183E0,1.418265343E0
1.310472354E0,1.597895473E-2,-3.691404819E0,1.352218986E0
1.330661833E0,1.362472177E0,-3.721232176E0,9.873662591E-1
1.350852042E0,9.347688556E-1,-2.605901241E0,5.767071247E-1
1.371042875E0,-3.302317262E-1,-1.591237545E0,7.572692633E-1
1.391234229E0,-6.988129616E-1,-1.910284042E0,1.072054744E0
1.411425896E0,-4.926844239E-1,-2.406164169E0,1.203082085E0
1.431617667E0,-7.749792933E-1,-1.872999787E0,1.264334798E0
1.451820271E0,-1.421061754E0,-1.869271398E0,1.594566464E0
1.471997979E0,-1.217596292E0,-1.676991343E0,1.700560212E0
1.492176000E0,-6.870950758E-2,-1.369130135E0,8.323704004E-1
1.512354750E0,4.868254960E-1,-1.713210225E0,4.195807278E-1
1.532534542E0,2.844253778E-1,-1.472460628E0,4.435491562E-1
1.552715688E0,-1.981390417E-1,-6.005423665E-1,6.241113544E-1
1.572898396E0,-5.443497300E-1,6.708498001E-1,1.003877878E0
1.593082771E0,-9.475520253E-1,1.597629189E0,1.338370562E0
1.613268917E0,-1.348623753E0,2.400305271E0,1.686711788E0
1.633456833E0,-1.577655435E0,2.543583155E0,1.706951857E0
1.653646417E0,-1.323590040E0,1.481515408E0,1.620132804E0
1.673837563E0,-8.117309213E-1,1.135837317E0,1.716539145E0
1.694030063E0,-6.647245288E-1,1.377652168E0,1.901895046E0
1.714223604E0,-8.804404140E-1,1.494831204E0,2.081392050E0
1.734417979E0,-7.946866751E-1,1.190165758E0,2.135187864E0
1.754612875E0,-4.633896947E-1,-1.456748098E-1,1.908286691E0
1.774807979E0,-3.755054474E-1,-9.893636107E-1,1.819337130E0
1.795002042E0,-3.621896505E-1,-1.161936283E0,2.066478252E0
1.815189750E0,-3.856254518E-1,-1.104944706E0,2.167678356E0
1.835372042E0,-4.996086359E-1,-8.567382693E-1,2.038781404E0
1.855554750E0,-8.463519812E-1,-7.060034871E-1,1.829457164E0
1.875737979E0,-1.326785922E0,-1.070323586E0,1.536509633E0
1.895921938E0,-1.239434242E0,-1.482580662E0,1.700560212E0
1.916106729E0,-1.068992019E0,-2.203764200E0,2.012682438E0
1.936292458E0,-1.182442665E0,-2.834400177E0,2.354632139E0
1.956479125E0,-1.343830109E0,-3.300985813E0,2.753040791E0
1.976666833E0,-1.342232227E0,-3.887945890E0,3.068358660E0
1.996855479E0,-8.271772265E-1,-3.914044857E0,2.609762669E0
2.017044958E0,1.107874215E-1,-3.102580309E-1,9.623325467E-1
2.037235167E0,5.235770941E-1,3.059170961E0,-2.392848432E-1
2.057426000E0,7.888277173E-1,2.956905603E0,-1.291632187E-2
2.077617354E0,8.910930157E-1,1.744102955E0,2.326269448E-1
2.097809021E0,6.396908164E-1,6.319676638E-1,9.147951752E-2
2.118000896E0,4.900212586E-2,-2.021337748E-1,-3.324954212E-1
2.138203604E0,-5.672528744E-1,-7.869635224E-1,-5.540702343E-1
2.158381521E0,-9.443562031E-1,-1.205079436E0,-4.667186439E-1
2.178559750E0,-1.009869933E0,-1.674860716E0,-1.961416751E-1
2.198738708E0,-4.910865426E-1,-1.929991364E0,1.276984811E-1
2.218918708E0,3.962780833E-1,-9.563404322E-1,3.743070066E-1
2.239100063E0,8.719182611E-1,2.809632719E-1,4.371575713E-1
2.259282875E0,1.171790004E0,3.416832983E-1,2.832269669E-1
2.279467354E0,1.097221494E0,-2.490053773E-1,-1.609879732E-1
2.299653500E0,5.901560783E-1,-8.359656334E-1,-6.707166433E-1
2.319841313E0,1.603221744E-1,-1.036767840E0,-1.159672618E0
2.340030792E0,-1.454084814E-1,-4.956139028E-1,-1.266731620E0
2.360221729E0,-2.407495826E-1,3.435475379E-2,-1.112268448E0
2.380414021E0,-1.347558498E-1,4.247738719E-1,-8.832367063E-1
2.400607354E0,1.225053146E-2,4.141212404E-1,-6.201165915E-1
2.420801521E0,5.326318368E-2,-8.788425475E-3,-3.783017397E-1
2.440996208E0,3.515370190E-2,-3.400854170E-1,-2.355564237E-1
2.461191104E0,8.522108942E-2,-2.399506420E-1,-2.632532716E-1
2.481385583E0,1.262337416E-1,6.125265732E-3,-3.394196332E-1
2.501573396E0,1.523326933E-1,-3.275685757E-2,-3.825628161E-1
2.521761104E0,1.390169114E-1,-2.250369489E-1,-3.724428117E-1
2.541943396E0,9.108003974E-2,-2.921485603E-1,-3.234406710E-1
2.562126104E0,2.077264152E-2,-2.261022031E-1,-2.020006180E-1
2.582309333E0,-5.592634156E-2,-9.028109163E-2,-5.286370963E-2
2.602493292E0,-1.107874215E-1,-9.507478029E-2,2.223737910E-2
2.622678083E0,-9.108003974E-2,-1.728390306E-1,-9.720530361E-3
2.642863813E0,-6.178529188E-2,9.187898785E-2,1.051947847E-2
2.663050479E0,1.784316599E-1,4.231759906E-1,-5.126581341E-2
2.683238083E0,3.595264852E-1,4.482096732E-1,-7.523424178E-2
2.703426625E0,1.411474347E-1,4.279696643E-1,-2.463422157E-2
2.723616104E0,-1.821600795E-1,4.977444410E-1,1.531316526E-2
2.743806313E0,-3.328948915E-1,5.675191879E-1,2.756369673E-2
2.763997146E0,-3.723096550E-1,6.447508335E-1,3.342264518E-2
2.784188500E0,-2.109221965E-1,9.110667109E-1,-8.908267319E-2
2.804380167E0,1.406148076E-1,1.163534164E0,-2.536658943E-1
2.824572042E0,2.162485123E-1,9.739173055E-1,-1.529984921E-1
2.844774750E0,1.869537681E-1,6.383592486E-1,-3.049317189E-2
2.864952875E0,2.402169555E-1,3.193127811E-1,8.242477477E-2
2.885131313E0,2.950780392E-1,2.495380044E-1,1.367532164E-1
2.905310479E0,2.189116776E-1,3.198454082E-1,1.372858584E-1
2.925490688E0,6.231792271E-2,2.559295893E-1,2.038648278E-1
2.945672146E0,-0.000000000E0,1.898832470E-1,2.193111479E-1
2.965855063E0,9.693899006E-2,2.362222075E-1,1.308942735E-1
2.986039542E0,2.892190814E-1,4.183822870E-1,1.318263728E-2
3.006225688E0,3.829622865E-1,4.024033546E-1,-6.138581783E-2
3.026413500E0,3.360906839E-1,2.420811653E-1,-9.174583107E-2
3.046602875E0,3.222422600E-1,3.411506712E-1,-1.657816470E-1
3.066793708E0,3.238401413E-1,5.382244587E-1,-3.282343447E-1
3.086985792E0,1.544632297E-2,1.078579426E-1,-3.916175365E-1
3.107178917E0,-5.267728567E-1,-9.717867374E-1,-4.779039025E-1
3.127372875E0,-8.479498625E-1,-1.876728177E0,-8.827040792E-1
3.147567354E0,-9.374319911E-1,-1.729189157E0,-1.297624230E0
3.167762042E0,-1.443964839E0,-9.030772448E-1,-1.226251602E0
3.187951313E0,-2.903376102E0,-4.759065211E-1,-9.279778004E-1
3.208140688E0,-3.654919624E0,4.167844057E-1,-7.069355845E-1
3.228340896E0,-2.928942442E0,1.570464969E0,-4.645881057E-1
3.248520167E0,-1.866874576E0,1.300420642E0,-2.403501123E-1
3.268699750E0,-1.268196344E0,-1.179779470E-1,-2.105227262E-1
3.288879958E0,-1.117461562E0,-1.625326037E0,-2.989396155E-1
3.309061000E0,-1.083905697E0,-1.565671206E0,-2.089248300E-1
3.329243188E0,-6.817687154E-1,-5.190497041E-1,-1.231711060E-1
3.349426625E0,-3.163833022E-1,-1.078579426E-1,-4.113249183E-1
3.369611521E0,-2.631201148E-1,4.181159660E-2,-7.069355845E-1
3.389797875E0,-3.083938360E-1,-1.051947847E-1,-5.908218622E-1
3.409985688E0,-2.556632757E-1,-5.573992133E-1,-1.641837656E-1
3.430174854E0,-7.297056168E-2,-6.042708158E-1,1.516669095E-1
3.450365271E0,1.166463718E-1,-6.045371294E-2,2.097237855E-1
3.470556833E0,1.427453309E-1,5.483444333E-1,1.426121742E-1
3.490749333E0,1.661811322E-1,5.446160436E-1,1.958753467E-1
3.510942563E0,2.764359117E-1,4.348938763E-1,5.319660306E-1
3.531136208E0,3.813643754E-1,3.150517344E-1,9.234504104E-1
3.551330063E0,4.719117880E-1,-4.926844314E-2,1.146090508E0
3.571518500E0,4.607265294E-1,-3.033338189E-1,1.097621083E0
3.591707042E0,3.787012100E-1,-2.655169666E-1,7.061366439E-1
3.611895688E0,2.673811615E-1,-8.175898343E-2,2.161153555E-1
3.632084438E0,1.661811322E-1,1.195758432E-1,-7.470161468E-2
3.652284021E0,2.157158852E-1,2.724411786E-1,-2.776343226E-1
3.672462875E0,3.771033287E-1,2.511359155E-1,-5.178512931E-1
3.692642042E0,5.054675937E-1,4.327633679E-1,-6.174534559E-1
3.712821833E0,6.466150284E-1,1.201883674E0,-6.238450408E-1
3.733002563E0,7.792403698E-1,2.454101086E0,-5.615270734E-1
3.753184438E0,2.066611499E-1,2.594715834E0,-3.862912357E-1
3.773367667E0,-4.809665382E-1,1.442633271E0,-2.510027587E-1
3.793552354E0,-5.352949500E-1,9.281109571E-1,-2.643185556E-1
3.813738604E0,-1.837579757E-1,1.087900519E0,-2.653838098E-1
3.833926417E0,-5.486107618E-2,7.363634706E-1,-1.498026997E-1
3.854115688E0,-3.984085917E-1,-2.956106514E-2,2.560627460E-1
3.874306313E0,-7.590003610E-1,3.435475379E-2,7.988145947E-1
3.894498083E0,-1.568600655E0,2.250369489E-1,8.648608923E-1
3.914690792E0,-1.451421738E0,2.990727723E-1,1.655153334E-1
3.934884229E0,-6.519413590E-1,7.294392586E-1,-2.792322338E-1
3.955078188E0,-3.408843651E-2,6.831002831E-1,-2.073269337E-1
3.975272354E0,4.239749312E-1,2.050632425E-2,-9.068056941E-2
3.995461104E0,6.029392481E-1,8.921582997E-2,3.874896467E-2
4.015649958E0,5.837644935E-1,4.695149362E-1,2.241048366E-1
4.035838917E0,2.508696020E-1,5.067991614E-1,4.510059953E-1
4.056038708E0,9.747162461E-2,5.992107838E-2,4.110586047E-1
4.076217771E0,3.765707016E-1,-5.765739679E-1,1.873532385E-1
4.096397146E0,6.961497664E-1,-8.253130317E-1,6.964161247E-2
4.116577146E0,7.041392922E-1,-1.071388960E0,5.739107728E-2
4.136758083E0,5.699160695E-1,-1.139565825E0,1.637842879E-2
4.156940167E0,5.182507634E-1,-1.382978559E0,-7.416898012E-2
4.177123604E0,4.133222997E-1,-1.498026967E0,-1.050616279E-1
4.197308500E0,6.247771382E-1,-1.614140749E0,-1.311605871E-1
4.217494854E0,4.740423262E-1,-1.753690243E0,-1.657816470E-1
4.237682667E0,-2.561959028E-1,-1.521462798E0,-1.178447902E-1
4.257871938E0,-2.354232669E-1,-7.411571741E-1,-1.482048035E-1
4.278062563E0,-6.870950758E-2,-2.655169666E-1,-2.302301079E-1
4.298254333E0,-6.604634225E-2,-6.042708158E-1,-2.089248300E-1
4.318447042E0,-6.338318437E-2,-8.833698630E-1,-1.487374306E-1
4.338640479E0,-2.556632757E-1,-5.371592045E-1,-2.552638054E-1
4.358834333E0,-6.178529263E-1,-7.749792933E-2,-5.817670822E-1
4.379028396E0,-8.767119646E-1,9.933583438E-2,-9.349020123E-1
4.399221729E0,-1.150484681E0,-3.435475379E-2,-1.178847432E0
4.419409542E0,-1.169126868E0,-2.372874767E-1,-1.526655912E0
4.439597146E0,-8.825709224E-1,9.081372619E-2,-1.520797014E0
4.459779333E0,-7.930887938E-1,6.111950278E-1,-6.318345070E-1
4.479961938E0,-5.949497223E-1,5.648560524E-1,1.575258672E-1
4.500145167E0,-2.876211889E-2,1.177382588E0,3.865575492E-1
4.520329125E0,3.893538713E-1,1.305746913E0,2.043974549E-1
4.540513917E0,4.681833684E-1,1.541969180E-1,1.691105962E-2
4.560699646E0,5.534044504E-1,-8.902940750E-1,-6.085318699E-2
4.580886417E0,4.596612751E-1,-8.354330063E-1,-4.807002097E-2
4.601074229E0,1.134505793E-1,-2.436790615E-1,8.775109053E-2
4.621262979E0,-2.039979845E-1,-4.287686199E-2,3.263701499E-1
4.641452563E0,-3.408843577E-1,7.723161485E-3,5.032039285E-1
4.661642875E0,-4.143875539E-1,3.075948656E-1,4.318312407E-1
4.681833813E0,-5.214465261E-1,4.620580971E-1,2.789659202E-1
4.702025271E0,-5.107939243E-1,3.869570196E-1,1.644500792E-1
4.722217042E0,-3.755054474E-1,4.370244145E-1,2.603237927E-1
4.742408917E0,-1.853558719E-1,3.944138587E-1,6.134586930E-1
4.762611625E0,3.195790946E-2,1.547295451E-1,1.021987319E0
4.782788917E0,1.869537681E-1,-8.974846452E-2,1.291499019E0
4.802966625E0,3.925496638E-1,-4.926844314E-2,1.221191645E0
4.823145063E0,6.157223582E-1,9.720530361E-2,8.265114427E-1
4.843324646E0,7.483476996E-1,2.191779912E-1,2.736395895E-1
4.863505583E0,7.563371658E-1,1.781653464E-1,-8.588688076E-2
4.883688083E0,7.579351068E-1,-3.161169887E-1,-7.949529588E-2
4.903872354E0,1.002413034E0,-7.097318769E-1,-3.319627941E-1
4.924058396E0,1.358743787E0,-1.334242672E-1,-6.584661007E-1
4.944246208E0,1.061535239E0,9.153277874E-1,-5.652555227E-1
4.964435792E0,2.316948473E-1,1.628521800E0,-4.246407151E-1
4.984626938E0,-1.581916511E-1,8.689888120E-1,-5.732449889E-1
5.004819438E0,1.384842694E-1,-1.739042848E-1,-3.372890949E-1
5.025013083E0,-9.113330245E-1,-4.918854833E-1,1.527321786E-1
5.045207563E0,-1.631983876E0,-1.121456265E0,-1.444763839E-1
5.065402563E0,-8.447540402E-1,-1.105211005E-1,3.151848912E-1
5.085597771E0,6.125266105E-2,2.474074811E-1,7.817703485E-1
5.105792875E0,1.024250984E0,-1.718003988E0,4.099933505E-1
5.125980688E0,1.557415485E0,-1.289767981E0,9.520793706E-2
5.146168396E0,1.348091125E0,-2.591253817E-1,5.739107728E-2
5.166350688E0,9.912278056E-1,9.946899414E-1,1.713742912E-1
5.186533396E0,7.861645818E-1,1.923599839E0,1.703090221E-1
5.206716625E0,6.396908164E-1,1.397892237E0,1.207742617E-1
5.226900583E0,3.818970025E-1,9.081372619E-2,1.937448233E-1
5.247085375E0,2.620548606E-1,-8.974846452E-2,3.386206925E-1
5.267271104E0,-1.097221524E-1,-2.636527456E-2,5.436839461E-1
5.287457771E0,-3.440801501E-1,-3.432812095E-1,4.542017877E-1
5.307645375E0,-1.235705838E-1,-4.162517786E-1,1.719069183E-1
5.327833917E0,1.656484902E-1,-2.298306376E-1,4.354264960E-2
5.348023396E0,-9.587372653E-3,-5.403549671E-1,-2.037316747E-2
5.368213708E0,-3.557980657E-1,-9.313067198E-1,-1.407479644E-1
5.388404646E0,-2.849580348E-1,-3.107906580E-1,-2.968090773E-1
5.408596104E0,-6.444845349E-2,-1.624527015E-2,-5.407544374E-1
5.428787875E0,-2.652506530E-1,-1.104412079E0,-4.576638937E-1
5.448979750E0,-4.149201810E-1,-1.496961713E0,-1.434111148E-1
5.469182458E0,-1.858884990E-1,-8.189214468E-1,1.051947847E-2
5.489360167E0,-1.304948032E-1,3.709780574E-1,-4.700475931E-2
5.509538188E0,-3.526022732E-1,2.612559199E-1,-2.110553533E-1
5.529716938E0,-7.329013944E-1,-3.581948876E-1,-5.956155062E-1
5.549896729E0,-1.327851176E0,-6.048034430E-1,-1.209740043E0
5.570077875E0,-1.754489183E0,-1.731053367E-2,-1.888845563E0
5.590260583E0,-1.590971231E0,1.220525861E0,-1.850496054E0
5.610444958E0,-1.126516342E0,1.411740661E0,-6.121271253E-1
5.630631104E0,-8.058719635E-1,6.564686894E-1,3.146522343E-1
5.650819021E0,-4.900212884E-1,2.476738021E-2,3.300985694E-1
5.671008604E0,-1.778990328E-1,-4.876244366E-1,1.388837546E-1
5.691199750E0,5.113265663E-2,-7.251782417E-1,-1.557948068E-2
5.711392250E0,1.896169335E-1,-4.636560082E-1,2.330264263E-2
5.731585792E0,1.981390417E-1,-1.518000662E-2,3.849596381E-1
5.751780167E0,1.635179669E-1,-1.518000662E-2,7.924230099E-1
5.771975063E0,2.588590682E-1,-1.824263930E-1,9.538104534E-1
5.792170167E0,3.238401413E-1,-3.009369783E-2,7.775092721E-1
5.812364229E0,2.769685388E-1,5.779055133E-2,5.990776420E-1
5.832551938E0,1.214400530E-1,1.190432087E-1,6.155892015E-1
5.852734229E0,7.989477366E-3,1.941442937E-1,6.997450590E-1
5.872916938E0,2.711096108E-1,3.842938542E-1,7.924230099E-1
5.893100167E0,7.728487849E-1,4.604602158E-1,8.616651297E-1
5.913284125E0,8.048067093E-1,-8.122635633E-2,7.801724672E-1
5.933468917E0,5.219792128E-1,-8.114646077E-1,5.426186919E-1
5.953654646E0,4.569981098E-1,-7.054708600E-1,2.331595868E-1
5.973841313E0,6.807034612E-1,9.294424951E-2,-2.733732760E-1
5.994028917E0,6.897581816E-1,2.229064107E-1,-8.906935453E-1
6.014217458E0,5.560676455E-1,4.103928208E-1,-1.096289396E0
6.034406938E0,4.170507193E-1,8.791088462E-1,-1.180445313E0
6.054597250E0,2.806969583E-1,8.460856676E-1,-1.297091603E0
6.074788188E0,-1.104145765E0,-2.436790615E-1,-8.374303579E-1
6.094979646E0,-1.676192284E0,-3.219759464E-1,-6.233124137E-1
6.115171417E0,-1.210139513E0,-1.034104705E0,-6.707166433E-1
6.135363292E0,-1.170724750E0,-5.009402037E-1,-1.338237375E-1
6.155566000E0,-6.886929274E-1,1.009070992E0,1.090563685E-1
6.175743708E0,4.713791609E-1,-5.414202213E-1,-2.882869840E-1
6.195921729E0,1.288436413E0,-9.163930416E-1,-6.085318699E-2
6.216100479E0,9.779120088E-1,-3.486075401E-1,2.065279931E-1
6.236280271E0,6.695181727E-1,2.474074811E-1,1.649827063E-1
6.256461417E0,8.681898713E-1,1.063399434E0,3.226417303E-1
6.276644125E0,9.486172795E-1,8.876309395E-1,4.797681272E-1
6.296828500E0,8.671246171E-1,1.541969180E-1,4.627238810E-1
6.317014646E0,6.530066133E-1,-3.496727943E-1,5.085302591E-1
6.337202563E0,4.058654606E-1,-7.749792933E-2,5.564671159E-1
6.357392146E0,3.067959249E-1,2.814959288E-1,5.255744457E-1
6.377583292E0,3.030675054E-1,2.058621943E-1,4.557996690E-1
6.397775792E0,2.609896064E-1,9.986846894E-2,3.391533196E-1
6.417969333E0,-5.752423778E-2,-6.737792492E-2,2.502037883E-1
6.438163708E0,-4.751075804E-1,1.307611167E-1,1.106542572E-1
6.458358604E0,-4.729770422E-1,6.277065873E-1,-3.368896246E-2
6.478553708E0,-2.221074700E-1,4.354265034E-1,-1.238369010E-2
6.498747875E0,-1.075916290E-1,-1.547295451E-1,-6.524739787E-3
6.518935583E0,-4.101264849E-2,-7.219824195E-1,-1.338237375E-1
6.539117875E0,-1.597895473E-2,-9.797762632E-1,-2.004027218E-1
6.559300583E0,-2.066611499E-1,-7.805719376E-1,-1.945437789E-1
6.579483917E0,-3.941475451E-1,-2.559295893E-1,-1.876195520E-1
6.599667979E0,-5.640571117E-1,4.476770461E-1,-2.685796022E-1
6.619852875E0,-9.411604404E-1,5.339633822E-1,-3.580617309E-1
6.640038708E0,-1.077514172E0,2.074600905E-1,-6.552702785E-1
6.660225479E0,-1.262337446E0,-1.563274413E-1,-1.184173703E0
6.680413188E0,-1.533447027E0,2.772348523E-1,-1.936249852E0
6.700601833E0,-1.203747869E0,1.240765810E0,-2.293645859E0
6.720791313E0,-1.175518394E0,1.074052095E0,-1.305613756E0
6.740981521E0,-8.926909566E-1,1.034104705E0,4.940159991E-2
6.761172354E0,-3.041327596E-1,7.150582075E-1,4.952144325E-1
6.781363708E0,-5.858949851E-3,-1.573926955E-1,3.482080400E-1
6.801555375E0,8.522108942E-2,-6.894918680E-1,9.946899116E-2
6.821747146E0,2.588590682E-1,-9.829720259E-1,-1.557948068E-2
6.841949750E0,2.300969511E-1,-9.307740927E-1,1.340900660E-1
6.862127458E0,9.534109384E-2,-8.540751338E-1,4.994754791E-1
6.882305479E0,-4.474107176E-2,-7.470161319E-1,9.665936232E-1
6.902484229E0,-3.888212144E-2,-3.033338189E-1,1.245159984E0
6.922664021E0,9.853688627E-2,2.942790687E-1,1.212136865E0
6.942845167E0,1.363537461E-1,6.958834529E-1,1.020922065E0
6.963027875E0,1.917474568E-1,7.576687932E-1,8.478167057E-1
6.983212250E0,5.667202473E-1,8.380961418E-1,8.110650778E-1
7.003398396E0,1.137701511E0,9.547425508E-1,9.953557253E-1
7.023586313E0,1.302817464E0,4.173170328E-1,9.969536066E-1
7.043775896E0,1.138234258E0,-3.209106624E-1,7.412903309E-1
7.063967042E0,9.097351432E-1,-1.051681519E0,3.476754129E-1
7.084159542E0,9.155941010E-1,-1.706818700E0,-1.242363751E-1
7.104353083E0,1.071655273E0,-1.789376616E0,-4.012049139E-1
7.124547458E0,9.869667888E-1,-1.217862606E0,-4.693817794E-1
7.144742354E0,4.660528302E-1,-5.792371035E-1,-5.295692086E-1
7.164937458E0,1.475390196E-1,-5.459476262E-2,-7.005439997E-1
7.185131625E0,5.645897239E-2,-7.590003312E-2,-5.870934129E-1
7.205319438E0,-6.940192580E-1,-1.001614094E0,-1.162468940E-1
7.225507146E0,-1.607482791E0,-3.731085956E-1,-2.206427306E-1
7.245689438E0,-2.205095768E0,1.504684836E-1,-7.420892715E-1
7.265872146E0,-1.714541793E0,2.537990510E-1,-4.720449448E-1
7.286055479E0,-1.491369121E-2,2.977678299E0,4.206459820E-1
7.306239542E0,7.020087242E-1,2.468482256E0,8.275766969E-1
7.326424438E0,5.603286624E-1,-7.459508777E-1,6.273071170E-1
7.346610271E0,9.177246094E-1,-1.386174321E0,1.527321786E-1
7.366797042E0,8.495477438E-1,-3.864243925E-1,2.278332561E-1
7.386984750E0,6.807034612E-1,1.005875230E0,2.805638015E-1
7.407173396E0,6.040045023E-1,1.845302939E0,1.777658761E-1
7.427362875E0,3.339601457E-1,1.220525861E0,3.407512009E-1
7.447553083E0,2.854906619E-1,3.976096511E-1,5.431513190E-1
7.467743917E0,5.060002208E-1,4.050664902E-1,6.827008128E-1
7.487935271E0,4.048001766E-1,-7.376950979E-2,7.588672042E-1
7.508126938E0,3.392864764E-1,-5.914876461E-1,5.149217844E-1
7.528318708E0,2.604569495E-1,-7.582014203E-1,2.938795984E-1
7.548521313E0,-1.507348120E-1,-5.941507816E-1,7.922898233E-2
7.568699229E0,-4.250401855E-1,-7.161234617E-1,-1.908153445E-1
7.588877458E0,-3.158506751E-1,-1.445296407E0,-4.294344187E-1
7.609056417E0,1.661811322E-1,-1.757418633E0,-5.098618269E-1
7.629236417E0,4.607265294E-1,-1.324921608E0,-5.029376149E-1
7.649417771E0,6.178529188E-2,-4.157191217E-1,-5.977460742E-1
7.669600583E0,-5.795034170E-1,2.292979956E-1,-7.058703303E-1
7.689785063E0,-6.924213767E-1,2.772348523E-1,-6.360955238E-1
7.709971208E0,-1.068992019E0,-1.837579720E-2,-5.386239290E-1
7.730159021E0,-8.948214650E-1,-9.134636074E-2,-3.538006842E-1
7.750348500E0,-7.941540480E-1,-3.166496158E-1,-2.169143111E-1
7.770539542E0,-7.616634965E-1,-7.273087502E-1,-5.380913019E-1
7.790731938E0,-7.664572001E-1,-1.197622657E0,-1.044091582E0
7.810925375E0,-7.669898272E-1,-9.941573143E-1,-1.533580184E0
7.831119646E0,-5.922865868E-1,9.531446695E-1,-1.739176035E0
7.851314438E0,-6.375603080E-1,2.757701159E0,-1.080843091E0
7.871509438E0,-4.932170510E-1,3.018158197E0,-2.078595608E-1
7.891703708E0,9.853688627E-2,1.957155585E0,1.996037811E-1
7.911891417E0,4.058654606E-1,4.956139028E-1,3.295659423E-1
7.932073708E0,5.305013061E-1,-7.843003273E-1,2.986733019E-1
7.952256417E0,4.511391521E-1,-1.255679488E0,1.165132076E-1
7.972439750E0,1.906821877E-1,-1.008005738E0,1.639174372E-1
7.992623813E0,-1.150484756E-1,-3.427485824E-1,5.926860571E-1
8.012808708E0,-2.737727463E-1,5.725792050E-2,1.068326235E0
8.032994542E0,-2.066611499E-1,1.163800508E-1,1.217463136E0
8.053181313E0,-7.936213911E-2,8.868319541E-2,1.039564133E0
8.073369021E0,-4.048001766E-2,8.122635633E-2,8.909598589E-1
8.093557667E0,-7.936213911E-2,2.053295672E-1,8.813725114E-1
8.113747146E0,-4.900212586E-2,3.145190775E-1,9.900293946E-1
8.133937354E0,5.805686861E-2,1.845569313E-1,1.175385237E0
8.154128188E0,2.833601236E-1,-2.740390599E-1,1.354349613E0
8.174319542E0,8.500803709E-1,-6.293044686E-1,1.349023223E0
8.194511208E0,1.365667939E0,-6.117276549E-1,9.852356911E-1
8.214703083E0,1.161669970E0,-1.171523690E0,7.763108611E-2
8.234905792E0,9.459540844E-1,-1.670067072E0,-8.613988161E-1
8.255083708E0,8.671246171E-1,-1.000548840E0,-1.468066454E0
8.275261938E0,6.604634225E-2,5.307676196E-1,-1.986317158E0
8.295440896E0,-8.335688114E-1,1.796833396E0,-2.218012094E0
8.315620896E0,-1.753423929E0,1.993374586E0,-1.551156998E0
8.335802250E0,-2.174735785E0,-5.779055133E-2,-2.962764502E-1
8.355985063E0,-7.430213690E-1,-1.264734268E0,2.017343044E-1
8.376169542E0,7.009434700E-1,-7.390266657E-1,7.024081945E-1
8.396355688E0,1.000282526E0,-1.904425025E0,6.246439815E-1
8.416543500E0,7.265098095E-1,-1.947035670E0,-3.953459561E-1
8.436732979E0,9.954888821E-1,-1.084172130E0,-6.297039986E-1
8.456924021E0,1.178714275E0,5.408875942E-1,6.591318548E-2
8.477116417E0,1.211204767E0,1.330247998E0,3.679154217E-1
8.497309854E0,1.031175256E0,8.998814821E-1,4.557996690E-1
8.517504125E0,1.042360425E0,6.631266326E-2,5.218459964E-1
8.537698917E0,1.142495275E0,-4.988096952E-1,5.932186842E-1
8.557893917E0,1.034903646E0,-3.017359376E-1,6.938861012E-1
8.578088188E0,8.074698448E-1,1.677790284E-2,7.663240433E-1
8.598275896E0,6.263750196E-1,7.057371736E-2,6.864292622E-1
8.618458188E0,4.516717792E-1,-1.126516312E-1,5.548691750E-1
8.638640896E0,1.102547869E-1,-3.576622605E-1,4.850944281E-1
8.658824229E0,-3.254380524E-1,-3.896201849E-1,3.940143883E-1
8.679008292E0,-5.336970687E-1,-6.844318658E-2,2.507364154E-1
8.699193188E0,-5.518065691E-1,3.416832983E-1,1.559279710E-1
8.719379021E0,-4.367581010E-1,1.254348010E-1,5.739107728E-2
8.739565792E0,-1.677790284E-1,-5.749760270E-1,4.514054582E-2
8.759753500E0,1.789642870E-1,-8.466182947E-1,1.175784767E-1
8.779942146E0,5.171855092E-1,-1.144359469E0,2.773680091E-1
8.800131625E0,8.367645741E-1,-1.366999626E0,5.633913279E-1
8.820321833E0,1.070589900E0,-1.150218368E0,5.575323701E-1
8.840512667E0,6.609960794E-1,-9.052077532E-1,3.609912097E-1
8.860704021E0,3.936149180E-1,-1.009603620E0,1.079910994E-1
8.880895688E0,2.024000883E-1,-1.802159786E0,-4.709796906E-1
8.901087563E0,-2.439453751E-1,-2.194709301E0,-1.538373828E0
8.921290271E0,-5.283707380E-1,-1.505483866E0,-2.578603745E0
8.941468188E0,-6.748445034E-1,-1.105211005E-1,-2.543982744E0
8.961646417E0,-6.311687231E-1,1.512408018E0,-1.593767524E0
8.981825375E0,-6.317013502E-1,2.214416742E0,-9.130641222E-1
9.002005375E0,-2.918822467E-1,1.285506845E0,-9.524788260E-1
9.022186729E0,4.250401855E-1,-7.262434959E-1,-7.191861272E-1
9.042369646E0,9.560741186E-1,-2.570214748E0,-3.458112180E-1
9.062554229E0,1.102547884E0,-2.996852875E0,-3.969438672E-1
9.082740479E0,9.906951785E-1,-2.797116041E0,-7.820366621E-1
9.102928396E0,6.343644857E-1,-1.929458737E0,-9.705883265E-1
9.123117979E0,2.338253707E-1,-1.011201501E0,-6.190513372E-1
9.143309021E0,1.896169335E-1,-1.391500592E0,-3.058638275E-1
9.163501313E0,3.749727905E-1,-2.025865078E0,-3.133206666E-1
9.183694646E0,4.149201810E-1,-1.631184936E0,-2.834932804E-1
9.203888813E0,4.111917615E-1,-1.238102674E0,-1.344895363E-2
9.224083500E0,4.090612531E-1,-8.876309395E-1,3.130543530E-1
9.244278396E0,4.378233552E-1,-5.776392221E-1,5.735113025E-1
9.264472667E0,4.809665382E-1,-4.812328517E-1,7.476819158E-1
9.284660479E0,3.728422821E-1,-9.366330504E-1,6.651239991E-1
9.304842875E0,3.728422895E-2,-1.541170120E0,2.709764242E-1
9.325025688E0,-4.633896798E-2,-1.157675266E0,-5.712476373E-2
9.345209021E0,-1.012000442E-2,-1.856221855E-1,-1.950764060E-1
9.365393083E0,-7.456845790E-2,4.838960171E-1,-1.045289934E-1
9.385577979E0,1.379516423E-1,1.157142639E0,7.763108611E-2
9.405763813E0,8.468846083E-1,1.815475583E0,-6.937529147E-2
9.425950583E0,1.190964699E0,1.124652147E0,-6.131923795E-1
9.446138292E0,-5.858949944E-2,-5.611276031E-1,-5.913544893E-1
9.466326938E0,-3.840275407E-1,-9.179909229E-1,6.910897791E-2
9.486516417E0,-1.565937549E-1,-1.461275458E0,4.675175846E-1
9.506706625E0,-1.864211448E-2,-2.047170401E0,5.362271070E-1
9.526897458E0,1.049284711E-1,-2.295376778E0,2.502037883E-1
9.547088813E0,5.102612972E-1,-1.383511186E0,-2.296974659E-1
9.567280479E0,1.733716607E0,1.146489978E0,-3.490070105E-1
9.587472250E0,2.531066418E0,1.682850242E0,7.323687430E-3
9.607674854E0,2.506565332E0,-6.471476704E-2,4.275701940E-1
9.627852667E0,1.978194594E0,-1.561942816E0,8.174566627E-1
9.648030792E0,1.250086904E0,-9.952225685E-1,9.277114868E-1
9.668209646E0,5.768402815E-1,-9.773793817E-2,7.908250690E-1
9.688389542E0,2.013348341E-1,-1.009337306E-1,5.729786754E-1
9.708570792E0,3.957454562E-1,-3.161169887E-1,3.897533417E-1
9.728753604E0,9.496825337E-1,-4.604602158E-1,3.988080621E-1
9.748938083E0,1.357145905E0,-8.306393027E-1,3.833617568E-1
9.769124333E0,1.623994470E0,-9.552751780E-1,3.183806837E-1
9.789312354E0,1.606417537E0,-6.601971388E-1,3.727091253E-1
9.809502042E0,1.163267851E0,-6.021402478E-1,4.813660085E-1
9.829693188E0,6.689855456E-1,-7.550055981E-1,4.984102249E-1
9.849885688E0,4.346275628E-1,-7.560708523E-1,4.286354482E-1
9.870079229E0,3.020022511E-1,-5.414202213E-1,3.732417524E-1
9.890273604E0,2.604569495E-1,-4.183822870E-1,3.119890988E-1
9.910468500E0,4.303665161E-1,-4.807002246E-1,7.656582445E-2
9.930663604E0,7.020087242E-1,-2.804306448E-1,-8.482161909E-2
9.950857146E0,6.593981981E-1,1.009337306E-1,-6.404897571E-2
9.971044854E0,-8.255793154E-2,-1.440769136E-1,-3.368896246E-2
9.991227146E0,-8.708530068E-1,-1.283376336E0,-1.215732098E-1
1.001140985E1,-9.294425249E-1,-2.257560015E0,-4.976112843E-1
1.003159319E1,-7.845667005E-1,-2.590987444E0,-8.624640703E-1
1.005177725E1,-7.728487849E-1,-2.055159807E0,-1.133041024E0
1.007196215E1,-9.576719999E-1,-8.594014645E-1,-1.303483248E0
1.009214798E1,-1.497228026E0,4.285022914E-1,-1.170325279E0
1.011233475E1,-2.256761074E0,6.463487148E-1,-1.036102057E0
1.013252246E1,-1.735314488E0,7.406245470E-1,-1.261405349E0
1.015271110E1,-8.442214131E-1,-3.299654126E-1,-1.153813720E0
1.017290058E1,-1.848232448E-1,-1.890043974E0,-8.555398583E-1
1.019309079E1,6.306360960E-1,-2.473275900E0,-5.705818534E-1
1.021328162E1,7.084003091E-1,-1.960351467E0,-8.038745522E-1
1.023347298E1,4.841623306E-1,-1.781919718E0,-1.312005281E0
1.025366465E1,5.534044504E-1,-1.977928281E0,-1.646498084E0
1.027385652E1,5.874928832E-1,-1.816008210E0,-1.740241289E0
1.029405923E1,5.406212807E-1,-1.597096562E0,-1.510676980E0
1.031423704E1,5.619265437E-1,-1.549692273E0,-1.242763162E0
1.033441517E1,5.842971206E-1,-1.439437509E0,-1.130910516E0
1.035459402E1,6.157223582E-1,-1.333443761E0,-1.038232565E0
1.037477392E1,6.695181727E-1,-1.460742712E0,-9.066725373E-1
1.039495517E1,6.817687154E-1,-1.576323867E0,-6.712492704E-1
1.041513798E1,6.301034689E-1,-1.529452324E0,-3.372890949E-1
1.043532246E1,5.400886536E-1,-1.338237405E0,-1.291632187E-2
1.045550871E1,5.033370852E-1,-1.180578470E0,2.885532975E-1
1.047569673E1,5.965476632E-1,-1.025582552E0,5.426186919E-1
1.049588642E1,8.101329803E-1,-7.422224283E-1,8.946883082E-1
1.051607756E1,7.318361402E-1,-7.858982682E-1,1.161004186E0
1.053627006E1,6.578003168E-1,-9.302414656E-1,7.929556370E-1
1.055646360E1,6.924213767E-1,-1.422393322E0,-1.119858399E-1
1.057665798E1,4.543349445E-1,-1.509212255E0,-7.207840085E-1
1.059685288E1,8.468846232E-2,-1.004010960E-1,-7.117292881E-1
1.061704798E1,-2.876211889E-2,1.675393343E0,-6.158555150E-1
1.063724142E1,-9.427583218E-2,2.595781088E0,-8.640619516E-1
1.065742923E1,-9.267793596E-2,1.137967944E0,-9.860346317E-1
1.067761694E1,2.599243224E-1,-5.616602302E-1,-1.684448123E-1
1.069779923E1,6.215813160E-1,-1.213601589E0,1.036368370E0
1.071798194E1,8.016108871E-1,-1.800561905E0,1.512541175E0
1.073816527E1,9.102677703E-1,-2.241048336E0,1.215865254E0
1.075834933E1,9.321056604E-1,-1.938513517E0,6.933534741E-1
1.077853423E1,9.821730852E-1,-8.753803968E-1,2.565953732E-1
1.079872006E1,1.169659495E0,-1.009337306E-1,3.821633384E-2
1.081890683E1,9.273120165E-1,-2.095906287E-1,1.458079666E-1
1.083909454E1,8.431561589E-1,-9.131972790E-1,4.780370742E-2
1.085928319E1,1.054078341E0,-1.018658400E0,-1.492700726E-1
1.087947267E1,1.154213190E0,-3.997401893E-1,-6.032055244E-2
1.089966288E1,1.054078341E0,3.773696423E-1,1.681784987E-1
1.091985371E1,8.586025238E-1,4.748412669E-1,3.178480268E-1
1.094004506E1,8.319709301E-1,-3.968106955E-2,3.503385782E-1
1.096023673E1,1.034903646E0,-6.058686972E-1,2.773680091E-1
1.098042860E1,1.235173225E0,-9.691236019E-1,2.890859246E-1
1.100063131E1,1.249021649E0,-1.051681519E0,3.285006881E-1
1.102080913E1,1.107874155E0,-7.640603185E-1,2.422143221E-1
1.104098725E1,9.486172795E-1,-5.078644156E-1,1.532648057E-1
1.106116610E1,9.816404581E-1,-3.715106845E-1,9.361004084E-2
1.108134600E1,1.198954225E0,-1.185105816E-1,1.186437383E-1
1.110152725E1,1.309208989E0,-6.258423626E-2,2.731069624E-1
1.112171006E1,1.244227886E0,-1.344895363E-1,4.627238810E-1
1.114189454E1,1.062600493E0,-3.677822649E-1,6.139913201E-1
1.116208079E1,8.969519734E-1,-5.179844499E-1,5.761744976E-1
1.118226881E1,6.950845122E-1,-2.878875136E-1,4.803007543E-1
1.120245850E1,3.020022511E-1,4.127896577E-2,4.339617789E-1
1.122264965E1,5.432844535E-2,2.697780132E-1,1.761679798E-1
1.124284215E1,2.343579940E-2,1.621863842E-1,-1.344895363E-2
1.126303569E1,1.917474531E-2,-4.021370411E-2,-2.303632535E-2
1.128323006E1,-2.407495826E-1,-5.888244510E-1,-8.375635743E-2
1.130342496E1,-5.390233994E-1,-1.688709140E0,-3.793670237E-1
1.132362006E1,-4.841623306E-1,-2.455166340E0,-7.719166875E-1
1.134381350E1,-4.287686050E-1,-2.510560036E0,-1.155944228E0
1.136400131E1,-6.780403256E-1,-1.932654619E0,-1.504285455E0
1.138418902E1,-1.357145905E0,-9.329046607E-1,-1.498426437E0
1.140437131E1,-2.349438906E0,-2.170474678E-1,-1.155944228E0
1.142455402E1,-2.361689568E0,8.609993458E-1,-1.152215838E0
1.144473735E1,-1.748097658E0,1.300953269E0,-1.324788451E0
1.146492142E1,-9.768467546E-1,2.921485603E-1,-1.225186348E0
1.148510631E1,-1.539305896E-1,-1.125184774E0,-8.459525108E-1
1.150529215E1,3.142527640E-1,-2.201633692E0,-4.075964987E-1
1.152547892E1,5.251749754E-1,-2.409892559E0,-2.984069884E-1
1.154566662E1,7.068024278E-1,-2.353433609E0,-6.904240251E-1
1.156585527E1,6.615287066E-1,-2.177132607E0,-1.233175874E0
1.158604475E1,3.920170069E-1,-1.385641694E0,-1.373257995E0
1.160623496E1,2.790990770E-1,-8.002793193E-1,-1.104278922E0
1.162642579E1,5.603286624E-1,-7.789740562E-1,-7.692534924E-1
1.164661715E1,7.669898272E-1,-9.558078051E-1,-4.395544231E-1
1.166680881E1,7.435539961E-1,-1.196557403E0,-2.185122073E-1
1.168700058E1,6.940192580E-1,-1.265266895E0,-9.547425061E-2
1.170720319E1,8.575372100E-1,-9.249151349E-1,9.946899116E-2
1.172738110E1,9.677920341E-1,-5.941507816E-1,3.870901763E-1
1.174755933E1,8.277098536E-1,-6.021402478E-1,5.873597264E-1
1.176773829E1,5.262402296E-1,-9.669930935E-1,6.518082023E-1
1.178791829E1,1.603221744E-1,-1.405881643E0,6.986798048E-1
1.180809965E1,-3.302317113E-2,-1.445296407E0,6.475471258E-1
1.182828246E1,2.364885211E-1,-7.880287766E-1,4.478102028E-1
1.184846694E1,3.840275407E-1,-3.480748832E-1,3.263701499E-1
1.186865308E1,-2.226400971E-1,-7.347655892E-1,3.167827725E-1
1.188884090E1,-6.093307734E-1,-6.394245028E-1,-7.590003312E-3
1.190903038E1,-3.020022511E-1,3.118559420E-1,-5.327649713E-1
1.192922131E1,4.138549268E-1,1.608814359E0,-9.551420212E-1
1.194941360E1,2.077264152E-2,1.676458597E0,-1.302417994E0
1.196960694E1,-1.252217412E0,1.068193078E0,-1.379116893E0
1.198980110E1,-9.906952083E-2,1.578454375E0,-9.002809525E-1
1.200999579E1,3.238401413E-1,-2.548643351E-1,1.095889956E-1
1.203019069E1,1.549958587E-1,-1.554485917E0,1.031574726E0
1.205038538E1,1.219726875E-1,-2.841324329E0,1.253149509E0
1.207057319E1,5.299686790E-1,-3.381945848E0,7.982819676E-1
1.209075558E1,1.555817604E0,-1.050616264E0,1.969406158E-1
1.211093840E1,2.178996801E0,1.865010262E0,-1.291632187E-2
1.213112173E1,9.677920341E-1,1.323323727E0,1.436774284E-1
1.215130579E1,1.693769246E-1,-4.119907022E-1,-1.844237745E-1
1.217149069E1,6.444845200E-1,-4.583296776E-1,-2.797648609E-1
1.219167652E1,8.676572442E-1,1.701758653E-1,2.603237927E-1
1.221186329E1,9.001477957E-1,6.351634264E-1,4.850944281E-1
1.223205100E1,6.231792569E-1,3.496727943E-1,4.552670419E-1
1.225223965E1,4.378233552E-1,-3.209106624E-1,3.300985694E-1
1.227242912E1,5.720465779E-1,-8.412919641E-1,2.241048366E-1
1.229261933E1,6.354297400E-1,-9.803088903E-1,1.703090221E-1
1.231281017E1,3.265033066E-1,-7.805719376E-1,-1.131842658E-2
1.233300152E1,-2.226400971E-1,-2.356895804E-1,-2.307627350E-1
1.235319319E1,-5.358276367E-1,3.448790908E-1,-3.101248741E-1
1.237338496E1,-7.020087242E-1,1.691105962E-1,-3.713775277E-1
1.239358756E1,-4.900212884E-1,-3.896201849E-1,-3.617901504E-1
1.241376517E1,-1.427453309E-1,-5.930855274E-1,-1.529984921E-1
1.243394308E1,-2.055958807E-1,-1.221058488E0,-9.187898599E-3
1.245412173E1,-1.704421788E-1,-2.347042084E0,4.194475710E-2
1.247430142E1,6.391581893E-2,-2.639456987E0,-1.557948068E-2
1.249448246E1,6.498108059E-2,-1.461808085E0,-1.215732098E-1
1.251466506E1,-7.446193099E-1,2.900180221E-1,-3.665838540E-1
1.253484933E1,-8.681898713E-1,7.635276914E-1,-5.151881576E-1
1.255503538E1,-7.270424366E-1,1.168327928E0,-2.451438010E-1
1.257522319E1,-1.254347920E0,1.696698666E0,-2.531332672E-1
1.259541267E1,-1.563274384E0,1.010136247E0,-5.498092175E-1
1.261560371E1,-1.675127029E0,3.171822429E-1,-1.035569429E0
1.263579610E1,-1.718802929E0,5.057339072E-1,-1.925597191E0
1.265598965E1,-1.164865732E0,3.779022694E-1,-2.329332113E0
1.267618402E1,-8.000130057E-1,7.217161357E-2,-1.040363073E0
1.269637892E1,-6.418213248E-1,-8.602003753E-2,1.703090221E-1
1.271657413E1,-3.153180480E-1,8.255792782E-3,1.878858805E-1
1.273676392E1,-1.491369121E-2,5.755086541E-1,-9.014793485E-2
1.275695381E1,2.109221965E-1,6.234455705E-1,-2.243711501E-1
1.277715454E1,4.548675716E-1,-6.045371294E-2,-1.451421715E-2
1.279733267E1,6.535392404E-1,-8.508793116E-1,2.805638015E-1
1.281751110E1,5.821665525E-1,-6.900244951E-1,3.508712053E-1
1.283769027E1,2.876211703E-1,2.053295672E-1,3.290333152E-1
1.285787048E1,9.054740891E-3,2.788327634E-1,4.233091474E-1
1.287805194E1,-4.367581010E-2,-1.643169224E-1,6.065344810E-1
1.289823485E1,2.284990549E-1,-1.067926809E-1,6.299703121E-1
1.291841933E1,5.022718310E-1,1.014663652E-1,4.861596823E-1
1.293860548E1,6.253097653E-1,1.318263710E-1,4.275701940E-1
1.295879329E1,7.344992757E-1,-2.316948399E-2,6.102629304E-1
1.297898267E1,9.368993640E-1,-2.133190483E-1,9.319725037E-1
1.299917350E1,1.299621701E0,-2.980075181E-1,1.183907390E0
1.301936558E1,1.603221774E0,-4.418180883E-1,1.190298915E0
1.303955871E1,1.683116555E0,-7.560708523E-1,9.415599108E-1
1.305975267E1,1.606950164E0,-1.443698525E0,4.515386224E-1
1.307994715E1,1.581916451E0,-1.964612484E0,-3.133206666E-1
1.310014183E1,1.369396448E0,-1.661012292E0,-9.301083088E-1
1.312033110E1,8.298403621E-1,-5.121254921E-1,-1.041428328E0
1.314052048E1,4.479433596E-1,1.095889926E0,-8.741819859E-1
1.316070996E1,9.321057051E-2,1.951829314E0,-5.977460742E-1
1.318091027E1,-5.294360518E-1,1.048485756E0,-3.985417485E-1
1.320108798E1,-6.056023836E-1,2.729738057E-1,-5.295692086E-1
1.322126600E1,-7.765771747E-1,4.615254700E-1,-3.692470193E-1
1.324144475E1,-1.289501667E0,-7.270424068E-2,-1.386174262E-1
1.326162454E1,-1.368331194E0,2.719085515E-1,-1.588574350E-1
1.328180569E1,-1.537708044E0,1.368064880E0,-7.949529588E-2
1.330198840E1,-3.707117438E-1,-1.536642760E-1,1.085237339E-1
1.332217277E1,1.292164803E0,-1.714808106E0,3.269027770E-1
1.334235892E1,2.640255928E0,-1.426654339E0,6.731134653E-1
1.336254683E1,1.853026152E0,-5.744433999E-1,5.942839384E-1
1.338273642E1,8.985498548E-1,4.785696864E-1,2.565953732E-1
1.340292756E1,6.764423847E-1,1.057007790E0,7.443529367E-2
1.342312006E1,5.123918056E-1,1.173654199E0,4.141212255E-2
1.344331360E1,4.809665382E-1,9.994835854E-1,1.904158667E-2
1.346350798E1,5.507413149E-1,1.051148891E0,4.833633825E-2
1.348370288E1,2.141179889E-1,8.503466845E-1,2.113216817E-1
1.350389798E1,-4.319643974E-1,4.098601937E-1,2.384859025E-1
1.352409215E1,-6.487455368E-1,1.568600684E-1,1.213068962E-1
1.354427985E1,-7.222487330E-1,-2.447443157E-1,1.841574460E-1
1.356446215E1,-6.562023759E-1,-3.874896467E-1,3.130543530E-1
1.358464485E1,-4.218443930E-1,-4.961465299E-1,3.561975360E-1
1.360482819E1,-1.347558498E-1,-8.141277432E-1,1.793637723E-1
1.362501225E1,2.663159044E-3,-1.306812167E0,-1.434111148E-1
1.364519715E1,-2.024000883E-2,-1.443698525E0,-2.728406489E-1
1.366538298E1,-2.663159184E-2,-7.773761153E-1,-2.510027587E-1
1.368556975E1,6.711161137E-2,3.603254259E-1,-3.111901283E-1
1.370575746E1,-9.267793596E-2,7.858982682E-1,-4.422175586E-1
1.372594610E1,-4.554001987E-1,-1.233042628E-1,-3.633880615E-1
1.374613558E1,-5.065328479E-1,-9.685909748E-1,-2.403501123E-1
1.376632579E1,-1.056208849E0,-7.337003350E-1,-4.592617750E-1
1.378651662E1,-1.613341808E0,2.697780132E-1,-9.796430469E-1
1.380670798E1,-1.498825908E0,1.158740520E0,-1.077114701E0
1.382689965E1,-1.299621701E0,1.181111097E0,-8.917587996E-1
1.384709142E1,-8.633961678E-1,9.334372878E-1,-8.864325285E-1
1.386729402E1,-2.338253707E-1,2.157158963E-2,-4.624575675E-1
1.388747183E1,-2.093243003E-1,-5.978792310E-1,1.399490088E-1
1.390764996E1,-1.757684946E-1,6.154560447E-1,1.543300748E-1
1.392782881E1,-1.001347825E-1,2.124402046E0,-1.557948068E-2
1.394800871E1,-2.583264410E-1,2.091911554E0,3.994738800E-4
1.396818996E1,-6.870950758E-2,7.523424625E-1,1.271658540E-1
1.398837277E1,2.817622423E-1,-4.577970505E-1,5.154544711E-1
1.400855725E1,2.966759205E-1,-5.185170770E-1,7.977492809E-1
1.402874350E1,9.587372839E-2,-2.948117256E-1,8.691219687E-1
1.404893142E1,-7.723161578E-2,-9.187898785E-2,9.117324948E-1
1.406912100E1,-1.113200486E-1,1.984053552E-1,9.751157165E-1
1.408931204E1,-3.515370190E-2,3.427485824E-1,1.023052573E0
1.410950444E1,1.976063997E-1,6.524740160E-2,1.131176829E0
1.412969788E1,5.022718310E-1,-5.712476373E-1,1.162069440E0
1.414989215E1,6.407560706E-1,-1.221591115E0,9.527451396E-1
1.417008694E1,6.727139950E-1,-1.604553342E0,6.390250325E-1
1.419028194E1,5.981455445E-1,-1.823997617E0,3.822965026E-1
1.421047600E1,3.515369892E-1,-1.918273449E0,6.804371625E-2
1.423066371E1,1.613874435E-1,-1.310007930E0,-3.916175365E-1
1.425084600E1,1.608548164E-1,2.234390527E-1,-8.246471882E-1
1.427102871E1,3.643201590E-1,2.141978979E0,-1.199087381E0
1.429121194E1,-1.986716688E-1,2.781669617E0,-1.314135909E0
1.431139590E1,-8.479498625E-1,9.829720259E-1,-1.341832757E0
1.433158069E1,-3.217096329E-1,1.392033219E0,-1.033438921E0
1.435176642E1,-2.594449520E0,-1.046887875E0,-1.460742801E-1
1.437195308E1,-1.886581898E0,-1.304681659E0,3.966775537E-1
1.439214079E1,1.171789989E-1,-1.994706094E-1,5.218459964E-1
1.441232944E1,1.269794226E0,-1.763277650E0,4.616586268E-1
1.443251892E1,1.237303734E0,-1.802958697E-1,1.985385120E-1
1.445270912E1,6.902908683E-1,1.101216316E0,2.223737910E-2
1.447289996E1,6.487455368E-1,2.005625010E0,3.466101587E-1
1.449309131E1,5.837644935E-1,1.926795602E0,4.163849354E-1
1.451328298E1,5.629918575E-1,5.856286883E-1,3.210438192E-1
1.453347485E1,6.455497742E-1,-4.631233811E-1,2.033322006E-1
1.455367756E1,6.072002649E-1,-5.163865685E-1,2.656501234E-1
1.457385558E1,2.098569423E-1,4.332959950E-1,4.595280886E-1
1.459403392E1,-2.700443268E-1,1.014397264E0,4.850944281E-1
1.461421298E1,-2.982738316E-1,6.101297736E-1,3.865575492E-1
1.463439308E1,1.214400530E-1,4.980107397E-2,3.956122994E-1
1.465457444E1,5.166528821E-1,-5.984118581E-1,4.094607234E-1
1.467475725E1,2.359558940E-1,-1.076182604E0,7.230477035E-2
1.469494173E1,-5.528718233E-1,-1.077247858E0,-5.865607858E-1
1.471512788E1,-4.703139067E-1,-8.040077090E-1,-7.809714079E-1
1.473531569E1,-3.030675054E-1,-3.581948876E-1,-6.962829232E-1
1.475550517E1,-3.323622644E-1,-2.929474926E-3,-6.483460665E-1
1.477569610E1,-1.093493104E0,2.852243483E-1,-8.113313913E-1
1.479588840E1,-1.188834190E0,-1.339569092E-1,-7.426218987E-1
1.481608173E1,-1.013598323E0,-2.223737836E-1,-5.977460742E-1
1.483627590E1,-1.141962647E0,-8.761793375E-2,-7.309040427E-1
1.485647058E1,-1.044491053E0,-7.656582594E-1,-9.407609701E-1
1.487666548E1,-1.112667918E0,-1.105477333E0,-1.255546331E0
1.489685965E1,-7.893603444E-1,2.367548496E-1,-1.661944389E0
1.491704746E1,-3.952127993E-1,1.799496651E0,-1.168194771E0
1.493723517E1,-2.945453823E-1,1.674328089E0,-2.435459048E-1
1.495741746E1,1.161137372E-1,8.785761595E-1,-3.368896246E-2
1.497760017E1,4.282359779E-1,7.203845382E-1,6.484792382E-2
1.499778340E1,4.697812796E-1,3.251717389E-1,2.336922139E-1
1.501796735E1,4.591286182E-1,-1.941442937E-1,4.131891429E-1
1.503815215E1,3.888212144E-1,-1.046621501E-1,6.230461001E-1
1.505833788E1,2.838927507E-1,-9.321057238E-3,8.659262061E-1
1.507852454E1,1.565937549E-1,-1.265000552E-1,1.049151540E0
1.509871225E1,9.534109384E-2,-2.031990439E-1,1.091762066E0
1.511890090E1,1.257011145E-1,-2.047969401E-1,1.078978896E0
1.513909038E1,2.332927436E-1,-3.542001545E-2,1.081109405E0
1.515928058E1,3.771033287E-1,3.097254038E-1,1.076848388E0
1.517947142E1,4.554001987E-1,4.711128473E-1,1.046488404E0
1.519966277E1,5.725792050E-1,2.623211741E-1,1.018258929E0
1.521985444E1,8.474172354E-1,-1.552621722E-1,9.985514879E-1
1.524004631E1,1.056208849E0,-7.693866491E-1,8.574040532E-1
1.526024902E1,1.014130950E0,-1.598161817E0,4.115912318E-1
1.528042704E1,8.628635406E-1,-2.025332451E0,-2.595248520E-1
1.530060538E1,7.547392845E-1,-1.619999647E0,-7.756450772E-1
1.532078444E1,6.945518851E-1,-4.178496599E-1,-1.035036802E0
1.534096454E1,1.837579757E-1,1.296692133E0,-1.017992616E0
1.536114590E1,-7.499455810E-1,1.454883814E0,-1.036102057E0
1.538132871E1,-7.845667005E-1,3.518033028E-1,-1.036102057E0
1.540151319E1,-2.071937770E-1,1.021321535E0,-5.061333776E-1
1.542169933E1,-1.429051161E0,2.958769798E-1,7.550056279E-2
1.544188715E1,-1.250086904E0,-5.174518228E-1,-6.032055244E-2
1.546207663E1,-6.721813679E-1,-2.106558830E-1,3.482080400E-1
1.548226756E1,1.677790284E-1,7.635276914E-1,5.543365479E-1
1.550245985E1,1.742238641E0,-6.202497482E-1,5.138565302E-1
1.552265319E1,2.095906258E0,-1.572595477E0,2.518016994E-1
1.554284735E1,1.348091125E0,-1.041028857E0,1.010668874E-1
1.556304204E1,9.837709665E-1,1.653821766E-1,1.308942735E-1
1.558323694E1,6.556697488E-1,1.312671065E0,1.143826842E-1
1.560343110E1,-0.000000000E0,1.671664953E0,1.825595498E-1
1.562361881E1,-2.269011587E-1,1.089498401E0,1.596563905E-1
1.564380110E1,5.858949851E-3,8.066709042E-1,1.916143000E-1
1.566398381E1,-3.233075142E-1,7.012097836E-1,4.281028211E-1
1.568416715E1,-6.998782158E-1,-2.516685426E-1,4.078628123E-1
1.570435121E1,-4.032022953E-1,-1.416001678E0,4.419512451E-1
1.572453610E1,1.486042738E-1,-1.888446093E0,4.526038766E-1
1.574472194E1,3.089264631E-1,-1.754222870E0,2.960101366E-1
1.576490871E1,2.817622423E-1,-6.937529445E-1,1.287637353E-1
1.578509642E1,2.338253707E-1,1.225852132E0,-9.227846563E-2
1.580528506E1,-4.569981098E-1,1.001614094E0,-5.013396740E-1
1.582547454E1,-6.775076985E-1,-1.279115319E0,-6.291713119E-1
1.584566475E1,-2.817622423E-1,-1.877260804E0,-3.447459340E-1
1.586585558E1,5.379581451E-2,-1.273256421E0,-1.109205782E-1
1.588604694E1,-4.697812796E-1,-7.358308434E-1,-2.818953991E-1
1.590623860E1,-1.208009005E0,-2.157158963E-2,-8.049398661E-1
1.592643038E1,-1.511609077E0,1.212003708E0,-1.296026349E0
1.594663298E1,-1.521196485E0,1.537441730E0,-1.531982303E0
1.596681058E1,-1.422127008E0,3.704454303E-1,-1.940510869E0
1.598698850E1,-1.056741476E0,-1.344895363E-1,-2.048102617E0
1.600716715E1,-8.900277615E-1,-7.856319100E-2,-1.005209446E0
1.602734683E1,-7.371624112E-1,1.014663652E-1,3.316964805E-1
1.604752788E1,-1.997369379E-1,1.893506050E-1,2.214416862E-1
1.606771048E1,1.225053221E-1,2.383527458E-1,-1.343563795E-1
1.608789475E1,2.146506310E-1,4.181159660E-2,-1.364869028E-1
1.610808079E1,3.371559381E-1,-8.122635633E-2,-7.057371549E-3
1.612826860E1,4.005391300E-1,1.131842583E-1,2.320943177E-1
1.614845808E1,3.105243444E-1,3.597927988E-1,4.824312627E-1
1.616864912E1,2.284990549E-1,4.500738904E-2,6.965492368E-1
1.618884152E1,2.141179889E-1,-3.443464637E-1,9.000146389E-1
1.620903506E1,2.641853690E-1,-3.523359597E-1,1.021987319E0
1.622922944E1,3.036001325E-1,-3.225085735E-1,1.011334658E0
1.624942433E1,3.067959249E-1,-4.934833944E-1,8.808398843E-1
1.626961944E1,4.836297035E-1,-5.137233734E-1,8.094671965E-1
1.628980912E1,9.614004493E-1,-2.324937880E-1,9.745830894E-1
1.630999892E1,1.324122667E0,-2.213085145E-1,1.266997933E0
1.633019954E1,1.304947972E0,-6.735129356E-1,1.425722241E0
1.635037788E1,1.193095326E0,-1.175784707E0,1.170058966E0
1.637055652E1,1.211204767E0,-1.427719593E0,4.403533638E-1
1.639073590E1,9.502151608E-1,-1.607216477E0,-3.873564899E-1
1.641091621E1,4.980107546E-1,-1.406414270E0,-1.018525243E0
1.643109777E1,3.696464896E-1,-5.653886795E-1,-1.385508537E0
1.645128079E1,5.305013061E-1,1.254081607E0,-1.477653861E0
1.647146538E1,-8.149266988E-2,1.753157616E0,-1.332245350E0
1.649165162E1,-1.217596292E0,-7.536740601E-2,-1.048885226E0
1.651183954E1,-2.340384245E0,-2.729738057E-1,-7.735145688E-1
1.653202902E1,-3.347058296E0,-3.773696423E-1,-7.420892715E-1
1.655221996E1,-1.444497466E0,4.647212625E-1,-1.130511016E-1
1.657241215E1,1.308143735E0,1.093226790E0,7.908250690E-1
1.659260538E1,1.555817604E0,-3.651190996E-1,7.215829492E-1
1.661279933E1,9.773793817E-1,-1.804822922E0,-1.833585054E-1
1.663299381E1,1.342232227E0,-1.536909103E0,-4.274370521E-2
1.665318850E1,1.255945802E0,-6.410223842E-1,3.705785871E-1
1.667338194E1,1.204280496E0,1.158474237E-1,2.438122183E-1
1.669356965E1,1.104145765E0,7.784414291E-1,3.395527974E-2
1.671375194E1,5.784381628E-1,8.956204057E-1,8.029424399E-2
1.673393465E1,1.960085034E-1,8.902940750E-1,1.308942735E-1
1.675411788E1,1.459411234E-1,1.204014182E0,2.640522122E-1
1.677430183E1,-2.822948620E-2,9.499488473E-1,5.532712936E-1
1.679448662E1,1.171789970E-2,2.069274634E-1,7.141261101E-1
1.681467235E1,3.936149180E-1,-5.246423557E-2,7.583345771E-1
1.683485902E1,4.330296814E-1,-3.203780353E-1,5.873597264E-1
1.685504662E1,-5.219791830E-2,-5.994771123E-1,3.471427858E-1
1.687523517E1,-3.296990991E-1,-3.278348744E-1,2.150501013E-1
1.689542465E1,-2.620548606E-1,1.411474310E-2,1.612542868E-1
1.691561496E1,5.592634156E-2,-1.856221855E-1,1.404816359E-1
1.693580590E1,2.743053734E-1,-3.944138587E-1,1.521995366E-1
1.695599735E1,-2.838927507E-1,-1.130511045E0,1.484711170E-1
1.697618912E1,-4.873581231E-1,-1.821334481E0,1.921469271E-1
1.699638100E1,-6.125265956E-1,-1.828258753E0,-2.707101107E-1
1.701658371E1,-1.265533209E0,-1.459677458E0,-9.769799113E-1
1.703676142E1,-1.596830249E0,-5.041360259E-1,-1.761013985E0
1.705693944E1,-9.795098901E-1,9.531446695E-1,-2.078995228E0
1.707711819E1,-2.221074700E-1,3.864243925E-1,-1.380182147E0
1.709729798E1,3.312969804E-1,-1.131576300E0,-4.081291258E-1
1.711747913E1,5.480781198E-1,-1.281778455E0,-1.492700726E-1
1.713766183E1,7.382277250E-1,-4.199801981E-1,-2.270343155E-1
1.715784621E1,1.088166833E0,5.126581192E-1,-3.809649050E-1
1.717803235E1,1.116928935E0,9.254477620E-1,-4.826975763E-1
1.719822027E1,1.025316238E0,-2.021337748E-1,-4.981439114E-1
1.721840985E1,9.645962119E-1,-1.439970136E0,-6.298371404E-2
1.723860100E1,7.323687673E-1,-1.476189137E0,5.239765644E-1
1.725879350E1,4.287686050E-1,-1.427186966E0,7.689871788E-1
1.727898704E1,1.981390417E-1,-1.713742852E0,6.960166097E-1
1.729918142E1,1.597895473E-1,-1.753690243E0,5.985450149E-1
1.731937631E1,3.051980436E-1,-1.289767981E0,5.612607598E-1
1.733957142E1,5.619265437E-1,-6.873613596E-1,5.591302514E-1
1.735976538E1,8.538088202E-1,-4.024033546E-1,6.379597783E-1
1.737995308E1,1.147821546E0,-5.978792310E-1,7.897598147E-1
1.740013538E1,1.254347920E0,-1.419730067E0,8.451535702E-1
1.742031808E1,9.938910007E-1,-2.209090471E0,5.708481669E-1
1.744050131E1,6.977476925E-2,-1.783517599E0,-4.113249183E-1
1.746068527E1,-5.917539597E-1,-4.988096952E-1,-1.465403318E0
1.748087006E1,-6.530066133E-1,3.475422561E-1,-1.408944368E0
1.750105579E1,-1.449823856E0,8.524772525E-1,-8.832367063E-1
1.752124246E1,-1.310806870E0,1.542235494E0,-1.087767363E0
1.754143006E1,-6.040045023E-1,3.352917433E-1,-7.655251026E-1
1.756161860E1,-1.977129340E0,-2.952644587E0,-2.797648609E-1
1.758180808E1,-9.139962196E-1,-1.585911274E0,-2.099900991E-1
1.760199829E1,1.250619531E0,-1.215199471E0,-3.953459561E-1
1.762218913E1,2.190714598E0,-7.044056058E-1,-2.483395934E-1
1.764238048E1,2.569948435E0,6.037381887E-1,-6.458161026E-2
1.766257215E1,1.764076591E0,5.137233734E-1,1.660479754E-1
1.768276402E1,1.151017308E0,5.142560005E-1,2.145174593E-1
1.770296673E1,1.134505749E0,8.194540739E-1,3.450122476E-1
1.772314475E1,7.920235395E-1,7.805719376E-1,8.014777303E-1
1.774332308E1,5.566002727E-1,1.132641554E0,8.771114349E-1
1.776350215E1,4.149201810E-1,1.267397404E0,8.291745782E-1
1.778368225E1,2.205095738E-1,6.511424184E-1,9.399620295E-1
1.780386360E1,2.055958807E-1,-5.552686453E-1,8.925577998E-1
1.782404642E1,7.323687673E-1,-1.507081747E0,8.851009011E-1
1.784423090E1,1.531316519E0,-1.861281872E0,1.067260981E0
1.786441704E1,2.120939970E0,-1.678589225E0,1.099218965E0
1.788460485E1,2.413887501E0,-6.175866127E-1,7.881619334E-1
1.790479433E1,1.891908169E0,7.795066833E-1,4.872249663E-1
1.792498527E1,3.046653867E-1,4.476770461E-1,3.748396337E-1
1.794517746E1,-4.532696903E-1,-3.619233072E-1,3.045322299E-1
1.796537069E1,-4.261054471E-2,-7.688540220E-1,1.218395308E-1
1.798556475E1,3.515369892E-1,-1.480450153E0,-2.611227632E-1
1.800575933E1,3.648527861E-1,-1.556083918E0,-4.709796906E-1
1.802595413E1,-1.384842694E-1,-1.730787158E0,-6.824344993E-1
1.804614871E1,-7.520761490E-1,-2.288452625E0,-1.132508397E0
1.806633642E1,-1.226118445E0,-2.662360191E0,-1.329582214E0
1.808651871E1,-1.659148097E0,-2.422143221E0,-1.367931724E0
1.810670142E1,-2.048501968E0,-1.555551291E0,-1.293895841E0
1.812688465E1,-2.241314650E0,-1.198421605E-2,-1.170325279E0
1.814706860E1,-2.338253736E0,1.272723794E0,-1.133041024E0
1.816725340E1,-2.032522917E0,1.103879452E0,-1.339702129E0
1.818743912E1,-1.041827798E0,-2.378201038E-1,-1.461142182E0
1.820762579E1,1.800295562E-1,-2.036517859E0,-1.194293737E0
1.822781340E1,8.655267358E-1,-3.019223452E0,-6.952176690E-1
1.824800194E1,1.055676222E0,-2.656501293E0,-7.633945346E-1
1.826819142E1,9.741836190E-1,-2.502038002E0,-1.644367576E0
1.828838162E1,6.620613337E-1,-2.214416742E0,-2.056624651E0
1.830857246E1,4.378233552E-1,-1.544898629E0,-1.623594999E0
1.832876381E1,4.159854650E-1,-9.472857118E-1,-1.096822023E0
1.834895548E1,6.125265956E-1,-9.068056941E-1,-9.040093422E-1
1.836914735E1,8.229161501E-1,-9.313067198E-1,-8.358324766E-1
1.838935006E1,9.012130499E-1,-9.813741446E-1,-7.085334659E-1
1.840952808E1,9.022783041E-1,-9.739173055E-1,-5.498092175E-1
1.842970642E1,8.277098536E-1,-7.118624449E-1,-3.367564678E-1
1.844988548E1,7.371624112E-1,-6.048034430E-1,-5.552686751E-2
1.847006558E1,6.428865790E-1,-5.259739161E-1,1.852227151E-1
1.849024694E1,6.045371294E-1,-4.700475931E-1,4.185154438E-1
1.851042975E1,5.629918575E-1,-6.532729268E-1,6.177197695E-1
1.853061423E1,4.271707237E-1,-1.155544758E0,7.130608559E-1
1.855080038E1,2.972085476E-1,-1.393631101E0,6.874945164E-1
1.857098819E1,4.862928391E-1,-1.062334180E0,4.978775978E-1
1.859117767E1,6.844319105E-1,-5.808349848E-1,5.809681416E-1
1.861136860E1,5.837644935E-1,-5.366265774E-1,7.290397882E-1
1.863156079E1,4.926844239E-1,5.174518228E-1,2.017343044E-1
1.865175402E1,4.607265294E-1,2.323073626E0,-6.408892274E-1
1.867194808E1,-1.272990108E-1,2.818421364E0,-1.015861988E0
1.869214267E1,-5.970802903E-1,1.647163868E0,-8.805735707E-1
1.871233746E1,3.286338449E-1,-1.781653464E-1,-8.576703668E-1
1.873253194E1,8.942888379E-1,-1.412273288E0,-1.344895363E-2
1.875271965E1,5.182507634E-1,-9.520793557E-1,9.117324948E-1
1.877290194E1,1.443432271E-1,-7.880287766E-1,1.311206341E0
1.879308465E1,-2.359558940E-1,-1.308942676E0,1.217463136E0
1.881326788E1,-2.348906398E-1,-1.352618456E0,7.162566185E-1
1.883345183E1,8.820382953E-1,-9.451551437E-1,5.206476152E-2
1.885363662E1,2.837329626E0,-4.913528562E-1,-1.386174262E-1
1.887382235E1,2.519348621E0,-1.052214146E0,1.735048145E-1
1.889400902E1,7.174550891E-1,-1.727058649E0,4.073301852E-1
1.891419663E1,6.918887496E-1,-6.282392144E-1,2.912164330E-1
1.893438517E1,1.030642629E0,7.483477145E-2,1.633848101E-1
1.895457454E1,9.395625591E-1,2.292979956E-1,2.033322006E-1
1.897476475E1,8.617982864E-1,2.005358785E-1,1.671132296E-1
1.899495558E1,8.191877604E-1,-1.046621501E-1,2.070606202E-1
1.901514694E1,6.418213248E-1,-3.560643792E-1,3.993407190E-1
1.903533860E1,4.985433817E-1,-4.434159994E-1,5.575323701E-1
1.905553048E1,4.836297035E-1,-5.536707640E-1,5.378249884E-1
1.907573319E1,5.470128655E-1,-4.625907242E-1,3.998733461E-1
1.909591121E1,7.323687673E-1,-9.081372619E-2,3.487406969E-1
1.911608954E1,9.022783041E-1,-9.667267650E-2,3.892207146E-1
1.913626860E1,8.841688037E-1,-4.828307331E-1,4.105259776E-1
1.915644871E1,7.579351068E-1,-6.926876903E-1,4.051996469E-1
1.917663006E1,5.912213326E-1,-6.474139690E-1,3.892207146E-1
1.919681288E1,3.856254518E-1,-5.344960093E-1,4.030691385E-1
1.921699735E1,1.885516644E-1,-3.613906801E-1,4.318312407E-1
1.923718350E1,1.033305749E-1,-1.051947847E-1,4.147870243E-1
1.925737131E1,2.972085476E-1,4.082622826E-1,3.492733240E-1
1.927756079E1,6.444845200E-1,9.440898895E-1,2.747048736E-1
1.929775173E1,5.251749754E-1,6.016076207E-1,2.480732650E-1
1.931794392E1,1.560611278E-1,-7.251782417E-1,9.520793706E-2
1.933813715E1,1.107874215E-1,-1.956090331E0,-1.061268896E-1
1.935833121E1,2.258358896E-1,-2.453035831E0,-5.354281664E-1
1.937852579E1,2.838927507E-1,-2.365151644E0,-1.264068484E0
1.939872058E1,4.314317927E-2,-1.642902851E0,-1.731719255E0
1.941891517E1,-8.010782599E-1,-1.112401605E0,-1.435043335E0
1.943910288E1,-1.724129200E0,-1.177915215E0,-8.454198837E-1
1.945928517E1,-1.756619692E0,-2.713759243E-1,-8.246471882E-1
1.947946788E1,-1.651158690E0,4.966791868E-1,-1.097887397E0
1.949965110E1,-1.511609077E0,1.611211300E-1,-1.214001060E0
1.951983506E1,-1.063665748E0,-4.455465078E-1,-1.080310464E0
1.954001985E1,-1.619200706E-1,-1.085770011E0,-7.223818898E-1
1.956020558E1,2.801643312E-1,-1.800561905E0,-3.852259517E-1
1.958039225E1,1.661811322E-1,-1.820269227E0,-4.294344187E-1
1.960057985E1,2.247706354E-1,-1.501755476E0,-7.777756453E-1
1.962076840E1,3.211769760E-1,-1.601890206E0,-1.017992616E0
1.964095777E1,3.312969804E-1,-1.672730207E0,-1.103213668E0
1.966114798E1,3.510043621E-1,-1.403218508E0,-1.028112531E0
1.968133881E1,3.882885873E-1,-1.226917386E0,-8.448871970E-1
1.970153017E1,4.990760088E-1,-1.508679628E0,-7.735145688E-1
1.972172183E1,6.002760530E-1,-1.616271257E0,-8.187882900E-1
1.974191371E1,5.709813237E-1,-1.053812027E0,-8.321040869E-1
1.976211642E1,5.257076025E-1,-5.573992133E-1,-7.340998054E-1
1.978229454E1,5.022718310E-1,-5.020055175E-1,-5.157207847E-1
1.980247298E1,4.591286182E-1,-6.261087060E-1,-2.813627720E-1
1.982265215E1,4.143875539E-1,-7.480813861E-1,-1.210405827E-1
1.984283235E1,3.637875319E-1,-7.853656411E-1,-9.121319652E-2
1.986301381E1,3.057306707E-1,-1.029843569E0,-1.173121557E-1
1.988319673E1,2.604569495E-1,-1.433578491E0,-8.482161909E-2
1.990338121E1,2.737727463E-1,-1.561942816E0,9.986846708E-3
1.992356735E1,3.909517527E-1,-1.298822641E0,9.680583328E-2
1.994375517E1,7.664572001E-1,-6.841655970E-1,1.516669095E-1
1.996394454E1,9.560741186E-1,-5.009402037E-1,2.651174963E-1
1.998413538E1,6.796382070E-1,-7.368960977E-1,1.117195264E-1
2.000432746E1,3.781685829E-1,-6.724476814E-1,-2.009353489E-1
2.002452058E1,3.643201590E-1,-2.218411565E-1,-4.022701681E-1
2.004471454E1,3.323622644E-1,4.926844314E-2,-5.423523784E-1
2.006490902E1,4.000065029E-1,-1.589905918E-1,-4.155859649E-1
2.008510371E1,8.074698448E-1,-1.366200596E-1,-1.961416751E-1
2.010529829E1,1.021587849E0,3.613906801E-1,-1.599227041E-1
2.012548610E1,5.406212807E-1,6.271739602E-1,-1.061268896E-1
2.014567381E1,-5.384907722E-1,2.921485603E-1,-3.612575233E-1
2.016585610E1,-1.459411234E-1,5.488771200E-1,-5.029376149E-1
2.018603881E1,6.902908683E-1,3.597927988E-1,1.324921697E-1
2.020622204E1,4.660528302E-1,-7.645930052E-1,1.002279878E0
2.022640600E1,7.456845604E-3,-1.643435478E0,1.428918004E0
2.024659079E1,-9.374319762E-2,-2.533463240E0,1.144492626E0
2.026677652E1,3.510043621E-1,-2.161153555E0,4.888228476E-1
2.028696319E1,1.324122667E0,-5.299686641E-2,2.862896025E-2
2.030715079E1,2.213085175E0,9.174582958E-1,1.904158667E-2
2.032733933E1,1.520131230E0,-5.930855274E-1,2.171806246E-1
2.034752871E1,6.189181805E-1,-1.593368053E0,-3.848264739E-2
2.036771892E1,8.175898194E-1,-4.519380927E-1,-2.243711501E-1
2.038790975E1,9.209204316E-1,3.251717389E-1,1.292963773E-1
2.040810110E1,7.488803267E-1,2.050632425E-2,3.359575272E-1
2.042829277E1,6.317013502E-1,-4.950812757E-1,1.964079887E-1
2.044848465E1,6.157223582E-1,-8.077361584E-1,1.868206114E-1
2.046868735E1,6.226465702E-1,-7.645930052E-1,2.832269669E-1
2.048886538E1,4.442149401E-1,-6.064013243E-1,2.448774725E-1
2.050904371E1,9.640636295E-2,-2.447443157E-1,1.149153188E-1
2.052922277E1,-1.390169114E-1,2.990727723E-1,-2.303632535E-2
2.054940288E1,-3.557980657E-1,4.471444190E-1,-2.339585274E-1
2.056958423E1,-5.518065691E-1,9.454214573E-2,-4.289017618E-1
2.058976704E1,-7.318361402E-1,-3.933486044E-1,-5.290365815E-1
2.060995152E1,-9.374319911E-1,-3.869570196E-1,-5.322323442E-1
2.063013767E1,-7.249119282E-1,-6.207823753E-1,-4.065312445E-1
2.065032548E1,-1.304948032E-1,-1.143826842E0,-3.436806798E-1
2.067051496E1,2.641853690E-1,-1.431447983E0,-3.085269928E-1
2.069070590E1,2.423474789E-1,-1.429850101E0,-3.239732981E-1
2.071089808E1,-1.257011145E-1,-1.160871029E0,-3.516701460E-1
2.073109131E1,-2.226400971E-1,-4.945486486E-1,-3.857586086E-1
2.075128538E1,-2.364885211E-1,2.756369710E-1,-3.980091214E-1
2.077147996E1,-4.697812796E-1,6.303697824E-1,-3.601922691E-1
2.079167475E1,-5.619265437E-1,2.660495937E-1,-4.406196773E-1
2.081186923E1,-6.833665967E-1,-7.912245989E-1,-7.111966610E-1
2.083205694E1,-1.181910038E0,-1.631184936E0,-1.125051618E0
2.085223923E1,-1.684714437E0,-1.163001537E0,-1.491502285E0
2.087242194E1,-1.740108132E0,1.272723794E0,-1.845702410E0
2.089260517E1,-1.409343839E0,2.787528515E0,-1.349289536E0
2.091278912E1,-1.155278444E0,1.126782656E0,-3.085269928E-1
2.093297392E1,-7.712509036E-1,1.366200596E-1,1.862879843E-1
2.095315965E1,-3.131875098E-1,1.266864777E0,2.763027549E-1
2.097334631E1,-7.882951200E-2,1.592835426E0,-5.992108025E-3
2.099353392E1,8.255793154E-2,6.468813419E-1,-3.346259296E-1
2.101372246E1,4.021370113E-1,-5.861613154E-1,-3.261038363E-1
2.103391183E1,5.848297477E-1,-9.914941192E-1,6.258423906E-3
2.105410204E1,4.836297035E-1,-5.781718493E-1,4.398207366E-1
2.107429288E1,2.668485343E-1,-3.395527899E-1,7.258440256E-1
2.109448423E1,1.384842694E-1,-4.705802202E-1,7.364966273E-1
2.111467590E1,2.029327303E-1,-1.984053552E-1,5.836313367E-1
2.113486777E1,3.110569715E-1,2.756369710E-1,5.511407852E-1
2.115507048E1,2.828274965E-1,7.283740044E-1,6.864292622E-1
2.117524850E1,1.480716467E-1,9.430246353E-1,9.101346135E-1
2.119542683E1,2.583264410E-1,8.849677444E-1,1.216397882E0
2.121560590E1,5.155876279E-1,5.669865608E-1,1.473126411E0
2.123578600E1,5.022718310E-1,3.542001545E-2,1.380448580E0
2.125596735E1,4.617917836E-1,1.510011256E-1,7.556713820E-1
2.127615017E1,5.512739420E-1,3.214432895E-1,-2.263685223E-3
2.129633465E1,5.592634082E-1,3.619233072E-1,-3.000048697E-1
2.131652079E1,5.651223660E-1,3.608580530E-1,-5.199818015E-1
2.133670860E1,6.551371217E-1,-1.776327193E-1,-4.810996950E-1
2.135689808E1,8.351666927E-1,-7.294392586E-1,-1.854890287E-1
2.137708902E1,9.688572884E-1,-1.042626739E0,1.031974182E-1
2.139728121E1,6.146571040E-1,-1.112401605E0,-9.187898599E-3
2.141747444E1,-4.495412707E-1,-2.399506420E-1,-8.539419770E-1
2.143766850E1,-1.032773137E0,4.332959950E-1,-1.227849483E0
2.145786308E1,-1.220792174E0,-9.126646519E-1,-8.070703745E-1
2.147805788E1,-2.069807291E0,1.068725705E0,-1.185105834E-2
2.149825235E1,-1.200019479E0,1.465536475E0,4.099933505E-1
2.151844006E1,8.570045829E-1,-1.172056317E0,4.946818054E-1
2.153862235E1,8.351666927E-1,7.323687524E-2,4.813660085E-1
2.155880506E1,1.016794205E0,9.819067717E-1,3.205111921E-1
2.157898829E1,8.910930157E-1,1.214134216E0,6.033387184E-1
2.159917225E1,7.797729969E-1,1.252483726E0,6.704503298E-1
2.161935704E1,8.165245652E-1,5.344960093E-1,7.711177468E-1
2.163954277E1,8.341014385E-1,-3.542001545E-2,7.253113985E-1
2.165972944E1,8.703203797E-1,-3.512706757E-1,6.006755233E-1
2.167991704E1,8.623309135E-1,-3.155843616E-1,5.175849795E-1
2.170010558E1,6.705834866E-1,-3.219759464E-1,5.564671159E-1
2.172029496E1,4.751075804E-1,-6.495444775E-1,4.765723348E-1
2.174048517E1,4.330296814E-1,-9.675257206E-1,2.033322006E-1
2.176067600E1,3.536675274E-1,-9.675257206E-1,-9.720530361E-3
2.178086735E1,5.592634156E-2,-5.355613232E-1,-1.924132407E-1
2.180105902E1,-6.498108506E-1,7.004108280E-2,-4.225101769E-1
2.182125090E1,-9.997498989E-1,3.789675534E-1,-4.816323221E-1
2.184145360E1,-9.155941010E-1,-2.751043439E-1,-3.697796464E-1
2.186163152E1,-7.286403179E-1,-1.021321535E0,-2.936132848E-1
2.188180975E1,-2.668485343E-1,-1.216797352E0,-2.004027218E-1
2.190198871E1,3.291664720E-1,-4.087949097E-1,-2.410159074E-2
2.192216871E1,8.788424730E-2,-2.037316710E-1,1.464737463E-3
2.194234996E1,-6.748445034E-1,-9.898962379E-1,-2.840259075E-1
2.196253277E1,-4.186486006E-1,-9.563404322E-1,-5.423523784E-1
2.198271725E1,-3.680485785E-1,-9.105340838E-1,-4.928175807E-1
2.200290340E1,-8.010782599E-1,-1.230645776E0,-5.498092175E-1
2.202309121E1,-1.530783892E0,-1.057007790E0,-7.575356364E-1
2.204328069E1,-2.284457922E0,-4.295675755E-1,-1.105344176E0
2.206347163E1,-2.390984297E0,1.134772062E0,-1.385508537E0
2.208366392E1,-1.521729112E0,2.794985533E0,-1.542634964E0
2.210385725E1,-6.578003168E-1,8.114646077E-1,-1.261405349E0
2.212405142E1,-5.629918575E-1,-2.229064107E-1,-5.199818015E-1
2.214424610E1,-4.671181142E-1,1.237570047E0,-1.002679393E-1
2.216444100E1,-1.981390417E-1,1.969406128E0,-1.471395344E-1
2.218463527E1,6.977476925E-2,1.418132186E0,-5.233107507E-2
2.220482298E1,3.169159293E-1,2.735064328E-1,1.250353158E-1
2.222500527E1,5.672528744E-1,-5.217128396E-1,2.182458937E-1
2.224518798E1,5.528718233E-1,-4.194475710E-1,5.277049541E-1
2.226537121E1,4.378233552E-1,-2.063948363E-1,7.977492809E-1
2.228555517E1,3.281011879E-1,-2.612559199E-1,8.872314692E-1
2.230573996E1,2.061285079E-1,-4.769718051E-1,8.978840709E-1
2.232592569E1,2.146506310E-1,-3.406180441E-1,8.973514438E-1
2.234611235E1,3.307643533E-1,1.411474310E-2,9.245156646E-1
2.236629996E1,4.426170290E-1,2.420811653E-1,1.015063047E0
2.238648850E1,7.068024278E-1,2.719085515E-1,1.166863203E0
2.240667788E1,1.109472036E0,-8.708529919E-2,1.292564273E0
2.242686808E1,1.137168884E0,-9.158604145E-1,1.256345272E0
2.244705892E1,1.258608937E0,-9.014793634E-1,8.803072572E-1
2.246725027E1,1.677257657E0,-7.432876825E-1,2.512690723E-1
2.248744194E1,1.785914540E0,-1.101216316E0,-3.910849094E-1
2.250763381E1,1.508945942E0,-8.423572183E-1,-1.003078818E0
2.252783652E1,6.780403256E-1,-5.403549671E-1,-1.341832757E0
2.254801444E1,-3.185138404E-1,-8.045403361E-1,-1.462740183E0
2.256819267E1,-7.456845641E-1,7.587340474E-1,-1.357811689E0
2.258837162E1,-2.821350813E0,4.519380927E-1,-7.884282470E-1
2.260855162E1,-2.524674892E0,5.376918316E-1,-4.320975542E-1
2.262873288E1,-3.542001545E-1,1.658881783E0,4.760396779E-1
2.264891558E1,8.271772265E-1,-9.845699072E-1,1.018258929E0
2.266909996E1,1.349689007E0,-2.523875952E0,5.617933869E-1
2.268928600E1,1.128114223E0,-2.059953451E0,-2.930806577E-1
2.270947381E1,1.347025871E0,-1.126782656E0,-1.984053478E-2
2.272966329E1,1.349156380E0,3.438138366E-1,2.230395675E-1
2.274985423E1,1.089232087E0,9.637972713E-1,1.010668874E-1
2.277004652E1,7.835013866E-1,1.354749084E0,5.685844645E-2
2.279023985E1,1.336905807E-1,8.029424548E-1,3.828291297E-1
2.281043402E1,-2.663159044E-3,4.918854833E-1,6.603302956E-1
2.283062871E1,3.696464896E-1,1.051148891E0,6.768419147E-1
2.285082360E1,1.624527127E-1,1.360874325E-1,5.250418186E-1
2.287101808E1,-8.096003532E-2,-1.148620486E0,4.190480709E-1
2.289120579E1,2.002695650E-1,-9.392961860E-1,4.978775978E-1
2.291138808E1,-1.581916511E-1,-7.163897902E-2,4.195807278E-1
2.293157079E1,-8.436887860E-1,1.818937659E-1,2.223737910E-2
2.295175402E1,-6.247771382E-1,1.499358565E-1,-2.462090552E-1
2.297193798E1,-1.688442826E-1,-1.856221855E-1,-2.957438231E-1
2.299212277E1,2.332927436E-1,-5.744433999E-1,-3.282343447E-1
2.301230850E1,3.392864764E-1,-1.242896318E0,-4.789691567E-1
2.303249517E1,1.496695429E-1,-1.778723955E0,-5.652555227E-1
2.305268277E1,-1.874863952E-1,-1.409077525E0,-4.885565341E-1
2.307287131E1,-5.187833905E-1,-5.520728827E-1,-4.544681013E-1
2.309306069E1,-7.014760971E-1,1.038632076E-2,-5.316997170E-1
2.311325079E1,-1.065263629E0,1.920137703E-1,-7.996135354E-1
2.313344152E1,-1.290566921E0,2.346243113E-1,-1.039297819E0
2.315363277E1,-1.551556468E0,1.293496370E0,-1.691771865E0
2.317382433E1,-6.998782158E-1,2.278332710E0,-2.383127928E0
2.319401610E1,-4.234423041E-1,7.033402920E-1,-1.145291567E0
2.321421871E1,-4.181159735E-1,-3.581948876E-1,4.568649530E-1
2.323439715E1,-7.882951200E-2,-3.480748832E-1,5.772397518E-1
2.325457590E1,1.347558498E-1,-6.697844863E-1,2.161153555E-1
2.327475527E1,1.395495385E-1,-8.679235578E-1,4.727107286E-2
2.329493558E1,2.545980215E-1,-6.170539856E-1,1.639174372E-1
2.331511715E1,4.484759867E-1,-4.396875799E-1,4.755070508E-1
2.333530017E1,4.404865205E-1,-3.214432895E-1,6.773745418E-1
2.335548475E1,2.924148738E-1,-2.583264373E-2,6.060018539E-1
2.337567100E1,1.661811322E-1,8.868319541E-2,5.282375813E-1
2.339585892E1,7.030740380E-2,-2.026664019E-1,5.815007687E-1
2.341604840E1,9.534109384E-2,-7.217161357E-2,6.688523889E-1
2.343623933E1,1.603221744E-1,2.596580088E-1,6.454166174E-1
2.345643152E1,1.736379713E-1,2.719085515E-1,6.150565743E-1
2.347662475E1,3.201117218E-1,1.099884734E-1,7.551387548E-1
2.349681871E1,6.311687231E-1,-2.476738021E-2,1.100816846E0
2.351701308E1,1.005608916E0,-2.660495937E-1,1.417200089E0
2.353720767E1,1.368331194E0,-4.641886353E-1,1.509878039E0
2.355740069E1,1.512141705E0,-6.383592486E-1,1.258475780E0
2.357758840E1,9.411604404E-1,-1.405881643E0,4.531365335E-1
2.359777069E1,2.780338228E-1,-1.849031329E0,-4.906870723E-1
2.361795340E1,1.406148076E-1,-1.135837317E0,-1.157009482E0
2.363813662E1,1.107874215E-1,8.130624890E-1,-1.316266418E0
2.365832058E1,-3.771033287E-1,3.186469793E0,-9.855020046E-1
2.367850538E1,-7.893603444E-1,3.596596479E0,-9.162598848E-1
2.369869110E1,-5.305013061E-1,1.694035530E0,-1.174586296E0
2.371887777E1,-1.356080651E0,-4.253064990E-1,-1.039830446E0
2.373906538E1,-2.944921255E0,-2.322008371E0,-6.392913461E-1
2.375925392E1,-1.023185730E0,6.399571300E-1,4.691154659E-1
2.377944329E1,6.119939685E-1,6.133255363E-1,8.893619776E-1
2.379963340E1,1.446095347E0,-1.213601589E0,5.532712936E-1
2.381982412E1,9.182572365E-1,-1.536376476E0,-9.440898895E-2
2.384001538E1,1.019989967E0,-1.847433448E0,-6.564687192E-2
2.386020694E1,1.411474347E0,-2.553969622E-1,3.801659644E-1
2.388039871E1,1.366733193E0,2.239716798E-1,4.142543972E-1
2.390060131E1,9.805752039E-1,3.257043660E-1,2.097237855E-1
2.392077954E1,5.012065172E-1,1.659148186E-1,5.259739235E-2
2.394095808E1,3.829622865E-1,3.416832983E-1,-4.593949392E-2
2.396113735E1,1.134505793E-1,8.647277355E-1,1.426121742E-1
2.398131767E1,-3.121222556E-1,7.693866491E-1,2.518016994E-1
2.400149923E1,-3.504717350E-1,1.430116445E-1,1.122521535E-1
2.402168225E1,-6.924213469E-2,-4.008054435E-1,1.900164038E-1
2.404186683E1,-2.556632832E-2,-7.656582594E-1,2.997385561E-1
2.406205308E1,-4.799012840E-1,-9.371656775E-1,2.869553864E-1
2.408224100E1,-4.293012619E-1,-1.327052236E0,1.191763729E-1
2.410243048E1,8.309056610E-2,-1.271125793E0,-1.221058443E-1
2.412262142E1,3.318296373E-1,-6.841655970E-1,-3.490070105E-1
2.414281360E1,-1.294295341E-1,-5.201149583E-1,-6.158555150E-1
2.416300683E1,-6.940192580E-1,-8.578035235E-1,-6.797713637E-1
2.418320079E1,-8.277098536E-1,-5.584644675E-1,-4.544681013E-1
2.420339517E1,-8.394277692E-1,-7.270424068E-2,-3.117227852E-1
2.422358975E1,-1.338503718E0,-1.387505829E-1,-5.471460223E-1
2.424378298E1,-1.745434523E0,-3.017359376E-1,-1.033971548E0
2.426397079E1,-1.539838552E0,6.735129356E-1,-1.837712884E0
2.428415850E1,-1.026381493E0,8.119972348E-1,-2.143976212E0
2.430434610E1,-7.946866751E-1,-1.786979735E-1,-8.267777562E-1
2.432452829E1,-4.841623306E-1,-3.741738498E-1,4.488754570E-1
2.434471090E1,-3.568633273E-2,-2.250369489E-1,2.880206704E-1
2.436489413E1,2.599243224E-1,-2.798980176E-1,-2.025332451E-1
2.438507808E1,3.968107104E-1,-7.768434882E-1,-2.813627720E-1
2.440526288E1,4.958802164E-1,-7.347655892E-1,7.323687430E-3
2.442544860E1,5.661876202E-1,-2.490053773E-1,3.945470154E-1
2.444563527E1,4.783033729E-1,2.090579867E-1,6.518082023E-1
2.446582288E1,2.753706574E-1,4.071970284E-1,7.029408216E-1
2.448601142E1,1.608548164E-1,2.090579867E-1,5.852292180E-1
2.450620090E1,2.908169627E-1,1.893506050E-1,4.435491562E-1
2.452639110E1,5.171855092E-1,2.676474750E-1,3.018690944E-1
2.454658194E1,5.555350184E-1,2.442116886E-1,3.205111921E-1
2.456677329E1,4.974781275E-1,3.581948876E-1,4.984102249E-1
2.458696496E1,6.205160618E-1,5.808349848E-1,6.560692191E-1
2.460715683E1,9.353014827E-1,6.958834529E-1,9.543430805E-1
2.462735954E1,1.092960477E0,1.696432382E-1,1.187103152E0
2.464753746E1,1.266065836E0,-3.155843616E-1,1.162602067E0
2.466771569E1,1.563274384E0,-3.379548788E-1,8.275766969E-1
2.468789465E1,1.299621701E0,-9.339699149E-1,1.292963773E-1
2.470807465E1,5.123918056E-1,-1.257277369E0,-3.383543491E-1
2.472825600E1,7.350318879E-2,-9.614004195E-2,-5.625923872E-1
2.474843881E1,5.060002208E-2,1.029843569E0,-7.111966610E-1
2.476862329E1,3.115896285E-1,1.694035530E0,-6.558029056E-1
2.478880944E1,6.194508076E-1,1.963014603E0,-6.829671264E-1
2.480899725E1,8.282424808E-1,1.297757387E0,-8.278430104E-1
2.482918673E1,1.113200486E-1,-1.824263930E-1,-5.908218622E-1
2.484937767E1,-1.777925014E0,-1.940644026E0,-4.613923132E-1
2.486956996E1,-2.336123228E0,-1.218395233E0,-4.757733643E-1
2.488976329E1,-1.722531319E0,1.617869139E0,-1.402153224E-1
2.490995746E1,-3.904191256E-1,2.333726406E0,2.896185517E-1
2.493015215E1,9.230509400E-1,-7.163897902E-2,7.817703485E-1
2.495034704E1,2.204030514E0,-2.146772623E0,8.387619853E-1
2.497054152E1,2.589123249E0,-3.661577463E0,5.436839461E-1
2.499072923E1,2.368081093E0,-1.946503043E0,4.579302073E-1
2.501091152E1,1.154745817E0,1.145158429E-2,4.360923171E-1
2.503109423E1,2.817622423E-1,1.249820590E0,-2.004027218E-1
2.505127756E1,-1.416800618E-1,2.386989594E0,-6.424871087E-1
2.507146162E1,-6.801708341E-1,2.622945309E0,-1.609879732E-1
2.509164652E1,-8.910930157E-1,2.033854723E0,3.354249001E-1
2.511183235E1,-6.072002649E-1,1.413338542E0,4.451470375E-1
2.513201913E1,-6.173202991E-1,6.631266326E-2,5.330312848E-1
2.515220683E1,-8.282424808E-1,-8.498140574E-1,6.315681934E-1
2.517239548E1,-6.769750714E-1,-5.494097471E-1,7.705850601E-1
2.519258496E1,4.596612751E-1,1.204014182E0,1.154612660E0
2.521277517E1,2.300969511E-1,-5.510076284E-1,1.069924116E0
2.523296600E1,-9.022783041E-1,-1.429850101E0,7.439534664E-1
2.525315735E1,-1.454084873E0,-1.373391151E0,9.986846708E-3
2.527334902E1,-9.289098978E-1,-1.964079857E0,-3.527354300E-1
2.529354090E1,-4.591286182E-1,-6.591318846E-1,-2.030658871E-1
2.531374360E1,-7.813708782E-1,-5.584644675E-1,-2.733732760E-1
2.533392142E1,-1.388038516E0,-1.108140469E0,-8.576703668E-1
2.535409954E1,-1.680453420E0,-1.397892237E0,-1.774862409E0
2.537427840E1,-1.375255346E0,-3.656517565E-1,-2.689923763E0
2.539445829E1,-2.061285079E-1,9.563404322E-1,-2.978610277E0
2.541463954E1,3.350254297E-1,-1.091895252E-2,-1.618801236E0
2.543482235E1,4.101265073E-1,-2.468748540E-1,-1.625858694E-1
2.545500683E1,7.126613855E-1,1.792306006E-1,-1.291632187E-2
2.547519308E1,1.210139513E0,1.765674502E-1,-1.897500902E-1
2.549538110E1,1.555284858E0,8.788425475E-3,-1.769669205E-1
2.551557079E1,1.631451249E0,-5.984118581E-1,-8.109319210E-2
2.553576194E1,1.620265961E0,-1.490570188E0,1.623195410E-1
2.555595444E1,1.377385855E0,-1.532115459E0,5.628587008E-1
2.557614798E1,1.009337306E0,-1.227982640E0,7.663240433E-1
2.559634235E1,6.647245288E-1,-1.058073163E0,8.121303916E-1
2.561653725E1,4.878907502E-1,-1.114532113E0,8.451535702E-1
2.563673235E1,5.539370775E-1,-1.364868999E0,9.101346135E-1
2.565692610E1,7.286403179E-1,-1.864477634E0,9.111998677E-1
2.567711392E1,8.468846083E-1,-2.147305250E0,7.615303397E-1
2.569730162E1,8.729835749E-1,-1.843705058E0,4.797681272E-1
2.571748392E1,7.978824377E-1,-1.384576440E0,1.292963773E-1
2.573766663E1,4.729770422E-1,-1.106542587E0,-1.854890287E-1
2.575784996E1,-1.518000662E-1,-7.677887678E-1,-5.087965727E-1
2.577803402E1,-6.173202991E-1,2.484727502E-1,-7.878956199E-1
2.579821892E1,-7.307708859E-1,1.605085969E0,-8.289082646E-1
2.581840475E1,-9.214530587E-1,2.121206284E0,-7.463503480E-1
2.583859152E1,-1.264467955E0,9.046751261E-1,-8.789756894E-1
2.585877923E1,-1.468998551E0,-5.973466039E-1,-1.256611586E0
2.587896788E1,-1.031707883E0,-1.798431396E0,-1.221457958E0
2.589915735E1,-2.089514732E0,9.616667628E-1,-5.274386406E-1
2.591934756E1,-1.529186010E0,3.531082630E0,-3.090596199E-1
2.593953840E1,9.640635848E-1,8.103992939E-1,-1.322258562E-1
2.595972975E1,1.423724890E0,-2.987798214E0,1.117328405E0
2.597992142E1,2.141712666E0,-2.918023348E0,1.676059127E0
2.600011329E1,2.384060144E0,-5.323655009E-1,1.001747251E0
2.602031600E1,1.139832139E0,3.629885912E-1,6.054692268E-1
2.604049433E1,1.142495275E0,1.126516312E-1,5.234439373E-1
2.606067298E1,1.526522756E0,-7.246456146E-1,4.201133549E-1
2.608085235E1,1.679920793E0,-1.475656509E0,2.512690723E-1
2.610103267E1,1.725194454E0,-1.305746913E0,2.518016994E-1
2.612121423E1,1.319861650E0,-9.366330504E-1,4.834965467E-1
2.614139725E1,8.745814562E-1,-7.044056058E-1,3.061301410E-1
2.616158183E1,7.723161578E-1,-5.254412889E-1,-1.103879437E-1
2.618176808E1,8.005456328E-1,-5.547360182E-1,-5.073318258E-2
2.620195600E1,1.296425819E0,-7.962846011E-2,3.114564717E-1
2.622214548E1,1.499358535E0,6.524740160E-2,5.724460483E-1
2.624233642E1,7.249119282E-1,-1.285506845E0,7.311703563E-1
2.626252860E1,6.082655191E-1,-1.070856333E0,6.640587449E-1
2.628272183E1,5.805686712E-1,-4.567317963E-1,7.087997794E-1
2.630291579E1,5.273054838E-1,-2.468748540E-1,6.486123800E-1
2.632311027E1,6.562023759E-1,5.885581672E-2,3.189133108E-1
2.634330496E1,7.430213690E-1,4.476770461E-1,1.628521830E-1
2.636349912E1,2.498043180E-1,2.884201407E-1,2.166479975E-1
2.638368694E1,-4.985433817E-1,-5.462139249E-1,1.197090000E-1
2.640386933E1,-7.259771824E-1,-1.251951098E0,-2.414153665E-1
2.642405215E1,-8.857667446E-1,-1.939578772E0,-6.323671341E-1
2.644423548E1,-1.084971070E0,-2.490319967E0,-1.136236787E0
2.646441954E1,-1.081242561E0,-2.300170422E0,-1.724794984E0
2.648460444E1,-1.079644680E0,-1.642902851E0,-2.066211939E0
2.650479027E1,-1.588840723E0,-8.546077609E-1,-1.819603443E0
2.652497704E1,-1.998434544E0,1.198421605E-2,-1.427586436E0
2.654516475E1,-1.782718658E0,8.082687855E-1,-1.275786400E0
2.656535340E1,-1.278316379E0,3.826959729E-1,-1.198022127E0
2.658554288E1,-5.006738901E-1,-9.946899414E-1,-9.317061901E-1
2.660573308E1,3.616569936E-1,-2.394446373E0,-6.888260841E-1
2.662592392E1,6.977477074E-1,-3.046920300E0,-5.998765826E-1
2.664611527E1,7.052045465E-1,-2.612292767E0,-6.243776679E-1
2.666630694E1,8.522109389E-1,-2.380597830E0,-9.066725373E-1
2.668649881E1,8.633961678E-1,-2.350237846E0,-1.302417994E0
2.670670152E1,7.142592669E-1,-1.898033500E0,-1.429184318E0
2.672687965E1,7.861645818E-1,-1.477254391E0,-1.224653721E0
2.674705808E1,1.035968900E0,-1.500690103E0,-9.636641145E-1
2.676723725E1,1.136636257E0,-1.434643865E0,-7.836345434E-1
2.678741746E1,1.064198375E0,-1.087367892E0,-6.813692451E-1
2.680759892E1,1.075916290E0,-9.089362025E-1,-5.769734383E-1
2.682778183E1,9.827057123E-1,-7.795066833E-1,-4.486091435E-1
2.684796642E1,7.142592669E-1,-8.135951161E-1,-2.930806577E-1
2.686815267E1,4.394212663E-1,-9.835046530E-1,-1.380847991E-1
2.688834058E1,3.467433155E-1,-1.124652147E0,-5.459476262E-3
2.690853006E1,4.026696682E-1,-9.867004752E-1,1.788311303E-1
2.692872100E1,4.953475893E-1,-8.050730228E-1,3.817638457E-1
2.694891319E1,5.725792050E-1,-5.808349848E-1,4.744417965E-1
2.696910642E1,6.647245288E-1,-5.286371112E-1,3.796333373E-1
2.698930048E1,6.364950538E-1,-5.994771123E-1,3.062632866E-3
2.700949506E1,5.874928832E-1,-5.941507816E-1,-4.065312445E-1
2.702968985E1,5.539370775E-1,-2.713759243E-1,-6.174534559E-1
2.704987923E1,8.293077350E-1,2.575274706E-1,-7.159903049E-1
2.707006871E1,9.012130499E-1,5.744433999E-1,-4.848281145E-1
2.709026902E1,-6.364950538E-1,-4.316980839E-1,-1.934785098E-1
2.711044808E1,-5.480781198E-1,-1.466069102E0,-3.639206886E-1
2.713062746E1,8.452867270E-1,1.467400640E-1,-1.199753210E-1
2.715080746E1,1.006674170E-1,4.732433856E-1,7.498124242E-1
2.717098840E1,-3.659180701E-1,3.624559641E-1,1.342631698E0
2.719117048E1,-6.008086801E-1,-8.237150908E-1,1.363936901E0
2.721135392E1,-1.992042959E-1,-2.104694605E0,7.375619411E-1
2.723153881E1,1.591503859E0,-9.542099237E-1,1.000016257E-1
2.725172527E1,2.731868505E0,4.055991173E-1,-6.657897611E-4
2.727191319E1,1.074851036E0,-8.498140574E-1,3.247722387E-1
2.729210256E1,8.447540402E-1,-1.694035530E0,4.660528619E-3
2.731229329E1,1.454084873E0,-1.197090030E0,-2.989396155E-1
2.733248517E1,1.438638568E0,-5.787044764E-1,-7.044056058E-2
2.735267798E1,1.262337446E0,-1.019989923E-1,-6.990792602E-2
2.737287152E1,1.163267851E0,-1.877527237E-1,-1.540637612E-1
2.739306548E1,1.113733172E0,-5.744433999E-1,-2.410159074E-2
2.741325965E1,1.089232087E0,-7.257108688E-1,1.852227151E-1
2.743345298E1,1.000282526E0,-7.315698266E-1,3.727091253E-1
2.745364079E1,8.538088202E-1,-5.089297295E-1,5.458144546E-1
2.747382319E1,6.743118763E-1,-1.802958697E-1,6.459492445E-1
2.749400600E1,5.986781716E-1,8.122635633E-2,6.241113544E-1
2.751418933E1,6.551371217E-1,3.648528084E-2,6.054692268E-1
2.753437340E1,7.275750637E-1,-3.406180441E-1,5.799028873E-1
2.755455829E1,8.586025238E-1,-5.909550190E-1,4.952144325E-1
2.757474413E1,9.166593552E-1,-5.531381369E-1,5.399554968E-1
2.759493090E1,7.888277173E-1,-4.822981060E-1,6.123934388E-1
2.761511860E1,6.562023759E-1,-5.760413408E-1,5.830987096E-1
2.763530725E1,7.403582335E-1,-6.127929091E-1,3.567301631E-1
2.765549673E1,7.456845641E-1,-1.025582552E0,-1.279647946E-1
2.767568694E1,5.432844758E-1,-1.686578631E0,-6.526071429E-1
2.769587777E1,3.153180480E-1,-2.106825113E0,-1.087767363E0
2.771606912E1,-7.510108501E-2,-2.270875692E0,-1.207609534E0
2.773626079E1,-5.209138989E-1,-1.724928141E0,-1.122388363E0
2.775645267E1,-1.310274243E0,-9.499488473E-1,-8.544746041E-1
2.777665538E1,-2.181127310E0,-4.008054435E-1,-6.803039908E-1
2.779683360E1,-2.084720850E0,8.402267098E-1,-7.676556110E-1
2.781701215E1,-1.722531319E0,1.437839627E0,-8.347672224E-1
2.783719142E1,-1.397093296E0,7.656582594E-1,-8.906935453E-1
2.785737173E1,-9.832383394E-1,-4.641886353E-1,-9.077377915E-1
2.787755329E1,-5.006738901E-1,-1.919338822E0,-6.547376513E-1
2.789773631E1,2.258358896E-1,-2.130793571E0,8.388951421E-3
2.791792090E1,5.645897388E-1,-1.070856333E0,6.644582003E-2
2.793810715E1,2.210422009E-1,-5.595297217E-1,-5.918871164E-1
2.795829506E1,-2.402169555E-1,-3.997401893E-1,-1.005209446E0
2.797848454E1,-2.737727463E-1,-6.277065873E-1,-9.231840968E-1
2.799867548E1,3.941475600E-2,-1.276984811E0,-5.993439555E-1
2.801886767E1,2.689790726E-1,-1.778191328E0,-2.824280262E-1
2.803906090E1,2.284990549E-1,-1.548627019E0,-1.364869028E-1
2.805925496E1,1.560611278E-1,-1.015462518E0,-7.896266878E-2
2.807944954E1,1.997369379E-1,-6.223802567E-1,-2.197106183E-2
2.809964433E1,3.158506751E-1,-5.968139768E-1,1.735048145E-1
2.811983860E1,4.202465117E-1,-7.352982163E-1,4.158523083E-1
2.814002642E1,5.022718310E-1,-8.258456588E-1,5.788376331E-1
2.816020881E1,2.865559161E-1,-1.103879452E0,4.861596823E-1
2.818039163E1,1.225053146E-2,-1.386174321E0,1.101216301E-1
2.820057496E1,4.207791388E-2,-1.186969995E0,-2.233058959E-1
2.822075902E1,3.265033066E-1,-5.408875942E-1,-3.340933025E-1
2.824094392E1,5.113265514E-1,-1.456748098E-1,-2.233058959E-1
2.826112975E1,4.474107325E-1,-4.205128253E-1,-7.576687634E-2
2.828131652E1,3.808317482E-1,-7.757782340E-1,-1.482048035E-1
2.830150423E1,5.587307811E-1,-5.360939503E-1,-4.054659605E-1
2.832169288E1,7.089329362E-1,2.743053809E-2,-6.387587190E-1
2.834188235E1,6.599308252E-1,5.832318589E-2,-7.032071352E-1
2.836207256E1,7.009434700E-1,1.169126853E-1,-5.849629045E-1
2.838226340E1,2.221074700E-1,4.130559862E-1,-4.656533599E-1
2.840245475E1,-8.335688114E-1,5.185170770E-1,-6.328997612E-1
2.842264642E1,-4.735096991E-1,1.152348995E0,-6.121271253E-1
2.844283829E1,1.986716688E-1,2.681801319E-1,6.271740049E-2
2.846304100E1,1.581916511E-1,-1.529984951E0,7.625955939E-1
2.848321923E1,2.482064217E-1,-3.106042385E0,7.780419588E-1
2.850339777E1,7.488803267E-1,-3.646663666E0,1.463405937E-1
2.852357704E1,1.439703822E0,-1.836248159E0,-2.387522161E-1
2.854375735E1,1.816274524E0,8.253130317E-1,-1.194426864E-1
2.856393892E1,1.765674472E0,1.491635442E0,-5.819002539E-2
2.858412194E1,9.166593552E-1,-3.006706536E-1,4.141212255E-2
2.860430652E1,6.775076985E-1,-7.986814380E-1,-6.671213359E-2
2.862449277E1,7.542066574E-1,7.909582555E-2,1.159805804E-1
2.864468069E1,7.387603521E-1,3.709780574E-1,3.498059511E-1
2.866487017E1,6.759097576E-1,2.103895694E-2,3.343596160E-1
2.868506110E1,5.550023317E-1,-3.976096511E-1,2.235722095E-1
2.870525329E1,5.289034247E-1,-5.904223919E-1,1.085237339E-1
2.872544652E1,5.800360441E-1,-3.795001805E-1,8.562056720E-2
2.874564058E1,5.523391962E-1,5.779055133E-2,7.922898233E-2
2.876583517E1,1.906821877E-1,2.138516754E-1,-5.073318258E-2
2.878602996E1,-2.226400971E-1,-1.408811212E-1,-2.158490419E-1
2.880622423E1,-2.024000883E-1,-4.636560082E-1,-2.478069514E-1
2.882641204E1,-1.976063997E-1,-8.242477179E-1,-1.961416751E-1
2.884659975E1,-5.757750273E-1,-1.212003708E0,-1.615206003E-1
2.886678204E1,-8.548740745E-1,-1.041028857E0,-1.982721984E-1
2.888696475E1,-6.428865790E-1,-6.181192398E-1,-2.866890728E-1
2.890714808E1,-3.834949136E-1,-9.334372878E-1,-3.261038363E-1
2.892733215E1,-9.214530140E-2,-1.419730067E0,-2.568616867E-1
2.894751704E1,1.832253486E-1,-1.641837597E0,-2.083922029E-1
2.896770288E1,4.836297035E-1,-1.774462938E0,-1.902827173E-1
2.898788965E1,-1.214400530E-1,-7.145255804E-1,-3.846933246E-1
2.900807735E1,-1.048752069E0,7.475487590E-1,-7.442198396E-1
2.902826600E1,-2.902843356E-1,4.482096732E-1,-3.324954212E-1
2.904845548E1,-5.757750273E-1,-4.364917874E-1,-1.897500902E-1
2.906864579E1,-9.374319911E-1,-1.360075355E0,-5.322323442E-1
2.908883673E1,-1.111070037E0,-1.321193218E0,-7.735145688E-1
2.910902819E1,-1.614407063E0,-9.321057238E-3,-1.313603282E0
2.912921996E1,-1.293230057E0,1.794702888E0,-1.912814021E0
2.914941194E1,-7.579351068E-1,1.240233183E0,-1.247556925E0
2.916961475E1,-5.326318145E-1,-1.664474458E-1,-1.242363751E-1
2.918979267E1,-1.960085034E-1,1.547295451E-1,3.045322299E-1
2.920997090E1,1.970737725E-1,1.409077525E0,1.271658540E-1
2.923014985E1,4.367581010E-1,1.382445931E0,-2.829606533E-1
2.925032985E1,6.327666044E-1,3.603254259E-1,-2.621880174E-1
2.927051121E1,8.080024719E-1,-6.916224360E-1,2.490053698E-2
2.929069412E1,6.551371217E-1,-7.427550554E-1,4.099933505E-1
2.931087871E1,3.552654386E-1,-3.278348744E-1,6.970819235E-1
2.933106496E1,2.370211631E-1,-1.185105816E-1,8.408924937E-1
2.935125288E1,2.695116997E-1,9.321057238E-3,7.562040091E-1
2.937144246E1,2.945453823E-1,2.261022031E-1,5.372923613E-1
2.939163350E1,3.398191035E-1,3.629885912E-1,4.840291739E-1
2.941182590E1,6.008086801E-1,5.206475854E-1,7.162566185E-1
2.943201933E1,9.262467623E-1,7.251782417E-1,1.203614712E0
2.945221360E1,9.683246613E-1,2.873548567E-1,1.543966532E0
2.947240840E1,1.096156240E0,-7.976161242E-1,1.381513834E0
2.949260340E1,1.327851176E0,-1.965145111E0,7.785745859E-1
2.951279767E1,1.425322771E0,-2.662360191E0,1.276984811E-1
2.953298548E1,1.346493244E0,-2.400305271E0,-3.889544010E-1
2.955317319E1,1.182975292E0,-1.061801553E0,-7.719166875E-1
2.957335548E1,8.372972012E-1,5.808349848E-1,-8.890956640E-1
2.959353819E1,3.584612012E-1,1.589639664E0,-8.060051203E-1
2.961372152E1,-2.093243003E-1,1.679654479E0,-6.350302696E-1
2.963390558E1,-3.595264852E-1,8.407593369E-1,-7.580682635E-1
2.965409048E1,-3.728422895E-2,-1.259674281E-1,-9.444893599E-1
2.967427631E1,-8.847014308E-1,-7.986814380E-1,-8.443545699E-1
2.969446308E1,-2.718552828E0,-2.889527678E-1,-7.170555592E-1
2.971465079E1,-1.663941860E0,1.479917526E0,-2.303632535E-2
2.973483944E1,-2.300969511E-1,9.195888638E-1,5.032039285E-1
2.975502892E1,1.244227886E0,-1.741972327E0,7.178545594E-1
2.977521913E1,2.373407364E0,-2.759299040E0,7.487471700E-1
2.979540996E1,2.093775749E0,-1.829324007E0,4.009386003E-1
2.981560131E1,9.427583218E-1,-8.498140574E-1,1.276984811E-1
2.983579298E1,6.348971128E-1,2.506032586E-1,-3.165164590E-1
2.985598485E1,4.932170510E-1,1.294561625E0,-6.462155581E-1
2.987618756E1,4.889560044E-1,1.675925970E0,-7.005439997E-1
2.989636600E1,5.352949500E-1,1.556083918E0,-5.588639379E-1
2.991654475E1,-1.491369121E-2,5.643234253E-1,-1.664474420E-2
2.993672412E1,-4.426170290E-1,4.269044101E-1,3.183806837E-1
2.995690444E1,-4.159854650E-1,2.628538013E-1,2.475406379E-1
2.997708600E1,-5.075981021E-1,-6.484792233E-1,2.528669536E-1
2.999726902E1,-5.384907722E-1,-5.968139768E-1,4.467449486E-1
3.001745360E1,-6.056023836E-1,1.861548275E-1,5.804355145E-1
3.003763985E1,-7.835013866E-1,-3.145190775E-1,4.776375890E-1
3.005782777E1,-7.605982423E-1,-1.559279680E0,1.410142779E-1
3.007801725E1,-3.872233331E-1,-1.844237685E0,-1.487374306E-1
3.009820819E1,8.575372398E-2,-1.371260643E0,-1.412805915E-1
3.011840038E1,2.801643312E-1,-9.179909229E-1,-1.119858399E-1
3.013859360E1,8.362319320E-2,-3.901528120E-1,-2.414153665E-1
3.015878756E1,-5.747097135E-1,5.036033988E-1,-6.025397182E-1
3.017898204E1,-1.164865732E0,1.349422693E0,-1.076582074E0
3.019917673E1,-9.811078310E-1,1.104412079E0,-1.117594719E0
3.021937100E1,-1.065796256E0,-4.631233811E-1,-9.982851744E-1
3.023955881E1,-1.144625783E0,-1.007473111E0,-1.378584266E0
3.025974121E1,-1.076981544E0,2.921485603E-1,-1.561277032E0
3.027992402E1,-9.363667369E-1,1.066595197E0,-7.325019240E-1
3.030010735E1,-7.131940126E-1,8.391614556E-1,7.763108611E-2
3.032029142E1,-2.977411747E-1,5.861613154E-1,1.319595277E-1
3.034047631E1,-3.355580568E-2,6.729803085E-1,5.313002318E-2
3.036066215E1,3.195790946E-2,1.334242672E-1,1.170458421E-1
3.038084892E1,1.070589945E-1,-6.905571818E-1,2.496711612E-1
3.040103663E1,1.842906028E-1,-8.609993458E-1,4.488754570E-1
3.042122527E1,1.912148297E-1,-4.993423223E-1,6.757766008E-1
3.044141475E1,1.379516423E-1,-1.179779470E-1,8.946883082E-1
3.046160496E1,1.416800618E-1,4.713791609E-2,1.020922065E0
3.048179579E1,2.929475009E-1,2.458095849E-1,9.745830894E-1
3.050198715E1,4.399538934E-1,3.645864725E-1,8.339682817E-1
3.052217881E1,4.340949357E-1,2.388853729E-1,7.407577038E-1
3.054237069E1,4.676507413E-1,1.169126853E-1,7.348987460E-1
3.056257340E1,8.181225061E-1,2.772348523E-1,9.111998677E-1
3.058275162E1,1.087101579E0,2.910832763E-1,1.019324183E0
3.060293017E1,1.165398479E0,-4.181159660E-2,7.556713820E-1
3.062310944E1,1.131842613E0,-4.956139028E-1,2.427469492E-1
3.064328975E1,9.251814485E-1,-1.005875230E0,-1.812279820E-1
3.066347131E1,7.616634965E-1,-1.104944706E0,-4.081291258E-1
3.068365433E1,5.379581451E-1,-3.049317300E-1,-6.877608299E-1
3.070383892E1,3.009369671E-1,1.028245687E0,-9.242493510E-1
3.072402517E1,1.757685095E-2,1.658881783E0,-1.058472633E0
3.074421308E1,-3.930822909E-1,1.349422693E0,-9.540767670E-1
3.076440256E1,-1.182442605E-1,1.320660591E0,-6.904240251E-1
3.078459350E1,-8.772445917E-1,7.448856235E-1,-2.062616795E-1
3.080478569E1,-1.976596713E0,1.472726911E-1,-3.575291038E-1
3.082497892E1,-2.303100109E0,5.270391703E-1,-4.997417927E-1
3.084517298E1,-1.651158690E0,1.033039451E0,2.464753687E-1
3.086536756E1,-1.826927215E-1,1.708416581E0,8.137282729E-1
3.088556235E1,1.310274243E0,-9.408941269E-1,9.111998677E-1
3.090575652E1,1.894038796E0,-1.782452345E0,4.499407411E-1
3.092594433E1,1.304947972E0,-8.599340916E-1,1.905490309E-1
3.094612673E1,1.032773137E0,-1.547295451E-1,1.964079887E-1
3.096630954E1,8.761793375E-1,6.117276549E-1,7.070687413E-2
3.098649288E1,5.677855015E-1,1.475123882E0,-5.659212917E-2
3.100667694E1,3.542001545E-1,2.076997757E0,-1.130511016E-1
3.102686183E1,2.423474789E-1,1.684980750E0,5.792371184E-2
3.104704767E1,8.522109129E-3,6.628602743E-1,5.367597342E-1
3.106723444E1,-1.826927215E-1,5.137233734E-1,8.126630187E-1
3.108742215E1,-4.186486006E-1,8.229161799E-2,7.167892456E-1
3.110761079E1,-4.793686271E-1,-4.769718051E-1,5.777723789E-1
3.112780027E1,-4.042675495E-1,-4.071970284E-1,5.282375813E-1
3.114799048E1,-4.788360000E-1,-2.591253817E-1,4.286354482E-1
3.116818131E1,-6.231792569E-1,-3.693801761E-1,2.491385341E-1
3.118837267E1,-5.795034170E-1,-3.496727943E-1,6.431528926E-2
3.120856433E1,-4.223770201E-1,-6.442182064E-1,-1.529984921E-1
3.122875621E1,-1.944106072E-1,-1.054344654E0,-3.740406930E-1
3.124895892E1,-1.874863952E-1,-9.275783300E-1,-5.295692086E-1
3.126913704E1,-6.562023759E-1,-4.849612713E-1,-6.115944982E-1
3.128931548E1,-7.648593187E-1,-5.158539414E-1,-5.418196917E-1
3.130949465E1,-7.840340137E-1,-4.210454524E-1,-4.709796906E-1
3.132967485E1,-6.956171393E-1,7.749792933E-2,-3.319627941E-1
3.134985631E1,-4.814991653E-1,-4.498075843E-1,7.123950869E-2
3.137003923E1,-7.744466662E-1,-1.582715511E0,-7.736477256E-2
3.139022381E1,-1.472194314E0,-2.275669336E0,-6.328997612E-1
3.141041006E1,-2.318546295E0,-1.986983061E0,-1.183108449E0
3.143059798E1,-2.425605297E0,4.071970284E-1,-1.527721167E0
3.145078746E1,-1.295893192E0,3.747331142E0,-1.651824474E0
3.147097840E1,-8.719182611E-1,2.192046165E0,-1.259274840E0
3.149117058E1,-7.046719193E-1,2.069274634E-1,-3.894870281E-1
3.151136381E1,-5.326318368E-2,9.206541181E-1,5.725792143E-3
3.153155788E1,3.302317262E-1,8.434224725E-1,-4.061317816E-2
3.155175246E1,5.331644416E-1,5.366265774E-1,-1.673795432E-1
3.157194725E1,7.243793011E-1,1.446095407E-1,-1.764342934E-1
3.159214194E1,9.640635848E-1,-7.672561407E-1,8.988162130E-2
3.161232965E1,9.155941010E-1,-1.073519468E0,6.965492368E-1
3.163251194E1,6.636592746E-1,-5.552686453E-1,1.120524168E0
3.165269465E1,5.161202550E-1,-2.223737836E-1,1.101882100E0
3.167287798E1,4.250401855E-1,-4.428833723E-1,8.664588332E-1
3.169306204E1,3.829622865E-1,-7.587340474E-1,7.056040168E-1
3.171324694E1,4.974781275E-1,-6.010749936E-1,7.886945605E-1
3.173343277E1,8.420909047E-1,-1.781653464E-1,1.011867285E0
3.175361954E1,1.202682614E0,-7.004108280E-2,1.162069440E0
3.177380725E1,1.422127008E0,-5.989444852E-1,1.040629387E0
3.179399590E1,1.491369128E0,-1.247690082E0,7.327682376E-1
3.181418538E1,1.170192122E0,-1.252483726E0,2.134522051E-1
3.183437558E1,8.905603886E-1,-8.098666668E-1,-5.125249624E-1
3.185456642E1,8.197203875E-1,-1.984053552E-1,-8.811061978E-1
3.187475777E1,7.440866828E-1,1.319595337E0,-1.234241128E0
3.189494944E1,4.660528302E-1,1.506016493E0,-1.540504336E0
3.191514131E1,-1.773131371E0,-9.653951526E-1,-1.193761110E0
3.193534402E1,-3.825361729E0,1.829590350E-1,-1.252350569E0
3.195552225E1,-4.844819069E0,2.460492611E0,-1.100017905E0
3.197570079E1,-2.129994631E0,4.383826256E0,-2.531332672E-1
3.199588006E1,8.820382953E-1,2.269277811E0,7.956187725E-1
3.201606038E1,1.914811373E0,-2.932404518E0,1.572196007E0
3.203624194E1,2.208291531E0,-4.624042988E0,1.329848528E0
3.205642496E1,9.310404062E-1,-2.603238106E0,5.362271070E-1
3.207660954E1,6.343644857E-1,-1.514538527E0,4.141212255E-2
3.209679579E1,1.100950003E0,3.502054214E-1,-4.028028250E-1
3.211698371E1,1.459943771E0,1.253016353E0,-4.070638716E-1
3.213717319E1,1.595764875E0,9.121319652E-1,-1.279647946E-1
3.215736412E1,5.262402296E-1,-6.394245028E-1,8.962861896E-1
3.217755631E1,2.024000883E-1,4.873581231E-2,1.358078003E0
3.219774954E1,2.024000883E-1,9.376983047E-1,8.595346212E-1
3.221794360E1,-5.379581451E-2,4.849612713E-1,2.768353820E-1
3.223813819E1,-4.873581231E-1,-2.926811874E-1,-3.861580743E-3
3.225833298E1,-7.201182246E-1,-3.944138587E-1,-1.451421715E-2
3.227852715E1,-6.460824013E-1,-3.107906580E-1,-3.262370080E-2
3.229871485E1,-3.691138625E-1,-5.352949724E-2,-1.444763839E-1
3.231889715E1,-1.725727171E-1,-3.880222738E-1,-2.163816839E-1
3.233907985E1,-1.027979404E-1,-1.550757527E0,-1.790974438E-1
3.235926319E1,-2.482064217E-1,-1.009603620E0,-2.675143182E-1
3.237944725E1,-5.422192216E-1,-1.707084924E-1,-4.145207107E-1
3.239963215E1,-5.033370852E-1,-3.800328076E-1,-3.431480527E-1
3.241981798E1,-6.258423924E-1,-1.605884880E-1,-4.550007284E-1
3.244000475E1,-8.170571923E-1,-5.446160436E-1,-7.255777121E-1
3.246019246E1,-9.257140756E-1,-8.833698630E-1,-1.086702108E0
3.248038110E1,-7.696529627E-1,7.933551073E-1,-1.908020377E0
3.250057160E1,-4.953475893E-1,2.197372675E0,-2.158357382E0
3.252076004E1,-6.434192657E-1,1.537441730E0,-6.504766345E-1
3.254095087E1,-3.440801501E-1,7.331677079E-1,4.669849575E-1
3.256114223E1,6.444845349E-2,5.014728308E-1,2.976080179E-1
3.258133389E1,1.225053146E-2,2.021337748E-1,1.371526904E-2
3.260152577E1,-5.379581451E-2,-3.123885691E-1,9.361004084E-2
3.262172848E1,8.681898564E-2,-1.037300467E0,4.600607455E-1
3.264190671E1,1.177116334E-1,-1.046355247E0,8.158587813E-1
3.266208525E1,-2.290316857E-2,-1.243695319E-1,9.319725037E-1
3.268226452E1,-1.821600795E-1,5.360939503E-1,9.096019864E-1
3.270244483E1,-2.300969511E-1,5.073317885E-1,8.936230540E-1
3.272262639E1,-1.432779580E-1,1.387505829E-1,8.851009011E-1
3.274280942E1,1.065263641E-3,-2.149169445E-1,8.323704004E-1
3.276299400E1,2.295643091E-1,-2.090579867E-1,7.695198059E-1
3.278318025E1,6.838992834E-1,3.549990952E-1,8.265114427E-1
3.280336816E1,1.206943750E0,9.765804410E-1,1.061934710E0
3.282355764E1,1.340634346E0,6.351634264E-1,1.163667321E0
3.284374858E1,1.347558498E0,-6.825676560E-1,9.117324948E-1
3.286394077E1,1.471129060E0,-1.785115600E0,3.338269889E-1
3.288413400E1,1.367265940E0,-2.243178844E0,-3.735080659E-1
3.290432796E1,1.004543662E0,-1.889511347E0,-9.844367504E-1
3.292452244E1,4.591286182E-1,-4.785696864E-1,-1.239567399E0
3.294471712E1,3.994738683E-2,1.234374285E0,-1.070190430E0
3.296491139E1,-2.556632832E-2,1.500690103E0,-7.575356364E-1
3.298509921E1,-9.853688627E-2,1.009337306E-1,-4.597944319E-1
3.300528692E1,9.853688627E-2,-5.733781457E-1,-4.603270590E-1
3.302546921E1,-3.312969804E-1,3.597927988E-1,-3.069290817E-1
3.304565192E1,-1.841840863E0,-2.841590643E-1,-4.688491523E-1
3.306583525E1,-1.993640900E0,-1.039963603E0,-6.174534559E-1
3.308601931E1,-1.067926764E0,1.526789069E0,1.026647836E-1
3.310620421E1,1.938779801E-1,6.548708081E-1,5.181176066E-1
3.312639004E1,1.702823877E0,-1.558214426E0,3.285006881E-1
3.314657681E1,1.920670390E0,-2.246907234E0,1.665806025E-1
3.316676452E1,1.242097378E0,-1.796833396E0,2.054627240E-1
3.318695317E1,1.097221494E0,-4.822981060E-1,-4.487423226E-2
3.320714264E1,7.446193099E-1,7.992140651E-1,-1.556616426E-1
3.322733285E1,4.479433596E-1,1.584846020E0,-1.721732318E-1
3.324752369E1,6.157223582E-1,1.802692413E0,-1.572595388E-1
3.326771504E1,5.763076544E-1,1.080976248E0,2.379532605E-1
3.328790671E1,5.858949944E-2,4.732433856E-1,6.459492445E-1
3.330809858E1,-1.539305896E-1,2.266348451E-1,5.900229216E-1
3.332830129E1,-1.166463718E-1,-4.870918095E-1,4.643217921E-1
3.334847931E1,2.338253707E-1,-4.833633900E-1,4.952144325E-1
3.336865764E1,4.218443930E-1,-4.125233591E-1,5.841639638E-1
3.338883671E1,7.510108501E-2,-8.950877786E-1,3.663175404E-1
3.340901681E1,-3.403517306E-1,-1.349955320E0,5.952160433E-2
3.342919816E1,-6.029392481E-1,-1.184839487E0,-4.913528636E-2
3.344938098E1,-7.371624112E-1,-9.233172536E-1,-1.023984700E-1
3.346956546E1,-7.174550891E-1,-7.592666745E-1,-1.625858694E-1
3.348975160E1,-6.141244769E-1,-7.949529886E-1,-1.375521719E-1
3.350993942E1,-9.459540844E-1,-3.853591084E-1,-1.972069293E-1
3.353012889E1,-1.594166994E0,7.763108611E-1,-4.805670679E-1
3.355031983E1,-7.803056240E-1,2.516685426E-1,-4.720449448E-1
3.357051212E1,-5.006738901E-1,-1.492700696E0,-5.519397259E-1
3.359070546E1,-6.317013502E-1,-2.415751696E0,-7.564703226E-1
3.361089962E1,-7.403582335E-1,-2.014147282E0,-1.579919100E0
3.363109431E1,-4.660528302E-1,-6.724476814E-1,-2.273405790E0
3.365128921E1,2.631201148E-1,-8.817719817E-1,-1.578853846E0
3.367148389E1,4.554001987E-1,-9.081372619E-2,-4.379565120E-1
3.369167171E1,3.909517527E-1,1.055942535E0,-3.207775056E-1
3.371185410E1,6.455497742E-1,1.075649977E0,-4.182491302E-1
3.373203692E1,1.048219442E0,1.472726911E-1,-2.398174703E-1
3.375222025E1,1.383777499E0,-1.087900519E0,-3.159838319E-1
3.377240431E1,1.508945942E0,-1.702024937E0,-2.249037921E-1
3.379258921E1,1.294295311E0,-1.586443901E0,1.122521535E-1
3.381277504E1,9.331709743E-1,-1.274321675E0,4.137217700E-1
3.383296181E1,6.759097576E-1,-1.268462658E0,6.672545075E-1
3.385314952E1,4.751075804E-1,-1.304681659E0,7.631282210E-1
3.387333816E1,3.962780833E-1,-1.251418471E0,5.554018021E-1
3.389352764E1,4.996086359E-1,-1.069258332E0,3.237069845E-1
3.391371785E1,6.764423847E-1,-8.865656853E-1,3.034669757E-1
3.393390869E1,9.113330245E-1,-8.066709042E-1,5.255744457E-1
3.395410004E1,1.071122646E0,-1.065529943E0,7.572692633E-1
3.397429171E1,1.220259547E0,-1.519864917E0,7.833682299E-1
3.399448348E1,1.471661687E0,-1.707351327E0,3.482080400E-1
3.401468608E1,1.505217552E0,-1.768071294E0,-3.953459561E-1
3.403486400E1,9.747162461E-1,-1.961416721E0,-8.992156982E-1
3.405504223E1,5.075981021E-1,-2.202698946E0,-7.426218987E-1
3.407522119E1,2.205095738E-1,-2.083921909E0,-2.046637833E-1
3.409540119E1,-7.004108429E-1,-1.415469050E0,2.198437899E-1
3.411558254E1,-1.646897554E0,6.862961054E-1,8.921583183E-3
3.413576535E1,-2.574209690E0,9.291762114E-1,-6.174534559E-1
3.415594983E1,-2.827209711E0,8.684561849E-1,-7.080008388E-1
3.417613598E1,-5.587307811E-1,-3.257043660E-1,-5.689839721E-1
3.419632379E1,1.503087044E0,4.625907242E-1,9.414267540E-2
3.421651327E1,1.429051161E0,-2.370211668E-2,1.452753246E-1
3.423670421E1,1.620798588E0,-1.543833375E0,-3.921501637E-1
3.425689650E1,1.895104051E0,-6.223802567E-1,-1.785648167E-1
3.427708983E1,1.564872265E0,1.482048035E0,1.617869139E-1
3.429728400E1,8.436887860E-1,2.288452625E0,2.432795912E-1
3.431747869E1,6.556697488E-1,1.849031329E0,2.512690723E-1
3.433767358E1,8.980172276E-1,1.721732378E0,3.737743795E-1
3.435786837E1,7.025413513E-1,1.668469191E0,7.269092798E-1
3.437805619E1,2.524674833E-1,5.621928573E-1,1.012932539E0
3.439824389E1,1.981390417E-1,-7.347655892E-1,8.957535625E-1
3.441842619E1,9.470193982E-1,-1.218927979E0,7.860314250E-1
3.443860889E1,1.962215662E0,-1.242363691E0,8.925577998E-1
3.445879223E1,2.560361147E0,-1.134239435E0,9.586040974E-1
3.447897629E1,2.478868484E0,-4.157191217E-1,6.837661266E-1
3.449916119E1,1.061535239E0,-5.318328738E-1,4.185154438E-1
3.451934702E1,1.139832065E-1,-7.171887755E-1,1.452753246E-1
3.453953379E1,-1.592569202E-1,-8.844351172E-1,-1.428784877E-1
3.455972150E1,-1.368863732E-1,-1.015995145E0,-2.866890728E-1
3.457991014E1,-8.522109129E-3,-5.376918316E-1,-2.893522382E-1
3.460009962E1,4.037349224E-1,3.874896467E-1,-2.691122293E-1
3.462028983E1,9.512804151E-1,7.283740044E-1,-2.344911546E-1
3.464048067E1,7.020087242E-1,-2.868222296E-1,3.768370301E-2
3.466067202E1,-4.527370334E-1,-1.365934253E0,2.640522122E-1
3.468086369E1,-1.345427990E0,-1.183241606E0,3.062632866E-3
3.470105556E1,-1.580851197E0,-1.699361801E0,-4.017375410E-1
3.472125827E1,-9.933583736E-1,-1.736646056E0,-6.840324402E-1
3.474143608E1,-4.841623306E-1,-1.486841679E0,-1.074984193E0
3.476161421E1,-6.226465702E-1,-9.643298984E-1,-1.254481077E0
3.478179306E1,-1.836514473E0,-1.212536335E0,-1.015329361E0
3.480197296E1,-2.162485123E0,-7.992140651E-1,-1.053678870E0
3.482215421E1,-1.565404892E0,2.277000993E-1,-1.359409571E0
3.484233702E1,-1.177648902E0,1.685779691E-1,-1.414803267E0
3.486252150E1,-7.360971570E-1,-4.982770681E-1,-1.256611586E0
3.488270775E1,-6.657897681E-2,-5.558013320E-1,-8.454198837E-1
3.490289577E1,3.680485785E-1,-2.511359155E-1,-6.829671264E-1
3.492308546E1,5.470128655E-1,-7.283740044E-1,-8.582029939E-1
3.494327660E1,5.906887054E-1,-1.356346965E0,-1.085636854E0
3.496346910E1,4.948149621E-1,-1.349955320E0,-1.197489500E0
3.498366264E1,3.387538493E-1,-9.462204576E-1,-1.066994667E0
3.500385702E1,2.556632757E-1,-6.628602743E-1,-7.671229839E-1
3.502405192E1,2.924148738E-1,-7.422224283E-1,-4.747081101E-1
3.504424702E1,3.808317482E-1,-9.978857040E-1,-3.138532937E-1
3.506444035E1,4.143875539E-1,-1.116129994E0,-2.925480306E-1
3.508462817E1,3.962780833E-1,-9.994835854E-1,-2.611227632E-1
3.510481056E1,3.877559602E-1,-7.065361142E-1,-1.984053478E-2
3.512499337E1,4.868254960E-1,-4.908202291E-1,4.483428299E-1
3.514517671E1,6.135918498E-1,-4.210454524E-1,9.021451473E-1
3.516536077E1,6.072002649E-1,-6.314350367E-1,1.221724272E0
3.518554566E1,3.712443709E-1,-1.005875230E0,1.194560051E0
3.520573150E1,9.321057051E-2,-1.386706948E0,5.229113102E-1
3.522591827E1,-1.661811322E-1,-9.398288727E-1,-3.857586086E-1
3.524610598E1,-7.659245729E-1,-5.406212807E-2,-5.178512931E-1
3.526629462E1,-8.404930234E-1,1.138500571E0,-5.258407593E-1
3.528648410E1,3.302317113E-2,1.936383009E0,-3.032006621E-1
3.530667431E1,3.446127772E-1,1.041028857E0,4.046670198E-1
3.532686514E1,1.350221634E0,1.245559454E0,7.759113908E-1
3.534705650E1,8.996151686E-1,-7.683213949E-1,6.986798048E-1
3.536724816E1,1.816274524E-1,-2.862097025E0,3.599259555E-1
3.538743994E1,1.725727171E-1,-2.529734850E0,2.097237855E-1
3.540764254E1,1.422126889E-1,-9.989509583E-1,2.571280003E-1
3.542782014E1,2.854906619E-1,6.601971388E-1,1.814942956E-1
3.544799806E1,8.617982864E-1,1.457546949E0,-5.765739456E-2
3.546817671E1,1.509478569E0,9.456877708E-1,-1.167795286E-1
3.548835639E1,1.739575505E0,-4.540686309E-1,2.912164330E-1
3.550853744E1,1.282577395E0,-1.312671065E0,6.901576519E-1
3.552872004E1,7.483476996E-1,-5.494097471E-1,6.336987019E-1
3.554890431E1,4.559328258E-1,2.143843025E-1,5.063996911E-1
3.556909035E1,3.249054253E-1,4.034686089E-1,4.707133770E-1
3.558927816E1,4.223770201E-1,2.639190555E-1,4.573975801E-1
3.560946764E1,6.769750714E-1,-1.201084778E-1,4.121238589E-1
3.562965869E1,1.005076289E0,-3.283675313E-1,3.540669978E-1
3.564985108E1,1.182975292E0,-3.118559420E-1,3.615238369E-1
3.567004462E1,1.015196204E0,-2.516685426E-1,4.227765203E-1
3.569023900E1,6.311687231E-1,-4.093275666E-1,4.803007543E-1
3.571043389E1,4.367581010E-1,-5.968139768E-1,4.781702161E-1
3.573062910E1,5.784381628E-1,-6.644582152E-1,4.371575713E-1
3.575081889E1,7.781751156E-1,-6.250434518E-1,3.918838501E-1
3.577100879E1,9.294425249E-1,-5.573992133E-1,3.806985915E-1
3.579120952E1,1.065263629E0,-4.636560082E-1,3.705785871E-1
3.581138775E1,1.014663577E0,-4.732433856E-1,4.323638678E-1
3.583156629E1,6.364950538E-1,-6.857634783E-1,4.099933505E-1
3.585174556E1,3.014696240E-1,-6.511424184E-1,1.181111038E-1
3.587192587E1,1.006674170E-1,-3.171822429E-1,-6.617950648E-2
3.589210744E1,7.137266546E-2,1.813611388E-1,-1.221058443E-1
3.591229046E1,3.675159439E-2,4.077296555E-1,-1.764342934E-1
3.593247504E1,-5.081307292E-1,-3.507380486E-1,-2.707101107E-1
3.595266129E1,-1.017859459E0,-1.558214426E0,-6.158555150E-1
3.597284921E1,-1.080709934E0,-2.225069523E0,-1.121855736E0
3.599303869E1,-9.113330245E-1,-2.029593468E0,-1.690173984E0
3.601322962E1,-1.005076289E0,-1.155012131E0,-2.092310905E0
3.603342181E1,-1.570731282E0,6.657897960E-3,-1.884584546E0
3.605361504E1,-1.963813543E0,1.034637332E0,-1.560211778E0
3.607380900E1,-1.611743927E0,1.546496511E0,-1.452087522E0
3.609400348E1,-6.119939685E-1,4.311654568E-1,-1.115996838E0
3.611419817E1,1.763011366E-1,-1.358477473E0,-6.840324402E-1
3.613439192E1,3.739075363E-1,-2.348107338E0,-4.736428559E-1
3.615457962E1,4.554001987E-1,-2.380065203E0,-4.640554786E-1
3.617476192E1,4.277033508E-1,-2.247439861E0,-8.443545699E-1
3.619494462E1,1.933453530E-1,-1.982721925E0,-1.482447505E0
3.621512796E1,-3.355580568E-2,-1.202948928E0,-1.480316997E0
3.623531202E1,-1.411474347E-1,-3.704454303E-1,-8.683230281E-1
3.625549692E1,-6.551371515E-2,-4.668518007E-1,-3.958786130E-1
3.627568275E1,6.870950758E-2,-7.225150466E-1,-2.126532495E-1
3.629586952E1,8.894951642E-2,-8.008119464E-1,-3.063964546E-1
3.631605723E1,1.065263641E-3,-6.197171211E-1,-3.591270149E-1
3.633624587E1,2.290316857E-2,-1.866874546E-1,-2.414153665E-1
3.635643535E1,9.374319762E-2,1.515337527E-1,-7.523424178E-2
3.637662556E1,6.817687303E-2,5.352949724E-2,1.793637723E-1
3.639681639E1,-0.000000000E0,-3.624559641E-1,5.026713014E-1
3.641700775E1,1.336905807E-1,-5.281044245E-1,7.620629668E-1
3.643719942E1,5.086634159E-1,-3.709780574E-1,9.314398766E-1
3.645739119E1,7.153245211E-1,-5.526055098E-1,9.974862337E-1
3.647759379E1,7.036066055E-1,-1.156077385E0,8.643282652E-1
3.649777160E1,8.500803709E-1,-1.429317474E0,5.186502337E-1
3.651794973E1,1.014663577E0,-1.250353217E0,1.202416345E-1
3.653812858E1,7.882950902E-1,-1.323856354E0,-2.483395934E-1
3.655830848E1,3.893538713E-1,-1.179513216E0,-5.636576414E-1
3.657848973E1,1.012000442E-1,-2.868222296E-1,-6.611292362E-1
3.659867254E1,1.613874435E-1,4.625907242E-1,-6.621944904E-1
3.661885702E1,3.408843577E-1,4.263717830E-1,-4.779039025E-1
3.663904327E1,3.446127772E-1,1.051947847E-1,-1.498026997E-1
3.665923119E1,3.398191035E-1,-3.422159553E-1,6.644582003E-2
3.667942077E1,4.303665161E-1,-4.482096732E-1,1.740374416E-1
3.669961181E1,2.423474789E-1,-1.115863696E-1,1.969406158E-1
3.671980421E1,2.519348562E-1,2.447443157E-1,1.159805804E-1
3.673999764E1,4.026696682E-1,2.319611609E-1,2.390185297E-1
3.676019192E1,3.643201590E-1,-3.241064548E-1,4.675175846E-1
3.678038671E1,2.945453823E-1,-1.167262673E0,5.815007687E-1
3.680058171E1,2.029327303E-1,-1.832519770E0,5.969471335E-1
3.682077577E1,2.924148738E-1,-1.700427055E0,5.053344369E-1
3.684096348E1,7.227813601E-1,-5.787044764E-1,3.029343486E-1
3.686114577E1,1.242097378E0,3.555317521E-1,1.479384899E-1
3.688132848E1,1.527588010E0,3.992075622E-1,1.633848101E-1
3.690151181E1,1.654354453E0,3.808317333E-2,2.390185297E-1
3.692169587E1,1.448225975E0,-5.041360259E-1,2.810964286E-1
3.694188077E1,8.809730411E-1,-8.620646000E-1,3.279680312E-1
3.696206660E1,5.075981021E-1,-7.720498443E-1,2.134522051E-1
3.698225337E1,4.000065029E-1,-6.383592486E-1,1.021321490E-1
3.700244108E1,4.340949357E-1,-6.074665785E-1,1.095889956E-1
3.702262973E1,5.544697046E-1,-5.920202732E-1,1.607216448E-1
3.704281921E1,7.387603521E-1,-5.313002467E-1,1.852227151E-1
3.706300942E1,9.427583218E-1,-4.013380706E-1,1.665806025E-1
3.708320025E1,9.816404581E-1,-3.571296334E-1,1.521995366E-1
3.710339160E1,9.299751520E-1,-3.938812315E-1,1.830921918E-1
3.712358327E1,9.640635848E-1,-3.677822649E-1,2.294311523E-1
3.714377504E1,1.187236309E0,-2.362222075E-1,2.805638015E-1
3.716397764E1,1.429051161E0,-2.058621943E-1,3.700459599E-1
3.718415546E1,1.431181669E0,-5.067991614E-1,4.973449707E-1
3.720433358E1,1.136636257E0,-1.110270977E0,5.777723789E-1
3.722451244E1,8.362319469E-1,-1.274321675E0,3.109238148E-1
3.724469233E1,4.580633640E-1,-7.464835048E-1,-9.014793485E-2
3.726487358E1,-2.519348562E-1,-1.829590350E-1,-3.846933246E-1
3.728505639E1,-9.906951785E-1,-2.751043439E-1,-7.527419329E-1
3.730524087E1,-1.399223804E0,-1.312671065E0,-1.168727398E0
3.732542712E1,-1.255945802E0,-2.097770452E0,-1.341832757E0
3.734561504E1,-7.020087242E-1,-2.301768303E0,-1.214001060E0
3.736580462E1,-4.559328258E-1,-2.418947458E0,-1.309342146E0
3.738599566E1,-6.482129097E-1,-1.419197440E0,-1.169792652E0
3.740618806E1,-1.611211300E0,-8.761793375E-2,-6.057355404E-1
3.742638150E1,-2.273805141E0,1.238635302E0,-3.729754388E-1
3.744657577E1,-2.148636818E0,1.407479644E0,-5.743102431E-1
3.746677056E1,-1.181377411E0,-1.696432382E-1,-8.235819340E-1
3.748696556E1,-7.297056168E-2,-1.704155564E0,-8.315714002E-1
3.750715962E1,2.743053734E-1,-2.028528214E0,-5.402218103E-1
3.752734744E1,1.896169335E-1,-1.608814359E0,-6.404897571E-2
3.754753514E1,1.422126889E-1,-1.161403656E0,-1.930790395E-2
3.756771744E1,2.775011659E-1,-5.925529003E-1,-4.432828426E-1
3.758790014E1,3.717769980E-1,1.131842583E-1,-6.771082282E-1
3.760808348E1,3.616569936E-1,1.621863842E-1,-4.113249183E-1
3.762826754E1,3.840275407E-1,-3.257043660E-1,-7.310371846E-2
3.764845244E1,4.692486227E-1,-8.876309395E-1,8.295740932E-2
3.766863827E1,4.751075804E-1,-7.512772083E-1,1.149153188E-1
3.768882504E1,4.010717571E-1,-1.717737615E-1,2.049300969E-1
3.770901275E1,3.062632978E-1,3.595264629E-2,3.780354261E-1
3.772920139E1,1.438105851E-1,-3.488738462E-2,5.665870905E-1
3.774939087E1,2.929474972E-2,-2.708432674E-1,7.183871865E-1
3.776958108E1,2.769685537E-2,-5.558013320E-1,7.828356028E-1
3.778977192E1,7.030740380E-2,-9.462204576E-1,7.578019500E-1
3.780996327E1,2.189116776E-1,-1.288170099E0,6.789724231E-1
3.783015494E1,7.669898272E-1,-1.068193078E0,6.358292103E-1
3.785034671E1,9.933583736E-1,-7.209171653E-1,5.079975724E-1
3.787054931E1,6.508761048E-1,-4.471444190E-1,2.214416862E-1
3.789072723E1,2.098569423E-1,-3.139864504E-1,-1.657816470E-1
3.791090546E1,7.190529257E-2,-3.624559641E-1,-4.331628382E-1
3.793108442E1,3.355580568E-1,-1.624527015E-2,-5.551354885E-1
3.795126442E1,5.177181363E-1,8.210519552E-1,-7.293061018E-1
3.797144577E1,3.802991211E-1,7.922898531E-1,-1.106409431E0
3.799162858E1,3.691138625E-1,1.723063886E-1,-1.329049587E0
3.801181306E1,5.129244328E-1,-2.564622164E-1,-1.269394755E0
3.803199921E1,4.277033508E-1,-5.573992133E-1,-7.559376955E-1
3.805218702E1,-3.563306928E-1,-1.160338402E0,1.857553422E-1
3.807237650E1,-2.265815735E0,2.420811653E-1,8.803072572E-1
3.809256744E1,-3.851460695E0,3.283408880E0,1.181111038E-1
3.811275973E1,-1.635179639E0,1.315866947E0,-1.897500902E-1
3.813295306E1,3.872233331E-1,-6.239781976E-1,1.458079666E-1
3.815314723E1,2.250902176E0,-2.097770452E0,5.761744976E-1
3.817334192E1,1.524924874E0,-1.919871449E0,1.223721579E-1
3.819353681E1,1.154213190E0,-1.542235494E0,-3.010701239E-1
3.821373150E1,1.365667939E0,3.986749053E-1,-1.817606091E-1
3.823391921E1,7.590003610E-1,1.896968246E0,9.361004084E-2
3.825410150E1,1.507348120E-1,6.532729268E-1,1.037300453E-1
3.827428421E1,6.183855534E-1,-2.798980176E-1,-6.671213359E-2
3.829446754E1,5.757750273E-1,-1.145158429E-2,1.436774284E-1
3.831465160E1,-6.551371515E-2,3.667170107E-1,2.933469713E-1
3.833483650E1,-1.922800839E-1,4.301002026E-1,1.010668874E-1
3.835502233E1,1.304948032E-1,6.258423626E-2,4.620581120E-2
3.837520910E1,8.362319320E-2,-5.089297295E-1,1.436774284E-1
3.839539681E1,6.178529188E-2,-1.050616264E0,3.285006881E-1
3.841558546E1,2.125200927E-1,-1.331845880E0,4.940159991E-2
3.843577494E1,1.502021700E-1,-1.454883814E0,-3.862912357E-1
3.845596514E1,-5.166528746E-2,-1.257277369E0,-5.466133952E-1
3.847615598E1,-3.089264631E-1,-5.728455186E-1,-5.178512931E-1
3.849634733E1,-3.787012100E-1,3.648528084E-2,-5.386239290E-1
3.851653900E1,-2.370211631E-1,4.418180883E-1,-5.018723607E-1
3.853673077E1,-2.530001104E-1,4.460791349E-1,-4.246407151E-1
3.855693337E1,-4.335623085E-1,-8.974846452E-2,-3.559312224E-1
3.857711129E1,-3.909517527E-1,-7.832350731E-1,-3.767038584E-1
3.859728952E1,-6.972150803E-1,-1.072986841E0,-5.833650231E-1
3.861746848E1,-1.238368988E0,-1.159805775E0,-9.604683518E-1
3.863764848E1,-1.709215522E0,1.861548275E-1,-1.691239238E0
3.865782983E1,-1.437573314E0,2.222406387E0,-2.097104549E0
3.867801264E1,-8.980172276E-1,1.569932342E0,-9.796430469E-1
3.869819712E1,-4.484759867E-1,5.547360182E-1,1.900164038E-1
3.871838327E1,-1.858884990E-1,1.059671044E0,1.271658540E-1
3.873857108E1,7.243792713E-2,1.605618596E0,-1.045289934E-1
3.875876056E1,3.318296373E-1,7.528750896E-1,-1.759016514E-1
3.877895150E1,4.362254739E-1,-3.368896246E-1,-1.002679393E-1
3.879914379E1,4.729770422E-1,-6.415550113E-1,1.948100924E-1
3.881933712E1,3.621896505E-1,-3.635212183E-1,5.522060394E-1
3.883953129E1,2.253032625E-1,-1.624527015E-2,7.620629668E-1
3.885972598E1,2.908169627E-1,-1.557948142E-1,7.737808824E-1
3.887992087E1,3.728422821E-1,-3.960117698E-1,8.371640444E-1
3.890011566E1,3.105243444E-1,-5.398223400E-1,9.948230982E-1
3.892030348E1,3.595264852E-1,-3.752391040E-1,1.034770489E0
3.894049119E1,6.934866309E-1,2.154495716E-1,9.873662591E-1
3.896067348E1,8.831035495E-1,6.585992575E-1,9.010798931E-1
3.898085619E1,8.255793452E-1,2.490053773E-1,7.918903828E-1
3.900103952E1,1.003478408E0,-1.557948142E-1,7.551387548E-1
3.902122358E1,1.225585818E0,-3.837612271E-1,3.759049177E-1
3.904140848E1,1.225053191E0,-1.146489978E0,-3.191796243E-1
3.906159431E1,1.031175256E0,-1.398424864E0,-7.117292881E-1
3.908178108E1,7.062698007E-1,-1.776327193E-1,-8.464851379E-1
3.910196879E1,3.344927728E-1,1.287637472E0,-7.325019240E-1
3.912215744E1,-1.187768951E-1,1.421328068E0,-2.978743315E-1
3.914234692E1,-6.013413072E-1,1.137168929E-1,1.069258377E-1
3.916253712E1,-9.454214573E-1,5.459476262E-2,1.356879622E-1
3.918272796E1,-1.449291229E0,5.989444852E-1,7.816372067E-2
3.920291931E1,-1.521729112E0,-4.055991173E-1,-2.238385230E-1
3.922311098E1,-1.790175557E0,3.800328076E-1,1.420795321E-1
3.924330285E1,-1.224520564E0,1.605618596E0,4.440817833E-1
3.926350556E1,9.997498989E-1,-1.123054147E0,3.524691164E-1
3.928368337E1,1.666072369E0,-1.053279400E0,1.751027107E-1
3.930386150E1,5.986781716E-1,-6.745781898E-1,-2.829606533E-1
3.932404035E1,1.008804679E0,-5.744433999E-1,-2.957438231E-1
3.934422025E1,1.274055362E0,3.981422782E-1,2.809632942E-2
3.936440150E1,8.410256505E-1,9.217193723E-1,2.459427416E-1
3.938458431E1,3.632549047E-1,1.017060518E0,2.432795912E-1
3.940476879E1,1.635179669E-1,5.637907982E-1,1.841574460E-1
3.942495504E1,1.544632316E-1,3.901528120E-1,2.805638015E-1
3.944514306E1,-9.534109384E-2,6.737792492E-2,5.303681493E-1
3.946533275E1,-6.977476925E-2,-8.125298619E-1,5.868270993E-1
3.948552389E1,3.776359558E-1,-1.102281570E0,5.362271070E-1
3.950571639E1,5.779055357E-1,-7.267761230E-1,4.419512451E-1
3.952590994E1,2.604569495E-1,-5.653886795E-1,4.354264960E-2
3.954610431E1,-2.663159044E-3,-5.536707640E-1,-4.022701681E-1
3.956629921E1,-8.309056610E-2,-5.153213143E-1,-4.693817794E-1
3.958649431E1,-1.139832065E-1,-5.286371112E-1,-3.063964546E-1
3.960668775E1,-2.253032625E-1,-7.134603262E-1,-2.030658871E-1
3.962687556E1,-4.809665382E-1,-7.337003350E-1,-3.143859208E-1
3.964706327E1,-8.058719635E-1,5.139897019E-2,-5.146554708E-1
3.966724556E1,-8.980172276E-1,5.882918239E-1,-4.752407372E-1
3.968742827E1,-7.920235395E-1,-6.844318658E-2,-3.724428117E-1
3.970761160E1,-7.536740303E-1,-1.280713201E0,-3.724428117E-1
3.972779566E1,-1.022653103E0,-1.997102976E0,-4.411523044E-1
3.974798056E1,-1.607482791E0,-1.240765810E0,-9.418262243E-1
3.976816639E1,-1.685779691E0,1.476721764E0,-1.694967628E0
3.978835317E1,-1.272457361E0,2.742787600E0,-1.280047417E0
3.980854087E1,-9.763141274E-1,1.256212115E0,-5.605949834E-2
3.982872952E1,-4.729770422E-1,5.328981280E-1,2.677806616E-1
3.984891900E1,-1.784316599E-1,1.145957351E0,4.141212255E-2
3.986910921E1,-9.267793596E-2,8.839024901E-1,-3.741738573E-2
3.988930004E1,1.757685095E-2,3.488738462E-2,6.804371625E-2
3.990949139E1,2.343579978E-1,-2.953443527E-1,2.438122183E-1
3.992968306E1,3.648527861E-1,1.331579522E-3,4.707133770E-1
3.994987494E1,3.020022511E-1,4.679170549E-1,7.178545594E-1
3.997007764E1,2.519348562E-1,3.736412227E-1,8.643282652E-1
3.999025546E1,3.243727684E-1,-1.073253155E-1,8.307724595E-1
4.001043358E1,3.712443709E-1,-3.368896246E-1,8.201198578E-1
4.003061244E1,4.548675716E-1,-2.543317080E-1,8.696545959E-1
4.005079233E1,6.135918498E-1,1.358211134E-2,1.015063047E0
4.007097358E1,8.463519812E-1,1.520663798E-1,1.222256899E0
4.009115639E1,1.106276274E0,-4.447475821E-2,1.369263291E0
4.011134087E1,1.260739565E0,-6.910898089E-1,1.215865254E0
4.013152712E1,1.249554276E0,-1.247157454E0,6.155892015E-1
4.015171514E1,9.086698890E-1,-1.652490258E0,-3.021354079E-1
4.017190483E1,7.973498106E-1,-1.661544919E0,-9.306409359E-1
4.019209598E1,8.804404140E-1,-5.062665343E-1,-1.314135909E0
4.021228848E1,6.556697488E-1,1.368597507E0,-1.370062232E0
4.023248202E1,-5.731118321E-1,1.311073184E0,-8.858999014E-1
4.025267639E1,-9.864341021E-1,9.361004233E-1,-5.237102509E-1
4.027287129E1,-1.064731002E0,1.249820590E0,-2.898848653E-1
4.029306639E1,-2.395777941E0,-1.884185076E0,-1.364869028E-1
4.031325983E1,-1.597895503E0,3.331612051E-1,-2.783001214E-2
4.033344764E1,-1.307611108E0,1.565138578E0,2.187785208E-1
4.035363535E1,8.660593629E-1,-9.898962379E-1,2.299637944E-1
4.037381764E1,2.363287449E0,-1.182708979E0,6.091976166E-1
4.039400035E1,1.608015418E0,-8.173235059E-1,4.483428299E-1
4.041418369E1,1.182442665E0,-7.805719376E-1,1.868206114E-1
4.043436775E1,1.293230057E0,-1.930790395E-1,1.862879843E-1
4.045455264E1,9.954888821E-1,2.516685426E-1,1.607216448E-1
4.047473848E1,6.940192580E-1,1.091628909E0,7.656582445E-2
4.049492525E1,4.335623085E-1,1.316932201E0,9.520793706E-2
4.051511296E1,8.096003532E-2,1.054344654E0,3.609912097E-1
