"Time (s)","Gyroscope x (rad/s)","Gyroscope y (rad/s)","Gyroscope z (rad/s)"
4.625537400E-2,-5.006738901E-1,-3.374222517E-1,5.113265663E-2
6.652355100E-2,-2.153164148E-1,7.949529588E-2,-7.243792713E-2
8.679178000E-2,9.414267540E-2,3.197122514E-1,-3.195790946E-2
1.068633950E-1,1.394163817E-1,1.450090110E-1,1.038632020E-1
1.271705300E-1,-2.037316747E-2,-9.187898785E-2,2.581932843E-1
1.475705300E-1,-1.684448123E-1,-1.755021811E-1,2.779006660E-1
1.677067800E-1,-3.030675054E-1,-1.142495275E-1,2.496711612E-1
1.881067800E-1,-2.913496196E-1,-3.115896136E-2,1.916143000E-1
2.082429780E-1,-4.966791719E-2,8.961530030E-2,1.049284711E-1
2.285111030E-1,6.751108170E-2,9.813741595E-2,6.551371515E-2
2.487792280E-1,-1.451421715E-2,6.937529147E-2,4.314317927E-2
2.690473530E-1,-1.620532274E-1,8.162582666E-2,4.687159881E-2
2.894473530E-1,-9.121319652E-2,1.721732318E-1,6.285055727E-2
3.095836550E-1,1.143826842E-1,1.956090331E-1,1.070589945E-1
3.298462590E-1,1.117195264E-1,1.034637317E-1,1.432779580E-1
3.501179260E-1,-1.130511016E-1,9.867004305E-2,1.027979404E-1
3.703864680E-1,-3.723096550E-1,4.986765385E-1,7.297056168E-2
3.906549570E-1,-5.395560265E-1,9.587372541E-1,7.456845790E-2
4.109233430E-1,-7.771098018E-1,1.028512001E0,8.362319320E-2
4.311917280E-1,-1.045955777E0,1.054610968E0,-1.810948178E-2
4.514600610E-1,-1.451688051E0,1.175917864E0,-9.534109384E-2
4.717283430E-1,-1.675393343E0,6.450171471E-1,-2.066611499E-1
4.919965720E-1,-1.902693987E0,2.355564237E-1,-3.828291297E-1
5.122648530E-1,-3.192994595E0,1.557814956E0,-6.800376773E-1
5.325330820E-1,-4.617918015E0,4.200600624E0,-9.744499326E-1
5.528013110E-1,-4.437489033E0,5.842837811E0,-1.308410048E0
5.730694890E-1,-1.536909103E0,3.882619619E0,-1.913879275E0
5.934775090E-1,1.308276892E0,2.415618420E0,-2.055426121E0
6.137544360E-1,6.436855793E-1,3.058904648E0,-1.393098474E0
6.338671450E-1,1.282311082E-1,2.935866594E0,-8.403598666E-1
6.541366760E-1,3.075948656E-1,1.585511804E0,-3.249054253E-1
6.744059990E-1,1.436774284E-1,-3.161169887E-1,9.906952083E-2
6.946750090E-1,-1.199753210E-1,-1.852892995E0,2.571280003E-1
7.149439160E-1,-2.775011659E-1,-2.087783575E0,6.118608117E-1
7.352126140E-1,-7.680550814E-1,-1.162202597E0,1.410009623E0
7.554812070E-1,-1.207343221E0,-6.323671341E-1,1.538906455E0
7.757496970E-1,-1.314402223E0,2.339585274E-1,1.118793130E0
7.960220410E-1,-9.724525213E-1,1.053013086E0,6.874945164E-1
8.163295930E-1,-5.864276290E-1,1.746233463E0,5.862944722E-1
8.365556340E-1,-4.426170290E-1,2.328266859E0,8.657930493E-1
8.568237590E-1,-3.387538493E-1,2.139848232E0,1.280047417E0
8.770918840E-1,-1.279647946E-1,1.623728156E0,1.797099710E0
8.973600610E-1,4.205128253E-1,1.090696812E0,2.253032684E0
9.176281860E-1,9.482178092E-1,8.961530030E-2,2.087383986E0
9.378963110E-1,6.037381887E-1,-6.153228879E-1,4.089280665E-1
9.581644360E-1,-2.700443268E-1,-7.607313991E-1,-6.901576519E-1
9.784325610E-1,-6.993455887E-1,-5.227781534E-1,-1.206677437E0
9.987006860E-1,-6.503434777E-1,1.668469161E-1,-1.650226593E0
1.018968811E0,-9.692567587E-1,6.671213359E-2,-1.328117490E0
1.039236936E0,-1.173787355E0,2.243711501E-1,-7.966840267E-1
1.059505061E0,-1.194027424E0,-1.089232042E-1,-7.402250767E-1
1.079773186E0,-1.113600016E0,-2.703106403E-1,-9.723193645E-1
1.100041259E0,-9.191893935E-1,-4.322307110E-1,-8.451535702E-1
1.120309384E0,-5.539370775E-1,4.926844500E-3,-5.074649453E-1
1.140577509E0,-4.932170510E-1,3.719101548E-1,1.917474531E-2
1.160845634E0,-6.620613337E-1,1.289368510E0,9.872331023E-1
1.181113759E0,-5.214465261E-1,1.735580802E0,1.558081269E0
1.201381884E0,-4.617917836E-1,-2.053295672E-1,-2.119874656E-1
1.221649957E0,-5.848297477E-1,3.261038363E-1,-8.243808746E-1
1.241918082E0,-4.138549268E-1,9.177246094E-1,2.006690353E-1
1.262186207E0,-1.982721984E-1,1.091762066E0,4.020038545E-1
1.282454280E0,-6.423539519E-1,1.395894885E0,-3.902859688E-1
1.302722405E0,-6.508761048E-1,1.482713819E0,-5.633913279E-1
1.322990530E0,-5.166528821E-1,-2.356895804E-1,5.079975724E-1
1.343258655E0,-2.675143182E-1,-1.619067550E0,1.397226453E0
1.363526728E0,-1.918806136E-1,-1.445030093E0,1.288569570E0
1.383794853E0,-1.119858399E-1,-7.868303657E-1,9.185235500E-1
1.404062926E0,-3.424822688E-1,-5.732449889E-1,4.265049398E-1
1.424331051E0,-7.819035053E-1,1.838911325E-1,1.091895252E-1
1.444599176E0,-4.266380966E-1,7.376950979E-1,-8.575372398E-2
1.464867249E0,-1.093226820E-1,9.741836190E-1,-8.042740822E-2
1.485135322E0,-2.083922029E-1,1.069524646E0,-2.210422009E-1
1.505403447E0,-3.121222556E-1,1.871401906E0,-5.910881758E-1
1.525671572E0,-3.930822909E-1,3.037066698E0,-9.504814744E-1
1.545939645E0,-3.600591123E-1,4.448141575E0,-1.177915215E0
1.566207770E0,-2.806969583E-1,5.651090622E0,-1.641704440E0
1.586475895E0,6.111950055E-2,6.018473148E0,-1.957022429E0
1.606743968E0,5.275717974E-1,5.492898941E0,-1.762611866E0
1.627012093E0,7.784414291E-1,4.468914032E0,-1.174719453E0
1.647280166E0,1.082973599E0,2.838927507E0,-3.749727905E-1
1.667548291E0,1.472194314E0,5.704486966E-1,4.424838722E-1
1.687816364E0,2.026530981E0,-1.084971070E0,1.668868661E0
1.708084489E0,2.418547869E0,-2.019606590E0,2.106026173E0
1.728352561E0,2.142644644E0,-3.201782942E0,2.014413595E0
1.748620686E0,1.577122808E0,-3.222555637E0,1.508013844E0
1.768888759E0,1.146889448E0,-2.873149157E0,8.098666668E-1
1.789156884E0,1.006807327E0,-2.794852257E0,4.376901984E-1
1.809425009E0,1.028645158E0,-2.676208496E0,3.727091253E-1
1.829832926E0,1.082440972E0,-2.375804186E0,6.507429481E-1
1.850109697E0,1.196956873E0,-2.494581223E0,9.606015086E-1
1.870222457E0,1.244893670E0,-2.703772306E0,1.435575962E0
1.890491989E0,1.299754858E0,-2.802309275E0,1.740241289E0
1.910761207E0,1.362472177E0,-2.363553762E0,1.552222252E0
1.931030114E0,1.041960955E0,-1.392832160E0,8.673909307E-1
1.951298968E0,2.059953511E-1,-3.342264593E-1,2.384859025E-1
1.971567666E0,-1.753690243E-1,5.960150361E-1,-3.286338449E-1
1.991836207E0,6.106624007E-1,1.221191645E0,-1.030376315E0
2.012104697E0,1.488705993E0,1.325587392E0,-1.611344457E0
2.032373134E0,1.753423929E0,1.129046321E0,-1.822799206E0
2.052641416E0,2.189516306E0,1.520530701E0,-1.882986665E0
2.072909749E0,2.522810698E0,1.789909244E0,-1.971936107E0
2.093178082E0,2.741722345E0,1.805355549E0,-1.845169783E0
2.113446311E0,2.888728619E0,2.104694605E0,-1.383511186E0
2.133714541E0,3.206044197E0,1.956622958E0,-1.031974196E0
2.153982718E0,3.714574337E0,1.875130296E0,-8.653935790E-1
2.174250947E0,3.311505079E0,1.846900821E0,-7.636608481E-1
2.194519124E0,3.287004232E0,1.626923919E0,-5.245091915E-1
2.214787301E0,3.271557808E0,1.589240193E0,-3.934817612E-1
2.235055426E0,2.556899071E0,1.539705396E0,-4.233091474E-1
2.255323603E0,2.014812946E0,1.585511804E0,-6.331660748E-1
2.275591728E0,1.761946082E0,1.309608459E0,-7.290397882E-1
2.295859957E0,1.352352142E0,6.593981981E-1,-5.942839384E-1
2.316128030E0,1.028112531E0,4.187817574E-1,-5.644565821E-1
2.336396259E0,4.146538675E-1,4.624575675E-1,-6.496776342E-1
2.356664436E0,-3.094590902E-1,6.924213767E-1,-8.014777303E-1
2.376932561E0,-4.884233773E-1,8.932235837E-1,-1.222123742E0
2.397200686E0,-6.466150284E-1,9.773793817E-1,-1.282311082E0
2.417468811E0,-1.525191188E0,8.996151686E-1,-7.119956017E-1
2.437736936E0,-2.845851898E0,6.151897311E-1,-2.609895915E-2
2.458005114E0,-3.792072296E0,2.254364192E-1,2.848248780E-1
2.478273291E0,-4.045471668E0,4.496744275E-1,4.323638678E-1
2.498541416E0,-4.238817215E0,6.498108506E-1,5.021386743E-1
2.518809541E0,-4.328299522E0,7.478150725E-1,4.078628123E-1
2.539077718E0,-3.889543772E0,1.228115797E0,4.579302073E-1
2.559345895E0,-3.239866257E0,1.625326037E0,4.515386224E-1
2.579745895E0,-2.888462305E0,1.421993852E0,2.507364154E-1
2.599882197E0,-2.433594704E0,8.580698371E-1,3.300985694E-1
2.620150322E0,-1.412273288E0,6.636592746E-1,6.379597783E-1
2.640418499E0,-3.046653867E-1,1.010402560E0,4.078628123E-1
2.660818499E0,1.671132296E-1,1.972069263E0,-4.973449707E-1
2.680954801E0,2.336922139E-1,2.776077032E0,-1.485110641E0
2.701354801E0,5.797697306E-1,2.621214390E0,-1.928260326E0
2.721491155E0,6.367613673E-1,1.906023026E0,-1.505883336E0
2.741891155E0,-6.191844866E-2,1.312271595E0,-6.267744899E-1
2.762027457E0,-6.870950460E-1,5.667202473E-1,7.456845604E-3
2.782295634E0,-3.813643754E-1,-3.736412227E-1,1.012000442E-1
2.802563811E0,-1.087900475E-1,-3.688475490E-1,1.713742912E-1
2.822831936E0,1.671132296E-1,-8.257125020E-1,4.121238589E-1
2.843100114E0,4.466117918E-1,-1.408278584E0,4.190480709E-1
2.863368291E0,3.656517565E-1,-2.255429506E0,2.800311744E-1
2.883636416E0,-1.476721764E-1,-2.403501034E0,-5.665870905E-1
2.903904645E0,1.532648057E-1,-2.516951561E0,-1.905889869E0
2.924172822E0,3.965443969E-1,-2.584063292E0,-2.458095789E0
2.944440999E0,7.582014203E-1,-2.266614676E0,-1.996836662E0
2.964709176E0,9.508809447E-1,-2.006823540E0,-7.785745859E-1
2.984977353E0,7.811045647E-1,-1.677124500E0,5.404881239E-1
3.005245530E0,3.102580309E-1,-8.230493069E-1,6.438187361E-1
3.025513707E0,1.239700541E-1,4.294344187E-1,3.355580568E-2
3.045781884E0,3.075948656E-1,9.779120088E-1,-6.432861090E-1
3.066050061E0,9.940241575E-1,6.290381551E-1,-7.114629745E-1
3.086450061E0,1.427453279E0,-4.074633494E-2,-6.848313808E-1
3.106586364E0,1.588840723E0,-6.578002870E-2,-1.015462518E0
3.126986364E0,1.967408776E0,6.937529147E-2,-1.643834949E0
3.147122770E0,2.290716410E0,3.138532937E-1,-2.028261900E0
3.167390947E0,2.380198479E0,5.624592304E-1,-2.229596853E0
3.187659124E0,2.115480423E0,6.716487408E-1,-2.179529428E0
3.207927301E0,1.995105624E0,9.102677703E-1,-2.016011477E0
3.228195478E0,2.202299356E0,1.473659039E0,-1.790308714E0
3.248463655E0,2.391916275E0,1.892707229E0,-1.617203355E0
3.268731832E0,2.377535343E0,1.835715532E0,-1.492567539E0
3.289000009E0,2.362621546E0,1.703622937E0,-1.224254251E0
3.309268186E0,2.441850662E0,1.420928597E0,-1.109738350E0
3.329668186E0,1.969539285E0,7.270424366E-1,-1.139565825E0
3.349804541E0,1.366200566E0,1.929458827E-1,-1.247157454E0
3.370072718E0,5.121254921E-1,3.617901504E-1,-1.184306860E0
3.390340947E0,-4.383559823E-1,1.238369010E-2,-9.382309318E-1
3.410609176E0,-7.946866751E-1,-3.960117698E-1,-6.741787195E-1
3.430877353E0,-8.510124683E-1,-5.030707717E-1,-5.857618451E-1
3.451145530E0,-4.399538934E-1,-4.418180883E-1,-5.804355145E-1
3.471413707E0,-3.328948980E-3,-1.595232338E-1,-6.922882199E-1
3.491681884E0,2.145174593E-1,8.428898454E-2,-8.696545959E-1
3.511950114E0,2.267680019E-1,2.339585274E-1,-7.844334841E-1
3.532218291E0,2.788327634E-1,3.223754168E-1,-4.414186180E-1
3.552486468E0,4.018706977E-1,4.816323221E-1,-4.174501896E-1
3.572886468E0,3.752391040E-1,5.795034170E-1,-7.183871865E-1
3.593022874E0,2.751043439E-1,7.866972089E-1,-1.276984811E0
3.613291051E0,-3.848264739E-2,7.824361324E-1,-1.705087662E0
3.633559280E0,-2.689790726E-1,1.380847991E-1,-2.430931568E0
3.653967197E0,-6.285055280E-1,-1.004010960E-1,-2.682200670E0
3.674244228E0,-9.106672406E-1,-4.394212365E-2,-2.369146347E0
3.694356936E0,-1.154612660E0,6.298371404E-2,-1.552222252E0
3.714626520E0,-1.359542727E0,1.167795286E-1,-7.444861531E-1
3.734895843E0,-1.241431594E0,-4.093275666E-1,-2.343579978E-1
3.755164905E0,-8.094671965E-1,-1.078046799E0,5.326318368E-2
3.775433811E0,-2.137185186E-1,-1.074984193E0,-3.600591123E-1
3.795702614E0,1.378184855E-1,-5.195823312E-1,-1.160871029E0
3.815970739E0,2.926811874E-1,-1.206411049E-1,-1.877660275E0
3.836241364E0,-1.877527125E-2,4.704470634E-1,-1.436774373E0
3.856509541E0,-4.122570157E-1,6.876276731E-1,1.251684725E-1
3.876777718E0,-7.595329881E-1,4.992091656E-1,1.074052095E0
3.897045947E0,-7.382277250E-1,-1.217063740E-1,5.101281404E-1
3.917314124E0,-3.249054253E-1,-8.827040792E-1,-4.233091474E-1
3.937582353E0,1.531316526E-2,-1.356080651E0,-7.210503221E-1
3.957850582E0,1.850895584E-2,-1.324122667E0,-1.890842915E-1
3.978118811E0,-2.648511827E-1,-6.542050242E-1,-2.130527236E-2
3.998386989E0,-4.223770201E-1,6.524739787E-3,-3.627222776E-1
4.018655218E0,-4.218443930E-1,1.025316212E-2,-4.169175625E-1
4.038923447E0,-4.122570157E-1,-5.078644156E-1,-5.878923535E-1
4.059191676E0,-4.612591565E-1,-1.096156240E0,-6.853640079E-1
4.079459905E0,-5.912213326E-1,-1.474857569E0,-7.844334841E-1
4.099728134E0,-7.243793011E-1,-1.522794366E0,-9.339699149E-1
4.119996364E0,-6.748445034E-1,-1.238368988E0,-1.156610012E0
4.140264541E0,-6.013413072E-1,-8.805735707E-1,-1.659281254E0
4.160532770E0,-4.372907281E-1,-1.118526816E0,-1.470729589E0
4.180800999E0,-1.402153224E-1,-1.584047079E0,-1.332378507E0
4.201069228E0,-9.494162351E-2,-2.541985273E0,-1.497361183E0
4.221337457E0,1.170458421E-1,-3.218294621E0,-8.099998236E-1
4.241605739E0,4.689823091E-1,-2.030259371E0,-2.162485123E-1
4.261873968E0,2.352901101E-1,-1.017459989E0,3.396859467E-1
4.282142197E0,-2.435459048E-1,-2.308958918E-1,9.893636107E-1
4.302410426E0,-7.291729450E-1,4.299670458E-1,1.110803604E0
4.322678603E0,-8.659262061E-1,3.037332892E-1,4.014712274E-1
4.342946936E0,-6.167876720E-1,-1.126516312E-1,-1.933453530E-1
4.363215166E0,-3.009369671E-1,9.720530361E-3,-1.741705984E-1
4.383483395E0,1.644500792E-1,6.865624189E-1,-6.444845349E-2
4.403751624E0,7.278413773E-1,1.569532871E0,7.403582335E-2
4.424019905E0,1.041428328E0,2.885266542E0,5.948165655E-1
4.444288134E0,1.026514649E0,3.804855347E0,6.757766008E-1
4.464556364E0,1.088832617E0,3.709647417E0,3.593933284E-1
4.484824645E0,1.169260025E0,3.149984598E0,2.933469713E-1
4.505092874E0,9.269125462E-1,2.690855980E0,8.567382693E-1
4.525361103E0,3.470096290E-1,2.172205687E0,1.485110641E0
4.545629384E0,4.660528619E-3,1.224387407E0,1.414270639E0
4.565897614E0,5.467465520E-1,9.672594070E-1,1.129179448E-1
4.586165843E0,7.736477256E-1,5.491434336E-1,-4.163849354E-1
4.606434124E0,1.910816729E-1,-1.403484792E-1,-5.486107618E-2
4.626702353E0,-4.426170290E-1,-6.669881940E-1,3.103911877E-1
4.646970582E0,-6.807034612E-1,-1.241564751E0,4.206459820E-1
4.667238864E0,-6.295707822E-1,-1.490303874E0,3.737743795E-1
4.687507093E0,-5.065328479E-1,-1.277251124E0,2.166479975E-1
4.707775322E0,-3.840275407E-1,-6.797713637E-1,2.503369562E-2
4.728043603E0,-2.675143182E-1,-3.115896136E-2,-7.936213911E-2
4.748311832E0,-1.588574350E-1,1.572595388E-1,-2.716422267E-2
4.768580114E0,-5.020054802E-2,-9.853689000E-3,8.735162020E-2
4.788848343E0,3.129211813E-2,-4.074633494E-2,1.267663687E-1
4.809124541E0,9.946899116E-2,9.653951973E-2,6.924213469E-2
4.829462041E0,1.612542868E-1,2.046637833E-1,1.118526794E-2
4.849651989E0,1.942774504E-1,2.025332451E-1,1.864211448E-2
4.869920166E0,1.735048145E-1,1.599227041E-1,3.195790946E-2
4.890320374E0,8.934898674E-2,1.173121557E-1,2.024000883E-2
4.910457093E0,-1.557948068E-2,2.942790836E-2,1.810948178E-2
4.930725530E0,-9.440898895E-2,-1.014663652E-1,6.924213842E-3
4.950993916E0,-8.428898454E-2,-9.667267650E-2,-4.633896798E-2
4.971262301E0,6.245108247E-1,1.447560072E0,-1.257277369E0
4.991530582E0,9.823062420E-1,1.218528390E0,-2.698179722E0
5.011798864E0,7.352982163E-1,1.865542978E-1,-3.169425726E0
5.032067197E0,4.391549230E-1,1.824264042E-2,-2.546912193E0
5.052335478E0,1.500690132E-1,-4.226433635E-1,-1.718936086E0
5.072603811E0,3.075948730E-2,-1.020655751E0,-9.440898895E-1
5.092872041E0,3.086601496E-1,-1.087634206E0,-5.362271070E-1
5.113272041E0,3.571296334E-1,-9.482178092E-1,8.522108942E-2
5.133408603E0,7.550056279E-2,-3.273022473E-1,2.693785429E-1
5.153676780E0,-4.197138846E-1,-1.408811212E-1,9.587372839E-2
5.173945061E0,-7.004108429E-1,-4.301002026E-1,9.693899006E-2
5.194213291E0,-7.558045387E-1,-9.945567846E-1,-2.183790505E-2
5.214481624E0,-7.089329362E-1,-1.614273906E0,-1.704421788E-1
5.234749853E0,-6.380929351E-1,-1.640372872E0,-3.201117218E-1
5.255018134E0,-5.230444670E-1,-1.056874633E0,-2.471411675E-1
5.275286364E0,-3.813643754E-1,-8.880304098E-1,-1.651158631E-1
5.295554593E0,-1.492700726E-1,-9.807083607E-1,-3.621896356E-2
5.315822874E0,1.713742912E-1,-4.721781015E-1,2.320943177E-1
5.336091103E0,3.651190996E-1,4.917523265E-1,2.651174963E-1
5.356359384E0,2.113216817E-1,2.307627350E-1,-8.841688186E-2
5.376627614E0,1.692437679E-1,-8.534093499E-1,-4.121238589E-1
5.396895843E0,2.667153776E-1,-1.372059584E0,-3.744401634E-1
5.417164124E0,1.612542868E-1,-1.213867903E0,-3.344927728E-1
5.437432353E0,-2.440785319E-1,-1.552621722E0,-7.199850678E-1
5.457700582E0,-5.720465779E-1,-2.348107338E0,-1.447959661E0
5.477968864E0,-4.426170290E-1,-2.398174763E0,-1.289767981E0
5.498237093E0,-1.434111148E-1,-1.769802332E0,-3.552654386E-1
5.518505322E0,-3.041327596E-1,-1.283642650E0,-4.261054471E-2
5.538773603E0,-2.785664499E-1,-3.518033028E-1,-9.534109384E-2
5.559041832E0,-1.375521719E-1,4.965460002E-1,3.711112142E-1
5.579310061E0,-2.977411747E-1,8.410256505E-1,5.756418109E-1
5.599578291E0,-3.456780612E-1,9.720530510E-1,3.599259555E-1
5.619846572E0,-3.760380745E-1,4.826975763E-1,2.427469492E-1
5.640114801E0,-3.808317482E-1,1.482048035E-1,2.896185517E-1
5.660383030E0,-7.736477256E-2,5.416865349E-1,4.707133770E-1
5.680651259E0,4.514054656E-1,1.699361801E0,5.335639119E-1
5.700919541E0,1.027047276E0,3.278215647E0,3.844270110E-1
5.721187770E0,1.336506367E0,4.249070168E0,2.475406379E-1
5.741455999E0,1.294428468E0,3.945470095E0,1.118526831E-1
5.761724228E0,9.764472842E-1,2.597778559E0,-5.006739125E-2
5.781992457E0,5.882918239E-1,8.165245652E-1,-1.699095517E-1
5.802260686E0,3.342264593E-1,-6.371608377E-1,-1.352884769E-1
5.822528916E0,2.624543309E-1,-1.404550076E0,-2.024000883E-2
5.842797145E0,2.027995586E-1,-1.462607026E0,-1.065263641E-3
5.863065426E0,8.455529809E-2,-1.033971548E0,-5.539371073E-2
5.883333655E0,-3.422159329E-2,-3.480748832E-1,-6.391581893E-2
5.903733655E0,-1.103879437E-1,1.945437789E-1,5.060002208E-2
5.923870114E0,-2.051964104E-1,3.841606975E-1,9.374319762E-2
5.944138343E0,-3.020022511E-1,1.013332009E-1,8.628635854E-2
5.964406572E0,-1.961416751E-1,-6.158555150E-1,8.362319320E-2
5.984674801E0,1.607216448E-1,-1.131842613E0,1.219726875E-1
6.004943030E0,4.322307110E-1,-8.251798749E-1,1.623195410E-1
6.025211259E0,6.852308512E-1,-1.110537350E-1,1.841574460E-1
6.045479489E0,8.997483253E-1,5.715139508E-1,1.352884769E-1
6.065747770E0,1.000415683E0,1.019457340E0,4.900212586E-2
6.086015947E0,1.010003090E0,1.205745339E0,-5.858949851E-3
6.106284176E0,9.002809525E-1,1.147688389E0,-3.302317113E-2
6.126552405E0,6.111950278E-1,8.415582776E-1,-8.255793154E-2
6.146820634E0,2.814959288E-1,4.592617750E-1,-1.581916511E-1
6.167088864E0,-1.731053460E-3,7.203845680E-2,-1.166463718E-1
6.187357093E0,-1.988048255E-1,-2.420811653E-1,4.580633715E-2
6.207625322E0,-2.812296152E-1,-3.161169887E-1,1.884185076E-1
6.227893551E0,-2.950780392E-1,-2.042642981E-1,6.817687303E-2
6.248161780E0,-3.526022732E-1,-1.989379823E-1,-1.800295562E-1
6.268430009E0,-4.538023174E-1,-2.431464195E-1,-1.693769246E-1
6.288698239E0,-5.273054838E-1,-1.728390306E-1,-2.237053663E-1
6.308966416E0,-5.704486966E-1,-1.057274193E-1,-2.806969583E-1
6.329234697E0,-5.779055357E-1,-8.815056831E-2,-3.137201369E-1
6.349502926E0,-5.773729086E-1,-5.832318589E-2,-2.950780392E-1
6.369771103E0,-5.539370775E-1,-2.849580161E-2,-2.657832801E-1
6.390039332E0,-5.166528821E-1,2.250369452E-2,-2.636527419E-1
6.410307561E0,-4.596612751E-1,2.057290375E-1,-2.450106442E-1
6.430575791E0,-3.760380745E-1,3.149185777E-1,-1.539305896E-1
6.450844020E0,-2.105227262E-1,3.106575012E-1,-1.576590240E-1
6.471112249E0,1.399490088E-1,1.611211337E-2,-2.514022291E-1
6.491380426E0,4.093275666E-1,-7.516766787E-1,-2.604569495E-1
6.511648655E0,3.912180662E-1,-1.301752210E0,-1.869537681E-1
6.531916884E0,2.203764170E-1,-1.416267991E0,-1.203747913E-1
6.552185114E0,4.087949172E-2,-1.396560669E0,-2.609895915E-2
6.572453291E0,-7.097318769E-2,-1.353417397E0,2.769685537E-2
6.592721468E0,-1.093226820E-1,-1.249021649E0,-1.651158556E-2
6.612989749E0,-1.322258562E-1,-1.103080511E0,-5.539371073E-2
6.633257926E0,-1.641837656E-1,-9.881651998E-1,3.249054030E-2
6.653526155E0,-2.414153665E-1,-8.033419251E-1,2.118543088E-1
6.673794384E0,-3.845601678E-1,-5.137233734E-1,3.471427858E-1
6.694062561E0,-4.916191697E-1,-1.222390011E-1,4.142543972E-1
6.714330791E0,-5.656549931E-1,2.392848432E-1,4.009386003E-1
6.734599020E0,-6.322339773E-1,4.720449448E-1,3.269027770E-1
6.754867197E0,-7.227813601E-1,5.364934206E-1,1.761679798E-1
6.775135426E0,-7.355645299E-1,1.945437789E-1,-6.338318437E-2
6.795403603E0,-4.165180922E-1,-6.675208211E-1,-4.030691385E-1
6.815671832E0,-6.351634115E-2,-1.125983715E0,-5.862944722E-1
6.835940061E0,8.388951421E-3,-7.213166356E-1,-5.735113025E-1
6.856208239E0,-6.564687192E-2,-1.163800508E-1,-4.105259776E-1
6.876476468E0,-1.945437789E-1,3.032006621E-1,-5.645897239E-2
6.896744593E0,-4.042675495E-1,5.981455445E-1,3.295659423E-1
6.917012874E0,-6.034718752E-1,8.223835230E-1,5.490102768E-1
6.937281051E0,-7.275750637E-1,8.926909566E-1,6.086649895E-1
6.957549280E0,-7.392929792E-1,7.206508517E-1,4.488754570E-1
6.977817457E0,-6.737792492E-1,2.632532716E-1,4.420844093E-2
6.998085686E0,-6.061350107E-1,-2.862896025E-1,-4.701807499E-1
7.018353864E0,-6.189181805E-1,-7.197187543E-1,-7.865640521E-1
7.038622093E0,-6.274402738E-1,-7.974829674E-1,-8.478167057E-1
7.058890270E0,-5.432844758E-1,-3.214432895E-1,-7.961513996E-1
7.079158499E0,-4.458128214E-1,5.986781716E-1,-7.562040091E-1
7.099426676E0,-2.531332672E-1,1.486974835E0,-8.494145870E-1
7.119694853E0,9.759146571E-1,6.322339773E-1,-1.069790959E0
7.139963082E0,3.043591499E0,-9.695230722E-1,-5.799028873E-1
7.160231259E0,4.223104477E0,-4.961465299E-1,2.876211889E-2
7.180499436E0,4.269976139E0,1.032773137E0,5.154544711E-1
7.200767666E0,3.040395498E0,2.687793255E0,1.033039451E0
7.221035843E0,1.606417537E0,2.805371761E0,1.314668536E0
7.241435843E0,-1.641837656E-1,1.837846041E0,2.456364870E0
7.261572197E0,-1.591770172E0,1.098153710E0,3.932953358E0
7.281840426E0,-2.024666786E0,-1.659148186E-1,3.853191853E0
7.302108603E0,-1.004410505E0,-1.484977484E0,3.599126339E0
7.322376832E0,4.482096732E-1,-2.084587812E0,3.827625513E0
7.342645009E0,1.283775806E0,-2.008421421E0,3.522959948E0
7.362913186E0,1.508945942E0,-1.841707706E0,2.655036449E0
7.383181364E0,1.586710215E0,-1.655286551E0,1.686445475E0
7.403449541E0,1.526522756E0,-1.080177307E0,6.310355663E-1
7.423717718E0,1.264068484E0,-3.592601717E-1,-3.888212144E-2
7.443985947E0,7.640603185E-1,-5.062665343E-1,1.735048145E-1
7.464254072E0,2.651174963E-1,-2.133190483E-1,1.836248189E-1
7.484522301E0,-6.245107949E-2,5.400886536E-1,8.415582776E-2
7.504790478E0,-2.721748650E-1,1.100816846E0,-2.524674833E-1
7.525058655E0,-5.203812718E-1,1.415069580E0,-7.673892975E-1
7.545326832E0,-1.080044150E0,2.140913486E0,-1.357944846E0
7.565595009E0,-1.788311362E0,2.591387033E0,-1.549026489E0
7.585863186E0,-1.472460628E0,2.811230659E0,-4.856270552E-1
7.606131364E0,-1.967675090E0,1.068992019E0,-4.930838943E-1
7.626399541E0,-1.074717879E0,-1.057940006E0,-1.916542411E0
7.646667666E0,-2.838927507E-1,-8.651272058E-1,-2.628404856E0
7.666935791E0,-9.068056941E-2,-2.127864063E-1,-3.161968708E0
7.687203968E0,3.502054140E-2,5.819002539E-2,-3.267962456E0
7.707472145E0,1.063932031E-1,1.221058443E-1,-3.164631844E0
7.727740322E0,1.229047924E-1,9.653951973E-2,-2.953842878E0
7.748008499E0,1.074584723E-1,-2.849580161E-2,-2.583131075E0
7.768276624E0,1.255679578E-1,-1.121189967E-1,-2.106558800E0
7.788544801E0,2.624543309E-1,1.025316212E-2,-1.724794984E0
7.808812978E0,4.822981060E-1,2.510027587E-1,-1.336106896E0
7.829081155E0,3.613906801E-1,1.604553312E-1,-9.058735967E-1
7.849349280E0,-2.870885432E-1,-3.374222517E-1,-6.720482111E-1
7.869617457E0,-1.012932539E0,-7.948198318E-1,-6.720482111E-1
7.889885634E0,-6.301034689E-1,-7.713840604E-1,-6.267744899E-1
7.910153759E0,-1.854890287E-1,-1.097221494E0,-3.940143883E-1
7.930421936E0,-1.984053478E-2,-1.321992159E0,1.272990108E-1
7.950690114E0,-7.470161468E-2,-1.417333245E0,6.289049983E-1
7.970958291E0,-3.408843577E-1,-1.247956395E0,8.615319729E-1
7.991226416E0,-5.901560783E-1,-8.784430027E-1,9.036098719E-1
8.011494593E0,-7.632613778E-1,-3.443464637E-1,9.126646519E-1
8.031762718E0,-8.643282652E-1,2.781669796E-1,9.930920005E-1
8.052030895E0,-8.962861896E-1,8.969519734E-1,1.017060518E0
8.072299020E0,-8.920251131E-1,1.336240053E0,8.317046165E-1
8.092567197E0,-8.723177910E-1,1.354349613E0,5.032039285E-1
8.112835322E0,-8.760461807E-1,8.543414474E-1,3.781685978E-2
8.133103499E0,-7.329013944E-1,-5.217128396E-1,-8.350335360E-1
8.153503499E0,-1.988048255E-1,-2.962631226E0,-1.410142779E0
8.173639801E0,4.854938984E-1,-4.479167461E0,-1.033039451E0
8.193907926E0,8.629966974E-1,-3.846533775E0,-3.685812056E-1
8.214176103E0,1.115464211E0,-1.274587989E0,1.454084814E-1
8.234444228E0,2.233724594E0,2.446111590E-1,3.162501454E-1
8.254712353E0,3.522294283E0,1.210538983E0,4.701807499E-1
8.274980530E0,4.098468781E0,2.159955263E0,5.234439373E-1
8.295248655E0,3.774761677E0,2.638791084E0,5.202481151E-1
8.315516780E0,2.645848513E0,2.263818502E0,7.315698266E-1
8.335784905E0,6.862961054E-1,8.932235837E-1,1.753024459E0
8.356053082E0,-1.099218965E0,4.358259737E-1,3.241863489E0
8.376321207E0,-1.921336174E0,9.560741186E-1,3.189665556E0
8.396589332E0,-1.014530420E0,3.426154256E-1,2.756769180E0
8.416857457E0,8.050730228E-1,-9.018788338E-1,2.935600281E0
8.437125582E0,1.815209270E0,-1.257011056E0,2.988330841E0
8.457393707E0,1.846634507E0,-1.143560529E0,2.419080496E0
8.477661832E0,1.511076450E0,-1.168594241E0,1.903626084E0
8.497929957E0,9.487504363E-1,-9.961546659E-1,1.463272810E0
8.518198134E0,3.480748832E-1,-4.508728385E-1,1.043691993E0
8.538466259E0,-1.344895363E-2,-2.569948435E-1,4.067975581E-1
8.558734384E0,-2.025332451E-1,-1.371526867E-1,-3.110569715E-1
8.579002509E0,-3.291664720E-1,4.380896688E-2,-7.167892456E-1
8.599270582E0,-3.371559381E-1,5.960150361E-1,-1.106009960E0
8.619538707E0,-3.989412189E-1,1.342099071E0,-1.601757050E0
8.639806832E0,-7.978824377E-1,1.929458737E0,-1.811614037E0
8.660074957E0,-1.604020715E0,2.527471066E0,-1.239167929E0
8.680343082E0,-2.747847557E0,2.517351151E0,-1.938779801E-1
8.700611207E0,-2.048635244E0,1.615206003E0,-1.016527772E0
8.720879332E0,-6.753771305E-1,-1.277783751E0,-1.830256104E0
8.741147405E0,-1.695100814E-1,-1.373124838E0,-2.566619635E0
8.761415530E0,-3.712443709E-1,-4.231759906E-1,-2.949049234E0
8.781683655E0,-5.198486447E-1,-5.459476262E-2,-2.912297726E0
8.801951728E0,-6.940192580E-1,1.178447902E-1,-2.738126993E0
8.822219853E0,-9.559409618E-1,3.197122514E-1,-2.539988041E0
8.842487978E0,-1.194027424E0,4.155859649E-1,-2.284990549E0
8.862756103E0,-1.268595815E0,4.752407372E-1,-1.939445615E0
8.883024176E0,-9.847030640E-1,6.311687231E-1,-1.658748627E0
8.903424176E0,-3.973433375E-1,6.476802826E-1,-1.328117490E0
8.923560374E0,1.585911214E-1,4.091944098E-1,-9.096019864E-1
8.943828499E0,1.905490309E-1,3.688475490E-2,-6.832334399E-1
8.964096572E0,-3.600591123E-1,-3.129211962E-1,-5.037365556E-1
8.984364697E0,-8.739156723E-1,-7.426218987E-1,-2.865559161E-1
9.004632770E0,-8.115977645E-1,-1.272457361E0,-7.190529257E-2
9.024900895E0,-2.685796022E-1,-1.346493244E0,9.587372653E-3
9.045168968E0,1.740374416E-1,-1.073386312E0,1.278316379E-1
9.065437093E0,3.070622385E-1,-6.659229398E-1,3.902859688E-1
9.085705166E0,2.059953511E-1,-3.012032807E-1,6.715155840E-1
9.105973239E0,3.715106845E-2,4.860265180E-2,8.151929975E-1
9.126241364E0,-1.034637317E-1,4.672512710E-1,8.029424548E-1
9.146509436E0,-2.483395934E-1,9.017456770E-1,7.400919199E-1
9.166777509E0,-4.639223218E-1,1.354882240E0,6.880271435E-1
9.187045582E0,-7.334340215E-1,1.646631241E0,6.736460924E-1
9.207313707E0,-8.851009011E-1,1.451288581E0,6.352965832E-1
9.227581780E0,-9.037430286E-1,7.041392922E-1,4.302333593E-1
9.247849853E0,-8.840356469E-1,-1.861548275E-1,-7.989477366E-2
9.268117926E0,-8.174566627E-1,-7.692534924E-1,-7.684545517E-1
9.288386051E0,-4.926844239E-1,-1.274587989E0,-1.022919416E0
9.308654124E0,7.656582445E-2,-2.051032066E0,-8.355661631E-1
9.328922145E0,7.731150985E-1,-3.016959906E0,-7.434208393E-1
9.349190270E0,1.337571621E0,-3.351851940E0,-6.992124319E-1
9.369458343E0,2.004160404E0,-2.573410749E0,-1.448758543E-1
9.389726416E0,3.289134741E0,-1.030243158E0,2.528669536E-1
9.409994489E0,4.518182755E0,1.386307478E0,3.886880577E-1
9.430262561E0,4.728438854E0,3.867706060E0,3.966775537E-1
9.450530634E0,3.777424812E0,4.622844696E0,2.310290486E-1
9.470798707E0,1.488705993E0,3.080742359E0,7.619298100E-1
9.491066780E0,-1.509212255E0,1.031175256E0,2.382861614E0
9.511334853E0,-2.867689610E0,1.157808423E0,3.145457268E0
9.531602926E0,-2.021471024E0,5.390233994E-1,2.766356468E0
9.551870999E0,4.940159991E-2,-3.896201849E-1,2.753040791E0
9.572139072E0,1.437573314E0,-1.123853087E0,2.954242468E0
9.592407145E0,1.500956416E0,-1.063798904E0,2.594849110E0
9.612807145E0,1.020655751E0,-1.094558358E0,1.993640900E0
9.632943239E0,7.507445216E-1,-1.399223804E0,1.286971688E0
9.653211259E0,7.582014203E-1,-1.205345869E0,6.336987019E-1
9.673479384E0,7.784414291E-1,-2.553969622E-1,-5.645897239E-2
9.693747457E0,2.820285559E-1,6.668550372E-1,-1.629853398E-1
9.714015530E0,-4.953475893E-1,7.121287584E-1,-1.763011366E-1
9.734283603E0,-8.914924860E-1,1.153014779E0,-7.034734488E-1
9.754551624E0,-1.013465166E0,1.969938755E0,-1.208275318E0
9.774819645E0,-1.096555710E0,2.769685507E0,-1.038365722E0
9.795087770E0,-1.971936107E0,3.402318954E0,1.331579536E-1
9.815355843E0,-2.750510693E0,2.719618082E0,-4.605933726E-1
9.835623916E0,-1.644500732E0,-1.802958697E-1,-9.898962379E-1
9.855891989E0,-4.937497079E-1,-1.254880548E0,-1.477653861E0
9.876160009E0,8.615319431E-2,-9.455546141E-1,-2.242912531E0
9.896428082E0,1.793637723E-1,-5.323655009E-1,-2.758367062E0
9.916696103E0,-8.122635074E-3,-4.860265255E-1,-2.808967113E0
9.936964176E0,-3.281011879E-1,-5.014728308E-1,-2.603371143E0
9.957232249E0,-7.499455810E-1,-2.916159332E-1,-2.693385839E0
9.977500270E0,-1.087501049E0,-3.382211924E-2,-2.959701777E0
9.997768343E0,-1.025183082E0,2.073269337E-1,-3.099650860E0
1.001803636E1,-5.262402296E-1,4.028028250E-1,-2.770617485E0
1.003830444E1,3.496727943E-1,1.482048035E-1,-1.831853986E0
1.005857251E1,1.070190430E0,-5.179844499E-1,-6.715155840E-1
1.007884053E1,9.801757336E-1,-1.163800478E0,-1.033305749E-1
1.009910860E1,2.490053698E-2,-1.262870073E0,-1.272990108E-1
1.011937662E1,-7.914909124E-1,-9.199883342E-1,-1.752358675E-1
1.013964464E1,-7.430213690E-1,-4.285022914E-1,-5.912213027E-2
1.015991272E1,-2.430132627E-1,-3.464770019E-1,2.363553643E-1
1.018018074E1,1.378184855E-1,-5.870934129E-1,4.984102249E-1
1.020044876E1,2.358227372E-1,-7.617966533E-1,6.880271435E-1
1.022071683E1,1.894837767E-1,-6.675208211E-1,7.661908865E-1
1.024098485E1,1.548627019E-1,-2.745717168E-1,7.454182506E-1
1.026125287E1,3.661843762E-2,4.640554786E-1,6.896250248E-1
1.028152095E1,-2.339585274E-1,1.215865254E0,6.251766086E-1
1.030178897E1,-5.560676455E-1,1.926262975E0,5.559344888E-1
1.032205699E1,-7.504782081E-1,2.123336792E0,5.458144546E-1
1.034232501E1,-8.776440620E-1,1.592435956E0,4.472775757E-1
1.036259308E1,-8.946883082E-1,3.942807019E-1,1.846900880E-1
1.038286110E1,-8.605998755E-1,-9.615336061E-1,-2.002695650E-1
1.040312912E1,-7.270424366E-1,-1.954625607E0,-5.969471335E-1
1.042339715E1,-4.937497079E-1,-2.504168510E0,-6.576671600E-1
1.044366517E1,-3.142527640E-1,-2.803907156E0,-5.330312848E-1
1.046393324E1,-7.949529588E-2,-2.942391396E0,-2.391516864E-1
1.048420126E1,6.420876384E-1,-3.458910942E0,-1.848232448E-1
1.050446928E1,1.856754541E0,-2.974881887E0,-3.881554306E-1
1.052473730E1,3.116029263E0,-1.383777499E0,-3.833617568E-1
1.054500532E1,4.033620834E0,9.033435583E-1,-1.033305749E-1
1.056527334E1,4.084087849E0,3.132940292E0,9.800425172E-2
1.058554136E1,3.274753571E0,4.292213440E0,1.294295341E-1
1.060580938E1,1.936516166E0,3.904457569E0,3.471427858E-1
1.062607740E1,-5.352949500E-1,1.508280158E0,1.316799045E0
1.064634543E1,-2.461291552E0,1.020522594E0,2.975014925E0
1.066661345E1,-2.295243740E0,2.939594984E0,3.266364574E0
1.068688147E1,-4.463454783E-1,1.698296547E0,2.332794189E0
1.070714949E1,1.213468432E0,-1.287371159E0,2.198704243E0
1.072741751E1,1.917341352E0,-2.287919998E0,2.386057377E0
1.074768553E1,1.753956556E0,-1.153680563E0,2.356230021E0
1.076795355E1,1.227316856E0,-6.631266326E-2,2.153430462E0
1.078822157E1,9.008135796E-1,-1.611211300E-1,1.869537711E0
1.080848959E1,7.677887678E-1,-6.962829232E-1,1.477653861E0
1.082875761E1,5.920202732E-1,-5.498092175E-1,8.727172613E-1
1.084902563E1,3.581948876E-1,-2.506032586E-1,1.219726875E-1
1.086929366E1,1.047953144E-1,-1.904158741E-1,-3.627222776E-1
1.088956168E1,-1.668469161E-1,-1.041295230E-1,-6.368945241E-1
1.090982970E1,-2.627206445E-1,3.447459340E-1,-9.829720259E-1
1.093009772E1,-2.275669426E-1,1.437972784E0,-1.000016212E0
1.095036574E1,-7.110635042E-1,3.098319292E0,-4.014712274E-1
1.097063376E1,-2.630136013E0,3.506714821E0,-1.171789970E-2
1.099090178E1,-2.472476959E0,1.488572836E0,-3.206443489E-1
1.101116980E1,-1.195092678E0,-1.430116415E0,-8.510124683E-1
1.103143782E1,-5.390233994E-1,-1.418398499E0,-1.559146523E0
1.105170584E1,-4.117243886E-1,-2.399506420E-1,-2.031457663E0
1.107197386E1,-5.928192139E-1,7.949529588E-2,-2.405897856E0
1.109224188E1,-8.829703927E-1,-1.675127149E-1,-2.604969025E0
1.111250991E1,-1.214267373E0,-2.420811653E-1,-2.826011181E0
1.113277793E1,-1.727058649E0,-3.134538233E-1,-3.056108236E0
1.115304590E1,-2.010285616E0,-2.175800949E-1,-3.075149775E0
1.117331392E1,-1.753690243E0,1.380847991E-1,-2.853175402E0
1.119358194E1,-8.499472141E-1,6.157223582E-1,-2.498043299E0
1.121384996E1,5.217128396E-1,8.101329803E-1,-1.762611866E0
1.123411793E1,1.638375521E0,6.221139431E-1,-8.520777822E-1
1.125438600E1,1.510011196E0,3.655185997E-1,-3.243727684E-1
1.127465402E1,-3.265033066E-1,2.009353489E-1,-2.125200927E-1
1.129492204E1,-1.563008070E0,-3.922833502E-1,-1.608548164E-1
1.131519001E1,-1.447959661E0,-7.857651114E-1,1.523326933E-1
1.133545808E1,-5.576655269E-1,-9.013462067E-1,4.083954394E-1
1.135572610E1,2.814959288E-1,-7.458177209E-1,4.989428520E-1
1.137599407E1,5.946834087E-1,-4.588623047E-1,5.090628862E-1
1.139626209E1,4.844286442E-1,-1.424790174E-1,5.005407333E-1
1.141653011E1,2.320943177E-1,1.066595241E-1,5.250418186E-1
1.143679813E1,9.454214945E-3,4.193144143E-1,6.134586930E-1
1.145706616E1,-9.653951973E-2,9.262467623E-1,5.106607676E-1
1.147733418E1,-1.593900770E-1,1.580718040E0,2.257027328E-1
1.149760214E1,-2.605901062E-1,1.718536615E0,5.326318368E-2
1.151787017E1,-4.703139067E-1,7.952193022E-1,1.070589945E-1
1.153813819E1,-9.207872748E-1,-4.087949097E-1,1.937448233E-1
1.155840621E1,-1.341033816E0,-1.269261599E0,2.278332561E-1
1.157867418E1,-1.274454832E0,-1.786846638E0,3.109238148E-1
1.159894220E1,-9.847030640E-1,-1.857686639E0,2.022669315E-1
1.161921022E1,-7.073350549E-1,-1.300154328E0,-1.965411454E-1
1.163947819E1,-4.889560044E-1,-3.645864725E-1,-3.526022732E-1
1.165974621E1,-2.222406268E-1,1.924132407E-1,-1.768337637E-1
1.168001423E1,4.609928429E-1,-9.279778004E-1,-1.358211190E-1
1.170028225E1,1.298156857E0,-2.357694864E0,-7.350318879E-2
1.172055022E1,2.150634050E0,-2.598444223E0,1.118526831E-1
1.174095022E1,2.961033344E0,-1.505217552E0,1.942774504E-1
1.176108626E1,3.460642099E0,6.119939685E-1,2.896185517E-1
1.178135423E1,3.451587439E0,2.719085455E0,2.193111479E-1
1.180162225E1,3.072886229E0,4.069573402E0,1.187768951E-1
1.182189022E1,2.350371122E0,4.443880558E0,1.315600574E-1
1.184215829E1,7.337003350E-1,3.089797258E0,5.830987096E-1
1.186255829E1,-1.834117651E0,3.271690905E-1,1.578321218E0
1.188269428E1,-9.889641404E-1,1.827726126E0,1.992043018E0
1.190309428E1,1.211337924E0,1.338370562E0,2.337055206E0
1.192323027E1,2.183657408E0,-1.818937659E-1,3.452120066E0
1.194349829E1,2.088316202E0,-1.462074369E-1,3.751991749E0
1.196376631E1,1.386440635E0,1.865542978E-1,3.374488831E0
1.198403428E1,1.004144192E0,-9.775125384E-1,2.733865976E0
1.200430230E1,8.406261802E-1,-1.849164486E0,1.880190372E0
1.202457027E1,8.150598407E-1,-1.100950003E0,9.408941269E-1
1.204483829E1,7.187866569E-1,-1.302284747E-1,-1.022653133E-1
1.206510626E1,3.949464858E-1,5.925529078E-2,-4.584628344E-1
1.208537428E1,-1.982721984E-1,9.920267761E-2,-6.006755233E-1
1.210564225E1,-6.258423924E-1,7.637940049E-1,-9.127978086E-1
1.212591027E1,-8.813725114E-1,2.048235655E0,-9.621993899E-1
1.214617829E1,-9.639304280E-1,3.578087330E0,-3.988080621E-1
1.216644626E1,-2.341049910E0,4.455598354E0,4.195807278E-1
1.218671428E1,-2.902310848E0,2.495513201E0,8.255793154E-2
1.220698225E1,-1.830921888E0,-8.086682558E-1,-6.118608117E-1
1.222725027E1,-7.307708859E-1,-1.201617360E0,-1.318530083E0
1.224751824E1,8.828372508E-2,-1.366200596E-1,-1.586310744E0
1.226778626E1,-1.451421715E-2,2.392848432E-1,-1.721066594E0
1.228805423E1,-7.062698007E-1,3.372890949E-1,-2.002162933E0
1.230832220E1,-1.320793748E0,6.013413072E-1,-2.339318991E0
1.232858626E1,-1.859683990E0,6.386255622E-1,-2.694983959E0
1.234881959E1,-2.282993078E0,6.295707822E-1,-2.774346113E0
1.236912668E1,-2.098702431E0,9.480846524E-1,-2.416018009E0
1.238939465E1,-1.208941102E0,8.426235318E-1,-2.000565052E0
1.240966251E1,-1.077247858E-1,7.310371846E-2,-1.737045527E0
1.242993043E1,7.629950643E-1,-7.426218987E-1,-1.627323389E0
1.245019834E1,1.251817942E0,-1.373124838E0,-1.494165421E0
1.247046631E1,1.321592689E0,-1.759682417E0,-1.259940624E0
1.249073423E1,6.687192321E-1,-1.524392247E0,-9.048082829E-1
1.251100214E1,-5.443497300E-1,-6.621944904E-1,-5.271723270E-1
1.253127017E1,-1.181244254E0,-1.472726911E-1,-2.455432713E-1
1.255153808E1,-9.378314614E-1,-1.680453420E-1,-7.563371956E-2
1.257180605E1,-2.988064587E-1,-5.673860312E-1,-4.474107176E-2
1.259207402E1,2.283658981E-1,-1.023318887E0,-2.450106293E-2
1.261234204E1,3.970770240E-1,-1.214933157E0,9.640636295E-2
1.263261001E1,2.905506492E-1,-1.158474207E0,3.274354041E-1
1.265300996E1,7.070687413E-2,-9.034767151E-1,5.996102691E-1
1.267314600E1,-1.173121557E-1,-4.727107286E-1,7.848330140E-1
1.269341397E1,-2.174469382E-1,1.471395344E-1,7.358308434E-1
1.271368194E1,-2.865559161E-1,9.193225503E-1,5.026713014E-1
1.273394996E1,-3.339601457E-1,1.468865395E0,3.018690944E-1
1.275421793E1,-3.904191256E-1,1.278715849E0,3.364901543E-1
1.277448590E1,-4.676507413E-1,3.111901283E-1,3.801659644E-1
1.279475386E1,-5.161202550E-1,-9.247819781E-1,3.039996028E-1
1.281502178E1,-5.944170952E-1,-1.846501350E0,1.187768951E-1
1.283528980E1,-6.908234954E-1,-2.216547251E0,-1.070589945E-1
1.285555777E1,-7.281076908E-1,-1.972735047E0,-3.446127772E-1
1.287582574E1,-6.008086801E-1,-1.112667918E0,-5.298355222E-1
1.289609371E1,-3.669833243E-1,3.581948951E-2,-5.005407333E-1
1.291636168E1,-1.178447902E-1,1.134905219E0,-4.424838722E-1
1.293662964E1,2.203764170E-1,1.676991343E0,-5.383576155E-1
1.295689761E1,1.209207416E0,-1.784316637E-2,-7.476819158E-1
1.297729761E1,2.411623716E0,-2.381130457E0,-4.771049619E-1
1.299743355E1,3.087267160E0,-3.003111362E0,3.530017436E-1
1.301770152E1,3.260905266E0,-1.545164943E0,1.176317334E0
1.303796949E1,3.547327995E0,1.342631698E0,1.405215859E0
1.305823746E1,3.130410433E0,4.138815403E0,1.016527772E0
1.307850543E1,1.933853030E0,5.194757938E0,4.584628344E-1
1.309877340E1,4.130559862E-1,4.389019489E0,2.549974918E-1
1.311904136E1,-1.526789069E0,1.722265005E0,8.668583035E-1
1.313930933E1,-2.438388586E0,4.593949392E-2,1.635312796E0
1.315957730E1,-5.605949834E-2,1.770201802E0,2.379133224E0
1.317984527E1,1.892307758E0,1.637576580E0,3.649193764E0
1.320011324E1,2.131992102E0,2.744385600E-1,4.153995514E0
1.322038116E1,1.682583928E0,-4.466117918E-1,3.574092627E0
1.324064912E1,1.692171335E0,-1.370461702E0,3.017625570E0
1.326091709E1,1.851428151E0,-2.180860996E0,2.357827902E0
1.328118506E1,1.957288742E0,-1.144093156E0,1.663542390E0
1.330145303E1,1.398158550E0,9.475520253E-1,9.009467363E-1
1.332178699E1,7.896266580E-1,2.717753947E-1,-3.094590902E-1
1.334218699E1,2.315616906E-1,-6.632598042E-1,-1.115064740E0
1.336225688E1,-2.563290596E-1,-2.745717168E-1,-1.046355247E0
1.338252485E1,-5.320991874E-1,2.291648388E-1,-9.058735967E-1
1.340279282E1,-4.873581231E-1,5.269060135E-1,-6.885597706E-1
1.342306074E1,-6.298371404E-2,9.086698890E-1,-2.471411675E-1
1.344332871E1,1.628521830E-1,1.669001818E0,1.964079887E-1
1.346359668E1,-3.195790946E-1,1.523726463E0,-1.789642870E-1
1.348386464E1,-1.082174659E0,1.370861173E0,-9.195888638E-1
1.350413256E1,-1.942108750E0,2.128130436E0,-9.042756557E-1
1.352440053E1,-1.310673714E0,2.411357403E0,-6.198502779E-1
1.354466850E1,-6.455497742E-1,-2.197106332E-1,-5.868270993E-1
1.356493647E1,-4.186486006E-1,-1.506282806E0,-1.030376315E0
1.358520438E1,-3.307643533E-1,-8.069372177E-2,-1.235439539E0
1.360547235E1,-5.912213326E-1,5.534044504E-1,-1.234906912E0
1.362574032E1,-9.825725555E-1,7.286403179E-1,-1.506415963E0
1.364600824E1,-1.417599559E0,1.149818897E0,-1.789243460E0
1.366627621E1,-1.584846020E0,1.615738630E0,-1.997369289E0
1.368654412E1,-1.439970136E0,2.066345215E0,-2.043708324E0
1.370681209E1,-1.082707286E0,1.810149193E0,-1.982056141E0
1.372708006E1,-6.364950538E-1,8.452867270E-1,-2.001630306E0
1.374734803E1,-2.462090552E-1,-2.956106514E-2,-2.165148258E0
1.376761600E1,-6.617950648E-2,-4.482096732E-1,-2.367548466E0
1.378788392E1,-2.516685426E-2,-3.954791129E-1,-2.600175381E0
1.380815188E1,-5.499423668E-2,7.843003422E-2,-2.705636501E0
1.382841985E1,-3.004043400E-1,7.281076908E-1,-2.258891582E0
1.384868777E1,-6.151897311E-1,1.021587849E0,-1.531449676E0
1.386895574E1,-7.584677339E-1,8.261119723E-1,-6.438187361E-1
1.388935574E1,-5.715139508E-1,4.459459782E-1,4.261054471E-2
1.390949162E1,-2.312953621E-1,1.492700726E-1,-7.297056168E-2
1.392975959E1,9.986846708E-3,1.504684892E-2,-2.769685388E-1
1.395002756E1,3.235738352E-2,4.114580899E-2,-2.950780392E-1
1.397029548E1,-4.913528636E-2,1.066595241E-1,-1.821600795E-1
1.399056345E1,-1.018658355E-1,1.609879732E-1,-1.970737800E-2
1.401083142E1,-9.600688517E-2,2.701774836E-1,1.379516423E-1
1.403109933E1,-4.593949392E-2,4.645881057E-1,2.944122255E-1
1.405136730E1,-4.114580899E-2,6.460824013E-1,4.387554526E-1
1.407163527E1,-1.247690022E-1,7.866972089E-1,5.910881758E-1
1.409190720E1,-2.605901062E-1,8.277098536E-1,7.209171653E-1
1.411220964E1,-3.542001545E-1,8.042740226E-1,7.843003273E-1
1.413243850E1,-3.350254297E-1,7.760445476E-1,7.837677002E-1
1.415270662E1,-2.376869470E-1,7.856319547E-1,7.033402920E-1
1.417297464E1,-1.327584833E-1,8.335688114E-1,5.580649972E-1
1.419324267E1,-9.494162351E-2,9.582046270E-1,3.902859688E-1
1.421351063E1,-1.913479865E-1,1.160471559E0,2.507364154E-1
1.423377866E1,-4.149201810E-1,1.396427512E0,1.697763950E-1
1.425404668E1,-6.812360883E-1,1.655153394E0,1.502021700E-1
1.427431464E1,-8.126630187E-1,1.801094532E0,2.049300969E-1
1.429458261E1,-6.828339696E-1,1.698829174E0,3.934817612E-1
1.431485048E1,-3.281011879E-1,1.490170717E0,6.858966351E-1
1.433511860E1,2.368880063E-1,1.316000104E0,8.988161683E-1
1.435538657E1,9.402283430E-1,1.000815153E0,8.849677444E-1
1.437565449E1,1.443432212E0,7.206508517E-1,5.809681416E-1
1.439592246E1,1.351286888E0,6.290381551E-1,8.415582776E-2
1.441619037E1,1.040895700E0,6.274402738E-1,7.456845604E-3
1.443645834E1,8.587356806E-1,7.084003091E-1,4.259723127E-1
1.445672626E1,7.267761230E-1,8.245140314E-1,6.459492445E-1
1.447699423E1,5.840308070E-1,8.303729892E-1,5.639239550E-1
1.449726220E1,8.475503922E-1,-3.193127811E-1,4.637891650E-1
1.451753011E1,1.395495415E0,-1.189366817E0,7.475487590E-1
1.453779808E1,1.551023841E0,-5.998765826E-1,6.203829050E-1
1.455806600E1,1.715607047E0,8.356993198E-1,-1.230379492E-1
1.457833397E1,1.801893473E0,2.515220642E0,-8.105324507E-1
1.459860188E1,1.600026011E0,3.420961142E0,-1.274854302E0
1.461886980E1,1.340234876E0,3.423091650E0,-1.635845423E0
1.463913777E1,1.137302041E0,2.792588711E0,-1.861148715E0
1.465940574E1,8.944219947E-1,1.894837737E0,-1.624660254E0
1.467967366E1,3.832286000E-1,1.090164185E0,-8.978840709E-1
1.469994157E1,-1.716406047E-1,8.884298801E-1,-1.411474347E-1
1.472020954E1,-5.811012983E-1,1.320793748E0,1.518000662E-1
1.474047751E1,-8.755135536E-1,1.725460768E0,-1.885516644E-1
1.476074543E1,-9.932252169E-1,1.772865057E0,-6.273071170E-1
1.478101334E1,-1.044357896E0,1.400688529E0,-6.235787272E-1
1.480128131E1,-1.159406304E0,7.249119282E-1,-3.977428079E-1
1.482161527E1,-1.220126390E0,-1.997369342E-2,-3.009369671E-1
1.484201527E1,-1.005475760E0,-5.705818534E-1,-1.789642870E-1
1.486208511E1,-7.446193099E-1,-1.765674502E-1,-6.391581893E-2
1.488235303E1,-6.263750196E-1,1.002945662E0,1.129179448E-1
1.490275303E1,-5.672528744E-1,2.235056162E0,2.592585385E-1
1.492288892E1,-4.053328037E-1,2.984868765E0,3.189133108E-1
1.494315683E1,5.675191879E-1,2.515220642E0,3.940143883E-1
1.496342480E1,1.563807011E0,1.517334938E0,-4.633896798E-2
1.498369272E1,1.106942058E0,6.285055280E-1,-8.094671965E-1
1.500396069E1,-2.286322117E-1,1.033305764E0,-9.552751780E-1
1.502422860E1,-1.041162014E0,2.038115740E0,-5.372923613E-1
1.504449652E1,-1.032639980E0,2.764359236E0,4.900212586E-2
1.506476444E1,-7.227813601E-1,3.102047682E0,5.912213027E-2
1.508503241E1,-3.275685608E-1,3.092460394E0,-2.162485123E-1
1.510530032E1,5.526055023E-2,2.696182251E0,-5.569997430E-1
1.512556829E1,4.929507375E-1,1.985917687E0,-8.760461807E-1
1.514583621E1,8.725841045E-1,1.240366340E0,-8.776440620E-1
1.516610412E1,9.386304021E-1,6.865624189E-1,-6.054692268E-1
1.518637209E1,4.972118139E-1,7.350319028E-1,-4.174501896E-1
1.520664001E1,-5.390233994E-1,1.617336512E0,-4.744417965E-1
1.522690793E1,-1.581650138E0,2.404433250E0,-4.723112583E-1
1.524717590E1,-1.874597669E0,2.380997419E0,-3.972101808E-1
1.526744381E1,-1.648229122E0,1.900696635E0,-2.455432713E-1
1.528771173E1,-1.277117968E0,1.239833713E0,-7.456845790E-2
1.530797965E1,-9.527451396E-1,5.976129174E-1,6.018739566E-2
1.532824761E1,-8.227829933E-1,1.332911104E-1,1.129179448E-1
1.534851553E1,-9.836378098E-1,7.896266878E-2,2.769685537E-2
1.536878345E1,-1.381913304E0,4.070638716E-1,-5.858949851E-3
1.538905136E1,-1.882054567E0,1.069524646E0,7.403582335E-2
1.540931928E1,-2.278199434E0,1.795768142E0,2.502037883E-1
1.542958725E1,-2.411357403E0,2.181260347E0,5.442165732E-1
1.544985517E1,-1.738243937E0,1.926262975E0,8.205193281E-1
1.547012308E1,2.490053698E-2,9.379646182E-1,7.720498443E-1
1.549039100E1,6.074665785E-1,6.599308252E-1,5.522060394E-1
1.551065892E1,4.791023135E-1,5.811012983E-1,4.435491562E-1
1.553092688E1,3.757717609E-1,7.653919458E-1,2.709764242E-1
1.555119480E1,5.281044245E-1,1.252616882E0,-1.821600795E-1
1.557146272E1,8.081356287E-1,2.134521961E0,-8.142609000E-1
1.559173063E1,1.134638906E0,2.824013948E0,-1.004277349E0
1.561199860E1,1.521729112E0,2.835199118E0,-7.141261101E-1
1.563226652E1,2.086185694E0,1.546097040E0,-6.049365997E-1
1.565253444E1,2.639989614E0,-7.234471440E-1,-7.870966792E-1
1.567280235E1,2.472743273E0,-1.592569113E0,-4.834965467E-1
1.569307027E1,1.952495098E0,-1.168061614E0,3.279680312E-1
1.571333819E1,1.602689147E0,-1.573926955E-1,7.976161242E-1
1.573360610E1,1.250752687E0,1.305880070E0,7.555382252E-1
1.575387402E1,7.555382252E-1,2.916159153E0,3.210438192E-1
1.577414194E1,2.549974918E-1,3.719234943E0,-6.444845349E-2
1.579440985E1,-1.972069293E-1,3.113233089E0,2.024000883E-2
1.581467772E1,-4.516717792E-1,2.086585045E0,1.050083637E0
1.583494569E1,-2.611227632E-1,1.273922205E0,2.906305552E0
1.585521360E1,2.107890397E-1,3.687143922E-1,3.564505339E0
1.587548152E1,4.604602158E-1,8.322372288E-2,3.503785372E0
1.589574949E1,5.238434076E-1,2.456764281E-1,3.123619318E0
1.591601741E1,6.660560966E-1,-1.824263930E-1,2.548510075E0
1.593628527E1,8.976177573E-1,-1.307611108E0,2.016544104E0
1.595655324E1,1.050483108E0,-1.809217095E0,1.451022267E0
1.597682110E1,8.874977827E-1,-1.003078818E0,9.382309318E-1
1.599708902E1,4.237086177E-1,-7.430213690E-2,4.664523304E-1
1.601735694E1,5.472791940E-2,-2.849580161E-2,-1.054610983E-1
1.603762485E1,-8.961530030E-2,-7.643266767E-2,-5.351617932E-1
1.605789277E1,-1.045289934E-1,2.355564237E-1,-7.753787637E-1
1.607816069E1,-2.627206445E-1,7.366297841E-1,-9.835046530E-1
1.609842860E1,-4.756402075E-1,1.026914120E0,-1.333976388E0
1.611869652E1,-6.583329439E-1,1.197223186E0,-1.887780309E0
1.613896444E1,-1.023052573E0,1.470463276E0,-2.275935888E0
1.615923235E1,-9.202546477E-1,2.101498842E0,-1.776992917E0
1.617950027E1,-4.857602119E-1,4.789691567E-1,-1.376054287E0
1.619976819E1,-1.695100814E-1,-1.563807011E0,-1.982588768E0
1.622003610E1,-3.787012100E-1,-6.781734824E-1,-2.231194735E0
1.624043610E1,-6.860297918E-1,-5.246423557E-2,-2.275403023E0
1.626057194E1,-5.779055357E-1,-2.026664019E-1,-2.351569414E0
1.628083985E1,-5.555350184E-1,-5.780386925E-1,-2.305763245E0
1.630110772E1,-9.783114791E-1,-7.932219505E-1,-1.982056141E0
1.632144168E1,-1.483645916E0,-9.125314951E-1,-1.678456068E0
1.634183959E1,-1.696166039E0,-1.231444716E0,-1.320660591E0
1.636205886E1,-1.338370562E0,-1.466335416E0,-1.151283622E0
1.638217157E1,-5.406212807E-1,-1.369396448E0,-1.205079436E0
1.640244100E1,2.491385341E-1,-9.418262243E-1,-1.213068962E0
1.642270886E1,5.904223919E-1,-9.028109163E-2,-1.066595197E0
1.644298340E1,3.278348744E-1,1.151949525E0,-6.661892533E-1
1.646325126E1,-3.265033066E-1,1.965677738E0,-5.060002208E-2
1.648351912E1,-9.229177833E-1,1.608414888E0,4.542017877E-1
1.650378694E1,-9.245156646E-1,4.443480968E-1,4.946818054E-1
1.652405480E1,-3.872233331E-1,-7.692534924E-1,4.366249442E-1
1.654432267E1,1.058605760E-1,-1.221324801E0,5.234439373E-1
1.656459058E1,2.288985252E-1,-8.741819859E-1,6.773745418E-1
1.658485845E1,1.138500497E-1,-1.994706094E-1,7.390266657E-1
1.660512631E1,-6.617950648E-2,6.061350107E-1,6.518082023E-1
1.662539423E1,-2.520680130E-1,1.586577058E0,4.366249442E-1
1.664566214E1,-3.515369892E-1,2.388454199E0,1.756353378E-1
1.666589074E1,-2.801643312E-1,2.393247843E0,-3.408843651E-2
1.668627730E1,-1.322258562E-1,1.560478091E0,-2.775011659E-1
1.670662381E1,-2.303632535E-2,2.850911915E-1,-5.372923613E-1
1.672689178E1,-8.162582666E-2,-9.604683518E-1,-5.660544634E-1
1.674700235E1,-3.051980436E-1,-1.706419230E0,-3.062632978E-1
1.676727011E1,-5.544697046E-1,-1.860349774E0,8.628635854E-2
1.678767011E1,-6.993455887E-1,-1.640372872E0,4.126565158E-1
1.680780574E1,-7.233139873E-1,-1.260739565E0,4.547344148E-1
1.682806032E1,-7.084003091E-1,-6.430197358E-1,3.013364673E-1
1.684833678E1,-7.094655633E-1,2.952111959E-1,5.965476483E-2
1.686860454E1,-6.620613337E-1,1.284574747E0,-2.407495826E-1
1.688900548E1,-4.527370334E-1,1.682317615E0,-4.984102249E-1
1.690914194E1,3.869570196E-1,-2.884201407E-1,-1.117195249E0
1.692941043E1,1.196956873E0,-2.154762030E0,-1.536775947E0
1.694967876E1,1.597362876E0,-2.573410749E0,-1.232776403E0
1.696994699E1,1.756619692E0,-2.236787319E0,-5.538039207E-1
1.699021522E1,2.281128883E0,-1.431181669E0,3.210438192E-1
1.701048334E1,3.070222855E0,5.518065691E-1,6.060018539E-1
1.703075142E1,3.470229387E0,3.104710817E0,6.299703121E-1
1.705101949E1,3.105376720E0,4.510459423E0,6.310355663E-1
1.707128746E1,2.052629948E0,4.210188389E0,6.033387184E-1
1.709155548E1,5.153212696E-2,1.990711451E0,1.040496230E0
1.711182345E1,-2.278199434E0,-6.840324402E-1,2.060752630E0
1.713209136E1,-2.159422636E0,7.265098095E-1,2.838794470E0
1.715249142E1,-7.936214209E-1,1.058339477E0,2.419080496E0
1.717262725E1,6.351634264E-1,-3.432812095E-1,2.600708008E0
1.719289522E1,1.347558498E0,-1.315600634E0,3.205644608E0
1.721316308E1,1.351819515E0,-9.088030457E-1,2.872217178E0
1.723343105E1,1.139432669E0,-5.908218622E-1,2.241847277E0
1.725369892E1,1.282177925E0,-1.133440495E0,1.788577676E0
1.727409892E1,1.473792195E0,-1.404550076E0,1.379116893E0
1.729423470E1,1.370994329E0,-5.386239290E-1,9.078709483E-1
1.731450256E1,7.475487590E-1,6.322339773E-1,3.551322520E-1
1.733477058E1,1.431448013E-1,4.171838760E-1,6.125266105E-2
1.735503845E1,-2.801643312E-1,3.315633163E-2,-1.725727171E-1
1.737530631E1,-5.709813237E-1,2.197106183E-2,-4.994754791E-1
1.739557423E1,-7.099981904E-1,3.042659163E-1,-8.515450954E-1
1.741584209E1,-6.189181805E-1,1.199886322E0,-9.627320170E-1
1.743611001E1,-5.619265437E-1,3.487540007E0,-3.382211924E-1
1.745637787E1,-2.613624334E0,4.290615559E0,1.555284858E-1
1.747664579E1,-2.429333687E0,1.572196007E0,-5.506081581E-1
1.749691366E1,-6.040045023E-1,-2.224536896E0,-1.557016015E0
1.751718152E1,1.298290044E-1,-2.757035494E0,-2.297773600E0
1.753744938E1,3.235738352E-2,-1.761812925E0,-2.644383907E0
1.755771730E1,-2.982738316E-1,-7.399587631E-1,-2.790324926E0
1.757798517E1,-7.201182246E-1,-6.737792492E-2,-2.734931231E0
1.759825303E1,-1.168461084E0,3.665838540E-1,-2.686461687E0
1.761852095E1,-1.584846020E0,5.008070469E-1,-2.772747993E0
1.763878881E1,-1.662077546E0,2.419480085E-1,-2.847316504E0
1.765905668E1,-1.277117968E0,-7.483477145E-2,-2.797781706E0
1.767932454E1,-4.703139067E-1,-4.290349185E-1,-2.399506330E0
1.769959246E1,5.334307551E-1,-9.508809447E-1,-1.601224422E0
1.771986032E1,1.065929413E0,-1.146756291E0,-6.368945241E-1
1.774026032E1,5.408875942E-1,-7.687208652E-1,9.587372839E-2
1.776039605E1,-7.153245211E-1,-4.173170328E-1,4.158523083E-1
1.778066392E1,-1.565138578E0,-5.593965650E-1,4.739091694E-1
1.780093178E1,-1.251551628E0,-5.391565561E-1,3.721764982E-1
1.782133178E1,-4.149201810E-1,-5.083971024E-1,4.446144104E-1
1.784146756E1,1.506016403E-1,-2.021337748E-1,6.006755233E-1
1.786173543E1,2.555301189E-1,2.984069884E-1,7.065361142E-1
1.788213543E1,1.319595277E-1,6.860297918E-1,7.342329621E-1
1.790227116E1,-3.635212034E-2,9.592698812E-1,5.905555487E-1
1.792253902E1,-1.535311192E-1,1.266997933E0,3.652522564E-1
1.794280688E1,-1.780321896E-1,1.322924256E0,1.358211190E-1
1.796307480E1,-1.348890066E-1,8.351666927E-1,-5.592634156E-2
1.798334267E1,-1.870869249E-1,-2.868222296E-1,-8.362319320E-2
1.800361053E1,-4.447475672E-1,-1.373657465E0,-9.587372653E-3
1.802387840E1,-7.792403698E-1,-1.840109825E0,5.219791830E-2
1.804427840E1,-9.325051308E-1,-1.585112333E0,5.539371073E-2
1.806441412E1,-8.552735448E-1,-7.937545776E-1,-2.343579940E-2
1.808468199E1,-7.094655633E-1,4.416849315E-1,-3.137201369E-1
1.810494985E1,-4.905539155E-1,1.645033360E0,-6.358292103E-1
1.812521772E1,-2.419480085E-1,2.151965618E0,-5.175849795E-1
1.814548563E1,2.820285559E-1,2.265016884E-1,-4.174501896E-1
1.816575350E1,7.800393105E-1,-2.751709223E0,-5.729786754E-1
1.818602136E1,8.827040792E-1,-3.817239046E0,-4.552670419E-1
1.820642136E1,1.541969061E0,-3.678888083E0,5.592634156E-2
1.822671501E1,2.702840090E0,-2.008421421E0,2.763027549E-1
1.824670782E1,3.616569996E0,1.226517916E0,2.400837988E-1
1.826709418E1,3.785414457E0,4.275702000E0,1.814942956E-1
1.828749418E1,3.043058634E0,5.456679821E0,1.608548164E-1
1.830762933E1,1.472726941E0,4.375170708E0,4.041343927E-1
1.832787412E1,-8.291745782E-1,1.574859142E0,1.221591115E0
1.834815673E1,-2.244643688E0,1.123187304E0,2.506964922E0
1.836842605E1,-1.994306684E0,1.796300769E0,2.947850704E0
1.838869517E1,-4.255728126E-1,7.499455810E-1,2.642253399E0
1.840896402E1,9.775125384E-1,-8.725841045E-1,3.083139181E0
1.842923261E1,1.598960757E0,-1.205345869E0,3.050648689E0
1.844950110E1,1.474324822E0,-9.583377838E-1,2.473941565E0
1.846976944E1,1.351819515E0,-1.280446887E0,2.043708324E0
1.849003767E1,1.264601111E0,-1.480716467E0,1.701359153E0
1.851030584E1,1.052080989E0,-8.049398661E-1,1.222656369E0
1.853057397E1,6.756434441E-1,-3.328948840E-2,5.234439373E-1
1.855084204E1,3.251717389E-1,-3.861580789E-2,-9.427583218E-2
1.857111006E1,-4.487423226E-2,-3.542001545E-2,-1.613874435E-1
1.859137808E1,-4.218443930E-1,4.528702199E-1,-2.018674612E-1
1.861164605E1,-7.712509036E-1,1.056208849E0,-3.355580568E-1
1.863191402E1,-9.660609365E-1,1.602023363E0,-5.261070728E-1
1.865218194E1,-1.203614712E0,2.773413897E0,-4.829638898E-1
1.867244985E1,-2.698312759E0,3.779289007E0,-9.747162461E-2
1.869271772E1,-2.822416067E0,1.987515688E0,-1.171789970E-2
1.871298563E1,-1.219593763E0,-2.306562185E0,-6.097303033E-1
1.873325350E1,-5.768402815E-1,-2.714424849E0,-1.637443423E0
1.875352142E1,-4.660528302E-1,-1.124385715E0,-2.218411446E0
1.877378923E1,-5.603286624E-1,1.877527125E-2,-2.511891603E0
1.879405709E1,-6.157223582E-1,2.569948509E-2,-2.765291214E0
1.881432490E1,-6.849645376E-1,-3.603254259E-1,-3.032139778E0
1.883459287E1,-9.106672406E-1,-4.194475710E-1,-3.411240578E0
1.885486074E1,-1.176450491E0,-2.330264151E-1,-3.553453207E0
1.887512855E1,-1.267530560E0,3.688475490E-2,-3.437339544E0
1.889539642E1,-9.064062238E-1,5.103944540E-1,-3.164099216E0
1.891566428E1,6.005423889E-2,8.687224984E-1,-2.453834772E0
1.893593209E1,1.186836839E0,1.106143117E0,-1.319062710E0
1.895619996E1,1.741706014E0,8.932235837E-1,-3.892207146E-1
1.897646782E1,9.668599367E-1,2.344911546E-1,-4.233091474E-1
1.899665699E1,-1.090696812E0,-4.444812536E-1,-4.478102028E-1
1.901705699E1,-2.258491993E0,-9.870999455E-1,-2.748380303E-1
1.903727142E1,-2.071005583E0,-9.988178015E-1,-2.077264152E-2
1.905753923E1,-1.025715709E0,-1.131842583E-1,1.107874215E-1
1.907780709E1,-2.185122073E-1,8.910930157E-1,2.001364082E-1
1.909807485E1,9.893636405E-2,1.680187106E0,3.167827725E-1
1.911834272E1,1.079910994E-1,1.977395654E0,4.573975801E-1
1.913861058E1,4.567318037E-2,1.929458737E0,5.607281327E-1
1.915887840E1,-6.404897571E-2,1.640239716E0,5.793702602E-1
1.917914626E1,-2.579269707E-1,1.282976866E0,5.607281327E-1
1.919941407E1,-5.507413149E-1,8.751140833E-1,4.872249663E-1
1.921968194E1,-8.000130057E-1,3.218427896E-1,4.206459820E-1
1.923994975E1,-9.538104534E-1,-4.130559862E-1,4.259723127E-1
1.926021761E1,-1.072054744E0,-1.068592548E0,3.295659423E-1
1.928048543E1,-1.121589422E0,-1.547295451E0,2.198437899E-1
1.930075329E1,-1.235572696E0,-1.487107992E0,7.190529257E-2
1.932115329E1,-1.561942816E0,-3.555317521E-1,-5.805686861E-2
1.934128897E1,-1.018258929E0,1.066595241E-1,6.391581893E-2
1.936155678E1,2.772348523E-1,-2.708432674E-1,4.154528305E-2
1.938182465E1,1.378983736E0,-3.800328076E-1,-1.017326787E-1
1.940209246E1,2.079794168E0,-2.484727502E-1,-1.922800839E-1
1.942236027E1,2.449307442E0,1.930790395E-2,-1.699095517E-1
1.944262813E1,2.568084240E0,3.181143403E-1,-1.411474347E-1
1.946289595E1,2.457829475E0,6.556697488E-1,-3.834949061E-2
1.948316376E1,2.216147900E0,9.193225503E-1,2.294311523E-1
1.950356376E1,1.822666049E0,9.038761854E-1,7.400919199E-1
1.952369944E1,1.248089552E0,4.677838981E-1,1.415868521E0
1.954396725E1,3.246390820E-1,5.226449966E-1,3.118293047E0
1.956423511E1,-8.269108832E-2,2.525873184E0,3.294061422E0
1.958450293E1,-4.394212738E-3,2.298972130E0,2.464886904E0
1.960477074E1,6.729803085E-1,1.487374306E-1,2.751975536E0
1.962503860E1,1.272590518E0,-1.133440495E0,3.126815081E0
1.964530642E1,1.240632653E0,-9.737841487E-1,2.765291214E0
1.966557423E1,9.988178015E-1,-9.141293764E-1,2.114548445E0
1.968584204E1,7.853656411E-1,-1.249021649E0,1.595898151E0
1.970610990E1,5.696497560E-1,-8.475503922E-1,1.245959044E0
1.972650990E1,5.771065950E-1,-1.179779470E-1,9.488835931E-1
1.974680345E1,6.474139690E-1,3.335606754E-1,5.633913279E-1
1.976687470E1,5.462139249E-1,4.507396817E-1,1.756353378E-1
1.978727470E1,3.097254038E-1,3.479417264E-1,-4.527370632E-2
1.980744949E1,-6.657897611E-4,4.651207328E-1,-1.012000442E-2
1.982770183E1,-2.721748650E-1,6.583329439E-1,1.352884769E-1
1.984797949E1,-5.107939243E-1,9.209204316E-1,1.549958587E-1
1.986824840E1,-7.366297841E-1,1.080044150E0,-2.013348341E-1
1.988851699E1,-6.870950460E-1,1.009869933E0,-8.291745782E-1
1.990878548E1,-2.403501123E-1,1.613208652E0,-1.858884990E-1
1.992905381E1,-1.641837597E0,2.845319271E0,7.044056058E-1
1.994932199E1,-2.222805738E0,1.579120159E0,-8.362319320E-2
1.996959011E1,-7.190529704E-1,-8.592683077E-1,-1.544765472E0
1.998985824E1,7.337003350E-1,-1.373657465E0,-2.401636839E0
2.001012621E1,6.580666304E-1,-1.752758145E0,-2.835598707E0
2.003039423E1,3.874896467E-2,-1.427453279E0,-2.949581861E0
2.005066220E1,-7.249119282E-1,-6.787061095E-1,-2.722680807E0
2.007093011E1,-1.383511186E0,-3.672496378E-1,-2.594316483E0
2.009119803E1,-1.881521940E0,-5.179844499E-1,-2.633198500E0
2.011146584E1,-1.954891920E0,-5.860281587E-1,-2.629470110E0
2.013173376E1,-1.437839627E0,-3.379548788E-1,-2.582065821E0
2.015200162E1,-4.990760088E-1,-6.045371294E-2,-2.545314312E0
2.017226949E1,5.675191879E-1,-5.938844755E-2,-2.341982126E0
2.019253735E1,1.601091266E0,-2.825611830E-1,-1.870203495E0
2.021280517E1,2.177798271E0,-4.471444190E-1,-1.253016353E0
2.023307298E1,1.193761110E0,-6.366282105E-1,-5.506081581E-1
2.025334079E1,-9.926925302E-1,-1.392299533E0,5.166528746E-2
2.027360860E1,-1.759549260E0,-1.131842613E0,9.693899006E-2
2.029387642E1,-1.370728016E0,-4.476770461E-1,1.363537461E-1
2.031414418E1,-6.210486889E-1,-4.234423116E-2,3.647196293E-1
2.033441209E1,-4.061317816E-2,2.889527567E-2,5.484775901E-1
2.035467985E1,1.798963994E-1,4.380896688E-2,5.580649972E-1
2.037494767E1,1.404816359E-1,2.009353489E-1,4.259723127E-1
2.039521548E1,2.490053698E-2,4.459459782E-1,3.780354261E-1
2.041548329E1,-8.748477697E-2,7.089329362E-1,3.924165070E-1
2.043575105E1,-1.780321896E-1,1.017326832E0,2.496711612E-1
2.045605819E1,-2.711096108E-1,1.315467477E0,3.675159439E-2
2.047628668E1,-3.557980657E-1,1.196157932E0,-7.563371956E-2
2.049655444E1,-5.486107469E-1,5.002744198E-1,-7.829687744E-2
2.051682225E1,-1.042227268E0,-6.174534559E-1,-9.853688627E-2
2.053709006E1,-1.292564273E0,-2.085653067E0,-6.391581893E-2
2.055735782E1,-9.958883524E-1,-3.070222855E0,6.125266105E-2
2.057762563E1,-5.773729086E-1,-2.737328053E0,1.065263674E-1
2.059789345E1,-2.897517085E-1,-1.196291089E0,1.027979404E-1
2.061816121E1,-1.860216707E-1,8.197203875E-1,1.639174372E-1
2.063842902E1,-3.954791278E-2,2.014147282E0,2.065279931E-1
2.065869683E1,3.597927988E-1,1.578054905E0,-6.391582079E-3
2.067896459E1,9.444893599E-1,1.551290154E-1,-2.428801060E-1
2.069923240E1,1.519598603E0,-1.354482770E0,-3.296990991E-1
2.071950017E1,2.024400473E0,-2.655968666E0,-2.087916732E-1
2.073990017E1,2.545713902E0,-3.443464756E0,7.456845604E-3
2.076019371E1,3.149585009E0,-2.905639648E0,2.944122255E-1
2.078030412E1,3.498325825E0,-4.524707198E-1,5.788376331E-1
2.080057178E1,3.265698910E0,2.085519791E0,8.636624813E-1
2.082097178E1,2.128263712E0,2.671281815E0,1.282710552E0
2.084110730E1,-2.796316985E-3,1.334109545E0,2.322141647E0
2.086137501E1,-2.082723618E0,7.084003091E-1,3.351585627E0
2.088148574E1,-2.568350554E0,1.331446409E0,2.510693312E0
2.090188574E1,-1.163667321E0,5.986781716E-1,1.720001340E0
2.092217850E1,8.209187984E-1,-9.104009271E-1,1.866341949E0
2.094244621E1,1.747565031E0,-1.067527294E0,2.314684629E0
2.096271392E1,1.395495415E0,-7.559376955E-1,1.991510391E0
2.098298162E1,1.036102057E0,-1.079112053E0,1.665140271E0
2.100324933E1,9.285104275E-1,-1.563274384E0,1.452087522E0
2.102351704E1,1.019590497E0,-1.262337446E0,1.266198993E0
2.104378485E1,1.109605193E0,-4.370244145E-1,8.279761672E-1
2.106405261E1,7.448856235E-1,1.551290154E-1,3.205111921E-1
2.108432037E1,2.022669315E-1,-4.500738904E-2,1.704421826E-2
2.110472037E1,-3.339601457E-1,-1.270326823E-1,-6.924213469E-2
2.112485590E1,-7.898929715E-1,1.689774394E-1,-3.217096329E-1
2.114512366E1,-1.056075692E0,6.625939608E-1,-5.751091838E-1
2.116539147E1,-1.373923779E0,2.073801994E0,-1.880190372E-1
2.118565923E1,-2.917224407E0,3.859183788E0,1.139033198E0
2.120592699E1,-2.903376102E0,3.344794750E0,-1.278316416E-2
2.122627350E1,-7.621961236E-1,-1.865676165E0,-1.272191048E0
2.124662011E1,2.081258893E-1,-3.106441975E0,-2.349971533E0
2.126688803E1,3.171822429E-1,-1.930124521E0,-3.030009270E0
2.128715595E1,5.193160381E-3,-6.984134912E-1,-3.065562487E0
2.130726642E1,-2.790990770E-1,5.552686751E-2,-2.793520689E0
2.132751892E1,-6.040045023E-1,4.070638716E-1,-2.507097960E0
2.134779642E1,-1.135970473E0,3.676491082E-1,-2.348906279E0
2.136806407E1,-1.528386950E0,1.423458606E-1,-2.231194735E0
2.138846517E1,-1.511875391E0,-5.459476262E-2,-1.936249852E0
2.140860152E1,-9.042756557E-1,1.290300637E-1,-1.553820133E0
2.142886996E1,1.324921697E-1,3.479417264E-1,-1.168860555E0
2.144913824E1,9.711209536E-1,-1.888179779E-1,-9.376983047E-1
2.146940636E1,1.093626261E0,-1.112667918E0,-7.583345771E-1
2.148967449E1,3.928159773E-1,-1.601623893E0,-3.051980436E-1
2.150994256E1,-3.808317482E-1,-1.553154349E0,1.518000662E-1
2.153021048E1,-6.151897311E-1,-1.145158410E0,3.013364673E-1
2.155047845E1,-4.628570378E-1,-5.854955316E-1,4.004059732E-1
2.157074636E1,-1.822932363E-1,1.824264042E-2,4.584628344E-1
2.159101428E1,4.407528415E-2,5.253081322E-1,4.323638678E-1
2.161128209E1,1.426121742E-1,8.548740745E-1,3.668501675E-1
2.163154985E1,1.521995366E-1,9.283772707E-1,3.572627902E-1
2.165194996E1,1.149153188E-1,8.021435142E-1,4.110586047E-1
2.167208553E1,6.218476593E-2,5.486107469E-1,4.909533858E-1
2.169235340E1,-4.926844500E-3,2.978743315E-1,5.106607676E-1
2.171262121E1,-1.428784877E-1,2.382195890E-1,4.067975581E-1
2.173288897E1,-3.286338449E-1,4.432828426E-1,1.985385120E-1
2.175315678E1,-4.985433817E-1,7.318361402E-1,-5.752423778E-2
2.177342454E1,-5.901560783E-1,6.551371217E-1,-1.246358454E-1
2.179382454E1,-6.780403256E-1,8.215846121E-2,-6.711161137E-2
2.181396001E1,-7.611308694E-1,-8.656598926E-1,-2.732401192E-1
2.183422793E1,-7.014760971E-1,-1.714941263E0,-4.036017656E-1
2.185449569E1,-6.396908164E-1,-1.552089095E0,-3.568633199E-1
2.187476345E1,-5.107939243E-1,-8.944219947E-1,-2.338253707E-1
2.189503121E1,-3.131875098E-1,-3.299654126E-1,-2.119874656E-1
2.191529897E1,-3.581948951E-2,-1.494032294E-1,-3.382211924E-1
2.193556673E1,2.262353599E-1,-2.085253596E-1,-4.227765203E-1
2.195583449E1,3.400854170E-1,-4.234423116E-2,-4.526038766E-1
2.197610225E1,2.868222296E-1,5.555350184E-1,-4.009386003E-1
2.199637001E1,6.751108170E-2,1.490170717E0,-4.249070287E-1
2.201663782E1,-2.078595608E-1,2.596713305E0,-7.572692633E-1
2.203690558E1,-3.723096550E-1,3.014163494E0,-1.313736439E0
2.205717334E1,-4.079959691E-1,2.286721468E0,-1.337704778E0
2.207744105E1,-3.312969804E-1,5.400886536E-1,-3.520696461E-1
2.209770886E1,2.193111479E-1,-2.501505375E0,1.178980589E0
2.211797662E1,9.594030380E-1,-4.289683342E0,1.616670728E0
2.213824438E1,1.598960757E0,-4.750277042E0,1.275786400E0
2.215851215E1,2.019606590E0,-3.790074825E0,9.478183389E-1
2.217877991E1,2.796050787E0,-7.974829674E-1,1.055409908E0
2.219904767E1,3.387671471E0,3.148919344E0,8.791088462E-1
2.221931543E1,2.878608704E0,5.356145382E0,2.091911435E-1
2.223958319E1,1.621331215E0,4.687825680E0,-3.201117218E-1
2.225985095E1,-2.303632535E-2,1.615206003E0,-2.524674833E-1
2.228011876E1,-6.460824013E-1,3.181143403E-1,2.491385341E-1
2.230038647E1,2.953443527E-1,1.195625305E0,6.608629227E-1
2.232077298E1,1.140497923E0,1.511475921E0,1.535178065E0
2.234092204E1,1.347025871E0,2.149968386E0,3.148120403E0
2.236118980E1,1.108007312E0,2.532797575E0,3.019223452E0
2.238145756E1,1.026514649E0,1.114132643E0,2.529335260E0
2.240172532E1,1.257144213E0,-7.948198318E-1,2.101232529E0
2.242199308E1,1.239567399E0,-1.266065836E0,1.556483388E0
2.244226084E1,8.161250949E-1,-5.672528967E-2,9.755151868E-1
2.246266084E1,4.109254479E-1,8.090677261E-1,4.611259997E-1
2.248279636E1,1.804290265E-1,4.134554565E-1,-1.438105851E-1
2.250319636E1,-1.311605871E-1,-8.175898343E-2,-5.436839461E-1
2.252333188E1,-5.491434336E-1,-2.474074811E-1,-4.307659864E-1
2.254373188E1,-8.435556293E-1,-3.363569975E-1,-1.486042738E-1
2.256386740E1,-8.115977645E-1,1.023984700E-1,7.616634667E-2
2.258413517E1,-2.945453823E-1,9.960215092E-1,4.195807278E-1
2.260440293E1,3.832286000E-1,1.885250330E0,9.142625332E-1
2.262467069E1,4.982770681E-1,2.410824776E0,1.231711030E0
2.264493845E1,-1.833585054E-1,2.498176336E0,1.324788451E0
2.266520621E1,-1.418132186E0,2.277666807E0,6.869618893E-1
2.268547397E1,-1.066728354E0,8.394277692E-1,-4.126565158E-1
2.270574173E1,-9.900293946E-1,-6.249102950E-1,-1.384576440E0
2.272600949E1,-7.621961236E-1,-7.032071352E-1,-1.921336174E0
2.274640949E1,-3.573959470E-1,-9.986846894E-2,-1.873931885E0
2.276670287E1,-6.194508076E-1,4.965460002E-1,-1.876062393E0
2.278697079E1,-1.362738490E0,1.364469528E0,-1.864344478E0
2.280708121E1,-1.880989313E0,1.813345075E0,-1.938912988E0
2.282732980E1,-2.073136091E0,1.507747531E0,-2.123070478E0
2.284760980E1,-1.683382869E0,1.327718019E0,-2.245043039E0
2.286787746E1,-9.921599030E-1,1.289368510E0,-2.346775770E0
2.288827881E1,-3.270359337E-1,1.225452662E0,-2.534129143E0
2.290841532E1,1.527321786E-1,9.827057123E-1,-2.588990211E0
2.292868386E1,3.086601496E-1,6.913561225E-1,-2.303100109E0
2.294895225E1,-2.275669426E-1,8.042740226E-1,-1.478719115E0
2.296922053E1,-1.096023083E0,9.305077791E-1,-3.206443489E-1
2.298948866E1,-1.631184936E0,1.118393660E0,3.050648868E-1
2.300975673E1,-1.619999647E0,1.399623275E0,2.503369562E-2
2.303002480E1,-9.788441062E-1,1.727591276E0,-1.544632297E-2
2.305029272E1,-1.556616426E-1,2.014679909E0,5.965476483E-2
2.307056063E1,3.251717389E-1,2.054627180E0,2.077264152E-2
2.309082855E1,3.448790908E-1,1.797898769E0,-2.396843210E-2
2.311109647E1,1.074584723E-1,1.468332767E0,-1.597895473E-2
2.313136428E1,-1.242363751E-1,1.317597985E0,4.527370632E-2
2.315163214E1,-2.105227262E-1,1.431048512E0,1.729721874E-1
2.317189990E1,-1.753690243E-1,1.815475583E0,2.970753908E-1
2.319216772E1,-1.625858694E-1,2.249969959E0,3.418164849E-1
2.321243553E1,-2.504701018E-1,2.545580626E0,3.338269889E-1
2.323270329E1,-3.568633199E-1,2.643584967E0,3.039996028E-1
2.325297110E1,-3.137201369E-1,2.600441694E0,1.836248189E-1
2.327323886E1,-1.061268896E-1,2.502437353E0,-6.231792271E-2
2.329350657E1,9.680583328E-2,2.275003672E0,-2.838927507E-1
2.331377433E1,2.097237855E-1,1.864477634E0,-3.950796425E-1
2.333404220E1,1.751027107E-1,1.319195867E0,-4.781702161E-1
2.335430990E1,1.957421936E-2,7.882950902E-1,-5.436839461E-1
2.337457767E1,-1.407479644E-1,5.215796828E-1,-5.958818197E-1
2.339497767E1,-3.020022511E-1,5.087965727E-1,-6.912229657E-1
2.341511319E1,-4.783033729E-1,6.359623671E-1,-7.684545517E-1
2.343551319E1,-7.089329362E-1,8.484824896E-1,-7.956187725E-1
2.345564871E1,-9.458209276E-1,1.070057273E0,-7.679219246E-1
2.347591647E1,-1.090696812E0,1.320261121E0,-6.518082023E-1
2.349618418E1,-1.065130472E0,1.542901278E0,-4.339617789E-1
2.351645194E1,-9.026777744E-1,1.652490258E0,-1.656484902E-1
2.353671970E1,-6.002760530E-1,1.580718040E0,1.027979404E-1
2.355698740E1,-1.077247858E-1,1.223322153E0,2.885532975E-1
2.357725517E1,3.390201628E-1,5.800360441E-1,5.218459964E-1
2.359752293E1,3.720433414E-1,-1.350221634E-1,8.860330582E-1
2.361779069E1,8.242477477E-2,-4.822981060E-1,1.229580522E0
2.363805845E1,-1.780321896E-1,-2.053295672E-1,1.496828556E0
2.365832616E1,-3.041327596E-1,5.045354962E-1,1.438239098E0
2.367859392E1,-3.158506751E-1,1.071122646E0,9.552751780E-1
2.369886168E1,5.243760347E-1,7.470161468E-2,3.130543530E-1
2.371912944E1,1.087234735E0,5.199818015E-1,8.008119464E-1
2.373939714E1,1.206544280E0,1.868738770E0,1.100151062E0
2.375966490E1,1.199087381E0,3.036534071E0,6.422207952E-1
2.377993267E1,1.186304212E0,3.334141970E0,1.681784987E-1
2.380020043E1,1.096822023E0,3.037066698E0,-3.366233110E-1
2.382058688E1,1.037167311E0,2.521079540E0,-9.382309318E-1
2.384073590E1,1.112268448E0,1.833052397E0,-1.524525404E0
2.386100366E1,1.206011653E0,7.941540480E-1,-1.829723477E0
2.388068480E1,9.950894117E-1,-5.030707717E-1,-1.694967628E0
2.390108480E1,3.374222517E-1,-1.389103770E0,-1.208275318E0
2.392148480E1,-2.945453823E-1,6.724476814E-2,-4.840291739E-1
2.394188480E1,-6.194508076E-1,2.533862829E0,1.012000442E-2
2.396228480E1,-9.064062238E-1,3.232942104E0,-2.663159044E-3
2.398261392E1,-1.073652625E0,2.469946861E0,1.974732429E-1
2.400301392E1,-9.591367245E-1,1.336772680E0,2.725743353E-1
2.402314808E1,-6.977477074E-1,4.198470414E-1,1.352884769E-1
2.404341537E1,-5.922865868E-1,-1.483379602E-1,5.326318089E-3
2.406368267E1,-7.318361402E-1,-4.050664902E-1,-1.177116334E-1
2.408395011E1,-1.003877878E0,-4.775044322E-1,-1.981390417E-1
2.410421761E1,-1.282444239E0,-4.066644013E-1,-2.018674612E-1
2.412448517E1,-1.246757984E0,-2.490053773E-1,-1.747032404E-1
2.414475277E1,-8.835030198E-1,4.700475931E-2,-1.347558498E-1
2.416502032E1,-5.470128655E-1,3.809649050E-1,2.343579940E-2
2.418528803E1,1.181111038E-1,5.741770864E-1,2.145174593E-1
2.420555569E1,8.715187907E-1,6.918887496E-1,7.187866569E-1
2.422582334E1,1.406680584E0,1.364469528E0,8.535425067E-1
2.424609105E1,9.530115128E-1,1.124785304E0,3.194459379E-1
2.426649105E1,1.479384899E-1,8.106656075E-1,1.878858805E-1
2.428678444E1,-5.086634159E-1,8.426235318E-1,8.338351250E-1
2.430685563E1,-8.376966715E-1,1.131709456E0,1.169393182E0
2.432709845E1,-7.579351068E-1,1.529052854E0,1.012799382E0
2.434742256E1,-4.282359779E-1,2.103629351E0,6.672545075E-1
2.436769173E1,-7.057371549E-3,2.819752932E0,3.386206925E-1
2.438796063E1,3.619233072E-1,3.519497871E0,-2.663159044E-3
2.440822933E1,5.536707640E-1,3.894337654E0,-2.567285299E-1
2.442849772E1,4.460791349E-1,3.702723265E0,-2.295643091E-1
2.444876605E1,-1.231711060E-1,2.947051764E0,-3.870901763E-1
2.446903428E1,-8.478167057E-1,1.575391769E0,-6.379597783E-1
2.448930246E1,-1.001214623E0,3.495396376E-1,-6.603302956E-1
2.450957048E1,-6.327666044E-1,-4.370244145E-1,-6.821681857E-1
2.452983850E1,-1.492700726E-1,-7.303713560E-1,-8.131956458E-1
2.455010642E1,1.127847880E-1,-5.934849977E-1,-9.643298984E-1
2.457037433E1,3.289001435E-2,-1.419463754E-1,-1.025049925E0
2.459064220E1,-3.504717350E-1,4.603270590E-1,-8.840356469E-1
2.461091006E1,-8.920251131E-1,1.126915812E0,-5.410207510E-1
2.463117787E1,-1.322391629E0,1.820801854E0,-1.320926845E-1
2.465144569E1,-1.452220678E0,2.429466963E0,1.868206114E-1
2.467171350E1,-1.333576918E0,2.873548746E0,3.247722387E-1
2.469198131E1,-1.155677915E0,3.056241274E0,3.194459379E-1
2.471224912E1,-1.041694641E0,2.914561272E0,2.464753687E-1
2.473251688E1,-1.039564133E0,2.493915319E0,1.304948032E-1
2.475278470E1,-1.095490456E0,1.843705058E0,5.432844535E-2
2.477305246E1,-1.072054744E0,9.289098978E-1,-1.012000442E-2
2.479332022E1,-5.139896870E-1,-4.412854612E-1,-1.693769246E-1
2.481358793E1,-2.037316747E-2,-9.881651998E-1,-2.854906619E-1
2.483385579E1,1.500690132E-1,-6.462155581E-1,-3.605917394E-1
2.485412355E1,2.326269448E-1,1.930790395E-2,-3.547327816E-1
2.487439131E1,3.944138587E-1,5.709813237E-1,-2.806969583E-1
2.489465912E1,5.797697306E-1,8.602004051E-1,-1.938779801E-1
2.491492683E1,6.463487148E-1,9.315730333E-1,-2.716422267E-2
2.493519459E1,5.978792310E-1,8.138614297E-1,1.118526831E-1
2.495546235E1,4.892223179E-1,6.428865790E-1,-9.960214794E-2
2.497573011E1,3.342264593E-1,5.928192139E-1,-6.704503298E-1
2.499599787E1,1.479384899E-1,7.099981904E-1,-1.190165758E0
2.501626563E1,-4.061317816E-2,9.028109312E-1,-1.185904741E0
2.503653340E1,-2.211753577E-1,8.575372100E-1,-4.259723127E-1
2.505680116E1,-2.211753577E-1,-9.546093941E-1,6.475471258E-1
2.507706892E1,-3.262370080E-2,-2.555301189E0,7.821698189E-1
2.509733668E1,3.113232851E-1,-2.076598406E0,7.038729787E-1
2.511760444E1,9.322388172E-1,-5.233107805E-1,8.354330063E-1
2.513787220E1,1.374190092E0,1.156210542E0,7.139929533E-1
2.515813996E1,1.490303874E0,2.415618420E0,4.062649310E-1
2.517840767E1,1.383244872E0,2.980075121E0,1.857553422E-1
2.519867548E1,1.183108449E0,2.798447609E0,4.474107176E-2
2.521894324E1,9.727188349E-1,2.075932503E0,-8.468846232E-2
2.523921100E1,7.321024537E-1,1.032240510E0,-6.977476925E-2
2.525947876E1,4.125233591E-1,-2.511359155E-1,2.608564198E-1
2.527974647E1,1.202416345E-1,-1.533447027E0,7.848330140E-1
2.530001423E1,7.134603262E-1,-3.523359597E-1,1.248622179E0
2.532040074E1,1.442366958E0,1.635978580E0,1.761013985E0
2.534054975E1,1.471661687E0,1.617869139E0,2.533596516E0
2.536081751E1,9.402283430E-1,8.713856339E-1,2.982471943E0
2.538108527E1,2.587259114E-1,9.614004493E-1,2.723213434E0
2.540135303E1,-1.940111369E-1,1.427320123E0,2.437722683E0
2.542162079E1,-1.588574350E-1,1.149286270E0,2.204030514E0
2.544202079E1,1.841574460E-1,2.195774615E-1,1.892973542E0
2.546215626E1,4.258391261E-1,-5.892239809E-1,1.603354931E0
2.548255626E1,4.721781015E-1,-6.307692528E-1,1.438771725E0
2.550269178E1,4.647212625E-1,-1.318263710E-1,1.377519011E0
2.552295954E1,4.753738940E-1,3.522028029E-1,1.407346487E0
2.554322730E1,4.838960171E-1,6.535392404E-1,1.471794844E0
2.556349506E1,4.833633900E-1,9.134635925E-1,1.479784369E0
2.558376282E1,4.210454524E-1,1.006141543E0,1.340767503E0
2.560403058E1,1.990711391E-1,9.938910007E-1,1.026115179E0
2.562429829E1,-3.741738573E-2,8.415582776E-1,5.282375813E-1
2.564456605E1,-2.195774615E-1,5.970802903E-1,-4.474107176E-2
2.566483381E1,-4.362254739E-1,5.699160695E-1,-5.394228697E-1
2.568510157E1,-6.231792569E-1,5.114597082E-1,-8.888293505E-1
2.570536933E1,-6.615287066E-1,2.382195890E-1,-1.288702726E0
2.572563704E1,-5.853623748E-1,-5.566002429E-2,-1.761546612E0
2.574590480E1,-5.118591785E-1,3.053312004E-1,-1.951163530E0
2.576625126E1,-9.048082829E-1,1.380981207E0,-1.590039134E0
2.578659793E1,-1.334642172E0,2.091911554E0,-1.027713060E0
2.580662980E1,-1.180179000E0,6.695181727E-1,-1.049018383E0
2.582688116E1,-5.150549412E-1,-1.020123124E0,-1.558081269E0
2.584724037E1,-4.394212738E-3,-1.069657803E0,-1.917075038E0
2.586750871E1,-1.593900770E-1,-2.878875136E-1,-1.857420325E0
2.588777699E1,-5.225118399E-1,6.404897571E-2,-1.676325440E0
2.590804511E1,-8.360987902E-1,1.327584833E-1,-1.634247541E0
2.592831313E1,-1.046488404E0,1.023984700E-1,-1.828125596E0
2.594858121E1,-1.132774711E0,1.183774248E-1,-2.082590342E0
2.596884912E1,-1.008671522E0,1.636511236E-1,-2.243977785E0
2.598911699E1,-6.391581893E-1,1.173121557E-1,-2.280729532E0
2.600938490E1,-1.423458606E-1,3.328948980E-3,-2.298838854E0
2.602965277E1,3.246390820E-1,-1.227716357E-1,-2.315350533E0
2.604992063E1,6.181192398E-1,-2.031990439E-1,-2.125200987E0
2.607018845E1,4.348938763E-1,1.131842658E-2,-1.641171813E0
2.609045626E1,-1.130511016E-1,4.534028471E-1,-9.520793557E-1
2.611072407E1,-4.767054915E-1,5.114597082E-1,-2.524674833E-1
2.613099178E1,-3.866907060E-1,1.412805915E-1,1.597895473E-2
2.615139178E1,-4.700475931E-2,-4.434159994E-1,3.302317113E-2
2.617152735E1,2.326269448E-1,-9.258472323E-1,1.336905807E-1
2.619179506E1,2.948117256E-1,-1.139832139E0,2.784332931E-1
2.621206287E1,2.278332561E-1,-1.110537291E0,4.046670198E-1
2.623233063E1,1.559279710E-1,-9.567399025E-1,5.271723270E-1
2.625259834E1,1.319595277E-1,-7.846998572E-1,5.862944722E-1
2.627286616E1,1.537974328E-1,-6.163882017E-1,5.261070728E-1
2.629313386E1,1.697763950E-1,-4.444812536E-1,3.732417524E-1
2.631340157E1,1.884185076E-1,-1.217063740E-1,1.368863732E-1
2.633366938E1,1.990711391E-1,4.518049359E-1,-9.800425172E-2
2.635393715E1,1.985385120E-1,1.101882100E0,-2.210422009E-1
2.637420485E1,8.668582886E-2,1.511475921E0,-1.933453530E-1
2.639447261E1,-2.073269337E-1,1.317597985E0,-1.278316416E-2
2.641474037E1,-5.869602561E-1,4.597944319E-1,7.936213911E-2
2.643500808E1,-7.659245729E-1,-8.155924678E-1,-1.464737505E-1
2.645527584E1,-6.066676378E-1,-1.978061438E0,-3.094590902E-1
2.647554360E1,-3.627222776E-1,-2.374738932E0,-2.625874877E-1
2.649581131E1,-2.249037921E-1,-2.116545677E0,-1.347558498E-1
2.651607907E1,-2.296974659E-1,-1.494032264E0,-5.166528746E-2
2.653634678E1,-2.243711501E-1,-8.273103833E-1,-1.177116334E-1
2.655661454E1,-1.013332009E-1,-2.090579867E-1,-2.322274745E-1
2.657688230E1,3.595264861E-3,4.661859870E-1,-2.311622053E-1
2.659715001E1,2.170474641E-2,1.074851036E0,-2.418148518E-1
2.661741777E1,-8.109319210E-2,1.429450631E0,-2.572611570E-1
2.663768548E1,-2.748380303E-1,1.394829631E0,-3.046653867E-1
2.665795324E1,-2.552638054E-1,-7.536740601E-2,-4.536691606E-1
2.667822095E1,1.580584943E-1,-2.648511648E0,-5.910881758E-1
2.669848871E1,6.032055616E-1,-3.754521608E0,-3.504717350E-1
2.671875642E1,9.849693775E-1,-3.554252148E0,-4.101264849E-2
2.673915642E1,1.426920652E0,-2.554235935E0,1.900164038E-1
2.675929188E1,2.146905661E0,-9.940241575E-1,4.419512451E-1
2.677955965E1,2.822682381E0,9.166593552E-1,6.065344810E-1
2.679995964E1,2.986067057E0,2.508829117E0,6.608629227E-1
2.682025303E1,2.549442291E0,3.245192528E0,5.761744976E-1
2.684036345E1,1.693236589E0,2.933736086E0,5.346291661E-1
2.686063100E1,5.238434076E-1,1.638641834E0,8.418245912E-1
2.688085944E1,-1.156210542E0,-7.543398142E-1,1.775395036E0
2.690116626E1,-2.056092024E0,-1.791640282E0,2.230662107E0
2.692143392E1,-5.017392039E-1,9.496825337E-1,1.889777660E0
2.694170162E1,8.965525031E-1,1.219593763E0,2.011750460E0
2.696196933E1,1.581916451E0,3.475422785E-2,2.780737638E0
2.698223704E1,1.787512422E0,-2.814959288E-1,2.803108215E0
2.700250480E1,1.507880688E0,-4.428833723E-1,2.235988379E0
2.702277246E1,1.388571143E0,-1.051548362E0,1.900430322E0
2.704317246E1,1.228382111E0,-1.277251124E0,1.681119204E0
2.706330793E1,7.986814380E-1,-6.323671341E-1,1.422260165E0
2.708357563E1,3.677822649E-1,4.966791719E-2,1.100683689E0
2.710384340E1,6.271740049E-2,1.966743022E-1,7.187866569E-1
2.712411110E1,-1.151816323E-1,-1.137168929E-1,2.576606572E-1
2.714437886E1,-2.030658871E-1,-2.660495937E-1,-1.763011366E-1
2.716477886E1,-3.728422821E-1,1.221058443E-1,-5.106607676E-1
2.718507225E1,-6.396908164E-1,7.419561148E-1,-8.957535625E-1
2.720518261E1,-6.476802826E-1,1.418797970E0,-1.192296386E0
2.722545027E1,-6.029392481E-1,2.626008034E0,-7.801724672E-1
2.724571787E1,-2.214283705E0,3.801659584E0,-1.320926845E-1
2.726611787E1,-2.267014265E0,1.054610968E0,-4.387554526E-1
2.728641110E1,-1.084305286E0,-1.083373070E0,-1.266332150E0
2.730667886E1,-5.603286624E-1,-4.812328517E-1,-1.667270780E0
2.732694048E1,-4.399538934E-1,4.480765164E-1,-1.897367716E0
2.734704980E1,-3.989412189E-1,5.390233994E-1,-1.994706154E0
2.736731746E1,-5.981455445E-1,5.499423668E-2,-1.881388783E0
2.738771881E1,-9.559409618E-1,-6.151897460E-2,-1.901628733E0
2.740785532E1,-1.394163847E0,1.348890066E-1,-2.312687397E0
2.742812381E1,-1.542235494E0,7.576687634E-2,-2.583131075E0
2.744839220E1,-1.139166355E0,7.789740711E-2,-2.704571247E0
2.746866043E1,-3.227748871E-1,1.930790395E-2,-2.701375484E0
2.748892855E1,5.877591968E-1,-1.616537571E-1,-2.526272774E0
2.750919662E1,1.373124838E0,-4.087949097E-1,-2.249836922E0
2.752946433E1,1.405615330E0,-5.625923872E-1,-1.797765493E0
2.754985105E1,3.251717389E-1,-7.916240692E-1,-7.897598147E-1
2.757000027E1,-6.823013425E-1,-9.380977750E-1,3.167827725E-1
2.759026813E1,-1.070989490E0,-7.617966533E-1,6.257092357E-1
2.761053600E1,-9.250482917E-1,-4.370244145E-1,6.315681934E-1
2.763080386E1,-4.591286182E-1,-1.190432087E-1,6.171871424E-1
2.765107168E1,5.898897350E-2,1.519332230E-1,6.012081504E-1
2.767133944E1,4.663191736E-1,4.059986174E-1,5.777723789E-1
2.769160730E1,6.676539779E-1,6.482129097E-1,5.266396999E-1
2.771187501E1,6.522076726E-1,8.399603963E-1,3.961449265E-1
2.773214277E1,5.014728308E-1,1.200418949E0,1.932121962E-1
2.775241058E1,2.713759243E-1,1.788843989E0,1.065263641E-3
2.777267829E1,-1.331579551E-4,2.176466703E0,-3.888212144E-2
2.779294605E1,-3.621896505E-1,1.958753467E0,8.149266988E-2
2.781321371E1,-8.243808746E-1,9.294425249E-1,1.219726875E-1
2.783348157E1,-1.126915812E0,-6.089313030E-1,-9.853688627E-2
2.785374928E1,-1.065663099E0,-2.089914083E0,-3.046653867E-1
2.787414928E1,-9.298419952E-1,-2.966892481E0,-3.769701719E-1
2.789428470E1,-1.075783134E0,-2.684198141E0,-3.073285520E-1
2.791455246E1,-1.173254728E0,-1.755953908E0,-8.468846232E-2
2.793482017E1,-9.447556734E-1,-9.775125384E-1,1.262337416E-1
2.795508787E1,-4.841623306E-1,-6.318345070E-1,6.391582079E-3
2.797535563E1,2.543316968E-2,-5.105276108E-1,-3.600591123E-1
2.799562334E1,4.524707198E-1,-3.395527899E-1,-4.499407411E-1
2.801589105E1,6.554034352E-1,1.167795286E-1,-2.535327375E-1
2.803615881E1,5.957486629E-1,9.134635925E-1,-1.922800839E-1
2.805642652E1,4.625907242E-1,1.858618736E0,-4.957470596E-1
2.807669423E1,5.036033988E-1,2.312287807E0,-8.536756635E-1
2.809696199E1,1.128247380E0,-1.304947957E-2,-6.251766086E-1
2.811722970E1,1.635179639E0,-2.464221001E0,3.567301631E-1
2.813749740E1,1.845036626E0,-3.382212162E0,9.355677962E-1
2.815776517E1,1.822666049E0,-3.170357704E0,8.700540662E-1
2.817803287E1,2.135720491E0,-1.720267653E0,9.675257206E-1
2.819830063E1,2.604303360E0,9.267793894E-1,1.131043673E0
2.821856834E1,2.366882563E0,2.911365509E0,8.487488031E-1
2.823883605E1,1.597362876E0,3.318695784E0,3.950796425E-1
2.825910381E1,3.826959729E-1,1.895370364E0,4.568649530E-1
2.827937157E1,-1.491102815E0,-1.144625783E0,1.459544301E0
2.829963928E1,-1.833585024E0,-1.672330737E0,2.628937483E0
2.831990699E1,-1.918806136E-1,1.055676222E0,3.280745745E0
2.834017475E1,5.834981799E-1,8.996151686E-1,3.786080122E0
2.836044246E1,1.081908345E0,5.736444592E-1,3.800993919E0
2.838071022E1,1.043026209E0,-3.075948656E-1,2.977678299E0
2.840097793E1,1.080843091E0,-1.593634367E0,2.130527258E0
2.842124569E1,1.215598941E0,-2.332661152E0,1.587375998E0
2.844151340E1,1.227849483E0,-1.826261401E0,1.071921587E0
2.846178116E1,1.119192600E0,-8.544746041E-1,4.616586268E-1
2.848204892E1,7.534077168E-1,-3.507380486E-1,-1.731053442E-1
2.850244892E1,8.988162130E-2,-1.872200817E-1,-7.631282210E-1
2.852258438E1,-6.402234435E-1,2.504701018E-1,-1.452087522E0
2.854285209E1,-1.241431594E0,1.161536813E0,-2.114015579E0
2.856311985E1,-1.697763920E0,2.283525705E0,-2.307893753E0
2.858338756E1,-2.182858467E0,3.332011461E0,-2.068742037E0
2.860365532E1,-1.816008210E0,2.973150730E0,-1.836115003E0
2.862392308E1,1.691105962E-2,7.416898012E-2,-1.854224563E0
2.864419079E1,7.539403439E-1,-2.154762030E0,-1.768470764E0
2.866445855E1,8.988162130E-2,-8.262451291E-1,-1.692837119E0
2.868472626E1,-6.993455887E-1,8.868319988E-1,-1.758883476E0
2.870499402E1,-9.772462249E-1,1.283509493E0,-2.047436714E0
2.872526178E1,-1.092294693E0,8.426235318E-1,-2.152365208E0
2.874552949E1,-1.179646373E0,1.860216707E-1,-2.026131392E0
2.876579725E1,-1.216930509E0,-4.002728164E-1,-1.797232866E0
2.878606496E1,-1.062467337E0,-6.589987278E-1,-1.554885387E0
2.880646496E1,-6.487455368E-1,-4.753738940E-1,-1.454218030E0
2.882675876E1,-2.680469751E-1,2.143843099E-2,-1.190165758E0
2.884686819E1,1.478053257E-2,8.335688114E-1,-6.177197695E-1
2.886713590E1,-1.664474420E-2,6.034718752E-1,3.195791040E-3
2.888740366E1,-2.472743243E-1,-8.406261802E-1,1.735048145E-1
2.890767142E1,-1.801627129E-1,-1.758084536E0,1.331579536E-1
2.892793918E1,5.472791940E-2,-1.937048793E0,1.113200486E-1
2.894820688E1,2.257027328E-1,-1.673395991E0,2.049300969E-1
2.896847464E1,2.613890767E-1,-1.150484681E0,3.860249221E-1
2.898874241E1,2.022669315E-1,-5.275717974E-1,5.980123878E-1
2.900901011E1,1.351553202E-1,-2.157158963E-2,7.342329621E-1
2.902927787E1,8.082687855E-2,3.356912136E-1,7.198519111E-1
2.904954563E1,4.673844203E-2,6.317013502E-1,5.431513190E-1
2.906981334E1,-3.475422785E-2,8.628635406E-1,2.022669315E-1
2.909008110E1,-1.876195520E-1,1.083772540E0,-1.464737505E-1
2.911034886E1,-3.813643754E-1,1.286705375E0,-3.749727905E-1
2.913061662E1,-5.693834424E-1,1.071655273E0,-5.218459964E-1
2.915088433E1,-9.016125202E-1,6.777740270E-2,-7.364966273E-1
2.917115209E1,-1.052347302E0,-1.283110023E0,-6.699176431E-1
2.919141985E1,-8.435556293E-1,-1.992975116E0,-4.083954394E-1
2.921168761E1,-5.496760607E-1,-1.931722403E0,-3.600591123E-1
2.923195537E1,-3.424822688E-1,-1.380048990E0,-3.419496417E-1
2.925222308E1,-2.195774615E-1,-6.201165915E-1,-2.386190593E-1
2.927249084E1,-1.860216707E-1,1.870869249E-1,-1.938779801E-1
2.929275860E1,-2.494048476E-1,1.068992019E0,-2.002695650E-1
2.931302636E1,-4.037349224E-1,1.749961853E0,-1.763011366E-1
2.933329412E1,-4.703139067E-1,1.785648227E0,-1.773663908E-1
2.935356188E1,-7.949529588E-2,1.780321896E-1,-2.881538272E-1
2.937382959E1,8.693882823E-1,-3.287936211E0,-3.440801501E-1
2.939409735E1,1.489771247E0,-4.502603054E0,-9.640636295E-2
2.941436511E1,1.990311980E0,-2.847050190E0,1.820269227E-1
2.943463287E1,2.481265306E0,3.862912357E-1,4.510059953E-1
2.945490063E1,2.606966496E0,2.846917152E0,5.186502337E-1
2.947516840E1,2.332261562E0,3.672363281E0,5.639239550E-1
2.949543610E1,1.833318710E0,3.289401054E0,6.688523889E-1
2.951570386E1,1.172988415E0,2.042376757E0,8.482161760E-1
2.953597162E1,1.564605981E-1,-1.677790284E-2,1.185372114E0
2.955623938E1,-1.294162154E0,-2.413621187E0,2.003228188E0
2.957650714E1,-1.208941102E0,-7.399587631E-1,2.459560633E0
2.959677490E1,4.913528562E-1,3.367165327E0,2.530933142E0
2.961704261E1,1.197489500E0,2.578071117E0,2.985667706E0
2.963731037E1,1.472194314E0,3.255712092E-1,3.452652693E0
2.965757813E1,1.323723197E0,-7.170555592E-1,3.185404539E0
2.967784590E1,1.005742073E0,-6.456829309E-1,2.583663702E0
2.969811366E1,9.546093941E-1,-7.708513737E-1,2.263152599E0
2.971838136E1,1.023851514E0,-1.053678870E0,1.935584068E0
2.973864912E1,8.928241134E-1,-8.443545699E-1,1.405748487E0
2.975891688E1,5.856286883E-1,-4.620580971E-1,7.917572260E-1
2.977918464E1,1.681784987E-1,-3.603254259E-1,9.960214794E-2
2.979945240E1,-3.334275186E-1,-1.531316489E-1,-4.499407411E-1
2.981972011E1,-7.627287507E-1,3.010701239E-1,-7.988145947E-1
2.983998787E1,-1.028911471E0,9.299751520E-1,-1.259407997E0
2.986025563E1,-1.316532731E0,1.873532414E0,-1.633182287E0
2.988052340E1,-1.780321836E0,2.928942442E0,-1.268462658E0
2.990079116E1,-2.567285299E0,2.989129782E0,-6.125266105E-2
2.992105892E1,-1.622662783E0,-8.028092980E-1,-5.309007764E-1
2.994132662E1,-1.620532274E-1,-3.388071060E0,-1.341433287E0
2.996159438E1,4.604602158E-1,-2.524941206E0,-1.766340256E0
2.998186214E1,1.591237634E-1,-8.070703745E-1,-1.885117173E0
3.000212990E1,-1.167795286E-1,-1.677790284E-2,-2.204030514E0
3.002239767E1,-3.792338669E-1,4.008054361E-2,-2.641720772E0
3.004266543E1,-8.675240874E-1,-1.813611388E-1,-3.124151945E0
3.006293313E1,-1.379782677E0,-3.928159773E-1,-3.592335224E0
3.008320090E1,-1.706818700E0,-6.478134394E-1,-3.566768885E0
3.010346860E1,-1.600824952E0,-5.434176326E-1,-3.243993998E0
3.012373636E1,-7.243793011E-1,-4.660528526E-2,-2.781802893E0
3.014400412E1,6.053360701E-1,4.219775498E-1,-1.871801376E0
3.016427188E1,1.391234279E0,4.613923132E-1,-1.230113149E0
3.018453964E1,8.024098277E-1,-3.214432895E-1,-3.924165070E-1
3.020480735E1,-8.483493328E-1,-8.624640703E-1,5.569997430E-1
3.022507511E1,-1.403218508E0,-8.560724854E-1,6.795050502E-1
3.024534287E1,-1.024650455E0,-3.267696202E-1,6.305029392E-1
3.026561058E1,-4.415517747E-1,2.882869840E-1,6.416881680E-1
3.028587834E1,-2.942790836E-2,7.526087761E-1,6.374271512E-1
3.030627834E1,1.399490088E-1,9.496825337E-1,5.777723789E-1
3.032657215E1,1.687111259E-1,8.980172276E-1,4.552670419E-1
3.034668157E1,1.287637353E-1,6.460824013E-1,2.693785429E-1
3.036694933E1,7.976161689E-2,2.744385600E-1,1.948100924E-1
3.038721704E1,2.703106403E-2,1.295626909E-1,2.486059070E-1
3.040761704E1,-8.641951531E-2,3.500722647E-1,1.782985032E-1
3.042775251E1,-2.966759205E-1,8.527435660E-1,-1.438105945E-2
3.044802027E1,-4.964128435E-1,1.148753643E0,-1.443432271E-1
3.046828803E1,-5.550023317E-1,6.785729527E-1,-1.166463718E-1
3.048855574E1,-5.203812718E-1,-6.052029133E-1,-1.757684946E-1
3.050882350E1,-5.640571117E-1,-1.949299335E0,-3.557980657E-1
3.052909126E1,-9.660609365E-1,-2.051032066E0,-3.504717350E-1
3.054935897E1,-1.040096760E0,-1.572861791E0,-2.428801060E-1
3.056962673E1,-5.235770941E-1,-1.000415683E0,-1.597895473E-1
3.058989444E1,1.000016257E-1,-1.776327193E-1,-1.427453309E-1
3.061016220E1,4.135886133E-1,7.856319547E-1,-2.460758984E-1
3.063042996E1,3.986749053E-1,1.379915833E0,-3.680485785E-1
3.065082996E1,5.206476152E-2,1.224920034E0,-2.801643312E-1
3.067096543E1,-3.020022511E-1,1.785648167E-1,-1.677790284E-1
3.069123313E1,-7.310371846E-2,-1.873665571E0,-1.874863952E-1
3.071150090E1,5.414202213E-1,-3.434410095E0,-2.450106442E-1
3.073176860E1,1.240100026E0,-3.487673044E0,-4.527370632E-2
3.075203636E1,1.947168827E0,-2.108023643E0,3.860249221E-1
3.077230412E1,2.487124205E0,2.707101107E-1,7.858982682E-1
3.079271209E1,2.748646498E0,2.535993338E0,1.069790959E0
3.081300548E1,2.642120123E0,3.811779737E0,1.157142639E0
3.083310761E1,2.111752033E0,3.801659584E0,1.213068962E0
3.085337522E1,1.139965296E0,2.745717049E0,1.299222112E0
3.087364298E1,1.719069183E-1,1.243562102E0,1.086835265E0
3.089391063E1,-5.965476632E-1,-2.516685426E-1,7.763108611E-1
3.091417834E1,-7.121287584E-1,-7.426218987E-1,9.025446177E-1
3.093444605E1,4.753738940E-1,4.805670679E-1,1.313603282E0
3.095471376E1,1.379516363E0,5.619265437E-1,1.839177728E0
3.097498147E1,1.537175417E0,2.206427306E-1,3.056507587E0
3.099524923E1,1.308809519E0,1.181244254E0,3.394063234E0
3.101551694E1,9.157272577E-1,1.401221156E0,2.851444483E0
3.103578470E1,1.021721005E0,-5.992107838E-2,2.415352106E0
3.105605241E1,1.338636875E0,-1.638242364E0,1.921735644E0
3.107632017E1,1.478053331E0,-1.820402384E0,1.283775806E0
3.109658787E1,1.270992637E0,-9.093356729E-1,6.225134134E-1
3.111685558E1,6.255760789E-1,-3.755054250E-2,3.728422802E-3
3.113712334E1,-1.471395344E-1,4.327633604E-2,-5.724460483E-1
3.115739105E1,-7.483476996E-1,5.020054802E-2,-1.226384759E0
3.117765881E1,-9.617999196E-1,3.308975101E-1,-1.825462461E0
3.119792652E1,-6.056023836E-1,1.391633749E0,-2.055958748E0
3.121819423E1,-1.330381155E0,2.471544743E0,-1.657683372E0
3.123846199E1,-2.292047977E0,2.561027050E0,-1.145957351E0
3.125872970E1,-1.630119681E0,5.832318664E-1,-8.147935271E-1
3.127899741E1,-9.889641404E-1,-6.893587112E-1,-9.739173055E-1
3.129926517E1,-9.314398766E-1,-1.850895584E-1,-1.294561625E0
3.131966517E1,-9.325051308E-1,5.459476113E-1,-1.620399117E0
3.133980058E1,-8.265114427E-1,5.157207847E-1,-1.856887698E0
3.136006834E1,-6.897581816E-1,1.396826953E-1,-1.906955123E0
3.138033605E1,-8.488819599E-1,-1.041295230E-1,-2.030925035E0
3.140060376E1,-1.133839965E0,-2.932138145E-1,-2.052762985E0
3.142087152E1,-1.119458914E0,-4.167844057E-1,-1.823864460E0
3.144113923E1,-7.739140391E-1,-4.359591305E-1,-1.484578013E0
3.146140694E1,-2.462090552E-1,-2.010685056E-1,-1.339302659E0
3.148167465E1,1.090563685E-1,-2.316948399E-2,-1.349955320E0
3.150194240E1,8.029424399E-2,-3.267696202E-1,-1.336106896E0
3.152221011E1,-1.652490199E-1,-8.832367063E-1,-1.219993234E0
3.154261011E1,-3.249054253E-1,-1.214400530E0,-9.616667628E-1
3.156274558E1,-2.711096108E-1,-1.278849006E0,-6.406229138E-1
3.158301329E1,-3.302317262E-1,-1.107874155E0,-4.962796867E-1
3.160328095E1,-4.207791388E-1,-7.000113726E-1,-2.982738316E-1
3.162354871E1,-3.510043621E-1,-3.134538233E-1,9.161267430E-2
3.164381642E1,-2.716422379E-1,-1.153147891E-1,2.906838059E-1
3.166408418E1,-2.414153665E-1,-1.142495275E-1,2.954775095E-1
3.168435188E1,-2.302301079E-1,-2.047969401E-1,3.806985915E-1
3.170461959E1,-2.796317041E-1,-2.207758874E-1,5.447492003E-1
3.172488730E1,-3.691138625E-1,-6.524740160E-2,5.932186842E-1
3.174515501E1,-3.813643754E-1,1.087900475E-1,4.163849354E-1
3.176555501E1,-4.138549268E-1,3.996070325E-1,1.257011145E-1
3.178569048E1,-5.219792128E-1,7.866972089E-1,-1.299621612E-1
3.180595819E1,-6.551371217E-1,9.070720077E-1,-1.816274524E-1
3.182622584E1,-7.435539961E-1,4.475438893E-1,2.503369562E-2
3.184649360E1,-7.185203433E-1,-7.803056389E-2,1.177116334E-1
3.186676131E1,-4.548675716E-1,-4.077296555E-1,2.556632832E-2
3.188702902E1,-1.593900770E-1,-3.853591084E-1,5.432844535E-2
3.190729673E1,-2.836264484E-2,-5.619265884E-2,1.272990108E-1
3.192756444E1,-8.002793044E-2,4.086617529E-1,5.592634156E-2
3.194783215E1,-2.648511827E-1,8.586025238E-1,-1.656484902E-1
3.196809991E1,-4.809665382E-1,1.145557880E0,-1.901495606E-1
3.198836761E1,-5.454149842E-1,1.104545236E0,1.331579592E-2
3.200863532E1,-1.679121852E-1,2.728406489E-1,1.390169114E-1
3.202890303E1,5.089297295E-1,-1.169126868E0,6.498108059E-2
3.204917074E1,1.298689485E0,-2.507364273E0,4.740423337E-2
3.206943845E1,2.235855341E0,-3.178879976E0,1.782985032E-1
3.208970616E1,3.186869383E0,-1.978061438E0,2.954775095E-1
3.210997386E1,3.618700504E0,1.063133121E0,2.954775095E-1
3.213024157E1,3.153846264E0,3.754388571E0,2.619217038E-1
3.215050928E1,2.142112017E0,4.448141575E0,3.300985694E-1
3.217077699E1,6.969487667E-1,3.183540344E0,5.410207510E-1
3.219104470E1,-9.974862337E-1,1.055143595E0,1.138500571E0
3.221131240E1,-1.365401626E0,1.974199891E0,2.250369549E0
3.223158011E1,-5.944170952E-1,2.731868505E0,2.134788275E0
3.225184782E1,4.998749495E-1,1.105077863E0,1.870602965E0
3.227211553E1,1.346493244E0,-4.561991692E-1,2.444114208E0
3.229238324E1,1.547828078E0,-2.681801319E-1,2.551173210E0
3.231265095E1,1.286971688E0,4.555333555E-1,2.136386156E0
3.233291866E1,1.319462180E0,7.576687634E-2,1.917474508E0
3.235318636E1,1.652223945E0,-5.067991614E-1,1.660879135E0
3.237345407E1,1.672463894E0,-3.861580789E-2,1.207210064E0
3.239372178E1,9.402283430E-1,1.031175256E0,5.383576155E-1
3.241398949E1,4.673844278E-1,6.247771382E-1,-2.327601016E-1
3.243425720E1,2.724411786E-1,1.664474420E-2,-7.450187802E-1
3.245452485E1,2.383527346E-2,4.807002097E-2,-7.839008570E-1
3.247479256E1,-2.886864543E-1,-7.190529723E-3,-6.981471777E-1
3.249506027E1,-6.476802826E-1,-3.222422674E-2,-4.781702161E-1
3.251532798E1,-8.611325026E-1,3.852259517E-1,-9.587372839E-2
3.253559569E1,-7.115961313E-1,1.187635779E0,3.226417303E-1
3.255586340E1,-1.988048255E-1,1.541835904E0,7.209171653E-1
3.257613105E1,2.470080107E-1,1.230778933E0,1.156610012E0
3.259639876E1,3.235738352E-2,8.910930157E-1,1.302417994E0
3.261666647E1,-6.604634523E-1,9.725856781E-1,8.498140574E-1
3.263693418E1,-7.808382511E-1,1.586044431E0,3.183806837E-1
3.265720188E1,-9.191893935E-1,2.497111082E0,-3.589938581E-1
3.267746954E1,-9.617999196E-1,1.145557880E0,-7.961513996E-1
3.269773725E1,-7.009434700E-1,-5.366265774E-1,-1.118793130E0
3.271800496E1,-7.073350549E-1,-6.222470999E-1,-1.681651831E0
3.273827267E1,-3.126548827E-1,4.427502155E-1,-1.872866631E0
3.275854037E1,-1.077247858E-1,1.440103292E0,-1.652357101E0
3.277880803E1,-9.266462326E-1,1.673262835E0,-1.439437509E0
3.279907574E1,-1.670067072E0,1.371393800E0,-1.426654339E0
3.281934345E1,-1.908553004E0,1.018392086E0,-1.545298100E0
3.283961116E1,-1.751027107E0,1.103479981E0,-1.716272831E0
3.285987886E1,-1.362205863E0,1.048752069E0,-1.841441393E0
3.288014657E1,-8.472840786E-1,8.815056682E-1,-1.950098276E0
3.290041423E1,-3.483411968E-1,6.348971128E-1,-2.141712666E0
3.292068194E1,-2.143843099E-2,4.038680792E-1,-2.444247484E0
3.294094964E1,2.113216817E-1,3.745733202E-1,-2.791922808E0
3.296121730E1,4.998749495E-1,2.691122293E-1,-3.019889355E0
3.298148501E1,5.739107728E-2,5.544697046E-1,-2.707234383E0
3.300175272E1,-8.446208835E-1,1.042893052E0,-1.452620149E0
3.302202043E1,-1.454883814E0,9.278446436E-1,-7.796398401E-1
3.304228808E1,-1.178581119E0,1.040762544E0,-3.115896285E-1
3.306255579E1,-4.862928391E-1,1.334642172E0,-3.206443489E-1
3.308282350E1,3.715106845E-2,1.405482173E0,-5.117260218E-1
3.310309121E1,1.782985032E-1,1.274987459E0,-5.223786831E-1
3.312335886E1,-1.398158539E-2,1.127981067E0,-3.217096329E-1
3.314362657E1,-2.977411747E-1,1.125850558E0,-1.166463718E-1
3.316389428E1,-4.500738978E-1,1.266997933E0,8.255793154E-2
3.318416199E1,-4.916191697E-1,1.463539124E0,2.273006290E-1
3.320442965E1,-5.070654750E-1,1.672197580E0,2.821617126E-1
3.322469735E1,-5.597960353E-1,1.774995565E0,2.416816950E-1
3.324496506E1,-6.519413590E-1,1.717471361E0,1.539305896E-1
3.326523277E1,-7.131940126E-1,1.524259090E0,3.515370190E-2
3.328550048E1,-7.110635042E-1,1.290966392E0,-8.096003532E-2
3.330576813E1,-6.732466221E-1,1.045556307E0,-1.379516423E-1
3.332603579E1,-6.412886977E-1,7.291729450E-1,-2.183790505E-1
3.334630355E1,-7.254445553E-1,4.720449448E-1,-3.568633199E-1
3.336657126E1,-8.488819599E-1,4.970786572E-1,-4.105259776E-1
3.338683895E1,-9.325051308E-1,8.495477438E-1,-3.573959470E-1
3.340710665E1,-1.029976726E0,1.477920175E0,-3.153180480E-1
3.342737436E1,-1.190831542E0,2.000831366E0,-3.259706795E-1
3.344764197E1,-1.379782677E0,1.935850382E0,2.267680019E-1
3.346790973E1,-1.514538527E0,1.332511663E0,9.195888638E-1
3.348817744E1,-1.190298915E0,1.013598323E0,9.584709406E-1
3.350844509E1,-3.009369671E-1,1.469930649E0,3.913512230E-1
3.352871280E1,5.760413408E-1,1.614140749E0,8.522108942E-2
3.354898051E1,1.154878974E0,1.165797949E0,2.326269448E-1
3.356924816E1,1.445562720E0,2.541985512E-1,6.677871346E-1
3.358951587E1,1.237969518E0,-6.339650154E-1,8.295740485E-1
3.360978358E1,6.548708081E-1,-1.165398479E0,8.886961937E-1
3.363005124E1,9.946899116E-2,-1.078046799E0,1.084172130E0
3.365031895E1,2.358227372E-1,-4.689823091E-1,1.002146721E0
3.367058660E1,1.348623753E0,1.020522594E0,7.438203096E-1
3.369085436E1,1.703356504E0,2.491252184E0,1.167262673E0
3.371112202E1,1.305613756E0,2.783001184E0,1.141696334E0
3.373138973E1,8.523440957E-1,2.418281555E0,8.636624813E-1
3.375165744E1,6.878939867E-1,1.951829314E0,5.692502856E-1
3.377192509E1,6.538055539E-1,1.530650735E0,1.916143000E-1
3.379219280E1,6.601971388E-1,1.127981067E0,-2.940127552E-1
3.381246046E1,7.209171653E-1,6.279729009E-1,-6.885597706E-1
3.383272816E1,8.177229762E-1,1.647163928E-1,-8.462188244E-1
3.385299587E1,9.647293687E-1,1.098553166E-1,-7.977492809E-1
3.387326358E1,8.018772006E-1,2.792322338E-1,-7.471492887E-1
3.389353124E1,2.814959288E-1,5.056007504E-1,-6.784397960E-1
3.391379895E1,-3.382211924E-1,5.922865868E-1,-4.659196734E-1
3.393406665E1,-8.520777822E-1,4.134554565E-1,-1.731053442E-1
3.395433431E1,-1.104012609E0,1.178447902E-1,-2.929474972E-2
3.397460202E1,-1.181244254E0,-2.047969401E-1,-1.427453309E-1
3.399486973E1,-1.263269544E0,-5.764408112E-1,-3.190464675E-1
3.401513744E1,-1.390435338E0,-7.985482812E-1,-2.780338228E-1
3.403540514E1,-1.263802171E0,-4.141212404E-1,-1.315600574E-1
3.405567285E1,-7.888277173E-1,1.844237745E-1,-1.491369158E-1
3.407594056E1,-4.479433596E-1,4.821649492E-1,-1.267663687E-1
3.409620822E1,1.601890177E-1,7.584677339E-1,2.102564126E-1
3.411647592E1,7.970834970E-1,1.000815153E0,6.996119022E-1
3.413674363E1,1.473259568E0,1.669001818E0,6.864292622E-1
3.415701134E1,1.071255803E0,1.151416779E0,1.798963994E-1
3.417727905E1,2.363553643E-1,5.976129174E-1,2.363553643E-1
3.419754676E1,-4.538023174E-1,7.504782081E-1,6.193176508E-1
3.421781447E1,-8.345009089E-1,1.232909560E0,6.182523966E-1
3.423808218E1,-9.660609365E-1,1.796300769E0,4.334291518E-1
3.425834988E1,-8.781766891E-1,2.377269030E0,1.113200486E-1
3.427861759E1,-5.763076544E-1,2.890060186E0,-1.315600574E-1
3.429888535E1,-1.865542978E-1,3.413504124E0,-2.327601016E-1
3.431915306E1,1.266332120E-1,3.928958654E0,-2.865559161E-1
3.433942077E1,1.521995366E-1,4.184621811E0,-3.121222556E-1
3.435968848E1,-2.105227262E-1,3.851727009E0,-3.892207146E-1
3.437995624E1,-8.648608923E-1,2.500839472E0,-4.797681272E-1
3.440022556E1,-1.440502763E0,6.801708341E-1,-6.688523889E-1
3.442049165E1,-1.382445931E0,-6.243776679E-1,-7.673892975E-1
3.444075941E1,-8.904272318E-1,-1.283642650E0,-8.483493328E-1
3.446102712E1,-4.101265073E-1,-1.291632175E0,-9.318393469E-1
3.448129488E1,-2.462090552E-1,-6.478134394E-1,-9.446225166E-1
3.450156259E1,-3.771033287E-1,3.218427896E-1,-7.902924418E-1
3.452183035E1,-7.046719193E-1,1.355947495E0,-5.053344369E-1
3.454209806E1,-1.093892574E0,2.342115164E0,-2.103895694E-1
3.456236582E1,-1.356879592E0,3.063165665E0,5.326318089E-3
3.458263353E1,-1.470862746E0,3.329880953E0,2.539322078E-1
3.460290129E1,-1.536376476E0,3.149984598E0,4.904207587E-1
3.462316905E1,-1.540637493E0,2.456631184E0,5.303681493E-1
3.464343676E1,-1.093892574E0,4.731102288E-1,2.246374637E-1
3.466370452E1,-4.149201810E-1,-1.160072088E0,-1.768337637E-1
3.468397228E1,-1.412805915E-1,-9.290430546E-1,-2.705769539E-1
3.470423999E1,-1.331579551E-4,6.884266436E-2,-2.396843135E-1
3.472450775E1,7.816372067E-2,1.041295171E0,-1.747032404E-1
3.474477551E1,1.010668874E-1,1.713210225E0,-1.619200706E-1
3.476504327E1,1.687111259E-1,1.980591416E0,-1.629853398E-1
3.478531103E1,2.336922139E-1,1.833585024E0,-1.177116334E-1
3.480571103E1,1.474058628E-1,1.501888633E0,-1.331579592E-2
3.482600478E1,-8.375635743E-2,1.022120476E0,-4.793686327E-3
3.484611426E1,-2.621880174E-1,4.534028471E-1,-2.828274965E-1
3.486638207E1,-3.334275186E-1,-1.616537571E-1,-7.700524330E-1
3.488664988E1,-9.973530471E-2,-1.802825570E0,-8.994820118E-1
3.490691764E1,2.953443527E-1,-3.223088264E0,-2.061285079E-1
3.492718540E1,7.438203096E-1,-2.101632118E0,3.428817391E-1
3.494745311E1,1.383777499E0,6.743118763E-1,3.141196072E-1
3.496772087E1,1.865809321E0,2.821350813E0,4.350270331E-1
3.498798869E1,1.902960300E0,3.671830654E0,4.467449486E-1
3.500825645E1,1.582981825E0,3.610578060E0,3.396859467E-1
3.502852426E1,1.173521042E0,3.033338308E0,3.844270110E-1
3.504879202E1,7.912245989E-1,2.176466703E0,4.142543972E-1
3.506905983E1,4.247738719E-1,1.078978896E0,4.211786091E-1
3.508932759E1,5.685844645E-2,-1.334242672E-1,5.516734123E-1
3.510959535E1,-1.854890287E-1,-1.175518394E0,7.512772083E-1
3.512986316E1,4.913528562E-1,4.860265180E-2,1.093759418E0
3.515026316E1,1.658082843E0,2.485925913E0,1.372725368E0
3.517039874E1,1.780055523E0,1.958753467E0,1.663542390E0
3.519066645E1,1.326919079E0,6.407560706E-1,2.213617802E0
3.521093431E1,9.652619958E-1,1.125317931E0,2.029859781E0
3.523120207E1,6.452834606E-1,1.502953887E0,1.772731900E0
3.525146988E1,5.755086541E-1,6.631265879E-1,1.617735982E0
3.527173770E1,5.611276031E-1,-3.145190775E-1,1.364735842E0
3.529200546E1,3.757717609E-1,-4.673844278E-1,1.076715231E0
3.531227322E1,1.154479459E-1,-3.648528084E-2,7.262434959E-1
3.533254103E1,-6.990792602E-2,1.119858399E-1,2.917490900E-1
3.535280879E1,-2.664490640E-1,-2.796317078E-2,-2.865559161E-1
3.537307665E1,-5.544697046E-1,-4.394212365E-2,-1.018658400E0
3.539334447E1,-8.882967234E-1,1.684448123E-1,-1.976197243E0
3.541361228E1,-1.107208371E0,3.095922470E-1,-2.729072332E0
3.543388009E1,-9.958883524E-1,1.001347780E0,-2.295110464E0
3.545414790E1,-1.819203973E0,9.619330764E-1,-1.339302659E0
3.547441572E1,-2.255828857E0,2.680469751E-1,-1.952228785E0
3.549468353E1,-1.209473729E0,4.651207328E-1,-1.775395036E0
3.551495134E1,-6.103960872E-1,-1.584579647E-1,-1.132108927E0
3.553521915E1,-3.787012100E-1,-7.085334659E-1,-1.147022605E0
3.555548697E1,-2.526006401E-1,-8.363651037E-1,-1.434643865E0
3.557575478E1,-4.799012840E-1,-1.264467955E0,-1.538373828E0
3.559602264E1,-1.012932539E0,-1.277251124E0,-1.634247541E0
3.561629046E1,-1.520397544E0,-6.989461184E-1,-1.696032882E0
3.563655827E1,-1.537974358E0,-1.451421678E-1,-1.450090170E0
3.565682608E1,-8.749809265E-1,4.107922912E-1,-1.004277349E0
3.567709389E1,9.414267540E-2,7.360971570E-1,-7.870966792E-1
3.569736176E1,7.411571741E-1,3.026680350E-1,-7.945535183E-1
3.571762957E1,7.645930052E-1,-5.265065432E-1,-7.130608559E-1
3.573789738E1,3.635212183E-1,-1.213335276E0,-2.940127552E-1
3.575816525E1,-1.008005738E-1,-1.354482770E0,2.438122183E-1
3.577843306E1,-3.621896505E-1,-8.661925197E-1,3.066627681E-1
3.579870093E1,-3.307643533E-1,-1.749695539E-1,4.312986135E-1
3.581910092E1,-1.008005738E-1,4.219775498E-1,5.442165732E-1
3.583939447E1,9.041424841E-2,7.451519370E-1,5.655218363E-1
3.585950499E1,1.463405937E-1,7.068024278E-1,5.442165732E-1
3.587977264E1,1.138500497E-1,4.613923132E-1,5.303681493E-1
3.590004046E1,4.514054582E-2,1.396826953E-1,5.479449630E-1
3.592030816E1,-6.657897611E-4,-1.254348010E-1,5.575323701E-1
3.594057598E1,-1.557948068E-2,-2.601906359E-1,5.559344888E-1
3.596084374E1,-3.741738573E-2,-2.889527678E-1,5.202481151E-1
3.598111155E1,-1.066595241E-1,-2.149169445E-1,4.467449486E-1
3.600137936E1,-2.376869470E-1,1.238369010E-2,3.647196293E-1
3.602164718E1,-4.490086138E-1,2.014679909E-1,2.560627460E-1
3.604191499E1,-6.663224101E-1,2.781669796E-1,1.075916290E-1
3.606218285E1,-8.037413955E-1,2.531332672E-1,2.663159044E-3
3.608245066E1,-5.331644416E-1,1.771000773E-2,-2.663159184E-2
3.610271853E1,2.262353599E-1,-2.250369489E-1,2.343579940E-2
3.612298639E1,5.153213143E-1,2.078595608E-1,6.072002649E-2
3.614325426E1,5.233107805E-1,5.071986318E-1,1.139832065E-1
3.616352207E1,4.924181104E-1,4.757733643E-1,1.150484756E-1
3.618378994E1,4.705802202E-1,1.892174482E-1,1.917474531E-2
3.620405780E1,4.897549450E-1,-2.537990510E-1,-1.688442826E-1
3.622432566E1,4.886896908E-1,-6.936197877E-1,-5.367597342E-1
3.624459348E1,3.534012139E-1,-1.044091582E0,-9.803088903E-1
3.626499348E1,9.986846708E-3,-1.161669970E0,-1.205079436E0
3.628512921E1,-4.910865426E-1,-9.194557071E-1,-1.019191027E0
3.630539707E1,-9.005472660E-1,-3.720433414E-1,-6.640587449E-1
3.632566494E1,-1.081109405E0,2.573943138E-1,-4.137217700E-1
3.634593280E1,-1.106143117E0,8.159919381E-1,-2.540653646E-1
3.636620066E1,-1.173254728E0,1.468865395E0,-2.183790505E-1
3.638646853E1,-1.356346965E0,2.007755756E0,-1.853558719E-1
3.640673634E1,-1.514538527E0,1.614673376E0,1.384842768E-2
3.642700421E1,-5.672528744E-1,-3.892872810E0,5.219791830E-2
3.644727207E1,4.732433856E-1,-7.640070915E0,1.177116334E-1
3.646753999E1,7.076013684E-1,-5.178379536E0,2.640522122E-1
3.648788650E1,1.637842894E0,-1.249021590E-1,4.723112583E-1
3.650807577E1,2.653838158E0,3.484344244E0,5.958818197E-1
3.652834353E1,2.945187569E0,4.897017002E0,5.090628862E-1
3.654861145E1,2.622412682E0,4.770383835E0,6.065344810E-1
3.656887931E1,1.912547708E0,3.603653669E0,8.721846342E-1
3.658927931E1,9.695230722E-1,1.389503241E0,9.600688815E-1
3.660941504E1,-2.291648388E-1,-1.434910178E0,1.194959521E0
3.662968290E1,-1.226517916E0,-3.388071060E0,1.550624371E0
3.664995077E1,-9.479514956E-1,-1.614806533E0,1.402552724E0
3.667021863E1,5.238434076E-1,2.318679571E0,1.159805775E0
3.669061863E1,1.214001060E0,3.220824718E0,1.698163390E0
3.671075436E1,1.310407400E0,2.509894371E0,2.889261246E0
3.673102223E1,1.220925331E0,1.453419089E0,2.796183825E0
3.675129009E1,1.378451109E0,1.306279600E-1,1.971270323E0
3.677155796E1,1.722531319E0,-1.309741616E0,1.432912707E0
3.679195796E1,1.877527118E0,-1.866741419E0,1.072454214E0
3.681209374E1,1.425855398E0,-9.364998937E-1,7.432876825E-1
3.683236160E1,5.121254921E-1,3.644533157E-1,4.888228476E-1
3.685262947E1,-6.831002980E-2,4.880239069E-1,3.450122476E-1
3.687289733E1,-3.286338449E-1,4.097270370E-1,1.315600574E-1
3.689329733E1,-3.685812056E-1,5.018723607E-1,-1.214400530E-1
3.691343311E1,-3.957454562E-1,6.354297400E-1,-4.206459820E-1
3.693370098E1,-4.085285962E-1,7.973498106E-1,-7.940208912E-1
3.695396884E1,-1.849564016E-1,1.121056795E0,-1.247690082E0
3.697423671E1,-3.616569936E-1,1.389503241E0,-1.504285455E0
3.699450457E1,-1.883519292E0,1.587642312E0,-1.499491692E0
3.701477249E1,-2.237186909E0,7.819035053E-1,-8.600672483E-1
3.703504035E1,-1.460742712E0,-4.700475931E-1,-1.286572218E0
3.705530822E1,-4.681833684E-1,-1.191497326E0,-2.327068329E0
3.707557608E1,6.591318548E-2,-1.280446887E0,-2.935200691E0
3.709584400E1,-1.551290154E-1,-8.337019682E-1,-2.954375505E0
3.711611186E1,-5.081307292E-1,-5.556681752E-1,-2.376070499E0
3.713637973E1,-7.904255986E-1,-6.163882017E-1,-1.467001200E0
3.715664759E1,-9.357009530E-1,-7.207840085E-1,-1.381380677E0
3.717691551E1,-1.051814675E0,-9.093356729E-1,-1.666205525E0
3.719718337E1,-1.162602067E0,-1.258076310E0,-1.802559257E0
3.721745124E1,-1.062999964E0,-1.417333245E0,-1.886715055E0
3.723771910E1,-5.890907645E-1,-1.232510090E0,-1.929858208E0
3.725798702E1,4.620581120E-2,-9.599357247E-1,-1.626258135E0
3.727825488E1,5.488771200E-1,-5.832318589E-2,-9.824393988E-1
3.729852275E1,4.807002246E-1,9.890972972E-1,-3.733749092E-1
3.731879066E1,4.460791498E-2,4.454133511E-1,-1.049284711E-1
3.733905853E1,-2.020006180E-1,-6.110618711E-1,1.230379492E-1
3.735932639E1,-9.973530471E-2,-1.299621701E0,4.680502117E-1
3.737959426E1,2.107890397E-1,-1.522794366E0,7.592666745E-1
3.739986218E1,4.918854833E-1,-1.435442805E0,9.147951603E-1
3.742013004E1,6.527402997E-1,-1.056342006E0,1.038365722E0
3.744039790E1,7.134603262E-1,-4.412854612E-1,1.175784707E0
3.746066582E1,6.591318846E-1,3.500722647E-1,1.145957351E0
3.748093369E1,4.508728385E-1,1.418265343E0,8.604667187E-1
3.750120155E1,5.313002318E-2,2.864493847E0,5.143891573E-1
3.752146947E1,-4.202465117E-1,4.005657673E0,4.403533638E-1
3.754173733E1,-7.526087761E-1,3.765973330E0,3.966775537E-1
3.756200525E1,-8.584693074E-1,1.924132466E0,1.713742912E-1
3.758227311E1,-7.403582335E-1,-8.933567405E-1,-9.480846673E-2
3.760254098E1,-3.376885653E-1,-3.586210012E0,-2.583264410E-1
3.762280889E1,-1.185105834E-2,-4.599542141E0,-2.588590682E-1
3.764307676E1,-8.695214242E-2,-3.380081415E0,-1.917474568E-1
3.766334462E1,-6.404897571E-2,-9.183903933E-1,-1.810948253E-1
3.768361254E1,1.926795542E-1,7.653919458E-1,-2.141179889E-1
3.770388040E1,2.884201407E-1,1.411341190E0,-2.945453823E-1
3.772414832E1,1.644500792E-1,1.284042120E0,-5.010733604E-1
3.774441619E1,-2.463422157E-2,6.503434777E-1,-7.178545594E-1
3.776468405E1,-1.881521940E-1,-2.846917212E-1,-8.030756116E-1
3.778495197E1,-2.456764281E-1,-1.143027902E0,-6.230461001E-1
3.780521983E1,-2.270343155E-1,-1.471661687E0,-2.668485343E-1
3.782548775E1,-2.993390858E-1,-1.017992616E0,1.331579592E-2
3.784575561E1,-6.311687231E-1,7.147918940E-1,5.858949851E-3
3.786602348E1,-1.094957829E0,3.354382038E0,-1.587242782E-1
3.788642348E1,-1.229181051E0,4.795417309E0,1.597895520E-3
3.790655926E1,-1.028911471E0,3.939611197E0,2.769685537E-2
3.792682712E1,4.833633900E-1,-2.156892538E0,-9.427583218E-2
3.794709504E1,1.318396926E0,-6.003160000E0,1.331579536E-1
3.796736290E1,1.237969518E0,-6.322206497E0,9.960214794E-2
3.798763077E1,8.635293245E-1,-4.426436901E0,2.491385341E-1
3.800789868E1,1.765141845E0,-1.687244415E0,5.319660306E-1
3.802816655E1,2.833334923E0,1.444896936E0,4.792354703E-1
3.804843441E1,3.387671471E0,3.903392315E0,5.111933947E-1
3.806870233E1,3.110170364E0,5.044023514E0,6.060018539E-1
3.808910233E1,2.122404575E0,4.427368641E0,5.980123878E-1
3.810923806E1,5.542033911E-1,1.958753467E0,5.048018098E-1
3.812950598E1,-1.246757984E0,-1.323057413E0,6.752439737E-1
3.814977384E1,-1.442100644E0,-1.222922683E0,1.186969995E0
3.817004171E1,5.526055098E-1,2.260622501E0,1.685380220E0
3.819044171E1,1.534512281E0,1.545031786E0,1.830655575E0
3.821057749E1,1.739575505E0,3.155843541E-2,2.664091110E0
3.823084535E1,1.460476398E0,2.355564237E-1,2.773813248E0
3.825111327E1,1.026514649E0,7.227813601E-1,2.258891582E0
3.827138113E1,9.173251390E-1,4.487423226E-2,1.863146067E0
3.829178113E1,6.287718415E-1,-4.178496599E-1,1.360474825E0
3.831191686E1,3.422159553E-1,-3.747064769E-1,8.556730151E-1
3.833218478E1,4.050664902E-1,-3.832286000E-1,4.456796646E-1
3.835245264E1,4.444812536E-1,-1.797632426E-1,1.729721874E-1
3.837272051E1,3.017359376E-1,-4.527370445E-3,-5.219791830E-2
3.839298837E1,8.828372508E-2,1.982721984E-1,-1.896169335E-1
3.841325629E1,-1.412805915E-1,4.869586527E-1,-2.753706574E-1
3.843352415E1,-2.732401192E-1,6.077328920E-1,-6.177197695E-1
3.845379202E1,-2.323606312E-1,7.478150725E-1,-1.168860555E0
3.847405988E1,-4.639223218E-1,1.408678055E0,-1.552754879E0
3.849432780E1,-2.206826687E0,1.692437649E0,-1.784449816E0
3.851467431E1,-3.284607172E0,1.808018684E0,-1.478719115E0
3.853486358E1,-2.109355211E0,1.956090331E-1,-1.517068624E0
3.855513145E1,-1.289901137E0,-4.306328297E-1,-1.876062393E0
3.857539931E1,-7.014760971E-1,2.813627720E-1,-2.195508480E0
3.859566718E1,-4.063980877E-1,2.280995846E-1,-2.633731127E0
3.861593504E1,-1.295626909E-1,-1.784316637E-2,-2.568217516E0
3.863620296E1,-2.227732539E-1,-2.724411786E-1,-2.041045189E0
3.865647082E1,-8.803072572E-1,-1.994706094E-1,-1.819603443E0
3.867673869E1,-1.635445952E0,4.274370521E-2,-1.968740344E0
3.869700660E1,-1.933054090E0,1.717737690E-2,-1.882454038E0
3.871727447E1,-1.621064901E0,-2.846917212E-1,-1.554352760E0
3.873754233E1,-7.030739784E-1,-2.910832763E-1,-1.230645776E0
3.875781020E1,3.667170107E-1,2.382195890E-1,-1.026115179E0
3.877807806E1,6.868287325E-1,3.846933246E-1,-8.392946124E-1
3.879834598E1,2.480732650E-1,-7.628619075E-1,-3.854922652E-1
3.881861384E1,-1.482048035E-1,-1.811347723E0,8.522108942E-2
3.883888171E1,-1.759016514E-1,-2.073402405E0,2.603237927E-1
3.885914957E1,4.034686089E-2,-1.804423451E0,3.913512230E-1
3.887941744E1,2.518016994E-1,-1.271392107E0,5.724460483E-1
3.889968530E1,2.697780132E-1,-5.902892351E-1,7.459508777E-1
3.891995322E1,1.335574239E-1,6.524739787E-3,8.460856676E-1
3.894022108E1,-3.581948951E-2,4.432828426E-1,8.759130239E-1
3.896048895E1,-2.099900991E-1,7.914909124E-1,8.263782859E-1
3.898075681E1,-3.824296594E-1,1.280846357E0,6.869618893E-1
3.900102468E1,-5.512739420E-1,2.090846300E0,5.277049541E-1
3.902129254E1,-7.302381992E-1,2.740923405E0,3.524691164E-1
3.904156046E1,-8.068040609E-1,2.349039555E0,1.454084814E-1
3.906182832E1,-6.002760530E-1,5.024049878E-1,-1.209074259E-1
3.908209619E1,-1.455416381E-1,-2.041444540E0,-3.712443709E-1
3.910236405E1,1.218395308E-1,-3.294327736E0,-4.909533858E-1
3.912263191E1,-6.831002980E-2,-3.142660856E0,-5.921534300E-1
3.914289983E1,-7.020087242E-1,-1.820402384E0,-5.484775901E-1
3.916316770E1,-1.020389438E0,-4.178496599E-1,-2.167811543E-1
3.918343556E1,-7.222487330E-1,4.587291479E-1,1.230379492E-1
3.920370342E1,-2.605901062E-1,1.022120476E0,1.852227151E-1
3.922397134E1,-4.167843983E-2,1.374056935E0,8.415582776E-2
3.924423921E1,-1.892174482E-1,1.494964361E0,1.214400530E-1
3.926450707E1,-4.511391521E-1,1.143959999E0,1.862879843E-1
3.928477499E1,-1.466069072E-1,-7.335671782E-1,-5.805686861E-2
3.930504285E1,5.344960093E-1,-2.684198141E0,-3.350254297E-1
3.932531077E1,1.168727398E0,-3.322024584E0,-3.966775537E-1
3.934557863E1,1.718802929E0,-2.864627123E0,-1.773663908E-1
3.936584655E1,2.286455154E0,-1.607482791E0,1.857553422E-1
3.938611441E1,2.834400177E0,2.829606533E-1,4.760396779E-1
3.940638233E1,3.063298702E0,2.100433588E0,7.294392586E-1
3.942665020E1,2.693785429E0,2.988064528E0,9.307740927E-1
3.944691811E1,1.810415506E0,2.574875355E0,9.584709406E-1
3.946718603E1,7.352982163E-1,1.243029475E0,8.508793116E-1
3.948745389E1,-3.515369892E-1,-4.471444190E-1,7.869635224E-1
3.950772181E1,-1.014530420E0,-1.122255206E0,1.064464688E0
3.952798973E1,-3.195790946E-1,9.374319911E-1,1.612942338E0
3.954825764E1,5.856286883E-1,2.108955622E0,1.676325440E0
3.956852551E1,1.064331532E0,1.355414867E0,2.051697731E0
3.958892551E1,1.291765332E0,3.484743834E-1,2.658764839E0
3.960906134E1,1.290167451E0,2.387522161E-1,2.367415190E0
3.962932931E1,1.093093634E0,9.494162351E-2,1.623062372E0
3.964959723E1,1.128780007E0,-4.913528562E-1,1.229047894E0
3.966986514E1,1.021721005E0,-7.399587631E-1,9.701888561E-1
3.969026514E1,5.627255440E-1,-3.171822429E-1,8.604667187E-1
3.971040098E1,1.495363861E-1,2.463422157E-2,8.609993458E-1
3.973066895E1,-1.428784877E-1,2.360890508E-1,7.241129875E-1
3.975093686E1,-3.339601457E-1,2.712427676E-1,4.222438633E-1
3.977120478E1,-4.106591344E-1,1.657816470E-1,1.597895473E-2
3.979160478E1,-5.438171029E-1,1.013332009E-1,-4.323638678E-1
3.981174066E1,-6.700508595E-1,2.786996067E-1,-9.914941192E-1
3.983200863E1,-5.544697046E-1,8.633961678E-1,-1.345694304E0
3.985227660E1,-1.016660929E0,1.752092361E0,-1.175252080E0
3.987254457E1,-1.969805598E0,2.243045807E0,-1.157142639E0
3.989294457E1,-1.319728494E0,-5.801692009E-1,-1.255679488E0
3.991308046E1,-9.958883524E-1,-1.771400332E0,-1.685912848E0
3.993334843E1,-1.245159984E0,-5.355613232E-1,-1.882986665E0
3.995361639E1,-1.110404134E0,-2.476738021E-2,-2.077796698E0
3.997388436E1,-7.744466662E-1,-2.143843025E-1,-2.357961178E0
3.999415233E1,-6.125265956E-1,-7.671229839E-1,-2.483129501E0
4.001442030E1,-8.131956458E-1,-9.950894117E-1,-2.436790466E0
4.003468827E1,-1.094957829E0,-8.129293323E-1,-2.305763245E0
4.005495629E1,-1.092294693E0,-4.897549450E-1,-2.026664019E0
4.007522426E1,-7.499455810E-1,-9.880319983E-2,-1.693369746E0
4.009562426E1,-1.998700947E-1,2.861564457E-1,-1.449557543E0
4.011576025E1,2.868222296E-1,2.440785319E-1,-1.264734268E0
4.013602822E1,2.932138145E-1,-3.933486044E-1,-9.101346135E-1
4.015629624E1,4.034686089E-2,-1.173387885E0,-4.307659864E-1
4.017656421E1,-1.189100519E-1,-1.513206959E0,-1.177116334E-1
4.019683223E1,-7.523424178E-2,-1.355015397E0,4.793686327E-3
4.021710025E1,4.673844203E-2,-9.412935972E-1,1.081242561E-1
4.023736827E1,8.881635964E-2,-5.089297295E-1,2.454101145E-1
4.025763629E1,8.349003643E-2,-1.541969180E-1,4.483428299E-1
4.027790431E1,9.414267540E-2,1.077247858E-1,6.667218804E-1
4.029817233E1,1.378184855E-1,2.222406268E-1,8.130624890E-1
4.031844035E1,2.161153555E-1,2.126532495E-1,9.004141092E-1
4.033870837E1,2.852243483E-1,2.366216928E-1,9.387635589E-1
4.035897645E1,2.985401452E-1,3.681817353E-1,8.721846342E-1
4.037924447E1,1.836248189E-1,6.045371294E-1,6.992124319E-1
4.039951249E1,-8.215846121E-2,8.096003532E-1,5.452818274E-1
4.041978056E1,-4.426170290E-1,6.418213248E-1,3.743070066E-1
4.044004858E1,-7.318361402E-1,-4.500738904E-2,1.235705838E-1
4.046031665E1,-8.137282729E-1,-9.285104275E-1,-4.740423337E-2
4.048058468E1,-7.691203356E-1,-1.357145905E0,-1.411474347E-1
4.050085280E1,-5.715139508E-1,-1.021721005E0,-1.613874435E-1
4.052112087E1,-3.547327816E-1,-2.665822208E-1,-2.098569423E-1
4.054138889E1,-1.231711060E-1,2.387522161E-1,-2.183790505E-1
4.056165702E1,1.255679578E-1,2.755038142E-1,-1.725727171E-1
4.058192509E1,3.193127811E-1,4.593949392E-2,-1.635179669E-1
4.060219316E1,4.125233591E-1,-2.090579867E-1,-1.336905807E-1
4.062246119E1,3.544664681E-1,2.143843099E-2,-1.917474568E-1
4.064272926E1,1.037300453E-1,9.661940932E-1,-3.360906839E-1
4.066299738E1,-2.918822467E-1,2.022669315E0,-3.696464896E-1
4.068326551E1,-7.009434700E-1,2.393780470E0,-3.552654386E-1
4.070353358E1,-9.293093681E-1,1.521595955E0,-3.934817612E-1
4.072380171E1,-8.360987902E-1,-5.785713196E-1,-5.159870982E-1
4.074406978E1,-9.867004305E-2,-3.846533775E0,-4.941491783E-1
4.076433790E1,7.363634706E-1,-5.475455284E0,-2.625874877E-1
4.078460603E1,1.218794823E0,-4.807801247E0,6.125266105E-2
4.080487415E1,1.647962809E0,-1.639307618E0,4.872249663E-1
4.082514233E1,2.371143818E0,1.630119681E0,7.081339955E-1
4.084541046E1,2.722547531E0,3.504051685E0,7.145255804E-1
4.086567858E1,2.462090492E0,3.848531246E0,6.608629227E-1
4.088607858E1,1.789642930E0,3.245725155E0,6.123934388E-1
4.090621488E1,8.944219947E-1,2.074334621E0,4.621912539E-1
4.092648306E1,5.046686530E-2,6.050697565E-1,3.034669757E-1
