"Time (s)","Acceleration x (m/s^2)","Acceleration y (m/s^2)","Acceleration z (m/s^2)"
1.954859600E-2,-1.281177282E0,1.877665639E0,9.539566994E0
3.984812700E-2,-1.162244558E0,1.754398108E0,9.578186035E0
5.996130400E-2,-1.029992342E0,1.569313288E0,9.625319481E0
8.023151200E-2,-9.100205302E-1,1.334313750E0,9.672738075E0
1.005017730E-1,-7.958481312E-1,1.086088777E0,9.713774681E0
1.207720850E-1,-6.721710563E-1,8.482223749E-1,9.746747017E0
1.411720850E-1,-5.159453750E-1,6.258372068E-1,9.773050308E0
1.613129190E-1,-3.020291626E-1,3.871883452E-1,9.794348717E0
1.815832830E-1,1.385028125E-3,5.818251148E-2,9.806477547E0
2.018536480E-1,4.096460044E-1,-3.843807578E-1,9.790547371E0
2.221240640E-1,6.086372733E-1,-9.355589747E-1,9.742929459E0
2.425240640E-1,5.776572227E-1,-1.515172601E0,9.671656609E0
2.626648980E-1,5.837739110E-1,-2.005020380E0,9.581727028E0
2.829353140E-1,6.774791479E-1,-2.353948832E0,9.495805740E0
3.032057830E-1,7.269093990E-1,-2.612528801E0,9.424260139E0
3.234762520E-1,7.663419247E-1,-2.868481159E0,9.346385956E0
3.438762520E-1,8.698596358E-1,-3.160980225E0,9.242399216E0
3.640171890E-1,1.074320793E0,-3.446147919E0,9.118128777E0
3.842876060E-1,1.260792732E0,-3.679857016E0,9.002190590E0
4.045580230E-1,1.280946970E0,-3.905260801E0,8.903847694E0
4.248284910E-1,1.333026290E0,-4.177557468E0,8.771627426E0
4.450977100E-1,1.563854814E0,-4.476093292E0,8.584248543E0
4.653690120E-1,1.960685730E0,-4.640048504E0,8.414038658E0
4.856393770E-1,2.566874981E0,-4.593304157E0,8.275450706E0
5.060394810E-1,3.280755043E0,-4.481425762E0,8.082317352E0
5.261804710E-1,3.906526089E0,-4.404064655E0,7.843064308E0
5.464509910E-1,4.512930393E0,-4.385788918E0,7.521215916E0
5.667214600E-1,5.135241985E0,-4.372785568E0,7.118878365E0
5.869919810E-1,5.795222282E0,-4.382963181E0,6.586001873E0
6.072624500E-1,6.408890724E0,-4.462523937E0,5.931473732E0
6.276704190E-1,6.924125671E0,-4.540179729E0,5.254868507E0
6.479480230E-1,7.196465015E0,-4.679270744E0,4.741909504E0
6.680285960E-1,7.292971611E0,-4.893535614E0,4.363055706E0
6.883394290E-1,7.329961777E0,-5.127093315E0,4.019323349E0
7.086097410E-1,7.405954361E0,-5.302918911E0,3.633355618E0
7.290188040E-1,7.497947216E0,-5.414992332E0,3.260221481E0
7.493010440E-1,7.600449562E0,-5.466388226E0,2.919272423E0
7.694167730E-1,7.699271679E0,-5.470592976E0,2.638979197E0
7.896889600E-1,7.761725426E0,-5.462172508E0,2.467930079E0
8.099610440E-1,7.810235500E0,-5.465742111E0,2.301365376E0
8.302313560E-1,7.882870674E0,-5.446419239E0,2.089799166E0
8.506326580E-1,7.953252316E0,-5.406995773E0,1.918484807E0
8.707744810E-1,8.017627716E0,-5.340333462E0,1.835452199E0
8.910457310E-1,8.115566254E0,-5.226965904E0,1.728235483E0
9.113167730E-1,8.242758751E0,-5.103528023E0,1.476929069E0
9.315871890E-1,8.334524155E0,-5.024437904E0,1.208772540E0
9.518602100E-1,8.370026588E0,-4.997343540E0,1.067521572E0
9.721306790E-1,8.378092766E0,-5.003382683E0,9.716485143E-1
9.924010960E-1,8.373514175E0,-5.038930893E0,8.147559166E-1
1.012671512E0,8.346672058E0,-5.104975224E0,6.653378606E-1
1.032941929E0,8.293991089E0,-5.213010788E0,4.523572624E-1
1.053212398E0,8.215885162E0,-5.349806309E0,2.217721641E-1
1.073482762E0,8.116211891E0,-5.504214764E0,3.320365772E-2
1.093753231E0,8.029520035E0,-5.629622936E0,-6.733425707E-2
1.114023648E0,7.998831272E0,-5.666210651E0,-2.883263826E-1
1.134294064E0,7.973245621E0,-5.687313080E0,-5.022144318E-1
1.154564533E0,7.949172497E0,-5.702777386E0,-6.777623892E-1
1.174834898E0,7.930307388E0,-5.706949711E0,-8.434063196E-1
1.195105419E0,7.884767056E0,-5.749775410E0,-9.700121284E-1
1.215375835E0,7.803896904E0,-5.839814186E0,-1.079879642E0
1.235646200E0,7.685288429E0,-5.985141754E0,-1.133499861E0
1.255916721E0,7.493640423E0,-6.209105968E0,-1.209440589E0
1.276187137E0,7.233700752E0,-6.518219948E0,-1.164805174E0
1.296457606E0,6.861922741E0,-6.936365128E0,-9.855132699E-1
1.316728023E0,6.334975719E0,-7.433950424E0,-8.802582026E-1
1.336998491E0,5.760547161E0,-7.895219326E0,-8.074613214E-1
1.357387658E0,5.235097408E0,-8.263266563E0,-6.946693659E-1
1.377697294E0,4.821367741E0,-8.525276184E0,-4.944321811E-1
1.397771148E0,4.625391006E0,-8.646387100E0,-1.269799620E-1
1.418080679E0,4.442898750E0,-8.739289284E0,2.363288254E-1
1.438409273E0,4.225304604E0,-8.838206291E0,4.508996010E-1
1.458810575E0,4.083867550E0,-8.897906303E0,5.653977990E-1
1.478887710E0,4.036989689E0,-8.918014526E0,5.848997831E-1
1.499158908E0,4.056486607E0,-8.914185524E0,5.025778413E-1
1.519430002E0,4.123273849E0,-8.887621880E0,4.232940078E-1
1.539700991E0,4.269402027E0,-8.820234299E0,3.821744025E-1
1.559971825E0,4.557267189E0,-8.677155495E0,3.296610117E-1
1.580242606E0,4.864265442E0,-8.514744759E0,9.179677069E-2
1.600513335E0,5.047705650E0,-8.406167984E0,-1.654865742E-1
1.620783856E0,5.120602131E0,-8.363525391E0,-3.588186577E-2
1.641054637E0,5.148330688E0,-8.346513748E0,2.812315710E-2
1.661325262E0,5.119975567E0,-8.363920212E0,-3.285646439E-2
1.681595835E0,5.058892727E0,-8.401065826E0,-8.326997980E-3
1.701866304E0,4.900720119E0,-8.481349945E0,-4.690556228E-1
1.722136773E0,4.517644882E0,-8.665911674E0,-8.143917918E-1
1.742526148E0,4.060596943E0,-8.895349503E0,-7.447860241E-1
1.762677866E0,3.595227003E0,-9.110301018E0,-4.971332848E-1
1.782948387E0,3.123073578E0,-9.291513443E0,-2.908134162E-1
1.803218908E0,2.724631786E0,-9.416786194E0,-2.662667334E-1
1.823489429E0,2.517126560E0,-9.470283508E0,-3.849573135E-1
1.843759950E0,2.489807606E0,-9.468367577E0,-5.668050051E-1
1.864030419E0,2.503492832E0,-9.446902275E0,-8.117567897E-1
1.884300939E0,2.404349804E0,-9.415975571E0,-1.314873815E0
1.904571460E0,2.169301271E0,-9.399412155E0,-1.765097976E0
1.924841981E0,1.981491327E0,-9.425957680E0,-1.842661262E0
1.945112450E0,1.897091866E0,-9.476604462E0,-1.662945032E0
1.965382971E0,1.860404611E0,-9.513986588E0,-1.480991840E0
1.985653439E0,1.893908858E0,-9.524766922E0,-1.364663124E0
2.005924012E0,1.968440890E0,-9.518835068E0,-1.299002409E0
2.026194533E0,2.051636934E0,-9.510102272E0,-1.232529283E0
2.046602450E0,2.133786917E0,-9.504078865E0,-1.135705590E0
2.066884116E0,2.199710608E0,-9.504858971E0,-9.946447015E-1
2.086999169E0,2.245705605E0,-9.510140419E0,-8.272907734E-1
2.107269585E0,2.293847322E0,-9.511955261E0,-6.567837000E-1
2.127679012E0,2.305743933E0,-9.518841743E0,-4.955652654E-1
2.147961721E0,2.240300894E0,-9.540944099E0,-3.490265906E-1
2.168074950E0,2.009053707E0,-9.597296715E0,-1.612120271E-1
2.188477814E0,1.579908729E0,-9.678415298E0,5.071177706E-2
2.208620939E0,1.036199450E0,-9.749230385E0,2.217845619E-1
2.228891304E0,4.369706810E-1,-9.790354729E0,3.583265245E-1
2.249293127E0,-1.000659317E-1,-9.795579910E0,4.549648762E-1
2.269435575E0,-4.585649967E-1,-9.780492783E0,5.496024489E-1
2.289707189E0,-5.841100216E-1,-9.762084961E0,7.286322713E-1
2.309978544E0,-5.217464566E-1,-9.748732567E0,9.275697470E-1
2.330249064E0,-4.197672606E-1,-9.742862701E0,1.034806490E0
2.350649794E0,-3.201905489E-1,-9.750311852E0,9.996430874E-1
2.370791408E0,-2.358063310E-1,-9.769033432E0,8.250795603E-1
2.391062450E0,-1.528603882E-1,-9.788685799E0,5.732803941E-1
2.411333387E0,-6.197006255E-2,-9.800848961E0,3.315517604E-1
2.431603908E0,2.264915593E-2,-9.805899620E0,1.191596836E-1
2.451876044E0,1.025047526E-1,-9.805690765E0,-9.114765376E-2
2.472146616E0,1.938577294E-1,-9.799363136E0,-3.245014548E-1
2.492417189E0,3.253758252E-1,-9.782094955E0,-6.124782562E-1
2.512687762E0,5.540629625E-1,-9.742067337E0,-9.775075316E-1
2.532958283E0,8.970745802E-1,-9.664670944E0,-1.399917364E0
2.553228856E0,1.279474258E0,-9.549243927E0,-1.829005837E0
2.573499481E0,1.621578455E0,-9.429107666E0,-2.152398586E0
2.593770054E0,1.889250636E0,-9.333588600E0,-2.342059851E0
2.614040679E0,2.075408936E0,-9.275203705E0,-2.415299654E0
2.634440679E0,2.224387884E0,-9.228266716E0,-2.462028503E0
2.654581877E0,2.353232384E0,-9.171669006E0,-2.552092552E0
2.674852502E0,2.481122017E0,-9.107060432E0,-2.660053015E0
2.695123075E0,2.614496946E0,-9.045539856E0,-2.740983486E0
2.715393700E0,2.740790844E0,-8.998250961E0,-2.773072243E0
2.735664325E0,2.841951132E0,-8.973242760E0,-2.752205372E0
2.755934950E0,2.916890621E0,-8.966238976E0,-2.696055651E0
2.776205575E0,2.955323219E0,-8.976615906E0,-2.618552685E0
2.796476200E0,2.989366293E0,-8.991875648E0,-2.525916100E0
2.816746825E0,2.989349604E0,-9.015625954E0,-2.439807415E0
2.837017450E0,2.956841230E0,-9.039980888E0,-2.388772488E0
2.857406825E0,2.918711662E0,-9.057206154E0,-2.370340347E0
2.877716616E0,2.915504456E0,-9.061079025E0,-2.359463930E0
2.897987398E0,2.931287289E0,-9.062798500E0,-2.333157539E0
2.918100679E0,2.938758850E0,-9.071732521E0,-2.288615227E0
2.938425366E0,2.958189726E0,-9.081983566E0,-2.221952677E0
2.958827502E0,2.996422529E0,-9.088081360E0,-2.144438505E0
2.978905679E0,3.011424065E0,-9.105315208E0,-2.048156261E0
2.999177554E0,2.963565350E0,-9.147847176E0,-1.924722791E0
3.019449221E0,2.837531805E0,-9.216360092E0,-1.782551765E0
3.039719846E0,2.625768185E0,-9.318377495E0,-1.563193083E0
3.060120679E0,2.347170353E0,-9.442861557E0,-1.222107649E0
3.080262658E0,2.229214430E0,-9.490901947E0,-1.060081601E0
3.100533752E0,2.283676386E0,-9.420750618E0,-1.484813452E0
3.120804846E0,2.360954285E0,-9.302515984E0,-2.014814615E0
3.141075887E0,2.359236002E0,-9.276855469E0,-2.131746054E0
3.161346825E0,2.220201492E0,-9.368535995E0,-1.863230705E0
3.181617658E0,1.935385823E0,-9.500879288E0,-1.468998432E0
3.201888491E0,1.597180486E0,-9.609365463E0,-1.131152511E0
3.222159325E0,1.302543998E0,-9.673964500E0,-9.424356818E-1
3.242430158E0,1.037960052E0,-9.704600334E0,-9.559094906E-1
3.262700887E0,7.789236307E-1,-9.713706970E0,-1.098890781E0
3.282971669E0,5.257351398E-1,-9.718107224E0,-1.205152631E0
3.303242398E0,2.650046647E-1,-9.745942116E0,-1.056776285E0
3.323513127E0,1.222360954E-1,-9.787917137E0,-5.933875442E-1
3.343783856E0,1.502593458E-1,-9.805457115E0,-2.871541306E-2
3.364054533E0,1.617290378E-1,-9.795577049E0,4.369025230E-1
3.384325262E0,1.192161739E-1,-9.780997276E0,6.987558603E-1
3.404595991E0,6.979142129E-2,-9.772916794E0,8.096984625E-1
3.424866669E0,-1.204123627E-2,-9.768240929E0,8.670033216E-1
3.445137398E0,-1.254323572E-1,-9.761013031E0,9.366283417E-1
3.465408127E0,-2.705506384E-1,-9.748555183E0,1.030947566E0
3.485678804E0,-4.482511580E-1,-9.729166985E0,1.145766139E0
3.505949481E0,-6.657528877E-1,-9.696814537E0,1.303444028E0
3.526220210E0,-9.423955679E-1,-9.642195702E0,1.519980550E0
3.546620210E0,-1.234677553E0,-9.563738823E0,1.783499241E0
3.566761564E0,-1.514754772E0,-9.471916199E0,2.039292336E0
3.587032294E0,-1.842432022E0,-9.350894928E0,2.310105562E0
3.607302971E0,-2.250811577E0,-9.188710213E0,2.582992315E0
3.627710939E0,-2.628605843E0,-9.029462814E0,2.780219555E0
3.647992971E0,-2.929280043E0,-8.903497696E0,2.883996010E0
3.668108231E0,-3.169034481E0,-8.821949005E0,2.881114006E0
3.688380314E0,-3.349169731E0,-8.789075851E0,2.775894880E0
3.708652137E0,-3.446526766E0,-8.801294327E0,2.613245726E0
3.728922710E0,-3.456655979E0,-8.851099014E0,2.424861670E0
3.749323648E0,-3.405570507E0,-8.938389778E0,2.162791491E0
3.769465835E0,-3.290786505E0,-9.065799713E0,1.775499463E0
3.789737085E0,-3.066447258E0,-9.232303619E0,1.237685084E0
3.810008231E0,-2.740478754E0,-9.399049759E0,5.639336705E-1
3.830278908E0,-2.328816175E0,-9.525206566E0,-1.320630610E-1
3.850679325E0,-1.796342254E0,-9.609277725E0,-7.780330181E-1
3.870821096E0,-1.060756564E0,-9.633301735E0,-1.498221159E0
3.891091929E0,-1.587061584E-1,-9.542442322E0,-2.255442142E0
3.911362866E0,7.964098454E-1,-9.432209015E0,-2.563112020E0
3.931633596E0,1.431971788E0,-9.450380325E0,-2.193203926E0
3.951905106E0,1.671189427E0,-9.528505325E0,-1.607820630E0
3.972175783E0,1.974794626E0,-9.504287720E0,-1.392513394E0
3.992446512E0,2.421205521E0,-9.381175995E0,-1.517130613E0
4.012717189E0,2.734433174E0,-9.250083923E0,-1.768957376E0
4.032987919E0,2.896283388E0,-9.166126251E0,-1.940115213E0
4.053387919E0,2.996011496E0,-9.126749039E0,-1.974020720E0
4.073529377E0,3.035250664E0,-9.112140656E0,-1.981545091E0
4.093800106E0,2.995474815E0,-9.111627579E0,-2.043471813E0
4.114070783E0,2.880351305E0,-9.126202583E0,-2.141585827E0
4.134341512E0,2.735073090E0,-9.151487350E0,-2.222619057E0
4.154741512E0,2.613815308E0,-9.183440208E0,-2.236689091E0
4.175040887E0,2.544912100E0,-9.225934029E0,-2.139144897E0
4.195154273E0,2.556748867E0,-9.258679390E0,-1.977443099E0
4.215424846E0,2.708865166E0,-9.240063667E0,-1.858402014E0
4.235695471E0,2.935629606E0,-9.190909386E0,-1.754894376E0
4.255966096E0,3.120072365E0,-9.164836884E0,-1.562466383E0
4.276236773E0,3.242616415E0,-9.170415878E0,-1.248719335E0
4.296507450E0,3.303998947E0,-9.190804482E0,-8.849316239E-1
4.316778127E0,3.250091076E0,-9.237206459E0,-5.303878784E-1
4.337048856E0,3.083900452E0,-9.305485725E0,-2.605223358E-1
4.357438335E0,3.079419374E0,-9.293794632E0,-5.594192743E-1
4.377748231E0,3.096434593E0,-9.224372864E0,-1.222061038E0
4.398019012E0,2.834723949E0,-9.239567757E0,-1.662858844E0
4.418132398E0,2.611467600E0,-9.317058563E0,-1.594691396E0
4.438456148E0,2.521816254E0,-9.388587952E0,-1.290440321E0
4.458845158E0,2.506178379E0,-9.441948891E0,-8.596906662E-1
4.478936929E0,2.467380762E0,-9.481388092E0,-4.309315085E-1
4.499209064E0,2.347261429E0,-9.521406174E0,-5.976352096E-2
4.519480835E0,2.125849962E0,-9.571843147E0,1.759806871E-1
4.539752450E0,1.821317554E0,-9.634320259E0,1.818028986E-1
4.560023856E0,1.437236786E0,-9.700705528E0,-3.233848512E-2
4.580295158E0,9.941858649E-1,-9.752023697E0,-2.828774750E-1
4.600566304E0,5.540075898E-1,-9.786527634E0,-2.955245376E-1
4.620837398E0,1.552400142E-1,-9.802609444E0,2.348242998E-1
4.641108491E0,-8.571942896E-2,-9.735924721E0,1.172525644E0
4.661379429E0,-1.774234176E-1,-9.580275536E0,2.087397337E0
4.681650366E0,-3.000241518E-1,-9.433197975E0,2.663670301E0
4.701921252E0,-4.302948713E-1,-9.383691788E0,2.816301584E0
4.722192085E0,-4.552979767E-1,-9.415409088E0,2.704286575E0
4.742462866E0,-4.374820590E-1,-9.459227562E0,2.549903870E0
4.762733700E0,-4.383838475E-1,-9.438979149E0,2.623713017E0
4.783004481E0,-4.499168694E-1,-9.362820625E0,2.881937742E0
4.803275210E0,-4.278299510E-1,-9.283875465E0,3.130015373E0
4.823545991E0,-3.609654605E-1,-9.242550850E0,3.258120298E0
4.843816721E0,-2.829839289E-1,-9.238165855E0,3.278201580E0
4.864087502E0,-2.756651342E-1,-9.231479645E0,3.297601461E0
4.884358231E0,-3.937502205E-1,-9.187605858E0,3.406356096E0
4.904628960E0,-5.503127575E-1,-9.099888802E0,3.613801003E0
4.924899689E0,-6.602669954E-1,-9.040635109E0,3.741838217E0
4.945170419E0,-6.407704353E-1,-9.075961113E0,3.658787966E0
4.965441148E0,-5.138030052E-1,-9.186007500E0,3.394649267E0
4.985711877E0,-3.393844664E-1,-9.331398964E0,2.996701002E0
5.006111877E0,-1.545539051E-1,-9.483674049E0,2.491269827E0
5.026253335E0,1.300869230E-2,-9.632036209E0,1.842305422E0
5.046524064E0,1.846706420E-1,-9.750996590E0,1.026819348E0
5.066794794E0,4.116123021E-1,-9.797191620E0,1.265352964E-1
5.087069429E0,7.074442506E-1,-9.753499031E0,-7.342759967E-1
5.107379481E0,1.036372781E0,-9.653453827E0,-1.380995631E0
5.127774169E0,1.300522685E0,-9.583312035E0,-1.624553323E0
5.148027033E0,1.474763393E0,-9.565038681E0,-1.582872987E0
5.168142189E0,1.610768080E0,-9.554396629E0,-1.513047218E0
5.188414064E0,1.800328612E0,-9.509593964E0,-1.580136895E0
5.208684637E0,2.088077545E0,-9.424427032E0,-1.729303122E0
5.229093700E0,2.435992241E0,-9.311219215E0,-1.880834341E0
5.249376512E0,2.743812323E0,-9.199021339E0,-2.004967213E0
5.269492450E0,2.949755907E0,-9.118120193E0,-2.080673456E0
5.289765002E0,3.072864056E0,-9.071097374E0,-2.107863903E0
5.310037241E0,3.139665604E0,-9.051899910E0,-2.091886997E0
5.330307866E0,3.144029617E0,-9.060695648E0,-2.046769381E0
5.350709169E0,3.076212645E0,-9.100183487E0,-1.973312616E0
5.370851512E0,2.909663677E0,-9.172283173E0,-1.890362740E0
5.391122919E0,2.569510937E0,-9.275493622E0,-1.879686713E0
5.411394273E0,2.169839621E0,-9.296883583E0,-2.242798090E0
5.431665002E0,2.401239395E0,-9.152685165E0,-2.575420618E0
5.451938283E0,2.882452250E0,-9.024935722E0,-2.532267809E0
5.472209012E0,3.074443817E0,-8.963735580E0,-2.523812771E0
5.492479689E0,3.171931744E0,-8.949903488E0,-2.451219320E0
5.512750314E0,3.208606958E0,-9.010746002E0,-2.163718939E0
5.533021044E0,3.094442844E0,-9.160674095E0,-1.636116147E0
5.553291721E0,2.796671391E0,-9.289159775E0,-1.435456634E0
5.573562346E0,2.537346125E0,-9.251753807E0,-2.034037352E0
5.593833075E0,2.363099575E0,-9.191589355E0,-2.469983101E0
5.614103752E0,2.246154308E0,-9.212167740E0,-2.502227783E0
5.634374429E0,2.153666019E0,-9.292152405E0,-2.277721167E0
5.654645106E0,2.067740202E0,-9.391412735E0,-1.922554255E0
5.675045106E0,1.935906529E0,-9.485617638E0,-1.563872695E0
5.695344377E0,1.718138099E0,-9.565766335E0,-1.309394121E0
5.715457762E0,1.414681077E0,-9.633107185E0,-1.171461940E0
5.735728335E0,1.042351484E0,-9.686197281E0,-1.123155117E0
5.755998908E0,6.264268756E-1,-9.723684311E0,-1.108122110E0
5.776269533E0,2.375683635E-1,-9.753957748E0,-9.870380759E-1
5.796540106E0,-3.065213189E-2,-9.800397873E0,-3.488106132E-1
5.816810731E0,-1.860925555E-1,-9.788594246E0,5.649582744E-1
5.837081356E0,-3.059036136E-1,-9.705333710E0,1.372335434E0
5.857481356E0,-4.361307919E-1,-9.618242264E0,1.862680912E0
5.877780627E0,-4.961686730E-1,-9.584553719E0,2.015078783E0
5.897893960E0,-4.686660767E-1,-9.586275101E0,2.013475180E0
5.918164481E0,-4.386741817E-1,-9.593012810E0,1.987978458E0
5.938491044E0,-4.620975554E-1,-9.584617615E0,2.022857428E0
5.958888127E0,-5.444211364E-1,-9.547576904E0,2.172045708E0
5.978970835E0,-6.430189013E-1,-9.483812332E0,2.411272287E0
5.999242502E0,-7.519218326E-1,-9.403381348E0,2.679817915E0
6.019514012E0,-8.486694098E-1,-9.345683098E0,2.847518682E0
6.039785262E0,-8.846517205E-1,-9.325958252E0,2.900738716E0
6.060055887E0,-8.838752508E-1,-9.318370819E0,2.925255060E0
6.080456460E0,-8.965671659E-1,-9.295941353E0,2.991996527E0
6.100598231E0,-9.725168347E-1,-9.258592606E0,3.082703352E0
6.120869273E0,-1.070544600E0,-9.229092598E0,3.138178825E0
6.141140210E0,-1.071008444E0,-9.234887123E0,3.120928288E0
6.161411044E0,-9.431955218E-1,-9.280866623E0,3.024283171E0
6.181681929E0,-7.363457084E-1,-9.364098549E0,2.818126440E0
6.201952762E0,-5.120129585E-1,-9.483739853E0,2.442726374E0
6.222223439E0,-3.138668835E-1,-9.625756264E0,1.848427176E0
6.242623544E0,-1.085540950E-1,-9.749228477E0,1.054113984E0
6.262764898E0,1.453923285E-1,-9.803006172E0,2.243115902E-1
6.283035679E0,4.647203982E-1,-9.781292915E0,-5.298390388E-1
6.303306408E0,8.573033214E-1,-9.704203606E0,-1.124205947E0
6.323577137E0,1.237071753E0,-9.612445831E0,-1.496969819E0
6.343847710E0,1.511550069E0,-9.552090645E0,-1.625785708E0
6.364118491E0,1.658485174E0,-9.525419235E0,-1.638962269E0
6.384389116E0,1.755288124E0,-9.508678436E0,-1.635352135E0
6.404659846E0,1.898373008E0,-9.481189728E0,-1.635117650E0
6.424930523E0,2.216042995E0,-9.402913094E0,-1.686642766E0
6.445201148E0,2.662583113E0,-9.268230438E0,-1.783521175E0
6.465471877E0,2.957329988E0,-9.160094261E0,-1.875435710E0
6.485742554E0,3.051553726E0,-9.116581917E0,-1.935548782E0
6.506013179E0,3.065146685E0,-9.109109879E0,-1.949198484E0
6.526283856E0,3.021040201E0,-9.127708435E0,-1.930973768E0
6.546554481E0,2.900380135E0,-9.174407959E0,-1.894312501E0
6.566825158E0,2.699349165E0,-9.245921135E0,-1.843052030E0
6.587103752E0,2.425713062E0,-9.333889961E0,-1.778987885E0
6.607459481E0,2.094241142E0,-9.417970657E0,-1.756810427E0
6.627806148E0,1.885830760E0,-9.396912575E0,-2.076547146E0
6.648058960E0,2.270248890E0,-9.245718956E0,-2.352245092E0
6.668172294E0,2.764302254E0,-9.135399818E0,-2.252439499E0
6.688573648E0,2.918182850E0,-9.111029625E0,-2.154929876E0
6.708715887E0,2.925396919E0,-9.146957397E0,-1.986354947E0
6.728986460E0,2.944403172E0,-9.217749596E0,-1.591843367E0
6.749387294E0,3.046758890E0,-9.234974861E0,-1.266051054E0
6.769529169E0,3.122800112E0,-9.160445213E0,-1.582636952E0
6.789800314E0,2.779573917E0,-9.107540131E0,-2.344581842E0
6.810071408E0,2.385037661E0,-9.152494431E0,-2.591105938E0
6.830342033E0,2.124264479E0,-9.260319710E0,-2.429888487E0
6.850750314E0,1.950474024E0,-9.374120712E0,-2.119408369E0
6.871048231E0,1.812789798E0,-9.467780113E0,-1.801476836E0
6.891302189E0,1.641710639E0,-9.545830727E0,-1.533721089E0
6.911417762E0,1.377760649E0,-9.612829208E0,-1.365897655E0
6.931688283E0,1.032470226E0,-9.666600227E0,-1.288891315E0
6.951968075E0,6.509119272E-1,-9.707177162E0,-1.231838346E0
6.972238596E0,2.702783048E-1,-9.743947029E0,-1.073698640E0
6.992509116E0,-8.006013930E-2,-9.795309067E0,-4.646457136E-1
7.012779741E0,-3.266499341E-1,-9.791233063E0,4.420776963E-1
7.033050366E0,-5.019696951E-1,-9.714064598E0,1.247143269E0
7.053450366E0,-6.359424591E-1,-9.638672829E0,1.691731453E0
7.073749585E0,-6.474714279E-1,-9.622547150E0,1.777010202E0
7.093862866E0,-5.806790590E-1,-9.634140968E0,1.736813426E0
7.114133387E0,-5.182185173E-1,-9.639430046E0,1.727198720E0
7.134533387E0,-4.973914921E-1,-9.629169464E0,1.789437532E0
7.154674585E0,-5.304044485E-1,-9.599703789E0,1.932550907E0
7.174945106E0,-5.926660299E-1,-9.551091194E0,2.143781900E0
7.195215627E0,-6.751432419E-1,-9.479251862E0,2.420403004E0
7.215486252E0,-8.002246618E-1,-9.402606010E0,2.668524981E0
7.235756825E0,-9.012166858E-1,-9.358889580E0,2.787364006E0
7.256027450E0,-9.016786218E-1,-9.347459793E0,2.825305700E0
7.276298075E0,-8.592612743E-1,-9.335404396E0,2.877897263E0
7.296568752E0,-8.788117766E-1,-9.307929993E0,2.959819317E0
7.316839325E0,-9.654166698E-1,-9.285949707E0,3.001580954E0
7.337109950E0,-9.720307589E-1,-9.295901299E0,2.968463898E0
7.357509950E0,-8.344586492E-1,-9.341492653E0,2.865410805E0
7.377809169E0,-6.178773046E-1,-9.415129662E0,2.672815323E0
7.397883179E0,-3.843834400E-1,-9.515419960E0,2.340815544E0
7.418192971E0,-1.675977260E-1,-9.639464378E0,1.795278072E0
7.438521148E0,5.491038412E-2,-9.752569199E0,1.027021766E0
7.458912189E0,3.404323757E-1,-9.799437523E0,1.597459614E-1
7.479000210E0,6.607150435E-1,-9.761713982E0,-6.654192209E-1
7.499271669E0,9.983931780E-1,-9.668786049E0,-1.299301982E0
7.519542971E0,1.318259954E0,-9.591095924E0,-1.563152552E0
7.539814116E0,1.565865755E0,-9.559192657E0,-1.529801011E0
7.560085158E0,1.716417074E0,-9.546446800E0,-1.445565820E0
7.580356200E0,1.853068233E0,-9.514605522E0,-1.486204267E0
7.600627137E0,2.192860126E0,-9.397278786E0,-1.747256994E0
7.620897971E0,2.653871059E0,-9.222523689E0,-2.018018484E0
7.641168752E0,2.974821091E0,-9.082385063E0,-2.197981119E0
7.661439533E0,3.129049540E0,-9.000709534E0,-2.316603422E0
7.681710314E0,3.219436169E0,-8.942933083E0,-2.414449692E0
7.701980991E0,3.264995575E0,-8.898139000E0,-2.516606808E0
7.722251669E0,3.259965181E0,-8.867855072E0,-2.627575636E0
7.742522346E0,3.197293043E0,-8.853363037E0,-2.750576973E0
7.762793023E0,3.078049183E0,-8.851419449E0,-2.889355659E0
7.783063700E0,2.909024477E0,-8.850131989E0,-3.063191891E0
7.803334377E0,2.791170359E0,-8.794398308E0,-3.322395802E0
7.823605002E0,2.999172211E0,-8.683320045E0,-3.431516886E0
7.843875627E0,3.320154667E0,-8.639760971E0,-3.240601063E0
7.864146304E0,3.457082510E0,-8.649398804E0,-3.067060471E0
7.884416877E0,3.532550573E0,-8.687068939E0,-2.868149281E0
7.904687502E0,3.590490341E0,-8.775199890E0,-2.504920244E0
7.924958127E0,3.578732967E0,-8.877462387E0,-2.133945704E0
7.945228752E0,3.456286430E0,-8.886687279E0,-2.291560888E0
7.965499325E0,3.212068796E0,-8.843802452E0,-2.764081240E0
7.985770002E0,2.905420303E0,-8.891718864E0,-2.943852425E0
8.006040627E0,2.687412024E0,-9.035226822E0,-2.704233885E0
8.026311200E0,2.498894453E0,-9.218001366E0,-2.225842714E0
8.046711200E0,2.262989521E0,-9.387713432E0,-1.708828568E0
8.066852398E0,1.970104933E0,-9.518486977E0,-1.299033999E0
8.087260314E0,1.646255612E0,-9.610196114E0,-1.050885201E0
8.107557919E0,1.307892442E0,-9.675774574E0,-9.160735011E-1
8.127827294E0,9.268066883E-1,-9.726439476E0,-8.412982821E-1
8.148081252E0,5.011199713E-1,-9.765791893E0,-7.406678796E-1
8.168196825E0,5.908377841E-2,-9.798219681E0,-4.022328556E-1
8.188469169E0,-2.981885970E-1,-9.802070618E0,2.986566722E-2
8.208741096E0,-4.775346816E-1,-9.787678719E0,3.790588677E-1
8.229011564E0,-5.459656715E-1,-9.772935867E0,6.016860008E-1
8.249412762E0,-5.708190799E-1,-9.760200500E0,7.635596991E-1
8.269554846E0,-5.690488219E-1,-9.746946335E0,9.184815288E-1
8.289826096E0,-5.481079221E-1,-9.732185364E0,1.074486732E0
8.310097241E0,-5.168910027E-1,-9.715608597E0,1.228884459E0
8.330367762E0,-4.978692532E-1,-9.695899010E0,1.382766724E0
8.350768231E0,-5.196621418E-1,-9.672935486E0,1.527960181E0
8.370909846E0,-5.904694200E-1,-9.645064354E0,1.671670079E0
8.391180731E0,-7.113019228E-1,-9.603894234E0,1.851932764E0
8.411451460E0,-8.587289453E-1,-9.536193848E0,2.119898558E0
8.431722033E0,-1.017735600E0,-9.435446739E0,2.471225023E0
8.451993596E0,-1.202506185E0,-9.326808929E0,2.781188250E0
8.472264221E0,-1.388589859E0,-9.255269051E0,2.929539442E0
8.492534741E0,-1.492356896E0,-9.236263275E0,2.938487291E0
8.512805262E0,-1.526492000E0,-9.247372627E0,2.885533571E0
8.533075835E0,-1.515636206E0,-9.269144058E0,2.820672035E0
8.553346408E0,-1.461595416E0,-9.301047325E0,2.743108749E0
8.573616981E0,-1.336950660E0,-9.354455948E0,2.622424364E0
8.593887554E0,-1.087444186E0,-9.437925339E0,2.431750298E0
8.614158075E0,-7.506954074E-1,-9.544246674E0,2.124664068E0
8.634428648E0,-3.844247162E-1,-9.654088020E0,1.679641485E0
8.654699221E0,-3.779019043E-2,-9.744274139E0,1.103670359E0
8.674969741E0,2.838146985E-1,-9.792167664E0,4.508675635E-1
8.695240314E0,5.442633033E-1,-9.790203094E0,-1.615341008E-1
8.715510835E0,7.824925184E-1,-9.756533623E0,-6.067625284E-1
8.735781356E0,1.086351275E0,-9.708605766E0,-8.562717438E-1
8.756051929E0,1.395972490E0,-9.648793221E0,-1.059455395E0
8.776322450E0,1.637368679E0,-9.587903976E0,-1.249597192E0
8.796592971E0,1.800328970E0,-9.538455963E0,-1.395377040E0
8.816863544E0,1.915290475E0,-9.504863739E0,-1.469565511E0
8.837134064E0,2.185854435E0,-9.418187141E0,-1.640169740E0
8.857534064E0,2.639117718E0,-9.262197495E0,-1.848552823E0
8.877833075E0,2.982731342E0,-9.131325722E0,-1.972965717E0
8.897907033E0,3.116673231E0,-9.076335907E0,-2.019124269E0
8.918216616E0,3.172118187E0,-9.056198120E0,-2.023197412E0
8.938545262E0,3.181777239E0,-9.051004410E0,-2.031258583E0
8.958946564E0,3.108078241E0,-9.067655563E0,-2.070714474E0
8.979023804E0,2.949657917E0,-9.110299110E0,-2.114796400E0
8.999295106E0,2.698136806E0,-9.173679352E0,-2.175786495E0
9.019566252E0,2.347424746E0,-9.227754593E0,-2.347027779E0
9.039837241E0,2.222217560E0,-9.147208214E0,-2.749677896E0
9.060108179E0,2.595677853E0,-9.018321037E0,-2.846527815E0
9.080379012E0,2.838059902E0,-8.948774338E0,-2.834647655E0
9.100649846E0,3.035102606E0,-8.927281380E0,-2.694845915E0
9.120920471E0,3.310972452E0,-8.963153839E0,-2.206742048E0
9.141191148E0,3.491498232E0,-9.006636620E0,-1.691248536E0
9.161461825E0,3.326422691E0,-9.034047127E0,-1.868498564E0
9.181732398E0,2.810876846E0,-9.042065620E0,-2.551549673E0
9.202002971E0,2.361865282E0,-9.084768295E0,-2.838832140E0
9.222273491E0,2.105175734E0,-9.193539619E0,-2.686533213E0
9.242544012E0,1.957352757E0,-9.340277672E0,-2.257957220E0
9.262814585E0,1.799373984E0,-9.484935760E0,-1.722974420E0
9.283085106E0,1.570875883E0,-9.595534325E0,-1.276108384E0
9.303355627E0,1.270683050E0,-9.670990944E0,-1.013738751E0
9.323626148E0,9.022110701E-1,-9.721425056E0,-9.221092463E-1
9.343896616E0,4.781101346E-1,-9.753741264E0,-8.979618549E-1
9.364167085E0,3.968155757E-2,-9.772286415E0,-8.192791343E-1
9.384437606E0,-3.446659446E-1,-9.789866447E0,-4.583737254E-1
9.404708075E0,-6.364787221E-1,-9.779430389E0,3.578210771E-1
9.424978544E0,-8.037111163E-1,-9.700251579E0,1.195639491E0
9.445249012E0,-9.286189675E-1,-9.604898453E0,1.747563601E0
9.465519481E0,-9.690930843E-1,-9.566447258E0,1.927265763E0
9.485789950E0,-8.964181542E-1,-9.577813148E0,1.905867338E0
9.506189950E0,-7.883031964E-1,-9.600536346E0,1.838113189E0
9.526330887E0,-6.919274330E-1,-9.612182617E0,1.815921545E0
9.546601356E0,-6.494044065E-1,-9.597161293E0,1.908701658E0
9.566871773E0,-6.661849022E-1,-9.550678253E0,2.123941183E0
9.587142241E0,-7.413123846E-1,-9.470869064E0,2.433820248E0
9.607539429E0,-8.464335799E-1,-9.377419472E0,2.741882801E0
9.627847450E0,-9.276345372E-1,-9.308919907E0,2.941752672E0
9.648100991E0,-9.683478475E-1,-9.267771721E0,3.056321383E0
9.668216252E0,-1.010559082E0,-9.235463142E0,3.139328957E0
9.688488283E0,-1.083533168E0,-9.212223053E0,3.182965755E0
9.708758596E0,-1.088480115E0,-9.225975037E0,3.141172647E0
9.729167866E0,-9.655258060E-1,-9.282757759E0,3.011404037E0
9.749450366E0,-8.058218956E-1,-9.363078117E0,2.802463770E0
9.769566200E0,-6.627873778E-1,-9.461116791E0,2.493662596E0
9.789838648E0,-4.701847732E-1,-9.584512711E0,2.021489620E0
9.810110627E0,-2.122100741E-1,-9.708975792E0,1.364238381E0
9.830380991E0,8.218594640E-2,-9.789422989E0,5.751861334E-1
9.850782398E0,3.765400946E-1,-9.796979904E0,-2.186203897E-1
9.870924325E0,6.339762211E-1,-9.750171661E0,-8.382165432E-1
9.891195523E0,8.588207364E-1,-9.696009636E0,-1.191722631E0
9.911466616E0,1.053213477E0,-9.662845612E0,-1.300211191E0
9.931737085E0,1.233305335E0,-9.639969826E0,-1.311619639E0
9.952010262E0,1.371403098E0,-9.617547989E0,-1.338809133E0
9.972280679E0,1.504818201E0,-9.585480690E0,-1.422837734E0
9.992551096E0,1.757775187E0,-9.515992165E0,-1.589499235E0
1.001282146E1,2.170015812E0,-9.396886826E0,-1.777621746E0
1.003309188E1,2.483870983E0,-9.291503906E0,-1.915385485E0
1.005336229E1,2.617796898E0,-9.234127045E0,-2.012070656E0
1.007363271E1,2.691339493E0,-9.203418732E0,-2.055276155E0
1.009390313E1,2.743741751E0,-9.193691254E0,-2.029363632E0
1.011417344E1,2.749687672E0,-9.205241203E0,-1.968031287E0
1.013444386E1,2.681448936E0,-9.239600182E0,-1.900002122E0
1.015471427E1,2.532876253E0,-9.295299530E0,-1.830940604E0
1.017498469E1,2.328743696E0,-9.367485046E0,-1.731343746E0
1.019525511E1,2.112817049E0,-9.444535255E0,-1.583401442E0
1.021552547E1,1.931767225E0,-9.501585007E0,-1.469199300E0
1.023579589E1,2.090663433E0,-9.471068382E0,-1.448579669E0
1.025606630E1,2.614880085E0,-9.348482132E0,-1.392365813E0
1.027633667E1,2.888560772E0,-9.250595093E0,-1.501031876E0
1.029660708E1,2.901279449E0,-9.233836174E0,-1.577733278E0
1.031687750E1,2.892327070E0,-9.256067276E0,-1.459470391E0
1.033714792E1,2.887430429E0,-9.299897194E0,-1.159762502E0
1.035754792E1,2.810551882E0,-9.363141060E0,-7.763980031E-1
1.037784662E1,2.627054214E0,-9.435626984E0,-4.877811074E-1
1.039795958E1,2.326583147E0,-9.508490562E0,-5.882141590E-1
1.041823000E1,2.125198126E0,-9.517511368E0,-1.034845591E0
1.043855771E1,2.048508883E0,-9.494609833E0,-1.351442814E0
1.045895922E1,1.990476489E0,-9.495044708E0,-1.432656169E0
1.047903625E1,1.926623821E0,-9.521331787E0,-1.342666388E0
1.049930750E1,1.850667000E0,-9.562254906E0,-1.143977284E0
1.051957854E1,1.728380442E0,-9.605828285E0,-9.545417428E-1
1.053984953E1,1.533044815E0,-9.650429726E0,-8.302842379E-1
1.056012031E1,1.275408626E0,-9.694735527E0,-7.455415726E-1
1.058039110E1,9.919688106E-1,-9.734575272E0,-6.514793038E-1
1.060066183E1,7.008830309E-1,-9.765834808E0,-5.546324253E-1
1.062093240E1,4.206617773E-1,-9.787640572E0,-4.421556592E-1
1.064120292E1,1.827895343E-1,-9.802908897E0,-1.999424547E-1
1.066147344E1,-4.443550110E-2,-9.793477058E0,5.061997771E-1
1.068174401E1,-2.642834187E-1,-9.700998306E0,1.411087036E0
1.070201448E1,-4.794248939E-1,-9.548908234E0,2.181483746E0
1.072228479E1,-7.022047639E-1,-9.431622505E0,2.592642069E0
1.074268485E1,-8.059677482E-1,-9.412823677E0,2.630503416E0
1.076282573E1,-8.125098944E-1,-9.446793556E0,2.503660679E0
1.078309615E1,-8.378818035E-1,-9.456731796E0,2.457351208E0
1.080336651E1,-9.174687266E-1,-9.414800644E0,2.586537600E0
1.082363693E1,-9.941043854E-1,-9.349516869E0,2.787234068E0
1.084390729E1,-1.034048557E0,-9.293534279E0,2.954882860E0
1.086417771E1,-1.000257492E0,-9.265923500E0,3.051642656E0
1.088444808E1,-9.615487456E-1,-9.249075890E0,3.114548206E0
1.090471854E1,-1.014631987E0,-9.217773438E0,3.189602137E0
1.092498891E1,-1.133608937E0,-9.174381256E0,3.273539305E0
1.094525927E1,-1.224230409E0,-9.152173042E0,3.302933693E0
1.096552964E1,-1.170291066E0,-9.187694550E0,3.222896814E0
1.098580000E1,-9.662957191E-1,-9.286200523E0,3.000523567E0
1.100607037E1,-6.746254563E-1,-9.433402061E0,2.593490362E0
1.102634073E1,-3.441860974E-1,-9.591102600E0,2.015605450E0
1.104661110E1,-2.920357883E-2,-9.718700409E0,1.310116172E0
1.106688146E1,2.633576095E-1,-9.787226677E0,5.578815937E-1
1.108715183E1,5.513602495E-1,-9.789628983E0,-1.719445884E-1
1.110754891E1,8.868156075E-1,-9.733143806E0,-8.061455488E-1
1.112785682E1,1.241451859E0,-9.659284592E0,-1.152135730E0
1.114811031E1,1.533376217E0,-9.602866173E0,-1.266538739E0
1.116822334E1,1.716780782E0,-9.564292908E0,-1.321875453E0
1.118862547E1,1.828560472E0,-9.531752586E0,-1.404433370E0
1.120876781E1,1.972084045E0,-9.483704567E0,-1.529910326E0
1.122903808E1,2.316005945E0,-9.361887932E0,-1.778078914E0
1.124943943E1,2.751894951E0,-9.194734573E0,-2.013533831E0
1.126958115E1,3.000725985E0,-9.086657524E0,-2.144451857E0
1.128985235E1,3.081243992E0,-9.046154022E0,-2.200778246E0
1.131012334E1,3.093640566E0,-9.037924767E0,-2.217134714E0
1.133039360E1,3.050159454E0,-9.054876328E0,-2.208195925E0
1.135079417E1,2.942442894E0,-9.095087051E0,-2.189020634E0
1.137093531E1,2.772898197E0,-9.150992393E0,-2.177323818E0
1.139120604E1,2.544295549E0,-9.216638565E0,-2.179564953E0
1.141147672E1,2.282859802E0,-9.282377243E0,-2.190071821E0
1.143174703E1,2.237731457E0,-9.261582375E0,-2.320785522E0
1.145201854E1,2.678093910E0,-9.136473656E0,-2.350119352E0
1.147228891E1,3.028643608E0,-9.041100502E0,-2.292642355E0
1.149255927E1,3.192082167E0,-9.024166107E0,-2.132001877E0
1.151282964E1,3.308586359E0,-9.048719406E0,-1.828749418E0
1.153309995E1,3.339085579E0,-9.117299080E0,-1.376855731E0
1.155337031E1,3.195677280E0,-9.230087280E0,-8.737960458E-1
1.157364068E1,2.865277529E0,-9.358624458E0,-6.137863398E-1
1.159391104E1,2.611758709E0,-9.391609192E0,-1.070881724E0
1.161418146E1,2.511727571E0,-9.336621284E0,-1.639852881E0
1.163458146E1,2.381073713E0,-9.327508926E0,-1.870409131E0
1.165472219E1,2.272604465E0,-9.378439903E0,-1.746572614E0
1.167512219E1,2.183387995E0,-9.449494362E0,-1.452674150E0
1.169542084E1,2.073732376E0,-9.520295143E0,-1.110858202E0
1.171569130E1,1.917115808E0,-9.579875946E0,-8.491255641E-1
1.173596172E1,1.697228193E0,-9.632153511E0,-7.151385546E-1
1.175607479E1,1.407879233E0,-9.680442810E0,-6.908766031E-1
1.177634495E1,1.055122972E0,-9.722294807E0,-7.308184505E-1
1.179661531E1,6.561226249E-1,-9.756133080E0,-7.468411922E-1
1.181688552E1,2.676101923E-1,-9.783877373E0,-6.119805574E-1
1.183715584E1,-4.350729659E-2,-9.805671692E0,-1.314939260E-1
1.185755584E1,-2.607390583E-1,-9.777996063E0,7.022824883E-1
1.187785438E1,-4.344301820E-1,-9.670186043E0,1.571356893E0
1.189792813E1,-6.499378681E-1,-9.538912773E0,2.181077719E0
1.191823755E1,-8.719443083E-1,-9.458883286E0,2.437136889E0
1.193856365E1,-1.008868933E0,-9.443256378E0,2.444889069E0
1.195896547E1,-1.079367518E0,-9.443394661E0,2.414052248E0
1.197904276E1,-1.124241948E0,-9.411885262E0,2.514535904E0
1.199931417E1,-1.172982454E0,-9.344921112E0,2.732572317E0
1.201958537E1,-1.228889823E0,-9.280164719E0,2.922115326E0
1.203985573E1,-1.272590995E0,-9.257897377E0,2.973589420E0
1.206025646E1,-1.249480844E0,-9.276530266E0,2.924922228E0
1.208039776E1,-1.176125646E0,-9.300497055E0,2.878867865E0
1.210066854E1,-1.152381659E0,-9.294310570E0,2.908296108E0
1.212093927E1,-1.211772680E0,-9.264342308E0,2.978921175E0
1.214120995E1,-1.216848373E0,-9.243538857E0,3.040830612E0
1.216148063E1,-1.081683993E0,-9.252901077E0,3.063359499E0
1.218175115E1,-8.486540318E-1,-9.294972420E0,3.008930445E0
1.220202167E1,-6.008806825E-1,-9.386691093E0,2.774772406E0
1.222229214E1,-3.625088036E-1,-9.539449692E0,2.244517565E0
1.224256261E1,-8.972626925E-2,-9.697005272E0,1.459598184E0
1.226283297E1,2.162918150E-1,-9.789069176E0,5.456501245E-1
1.228310344E1,5.035846829E-1,-9.788340569E0,-3.243261576E-1
1.230337386E1,7.476463318E-1,-9.732954979E0,-9.386084080E-1
1.232364422E1,9.576244354E-1,-9.684552193E0,-1.209456682E0
1.234391464E1,1.140507579E0,-9.662644386E0,-1.225947499E0
1.236418500E1,1.287251472E0,-9.651121140E0,-1.170140505E0
1.238445542E1,1.414959192E0,-9.633839607E0,-1.165078878E0
1.240472578E1,1.610899806E0,-9.588245392E0,-1.280991077E0
1.242499615E1,1.944417834E0,-9.491755486E0,-1.515325665E0
1.244526656E1,2.358247042E0,-9.359849930E0,-1.732703686E0
1.246553693E1,2.685662031E0,-9.246026039E0,-1.862419248E0
1.248580729E1,2.854218006E0,-9.183570862E0,-1.919857860E0
1.250607766E1,2.955826521E0,-9.148971558E0,-1.931264758E0
1.252634802E1,3.023535013E0,-9.128907204E0,-1.921377063E0
1.254674802E1,3.040737391E0,-9.123315811E0,-1.920785427E0
1.256688875E1,2.985794544E0,-9.135031700E0,-1.951055527E0
1.258715912E1,2.848573446E0,-9.164859772E0,-2.015280962E0
1.260756709E1,2.608236074E0,-9.206484795E0,-2.146652699E0
1.262786412E1,2.494037390E0,-9.179684639E0,-2.384020567E0
1.264811761E1,2.700387001E0,-9.108470917E0,-2.431884527E0
1.266823276E1,2.819570065E0,-9.060608864E0,-2.475029707E0
1.268850474E1,2.890367508E0,-9.031026840E0,-2.501345396E0
1.270877636E1,2.982209206E0,-9.047068596E0,-2.329674006E0
1.272904662E1,3.027755737E0,-9.141001701E0,-1.856119633E0
1.274944771E1,3.041455030E0,-9.209742546E0,-1.449333191E0
1.276958922E1,3.036601782E0,-9.178641319E0,-1.643769264E0
1.278986021E1,2.855682611E0,-9.130441666E0,-2.156499863E0
1.281013110E1,2.632578611E0,-9.164092064E0,-2.293326855E0
1.283040136E1,2.403244734E0,-9.271351814E0,-2.106376410E0
1.285080177E1,2.143663406E0,-9.402894974E0,-1.777825952E0
1.287094287E1,1.851427913E0,-9.514525414E0,-1.488763213E0
1.289121354E1,1.537398696E0,-9.596256256E0,-1.310978532E0
1.291148406E1,1.225854158E0,-9.653069496E0,-1.218982458E0
1.293175443E1,9.051032662E-1,-9.695276260E0,-1.163095593E0
1.295202568E1,5.477791429E-1,-9.730529785E0,-1.089551926E0
1.297229604E1,1.805201024E-1,-9.764634132E0,-8.886601925E-1
1.299256641E1,-1.723026931E-1,-9.798960686E0,-3.479750454E-1
1.301283672E1,-4.485906661E-1,-9.787957191E0,4.062486291E-1
1.303310703E1,-6.338837147E-1,-9.724528313E0,1.096415162E0
1.305337740E1,-7.694034576E-1,-9.655180931E0,1.534884095E0
1.307364776E1,-8.187554479E-1,-9.623947144E0,1.696959257E0
1.309391813E1,-7.914992571E-1,-9.622239113E0,1.719429612E0
1.311418844E1,-7.458460331E-1,-9.622550011E0,1.737998486E0
1.313445886E1,-7.066350579E-1,-9.616486549E0,1.787245393E0
1.315472917E1,-6.836165190E-1,-9.604659081E0,1.858378887E0
1.317499953E1,-7.024197578E-1,-9.579602242E0,1.976920128E0
1.319526990E1,-7.586420178E-1,-9.526587486E0,2.199763060E0
1.321554021E1,-8.463535905E-1,-9.437861443E0,2.526032925E0
1.323581058E1,-9.502769709E-1,-9.338095665E0,2.840302706E0
1.325608094E1,-9.908136129E-1,-9.260306358E0,3.071712732E0
1.327635130E1,-1.000073552E0,-9.205286980E0,3.230002403E0
1.329662167E1,-1.070945024E0,-9.161904335E0,3.329109192E0
1.331689198E1,-1.182818174E0,-9.145741463E0,3.335677862E0
1.333716235E1,-1.210217595E0,-9.180510521E0,3.228621721E0
1.335756235E1,-1.070742249E0,-9.264915466E0,3.030715942E0
1.337786094E1,-8.341910839E-1,-9.382146835E0,2.729439259E0
1.339793474E1,-5.610221028E-1,-9.516730309E0,2.299454689E0
1.341824417E1,-2.660197318E-1,-9.649853706E0,1.726248503E0
1.343857271E1,5.447820202E-2,-9.752985954E0,1.023080349E0
1.345897584E1,3.784946501E-1,-9.796625137E0,2.308097482E-1
1.347919474E1,6.777733564E-1,-9.769623756E0,-5.152303576E-1
1.349931151E1,9.489024878E-1,-9.704862595E0,-1.041926384E0
1.351958464E1,1.193608880E0,-9.651931763E0,-1.259322882E0
1.353985709E1,1.390507936E0,-9.623376846E0,-1.275726318E0
1.356012917E1,1.538132787E0,-9.603316307E0,-1.257315755E0
1.358040094E1,1.676152587E0,-9.577813148E0,-1.275304556E0
1.360067240E1,1.920726776E0,-9.509789467E0,-1.430063605E0
1.362094360E1,2.307508469E0,-9.375917435E0,-1.714043260E0
1.364121464E1,2.659349680E0,-9.232409477E0,-1.964908004E0
1.366148558E1,2.823405027E0,-9.154891968E0,-2.094447374E0
1.368175630E1,2.880854130E0,-9.130370140E0,-2.123067617E0
1.370202709E1,2.885467529E0,-9.129260063E0,-2.121571541E0
1.372229771E1,2.834367275E0,-9.144313812E0,-2.125625372E0
1.374256834E1,2.722725630E0,-9.177918434E0,-2.126727343E0
1.376283880E1,2.549064636E0,-9.228685379E0,-2.122263193E0
1.378310933E1,2.308672905E0,-9.295500755E0,-2.105725050E0
1.380337974E1,2.039308071E0,-9.357484818E0,-2.109285355E0
1.382365021E1,2.039176226E0,-9.310698509E0,-2.307175636E0
1.384392058E1,2.611845970E0,-9.159361839E0,-2.335540533E0
1.386419094E1,2.976533651E0,-9.055737495E0,-2.303094149E0
1.388446130E1,3.028696299E0,-9.048623085E0,-2.262700319E0
1.390473172E1,3.045627356E0,-9.086384773E0,-2.081381798E0
1.392500209E1,3.083662271E0,-9.151103973E0,-1.708423257E0
1.394527240E1,3.059170246E0,-9.241206169E0,-1.188271046E0
1.396554281E1,2.984912634E0,-9.302490234E0,-8.510910869E-1
1.398581313E1,2.943419456E0,-9.284881592E0,-1.139134526E0
1.400608344E1,2.749775171E0,-9.222133636E0,-1.887165427E0
1.402635375E1,2.466586351E0,-9.229534149E0,-2.214055777E0
1.404662412E1,2.238299131E0,-9.318734169E0,-2.078843832E0
1.406702412E1,2.020089149E0,-9.431093216E0,-1.773162365E0
1.408716479E1,1.801658988E0,-9.529403687E0,-1.454260707E0
1.410743511E1,1.571309924E0,-9.601122856E0,-1.232811809E0
1.412770542E1,1.320240974E0,-9.651813507E0,-1.126867056E0
1.414797573E1,1.020431876E0,-9.693452835E0,-1.079852581E0
1.416824604E1,6.707394719E-1,-9.731348991E0,-1.010621071E0
1.418851636E1,2.976323366E-1,-9.767196655E0,-8.268448710E-1
1.420878672E1,-7.563282549E-2,-9.799457550E0,-3.678058386E-1
1.422905703E1,-4.048778117E-1,-9.793096542E0,3.189472556E-1
1.424932735E1,-6.346590519E-1,-9.735651970E0,9.923086166E-1
1.426959766E1,-7.656815052E-1,-9.661109924E0,1.499026418E0
1.428986797E1,-8.207616806E-1,-9.610214233E0,1.772155762E0
1.431013828E1,-8.201714158E-1,-9.590636253E0,1.875473142E0
1.433040860E1,-8.001116514E-1,-9.583102226E0,1.922071576E0
1.435067891E1,-7.781067491E-1,-9.577202797E0,1.960135937E0
1.437094922E1,-7.893916965E-1,-9.564641953E0,2.016156197E0
1.439121953E1,-8.379067183E-1,-9.535778999E0,2.130074501E0
1.441148979E1,-8.937314153E-1,-9.481212616E0,2.340562582E0
1.443176011E1,-9.624682665E-1,-9.399267197E0,2.626368284E0
1.445203042E1,-1.064838648E0,-9.315481186E0,2.873727083E0
1.447230073E1,-1.135540247E0,-9.259592056E0,3.023390055E0
1.449257104E1,-1.172015667E0,-9.225023270E0,3.113793850E0
1.451284130E1,-1.255501270E0,-9.187695503E0,3.190667152E0
1.453311162E1,-1.382146597E0,-9.157705307E0,3.224358797E0
1.455338193E1,-1.414657235E0,-9.165961266E0,3.186576605E0
1.457365224E1,-1.276312947E0,-9.223988533E0,3.075621367E0
1.459392250E1,-1.040614605E0,-9.319089890E0,2.870898485E0
1.461419281E1,-7.775503993E-1,-9.441670418E0,2.533902884E0
1.463446313E1,-5.111546516E-1,-9.581289291E0,2.026820660E0
1.465487110E1,-2.297225296E-1,-9.713414192E0,1.329363704E0
1.467515229E1,6.318407506E-2,-9.792071342E0,5.307876468E-1
1.469526703E1,3.358291388E-1,-9.798133850E0,-2.327691317E-1
1.471553880E1,6.039987803E-1,-9.753230095E0,-8.246726394E-1
1.473580896E1,8.727617860E-1,-9.700001717E0,-1.148325801E0
1.475621016E1,1.135741591E0,-9.662673950E0,-1.230126262E0
1.477635162E1,1.349639058E0,-9.634650230E0,-1.233846426E0
1.479662255E1,1.509117246E0,-9.609292984E0,-1.246771455E0
1.481689344E1,1.691336513E0,-9.575911522E0,-1.269517183E0
1.483716365E1,2.049824715E0,-9.488293648E0,-1.393160820E0
1.485756412E1,2.567626476E0,-9.337895393E0,-1.543175220E0
1.487770511E1,2.903457165E0,-9.224467278E0,-1.627738237E0
1.489797573E1,3.023817539E0,-9.181521416E0,-1.651238203E0
1.491824625E1,3.060617685E0,-9.169540405E0,-1.650012136E0
1.493851667E1,3.033088684E0,-9.176803589E0,-1.660433173E0
1.495878708E1,2.941096544E0,-9.199152946E0,-1.701747894E0
1.497905750E1,2.794864178E0,-9.231306076E0,-1.772598147E0
1.499932792E1,2.608745575E0,-9.272050858E0,-1.842255354E0
1.501959823E1,2.398663759E0,-9.324170113E0,-1.864577889E0
1.503986854E1,2.260956049E0,-9.344010353E0,-1.935960650E0
1.506013891E1,2.548891544E0,-9.248641014E0,-2.033759832E0
1.508040917E1,3.018966913E0,-9.117543221E0,-1.981568456E0
1.510067948E1,3.233950615E0,-9.067870140E0,-1.866996527E0
1.512094985E1,3.343089104E0,-9.067057610E0,-1.668119907E0
1.514122011E1,3.388144732E0,-9.116310120E0,-1.258472681E0
1.516149037E1,3.332486153E0,-9.191473961E0,-7.627239227E-1
1.518176068E1,3.220902920E0,-9.248767853E0,-5.064160228E-1
1.520203099E1,3.102599621E0,-9.241635323E0,-1.066041827E0
1.522230125E1,2.837241650E0,-9.198024750E0,-1.875310540E0
1.524270125E1,2.549897671E0,-9.235798836E0,-2.090079308E0
1.526284177E1,2.348642111E0,-9.335038185E0,-1.873855352E0
1.528311203E1,2.199146032E0,-9.441378593E0,-1.481386542E0
1.530338229E1,2.051700830E0,-9.531285286E0,-1.056176305E0
1.532379026E1,1.875586867E0,-9.597106934E0,-7.403459549E-1
1.534407141E1,1.656115770E0,-9.649533272E0,-5.605150461E-1
1.536418620E1,1.387701511E0,-9.695132256E0,-4.990703464E-1
1.538445787E1,1.074002028E0,-9.734557152E0,-5.052657127E-1
1.540472917E1,7.237609625E-1,-9.766571045E0,-5.105410218E-1
1.542500037E1,3.747131228E-1,-9.789195061E0,-4.490375817E-1
1.544527130E1,4.444031045E-2,-9.806447029E0,-4.480192810E-2
1.546554209E1,-2.354815006E-1,-9.771389961E0,7.967967987E-1
1.548581281E1,-4.541082978E-1,-9.656734467E0,1.646711111E0
1.550608339E1,-6.646096110E-1,-9.526470184E0,2.230480671E0
1.552635396E1,-8.290162086E-1,-9.459778786E0,2.448611021E0
1.554662448E1,-8.731393814E-1,-9.461953163E0,2.424758434E0
1.556689490E1,-8.509315252E-1,-9.483254433E0,2.348228693E0
1.558716531E1,-8.314018250E-1,-9.477713585E0,2.377416611E0
1.560743573E1,-8.463097811E-1,-9.431845665E0,2.548417568E0
1.562770604E1,-8.826419115E-1,-9.364907265E0,2.773056269E0
1.564797636E1,-9.220954776E-1,-9.310063362E0,2.939872742E0
1.566824662E1,-9.250306487E-1,-9.288675308E0,3.005863905E0
1.568851693E1,-9.022001028E-1,-9.287890434E0,3.015216589E0
1.570878719E1,-9.389064312E-1,-9.275315285E0,3.042593479E0
1.572905750E1,-1.046802044E0,-9.240072250E0,3.113784790E0
1.574932771E1,-1.143998027E0,-9.210340500E0,3.167218924E0
1.576959802E1,-1.138210535E0,-9.217355728E0,3.148844957E0
1.578986828E1,-9.993165731E-1,-9.271667480E0,3.034458637E0
1.581013849E1,-7.686977386E-1,-9.371324539E0,2.785276413E0
1.583040875E1,-4.882628918E-1,-9.504323006E0,2.366396666E0
1.585067901E1,-2.031417787E-1,-9.642960548E0,1.772691965E0
1.587094922E1,7.937091589E-2,-9.752963066E0,1.021669626E0
1.589121948E1,3.696731031E-1,-9.797839165E0,1.899396628E-1
1.591148974E1,6.513279080E-1,-9.767704964E0,-5.814732909E-1
1.593175995E1,9.093298316E-1,-9.701755524E0,-1.104288578E0
1.595203021E1,1.144449353E0,-9.652610779E0,-1.299125791E0
1.597230042E1,1.348230839E0,-9.626600266E0,-1.296615958E0
1.599257068E1,1.500164628E0,-9.605088234E0,-1.289253473E0
1.601284089E1,1.631234288E0,-9.574471474E0,-1.356086493E0
1.603311110E1,1.853249192E0,-9.510497093E0,-1.512054920E0
1.605338136E1,2.269802570E0,-9.379192352E0,-1.746178627E0
1.607365156E1,2.682261944E0,-9.233609200E0,-1.927777290E0
1.609392183E1,2.876341105E0,-9.155902863E0,-2.016549826E0
1.611419203E1,2.933773756E0,-9.130226135E0,-2.049959421E0
1.613446224E1,2.935768604E0,-9.127507210E0,-2.059187889E0
1.615486224E1,2.885055304E0,-9.143223763E0,-2.061143637E0
1.617500271E1,2.774490833E0,-9.176229477E0,-2.066251516E0
1.619527292E1,2.606414318E0,-9.221686363E0,-2.082669735E0
1.621554308E1,2.393284798E0,-9.277043343E0,-2.092610121E0
1.623581334E1,2.159698009E0,-9.332422256E0,-2.100475311E0
1.625621334E1,2.189048052E0,-9.298539162E0,-2.217124224E0
1.627635380E1,2.684430122E0,-9.173813820E0,-2.192111492E0
1.629662401E1,2.990852118E0,-9.096214294E0,-2.117563963E0
1.631689422E1,3.077062368E0,-9.088807106E0,-2.023779631E0
1.633716443E1,3.108222723E0,-9.117976189E0,-1.836257935E0
1.635756443E1,3.102202892E0,-9.184295654E0,-1.481699586E0
1.637770490E1,2.976907969E0,-9.289492607E0,-1.006842852E0
1.639797511E1,2.723307610E0,-9.397144318E0,-6.690679789E-1
1.641824531E1,2.427907228E0,-9.455929756E0,-9.279261827E-1
1.643851552E1,2.245200634E0,-9.413177490E0,-1.587943077E0
1.645891552E1,2.136876822E0,-9.385225296E0,-1.876615882E0
1.647905594E1,2.044600487E0,-9.423501015E0,-1.785390496E0
1.649932615E1,1.951313257E0,-9.488063812E0,-1.529512048E0
1.651959636E1,1.836550474E0,-9.552522659E0,-1.243702412E0
1.654000432E1,1.669289112E0,-9.608530998E0,-1.029563427E0
1.656030104E1,1.443011045E0,-9.657293320E0,-9.081834555E-1
1.658055438E1,1.161440849E0,-9.701612473E0,-8.367435336E-1
1.660066938E1,8.329641819E-1,-9.739908218E0,-7.814975381E-1
1.662094110E1,4.755408466E-1,-9.769602776E0,-7.064707875E-1
1.664121266E1,1.377052069E-1,-9.789385796E0,-5.651214123E-1
1.666148380E1,-1.427217722E-1,-9.804769516E0,-1.285080016E-1
1.668175479E1,-3.690156639E-1,-9.772331238E0,7.319537401E-1
1.670202558E1,-5.095528960E-1,-9.661001205E0,1.604932427E0
1.672229630E1,-6.397545934E-1,-9.528393745E0,2.229528904E0
1.674256693E1,-7.860615253E-1,-9.448760033E0,2.504685402E0
1.676283750E1,-8.535868526E-1,-9.440151215E0,2.515017033E0
1.678310797E1,-8.520542383E-1,-9.459502220E0,2.441764116E0
1.680337834E1,-8.515251875E-1,-9.460269928E0,2.438972235E0
1.682364870E1,-9.058095813E-1,-9.423135757E0,2.560158491E0
1.684391906E1,-9.771245718E-1,-9.367214203E0,2.733293533E0
1.686418932E1,-1.029408216E0,-9.317565918E0,2.879876137E0
1.688445964E1,-1.031202078E0,-9.287674904E0,2.974242449E0
1.690472990E1,-1.007256746E0,-9.263940811E0,3.055361986E0
1.692500011E1,-1.025143027E0,-9.224650383E0,3.166273117E0
1.694527031E1,-1.110809684E0,-9.176243782E0,3.276130438E0
1.696554058E1,-1.188596964E0,-9.149999619E0,3.321913719E0
1.698581078E1,-1.148559928E0,-9.184470177E0,3.239860296E0
1.700608099E1,-9.844930768E-1,-9.282356262E0,3.006496906E0
1.702635120E1,-7.350193262E-1,-9.417493820E0,2.634565115E0
1.704662141E1,-4.275057018E-1,-9.561519623E0,2.136580229E0
1.706689162E1,-1.161134019E-1,-9.690239906E0,1.502050519E0
1.708716177E1,1.750915945E-1,-9.775449753E0,7.617840767E-1
1.710743198E1,4.377708435E-1,-9.796873093E0,4.908399191E-3
1.712770214E1,7.020760179E-1,-9.758849144E0,-6.650843620E-1
1.714797235E1,9.854854941E-1,-9.688222885E0,-1.156515002E0
1.716824255E1,1.259317517E0,-9.628713608E0,-1.368348956E0
1.718851271E1,1.480237126E0,-9.589811325E0,-1.419436574E0
1.720878287E1,1.633268237E0,-9.556076050E0,-1.477915168E0
1.722905308E1,1.755620718E0,-9.516034126E0,-1.591627359E0
1.724932328E1,1.896125555E0,-9.464251518E0,-1.732931376E0
1.726959344E1,2.135112286E0,-9.382818222E0,-1.890609980E0
1.728986365E1,2.497300625E0,-9.257853508E0,-2.055728436E0
1.731013380E1,2.764791489E0,-9.154666901E0,-2.172186613E0
1.733040396E1,2.837529421E0,-9.119659424E0,-2.225002766E0
1.735067417E1,2.823566675E0,-9.127785683E0,-2.209387064E0
1.737094432E1,2.755289555E0,-9.162855148E0,-2.149617434E0
1.739121448E1,2.625319242E0,-9.221348763E0,-2.060297966E0
1.741148469E1,2.424261332E0,-9.300050735E0,-1.949977994E0
1.743175485E1,2.119735479E0,-9.390073776E0,-1.871796608E0
1.745202500E1,1.895528436E0,-9.393615723E0,-2.082631588E0
1.747229521E1,2.277842522E0,-9.261991501E0,-2.279765844E0
1.749269521E1,2.676174879E0,-9.141298294E0,-2.333482981E0
1.751283552E1,2.780481339E0,-9.097517014E0,-2.382119417E0
1.753310568E1,2.852570057E0,-9.112514496E0,-2.235019445E0
1.755337584E1,2.906795263E0,-9.187036514E0,-1.821889520E0
1.757364599E1,2.961431265E0,-9.249654770E0,-1.358013391E0
1.759391615E1,3.014584064E0,-9.242993355E0,-1.284424424E0
1.761418636E1,2.823486090E0,-9.215565681E0,-1.808771849E0
1.763445651E1,2.500806808E0,-9.231133461E0,-2.168529272E0
1.765485651E1,2.203199387E0,-9.304662704E0,-2.177052259E0
1.767499682E1,1.950142860E0,-9.396425247E0,-2.018548250E0
1.769526698E1,1.705274701E0,-9.486902237E0,-1.805855870E0
1.771553714E1,1.442115068E0,-9.569067955E0,-1.588597417E0
1.773580729E1,1.147171974E0,-9.640103340E0,-1.386651158E0
1.775620729E1,8.185341954E-1,-9.697976112E0,-1.204013586E0
1.777634761E1,4.789243937E-1,-9.739991188E0,-1.036146283E0
1.779661776E1,1.424543560E-1,-9.767902374E0,-8.591692448E-1
1.781688792E1,-1.674120128E-1,-9.788218498E0,-5.771791935E-1
1.783715808E1,-3.995690644E-1,-9.797878265E0,1.109247804E-1
1.785755808E1,-5.705046058E-1,-9.745303154E0,9.348695278E-1
1.787769839E1,-7.678514719E-1,-9.654884338E0,1.537528634E0
1.789796854E1,-9.089555740E-1,-9.594692230E0,1.812754512E0
1.791823870E1,-9.133014083E-1,-9.579917908E0,1.887174845E0
1.793850886E1,-8.662274480E-1,-9.576539993E0,1.926117301E0
1.795877901E1,-8.133906722E-1,-9.569894791E0,1.981384873E0
1.797904917E1,-7.818540335E-1,-9.559034348E0,2.045473099E0
1.799931933E1,-7.928224206E-1,-9.539314270E0,2.131503344E0
1.801958948E1,-8.355786800E-1,-9.499885559E0,2.285689354E0
1.803985964E1,-9.021101594E-1,-9.430469513E0,2.534334183E0
1.806012979E1,-9.824640155E-1,-9.341386795E0,2.818446875E0
1.808039995E1,-1.029686451E0,-9.262392044E0,3.052577734E0
1.810067011E1,-1.037640214E0,-9.208601952E0,3.208633661E0
1.812094026E1,-1.086899042E0,-9.178677559E0,3.277333498E0
1.814121042E1,-1.213607550E0,-9.164420128E0,3.272758722E0
1.816148052E1,-1.342990518E0,-9.170248985E0,3.205198288E0
1.818175063E1,-1.359328747E0,-9.209111214E0,3.084619999E0
1.820202078E1,-1.230316639E0,-9.285078049E0,2.905863523E0
1.822229099E1,-9.948527813E-1,-9.398497581E0,2.617039204E0
1.824256115E1,-6.916577220E-1,-9.538738251E0,2.168973684E0
1.826283130E1,-3.659203351E-1,-9.675644875E0,1.555118442E0
1.828310146E1,-4.476685077E-2,-9.773342133E0,8.063294888E-1
1.830337162E1,2.451296151E-1,-9.803582191E0,9.031110443E-3
1.832364172E1,5.123081207E-1,-9.768953323E0,-6.895559430E-1
1.834391183E1,7.966628075E-1,-9.701890945E0,-1.187026262E0
1.836418198E1,1.085326433E0,-9.649066925E0,-1.374030471E0
1.838445214E1,1.344011784E0,-9.617560387E0,-1.366215944E0
1.840472229E1,1.543752551E0,-9.589600563E0,-1.351580858E0
1.842499245E1,1.718105435E0,-9.554297447E0,-1.390648127E0
1.844526266E1,1.916791916E0,-9.506210327E0,-1.458850861E0
1.846553276E1,2.256818056E0,-9.408164024E0,-1.601124048E0
1.848580287E1,2.699226856E0,-9.263210297E0,-1.754278898E0
1.850607302E1,2.979953527E0,-9.161668777E0,-1.831417680E0
1.852634313E1,3.053904772E0,-9.132686615E0,-1.854204655E0
1.854661334E1,3.034093380E0,-9.140204430E0,-1.849685550E0
1.856688344E1,2.944704533E0,-9.172228813E0,-1.835567951E0
1.858715360E1,2.782110214E0,-9.225984573E0,-1.819741845E0
1.860742375E1,2.558115482E0,-9.292071342E0,-1.812137008E0
1.862769391E1,2.275601387E0,-9.366189957E0,-1.807348967E0
1.864796401E1,1.952364087E0,-9.431995392E0,-1.842854500E0
1.866823417E1,1.912517786E0,-9.379188538E0,-2.131543875E0
1.868850427E1,2.522918463E0,-9.225629807E0,-2.166339397E0
1.870877443E1,2.982520819E0,-9.110984802E0,-2.065163612E0
1.872904458E1,3.099316597E0,-9.094388008E0,-1.963854909E0
1.874931474E1,3.110477448E0,-9.141763687E0,-1.709814668E0
1.876958485E1,3.148788929E0,-9.208390236E0,-1.208740950E0
1.878985500E1,3.292063475E0,-9.201916695E0,-8.108202219E-1
1.881012511E1,3.440213919E0,-9.123269081E0,-1.049417257E0
1.883039526E1,3.149796009E0,-9.081552505E0,-1.942825556E0
1.885066542E1,2.668533802E0,-9.131532669E0,-2.380004644E0
1.887093552E1,2.301095724E0,-9.256333351E0,-2.279397011E0
1.889120568E1,2.013386965E0,-9.401664734E0,-1.930125117E0
1.891147578E1,1.763961673E0,-9.531790733E0,-1.484509826E0
1.893174594E1,1.521080494E0,-9.624555588E0,-1.106634855E0
1.895215391E1,1.252179742E0,-9.687575340E0,-8.679389358E-1
1.897243479E1,9.340422153E-1,-9.731824875E0,-7.678118944E-1
1.899254943E1,5.793413520E-1,-9.761457443E0,-7.407381535E-1
1.901282099E1,2.161006480E-1,-9.779851913E0,-6.915095448E-1
1.903308823E1,-1.429211944E-1,-9.794838905E0,-4.594620764E-1
1.905332469E1,-4.866100252E-1,-9.790453911E0,2.839360535E-1
1.907363458E1,-7.613611221E-1,-9.706189156E0,1.174991012E0
1.909390505E1,-9.854838848E-1,-9.586906433E0,1.813954115E0
1.911417563E1,-1.118817449E0,-9.526777267E0,2.039400578E0
1.913444573E1,-1.080832481E0,-9.534288406E0,2.024731398E0
1.915484604E1,-9.751351476E-1,-9.556200027E0,1.974472880E0
1.917498656E1,-8.708824515E-1,-9.566809654E0,1.971831203E0
1.919525682E1,-8.000614047E-1,-9.558792114E0,2.039553165E0
1.921552708E1,-8.037749529E-1,-9.523244858E0,2.198213577E0
1.923579724E1,-8.565351963E-1,-9.455373764E0,2.456141233E0
1.925619735E1,-9.148157239E-1,-9.359055519E0,2.782369375E0
1.927633766E1,-9.913633466E-1,-9.265027046E0,3.057264328E0
1.929660787E1,-1.057926059E0,-9.204713821E0,3.213161469E0
1.931687802E1,-1.111352801E0,-9.174659729E0,3.280382156E0
1.933714813E1,-1.201832891E0,-9.154555321E0,3.304558754E0
1.935754818E1,-1.296129704E0,-9.152030945E0,3.275786638E0
1.937768844E1,-1.271422982E0,-9.184438705E0,3.193737030E0
1.939795860E1,-1.086122990E0,-9.248919487E0,3.073792696E0
1.941822870E1,-7.998328805E-1,-9.339695930E0,2.881096840E0
1.943849886E1,-5.096728802E-1,-9.452589989E0,2.561085463E0
1.945889891E1,-2.437912822E-1,-9.586786270E0,2.050484896E0
1.947903912E1,1.516743470E-2,-9.717864990E0,1.316538453E0
1.949930922E1,2.706888616E-1,-9.791969299E0,4.630912542E-1
1.951957933E1,4.834805429E-1,-9.789204597E0,-3.287853897E-1
1.953984943E1,6.632189155E-1,-9.741442680E0,-9.136757851E-1
1.956011959E1,8.531041145E-1,-9.693706512E0,-1.214347482E0
1.958038969E1,1.068994641E0,-9.657946587E0,-1.323518038E0
1.960065979E1,1.260455847E0,-9.627763748E0,-1.373971462E0
1.962092995E1,1.415554523E0,-9.599059105E0,-1.422905564E0
1.964120005E1,1.610006452E0,-9.561774254E0,-1.466537356E0
1.966147016E1,2.023569345E0,-9.457165718E0,-1.624065399E0
1.968174026E1,2.517350435E0,-9.303058624E0,-1.812852263E0
1.970201037E1,2.797530651E0,-9.193846703E0,-1.953815937E0
1.972228047E1,2.885515690E0,-9.150886536E0,-2.026196718E0
1.974268047E1,2.912256718E0,-9.141378403E0,-2.030850649E0
1.976282063E1,2.893991947E0,-9.155640602E0,-1.992347956E0
1.978309078E1,2.816403151E0,-9.191674232E0,-1.936846018E0
1.980336089E1,2.679145098E0,-9.244077682E0,-1.881384373E0
1.982363099E1,2.478790760E0,-9.311529160E0,-1.822478414E0
1.984390110E1,2.214075565E0,-9.391471863E0,-1.751716614E0
1.986417115E1,2.017357588E0,-9.427200317E0,-1.796817422E0
1.988444125E1,2.367577314E0,-9.338834763E0,-1.830605626E0
1.990471136E1,2.842956305E0,-9.218450546E0,-1.762999415E0
1.992498146E1,2.992813349E0,-9.165687561E0,-1.789867640E0
1.994525156E1,3.014247179E0,-9.168494225E0,-1.738798857E0
1.996552162E1,2.955194473E0,-9.239798546E0,-1.436432362E0
1.998579172E1,2.846733093E0,-9.335444450E0,-9.570607543E-1
2.000606182E1,2.864428282E0,-9.355607986E0,-6.618435979E-1
2.002633193E1,2.984126806E0,-9.287355423E0,-1.005190015E0
2.004660203E1,2.844109058E0,-9.228260040E0,-1.708991647E0
2.006687208E1,2.567656279E0,-9.258702278E0,-1.963152289E0
2.008714219E1,2.305190802E0,-9.354351044E0,-1.831011653E0
2.010741229E1,2.033471346E0,-9.470189095E0,-1.533263922E0
2.012768240E1,1.741457820E0,-9.576749802E0,-1.193137884E0
2.014795245E1,1.445967555E0,-9.655816078E0,-9.191246629E-1
2.016836042E1,1.139841914E0,-9.711712837E0,-7.441705465E-1
2.018864120E1,8.179102540E-1,-9.750298500E0,-6.580989361E-1
2.020875584E1,4.861177504E-1,-9.774812698E0,-6.221883297E-1
2.022902735E1,1.501191109E-1,-9.788838387E0,-5.713973045E-1
2.024929854E1,-1.738891006E-1,-9.800551414E0,-2.989084721E-1
2.026956948E1,-4.658358991E-1,-9.780496597E0,5.433738828E-1
2.028984026E1,-7.108479738E-1,-9.670301437E0,1.466410875E0
2.031011089E1,-9.194217324E-1,-9.533047676E0,2.108568430E0
2.033038146E1,-1.048388362E0,-9.470174789E0,2.321005344E0
2.035065188E1,-1.014795184E0,-9.485545158E0,2.272668600E0
2.037092229E1,-9.194837809E-1,-9.518886566E0,2.171573400E0
2.039119261E1,-8.388474584E-1,-9.530694962E0,2.152343988E0
2.041146281E1,-8.161898851E-1,-9.507325172E0,2.261634111E0
2.043173308E1,-8.645083308E-1,-9.454483032E0,2.456781149E0
2.045200328E1,-9.311422706E-1,-9.385720253E0,2.685444355E0
2.047227349E1,-9.912212491E-1,-9.314907074E0,2.901788950E0
2.049254365E1,-1.016952276E0,-9.256957054E0,3.073261976E0
2.051281380E1,-9.879323244E-1,-9.211920738E0,3.214790106E0
2.053308391E1,-1.007543921E0,-9.167322159E0,3.333984613E0
2.055335401E1,-1.130902410E0,-9.120550156E0,3.421547890E0
2.057362412E1,-1.224227548E0,-9.102748871E0,3.436803818E0
2.059389427E1,-1.171742201E0,-9.141194344E0,3.352013588E0
2.061416432E1,-1.000923753E0,-9.234059334E0,3.146537781E0
2.063443443E1,-7.545787692E-1,-9.365067482E0,2.810069084E0
2.065483443E1,-4.709492624E-1,-9.517477989E0,2.316512346E0
2.067497464E1,-1.895387918E-1,-9.664215088E0,1.654511571E0
2.069524474E1,8.754903078E-2,-9.767554283E0,8.704097271E-1
2.071551485E1,3.524580598E-1,-9.800027847E0,7.495345920E-2
2.073578490E1,6.322939992E-1,-9.767124176E0,-6.114596128E-1
2.075618490E1,9.324969649E-1,-9.705172539E0,-1.053782940E0
2.077632505E1,1.209122896E0,-9.656805992E0,-1.206027269E0
2.079659521E1,1.429999709E0,-9.619913101E0,-1.258079410E0
2.081686531E1,1.580296040E0,-9.583158493E0,-1.355038047E0
2.083713537E1,1.700160146E0,-9.535634041E0,-1.533471704E0
2.085753537E1,1.833971739E0,-9.476760864E0,-1.731451392E0
2.087767558E1,2.041404724E0,-9.400238037E0,-1.907509804E0
2.089794563E1,2.385774612E0,-9.287894249E0,-2.052675724E0
2.091821573E1,2.698951721E0,-9.186739922E0,-2.118929625E0
2.093848584E1,2.853424072E0,-9.140075684E0,-2.118345022E0
2.095875589E1,2.924707651E0,-9.127664566E0,-2.074176550E0
2.097902599E1,2.945240021E0,-9.137264252E0,-2.001583576E0
2.099929610E1,2.897099733E0,-9.169496536E0,-1.922894478E0
2.101956620E1,2.749586821E0,-9.223952293E0,-1.878526688E0
2.103983625E1,2.441883326E0,-9.280549049E0,-2.019657612E0
2.106024417E1,2.264561653E0,-9.214447021E0,-2.477116585E0
2.108052500E1,2.600622177E0,-9.090751648E0,-2.601036072E0
2.110063958E1,2.864114046E0,-9.021258354E0,-2.565961838E0
2.112091115E1,3.028897285E0,-8.988790512E0,-2.489542723E0
2.114118235E1,3.191017151E0,-9.003060341E0,-2.220970154E0
2.116145328E1,3.212970734E0,-9.107951164E0,-1.700718760E0
2.118172412E1,2.956164122E0,-9.256140709E0,-1.324894786E0
2.120199469E1,2.423510075E0,-9.316298485E0,-1.871787310E0
2.122226526E1,2.128671169E0,-9.275296211E0,-2.368129253E0
2.124253573E1,2.023551941E0,-9.275209427E0,-2.458884001E0
2.126280615E1,1.925843120E0,-9.334268570E0,-2.309314489E0
2.128307651E1,1.767615557E0,-9.420397758E0,-2.074130297E0
2.130334677E1,1.561088681E0,-9.501958847E0,-1.856383801E0
2.132361703E1,1.303942204E0,-9.570485115E0,-1.695852280E0
2.134388724E1,9.835317731E-1,-9.629106522E0,-1.575871468E0
2.136415745E1,6.306066513E-1,-9.679656029E0,-1.441178083E0
2.138442766E1,2.813692093E-1,-9.718310356E0,-1.282831550E0
2.140469781E1,-3.097899072E-2,-9.747162819E0,-1.078073978E0
2.142496792E1,-2.572929859E-1,-9.788058281E0,-5.459761620E-1
2.144523808E1,-3.884194791E-1,-9.795107841E0,2.745829821E-1
2.146550818E1,-5.053246617E-1,-9.736935616E0,1.052196026E0
2.148577834E1,-6.204207540E-1,-9.660612106E0,1.567817926E0
2.150604849E1,-6.458439827E-1,-9.622964859E0,1.775335431E0
2.152631865E1,-5.909864902E-1,-9.618454933E0,1.818367124E0
2.154658875E1,-5.355495811E-1,-9.618177414E0,1.836908460E0
2.156685886E1,-5.229164958E-1,-9.613142014E0,1.866669893E0
2.158712896E1,-5.827673674E-1,-9.602618217E0,1.902758360E0
2.160739917E1,-6.993594766E-1,-9.578331947E0,1.984146714E0
2.162766927E1,-8.355273008E-1,-9.529435158E0,2.159198761E0
2.164793943E1,-9.770502448E-1,-9.447515488E0,2.441355944E0
2.166820953E1,-1.094045162E0,-9.353890419E0,2.734623909E0
2.168847969E1,-1.154734373E0,-9.288776398E0,2.924997091E0
2.170874979E1,-1.166628599E0,-9.259519577E0,3.011754274E0
2.172901990E1,-1.136100888E0,-9.255582809E0,3.035433769E0
2.174929005E1,-1.100880742E0,-9.262585640E0,3.027036905E0
2.176956021E1,-1.127716422E0,-9.265899658E0,3.006947517E0
2.178983031E1,-1.197474241E0,-9.264827728E0,2.983187199E0
2.181010047E1,-1.180987000E0,-9.285733223E0,2.924177170E0
2.183037058E1,-1.041146278E0,-9.353688240E0,2.755889654E0
2.185064073E1,-7.960379124E-1,-9.475210190E0,2.399397612E0
2.187091089E1,-4.991417527E-1,-9.622111320E0,1.826532364E0
2.189118104E1,-2.154680192E-1,-9.744316101E0,1.082711458E0
2.191145115E1,4.627826810E-2,-9.802828789E0,2.698156536E-1
2.193172130E1,3.066218197E-1,-9.788031578E0,-5.203824639E-1
2.195199146E1,6.079801321E-1,-9.717132568E0,-1.173917055E0
2.197226162E1,9.248970151E-1,-9.625159264E0,-1.634399176E0
2.199266162E1,1.205905318E0,-9.561960220E0,-1.812484145E0
2.201280193E1,1.405784130E0,-9.540042877E0,-1.783739209E0
2.203307208E1,1.559520960E0,-9.532567024E0,-1.693654895E0
2.205334219E1,1.723075509E0,-9.515722275E0,-1.628625035E0
2.207361240E1,2.000558138E0,-9.455769539E0,-1.660294652E0
2.209388255E1,2.421872854E0,-9.336562157E0,-1.770174265E0
2.211415271E1,2.758908033E0,-9.225668907E0,-1.856299043E0
2.213442292E1,2.903368711E0,-9.174145699E0,-1.891005993E0
2.215482292E1,2.936050177E0,-9.164772034E0,-1.885995030E0
2.217496323E1,2.904537201E0,-9.179329872E0,-1.863856196E0
2.219523339E1,2.807018280E0,-9.212339401E0,-1.850365043E0
2.221550354E1,2.646481037E0,-9.257607460E0,-1.860975981E0
2.223577370E1,2.423410177E0,-9.311559677E0,-1.895342588E0
2.225617370E1,2.154610157E0,-9.362754822E0,-1.966436148E0
2.227631406E1,2.043526411E0,-9.333401680E0,-2.209525585E0
2.229658422E1,2.383239508E0,-9.195994377E0,-2.433978319E0
2.231685438E1,2.772575140E0,-9.084774017E0,-2.439280987E0
2.233712458E1,2.974275112E0,-9.074413300E0,-2.231386900E0
2.235752458E1,3.113725901E0,-9.115030289E0,-1.841554165E0
2.237766490E1,3.180508614E0,-9.182017326E0,-1.321095586E0
2.239793511E1,3.167666674E0,-9.246680260E0,-7.969835997E-1
2.241834302E1,3.138702154E0,-9.270213127E0,-6.181216836E-1
2.243863969E1,3.134095907E0,-9.219848633E0,-1.158540368E0
2.245889302E1,2.878693342E0,-9.201272964E0,-1.794458985E0
2.247900797E1,2.551293612E0,-9.258505821E0,-1.985286593E0
2.249927969E1,2.259139538E0,-9.361504555E0,-1.851731420E0
2.251955120E1,2.017094374E0,-9.474500656E0,-1.528250456E0
2.253982235E1,1.822985649E0,-9.566789627E0,-1.150499344E0
2.256009334E1,1.635661125E0,-9.631135941E0,-8.580383062E-1
2.258036417E1,1.380813599E0,-9.682786942E0,-7.123109698E-1
2.260063485E1,1.037275553E0,-9.727039337E0,-6.922047138E-1
2.262090547E1,6.449889541E-1,-9.760614395E0,-6.962504983E-1
2.264117604E1,2.298437357E-1,-9.783176422E0,-6.379845738E-1
2.266144651E1,-1.828894913E-1,-9.801330566E0,-2.661775351E-1
2.268171688E1,-5.019799471E-1,-9.773594856E0,6.286959648E-1
2.270198724E1,-6.903543472E-1,-9.641335487E0,1.654823780E0
2.272225761E1,-8.708067536E-1,-9.479908943E0,2.354445457E0
2.274252792E1,-1.018984079E0,-9.417869568E0,2.536890745E0
2.276279823E1,-9.854922295E-1,-9.445185661E0,2.446969986E0
2.278306849E1,-9.016160369E-1,-9.491463661E0,2.295557737E0
2.280333870E1,-8.631361723E-1,-9.508769989E0,2.238008976E0
2.282360896E1,-8.899180293E-1,-9.484561920E0,2.328412056E0
2.284387922E1,-9.650247693E-1,-9.428984642E0,2.516614914E0
2.286414948E1,-1.049943447E0,-9.354338646E0,2.750334263E0
2.288441969E1,-1.125280261E0,-9.279515266E0,2.965590477E0
2.290468995E1,-1.148061514E0,-9.216744423E0,3.147056580E0
2.292496021E1,-1.149303079E0,-9.153035164E0,3.327376604E0
2.294523042E1,-1.196567655E0,-9.090320587E0,3.479178667E0
2.296550063E1,-1.237868309E0,-9.068017006E0,3.522658348E0
2.298577084E1,-1.164829016E0,-9.109818459E0,3.438716888E0
2.300604110E1,-9.921209812E-1,-9.195878983E0,3.259125233E0
2.302631136E1,-8.141431808E-1,-9.301097870E0,2.999520063E0
2.304658156E1,-6.354170442E-1,-9.439296722E0,2.581916571E0
2.306685177E1,-3.947350085E-1,-9.608670235E0,1.920427084E0
2.308712203E1,-9.652426839E-2,-9.744000435E0,1.102507472E0
2.310739224E1,1.903112531E-1,-9.801038742E0,2.716529369E-1
2.312766245E1,4.720275104E-1,-9.784616470E0,-4.570287168E-1
2.314793271E1,7.825934291E-1,-9.727318764E0,-9.680911303E-1
2.316820292E1,1.067998767E0,-9.676201820E0,-1.183593392E0
2.318847313E1,1.290094495E0,-9.641180992E0,-1.246469140E0
2.320874339E1,1.447817683E0,-9.608057022E0,-1.326438665E0
2.322901360E1,1.570091248E0,-9.562401772E0,-1.505215883E0
2.324928380E1,1.709266543E0,-9.502163887E0,-1.719790459E0
2.326955406E1,1.929636121E0,-9.428528786E0,-1.884074807E0
2.328982427E1,2.273772478E0,-9.325667381E0,-2.008050442E0
2.331009453E1,2.614679098E0,-9.215908051E0,-2.097825766E0
2.333036474E1,2.813194275E0,-9.149051666E0,-2.133343697E0
2.335063500E1,2.916405916E0,-9.124886513E0,-2.097951412E0
2.337090521E1,2.965046883E0,-9.128513336E0,-2.012247562E0
2.339117542E1,2.949584246E0,-9.156752586E0,-1.903736472E0
2.341144568E1,2.859569788E0,-9.206813812E0,-1.796611190E0
2.343171589E1,2.638867617E0,-9.283953667E0,-1.736360312E0
2.345198615E1,2.282006741E0,-9.331457138E0,-1.971484661E0
2.347225636E1,2.318392754E0,-9.233480453E0,-2.353356123E0
2.349252662E1,2.714404583E0,-9.125140190E0,-2.352492332E0
2.351279683E1,2.923446178E0,-9.071842194E0,-2.307708979E0
2.353306313E1,3.067221642E0,-9.062478065E0,-2.152677774E0
2.355329886E1,3.108446360E0,-9.137008667E0,-1.738685012E0
2.357360818E1,3.011473656E0,-9.247262955E0,-1.260766506E0
2.359387844E1,2.884362936E0,-9.269237518E0,-1.389994621E0
2.361428625E1,2.731343269E0,-9.225824356E0,-1.895865560E0
2.363458297E1,2.569903374E0,-9.236659050E0,-2.061580658E0
2.365485198E1,2.359033585E0,-9.310128212E0,-1.981634974E0
2.367510552E1,2.091883421E0,-9.404142380E0,-1.832077265E0
2.369522068E1,1.773998857E0,-9.492244720E0,-1.708974838E0
2.371549261E1,1.398333549E0,-9.569404602E0,-1.625275612E0
2.373576276E1,9.966629148E-1,-9.637499809E0,-1.515141368E0
2.375617214E1,5.998084545E-1,-9.694656372E0,-1.350649595E0
2.377646995E1,2.216311097E-1,-9.734435081E0,-1.167066932E0
2.379672422E1,-1.104510576E-1,-9.763064384E0,-9.169347882E-1
2.381684000E1,-3.439403176E-1,-9.796216965E0,-2.936384380E-1
2.383711000E1,-5.172062516E-1,-9.773219109E0,6.221494079E-1
2.385751229E1,-6.849741340E-1,-9.673575401E0,1.457096100E0
2.387765448E1,-8.317748308E-1,-9.575037003E0,1.948640943E0
2.389792615E1,-8.414553404E-1,-9.547443390E0,2.075734615E0
2.391819745E1,-7.478199005E-1,-9.565082550E0,2.029866457E0
2.393846849E1,-6.659930348E-1,-9.587631226E0,1.950427294E0
2.395873948E1,-6.652202010E-1,-9.592071533E0,1.928740501E0
2.397901026E1,-7.369028926E-1,-9.571406364E0,2.003879309E0
2.399928094E1,-8.554292321E-1,-9.526651382E0,2.163684845E0
2.401955156E1,-9.926351309E-1,-9.459181786E0,2.389343500E0
2.403982214E1,-1.106453896E0,-9.374495506E0,2.658004522E0
2.406009261E1,-1.175265431E0,-9.293464661E0,2.901835680E0
2.408036302E1,-1.176668644E0,-9.229536057E0,3.098630428E0
2.410063339E1,-1.171948671E0,-9.183495522E0,3.234241486E0
2.412090380E1,-1.235159874E0,-9.155297279E0,3.290184975E0
2.414117417E1,-1.335431457E0,-9.152602196E0,3.258354902E0
2.416144448E1,-1.381451964E0,-9.191309929E0,3.127584219E0
2.418171474E1,-1.289646387E0,-9.271928787E0,2.922076702E0
2.420198505E1,-1.078377247E0,-9.384024620E0,2.635822773E0
2.422225526E1,-7.711067200E-1,-9.521506310E0,2.217363119E0
2.424265531E1,-4.235883951E-1,-9.660896301E0,1.630349755E0
2.426279589E1,-8.643901348E-2,-9.763509750E0,9.147579074E-1
2.428306615E1,2.163529694E-1,-9.803298950E0,1.375055760E-1
2.430333646E1,5.215755701E-1,-9.774661064E0,-5.952575803E-1
2.432360672E1,8.709110618E-1,-9.694065094E0,-1.198750854E0
2.434387698E1,1.200693130E0,-9.616227150E0,-1.502299070E0
2.436414729E1,1.465118766E0,-9.573691368E0,-1.538912535E0
2.438441750E1,1.632068992E0,-9.550714493E0,-1.513469458E0
2.440468776E1,1.757844925E0,-9.522644043E0,-1.549067736E0
2.442495802E1,1.924529076E0,-9.470338821E0,-1.667112708E0
2.444522828E1,2.199692011E0,-9.379323959E0,-1.833035946E0
2.446549854E1,2.545980692E0,-9.258243561E0,-1.993311286E0
2.448576880E1,2.773540735E0,-9.166231155E0,-2.111415148E0
2.450603901E1,2.841212034E0,-9.127423286E0,-2.188157082E0
2.452630927E1,2.838542461E0,-9.116744995E0,-2.235626221E0
2.454657953E1,2.772518873E0,-9.128518105E0,-2.270172834E0
2.456684979E1,2.636665583E0,-9.164738655E0,-2.286030769E0
2.458712000E1,2.445809603E0,-9.217668533E0,-2.285383463E0
2.460739026E1,2.206138134E0,-9.277027130E0,-2.289126635E0
2.462766052E1,1.982504606E0,-9.287755013E0,-2.444926262E0
2.464793078E1,2.238029957E0,-9.162683487E0,-2.684552431E0
2.466820099E1,2.730726957E0,-9.045376778E0,-2.625770807E0
2.468847125E1,2.936801434E0,-9.012432098E0,-2.514286757E0
2.470874151E1,3.027916431E0,-9.040471077E0,-2.296079874E0
2.472901177E1,3.119332314E0,-9.108795166E0,-1.862798810E0
2.474928198E1,3.226517439E0,-9.163746834E0,-1.336309791E0
2.476955224E1,3.353615522E0,-9.133586884E0,-1.225243568E0
2.478982250E1,3.200690269E0,-9.093559265E0,-1.798100114E0
2.481009276E1,2.781567812E0,-9.115224838E0,-2.312127590E0
2.483036297E1,2.401854515E0,-9.215031624E0,-2.341938734E0
2.485063323E1,2.084807396E0,-9.345845222E0,-2.116399288E0
2.487090344E1,1.818982124E0,-9.474404335E0,-1.759928226E0
2.489117370E1,1.557022095E0,-9.578010559E0,-1.416963935E0
2.491144396E1,1.255429983E0,-9.654927254E0,-1.173311591E0
2.493171417E1,8.858419061E-1,-9.709021568E0,-1.058578253E0
2.495198443E1,4.523385763E-1,-9.743097305E0,-1.018739700E0
2.497225464E1,-2.223653020E-3,-9.761178017E0,-9.432879686E-1
2.499252490E1,-4.484656155E-1,-9.781811714E0,-5.342593193E-1
2.501279511E1,-8.049030900E-1,-9.768279076E0,3.213176429E-1
2.503306537E1,-1.004333019E0,-9.682120323E0,1.190900564E0
2.505333558E1,-1.132800341E0,-9.584161758E0,1.740972042E0
2.507360584E1,-1.147994518E0,-9.553576469E0,1.892533779E0
2.509387604E1,-1.027397394E0,-9.571342468E0,1.871966481E0
2.511414625E1,-8.710645437E-1,-9.592683792E0,1.841751575E0
2.513441651E1,-7.468230128E-1,-9.605850220E0,1.827643633E0
2.515481651E1,-7.009160519E-1,-9.606667519E0,1.841481686E0
2.517495693E1,-7.241311073E-1,-9.591306686E0,1.911243796E0
2.519522719E1,-8.231365085E-1,-9.545697212E0,2.091048241E0
2.521549740E1,-9.907193780E-1,-9.457400322E0,2.397174120E0
2.523576761E1,-1.142761946E0,-9.347720146E0,2.735803604E0
2.525616761E1,-1.189528704E0,-9.253564835E0,3.021086216E0
2.527630808E1,-1.153932452E0,-9.172454834E0,3.271833897E0
2.529657828E1,-1.202249885E0,-9.105004311E0,3.438586712E0
2.531684849E1,-1.321398973E0,-9.105874062E0,3.392248392E0
2.533711870E1,-1.305535197E0,-9.191169739E0,3.160439968E0
2.535751870E1,-1.107947588E0,-9.315987587E0,2.855734110E0
2.537765912E1,-8.341290951E-1,-9.435096741E0,2.540389776E0
2.539792933E1,-5.426148772E-1,-9.547724724E0,2.171844006E0
2.541819953E1,-2.622787356E-1,-9.662770271E0,1.653021336E0
2.543846974E1,-1.141808555E-2,-9.760131836E0,9.539816380E-1
2.545886974E1,2.135812491E-1,-9.802389145E0,1.947705746E-1
2.547901016E1,4.524749219E-1,-9.782926559E0,-5.099148750E-1
2.549928037E1,7.501068711E-1,-9.719838142E0,-1.064179897E0
2.551955052E1,1.060844183E0,-9.657029152E0,-1.336704373E0
2.553982073E1,1.308991671E0,-9.606202126E0,-1.475739956E0
2.556009094E1,1.470405579E0,-9.565048218E0,-1.586867929E0
2.558036115E1,1.580149055E0,-9.528390884E0,-1.698022842E0
2.560063136E1,1.725771070E0,-9.485900879E0,-1.791586757E0
2.562090156E1,2.045761347E0,-9.396231651E0,-1.922520995E0
2.564117177E1,2.451055288E0,-9.272462845E0,-2.045517206E0
2.566144193E1,2.708961487E0,-9.182685852E0,-2.123722792E0
2.568171214E1,2.806830168E0,-9.143020630E0,-2.167317629E0
2.570198235E1,2.849925280E0,-9.127798080E0,-2.175229788E0
2.572225250E1,2.842240095E0,-9.133281708E0,-2.162226200E0
2.574252271E1,2.768337011E0,-9.163053513E0,-2.131932020E0
2.576279292E1,2.623491526E0,-9.213397026E0,-2.097852945E0
2.578306308E1,2.384840250E0,-9.280723572E0,-2.085927248E0
2.580333328E1,2.098205566E0,-9.323157310E0,-2.201514721E0
2.582360344E1,2.177334070E0,-9.240869522E0,-2.456812859E0
2.584387365E1,2.657517910E0,-9.128474236E0,-2.403942347E0
2.586414380E1,2.930236101E0,-9.077134132E0,-2.278099775E0
2.588441401E1,3.041267872E0,-9.084897041E0,-2.094211102E0
2.590468417E1,3.112684965E0,-9.133323669E0,-1.750418186E0
2.592495438E1,3.065443754E0,-9.236808777E0,-1.206151128E0
2.594522453E1,2.891919851E0,-9.342320442E0,-7.268008590E-1
2.596549474E1,2.703101635E0,-9.388455391E0,-8.488330245E-1
2.598576490E1,2.603529930E0,-9.321209908E0,-1.583369255E0
2.600603505E1,2.474013329E0,-9.270268440E0,-2.027747393E0
2.602630526E1,2.330164194E0,-9.314141273E0,-1.996873379E0
2.604657542E1,2.155296326E0,-9.413058281E0,-1.708634138E0
2.606684558E1,1.947118044E0,-9.516980171E0,-1.343951225E0
2.608711578E1,1.709128499E0,-9.598316193E0,-1.059062243E0
2.610738594E1,1.438409328E0,-9.656851768E0,-9.200919867E-1
2.612765610E1,1.102958322E0,-9.703557968E0,-8.915376067E-1
2.614792625E1,6.936898828E-1,-9.738683701E0,-9.204467535E-1
2.616819646E1,2.509528697E-1,-9.760555267E0,-9.159559608E-1
2.618846662E1,-1.278093308E-1,-9.778061867E0,-7.372637391E-1
2.620873677E1,-3.500067592E-1,-9.800284386E0,-4.813548550E-2
2.622900693E1,-4.910658896E-1,-9.750930786E0,9.211919904E-1
2.624927714E1,-6.148481965E-1,-9.625181198E0,1.774325252E0
2.626954729E1,-7.837265730E-1,-9.504033089E0,2.286814690E0
2.628981745E1,-8.976882696E-1,-9.455252647E0,2.441873312E0
2.631008761E1,-8.749836087E-1,-9.466677666E0,2.405578852E0
2.633035776E1,-7.961353064E-1,-9.486481667E0,2.354405403E0
2.635062792E1,-7.475201488E-1,-9.476710320E0,2.409057856E0
2.637089808E1,-7.365313768E-1,-9.435506821E0,2.568877459E0
2.639116823E1,-7.437452674E-1,-9.376404762E0,2.774934053E0
2.641143839E1,-7.727901340E-1,-9.308982849E0,2.985969067E0
2.643170854E1,-8.513734937E-1,-9.247267723E0,3.151761532E0
2.645197870E1,-9.337232709E-1,-9.200900078E0,3.262206316E0
2.647224886E1,-9.979481697E-1,-9.156126022E0,3.367468119E0
2.649264886E1,-1.057608128E0,-9.087209702E0,3.531920433E0
2.651278917E1,-1.126842976E0,-9.034715652E0,3.643423796E0
2.653305932E1,-1.202275395E0,-9.053755760E0,3.571334362E0
2.655332948E1,-1.173247337E0,-9.139872551E0,3.355084658E0
2.657359958E1,-1.020822883E0,-9.261826515E0,3.057266474E0
2.659386969E1,-7.702088356E-1,-9.410056114E0,2.651040316E0
2.661413985E1,-4.866457582E-1,-9.571160316E0,2.080013752E0
2.663441000E1,-2.151940316E-1,-9.713122368E0,1.333914042E0
2.665481797E1,6.212953106E-2,-9.793605804E0,5.018038750E-1
2.667509886E1,3.624306023E-1,-9.795419693E0,-2.979708910E-1
2.669521354E1,7.079520226E-1,-9.729685783E0,-1.001207829E0
2.671548511E1,1.056848288E0,-9.631055832E0,-1.515331626E0
2.673575511E1,1.344926715E0,-9.568855286E0,-1.672895312E0
2.675615630E1,1.547996521E0,-9.541425705E0,-1.653875232E0
2.677629750E1,1.690786719E0,-9.523671150E0,-1.615956664E0
2.679656823E1,1.847292900E0,-9.494893074E0,-1.613971591E0
2.681683891E1,2.135721207E0,-9.422456741E0,-1.681186438E0
2.683710906E1,2.540268898E0,-9.295014381E0,-1.822119236E0
2.685750959E1,2.858002186E0,-9.178319931E0,-1.939244270E0
2.687765016E1,2.997420788E0,-9.125609398E0,-1.977147698E0
2.689792063E1,3.035336018E0,-9.119112968E0,-1.949077964E0
2.691819099E1,3.011969566E0,-9.138257980E0,-1.894908071E0
2.693846125E1,2.921695709E0,-9.178108215E0,-1.842940569E0
2.695873156E1,2.754879236E0,-9.238502502E0,-1.797523499E0
2.697900177E1,2.489743948E0,-9.317614555E0,-1.775845170E0
2.699927203E1,2.126015186E0,-9.395636559E0,-1.836430550E0
2.701954224E1,1.973423719E0,-9.343610764E0,-2.230006933E0
2.703981240E1,2.450184107E0,-9.171265602E0,-2.460668087E0
2.706008255E1,2.851108551E0,-9.069567680E0,-2.405104876E0
2.708035271E1,2.980314255E0,-9.063599586E0,-2.266998053E0
2.710062287E1,3.042201996E0,-9.121694565E0,-1.926154256E0
2.712089297E1,3.099386454E0,-9.199051857E0,-1.393428326E0
2.714116308E1,3.232301712E0,-9.204322815E0,-1.001530051E0
2.716143323E1,3.339918137E0,-9.143543243E0,-1.187835217E0
2.718170334E1,3.049576759E0,-9.114895821E0,-1.946572185E0
2.720197339E1,2.604765177E0,-9.161571503E0,-2.334777832E0
2.722224354E1,2.231352806E0,-9.276016235E0,-2.268696785E0
2.724251370E1,1.932134748E0,-9.410882950E0,-1.967873693E0
2.726278380E1,1.668632507E0,-9.530783653E0,-1.596944213E0
2.728305391E1,1.390908241E0,-9.620845795E0,-1.294251919E0
2.730332401E1,1.079307318E0,-9.682332039E0,-1.121575594E0
2.732359412E1,7.280935049E-1,-9.723299980E0,-1.047707319E0
2.734386422E1,3.578171134E-1,-9.750720024E0,-9.827579260E-1
2.736413433E1,-6.713240873E-3,-9.770949364E0,-8.359906673E-1
2.738440443E1,-3.507905900E-1,-9.794152260E0,-3.491674960E-1
2.740481235E1,-6.322391629E-1,-9.770746231E0,5.505974293E-1
2.742509313E1,-8.395459652E-1,-9.668169975E0,1.411401272E0
2.744520776E1,-1.005654573E0,-9.565927505E0,1.911040545E0
2.746547932E1,-1.039307714E0,-9.540338516E0,2.017959595E0
2.748575047E1,-9.454678297E-1,-9.563908577E0,1.951440454E0
2.750602141E1,-8.455693722E-1,-9.586973190E0,1.882909894E0
2.752629219E1,-7.843606472E-1,-9.591596603E0,1.885857940E0
2.754656281E1,-7.772207260E-1,-9.579795837E0,1.947773457E0
2.756683334E1,-8.052844405E-1,-9.553204536E0,2.063537359E0
2.758710380E1,-8.741329312E-1,-9.501917839E0,2.262701035E0
2.760737417E1,-9.981158972E-1,-9.417150497E0,2.547830105E0
2.762764448E1,-1.109156847E0,-9.321546555E0,2.837065935E0
2.764791474E1,-1.118870616E0,-9.238949776E0,3.091975451E0
2.766818490E1,-1.087500215E0,-9.162673950E0,3.321618795E0
2.768845511E1,-1.145931244E0,-9.104029655E0,3.460326910E0
2.770872531E1,-1.216663003E0,-9.105140686E0,3.433151960E0
2.772899542E1,-1.124991655E0,-9.179306984E0,3.262680292E0
2.774926558E1,-9.100405574E-1,-9.295124054E0,2.990464687E0
2.776953568E1,-6.756645441E-1,-9.423834801E0,2.627772331E0
2.778980573E1,-4.195654988E-1,-9.558108330E0,2.153354406E0
2.781007584E1,-1.464082599E-1,-9.687681198E0,1.515839815E0
2.783034594E1,1.095023081E-1,-9.778479576E0,7.346662283E-1
2.785061599E1,3.317973614E-1,-9.800788879E0,-6.957656145E-2
2.787088604E1,5.637257695E-1,-9.758567810E0,-7.892769575E-1
2.789115610E1,8.284776211E-1,-9.686759949E0,-1.284795046E0
2.791142620E1,1.089005232E0,-9.629075050E0,-1.505117416E0
2.793169625E1,1.306736946E0,-9.587145805E0,-1.596703053E0
2.795196630E1,1.459086180E0,-9.552374840E0,-1.671409249E0
2.797223630E1,1.584226966E0,-9.517212868E0,-1.755925775E0
2.799250636E1,1.774118662E0,-9.462547302E0,-1.866299868E0
2.801277641E1,2.115669966E0,-9.359581947E0,-2.023007393E0
2.803304646E1,2.507832050E0,-9.231546402E0,-2.158639193E0
2.805331646E1,2.762440920E0,-9.137397766E0,-2.246608496E0
2.807358651E1,2.874375582E0,-9.094539642E0,-2.279846430E0
2.809385656E1,2.924490452E0,-9.081813812E0,-2.266804695E0
2.811412656E1,2.919608116E0,-9.091543198E0,-2.233860016E0
2.813439662E1,2.852586746E0,-9.120599747E0,-2.201770306E0
2.815479662E1,2.710679770E0,-9.162791252E0,-2.205871820E0
2.817493667E1,2.478227139E0,-9.201892853E0,-2.313860178E0
2.819520667E1,2.379033089E0,-9.149081230E0,-2.608618736E0
2.821547672E1,2.695983648E0,-9.057307243E0,-2.620545149E0
2.823574672E1,2.999716759E0,-8.993861198E0,-2.506499290E0
2.825614672E1,3.157461405E0,-8.975095749E0,-2.376655579E0
2.827628677E1,3.280075550E0,-9.002834320E0,-2.088176012E0
2.829655677E1,3.391204119E0,-9.063867569E0,-1.586328268E0
2.831682677E1,3.492903948E0,-9.042723656E0,-1.482955694E0
2.833709683E1,3.297664642E0,-8.970924377E0,-2.195063591E0
2.835749683E1,2.726548195E0,-8.969087601E0,-2.879546404E0
2.837763683E1,2.280926466E0,-9.092121124E0,-2.881162882E0
2.839790683E1,1.979173779E0,-9.254508972E0,-2.570470095E0
2.841817683E1,1.712463260E0,-9.413850784E0,-2.148783922E0
2.843844683E1,1.439543128E0,-9.543529510E0,-1.737573385E0
2.845884683E1,1.156040907E0,-9.639343262E0,-1.384567976E0
2.847898683E1,8.444730639E-1,-9.705661774E0,-1.121333122E0
2.849925683E1,5.008839369E-1,-9.750300407E0,-9.225720763E-1
2.851952683E1,1.772554815E-1,-9.778398514E0,-7.224153280E-1
2.853979683E1,-1.234845743E-1,-9.800189972E0,-3.337913454E-1
2.856006683E1,-4.869528413E-1,-9.791074753E0,2.609897554E-1
2.858033677E1,-7.669678926E-1,-9.741762161E0,8.247587681E-1
2.860060677E1,-8.915660977E-1,-9.685142517E0,1.254395485E0
2.862087677E1,-8.847011924E-1,-9.649404526E0,1.508862019E0
2.864114677E1,-8.129781485E-1,-9.633618355E0,1.644039035E0
2.866141672E1,-7.269738913E-1,-9.624403000E0,1.735735059E0
2.868168672E1,-6.756945848E-1,-9.613440514E0,1.815370917E0
2.870195667E1,-6.586863995E-1,-9.600422859E0,1.889016390E0
2.872222667E1,-6.880185604E-1,-9.584515572E0,1.958076715E0
2.874262667E1,-7.617931962E-1,-9.556581497E0,2.064416647E0
2.876276662E1,-8.623057604E-1,-9.499149323E0,2.278811693E0
2.878303656E1,-1.011103630E0,-9.394386292E0,2.625558376E0
2.880330651E1,-1.187956214E0,-9.283985138E0,2.926907063E0
2.882357651E1,-1.296708584E0,-9.216588020E0,3.089242458E0
2.884384646E1,-1.309288740E0,-9.196825027E0,3.142381191E0
2.886411641E1,-1.282784224E0,-9.198040009E0,3.149750471E0
2.888438641E1,-1.266496658E0,-9.211423874E0,3.117055893E0
2.890465636E1,-1.204521298E0,-9.244669914E0,3.042297602E0
2.892492630E1,-1.044155598E0,-9.303842545E0,2.918671370E0
2.894519625E1,-8.281416297E-1,-9.394087791E0,2.689922810E0
2.896546625E1,-5.633254051E-1,-9.516471863E0,2.299958706E0
2.898573620E1,-2.724517882E-1,-9.652418137E0,1.710844755E0
2.900600615E1,1.625214587E-3,-9.760843277E0,9.467456341E-1
2.902627610E1,2.388598174E-1,-9.803002357E0,1.203799322E-1
2.904654604E1,4.810650051E-1,-9.773779869E0,-6.420237422E-1
2.906681599E1,7.779005170E-1,-9.695116043E0,-1.252988577E0
2.908708594E1,1.099761963E0,-9.624295235E0,-1.527693748E0
2.910735589E1,1.373913884E0,-9.582546234E0,-1.567659378E0
2.912762578E1,1.563260913E0,-9.557103157E0,-1.545441151E0
2.914789568E1,1.708479524E0,-9.529417038E0,-1.562594056E0
2.916816563E1,1.902151823E0,-9.471633911E0,-1.685335517E0
2.918843558E1,2.207293987E0,-9.363446236E0,-1.903714657E0
2.920870552E1,2.541666269E0,-9.235145569E0,-2.102950573E0
2.922897547E1,2.761236906E0,-9.145147324E0,-2.216354847E0
2.924924537E1,2.844302177E0,-9.108781815E0,-2.260621309E0
2.926951531E1,2.863981485E0,-9.102330208E0,-2.261765242E0
2.928978526E1,2.823470354E0,-9.118825912E0,-2.246204138E0
2.931005516E1,2.716065168E0,-9.159317017E0,-2.213659048E0
2.933032511E1,2.528244257E0,-9.221692085E0,-2.176872253E0
2.935059505E1,2.223340750E0,-9.298643112E0,-2.182283640E0
2.937086495E1,1.976619482E0,-9.269768715E0,-2.516891241E0
2.939113490E1,2.287129879E0,-9.129318237E0,-2.755899191E0
2.941140479E1,2.680168390E0,-9.043000221E0,-2.685374022E0
2.943167474E1,2.828532696E0,-9.022492409E0,-2.600849390E0
2.945194459E1,2.942980528E0,-9.041780472E0,-2.399053335E0
2.947221459E1,3.030149698E0,-9.113021851E0,-1.985297441E0
2.949248448E1,2.965402126E0,-9.243020058E0,-1.394044638E0
2.951275443E1,2.713976145E0,-9.374331474E0,-9.626086354E-1
2.953302433E1,2.495106459E0,-9.391478539E0,-1.320965409E0
2.955329422E1,2.404926777E0,-9.330457687E0,-1.824628353E0
2.957356417E1,2.277061939E0,-9.323606491E0,-2.013883352E0
2.959383406E1,2.108116388E0,-9.378893852E0,-1.939740896E0
2.961410396E1,1.898666859E0,-9.467076302E0,-1.714622259E0
2.963437391E1,1.640889525E0,-9.555244446E0,-1.474843860E0
2.965477391E1,1.351825118E0,-9.625316620E0,-1.302398801E0
2.967491370E1,1.033795953E0,-9.677673340E0,-1.201789021E0
2.969518360E1,6.778033972E-1,-9.717455864E0,-1.132266283E0
2.971545349E1,2.918257713E-1,-9.747069359E0,-1.039161682E0
2.973572344E1,-7.068488747E-2,-9.770262718E0,-8.410374522E-1
2.975612344E1,-3.625872135E-1,-9.796759605E0,-2.498141080E-1
2.977626323E1,-5.862340927E-1,-9.769266129E0,6.230216622E-1
2.979653313E1,-7.386324406E-1,-9.669721603E0,1.456469655E0
2.981680302E1,-8.632878065E-1,-9.562456131E0,1.996132016E0
2.983707292E1,-8.921599388E-1,-9.521781921E0,2.170276642E0
2.985747292E1,-8.237624168E-1,-9.537500381E0,2.127883911E0
2.987761271E1,-7.601478696E-1,-9.561397552E0,2.042609453E0
2.989788261E1,-7.465882897E-1,-9.564641953E0,2.032391787E0
2.991815250E1,-7.875964046E-1,-9.540005684E0,2.130346537E0
2.993842240E1,-8.700070381E-1,-9.490633011E0,2.311137438E0
2.995869229E1,-9.849639535E-1,-9.422587395E0,2.532799006E0
2.997896219E1,-1.120557666E0,-9.355618477E0,2.717927217E0
2.999923209E1,-1.187268376E0,-9.313177109E0,2.832931280E0
3.001950198E1,-1.171618938E0,-9.286333084E0,2.926041365E0
3.003977188E1,-1.141280890E0,-9.252193451E0,3.043810606E0
3.006017188E1,-1.162174940E0,-9.216913223E0,3.141377926E0
3.008031167E1,-1.210299253E0,-9.206829071E0,3.152751446E0
3.010058151E1,-1.162140727E0,-9.235350609E0,3.086764812E0
3.012085141E1,-1.004413009E0,-9.295066833E0,2.960283279E0
3.014112130E1,-7.745127678E-1,-9.376870155E0,2.764926672E0
3.016139120E1,-5.418407917E-1,-9.489162445E0,2.415072680E0
3.018166110E1,-3.447265029E-1,-9.636685371E0,1.784892082E0
3.020193094E1,-1.285713464E-1,-9.759190559E0,9.550141692E-1
3.022220084E1,1.305145621E-1,-9.805364609E0,9.053316712E-2
3.024247073E1,4.209698737E-1,-9.773346901E0,-6.891016960E-1
3.026274063E1,7.516429424E-1,-9.687997818E0,-1.322160959E0
3.028301047E1,1.080187321E0,-9.597960472E0,-1.697861314E0
3.030328037E1,1.347288013E0,-9.556923866E0,-1.737936139E0
3.032355026E1,1.526871920E0,-9.554935455E0,-1.594446659E0
3.034382011E1,1.675868750E0,-9.554429054E0,-1.440400124E0
3.036409000E1,1.957925797E0,-9.499846458E0,-1.445627809E0
3.038435985E1,2.360768795E0,-9.380719185E0,-1.612223148E0
3.040462969E1,2.683943510E0,-9.256803513E0,-1.810641527E0
3.042489959E1,2.845843554E0,-9.180848122E0,-1.945145845E0
3.044516948E1,2.912639380E0,-9.148421288E0,-1.998329163E0
3.046543933E1,2.936627388E0,-9.139015198E0,-2.006247997E0
3.048570922E1,2.908418417E0,-9.147304535E0,-2.009557724E0
3.050597906E1,2.821250677E0,-9.173067093E0,-2.016375542E0
3.052624896E1,2.674191236E0,-9.214509964E0,-2.027780056E0
3.054651880E1,2.458748102E0,-9.266805649E0,-2.061857462E0
3.056678865E1,2.224029779E0,-9.279310226E0,-2.262404442E0
3.058705854E1,2.320028782E0,-9.162570000E0,-2.614414930E0
3.060732839E1,2.707193375E0,-9.044828415E0,-2.651900053E0
3.062759823E1,2.936439276E0,-8.996180534E0,-2.572245121E0
3.064786813E1,3.054259539E0,-9.004645348E0,-2.399633646E0
3.066813797E1,3.137564182E0,-9.066310883E0,-2.031769276E0
3.068840781E1,3.199781895E0,-9.158602715E0,-1.432397485E0
3.070867771E1,3.247401237E0,-9.198760033E0,-1.003788114E0
3.072894755E1,3.236827612E0,-9.159260750E0,-1.342109799E0
3.074921740E1,2.886479616E0,-9.126918793E0,-2.130250931E0
3.076948724E1,2.430472136E0,-9.178317070E0,-2.453912497E0
3.078975714E1,2.069063902E0,-9.289224625E0,-2.366362095E0
3.081002698E1,1.778516293E0,-9.413338661E0,-2.096739292E0
3.083029682E1,1.518542647E0,-9.528863907E0,-1.750762820E0
3.085056667E1,1.254230857E0,-9.618684769E0,-1.441591620E0
3.087083651E1,9.700403810E-1,-9.683646202E0,-1.206819654E0
3.089110641E1,6.280521750E-1,-9.731231689E0,-1.038778424E0
3.091137625E1,2.371710092E-1,-9.762009621E0,-9.040479660E-1
3.093164610E1,-1.515319347E-1,-9.777429581E0,-7.411482334E-1
3.095191594E1,-4.696146548E-1,-9.790270805E0,-3.169521391E-1
3.097218578E1,-6.979616284E-1,-9.769423485E0,4.915147126E-1
3.099258578E1,-8.676941991E-1,-9.681431770E0,1.298992872E0
3.101272547E1,-1.025212884E0,-9.584811211E0,1.802969098E0
3.103313339E1,-1.083137274E0,-9.546216965E0,1.966456771E0
3.105341375E1,-9.988542199E-1,-9.558615685E0,1.950778842E0
3.107352818E1,-8.778011799E-1,-9.580417633E0,1.901431441E0
3.109379943E1,-8.025419116E-1,-9.589544296E0,1.888636589E0
3.111407037E1,-7.909271717E-1,-9.584579468E0,1.918507814E0
3.113434011E1,-8.226400614E-1,-9.564703941E0,2.002523184E0
3.115474104E1,-8.851943016E-1,-9.521714211E0,2.173427820E0
3.117488146E1,-9.979054332E-1,-9.448979378E0,2.427209854E0
3.119515183E1,-1.103637815E0,-9.367676735E0,2.683099031E0
3.121542214E1,-1.103842854E0,-9.300528526E0,2.907247066E0
3.123569188E1,-1.050155520E0,-9.236078262E0,3.124488831E0
3.125609224E1,-1.095210910E0,-9.162113190E0,3.320631504E0
3.127623229E1,-1.207129002E0,-9.125153542E0,3.383014441E0
3.129650240E1,-1.197194576E0,-9.161462784E0,3.287051439E0
3.131677240E1,-1.031486273E0,-9.251816750E0,3.083880901E0
3.133704224E1,-8.104465008E-1,-9.357895851E0,2.818397045E0
3.135744240E1,-5.754132867E-1,-9.471640587E0,2.475339890E0
3.137758219E1,-3.276832998E-1,-9.599444389E0,1.978303552E0
3.139785214E1,-6.281311810E-2,-9.724606514E0,1.264303327E0
3.141812203E1,1.910141259E-1,-9.794805527E0,4.423691034E-1
3.143839183E1,4.170727730E-1,-9.791381836E0,-3.539391160E-1
3.145879188E1,6.569398642E-1,-9.732868195E0,-1.005036354E0
3.147893167E1,9.055689573E-1,-9.669976234E0,-1.357162595E0
3.149920156E1,1.132982254E0,-9.626873970E0,-1.486622572E0
3.151947136E1,1.307259083E0,-9.600621223E0,-1.513121605E0
3.153974120E1,1.434128165E0,-9.578946114E0,-1.535399795E0
3.156001110E1,1.571322918E0,-9.548783302E0,-1.588111877E0
3.158028094E1,1.838577390E0,-9.478043556E0,-1.719510436E0
3.160055078E1,2.224875927E0,-9.363294601E0,-1.883886218E0
3.162082063E1,2.537902832E0,-9.257493973E0,-2.007049561E0
3.164109047E1,2.676141262E0,-9.202915192E0,-2.077265024E0
3.166136031E1,2.730731249E0,-9.186303139E0,-2.079742908E0
3.168163016E1,2.746215105E0,-9.192510605E0,-2.031363726E0
3.170189995E1,2.725113392E0,-9.214101791E0,-1.960731864E0
3.172216979E1,2.660436392E0,-9.246227264E0,-1.897295833E0
3.174243964E1,2.538951159E0,-9.289260864E0,-1.853037119E0
3.176270948E1,2.344304085E0,-9.331645012E0,-1.896053791E0
3.178297927E1,2.325009823E0,-9.252542496E0,-2.270500422E0
3.180324912E1,2.707721233E0,-9.126121521E0,-2.356384039E0
3.182351896E1,2.977063417E0,-9.056433678E0,-2.299670219E0
3.184378875E1,3.034647226E0,-9.044250488E0,-2.272187710E0
3.186405860E1,3.040871859E0,-9.074447632E0,-2.139600992E0
3.188432844E1,3.063795805E0,-9.143992424E0,-1.780716181E0
3.190459823E1,3.212681293E0,-9.149148941E0,-1.463607192E0
3.192486808E1,3.347372293E0,-9.066643715E0,-1.661762834E0
3.194513792E1,3.159456015E0,-9.031403542E0,-2.149879456E0
3.196540771E1,2.850980520E0,-9.110793114E0,-2.244045019E0
3.198567755E1,2.546768427E0,-9.258537292E0,-1.990938067E0
3.200594729E1,2.201235294E0,-9.413342476E0,-1.647399783E0
3.202621719E1,1.830127478E0,-9.535956383E0,-1.373520017E0
3.204648703E1,1.474959493E0,-9.617592812E0,-1.223427653E0
3.206675682E1,1.132051110E0,-9.672811508E0,-1.151335239E0
3.208702667E1,7.513973713E-1,-9.716285706E0,-1.095248938E0
3.210729646E1,3.424609601E-1,-9.749926567E0,-9.960130453E-1
3.212756630E1,-5.411414430E-2,-9.773875237E0,-7.992663383E-1
3.214783615E1,-4.211988449E-1,-9.793916702E0,-2.686458230E-1
3.216810594E1,-7.296620607E-1,-9.763992310E0,5.499507189E-1
3.218837578E1,-9.227898717E-1,-9.676292419E0,1.299306750E0
3.220864558E1,-1.040049911E0,-9.591908455E0,1.756130099E0
3.222891542E1,-1.054162621E0,-9.560273170E0,1.913192987E0
3.224918521E1,-9.552909732E-1,-9.565556526E0,1.938536763E0
3.226945505E1,-8.193748593E-1,-9.577495575E0,1.941800952E0
3.228972485E1,-7.167932391E-1,-9.584937096E0,1.945659041E0
3.230999469E1,-6.758885384E-1,-9.582460403E0,1.972313046E0
3.233026448E1,-6.747273803E-1,-9.564819336E0,2.056539774E0
3.235053433E1,-6.958863139E-1,-9.521368027E0,2.242697239E0
3.237080412E1,-7.601284385E-1,-9.440111160E0,2.544975996E0
3.239107391E1,-8.385578394E-1,-9.337620735E0,2.876813412E0
3.241134370E1,-8.723680973E-1,-9.244498253E0,3.154142141E0
3.243161354E1,-8.793250918E-1,-9.163372993E0,3.380792856E0
3.245188334E1,-9.477185607E-1,-9.093756676E0,3.546238422E0
3.247215318E1,-1.091736078E0,-9.061687469E0,3.586686611E0
3.249242297E1,-1.186151147E0,-9.098699570E0,3.460797310E0
3.251269281E1,-1.124413013E0,-9.184021950E0,3.249589443E0
3.253296261E1,-9.443162084E-1,-9.281061172E0,3.023338079E0
3.255336261E1,-7.142120004E-1,-9.377405167E0,2.779309034E0
3.257350224E1,-4.852532744E-1,-9.480992317E0,2.458799839E0
3.259377203E1,-2.725385725E-1,-9.613392830E0,1.918018341E0
3.261404182E1,-3.425616771E-2,-9.737975121E0,1.158040285E0
3.263431167E1,2.233060300E-1,-9.798809052E0,3.222787976E-1
3.265471167E1,4.605625272E-1,-9.784579277E0,-4.693361819E-1
3.267485125E1,7.091133595E-1,-9.719187737E0,-1.097693563E0
3.269512104E1,9.676240683E-1,-9.651009560E0,-1.446414351E0
3.271539084E1,1.188909173E0,-9.611922264E0,-1.538778424E0
3.273566068E1,1.341412067E0,-9.596136093E0,-1.511679292E0
3.275606068E1,1.446255922E0,-9.589682579E0,-1.454894423E0
3.277620026E1,1.586796999E0,-9.567504883E0,-1.454414368E0
3.279647005E1,1.875964046E0,-9.497288704E0,-1.566090941E0
3.281673985E1,2.252966642E0,-9.389989853E0,-1.709564328E0
3.283700964E1,2.514170885E0,-9.305551529E0,-1.804452181E0
3.285740964E1,2.615784407E0,-9.268268585E0,-1.851285338E0
3.287754922E1,2.642311096E0,-9.261422157E0,-1.847870350E0
3.289781901E1,2.631956577E0,-9.272650719E0,-1.805865645E0
3.291808880E1,2.574635983E0,-9.300474167E0,-1.744369984E0
3.293835860E1,2.464393377E0,-9.342877388E0,-1.675644994E0
3.295862839E1,2.296311140E0,-9.397198677E0,-1.609343290E0
3.297889823E1,2.056390285E0,-9.446418762E0,-1.645235181E0
3.299916797E1,2.027520895E0,-9.384541512E0,-1.997479558E0
3.301943776E1,2.446301699E0,-9.256873131E0,-2.120445967E0
3.303970755E1,2.700401783E0,-9.176129341E0,-2.162605524E0
3.305997735E1,2.712818623E0,-9.149532318E0,-2.257667542E0
3.308024719E1,2.732954979E0,-9.163080215E0,-2.176992416E0
3.310051698E1,2.768794775E0,-9.233167648E0,-1.803544879E0
3.312078677E1,2.800514698E0,-9.293267250E0,-1.400964022E0
3.314105656E1,2.759767771E0,-9.310540199E0,-1.366716266E0
3.316132636E1,2.574324846E0,-9.313976288E0,-1.671249866E0
3.318159615E1,2.368147135E0,-9.341464043E0,-1.816408396E0
3.320186594E1,2.133487940E0,-9.397962570E0,-1.815739036E0
3.322213573E1,1.873902321E0,-9.464430809E0,-1.755974650E0
3.324252427E1,1.581540823E0,-9.532979012E0,-1.670753717E0
3.326267526E1,1.234485865E0,-9.603583336E0,-1.554870248E0
3.328294505E1,8.336256146E-1,-9.672195435E0,-1.387114763E0
3.330321485E1,4.199004173E-1,-9.727518082E0,-1.170240521E0
3.332348464E1,3.900890425E-2,-9.760902405E0,-9.453280568E-1
3.334375443E1,-2.315254062E-1,-9.783379555E0,-6.342574358E-1
3.336402422E1,-3.653648198E-1,-9.799758911E0,-4.016613588E-2
3.338429401E1,-4.463337064E-1,-9.774623871E0,6.541361213E-1
3.340456380E1,-5.527184010E-1,-9.708117485E0,1.271743178E0
3.342483360E1,-6.424767375E-1,-9.631726265E0,1.728427172E0
3.344510339E1,-6.525855064E-1,-9.580762863E0,1.988340020E0
3.346537318E1,-6.088511348E-1,-9.558908463E0,2.104032516E0
3.348564292E1,-5.653764009E-1,-9.548746109E0,2.161525011E0
3.350591271E1,-5.671733618E-1,-9.532565117E0,2.231342793E0
3.352618250E1,-6.262043715E-1,-9.493574142E0,2.377033472E0
3.354645229E1,-7.680840492E-1,-9.417419434E0,2.625383854E0
3.356672208E1,-9.780090451E-1,-9.311908722E0,2.915860176E0
3.358699188E1,-1.196134806E0,-9.220494270E0,3.118033409E0
3.360726167E1,-1.351535678E0,-9.175242424E0,3.187266827E0
3.362753141E1,-1.404048681E0,-9.162841797E0,3.200209379E0
3.364780120E1,-1.387154698E0,-9.157094955E0,3.223941088E0
3.366807099E1,-1.359742284E0,-9.157005310E0,3.235852480E0
3.368834078E1,-1.350547194E0,-9.178436279E0,3.178475857E0
3.370861058E1,-1.233673096E0,-9.240387917E0,3.043626785E0
3.372888037E1,-1.006833553E0,-9.339296341E0,2.816772938E0
3.374915016E1,-7.399349809E-1,-9.467571259E0,2.447034597E0
3.376941990E1,-4.964040518E-1,-9.616354942E0,1.857333183E0
3.378968969E1,-2.493241131E-1,-9.745069504E0,1.068565488E0
3.380995948E1,4.016629234E-2,-9.803905487E0,2.284828722E-1
3.383022927E1,3.641807139E-1,-9.784459114E0,-5.496509075E-1
3.385049906E1,7.354522943E-1,-9.704873085E0,-1.202042699E0
3.387076880E1,1.106259942E0,-9.598802567E0,-1.676179647E0
3.389103860E1,1.418227792E0,-9.516840935E0,-1.894401550E0
3.391130839E1,1.621229410E0,-9.481631279E0,-1.908052087E0
3.393157818E1,1.727439046E0,-9.478224754E0,-1.830191851E0
3.395184797E1,1.813162565E0,-9.482025146E0,-1.724537611E0
3.397211776E1,2.031043053E0,-9.443964005E0,-1.690207362E0
3.399238750E1,2.460059643E0,-9.331748962E0,-1.742688775E0
3.401265729E1,2.876086712E0,-9.198329926E0,-1.813625693E0
3.403292709E1,3.082213163E0,-9.117519379E0,-1.881800890E0
3.405319688E1,3.123440504E0,-9.098462105E0,-1.905911446E0
3.407346667E1,3.085253000E0,-9.114671707E0,-1.890600920E0
3.409373646E1,2.975293398E0,-9.152866364E0,-1.882301092E0
3.411400620E1,2.801882267E0,-9.199904442E0,-1.918753266E0
3.413427599E1,2.582423925E0,-9.245207787E0,-2.006891727E0
3.415467599E1,2.372701883E0,-9.250257492E0,-2.230117083E0
3.417481558E1,2.536088943E0,-9.140498161E0,-2.487955570E0
3.419508537E1,2.981430292E0,-9.020499229E0,-2.431473255E0
3.421535516E1,3.232715607E0,-8.990496635E0,-2.211544752E0
3.423562490E1,3.319223881E0,-9.019075394E0,-1.951770306E0
3.425602490E1,3.339151621E0,-9.079147339E0,-1.609207392E0
3.427616448E1,3.332611561E0,-9.153792381E0,-1.127904892E0
3.429643427E1,3.291126966E0,-9.208093643E0,-7.415386438E-1
3.431670406E1,3.287010908E0,-9.180407524E0,-1.042146325E0
3.433697380E1,3.045287371E0,-9.149477005E0,-1.784286618E0
3.435737380E1,2.694287777E0,-9.188611984E0,-2.116746664E0
3.437751339E1,2.421730042E0,-9.282873154E0,-2.033193827E0
3.439778318E1,2.233326912E0,-9.390680313E0,-1.731406212E0
3.441805297E1,2.086634398E0,-9.490760803E0,-1.319772005E0
3.443832276E1,1.909184098E0,-9.569384575E0,-9.758496881E-1
3.445872276E1,1.673694730E0,-9.630177498E0,-7.929866314E-1
3.447886229E1,1.355425715E0,-9.682389259E0,-7.645533085E-1
3.449913208E1,9.608265758E-1,-9.725768089E0,-8.103330135E-1
3.451940188E1,5.242834091E-1,-9.756221771E0,-8.435863853E-1
3.453967162E1,7.006509602E-2,-9.781809807E0,-6.940200329E-1
3.455994141E1,-3.407859802E-1,-9.800702095E0,2.224148810E-2
3.458021120E1,-6.154303551E-1,-9.732084274E0,1.038342714E0
3.460048099E1,-7.934780121E-1,-9.575132370E0,1.964083195E0
3.462075073E1,-9.788563848E-1,-9.447846413E0,2.439350843E0
3.464102052E1,-1.037637591E0,-9.429156303E0,2.486901999E0
3.466129031E1,-9.609977603E-1,-9.463508606E0,2.385137796E0
3.468156011E1,-8.786948323E-1,-9.492294312E0,2.301008701E0
3.470182985E1,-8.718836904E-1,-9.481393814E0,2.348055363E0
3.472209964E1,-9.105226398E-1,-9.431628227E0,2.527002096E0
3.474236943E1,-9.858030677E-1,-9.352635384E0,2.779709101E0
3.476263917E1,-1.099645019E0,-9.266357422E0,3.015922785E0
3.478290896E1,-1.199262261E0,-9.210575104E0,3.146023512E0
3.480317875E1,-1.227442265E0,-9.178607941E0,3.227525711E0
3.482344849E1,-1.246100783E0,-9.136606216E0,3.337670565E0
3.484371828E1,-1.299116373E0,-9.086440086E0,3.452433109E0
3.486398808E1,-1.294828415E0,-9.067704201E0,3.502934933E0
3.488425781E1,-1.166974783E0,-9.099997520E0,3.463899374E0
3.490452761E1,-9.764189124E-1,-9.181153297E0,3.305059195E0
3.492479735E1,-7.843239903E-1,-9.306554794E0,2.990527391E0
3.494506709E1,-5.706214905E-1,-9.473010063E0,2.471205711E0
3.496533688E1,-3.247339427E-1,-9.640007973E0,1.770647407E0
3.498560667E1,-6.546413153E-2,-9.756761551E0,9.857477546E-1
3.500587641E1,2.006396651E-1,-9.801989555E0,2.261330932E-1
3.502614615E1,4.968965054E-1,-9.783937454E0,-4.450467229E-1
3.504641594E1,8.180092573E-1,-9.728192329E0,-9.292557240E-1
3.506668568E1,1.103667617E0,-9.673546791E0,-1.172524214E0
3.508695547E1,1.328774214E0,-9.630389214E0,-1.288542509E0
3.510722516E1,1.497553229E0,-9.590694427E0,-1.395093799E0
3.512749495E1,1.636074305E0,-9.547716141E0,-1.527996182E0
3.514776474E1,1.783859134E0,-9.504048347E0,-1.631344438E0
3.516803448E1,2.025426865E0,-9.440485001E0,-1.716181755E0
3.518830422E1,2.388885498E0,-9.333259583E0,-1.831364632E0
3.520857396E1,2.701564312E0,-9.227846146E0,-1.928415418E0
3.522884375E1,2.860027313E0,-9.169255257E0,-1.978734851E0
3.524911349E1,2.939117193E0,-9.145863533E0,-1.971082568E0
3.526938323E1,2.977170944E0,-9.141828537E0,-1.932304025E0
3.528965297E1,2.957864046E0,-9.155569077E0,-1.896570921E0
3.530992271E1,2.868596792E0,-9.183633804E0,-1.898005366E0
3.533019245E1,2.693702459E0,-9.220351219E0,-1.974714756E0
3.535046224E1,2.472195148E0,-9.228168488E0,-2.213493824E0
3.537073198E1,2.609478474E0,-9.146213531E0,-2.389098883E0
3.539100172E1,2.992675066E0,-9.077407837E0,-2.194302082E0
3.541127146E1,3.178229332E0,-9.064365387E0,-1.976494908E0
3.543154120E1,3.253075361E0,-9.079798698E0,-1.773458600E0
3.545181094E1,3.287939548E0,-9.129409790E0,-1.419055343E0
3.547208464E1,3.275266647E0,-9.202919960E0,-8.656079173E-1
3.549238891E1,3.160835028E0,-9.270830154E0,-4.808634222E-1
3.551261953E1,3.021535397E0,-9.295207024E0,-7.999017835E-1
3.553288938E1,2.870601892E0,-9.276005745E0,-1.373227358E0
3.555315922E1,2.683110476E0,-9.301970482E0,-1.563537836E0
3.557342901E1,2.495741367E0,-9.375003815E0,-1.432116270E0
3.559369886E1,2.283087015E0,-9.467081070E0,-1.154249191E0
3.561396865E1,2.020981312E0,-9.559256554E0,-8.406261802E-1
3.563423839E1,1.738633633E0,-9.633481026E0,-5.861654282E-1
3.565463839E1,1.450753927E0,-9.690203667E0,-4.070137143E-1
3.567477787E1,1.145565510E0,-9.734318733E0,-3.179932833E-1
3.569504761E1,8.117222786E-1,-9.768604279E0,-2.930255830E-1
3.571531735E1,4.806525111E-1,-9.792218208E0,-2.276732177E-1
3.573558708E1,1.807103157E-1,-9.804984093E0,-5.072046537E-3
3.575598708E1,-1.270329356E-1,-9.783478737E0,6.616647243E-1
3.577612651E1,-3.469667137E-1,-9.682774544E0,1.514557242E0
3.579639630E1,-4.254063964E-1,-9.533047676E0,2.260623217E0
3.581666604E1,-5.125637054E-1,-9.392975807E0,2.771221399E0
3.583693573E1,-6.385024190E-1,-9.319452286E0,2.985048771E0
3.585733573E1,-7.077190280E-1,-9.322999001E0,2.958242893E0
3.587747516E1,-7.153374553E-1,-9.347599983E0,2.877680779E0
3.589774490E1,-7.290101647E-1,-9.341743469E0,2.893224955E0
3.591801464E1,-7.628522515E-1,-9.307091713E0,2.994411707E0
3.593828433E1,-7.702015638E-1,-9.269406319E0,3.107296467E0
3.595855406E1,-7.333750129E-1,-9.238097191E0,3.207818270E0
3.597882375E1,-7.327448130E-1,-9.196833611E0,3.324413061E0
3.599909349E1,-7.913753986E-1,-9.135457039E0,3.476714849E0
3.601936318E1,-8.745088577E-1,-9.071350098E0,3.621632814E0
3.603963297E1,-9.786576033E-1,-8.991289139E0,3.790691137E0
3.606003297E1,-1.034066916E0,-8.953090668E0,3.865651131E0
3.608017229E1,-1.003635526E0,-9.024105072E0,3.705215693E0
3.610044203E1,-8.533051610E-1,-9.185639381E0,3.326602936E0
3.612071172E1,-5.919167995E-1,-9.386243820E0,2.778212070E0
3.614098141E1,-2.996173501E-1,-9.572941780E0,2.106991291E0
3.616125110E1,-1.910855761E-3,-9.711980820E0,1.359347463E0
3.618152084E1,3.045492768E-1,-9.784214020E0,5.888813734E-1
3.620179052E1,6.310407519E-1,-9.785113335E0,-1.540656537E-1
3.622206021E1,9.865193963E-1,-9.720829964E0,-8.382307291E-1
3.624232990E1,1.317789316E0,-9.637010574E0,-1.249737501E0
3.626259959E1,1.582941532E0,-9.577932358E0,-1.388487220E0
3.628286932E1,1.766995549E0,-9.532046318E0,-1.479262471E0
3.630313901E1,1.912267685E0,-9.479784012E0,-1.627055287E0
3.632340865E1,2.056244135E0,-9.416070938E0,-1.811037898E0
3.634367834E1,2.240359068E0,-9.346325874E0,-1.948683143E0
3.636394802E1,2.530500174E0,-9.252086639E0,-2.041045189E0
3.638421771E1,2.878842115E0,-9.131555557E0,-2.120695353E0
3.640448740E1,3.102212906E0,-9.046804428E0,-2.168406725E0
3.642475708E1,3.172612190E0,-9.016463280E0,-2.192787170E0
3.644502677E1,3.166079521E0,-9.022303581E0,-2.178153753E0
3.646529646E1,3.098718882E0,-9.059252739E0,-2.120909691E0
3.648556610E1,2.967480659E0,-9.121438980E0,-2.040535688E0
3.650583578E1,2.749910355E0,-9.207022667E0,-1.959365726E0
3.652610547E1,2.437359095E0,-9.305135727E0,-1.908959746E0
3.654637505E1,2.296268225E0,-9.290982246E0,-2.138969898E0
3.656664479E1,2.770397902E0,-9.145613670E0,-2.202960253E0
3.658691448E1,3.178984165E0,-9.058047295E0,-2.004057169E0
3.660718412E1,3.277204275E0,-9.069978714E0,-1.779267430E0
3.662745380E1,3.270325422E0,-9.124503136E0,-1.489564896E0
3.664772344E1,3.198969364E0,-9.206549644E0,-1.084629655E0
3.666799313E1,3.030946732E0,-9.297659874E0,-7.329903841E-1
3.668826281E1,2.767919779E0,-9.388029099E0,-6.114781499E-1
3.670853245E1,2.616723537E0,-9.411374092E0,-8.655451536E-1
3.672880214E1,2.567903519E0,-9.388199806E0,-1.199150085E0
3.674907177E1,2.516786098E0,-9.388287544E0,-1.302390456E0
3.676934141E1,2.443670988E0,-9.421790123E0,-1.195296168E0
3.678961110E1,2.287416220E0,-9.487839699E0,-9.586514831E-1
3.680988073E1,2.068528175E0,-9.559060097E0,-7.183004022E-1
3.683028073E1,1.816776037E0,-9.621028900E0,-5.527430773E-1
3.685042005E1,1.529678106E0,-9.676629066E0,-4.396830499E-1
3.687068969E1,1.217989326E0,-9.724725723E0,-3.414625525E-1
3.689095938E1,8.896023631E-1,-9.762698174E0,-2.621640563E-1
3.691122901E1,5.464074016E-1,-9.789772034E0,-1.793972999E-1
3.693149865E1,2.097765356E-1,-9.804340363E0,3.600702062E-2
3.695176834E1,-1.350760311E-1,-9.780241013E0,7.064228058E-1
3.697203797E1,-3.913794756E-1,-9.668840408E0,1.590823531E0
3.699230761E1,-5.086759925E-1,-9.497815132E0,2.388123989E0
3.701257724E1,-6.577500105E-1,-9.335631371E0,2.929799557E0
3.703284693E1,-8.285386562E-1,-9.267950058E0,3.096611977E0
3.705311656E1,-9.178075194E-1,-9.286629677E0,3.014387369E0
3.707338620E1,-9.304679036E-1,-9.313908577E0,2.925017118E0
3.709365584E1,-9.590638876E-1,-9.300058365E0,2.959645987E0
3.711392552E1,-9.843080640E-1,-9.262440681E0,3.067360878E0
3.713419516E1,-9.363661408E-1,-9.232819557E0,3.169959784E0
3.715459516E1,-8.524970412E-1,-9.216984749E0,3.238954782E0
3.717473443E1,-8.411914110E-1,-9.187590599E0,3.324301004E0
3.719500412E1,-9.171362519E-1,-9.137317657E0,3.440737724E0
3.721527375E1,-9.937533140E-1,-9.080639839E0,3.567186356E0
3.723554339E1,-9.805071950E-1,-9.038891792E0,3.675244808E0
3.725594339E1,-8.601886630E-1,-9.064016342E0,3.643359661E0
3.727608271E1,-6.895776987E-1,-9.175280571E0,3.392506123E0
3.729635235E1,-4.831366539E-1,-9.347029686E0,2.927454233E0
3.731662198E1,-2.703731358E-1,-9.534900665E0,2.276611328E0
3.733689167E1,-2.375164255E-2,-9.691209793E0,1.500094652E0
3.735729167E1,2.730059028E-1,-9.778434753E0,6.914271116E-1
3.737743094E1,5.966976285E-1,-9.788254738E0,-6.631672382E-2
3.739770058E1,9.467586875E-1,-9.734369278E0,-7.183946371E-1
3.741797026E1,1.268658161E0,-9.659300804E0,-1.121969104E0
3.743823990E1,1.525094271E0,-9.598583221E0,-1.308310747E0
3.745863990E1,1.716772079E0,-9.547897339E0,-1.435529590E0
3.747877922E1,1.867863536E0,-9.496002197E0,-1.583479881E0
3.749904880E1,2.001253843E0,-9.441460609E0,-1.739021778E0
3.751931849E1,2.167977095E0,-9.376032829E0,-1.886866093E0
3.753958813E1,2.443425894E0,-9.271841049E0,-2.057434082E0
3.755985781E1,2.819468737E0,-9.120934486E0,-2.242661476E0
3.758012745E1,3.145554304E0,-8.979018211E0,-2.377626896E0
3.760039709E1,3.323224068E0,-8.898146629E0,-2.439173698E0
3.762066677E1,3.385011673E0,-8.873124123E0,-2.445353031E0
3.764093641E1,3.384021282E0,-8.882365227E0,-2.412960768E0
3.766120604E1,3.315994740E0,-8.917514801E0,-2.377494812E0
3.768147573E1,3.101368666E0,-8.984127045E0,-2.416064978E0
3.770174537E1,2.709135294E0,-9.042555809E0,-2.657660723E0
3.772201500E1,2.788306952E0,-8.966059685E0,-2.829399109E0
3.774228469E1,3.276451826E0,-8.848020554E0,-2.673532248E0
3.776255432E1,3.544508696E0,-8.788567543E0,-2.523476124E0
3.778282396E1,3.673559904E0,-8.788905144E0,-2.330342770E0
3.780309360E1,3.674221992E0,-8.889750481E0,-1.908616900E0
3.782336328E1,3.576441050E0,-9.009428024E0,-1.486491084E0
3.784363292E1,3.445093632E0,-9.026188850E0,-1.682152629E0
3.786390255E1,3.184638739E0,-9.009994507E0,-2.201921701E0
3.788417224E1,2.896559477E0,-9.054781914E0,-2.406504631E0
3.790444188E1,2.687668085E0,-9.160042763E0,-2.245090961E0
3.792471151E1,2.485820293E0,-9.297546387E0,-1.883274317E0
3.794498120E1,2.251549006E0,-9.429367065E0,-1.479176998E0
3.796525084E1,1.970617056E0,-9.535125732E0,-1.169799566E0
3.798552047E1,1.642199993E0,-9.616630554E0,-9.969873428E-1
3.800579016E1,1.254891872E0,-9.681275368E0,-9.319634438E-1
3.802605979E1,8.086232543E-1,-9.730266571E0,-9.156547785E-1
3.804632943E1,3.415656984E-1,-9.763400078E0,-8.542491198E-1
3.806659906E1,-1.024275795E-1,-9.792067528E0,-5.246943235E-1
3.808686875E1,-5.134618878E-1,-9.789455414E0,2.707647681E-1
3.810713839E1,-7.937594056E-1,-9.708897591E0,1.130324960E0
3.812740802E1,-9.602827430E-1,-9.593884468E0,1.790427089E0
3.814767766E1,-1.043477535E0,-9.516588211E0,2.125105381E0
3.816794735E1,-1.003748298E0,-9.503519058E0,2.201363087E0
3.818821698E1,-8.866602778E-1,-9.520161629E0,2.179619312E0
3.820848662E1,-7.506264448E-1,-9.536086082E0,2.161018848E0
3.822875625E1,-6.431255937E-1,-9.534692764E0,2.201453924E0
3.824902589E1,-6.489983797E-1,-9.496954918E0,2.357335567E0
3.826929552E1,-7.467039227E-1,-9.427046776E0,2.596849203E0
3.828956516E1,-8.791045547E-1,-9.329121590E0,2.892239332E0
3.830983485E1,-1.009465933E0,-9.235905647E0,3.138376474E0
3.833010448E1,-1.104980588E0,-9.182710648E0,3.259943485E0
3.835037412E1,-1.181127191E0,-9.152159691E0,3.318629265E0
3.837064375E1,-1.275952935E0,-9.132947922E0,3.336405039E0
3.839091339E1,-1.307474494E0,-9.154805183E0,3.263501644E0
3.841118302E1,-1.172217846E0,-9.230927467E0,3.096171141E0
3.843145266E1,-8.921236992E-1,-9.340736389E0,2.850462675E0
3.845172229E1,-6.098462343E-1,-9.457774162E0,2.519715548E0
3.847199193E1,-4.122704864E-1,-9.576019287E0,2.073710442E0
3.849226156E1,-2.547670901E-1,-9.702288628E0,1.403946280E0
3.851253120E1,-1.137974020E-2,-9.786355972E0,6.304707527E-1
3.853280084E1,3.098202646E-1,-9.800866127E0,-1.319477260E-1
3.855307047E1,6.752458215E-1,-9.749120712E0,-8.179652095E-1
3.857334011E1,1.047187924E0,-9.657299995E0,-1.345486760E0
3.859360974E1,1.370478511E0,-9.574071884E0,-1.621519327E0
3.861387938E1,1.613679886E0,-9.518930435E0,-1.719409227E0
3.863414901E1,1.769896626E0,-9.483063698E0,-1.763340950E0
3.865454901E1,1.857744694E0,-9.454290390E0,-1.826355100E0
3.867468823E1,1.975799799E0,-9.415385246E0,-1.901873112E0
3.869495787E1,2.239509106E0,-9.333929062E0,-2.008168459E0
3.871522750E1,2.626462698E0,-9.201951981E0,-2.143864870E0
3.873549714E1,2.948619604E0,-9.079855919E0,-2.243264914E0
3.875589708E1,3.105714321E0,-9.014473915E0,-2.294380188E0
3.877603630E1,3.132762432E0,-9.005465508E0,-2.292986155E0
3.879630594E1,3.096434593E0,-9.033281326E0,-2.232110500E0
3.881657558E1,3.008852959E0,-9.087252617E0,-2.130500078E0
3.883684521E1,2.836062193E0,-9.169607162E0,-2.011328936E0
3.885724521E1,2.514625072E0,-9.278989792E0,-1.935818195E0
3.887738443E1,2.128965139E0,-9.327427864E0,-2.153364897E0
3.889765406E1,2.241070747E0,-9.235220909E0,-2.420473099E0
3.891792370E1,2.690580130E0,-9.129239082E0,-2.363928080E0
3.893819328E1,2.924310207E0,-9.071768761E0,-2.306908846E0
3.895846292E1,3.103210211E0,-9.048836708E0,-2.158481598E0
3.897873255E1,3.431685448E0,-8.967399597E0,-1.994910479E0
3.899900214E1,3.646530867E0,-8.842348099E0,-2.164735794E0
3.901927177E1,3.239937544E0,-8.823016167E0,-2.797780514E0
3.903954136E1,2.785993814E0,-8.929318428E0,-2.945487976E0
3.905981099E1,2.478766680E0,-9.081898689E0,-2.746858597E0
3.908008058E1,2.251055479E0,-9.233755112E0,-2.416793585E0
3.910035021E1,2.020119429E0,-9.362282753E0,-2.106459618E0
3.912061979E1,1.722686291E0,-9.471974373E0,-1.866664648E0
3.914088943E1,1.321409345E0,-9.566554070E0,-1.704497099E0
3.916115901E1,8.166300058E-1,-9.637189865E0,-1.621131897E0
3.918142865E1,2.418384552E-1,-9.681873322E0,-1.540527225E0
3.920169823E1,-3.362281322E-1,-9.717642784E0,-1.274659395E0
3.922196781E1,-8.434658051E-1,-9.761017799E0,-4.260082841E-1
3.924223745E1,-1.185031176E0,-9.720705986E0,5.234058499E-1
3.926250703E1,-1.428716660E0,-9.630475998E0,1.176045895E0
3.928277662E1,-1.549685478E0,-9.577396393E0,1.429104567E0
3.930304625E1,-1.467917562E0,-9.578722954E0,1.504549384E0
3.932331584E1,-1.265259624E0,-9.593475342E0,1.592086315E0
3.934358542E1,-1.058615685E0,-9.601383209E0,1.692088127E0
3.936385505E1,-9.177296758E-1,-9.598855972E0,1.786087632E0
3.938412464E1,-8.990251422E-1,-9.577851295E0,1.904446006E0
3.940439422E1,-1.004189968E0,-9.524900436E0,2.106719732E0
3.942466380E1,-1.211707234E0,-9.422224998E0,2.433890820E0
3.944493344E1,-1.394061446E0,-9.274268150E0,2.866170645E0
3.946520302E1,-1.542262554E0,-9.164020538E0,3.132498264E0
3.948547261E1,-1.630543232E0,-9.139270782E0,3.159975529E0
3.950574219E1,-1.718597889E0,-9.154762268E0,3.067105293E0
3.952601177E1,-1.841708660E0,-9.163671494E0,2.967427969E0
3.954628141E1,-1.833441496E0,-9.191485405E0,2.885389090E0
3.956655099E1,-1.585786819E0,-9.255568504E0,2.826683283E0
3.958682058E1,-1.223175406E0,-9.347575188E0,2.701307535E0
3.960709016E1,-9.171600342E-1,-9.466155052E0,2.391883135E0
3.962735974E1,-6.630917788E-1,-9.605488777E0,1.861527681E0
3.964762933E1,-4.154973030E-1,-9.724035263E0,1.200370669E0
3.966789891E1,-1.718828529E-1,-9.792188644E0,5.038797259E-1
3.968816854E1,7.120884210E-2,-9.805239677E0,-1.503473967E-1
3.970843813E1,3.767694831E-1,-9.776352882E0,-6.718271971E-1
3.972870771E1,7.194459438E-1,-9.718680382E0,-1.095455766E0
3.974897729E1,1.059021115E0,-9.638123512E0,-1.468140721E0
3.976924688E1,1.358214736E0,-9.548070908E0,-1.777633548E0
3.978951651E1,1.584077835E0,-9.466485977E0,-2.011644840E0
3.980978610E1,1.735305190E0,-9.413474083E0,-2.132038832E0
3.983005568E1,1.858328104E0,-9.389166832E0,-2.135542393E0
3.985032526E1,2.073039770E0,-9.338175774E0,-2.161330938E0
3.987059485E1,2.434816360E0,-9.221260071E0,-2.282633066E0
3.989086448E1,2.759184122E0,-9.105886459E0,-2.374892712E0
3.991113406E1,2.928206921E0,-9.053696632E0,-2.372037172E0
3.993140360E1,2.951744795E0,-9.070641518E0,-2.276191235E0
3.995167323E1,2.893757105E0,-9.127872467E0,-2.116246223E0
3.997194281E1,2.749283791E0,-9.214630127E0,-1.924169779E0
3.999221240E1,2.480176449E0,-9.329735756E0,-1.724858999E0
4.001248203E1,2.082691193E0,-9.449378014E0,-1.594377875E0
4.003275162E1,1.862797499E0,-9.433346748E0,-1.926740885E0
4.005302125E1,2.380650997E0,-9.266238213E0,-2.154001236E0
4.007329084E1,2.864620447E0,-9.112821579E0,-2.218293190E0
4.009356042E1,3.055464506E0,-9.053647041E0,-2.205901623E0
4.011383005E1,3.187120438E0,-9.061764717E0,-1.974097848E0
4.013409964E1,3.177595377E0,-9.152097702E0,-1.520653605E0
4.015449964E1,2.905748367E0,-9.305723190E0,-1.063267112E0
4.017463886E1,2.445485115E0,-9.438717842E0,-1.049091935E0
4.019490849E1,2.168736458E0,-9.448226929E0,-1.482559562E0
4.021517808E1,2.034096479E0,-9.414694786E0,-1.842916489E0
4.023544771E1,1.946935415E0,-9.414232254E0,-1.937024474E0
4.025584771E1,1.828947425E0,-9.457004547E0,-1.841305971E0
4.027598693E1,1.663600326E0,-9.512535095E0,-1.707190752E0
4.029625656E1,1.464037180E0,-9.563722610E0,-1.600690007E0
4.031652620E1,1.200367570E0,-9.617367744E0,-1.495240092E0
4.033679578E1,8.881037831E-1,-9.672822952E0,-1.348388910E0
4.035720375E1,5.623683333E-1,-9.718972206E0,-1.181393623E0
4.037749938E1,2.675946951E-1,-9.753432274E0,-9.845451713E-1
4.039776781E1,5.406523496E-2,-9.787160873E0,-6.156029105E-1
4.041802084E1,-8.507664502E-2,-9.804101944E0,2.067055553E-1
4.043813313E1,-2.167984247E-1,-9.734360695E0,1.168590546E0
4.045853547E1,-3.975775540E-1,-9.595115662E0,1.986472368E0
4.047867641E1,-5.677964091E-1,-9.478431702E0,2.450982332E0
4.049894745E1,-6.213808060E-1,-9.449645042E0,2.547251701E0
4.051921818E1,-6.102107167E-1,-9.473476410E0,2.459931612E0
4.053948865E1,-6.388147473E-1,-9.486772537E0,2.400717735E0
4.055975906E1,-7.666521668E-1,-9.452222824E0,2.497618914E0
4.058002927E1,-9.538030028E-1,-9.384063721E0,2.683280468E0
4.060029932E1,-1.154107213E0,-9.312270164E0,2.849569321E0
4.062056938E1,-1.302987218E0,-9.264686584E0,2.939079523E0
4.064083932E1,-1.373449683E0,-9.236779213E0,2.994317055E0
4.066110922E1,-1.432111263E0,-9.194867134E0,3.094166756E0
4.068137906E1,-1.469718695E0,-9.142723083E0,3.228146553E0
4.070164891E1,-1.501803637E0,-9.113184929E0,3.296184063E0
4.072191865E1,-1.482751846E0,-9.128340721E0,3.262702942E0
4.074218844E1,-1.351299405E0,-9.182847023E0,3.165390730E0
4.076245823E1,-1.143873572E0,-9.277335167E0,2.965298414E0
4.078272797E1,-8.798748255E-1,-9.419683456E0,2.581813812E0
4.080299771E1,-5.949316621E-1,-9.582151413E0,1.999703050E0
4.082326745E1,-3.133089244E-1,-9.717995644E0,1.277798891E0
4.084353714E1,-3.872502968E-2,-9.792271614E0,5.294237137E-1
4.086380688E1,2.689367533E-1,-9.801654816E0,-1.600389928E-1
4.088407656E1,6.629022956E-1,-9.753818512E0,-7.706978917E-1
4.090434630E1,1.062203288E0,-9.674969673E0,-1.198779106E0
4.092461599E1,1.390415907E0,-9.593019485E0,-1.486975431E0
4.094488563E1,1.622508287E0,-9.520275116E0,-1.703588486E0
4.096515542E1,1.789951324E0,-9.456953049E0,-1.879494786E0
4.098542516E1,1.922900558E0,-9.410140038E0,-1.980433702E0
4.100569490E1,2.078190327E0,-9.372879028E0,-2.000163555E0
4.102610281E1,2.373926878E0,-9.289545059E0,-2.058938265E0
4.104640261E1,2.760612488E0,-9.158530235E0,-2.161187649E0
4.106670584E1,2.984933853E0,-9.067633629E0,-2.244678020E0
4.108693932E1,3.010473967E0,-9.050218582E0,-2.280565262E0
4.110724703E1,2.943992376E0,-9.079373360E0,-2.251283169E0
4.112751172E1,2.816287756E0,-9.137346268E0,-2.178948879E0
4.114774193E1,2.620333672E0,-9.212720871E0,-2.104759932E0
4.116801156E1,2.340475082E0,-9.299020767E0,-2.054451942E0
4.118828120E1,1.959797621E0,-9.372373581E0,-2.118535757E0
4.120855089E1,1.839317203E0,-9.289588928E0,-2.547711611E0
4.122882068E1,2.305544376E0,-9.145994186E0,-2.684330225E0
4.124909037E1,2.629261971E0,-9.096642494E0,-2.551171064E0
4.126936005E1,2.718820095E0,-9.120762825E0,-2.364337921E0
4.128962979E1,2.760414839E0,-9.176877022E0,-2.082167864E0
4.130989953E1,2.762428999E0,-9.264416695E0,-1.646190047E0
4.133016927E1,2.739032269E0,-9.334386826E0,-1.239882231E0
4.135043901E1,2.797801495E0,-9.321847916E0,-1.202427745E0
4.137070880E1,2.760364532E0,-9.267748833E0,-1.630834222E0
4.139097860E1,2.591365099E0,-9.253365517E0,-1.957153082E0
4.141124834E1,2.375507355E0,-9.303366661E0,-1.993669271E0
4.143151808E1,2.152010202E0,-9.389900208E0,-1.835488439E0
4.145178776E1,1.932276368E0,-9.478136063E0,-1.612961292E0
4.147205766E1,1.667581677E0,-9.557070732E0,-1.432463646E0
4.149232745E1,1.344962478E0,-9.622885704E0,-1.327225089E0
4.151259729E1,9.660013318E-1,-9.675953865E0,-1.270100474E0
4.153286708E1,5.487070680E-1,-9.715794563E0,-1.213526726E0
