"Time (s)","Acceleration x (m/s^2)","Acceleration y (m/s^2)","Acceleration z (m/s^2)"
2.698324600E-2,-2.858226538E0,2.750549555E0,8.264211655E0
4.727913100E-2,-2.916252613E0,2.750549555E0,8.889336586E0
6.737600600E-2,-2.461018085E0,2.329412937E0,9.557532310E0
8.765111000E-2,-2.496910334E0,2.116451740E0,9.409176826E0
1.079256410E-1,-2.901895761E0,2.262413740E0,8.743373871E0
1.281997040E-1,-3.071786165E0,2.128415823E0,7.912466049E0
1.484734540E-1,-3.098107100E0,2.434697151E0,8.123034477E0
1.687468390E-1,-3.119642496E0,2.468196630E0,8.693124771E0
1.890200160E-1,-2.819941521E0,1.692323804E0,9.159725189E0
2.092930370E-1,-2.834298372E0,1.063011408E0,8.609375954E0
2.295657980E-1,-2.760120869E0,5.216353536E-1,7.874181271E0
2.498386100E-1,-2.233700037E0,5.599204898E-1,7.857431412E0
2.701112660E-1,-1.333400369E0,4.737788737E-1,8.370093346E0
2.903838190E-1,-1.800000787E0,1.435693651E-1,8.170890808E0
3.106560060E-1,-1.584646821E0,-6.610172391E-1,8.082356453E0
3.310562660E-1,-1.936989903E0,1.218544960E0,7.871788502E0
3.512009540E-1,-1.953739643E0,1.189831018E0,6.813562393E0
3.714734540E-1,-1.946561217E0,5.335994363E-1,6.669992924E0
3.917457460E-1,-2.271985054E0,-1.974078640E-2,7.146164894E0
4.120180890E-1,-2.425125837E0,-1.104287624E0,7.740182877E0
4.322904330E-1,-2.877967358E0,-1.616351724E0,7.725826263E0
4.525627250E-1,-4.718646049E0,-2.119442701E0,8.391629219E0
4.728350160E-1,-4.352544308E0,-2.006381750E0,9.356534958E0
4.931073080E-1,-3.009572744E0,-2.456830740E0,9.583852768E0
5.133796000E-1,-2.882753134E0,-2.251047850E0,9.449854851E0
5.336518390E-1,-3.284747362E0,-2.119442701E0,1.013180923E1
5.539241830E-1,-2.300698996E0,-1.982453585E0,9.684351921E0
5.741964230E-1,-1.972882271E0,-2.203191519E0,8.767302513E0
5.944686620E-1,-2.590230465E0,-2.763111830E0,8.379665375E0
6.147408500E-1,-3.502494097E0,-2.346760750E0,8.511270523E0
6.350130890E-1,-4.130012035E0,-1.625923038E0,9.008976936E0
6.552852770E-1,-3.612564087E0,-1.499103427E0,9.734601021E0
6.755575690E-1,-2.092523336E0,-2.818146944E0,1.099621677E1
6.958298080E-1,-4.594219327E-1,-4.235894203E0,1.258385468E1
7.161019960E-1,-2.919243574E-1,-4.041477680E0,1.278963661E1
7.363742350E-1,-1.036690354E0,-3.009572744E0,1.152323532E1
7.566464750E-1,-1.920240164E0,-2.507079840E0,1.027537823E1
7.769186100E-1,-2.193022013E0,-2.767897606E0,1.006002426E1
7.971909020E-1,-1.206580877E0,-3.074178934E0,9.851848602E0
8.174631410E-1,-4.378865361E-1,-3.390629768E0,9.734601021E0
8.377353290E-1,-1.412363529E0,-3.572484255E0,1.022752190E1
8.580075160E-1,-2.516052961E0,-3.601198196E0,1.097707367E1
8.782797560E-1,-1.984846354E0,-3.921836376E0,1.171226883E1
8.985519440E-1,-9.649057388E-1,-4.115654945E0,1.134796143E1
9.188241830E-1,-9.672985673E-1,-4.166502476E0,1.102493000E1
9.390963710E-1,-1.192223907E0,-3.677768469E0,1.147537899E1
9.593686100E-1,-1.409970760E0,-3.326023579E0,1.119242764E1
9.796407980E-1,-1.319043517E0,-3.306880951E0,1.040279675E1
9.999129850E-1,-1.220937729E0,-3.230310678E0,9.686744690E0
1.020185173E0,-1.383649707E0,-3.151347399E0,9.567103386E0
1.040585173E0,-1.328614831E0,-2.899502754E0,9.150154114E0
1.060729548E0,-1.354935765E0,-2.966501951E0,8.851051331E0
1.081001787E0,-1.450648785E0,-2.820539713E0,8.769695282E0
1.101273975E0,-1.472184181E0,-2.667398930E0,8.762516975E0
1.121546214E0,-1.771286964E0,-2.760719061E0,8.592626572E0
1.141818402E0,-9.314061999E-1,-2.904288530E0,7.222734928E0
1.162090589E0,-8.787640929E-1,-2.722434044E0,6.066403389E0
1.182362777E0,-3.708276987E0,-3.278167009E0,9.820742607E0
1.202634964E0,-4.992026329E0,-3.924229145E0,1.051286602E1
1.223034964E0,-4.206582069E0,-4.195216179E0,1.068993473E1
1.243179339E0,-3.308675528E0,-3.270988464E0,9.921240807E0
1.263451527E0,-3.045464993E0,-2.365903378E0,1.030648518E1
1.283723714E0,-2.834298372E0,-1.676172256E0,1.017488003E1
1.303995902E0,-3.981656790E0,-1.238285661E0,1.024427223E1
1.324268037E0,-5.642873764E0,1.196411327E-1,1.090528965E1
1.344540225E0,-6.610172749E0,-1.585244983E-1,9.265008926E0
1.364812360E0,-4.972883701E0,-4.791627228E-1,8.848658562E0
1.385084600E0,-4.158725739E0,-1.499103427E0,8.769695282E0
1.405356735E0,-3.334996462E0,-1.628315806E0,7.465008259E0
1.425756735E0,-1.366899967E0,-5.772684813E-1,9.233902931E0
1.446059027E0,-1.261615753E0,4.785645381E-2,8.341380119E0
1.466331266E0,-1.903490424E0,-9.936196208E-1,8.350951195E0
1.486446110E0,-2.154736757E0,-7.423732281E-1,7.309474945E0
1.506718141E0,-2.228914261E0,-1.326820135E0,6.686742783E0
1.527118141E0,-5.814558864E-1,-1.539781332E0,6.789634228E0
1.547405381E0,4.307080805E-2,-1.448854089E0,6.997809887E0
1.567529027E0,-7.178467698E-3,-1.156929731E0,6.878168583E0
1.587802152E0,-5.359922647E-1,-1.628315806E0,6.595815659E0
1.608075173E0,-1.505683661E0,-1.800599098E0,6.320641041E0
1.628347933E0,-1.811964989E0,-1.417747378E0,6.287141323E0
1.648620641E0,-1.551147223E0,-7.782655358E-1,6.787241459E0
1.668893194E0,-2.087737799E0,-4.815555513E-1,8.463413239E0
1.689165641E0,-3.912265062E0,8.398807645E-1,8.652446747E0
1.709438141E0,-5.482554913E0,2.341377020E0,7.867002487E0
1.729710433E0,-5.886941910E0,2.053640127E0,7.888537884E0
1.749982777E0,-6.143572330E0,6.556333899E-1,7.993822098E0
1.770255016E0,-7.173084259E0,-1.537388563E-1,8.228319168E0
1.790527308E0,-8.599804878E0,2.081755698E-1,8.130212784E0
1.810799496E0,-9.516854286E0,8.638089895E-1,7.910073280E0
1.831071735E0,-1.022572803E1,9.643075466E-1,7.637291908E0
1.851343923E0,-9.552745819E0,7.130611539E-1,7.534400463E0
1.871616110E0,-8.353343964E0,4.043870270E-1,8.194819450E0
1.891888298E0,-7.821538925E0,2.081755698E-1,8.767302513E0
1.912160433E0,-8.697910309E0,2.321037948E-1,8.963513374E0
1.932432621E0,-9.047262192E0,2.105683982E-1,8.324629784E0
1.952704756E0,-8.048856735E0,4.067798331E-2,7.991429329E0
1.972976891E0,-6.897311211E0,2.344966233E-1,7.823931694E0
1.993249079E0,-6.878168583E0,1.627119333E-1,7.725826263E0
2.013521214E0,-7.007380962E0,6.915257573E-1,7.689933777E0
2.033793350E0,-7.201797962E0,3.469592929E-1,7.761718273E0
2.054065485E0,-6.619743824E0,-2.829512656E-1,7.709076405E0
2.074337621E0,-6.148357868E0,-5.868397355E-1,7.241877556E0
2.094609756E0,-5.571089268E0,-1.537388563E-1,5.922834396E0
2.114881891E0,-4.594219685E0,-3.571287692E-1,6.643671989E0
2.135154027E0,-4.632504463E0,-4.001995921E-1,7.591827869E0
2.155426162E0,-5.597410202E0,-1.974078640E-2,7.972286701E0
2.175698246E0,-6.110072613E0,1.148554832E-1,7.476972580E0
2.195970381E0,-7.907680511E0,-4.887340367E-1,6.770491600E0
2.216242516E0,-7.941180229E0,-4.169493318E-1,6.923632145E0
2.236514600E0,-7.225726128E0,-3.092723191E-1,8.391629219E0
2.256786735E0,-6.701099873E0,-4.073780477E-1,9.327222824E0
2.277058871E0,-5.975476265E0,-6.490531564E-1,9.478569031E0
2.297330954E0,-5.463412285E0,-1.012762189E0,9.183652878E0
2.317603089E0,-5.322235584E0,-1.393819213E0,8.774480820E0
2.337875225E0,-5.973083496E0,-1.314856052E0,8.338987350E0
2.358147308E0,-6.564708710E0,-1.688136339E0,7.838288784E0
2.378419444E0,-6.569494724E0,-1.838884234E0,7.508079052E0
2.398691527E0,-5.927619934E0,-1.463211060E0,7.532007694E0
2.418963662E0,-5.422734261E0,-1.245464206E0,7.721040249E0
2.439235746E0,-5.315057278E0,-1.427318692E0,7.945965767E0
2.459507829E0,-5.609374523E0,-1.439282775E0,8.403593063E0
2.479779964E0,-5.834300041E0,-1.360319614E0,8.185248375E0
2.500052048E0,-6.124429703E0,-1.243071318E0,7.630113125E0
2.520324183E0,-5.750551224E0,-1.202393413E0,7.400402069E0
2.540724183E0,-5.580660820E0,-1.264606714E0,7.548757076E0
2.560868350E0,-5.338985443E0,-9.481559992E-1,7.955537319E0
2.581140485E0,-5.796014786E0,-9.864411354E-1,8.261817932E0
2.601412516E0,-6.397211552E0,-8.309076428E-1,7.713861942E0
2.621684652E0,-6.045466423E0,-7.567301393E-1,7.735397339E0
2.641956787E0,-5.810371399E0,-8.955138922E-1,7.941180229E0
2.662228871E0,-5.188237667E0,-1.534995675E0,7.981858253E0
2.682628871E0,-5.228915691E0,-1.518245935E0,8.233104706E0
2.702773089E0,-5.738586903E0,-1.058824062E0,7.819146156E0
2.723045173E0,-5.690730572E0,1.244267747E-1,7.417151928E0
2.743317204E0,-4.539184570E0,-2.129014015E0,7.658827305E0
2.763589391E0,-6.038288116E0,-3.617947817E0,5.331807137E0
2.783861475E0,-6.229713917E0,-2.782254457E0,5.168497086E0
2.804133558E0,-6.189035892E0,-7.519445419E-1,7.426723480E0
2.824405694E0,-6.655636311E0,3.025724173E0,1.052004433E1
2.844677777E0,-4.783252239E0,2.238485575E0,1.356072426E1
2.864949860E0,-5.489733219E0,-1.190429211E0,1.146820068E1
2.885221944E0,-7.314260483E0,5.264209956E-2,7.265805721E0
2.905494079E0,-6.576673031E0,4.426721931E-1,6.655636311E0
2.925894079E0,-6.631708145E0,8.422735929E-1,8.635697365E0
2.946196162E0,-5.047060966E0,-1.963310957E0,9.030512810E0
2.966232308E0,-5.226522923E0,-2.700898647E0,6.370890141E0
2.986582829E0,-6.758527756E0,-9.409775138E-1,4.857429981E0
3.006854808E0,-4.989633560E0,6.675975323E-1,5.793622017E0
3.027254808E0,-4.733003139E0,2.967100143E-1,6.966702938E0
3.047549079E0,-5.949155331E0,1.770688742E-1,8.134998322E0
3.067668089E0,-8.925228119E0,2.102094650E0,7.378866673E0
3.087940746E0,-7.680362701E0,2.429911375E0,8.044071198E0
3.108213246E0,-5.865406513E0,2.504088879E0,7.890930653E0
3.128485694E0,-4.587040901E0,1.924427629E0,7.179664135E0
3.148758089E0,-4.493721008E0,6.125625968E-1,7.314260483E0
3.169030381E0,-7.704290867E0,2.458625317E0,6.214758396E0
3.189302621E0,-7.855038643E0,3.129213810E0,5.891727448E0
3.209574860E0,-6.583851337E0,3.153141975E0,5.800800323E0
3.229847152E0,-7.622934818E0,3.423531055E0,5.032105923E0
3.250119287E0,-8.238488197E0,4.448257446E0,4.859822750E0
3.270391423E0,-7.134799004E0,3.339782238E0,5.889334679E0
3.290663610E0,-6.966702938E0,2.537588358E0,5.702694416E0
3.310935694E0,-6.222535133E0,3.490530014E0,7.563114166E0
3.331207881E0,-4.230510235E0,5.146961689E0,9.476176262E0
3.351480016E0,-7.158727169E0,2.355733871E0,8.750552177E0
3.371752152E0,-6.679564476E0,3.023331404E0,8.108677864E0
3.392024287E0,-5.504090309E0,2.413161755E0,7.596613884E0
3.412296371E0,-5.353342533E0,3.224926710E0,5.740979671E0
3.432568506E0,-6.162714481E0,6.239284992E0,5.334199905E0
3.452840589E0,-4.888536453E0,4.867001057E0,7.213163853E0
3.473112673E0,-4.297509670E0,3.552743435E0,6.643671989E0
3.493384808E0,-5.123631477E0,4.460221291E0,5.456233978E0
3.513656944E0,-5.511268616E0,3.859024763E0,6.538387775E0
3.533929027E0,-7.098906517E0,5.355735302E0,7.445865631E0
3.554201162E0,-7.972286701E0,3.813561201E0,6.598208427E0
3.574473246E0,-8.121239662E0,2.012962103E0,6.107081413E0
3.594745329E0,-8.250452042E0,2.027318954E0,6.202794552E0
3.615017412E0,-5.918048382E0,1.072582722E0,7.914859295E0
3.635289496E0,-5.214558601E0,1.165902853E0,8.549555779E0
3.655561631E0,-5.539982796E0,9.332008362E-1,6.966702938E0
3.675833714E0,-7.804789066E0,2.475374937E0,5.676373482E0
3.696105798E0,-7.515257835E0,2.805584431E0,5.717051506E0
3.716377881E0,-5.740979671E0,2.963510752E0,8.254639626E0
3.736649964E0,-6.172286034E0,3.533600807E0,6.183651924E0
3.756922100E0,-7.486543655E0,3.404388428E0,5.355735302E0
3.777194183E0,-1.001934624E1,7.040880680E0,3.784847260E0
3.797466266E0,-2.554338217E0,4.948357105E0,9.346963882E0
3.817738350E0,-5.420341492E0,7.651648521E0,8.297710419E0
3.838010433E0,-3.792025566E0,5.999404430E0,8.336593628E0
3.858282516E0,-3.043072224E0,5.027320385E0,7.888537884E0
3.878554652E0,-4.130012035E0,5.099104881E0,6.988238335E0
3.898826735E0,-5.807978630E0,5.544768333E0,6.674778938E0
3.919226735E0,-5.843871117E0,3.208176851E0,5.874977589E0
3.939370902E0,-4.780859470E0,1.390828133E0,5.894120216E0
3.959642985E0,-4.828716278E0,-7.806583643E-1,5.712265968E0
3.979915069E0,-5.260022163E0,-5.389832854E-1,7.534400463E0
4.000187152E0,-6.086144447E0,9.834501147E-1,7.888537884E0
4.020459235E0,-5.279164791E0,1.149153113E0,8.724231720E0
4.040859235E0,-4.970490932E0,2.114058733E0,8.707481384E0
4.061003454E0,-6.007181168E0,2.989831924E0,7.833503246E0
4.081275537E0,-6.586244106E0,3.729812384E0,6.684350014E0
4.101547621E0,-6.966702938E0,6.873383045E0,7.004988194E0
4.121819704E0,-6.016752720E0,6.954739094E0,8.315058708E0
4.142091787E0,-3.849453449E0,3.875774384E0,8.669196129E0
4.162363871E0,-3.413959742E0,1.809572101E0,7.227520943E0
4.182635954E0,-3.648456335E0,1.749751568E0,6.887740135E0
4.202908037E0,-4.000799656E0,2.578266382E0,8.757730484E0
4.223180121E0,-3.905086517E0,4.057629108E0,1.074018478E1
4.243452204E0,-3.890131474E0,4.124628067E0,1.061575794E1
4.263724287E0,-4.130012035E0,3.179463148E0,9.066405296E0
4.283996371E0,-3.784847260E0,1.788036704E0,7.960322857E0
4.304268454E0,-3.287140131E0,8.183453679E-1,8.310273170E0
4.324540537E0,-3.483351469E0,1.115653515E0,8.618947029E0
4.344812621E0,-4.577469826E0,1.512862086E0,8.180462837E0
4.365084704E0,-4.924428940E0,3.650849104E0,8.671588898E0
4.385356787E0,-4.261617184E0,3.478565931E0,8.848658562E0
4.405668194E0,-4.098905087E0,2.046461582E0,8.228319168E0
4.426059079E0,-3.868596077E0,1.417149186E0,8.389236450E0
4.446330902E0,-4.189832687E0,2.595016241E0,8.829515457E0
4.466445694E0,-4.689932346E0,4.012165546E0,9.157332420E0
4.486717621E0,-4.388436794E0,3.466601849E0,9.159725189E0
4.506989600E0,-4.058227062E0,2.169093609E0,8.666803360E0
4.527389600E0,-4.323830605E0,1.496112347E0,8.079963684E0
4.547682360E0,-4.823930264E0,1.697109461E0,7.996214867E0
4.567802360E0,-4.766502857E0,2.171486616E0,8.310273170E0
4.588075069E0,-4.881358147E0,1.969891191E0,8.343772888E0
4.608347673E0,-4.975276470E0,1.529611826E0,7.658827305E0
4.628620173E0,-4.670789719E0,1.098903775E0,7.646862984E0
4.648892516E0,-4.390829563E0,3.107080221E0,8.518448830E0
4.669164860E0,-4.216153622E0,2.575873613E0,9.897313118E0
4.689437152E0,-4.704289436E0,1.374078393E0,8.590232849E0
4.709709391E0,-4.847858906E0,1.524826288E0,8.688339233E0
4.729981631E0,-4.189832687E0,1.936391711E0,8.879764557E0
4.750253766E0,-3.775275946E0,1.759322882E0,8.602197647E0
4.770525902E0,-4.328616142E0,2.427518606E0,9.025727272E0
4.790798037E0,-4.144368649E0,1.558325768E0,8.484949112E0
4.811070121E0,-4.371686935E0,7.872386575E-1,7.529614449E0
4.831470173E0,-4.453042984E0,1.584646821E0,8.201997757E0
4.851614391E0,-4.699503899E0,1.962712765E0,8.717052460E0
4.871886475E0,-4.852644444E0,1.752144337E0,8.877371788E0
4.892158610E0,-4.505684853E0,1.974676847E0,8.752944946E0
4.912430694E0,-4.539184570E0,1.910070658E0,8.568697929E0
4.932702777E0,-4.165904045E0,1.500898004E0,8.484949112E0
4.952974860E0,-4.347758770E0,1.998605132E0,8.750552177E0
4.973246944E0,-4.335794449E0,2.185843468E0,8.982656479E0
4.993519027E0,-4.115654945E0,1.931606054E0,8.561519623E0
5.013791058E0,-4.809573650E0,1.761715651E0,7.816753387E0
5.034063089E0,-5.149952412E0,1.240080357E0,7.307082176E0
5.054335277E0,-4.814359188E0,2.580659151E0,9.174081802E0
5.074735277E0,-4.036691666E0,5.056034088E0,1.187019539E1
5.094879339E0,-4.072584152E0,2.202593327E0,9.720243454E0
5.115151423E0,-4.118047714E0,5.359922647E-1,8.096714020E0
5.135423506E0,-3.672384501E0,1.421934843E0,7.728219032E0
5.155695589E0,-3.296711445E0,5.958128572E-1,8.437092781E0
5.175967621E0,-3.478565931E0,1.359721422E0,8.573483467E0
5.196239704E0,-4.287938118E0,3.090330362E0,9.411569595E0
5.216511735E0,-4.235295951E-1,3.461816072E0,9.339186668E0
5.236783819E0,-9.138788223E0,4.045664787E0,1.035434151E1
5.257055850E0,-5.666802406E0,9.379864931E-1,8.432307243E0
5.277327933E0,-3.143570662E0,6.628118753E-1,8.146963120E0
5.297599964E0,-6.155536175E0,3.075973511E0,7.297510624E0
5.317872048E0,-4.764110088E0,3.780061483E0,1.017248726E1
5.338144131E0,-3.830310822E0,3.169891834E0,1.033519936E1
5.358416162E0,-3.413959742E0,2.142772675E0,8.235497475E0
5.378688246E0,-2.714657307E0,9.810572863E-2,5.626124382E0
5.398960277E0,-2.181057930E0,3.124428272E0,5.139782906E0
5.419232308E0,-3.421138287E0,1.850250125E0,5.946762562E0
5.439504391E0,-4.307080746E0,2.297109663E-1,7.117451191E0
5.459776423E0,-6.866204739E0,1.364507079E0,7.333403111E0
5.480048454E0,-6.334998131E0,2.703889608E-1,7.634898663E0
5.500320537E0,-5.492125988E0,-1.147358418E0,8.580661774E0
5.520592569E0,-4.376472473E0,2.560320199E-1,8.501698494E0
5.540992569E0,-6.138786316E0,1.579861164E0,7.328617573E0
5.561136683E0,-7.656434059E0,3.428316593E0,6.327819347E0
5.581408714E0,-9.923633575E0,4.143770695E0,7.453044415E0
5.601680746E0,-8.181060791E0,3.990629911E0,7.675576687E0
5.621952829E0,-7.749754429E0,3.906881094E0,6.401997089E0
5.642224860E0,-7.345367432E0,3.066402197E0,7.117451191E0
5.662496891E0,-6.720242500E0,2.530410051E0,6.870990276E0
5.682768923E0,-6.696314335E0,1.608574986E0,5.113461971E0
5.703041006E0,-7.261618614E0,1.120439172E0,5.456233978E0
5.723441006E0,-6.337390900E0,3.239283562E0,6.239284992E0
5.743585069E0,-8.525627136E0,1.922034740E0,4.486542225E0
5.763857100E0,-8.578269005E0,1.319043517E0,4.931607246E0
5.784129183E0,-9.215357780E0,3.344567776E0,4.484149456E0
5.804401214E0,-7.543971539E0,2.549552441E0,7.127022266E0
5.824673246E0,-6.746563435E0,1.582253933E0,9.001798630E0
5.844945277E0,-8.111668587E0,-5.892325640E-1,5.139782906E0
5.865217308E0,-7.910073280E0,7.848458290E-1,2.583052158E0
5.885489287E0,-7.613363266E0,2.027318954E0,5.173282623E0
5.905889287E0,-8.496912956E0,4.043870270E-1,5.949155331E0
5.926191423E0,-7.555935860E0,3.876372576E-1,4.819144726E0
5.946306058E0,-8.058428764E0,5.264209956E-2,4.040879250E0
5.966577985E0,-8.965906143E0,1.261615753E0,5.063212872E0
5.986849964E0,-8.429914474E0,-1.728814393E-1,5.537590027E0
6.007121891E0,-7.572685242E0,3.613162339E-1,4.146163464E0
6.027521891E0,-7.752147198E0,2.133201361E0,4.651647091E0
6.047815694E0,-7.847859859E0,2.602194548E0,3.703491211E0
6.067934860E0,-8.657232285E0,1.788036704E0,3.564707518E0
6.088207412E0,-7.811967850E0,1.541576028E0,7.795217991E0
6.108479964E0,-7.577471256E0,1.352542996E0,8.733802795E0
6.128752308E0,-6.289534092E0,2.324627161E0,8.372486115E0
6.149024652E0,-6.598208427E0,1.460219979E0,6.490531445E0
6.169296891E0,-6.870990276E0,1.823929071E0,6.277570248E0
6.189569131E0,-7.331010342E0,2.496910334E0,6.631708145E0
6.209841266E0,-7.649255753E0,1.433898926E0,6.933203697E0
6.230113454E0,-9.030512810E0,1.192223907E0,7.261020184E0
6.250385537E0,-5.645267010E0,1.522433400E0,7.174878597E0
6.270657621E0,-5.578267574E0,2.547159672E0,6.897311211E0
6.290929704E0,-6.631708145E0,1.436291814E0,7.091129780E0
6.311201735E0,-6.669992924E0,6.460621357E-1,7.371688366E0
6.331473819E0,-6.277570248E0,2.415554523E0,7.229913712E0
6.351745902E0,-7.230511665E0,3.512065411E0,6.760920525E0
6.372017881E0,-6.906882763E0,2.595016241E0,6.282355785E0
6.392289964E0,-6.323033810E0,2.501696110E0,5.975476265E0
6.412561996E0,-6.346961975E0,2.946761131E0,6.619743824E0
6.432833975E0,-6.985845566E0,3.799204111E0,7.606184959E0
6.453106058E0,-7.175477028E0,4.127020836E0,6.861418724E0
6.473378089E0,-5.535196781E0,2.800798893E0,6.736992359E0
6.493650069E0,-5.932405472E0,5.910272002E-1,8.190033913E0
6.513922100E0,-6.574280262E0,-8.356932998E-1,6.524031162E0
6.534194027E0,-1.006480980E1,-3.040679455E0,6.914061069E0
6.554466110E0,-8.066205025E0,-1.714457393E0,8.444271088E0
6.574738141E0,-4.579862595E0,-1.597209096E0,8.317451477E0
6.595010121E0,-4.510470867E0,-1.628315806E0,7.347760201E0
6.615282100E0,-4.151547432E0,8.638089895E-1,8.012965202E0
6.635554131E0,-4.448257446E0,1.371685624E0,8.930013657E0
6.655826110E0,-5.973083496E0,4.187439680E-1,9.245866776E0
6.676098141E0,-7.558328629E0,-1.831705689E0,8.089534760E0
6.696370121E0,-7.084549427E0,-4.384847581E-1,5.134997368E0
6.716642100E0,-5.831906796E0,5.670989752E-1,3.373281717E0
6.736914079E0,-5.764907837E0,3.349951804E-1,4.792823792E0
6.757186110E0,-6.674778938E0,-9.152546525E-2,5.901299000E0
6.777458089E0,-7.759325504E0,-6.041877344E-2,5.934798241E0
6.797730121E0,-8.807980537E0,2.494517565E0,6.411568165E0
6.818002100E0,-8.109275818E0,1.917249203E0,7.225128174E0
6.838274079E0,-6.227321148E0,1.031306505E0,5.305486202E0
6.858546058E0,-7.680362701E0,1.589432478E0,4.340580463E0
6.878818037E0,-8.690732002E0,-2.039881349E-1,4.579862595E0
6.899090016E0,-7.895716667E0,-3.095714331E0,4.749752998E0
6.919362048E0,-7.429116249E0,-4.920241356E0,5.293521881E0
6.939634027E0,-8.214560509E0,-4.925027370E0,1.012941647E1
6.959906006E0,-7.649255753E0,-6.035895348E0,1.247617722E1
6.980177985E0,-6.954739094E0,-3.369094372E0,6.394818306E0
7.000449964E0,-6.535995007E0,-2.487937450E0,4.723432064E0
7.020721944E0,-6.339783669E0,-2.655434847E0,5.650052547E0
7.041121944E0,-6.145965099E0,-3.337987661E0,7.788039684E0
7.061265902E0,-5.786443233E0,-4.369892120E0,7.488936901E0
7.081537881E0,-6.370890141E0,-3.979264021E0,5.482554913E0
7.101809808E0,-6.981060028E0,-4.176073551E0,5.134997368E0
7.122081787E0,-6.763313293E0,-4.877170563E0,6.239284992E0
7.142353766E0,-7.271189690E0,-3.206382275E0,7.441080093E0
7.162625746E0,-5.683551788E0,-3.011965513E0,7.347760201E0
7.183025746E0,-4.204189301E0,-3.503092289E0,7.388438225E0
7.203169704E0,-4.398007870E0,-3.795016766E0,6.820741177E0
7.223441631E0,-5.054239750E0,-3.141776085E0,7.162914753E0
7.243713610E0,-6.148357868E0,-3.926621914E0,7.450651646E0
7.263985589E0,-5.956333637E0,-3.847658873E0,6.926024914E0
7.284257516E0,-5.298307419E0,-2.196012974E0,6.555137634E0
7.304529496E0,-5.116453171E0,-1.319641709E0,5.903691769E0
7.324801475E0,-5.465805054E0,-4.161716938E0,6.837490559E0
7.345073402E0,-6.145965099E0,-4.719244480E0,8.048856735E0
7.365345381E0,-7.457829952E0,1.235294700E0,6.631708145E0
7.385656631E0,-7.232904434E0,-2.581257343E0,5.645267010E0
7.406047464E0,-6.624529362E0,-5.310869694E0,5.886941910E0
7.426319131E0,-5.958726406E0,-3.948157310E0,5.652445316E0
7.446433766E0,-4.141975880E0,-4.110869408E0,7.083951473E0
7.466705537E0,-3.480958700E0,-6.328417778E0,9.519247055E0
7.486977412E0,-3.184248686E0,-9.684949875E0,7.019345284E0
7.507249339E0,-3.600599766E0,-1.222253799E1,5.798407555E0
7.527649339E0,-5.688337803E0,-1.120738316E1,6.571887493E0
7.547943819E0,-8.255238533E0,-4.822135925E0,6.763313293E0
7.568062360E0,-6.911668301E0,-8.931210637E-1,7.474579811E0
7.588334756E0,-3.078964472E0,-9.505487680E-1,9.078369141E0
7.608607204E0,-2.102094650E0,-4.106083870E0,6.512066841E0
7.628879444E0,-3.224926710E0,-8.715258598E0,7.273582458E0
7.649151579E0,-3.579064369E0,-1.109492016E1,8.657232285E0
7.669423714E0,-3.610171080E0,-6.622735023E0,7.790432453E0
7.689695902E0,-4.115654945E0,-4.594817638E0,7.448258877E0
7.709967985E0,-4.493721008E0,-3.936193228E0,6.586244106E0
7.730240016E0,-3.524029493E0,-2.667398930E0,7.826324463E0
7.750511996E0,-2.976073265E0,-3.541377544E0,9.674779892E0
7.770784027E0,-2.829512835E0,-4.578067780E0,8.518448830E0
7.791056006E0,-1.376471281E0,-4.005585194E0,7.945965767E0
7.811327985E0,6.658028960E-1,-4.611567497E0,7.362117290E0
7.831599964E0,1.834098577E0,-6.957729816E0,7.977072716E0
7.851871891E0,-1.771286964E0,-6.852446079E0,8.769695282E0
7.872143871E0,-4.472185612E0,-5.925825119E0,8.762516975E0
7.892415798E0,-5.516054630E0,-3.646661758E0,9.253045082E0
7.912687725E0,-4.158725739E0,-2.808575630E0,8.791230202E0
7.932959704E0,-3.057429075E0,-4.369892120E0,8.405985832E0
7.953231631E0,-4.232903481E0,-5.054239750E0,8.693124771E0
7.973503558E0,-4.328616142E0,-4.436891556E0,8.891729355E0
7.993775485E0,-4.101297855E0,-3.510270834E0,8.180462837E0
8.014047412E0,-3.832703590E0,-1.824527234E-1,6.480959892E0
8.034319339E0,4.360919297E-1,-6.179464459E-1,7.541578770E0
8.054591266E0,3.639483213E0,-1.499103427E0,7.591827869E0
8.074863194E0,4.850849628E0,-2.308475733E0,9.013762474E0
8.095135069E0,2.423331022E0,-3.589233875E0,1.010070229E1
8.115406996E0,-7.034898400E-1,-4.082155228E0,9.904491425E0
8.135678923E0,-3.246462107E0,-3.960121393E0,8.420342445E0
8.155950798E0,-4.972883701E0,-3.232703447E0,7.527221680E0
8.176222725E0,-4.776073933E0,-2.856431961E0,7.737790108E0
8.196494600E0,-4.878965378E0,-3.007179976E0,8.513663292E0
8.216766527E0,-5.542375565E0,-3.476771355E0,9.116654396E0
8.237038402E0,-5.283950806E0,-4.580460548E0,9.310472488E0
8.257310329E0,-4.362115860E0,-4.680959225E0,9.171689034E0
8.277582256E0,-3.492922783E0,-3.074178934E0,8.278568268E0
8.297854079E0,-3.447459221E0,-2.272583246E0,8.058428764E0
8.318126058E0,-3.533600807E0,-2.665006161E0,8.372486115E0
8.338397933E0,-3.794418573E0,-3.407379389E0,8.896514893E0
8.358669860E0,-4.029513359E0,-3.663411379E0,9.181260109E0
8.378941735E0,-4.060619831E0,-3.481556892E0,8.750552177E0
8.399213610E0,-3.660420418E0,-3.064607620E0,8.149355888E0
8.419613610E0,-3.260818958E0,-2.808575630E0,8.204390526E0
8.439757412E0,-3.157927752E0,-2.863610506E0,8.652446747E0
8.460029287E0,-3.409173965E0,-3.074178934E0,9.004191399E0
8.480301214E0,-3.751347780E0,-3.110071182E0,8.858229637E0
8.500573089E0,-3.820739508E0,-3.064607620E0,8.408378601E0
8.520844964E0,-3.607778311E0,-2.875574589E0,8.365307808E0
8.541180902E0,-3.516851187E0,-2.760719061E0,8.587840080E0
8.561580902E0,-3.483351469E0,-2.827718258E0,8.707481384E0
8.581660641E0,-3.495315790E0,-2.870789051E0,8.604590416E0
8.601932516E0,-3.569493294E0,-2.964108944E0,8.595019341E0
8.622204391E0,-3.643670797E0,-3.146561861E0,8.616554260E0
8.642476266E0,-3.801596880E0,-3.306880951E0,8.575876236E0
8.662748141E0,-3.924229145E0,-3.275774240E0,8.520841599E0
8.683020069E0,-3.839882135E0,-3.117249727E0,8.425128937E0
8.703291944E0,-3.634099483E0,-2.959323406E0,8.386843681E0
8.723563819E0,-3.607778311E0,-2.985644341E0,8.621339798E0
8.743835694E0,-3.765704632E0,-3.282952785E0,8.839086533E0
8.764107569E0,-3.799204111E0,-3.280559778E0,8.520841599E0
8.784379444E0,-3.839882135E0,-2.877967358E0,8.259425163E0
8.804651319E0,-3.847060680E0,-2.681756020E0,8.401200294E0
8.824923194E0,-3.758526087E0,-2.787040234E0,8.707481384E0
8.845195069E0,-3.736990690E0,-2.897109985E0,8.846264839E0
8.865466944E0,-3.641277790E0,-2.875574589E0,8.719446182E0
8.885738819E0,-3.567100286E0,-2.720041037E0,8.528019905E0
8.906010641E0,-3.543172121E0,-2.538186550E0,8.422736168E0
8.926282516E0,-3.660420418E0,-2.526222467E0,8.429914474E0
8.946554391E0,-3.863810301E0,-2.629113913E0,8.513663292E0
8.966826266E0,-4.029513359E0,-2.854039192E0,8.525627136E0
8.987098089E0,-4.122833252E0,-2.983251572E0,8.477770805E0
9.007369964E0,-4.094119549E0,-2.992822886E0,8.494520187E0
9.027641839E0,-4.012763500E0,-3.019144058E0,8.561519623E0
9.047913714E0,-3.892524242E0,-2.997608662E0,8.547162056E0
9.068185537E0,-3.837489367E0,-2.892324448E0,8.463413239E0
9.088457360E0,-3.924229145E0,-2.784647465E0,8.417949677E0
9.108729287E0,-3.924229145E0,-2.861217737E0,8.528019905E0
9.129001110E0,-3.962514400E0,-2.923431158E0,8.635697365E0
9.149272985E0,-3.811168194E0,-3.122633457E0,8.910871506E0
9.169544808E0,-3.720241070E0,-2.925823927E0,8.590232849E0
9.189816683E0,-3.741776466E0,-2.813361168E0,8.312665939E0
9.210088506E0,-3.756133318E0,-2.985644341E0,8.623732567E0
9.230360381E0,-3.660420418E0,-3.129812002E0,8.992227554E0
9.250632204E0,-3.629313707E0,-3.086143017E0,8.886942863E0
9.270904079E0,-3.684348583E0,-2.906681299E0,8.461020470E0
9.291175902E0,-3.734597921E0,-2.724826813E0,8.137392044E0
9.311447777E0,-3.940979004E0,-2.746362209E0,8.370093346E0
9.331847777E0,-4.041477680E0,-2.851646423E0,8.673981667E0
9.351991423E0,-3.887738705E0,-2.868396044E0,8.705088615E0
9.372263298E0,-3.672384501E0,-2.849253654E0,8.650053978E0
9.392535121E0,-3.574278831E0,-2.842075109E0,8.640482903E0
9.412806944E0,-3.684348583E0,-2.854039192E0,8.595019341E0
9.433078819E0,-3.827918053E0,-2.858824968E0,8.470592499E0
9.453350641E0,-3.837489367E0,-2.906681299E0,8.429914474E0
9.473622464E0,-3.760919094E0,-2.906681299E0,8.472985268E0
9.493894287E0,-3.705883980E0,-2.885145903E0,8.571090698E0
9.514166110E0,-3.725026608E0,-2.916252613E0,8.664410591E0
9.534437933E0,-3.746562004E0,-2.885145903E0,8.640482903E0
9.554709756E0,-3.827918053E0,-2.832503796E0,8.585447311E0
9.574981579E0,-3.967299938E0,-2.875574589E0,8.525627136E0
9.595253402E0,-3.981656790E0,-2.877967358E0,8.501698494E0
9.615525225E0,-3.902693748E0,-2.889931440E0,8.573483467E0
9.635797048E0,-3.856631994E0,-2.827718258E0,8.559126854E0
9.656108194E0,-3.820739508E0,-2.703291416E0,8.554341316E0
9.676340746E0,-3.882952929E0,-2.607578516E0,8.561519623E0
9.696612569E0,-4.022335052E0,-2.626721144E0,8.542376518E0
9.716884391E0,-4.070191383E0,-2.712862730E0,8.516056061E0
9.737156162E0,-4.041477680E0,-2.767897606E0,8.568697929E0
9.757427985E0,-3.943371773E0,-2.739183664E0,8.547162056E0
9.777699808E0,-3.792025566E0,-2.653042078E0,8.487341881E0
9.797971631E0,-3.811168194E0,-2.660220623E0,8.597412109E0
9.818243454E0,-3.909872293E0,-2.724826813E0,8.719446182E0
9.838515277E0,-3.929014683E0,-2.851646423E0,8.606983185E0
9.858787100E0,-3.849453449E0,-2.815753937E0,8.477770805E0
9.879058871E0,-3.765704632E0,-2.717648268E0,8.458627701E0
9.899330694E0,-3.794418573E0,-2.784647465E0,8.609375954E0
9.919602516E0,-3.892524242E0,-2.849253654E0,8.721838951E0
9.939874287E0,-3.938585997E0,-2.803789854E0,8.621339798E0
9.960146110E0,-3.900300980E0,-2.724826813E0,8.549555779E0
9.980417881E0,-3.897309780E0,-2.710469961E0,8.499305725E0
1.000068970E1,-3.890131474E0,-2.770290375E0,8.513663292E0
1.002096153E1,-3.870988846E0,-2.789433002E0,8.568697929E0
1.004129741E1,-3.868596077E0,-2.760719061E0,8.571090698E0
1.006169741E1,-3.875774384E0,-2.696112871E0,8.575876236E0
1.008177689E1,-3.887738705E0,-2.686541557E0,8.585447311E0
1.010204866E1,-3.933800459E0,-2.700898647E0,8.638090134E0
1.012232049E1,-3.998406649E0,-2.748754978E0,8.652446747E0
1.014259226E1,-4.036691666E0,-2.839682341E0,8.621339798E0
1.016286408E1,-3.976871252E0,-2.858824968E0,8.429914474E0
1.018313585E1,-3.900300980E0,-2.782254457E0,8.401200294E0
1.020340762E1,-3.909872293E0,-2.724826813E0,8.487341881E0
1.022367944E1,-3.892524242E0,-2.791825771E0,8.556734085E0
1.024395121E1,-3.847060680E0,-2.880360365E0,8.532805443E0
1.026422298E1,-3.775275946E0,-2.791825771E0,8.530412674E0
1.028449476E1,-3.756133318E0,-2.708076954E0,8.578269005E0
1.030476658E1,-3.765704632E0,-2.760719061E0,8.673981667E0
1.032503835E1,-3.780061483E0,-2.858824968E0,8.664410591E0
1.034531012E1,-3.782454491E0,-2.930609465E0,8.525627136E0
1.036558189E1,-3.705883980E0,-2.923431158E0,8.461020470E0
1.038585371E1,-3.691527128E0,-2.815753937E0,8.578269005E0
1.040612548E1,-3.732205153E0,-2.801397085E0,8.647661209E0
1.042639726E1,-3.720241070E0,-2.856431961E0,8.638090134E0
1.044666903E1,-3.799204111E0,-2.897109985E0,8.647661209E0
1.046694080E1,-3.887738705E0,-2.916252613E0,8.568697929E0
1.048721257E1,-3.863810301E0,-2.894717216E0,8.525627136E0
1.050748434E1,-3.842274904E0,-2.846860647E0,8.513663292E0
1.052775611E1,-3.842274904E0,-2.832503796E0,8.523234367E0
1.054802788E1,-3.856631994E0,-2.827718258E0,8.523234367E0
1.056829965E1,-3.878167391E0,-2.791825771E0,8.532805443E0
1.058857142E1,-3.868596077E0,-2.765504837E0,8.575876236E0
1.060884314E1,-3.880560160E0,-2.688934565E0,8.568697929E0
1.062911491E1,-3.878167391E0,-2.645863533E0,8.525627136E0
1.064938668E1,-3.851846218E0,-2.657827854E0,8.487341881E0
1.066965845E1,-3.835096598E0,-2.667398930E0,8.504091263E0
1.068993023E1,-3.849453449E0,-2.746362209E0,8.551948547E0
1.071020200E1,-3.897309780E0,-2.873181820E0,8.638090134E0
1.073047371E1,-3.894917011E0,-2.913859844E0,8.580661774E0
1.075074549E1,-3.789632797E0,-2.842075109E0,8.477770805E0
1.077101726E1,-3.777668715E0,-2.889931440E0,8.563912392E0
1.079140773E1,-3.784847260E0,-2.968894720E0,8.645268440E0
1.081156075E1,-3.792025566E0,-2.968894720E0,8.647661209E0
1.083183246E1,-3.808775425E0,-2.933002472E0,8.628518105E0
1.085210424E1,-3.799204111E0,-2.892324448E0,8.539983749E0
1.087237595E1,-3.748954773E0,-2.832503796E0,8.511270523E0
1.089264773E1,-3.756133318E0,-2.825325251E0,8.544769287E0
1.091291950E1,-3.827918053E0,-2.739183664E0,8.532805443E0
1.093319121E1,-3.803989887E0,-2.679363251E0,8.556734085E0
1.095346298E1,-3.739383698E0,-2.679363251E0,8.508877754E0
1.097373470E1,-3.811168194E0,-2.672184706E0,8.544769287E0
1.099400648E1,-3.905086517E0,-2.777468920E0,8.611768723E0
1.101427819E1,-3.917050600E0,-2.916252613E0,8.559126854E0
1.103454996E1,-3.890131474E0,-2.906681299E0,8.537590981E0
1.105482168E1,-3.885345697E0,-2.877967358E0,8.609375954E0
1.107509340E1,-3.827918053E0,-2.875574589E0,8.549555779E0
1.109536512E1,-3.756133318E0,-2.894717216E0,8.528019905E0
1.111563689E1,-3.813561201E0,-2.911466837E0,8.528019905E0
1.113590861E1,-3.837489367E0,-2.921038151E0,8.520841599E0
1.115618033E1,-3.789632797E0,-2.899502754E0,8.571090698E0
1.117645210E1,-3.782454491E0,-2.856431961E0,8.597412109E0
1.119672382E1,-3.744169235E0,-2.806182861E0,8.614161491E0
1.121699554E1,-3.770490170E0,-2.794218540E0,8.626125336E0
1.123726731E1,-3.811168194E0,-2.820539713E0,8.561519623E0
1.125753903E1,-3.768097401E0,-2.822932482E0,8.559126854E0
1.127781075E1,-3.772883177E0,-2.861217737E0,8.640482903E0
1.129808246E1,-3.782454491E0,-2.846860647E0,8.563912392E0
1.131835418E1,-3.768097401E0,-2.832503796E0,8.501698494E0
1.133862590E1,-3.758526087E0,-2.854039192E0,8.556734085E0
1.135889762E1,-3.799204111E0,-2.894717216E0,8.616554260E0
1.137916934E1,-3.859024763E0,-2.887538671E0,8.578269005E0
1.139944111E1,-3.782454491E0,-2.815753937E0,8.525627136E0
1.141971283E1,-3.710669756E0,-2.755933523E0,8.542376518E0
1.143998455E1,-3.748954773E0,-2.784647465E0,8.535198212E0
1.146025627E1,-3.832703590E0,-2.856431961E0,8.623732567E0
1.148052798E1,-3.887738705E0,-2.913859844E0,8.662017822E0
1.150079970E1,-3.880560160E0,-2.889931440E0,8.504091263E0
1.152107137E1,-3.772883177E0,-2.813361168E0,8.499305725E0
1.154140720E1,-3.787240028E0,-2.808575630E0,8.578269005E0
1.156180720E1,-3.765704632E0,-2.842075109E0,8.554341316E0
1.158188648E1,-3.753740549E0,-2.851646423E0,8.571090698E0
1.160215819E1,-3.806382656E0,-2.873181820E0,8.635697365E0
1.162242991E1,-3.782454491E0,-2.866003275E0,8.592626572E0
1.164270168E1,-3.748954773E0,-2.830111027E0,8.551948547E0
1.166297335E1,-3.806382656E0,-2.880360365E0,8.508877754E0
1.168324502E1,-3.796811342E0,-2.899502754E0,8.528019905E0
1.170351674E1,-3.760919094E0,-2.880360365E0,8.575876236E0
1.172378840E1,-3.784847260E0,-2.849253654E0,8.621339798E0
1.174406012E1,-3.861417532E0,-2.873181820E0,8.549555779E0
1.176433184E1,-3.808775425E0,-2.863610506E0,8.513663292E0
1.178460356E1,-3.777668715E0,-2.849253654E0,8.583054543E0
1.180487522E1,-3.830310822E0,-2.882753134E0,8.618947029E0
1.182514694E1,-3.823132277E0,-2.861217737E0,8.539983749E0
1.184541866E1,-3.801596880E0,-2.825325251E0,8.520841599E0
1.186569033E1,-3.808775425E0,-2.849253654E0,8.587840080E0
1.188596200E1,-3.815953970E0,-2.882753134E0,8.587840080E0
1.190623371E1,-3.801596880E0,-2.868396044E0,8.559126854E0
1.192650538E1,-3.780061483E0,-2.854039192E0,8.547162056E0
1.194677710E1,-3.808775425E0,-2.851646423E0,8.556734085E0
1.196704877E1,-3.823132277E0,-2.858824968E0,8.561519623E0
1.198732049E1,-3.803989887E0,-2.858824968E0,8.583054543E0
1.200759210E1,-3.799204111E0,-2.851646423E0,8.597412109E0
1.202786382E1,-3.796811342E0,-2.856431961E0,8.585447311E0
1.204813554E1,-3.787240028E0,-2.844467878E0,8.571090698E0
1.206840720E1,-3.765704632E0,-2.796611547E0,8.532805443E0
1.208867887E1,-3.789632797E0,-2.822932482E0,8.554341316E0
1.210895059E1,-3.844667673E0,-2.854039192E0,8.554341316E0
1.212922226E1,-3.813561201E0,-2.856431961E0,8.575876236E0
1.214949392E1,-3.801596880E0,-2.815753937E0,8.561519623E0
1.216976559E1,-3.825525284E0,-2.861217737E0,8.556734085E0
1.219003731E1,-3.851846218E0,-2.866003275E0,8.544769287E0
1.221030898E1,-3.832703590E0,-2.868396044E0,8.537590981E0
1.223058064E1,-3.835096598E0,-2.911466837E0,8.556734085E0
1.225085231E1,-3.859024763E0,-2.894717216E0,8.551948547E0
1.227112398E1,-3.768097401E0,-2.851646423E0,8.544769287E0
1.229139564E1,-3.689134359E0,-2.799004316E0,8.575876236E0
1.231166726E1,-3.703491211E0,-2.839682341E0,8.638090134E0
1.233193892E1,-3.727419376E0,-2.830111027E0,8.606983185E0
1.235221059E1,-3.739383698E0,-2.851646423E0,8.616554260E0
1.237248226E1,-3.772883177E0,-2.885145903E0,8.568697929E0
1.239275398E1,-3.772883177E0,-2.875574589E0,8.508877754E0
1.241302564E1,-3.801596880E0,-2.899502754E0,8.537590981E0
1.243329731E1,-3.882952929E0,-2.904288530E0,8.559126854E0
1.245356898E1,-3.875774384E0,-2.894717216E0,8.559126854E0
1.247384059E1,-3.849453449E0,-2.846860647E0,8.530412674E0
1.249411226E1,-3.837489367E0,-2.796611547E0,8.523234367E0
1.251438392E1,-3.830310822E0,-2.815753937E0,8.556734085E0
1.253465559E1,-3.830310822E0,-2.801397085E0,8.580661774E0
1.255492726E1,-3.832703590E0,-2.815753937E0,8.542376518E0
1.257519892E1,-3.842274904E0,-2.839682341E0,8.544769287E0
1.259547054E1,-3.820739508E0,-2.866003275E0,8.606983185E0
1.261574220E1,-3.777668715E0,-2.856431961E0,8.575876236E0
1.263601387E1,-3.763311863E0,-2.868396044E0,8.518448830E0
1.265628549E1,-3.770490170E0,-2.856431961E0,8.571090698E0
1.267655715E1,-3.780061483E0,-2.856431961E0,8.595019341E0
1.269682882E1,-3.758526087E0,-2.866003275E0,8.599804878E0
1.271710043E1,-3.796811342E0,-2.849253654E0,8.578269005E0
1.273737210E1,-3.794418573E0,-2.839682341E0,8.554341316E0
1.275764371E1,-3.787240028E0,-2.820539713E0,8.566305161E0
1.277791538E1,-3.796811342E0,-2.815753937E0,8.590232849E0
1.279818700E1,-3.849453449E0,-2.873181820E0,8.578269005E0
1.281845866E1,-3.890131474E0,-2.923431158E0,8.556734085E0
1.283873033E1,-3.907479286E0,-2.904288530E0,8.528019905E0
1.285900194E1,-3.825525284E0,-2.846860647E0,8.496912956E0
1.287927361E1,-3.777668715E0,-2.849253654E0,8.549555779E0
1.289954522E1,-3.801596880E0,-2.863610506E0,8.578269005E0
1.291994523E1,-3.818346739E0,-2.870789051E0,8.580661774E0
1.294008851E1,-3.739383698E0,-2.810968399E0,8.573483467E0
1.296036012E1,-3.686741590E0,-2.755933523E0,8.618947029E0
1.298063179E1,-3.708276987E0,-2.763111830E0,8.599804878E0
1.300090340E1,-3.727419376E0,-2.767897606E0,8.561519623E0
1.302117502E1,-3.763311863E0,-2.789433002E0,8.520841599E0
1.304151085E1,-3.782454491E0,-2.813361168E0,8.516056061E0
1.306191085E1,-3.825525284E0,-2.844467878E0,8.597412109E0
1.308198996E1,-3.794418573E0,-2.904288530E0,8.587840080E0
1.310226158E1,-3.770490170E0,-2.856431961E0,8.556734085E0
1.312253319E1,-3.792025566E0,-2.889931440E0,8.559126854E0
1.314280486E1,-3.811168194E0,-2.937788010E0,8.530412674E0
1.316307648E1,-3.811168194E0,-2.930609465E0,8.523234367E0
1.318334809E1,-3.839882135E0,-2.880360365E0,8.544769287E0
1.320361970E1,-3.859024763E0,-2.808575630E0,8.537590981E0
1.322389132E1,-3.830310822E0,-2.753540754E0,8.499305725E0
1.324416298E1,-3.811168194E0,-2.720041037E0,8.532805443E0
1.326443460E1,-3.863810301E0,-2.734398127E0,8.602197647E0
1.328470616E1,-3.902693748E0,-2.799004316E0,8.604590416E0
1.330497783E1,-3.938585997E0,-2.887538671E0,8.542376518E0
1.332524944E1,-3.892524242E0,-2.925823927E0,8.417949677E0
1.334552106E1,-3.847060680E0,-2.923431158E0,8.422736168E0
1.336579267E1,-3.823132277E0,-2.889931440E0,8.504091263E0
1.338606424E1,-3.775275946E0,-2.827718258E0,8.583054543E0
1.340633585E1,-3.756133318E0,-2.770290375E0,8.616554260E0
1.342660752E1,-3.734597921E0,-2.770290375E0,8.609375954E0
1.344687913E1,-3.811168194E0,-2.806182861E0,8.664410591E0
1.346715075E1,-3.912265062E0,-2.839682341E0,8.666803360E0
1.348742236E1,-4.003192425E0,-2.854039192E0,8.573483467E0
1.350769398E1,-3.933800459E0,-2.832503796E0,8.547162056E0
1.352796559E1,-3.859024763E0,-2.753540754E0,8.583054543E0
1.354823720E1,-3.818346739E0,-2.734398127E0,8.609375954E0
1.356850882E1,-3.890131474E0,-2.710469961E0,8.561519623E0
1.358878043E1,-3.929014683E0,-2.696112871E0,8.504091263E0
1.360905205E1,-3.905086517E0,-2.708076954E0,8.530412674E0
1.362932361E1,-3.878167391E0,-2.712862730E0,8.568697929E0
1.364959517E1,-3.897309780E0,-2.736790895E0,8.578269005E0
1.366986679E1,-3.914657831E0,-2.777468920E0,8.606983185E0
1.369013840E1,-3.943371773E0,-2.787040234E0,8.573483467E0
1.371041002E1,-3.962514400E0,-2.796611547E0,8.504091263E0
1.373068163E1,-3.887738705E0,-2.794218540E0,8.492127419E0
1.375095319E1,-3.856631994E0,-2.815753937E0,8.604590416E0
1.377122481E1,-3.861417532E0,-2.820539713E0,8.614161491E0
1.379149642E1,-3.882952929E0,-2.808575630E0,8.587840080E0
1.381176804E1,-3.905086517E0,-2.779861689E0,8.568697929E0
1.383216804E1,-3.909872293E0,-2.717648268E0,8.542376518E0
1.385231121E1,-3.849453449E0,-2.655434847E0,8.501698494E0
1.387258283E1,-3.775275946E0,-2.667398930E0,8.549555779E0
1.389285444E1,-3.813561201E0,-2.741576433E0,8.635697365E0
1.391312601E1,-3.842274904E0,-2.763111830E0,8.626125336E0
1.393339762E1,-3.837489367E0,-2.779861689E0,8.568697929E0
1.395366927E1,-3.818346739E0,-2.794218540E0,8.539983749E0
1.397394083E1,-3.823132277E0,-2.787040234E0,8.551948547E0
1.399421244E1,-3.825525284E0,-2.746362209E0,8.571090698E0
1.401448401E1,-3.868596077E0,-2.767897606E0,8.566305161E0
1.403475562E1,-3.856631994E0,-2.803789854E0,8.618947029E0
1.405502718E1,-3.847060680E0,-2.782254457E0,8.638090134E0
1.407529880E1,-3.859024763E0,-2.732005358E0,8.559126854E0
1.409557041E1,-3.885345697E0,-2.691327333E0,8.468199730E0
1.411584198E1,-3.880560160E0,-2.705684185E0,8.537590981E0
1.413611359E1,-3.880560160E0,-2.734398127E0,8.611768723E0
1.415651359E1,-3.880560160E0,-2.734398127E0,8.590232849E0
1.417665677E1,-3.894917011E0,-2.729612350E0,8.549555779E0
1.419692833E1,-3.909872293E0,-2.715255499E0,8.535198212E0
1.421719994E1,-3.866203070E0,-2.739183664E0,8.580661774E0
1.423747151E1,-3.839882135E0,-2.758326292E0,8.571090698E0
1.425774307E1,-3.859024763E0,-2.727219582E0,8.530412674E0
1.427801468E1,-3.844667673E0,-2.732005358E0,8.573483467E0
1.429828625E1,-3.844667673E0,-2.739183664E0,8.635697365E0
1.431855786E1,-3.885345697E0,-2.741576433E0,8.621339798E0
1.433882942E1,-3.868596077E0,-2.753540754E0,8.559126854E0
1.435910099E1,-3.820739508E0,-2.708076954E0,8.568697929E0
1.437937260E1,-3.799204111E0,-2.696112871E0,8.563912392E0
1.439964416E1,-3.827918053E0,-2.703291416E0,8.592626572E0
1.441991573E1,-3.803989887E0,-2.700898647E0,8.587840080E0
1.444018734E1,-3.873381615E0,-2.741576433E0,8.563912392E0
1.446045890E1,-3.900300980E0,-2.753540754E0,8.571090698E0
1.448073046E1,-3.887738705E0,-2.751147747E0,8.585447311E0
1.450100203E1,-3.851846218E0,-2.751147747E0,8.566305161E0
1.452127364E1,-3.866203070E0,-2.748754978E0,8.530412674E0
1.454160942E1,-3.880560160E0,-2.703291416E0,8.549555779E0
1.456200942E1,-3.873381615E0,-2.688934565E0,8.568697929E0
1.458208833E1,-3.854238987E0,-2.710469961E0,8.597412109E0
1.460235989E1,-3.861417532E0,-2.739183664E0,8.606983185E0
1.462263151E1,-3.832703590E0,-2.724826813E0,8.566305161E0
1.464290307E1,-3.808775425E0,-2.729612350E0,8.556734085E0
1.466317463E1,-3.813561201E0,-2.734398127E0,8.602197647E0
1.468344619E1,-3.825525284E0,-2.772683144E0,8.606983185E0
1.470371776E1,-3.842274904E0,-2.787040234E0,8.604590416E0
1.472398932E1,-3.878167391E0,-2.765504837E0,8.575876236E0
1.474426088E1,-3.878167391E0,-2.741576433E0,8.573483467E0
1.476453244E1,-3.851846218E0,-2.748754978E0,8.554341316E0
1.478480401E1,-3.873381615E0,-2.767897606E0,8.566305161E0
1.480507557E1,-3.859024763E0,-2.729612350E0,8.587840080E0
1.482534713E1,-3.839882135E0,-2.710469961E0,8.585447311E0
1.484561869E1,-3.851846218E0,-2.696112871E0,8.592626572E0
1.486589026E1,-3.849453449E0,-2.703291416E0,8.583054543E0
1.488616182E1,-3.866203070E0,-2.696112871E0,8.551948547E0
1.490643338E1,-3.844667673E0,-2.686541557E0,8.559126854E0
1.492670494E1,-3.842274904E0,-2.693720102E0,8.580661774E0
1.494697651E1,-3.835096598E0,-2.724826813E0,8.604590416E0
1.496724802E1,-3.799204111E0,-2.748754978E0,8.583054543E0
1.498751963E1,-3.792025566E0,-2.789433002E0,8.575876236E0
1.500779119E1,-3.847060680E0,-2.787040234E0,8.575876236E0
1.502806270E1,-3.866203070E0,-2.775076151E0,8.592626572E0
1.504833427E1,-3.847060680E0,-2.777468920E0,8.597412109E0
1.506860583E1,-3.851846218E0,-2.755933523E0,8.604590416E0
1.508887739E1,-3.827918053E0,-2.696112871E0,8.566305161E0
1.510914895E1,-3.811168194E0,-2.676970243E0,8.573483467E0
1.512942046E1,-3.849453449E0,-2.676970243E0,8.604590416E0
1.514969203E1,-3.870988846E0,-2.696112871E0,8.590232849E0
1.516996359E1,-3.873381615E0,-2.751147747E0,8.563912392E0
1.519023515E1,-3.854238987E0,-2.736790895E0,8.551948547E0
1.521050671E1,-3.849453449E0,-2.801397085E0,8.549555779E0
1.523077828E1,-3.933800459E0,-2.830111027E0,8.575876236E0
1.525104979E1,-3.880560160E0,-2.791825771E0,8.580661774E0
1.527132135E1,-3.787240028E0,-2.732005358E0,8.597412109E0
1.529172135E1,-3.820739508E0,-2.736790895E0,8.583054543E0
1.531186442E1,-3.849453449E0,-2.765504837E0,8.580661774E0
1.533213598E1,-3.808775425E0,-2.755933523E0,8.599804878E0
1.535240755E1,-3.803989887E0,-2.758326292E0,8.630910873E0
1.537267911E1,-3.837489367E0,-2.782254457E0,8.609375954E0
1.539295062E1,-3.851846218E0,-2.741576433E0,8.556734085E0
1.541322218E1,-3.811168194E0,-2.755933523E0,8.532805443E0
1.543349375E1,-3.820739508E0,-2.727219582E0,8.528019905E0
1.545376526E1,-3.844667673E0,-2.748754978E0,8.563912392E0
1.547403677E1,-3.880560160E0,-2.763111830E0,8.606983185E0
1.549430833E1,-3.887738705E0,-2.765504837E0,8.585447311E0
1.551457989E1,-3.835096598E0,-2.746362209E0,8.556734085E0
1.553485140E1,-3.825525284E0,-2.727219582E0,8.561519623E0
1.555512291E1,-3.815953970E0,-2.712862730E0,8.575876236E0
1.557539448E1,-3.813561201E0,-2.739183664E0,8.597412109E0
1.559566598E1,-3.854238987E0,-2.760719061E0,8.614161491E0
1.561593755E1,-3.851846218E0,-2.770290375E0,8.549555779E0
1.563620906E1,-3.830310822E0,-2.775076151E0,8.542376518E0
1.565648057E1,-3.796811342E0,-2.736790895E0,8.583054543E0
1.567675213E1,-3.811168194E0,-2.739183664E0,8.602197647E0
1.569702364E1,-3.808775425E0,-2.772683144E0,8.585447311E0
1.571729520E1,-3.808775425E0,-2.770290375E0,8.571090698E0
1.573756671E1,-3.813561201E0,-2.739183664E0,8.547162056E0
1.575783822E1,-3.842274904E0,-2.729612350E0,8.602197647E0
1.577810974E1,-3.878167391E0,-2.765504837E0,8.575876236E0
1.579838130E1,-3.866203070E0,-2.753540754E0,8.523234367E0
1.581865281E1,-3.820739508E0,-2.746362209E0,8.551948547E0
1.583892437E1,-3.856631994E0,-2.767897606E0,8.587840080E0
1.585919588E1,-3.868596077E0,-2.772683144E0,8.614161491E0
1.587946734E1,-3.875774384E0,-2.782254457E0,8.559126854E0
1.589973895E1,-3.818346739E0,-2.767897606E0,8.554341316E0
1.592001046E1,-3.823132277E0,-2.760719061E0,8.595019341E0
1.594028198E1,-3.854238987E0,-2.777468920E0,8.611768723E0
1.596055348E1,-3.866203070E0,-2.770290375E0,8.580661774E0
1.598082500E1,-3.823132277E0,-2.760719061E0,8.539983749E0
1.600109656E1,-3.827918053E0,-2.741576433E0,8.571090698E0
1.602136807E1,-3.832703590E0,-2.748754978E0,8.609375954E0
1.604170385E1,-3.868596077E0,-2.772683144E0,8.575876236E0
1.606210385E1,-3.842274904E0,-2.787040234E0,8.539983749E0
1.608218265E1,-3.806382656E0,-2.748754978E0,8.559126854E0
1.610245416E1,-3.808775425E0,-2.734398127E0,8.602197647E0
1.612272567E1,-3.851846218E0,-2.729612350E0,8.587840080E0
1.614299718E1,-3.839882135E0,-2.760719061E0,8.578269005E0
1.616326869E1,-3.803989887E0,-2.767897606E0,8.571090698E0
1.618354020E1,-3.815953970E0,-2.741576433E0,8.575876236E0
1.620381171E1,-3.837489367E0,-2.751147747E0,8.568697929E0
1.622408322E1,-3.856631994E0,-2.789433002E0,8.580661774E0
1.624435479E1,-3.825525284E0,-2.803789854E0,8.606983185E0
1.626462630E1,-3.827918053E0,-2.755933523E0,8.573483467E0
1.628489781E1,-3.854238987E0,-2.717648268E0,8.523234367E0
1.630516927E1,-3.851846218E0,-2.748754978E0,8.566305161E0
1.632544078E1,-3.832703590E0,-2.767897606E0,8.604590416E0
1.634571234E1,-3.827918053E0,-2.758326292E0,8.609375954E0
1.636598385E1,-3.835096598E0,-2.770290375E0,8.583054543E0
1.638625536E1,-3.868596077E0,-2.753540754E0,8.518448830E0
1.640652682E1,-3.842274904E0,-2.787040234E0,8.583054543E0
1.642679833E1,-3.830310822E0,-2.775076151E0,8.606983185E0
1.644706984E1,-3.796811342E0,-2.763111830E0,8.568697929E0
1.646734130E1,-3.835096598E0,-2.775076151E0,8.575876236E0
1.648761281E1,-3.870988846E0,-2.743969440E0,8.575876236E0
1.650788432E1,-3.811168194E0,-2.746362209E0,8.618947029E0
1.652815583E1,-3.784847260E0,-2.741576433E0,8.597412109E0
1.654842734E1,-3.823132277E0,-2.748754978E0,8.566305161E0
1.656869885E1,-3.837489367E0,-2.741576433E0,8.542376518E0
1.658897031E1,-3.875774384E0,-2.772683144E0,8.566305161E0
1.660924182E1,-3.861417532E0,-2.815753937E0,8.590232849E0
1.662951333E1,-3.808775425E0,-2.779861689E0,8.566305161E0
1.664978484E1,-3.803989887E0,-2.755933523E0,8.559126854E0
1.667005630E1,-3.782454491E0,-2.727219582E0,8.609375954E0
1.669032781E1,-3.837489367E0,-2.772683144E0,8.602197647E0
1.671059932E1,-3.835096598E0,-2.763111830E0,8.568697929E0
1.673087078E1,-3.811168194E0,-2.727219582E0,8.578269005E0
1.675114229E1,-3.808775425E0,-2.739183664E0,8.602197647E0
1.677141380E1,-3.837489367E0,-2.751147747E0,8.583054543E0
1.679168526E1,-3.851846218E0,-2.789433002E0,8.563912392E0
1.681195677E1,-3.827918053E0,-2.789433002E0,8.583054543E0
1.683222828E1,-3.808775425E0,-2.787040234E0,8.590232849E0
1.685249974E1,-3.811168194E0,-2.784647465E0,8.551948547E0
1.687277125E1,-3.818346739E0,-2.765504837E0,8.578269005E0
1.689304270E1,-3.832703590E0,-2.772683144E0,8.614161491E0
1.691331421E1,-3.813561201E0,-2.748754978E0,8.583054543E0
1.693358572E1,-3.813561201E0,-2.739183664E0,8.592626572E0
1.695385718E1,-3.837489367E0,-2.763111830E0,8.573483467E0
1.697412869E1,-3.844667673E0,-2.748754978E0,8.566305161E0
1.699440015E1,-3.847060680E0,-2.751147747E0,8.575876236E0
1.701467166E1,-3.839882135E0,-2.760719061E0,8.573483467E0
1.703494312E1,-3.830310822E0,-2.753540754E0,8.583054543E0
1.705521463E1,-3.830310822E0,-2.770290375E0,8.573483467E0
1.707548614E1,-3.813561201E0,-2.739183664E0,8.561519623E0
1.709575760E1,-3.808775425E0,-2.765504837E0,8.602197647E0
1.711602911E1,-3.820739508E0,-2.767897606E0,8.583054543E0
1.713630057E1,-3.827918053E0,-2.787040234E0,8.592626572E0
1.715657203E1,-3.801596880E0,-2.806182861E0,8.559126854E0
1.717684354E1,-3.803989887E0,-2.832503796E0,8.568697929E0
1.737455109E1,-3.830310822E0,-2.767897606E0,8.597412109E0
1.739469401E1,-3.835096598E0,-2.806182861E0,8.635697365E0
1.741496546E1,-3.830310822E0,-2.830111027E0,8.573483467E0
1.743523692E1,-3.815953970E0,-2.801397085E0,8.544769287E0
1.745550838E1,-3.811168194E0,-2.767897606E0,8.568697929E0
1.747577984E1,-3.796811342E0,-2.772683144E0,8.616554260E0
1.749605135E1,-3.787240028E0,-2.758326292E0,8.597412109E0
1.751632281E1,-3.782454491E0,-2.748754978E0,8.563912392E0
1.753659427E1,-3.844667673E0,-2.782254457E0,8.597412109E0
1.755686572E1,-3.868596077E0,-2.772683144E0,8.587840080E0
1.757713718E1,-3.801596880E0,-2.724826813E0,8.554341316E0
1.759740864E1,-3.772883177E0,-2.710469961E0,8.549555779E0
1.761768010E1,-3.815953970E0,-2.753540754E0,8.602197647E0
1.763795161E1,-3.854238987E0,-2.787040234E0,8.611768723E0
1.765822307E1,-3.854238987E0,-2.777468920E0,8.578269005E0
1.767849448E1,-3.839882135E0,-2.791825771E0,8.583054543E0
1.769876598E1,-3.844667673E0,-2.796611547E0,8.611768723E0
1.771903744E1,-3.859024763E0,-2.777468920E0,8.559126854E0
1.773930890E1,-3.849453449E0,-2.796611547E0,8.501698494E0
1.775958031E1,-3.849453449E0,-2.796611547E0,8.549555779E0
1.777985177E1,-3.873381615E0,-2.782254457E0,8.630910873E0
1.780012322E1,-3.878167391E0,-2.767897606E0,8.621339798E0
1.782039468E1,-3.796811342E0,-2.720041037E0,8.554341316E0
1.784066614E1,-3.739383698E0,-2.720041037E0,8.563912392E0
1.786093760E1,-3.777668715E0,-2.782254457E0,8.602197647E0
1.788120906E1,-3.854238987E0,-2.810968399E0,8.606983185E0
1.790160906E1,-3.859024763E0,-2.801397085E0,8.587840080E0
1.792175198E1,-3.801596880E0,-2.791825771E0,8.559126854E0
1.794202343E1,-3.792025566E0,-2.796611547E0,8.554341316E0
1.796229489E1,-3.854238987E0,-2.806182861E0,8.578269005E0
1.798256630E1,-3.849453449E0,-2.767897606E0,8.578269005E0
1.800283776E1,-3.839882135E0,-2.748754978E0,8.554341316E0
1.802310921E1,-3.820739508E0,-2.758326292E0,8.592626572E0
1.804338067E1,-3.815953970E0,-2.787040234E0,8.597412109E0
1.806365213E1,-3.835096598E0,-2.739183664E0,8.563912392E0
1.808392359E1,-3.839882135E0,-2.724826813E0,8.554341316E0
1.810419494E1,-3.815953970E0,-2.739183664E0,8.592626572E0
1.812446645E1,-3.811168194E0,-2.763111830E0,8.606983185E0
1.814473791E1,-3.839882135E0,-2.791825771E0,8.563912392E0
1.816500937E1,-3.849453449E0,-2.834896564E0,8.559126854E0
1.818528083E1,-3.839882135E0,-2.806182861E0,8.578269005E0
1.820555224E1,-3.811168194E0,-2.801397085E0,8.573483467E0
1.822582369E1,-3.796811342E0,-2.825325251E0,8.554341316E0
1.824609515E1,-3.811168194E0,-2.777468920E0,8.554341316E0
1.826636656E1,-3.820739508E0,-2.758326292E0,8.606983185E0
1.828663802E1,-3.815953970E0,-2.763111830E0,8.606983185E0
1.830690948E1,-3.811168194E0,-2.729612350E0,8.587840080E0
1.832718093E1,-3.830310822E0,-2.743969440E0,8.563912392E0
1.834758093E1,-3.882952929E0,-2.763111830E0,8.549555779E0
1.836772380E1,-3.854238987E0,-2.753540754E0,8.578269005E0
1.838799526E1,-3.835096598E0,-2.710469961E0,8.554341316E0
1.840826666E1,-3.835096598E0,-2.696112871E0,8.559126854E0
1.842866666E1,-3.863810301E0,-2.782254457E0,8.616554260E0
1.844880958E1,-3.839882135E0,-2.849253654E0,8.630910873E0
1.846908104E1,-3.815953970E0,-2.787040234E0,8.549555779E0
1.848935244E1,-3.844667673E0,-2.758326292E0,8.506484032E0
1.850962390E1,-3.854238987E0,-2.810968399E0,8.578269005E0
1.852989536E1,-3.854238987E0,-2.815753937E0,8.626125336E0
1.855029536E1,-3.839882135E0,-2.791825771E0,8.592626572E0
1.857043822E1,-3.820739508E0,-2.763111830E0,8.563912392E0
1.859083823E1,-3.811168194E0,-2.767897606E0,8.554341316E0
1.861113906E1,-3.796811342E0,-2.767897606E0,8.568697929E0
1.863141057E1,-3.782454491E0,-2.748754978E0,8.578269005E0
1.865152468E1,-3.820739508E0,-2.758326292E0,8.597412109E0
1.867179599E1,-3.849453449E0,-2.767897606E0,8.587840080E0
1.869206724E1,-3.792025566E0,-2.753540754E0,8.587840080E0
1.871233864E1,-3.782454491E0,-2.739183664E0,8.583054543E0
1.873273864E1,-3.820739508E0,-2.748754978E0,8.616554260E0
1.875288145E1,-3.863810301E0,-2.815753937E0,8.630910873E0
1.877328145E1,-3.917050600E0,-2.825325251E0,8.544769287E0
1.879342427E1,-3.844667673E0,-2.806182861E0,8.434700012E0
1.881369562E1,-3.792025566E0,-2.801397085E0,8.516056061E0
1.883409562E1,-3.792025566E0,-2.806182861E0,8.621339798E0
1.885427796E1,-3.792025566E0,-2.777468920E0,8.621339798E0
1.887451005E1,-3.839882135E0,-2.777468920E0,8.597412109E0
1.889478145E1,-3.902693748E0,-2.810968399E0,8.573483467E0
1.891505281E1,-3.887738705E0,-2.830111027E0,8.587840080E0
1.893545281E1,-3.863810301E0,-2.796611547E0,8.554341316E0
1.895559567E1,-3.844667673E0,-2.748754978E0,8.539983749E0
1.897586713E1,-3.815953970E0,-2.777468920E0,8.549555779E0
1.899613848E1,-3.777668715E0,-2.777468920E0,8.568697929E0
1.901640994E1,-3.763311863E0,-2.777468920E0,8.626125336E0
1.903668130E1,-3.801596880E0,-2.820539713E0,8.645268440E0
1.905695276E1,-3.787240028E0,-2.830111027E0,8.587840080E0
1.907722421E1,-3.720241070E0,-2.820539713E0,8.549555779E0
1.909749562E1,-3.753740549E0,-2.806182861E0,8.578269005E0
1.911776703E1,-3.806382656E0,-2.777468920E0,8.554341316E0
1.913803849E1,-3.844667673E0,-2.777468920E0,8.578269005E0
1.915830989E1,-3.820739508E0,-2.810968399E0,8.602197647E0
1.917858135E1,-3.815953970E0,-2.820539713E0,8.597412109E0
1.919885270E1,-3.820739508E0,-2.791825771E0,8.559126854E0
1.921912416E1,-3.825525284E0,-2.787040234E0,8.520841599E0
1.923939557E1,-3.839882135E0,-2.787040234E0,8.520841599E0
1.925966703E1,-3.868596077E0,-2.810968399E0,8.539983749E0
1.927993843E1,-3.854238987E0,-2.830111027E0,8.544769287E0
1.930020989E1,-3.820739508E0,-2.810968399E0,8.597412109E0
1.932048130E1,-3.787240028E0,-2.782254457E0,8.597412109E0
1.934075270E1,-3.744169235E0,-2.801397085E0,8.568697929E0
1.936102416E1,-3.725026608E0,-2.825325251E0,8.606983185E0
1.938129557E1,-3.734597921E0,-2.830111027E0,8.640482903E0
1.940156703E1,-3.753740549E0,-2.791825771E0,8.592626572E0
1.942183838E1,-3.758526087E0,-2.763111830E0,8.554341316E0
1.944210989E1,-3.782454491E0,-2.801397085E0,8.606983185E0
1.946238130E1,-3.815953970E0,-2.806182861E0,8.616554260E0
1.948265270E1,-3.854238987E0,-2.801397085E0,8.530412674E0
1.950292411E1,-3.868596077E0,-2.806182861E0,8.468199730E0
1.952319557E1,-3.882952929E0,-2.791825771E0,8.525627136E0
1.954346703E1,-3.897309780E0,-2.777468920E0,8.630910873E0
1.956373843E1,-3.863810301E0,-2.763111830E0,8.611768723E0
1.958400984E1,-3.863810301E0,-2.806182861E0,8.530412674E0
1.960428130E1,-3.825525284E0,-2.787040234E0,8.530412674E0
1.962455270E1,-3.777668715E0,-2.748754978E0,8.587840080E0
1.964482416E1,-3.768097401E0,-2.724826813E0,8.606983185E0
1.966509557E1,-3.792025566E0,-2.743969440E0,8.597412109E0
1.968536698E1,-3.792025566E0,-2.820539713E0,8.573483467E0
1.970563838E1,-3.787240028E0,-2.801397085E0,8.602197647E0
1.972590984E1,-3.825525284E0,-2.791825771E0,8.635697365E0
1.974618125E1,-3.849453449E0,-2.810968399E0,8.578269005E0
1.976645270E1,-3.825525284E0,-2.806182861E0,8.535198212E0
1.978672411E1,-3.787240028E0,-2.810968399E0,8.563912392E0
1.980699552E1,-3.820739508E0,-2.806182861E0,8.587840080E0
1.982739552E1,-3.854238987E0,-2.796611547E0,8.573483467E0
1.984753838E1,-3.854238987E0,-2.758326292E0,8.573483467E0
1.986780979E1,-3.815953970E0,-2.743969440E0,8.578269005E0
1.988808125E1,-3.782454491E0,-2.748754978E0,8.592626572E0
1.990835265E1,-3.835096598E0,-2.772683144E0,8.573483467E0
1.992862406E1,-3.839882135E0,-2.777468920E0,8.559126854E0
1.994889546E1,-3.830310822E0,-2.791825771E0,8.587840080E0
1.996916692E1,-3.815953970E0,-2.772683144E0,8.592626572E0
1.998943833E1,-3.820739508E0,-2.796611547E0,8.559126854E0
2.000970974E1,-3.830310822E0,-2.820539713E0,8.563912392E0
2.003005989E1,-3.863810301E0,-2.834896564E0,8.583054543E0
2.005041026E1,-3.863810301E0,-2.839682341E0,8.606983185E0
2.007052427E1,-3.782454491E0,-2.801397085E0,8.587840080E0
2.009092427E1,-3.725026608E0,-2.763111830E0,8.573483467E0
2.011122500E1,-3.763311863E0,-2.763111830E0,8.597412109E0
2.013149645E1,-3.844667673E0,-2.791825771E0,8.616554260E0
2.015161057E1,-3.839882135E0,-2.834896564E0,8.606983185E0
2.017201057E1,-3.792025566E0,-2.815753937E0,8.554341316E0
2.019215323E1,-3.792025566E0,-2.772683144E0,8.554341316E0
2.021242448E1,-3.820739508E0,-2.763111830E0,8.587840080E0
2.023282448E1,-3.849453449E0,-2.777468920E0,8.573483467E0
2.025296718E1,-3.863810301E0,-2.787040234E0,8.535198212E0
2.027323854E1,-3.849453449E0,-2.777468920E0,8.539983749E0
2.029350989E1,-3.801596880E0,-2.782254457E0,8.587840080E0
2.031378124E1,-3.796811342E0,-2.801397085E0,8.592626572E0
2.033418124E1,-3.811168194E0,-2.810968399E0,8.583054543E0
2.035432395E1,-3.811168194E0,-2.834896564E0,8.597412109E0
2.037459541E1,-3.820739508E0,-2.825325251E0,8.587840080E0
2.039486687E1,-3.835096598E0,-2.787040234E0,8.559126854E0
2.041513822E1,-3.830310822E0,-2.772683144E0,8.544769287E0
2.043540963E1,-3.782454491E0,-2.782254457E0,8.578269005E0
2.045568098E1,-3.787240028E0,-2.791825771E0,8.626125336E0
2.047595239E1,-3.815953970E0,-2.791825771E0,8.630910873E0
2.049622380E1,-3.806382656E0,-2.815753937E0,8.544769287E0
2.051649520E1,-3.792025566E0,-2.806182861E0,8.511270523E0
2.053676666E1,-3.820739508E0,-2.791825771E0,8.592626572E0
2.055703807E1,-3.811168194E0,-2.801397085E0,8.645268440E0
2.057730948E1,-3.787240028E0,-2.810968399E0,8.597412109E0
2.059758088E1,-3.792025566E0,-2.801397085E0,8.520841599E0
2.061785224E1,-3.820739508E0,-2.772683144E0,8.530412674E0
2.063812364E1,-3.820739508E0,-2.772683144E0,8.583054543E0
2.065839505E1,-3.815953970E0,-2.758326292E0,8.597412109E0
2.067866645E1,-3.830310822E0,-2.739183664E0,8.587840080E0
2.069893786E1,-3.815953970E0,-2.806182861E0,8.602197647E0
2.071920932E1,-3.820739508E0,-2.839682341E0,8.583054543E0
2.073948072E1,-3.835096598E0,-2.863610506E0,8.549555779E0
2.075975213E1,-3.820739508E0,-2.830111027E0,8.549555779E0
2.078002354E1,-3.801596880E0,-2.796611547E0,8.592626572E0
2.080029494E1,-3.796811342E0,-2.801397085E0,8.592626572E0
2.082056635E1,-3.825525284E0,-2.777468920E0,8.554341316E0
2.084083776E1,-3.839882135E0,-2.748754978E0,8.563912392E0
2.086110916E1,-3.792025566E0,-2.758326292E0,8.583054543E0
2.088138057E1,-3.782454491E0,-2.763111830E0,8.597412109E0
2.090165198E1,-3.811168194E0,-2.767897606E0,8.578269005E0
2.092192338E1,-3.830310822E0,-2.767897606E0,8.592626572E0
2.094219479E1,-3.801596880E0,-2.834896564E0,8.606983185E0
2.096246619E1,-3.787240028E0,-2.887538671E0,8.573483467E0
2.098273760E1,-3.763311863E0,-2.830111027E0,8.568697929E0
2.100300901E1,-3.758526087E0,-2.767897606E0,8.573483467E0
2.102328041E1,-3.811168194E0,-2.758326292E0,8.578269005E0
2.104355182E1,-3.863810301E0,-2.767897606E0,8.583054543E0
2.106382322E1,-3.868596077E0,-2.777468920E0,8.597412109E0
2.108409463E1,-3.844667673E0,-2.787040234E0,8.602197647E0
2.110436598E1,-3.839882135E0,-2.791825771E0,8.573483467E0
2.112463739E1,-3.849453449E0,-2.810968399E0,8.520841599E0
2.114490880E1,-3.873381615E0,-2.825325251E0,8.520841599E0
2.116518020E1,-3.854238987E0,-2.815753937E0,8.573483467E0
2.118545161E1,-3.792025566E0,-2.796611547E0,8.606983185E0
2.120572296E1,-3.787240028E0,-2.825325251E0,8.611768723E0
2.122599437E1,-3.787240028E0,-2.825325251E0,8.606983185E0
2.124626578E1,-3.796811342E0,-2.796611547E0,8.583054543E0
2.126653718E1,-3.815953970E0,-2.825325251E0,8.549555779E0
2.128680859E1,-3.806382656E0,-2.825325251E0,8.544769287E0
2.130707994E1,-3.768097401E0,-2.839682341E0,8.583054543E0
2.132735135E1,-3.739383698E0,-2.791825771E0,8.611768723E0
2.134762276E1,-3.744169235E0,-2.753540754E0,8.592626572E0
2.136789411E1,-3.768097401E0,-2.748754978E0,8.573483467E0
2.138816552E1,-3.835096598E0,-2.758326292E0,8.597412109E0
2.140843692E1,-3.868596077E0,-2.763111830E0,8.583054543E0
2.142870828E1,-3.849453449E0,-2.748754978E0,8.520841599E0
2.144897968E1,-3.815953970E0,-2.743969440E0,8.511270523E0
2.146925109E1,-3.849453449E0,-2.796611547E0,8.602197647E0
2.148952244E1,-3.878167391E0,-2.830111027E0,8.611768723E0
2.150979385E1,-3.849453449E0,-2.791825771E0,8.559126854E0
2.153019385E1,-3.830310822E0,-2.782254457E0,8.525627136E0
2.155049458E1,-3.830310822E0,-2.810968399E0,8.559126854E0
2.157064791E1,-3.873381615E0,-2.806182861E0,8.606983185E0
2.159103802E1,-3.835096598E0,-2.796611547E0,8.616554260E0
2.161130906E1,-3.820739508E0,-2.767897606E0,8.554341316E0
2.163158046E1,-3.806382656E0,-2.748754978E0,8.539983749E0
2.165169448E1,-3.792025566E0,-2.791825771E0,8.592626572E0
2.167196567E1,-3.796811342E0,-2.801397085E0,8.621339798E0
2.169223692E1,-3.811168194E0,-2.758326292E0,8.602197647E0
2.171250812E1,-3.806382656E0,-2.763111830E0,8.559126854E0
2.173290812E1,-3.801596880E0,-2.777468920E0,8.583054543E0
2.175305078E1,-3.792025566E0,-2.777468920E0,8.611768723E0
2.177332208E1,-3.830310822E0,-2.777468920E0,8.587840080E0
2.179359343E1,-3.854238987E0,-2.791825771E0,8.578269005E0
2.181386468E1,-3.830310822E0,-2.791825771E0,8.563912392E0
2.183426468E1,-3.806382656E0,-2.791825771E0,8.573483467E0
2.185452588E1,-3.835096598E0,-2.763111830E0,8.563912392E0
2.187467921E1,-3.839882135E0,-2.743969440E0,8.578269005E0
2.189495046E1,-3.820739508E0,-2.767897606E0,8.606983185E0
2.191522177E1,-3.830310822E0,-2.801397085E0,8.606983185E0
2.193562177E1,-3.820739508E0,-2.787040234E0,8.583054543E0
2.195576442E1,-3.839882135E0,-2.753540754E0,8.563912392E0
2.197603573E1,-3.873381615E0,-2.801397085E0,8.578269005E0
2.199630703E1,-3.825525284E0,-2.810968399E0,8.583054543E0
2.201657838E1,-3.787240028E0,-2.767897606E0,8.583054543E0
2.203684974E1,-3.801596880E0,-2.753540754E0,8.587840080E0
2.205712104E1,-3.806382656E0,-2.772683144E0,8.592626572E0
2.207739244E1,-3.796811342E0,-2.777468920E0,8.592626572E0
2.209766380E1,-3.806382656E0,-2.772683144E0,8.583054543E0
2.211793510E1,-3.830310822E0,-2.796611547E0,8.573483467E0
2.213820645E1,-3.825525284E0,-2.801397085E0,8.549555779E0
2.215847786E1,-3.815953970E0,-2.767897606E0,8.568697929E0
2.217874921E1,-3.811168194E0,-2.753540754E0,8.597412109E0
2.219902057E1,-3.796811342E0,-2.743969440E0,8.583054543E0
2.221929187E1,-3.801596880E0,-2.777468920E0,8.592626572E0
2.223956328E1,-3.801596880E0,-2.810968399E0,8.602197647E0
2.225983463E1,-3.801596880E0,-2.806182861E0,8.602197647E0
2.228010593E1,-3.820739508E0,-2.787040234E0,8.516056061E0
2.230037729E1,-3.820739508E0,-2.767897606E0,8.544769287E0
2.232064864E1,-3.863810301E0,-2.820539713E0,8.606983185E0
2.234092000E1,-3.859024763E0,-2.815753937E0,8.606983185E0
2.236119135E1,-3.835096598E0,-2.801397085E0,8.573483467E0
2.238146276E1,-3.830310822E0,-2.748754978E0,8.525627136E0
2.240173411E1,-3.815953970E0,-2.739183664E0,8.549555779E0
2.242200546E1,-3.820739508E0,-2.772683144E0,8.611768723E0
2.244227677E1,-3.811168194E0,-2.777468920E0,8.611768723E0
2.246254812E1,-3.801596880E0,-2.753540754E0,8.578269005E0
2.248281948E1,-3.825525284E0,-2.777468920E0,8.563912392E0
2.250309093E1,-3.835096598E0,-2.806182861E0,8.587840080E0
2.252336218E1,-3.811168194E0,-2.791825771E0,8.602197647E0
2.254363354E1,-3.782454491E0,-2.810968399E0,8.563912392E0
2.256390489E1,-3.801596880E0,-2.801397085E0,8.568697929E0
2.258417625E1,-3.835096598E0,-2.796611547E0,8.559126854E0
2.260444760E1,-3.844667673E0,-2.806182861E0,8.559126854E0
2.262471895E1,-3.839882135E0,-2.782254457E0,8.563912392E0
2.264499026E1,-3.820739508E0,-2.787040234E0,8.554341316E0
2.266526161E1,-3.825525284E0,-2.772683144E0,8.578269005E0
2.268553296E1,-3.839882135E0,-2.739183664E0,8.597412109E0
2.270580427E1,-3.844667673E0,-2.772683144E0,8.573483467E0
2.272607567E1,-3.849453449E0,-2.796611547E0,8.549555779E0
2.274634703E1,-3.820739508E0,-2.791825771E0,8.554341316E0
2.276661833E1,-3.806382656E0,-2.763111830E0,8.583054543E0
2.278688963E1,-3.835096598E0,-2.782254457E0,8.578269005E0
2.280716104E1,-3.854238987E0,-2.787040234E0,8.573483467E0
2.282743239E1,-3.825525284E0,-2.734398127E0,8.568697929E0
2.284770369E1,-3.806382656E0,-2.748754978E0,8.578269005E0
2.286797505E1,-3.815953970E0,-2.772683144E0,8.592626572E0
2.288824640E1,-3.806382656E0,-2.810968399E0,8.573483467E0
2.290851770E1,-3.815953970E0,-2.830111027E0,8.563912392E0
2.292878906E1,-3.825525284E0,-2.796611547E0,8.554341316E0
2.294906041E1,-3.811168194E0,-2.801397085E0,8.568697929E0
2.296933171E1,-3.806382656E0,-2.777468920E0,8.578269005E0
2.298960307E1,-3.815953970E0,-2.791825771E0,8.592626572E0
2.300987442E1,-3.844667673E0,-2.815753937E0,8.602197647E0
2.303027442E1,-3.835096598E0,-2.801397085E0,8.568697929E0
2.305057505E1,-3.825525284E0,-2.777468920E0,8.549555779E0
2.307080703E1,-3.830310822E0,-2.777468920E0,8.563912392E0
2.309111781E1,-3.849453449E0,-2.801397085E0,8.587840080E0
2.311138921E1,-3.839882135E0,-2.806182861E0,8.587840080E0
2.313166057E1,-3.792025566E0,-2.782254457E0,8.578269005E0
2.315177458E1,-3.792025566E0,-2.787040234E0,8.573483467E0
2.317204572E1,-3.844667673E0,-2.791825771E0,8.549555779E0
2.319231692E1,-3.830310822E0,-2.791825771E0,8.573483467E0
2.321258817E1,-3.825525284E0,-2.763111830E0,8.597412109E0
2.323298817E1,-3.835096598E0,-2.777468920E0,8.583054543E0
2.325313073E1,-3.849453449E0,-2.801397085E0,8.568697929E0
2.327340198E1,-3.830310822E0,-2.787040234E0,8.535198212E0
2.329367328E1,-3.820739508E0,-2.777468920E0,8.573483467E0
2.331394453E1,-3.801596880E0,-2.791825771E0,8.611768723E0
2.333434453E1,-3.806382656E0,-2.767897606E0,8.602197647E0
2.335448718E1,-3.820739508E0,-2.767897606E0,8.592626572E0
2.337475848E1,-3.792025566E0,-2.820539713E0,8.587840080E0
2.339502979E1,-3.801596880E0,-2.863610506E0,8.544769287E0
2.341530109E1,-3.835096598E0,-2.839682341E0,8.554341316E0
2.343557244E1,-3.859024763E0,-2.796611547E0,8.583054543E0
2.345584369E1,-3.835096598E0,-2.734398127E0,8.587840080E0
2.347611500E1,-3.806382656E0,-2.739183664E0,8.563912392E0
2.349638635E1,-3.815953970E0,-2.748754978E0,8.568697929E0
2.351665760E1,-3.859024763E0,-2.729612350E0,8.583054543E0
2.353692895E1,-3.873381615E0,-2.743969440E0,8.573483467E0
2.355720031E1,-3.801596880E0,-2.739183664E0,8.578269005E0
2.357747161E1,-3.768097401E0,-2.720041037E0,8.554341316E0
2.359774296E1,-3.763311863E0,-2.743969440E0,8.587840080E0
2.361801427E1,-3.787240028E0,-2.820539713E0,8.630910873E0
2.363828552E1,-3.815953970E0,-2.834896564E0,8.592626572E0
2.365855682E1,-3.806382656E0,-2.844467878E0,8.587840080E0
2.367882817E1,-3.811168194E0,-2.830111027E0,8.583054543E0
2.369909948E1,-3.835096598E0,-2.801397085E0,8.559126854E0
2.371937072E1,-3.811168194E0,-2.777468920E0,8.549555779E0
2.373964208E1,-3.806382656E0,-2.772683144E0,8.621339798E0
2.375991343E1,-3.815953970E0,-2.763111830E0,8.659625053E0
2.378018474E1,-3.820739508E0,-2.743969440E0,8.587840080E0
2.380045604E1,-3.811168194E0,-2.758326292E0,8.559126854E0
2.382072734E1,-3.820739508E0,-2.772683144E0,8.597412109E0
2.384099869E1,-3.801596880E0,-2.782254457E0,8.621339798E0
2.386127000E1,-3.787240028E0,-2.767897606E0,8.602197647E0
2.388154130E1,-3.811168194E0,-2.763111830E0,8.525627136E0
2.390181260E1,-3.830310822E0,-2.767897606E0,8.535198212E0
2.392208390E1,-3.839882135E0,-2.782254457E0,8.597412109E0
2.394235520E1,-3.815953970E0,-2.767897606E0,8.611768723E0
2.396262651E1,-3.806382656E0,-2.739183664E0,8.583054543E0
2.398289786E1,-3.782454491E0,-2.739183664E0,8.578269005E0
2.400316916E1,-3.796811342E0,-2.777468920E0,8.621339798E0
2.402344046E1,-3.796811342E0,-2.763111830E0,8.621339798E0
2.404371177E1,-3.801596880E0,-2.782254457E0,8.578269005E0
2.406398307E1,-3.796811342E0,-2.777468920E0,8.568697929E0
2.408425437E1,-3.782454491E0,-2.796611547E0,8.616554260E0
2.410452567E1,-3.801596880E0,-2.777468920E0,8.630910873E0
2.412479698E1,-3.801596880E0,-2.767897606E0,8.592626572E0
2.414506828E1,-3.815953970E0,-2.796611547E0,8.573483467E0
2.416533958E1,-3.825525284E0,-2.782254457E0,8.587840080E0
2.418561088E1,-3.806382656E0,-2.772683144E0,8.606983185E0
2.420588218E1,-3.830310822E0,-2.787040234E0,8.583054543E0
2.422615348E1,-3.868596077E0,-2.796611547E0,8.568697929E0
2.424642479E1,-3.806382656E0,-2.767897606E0,8.573483467E0
2.426669609E1,-3.787240028E0,-2.753540754E0,8.635697365E0
2.428696739E1,-3.796811342E0,-2.772683144E0,8.635697365E0
2.430723864E1,-3.772883177E0,-2.782254457E0,8.587840080E0
2.432751000E1,-3.777668715E0,-2.801397085E0,8.587840080E0
2.434778124E1,-3.801596880E0,-2.825325251E0,8.606983185E0
2.436805260E1,-3.796811342E0,-2.806182861E0,8.587840080E0
2.438832385E1,-3.768097401E0,-2.758326292E0,8.559126854E0
2.440872385E1,-3.763311863E0,-2.767897606E0,8.583054543E0
2.442886750E1,-3.796811342E0,-2.777468920E0,8.630910873E0
2.444913859E1,-3.792025566E0,-2.753540754E0,8.592626572E0
2.446940968E1,-3.777668715E0,-2.753540754E0,8.587840080E0
2.448968088E1,-3.820739508E0,-2.796611547E0,8.592626572E0
2.450995203E1,-3.806382656E0,-2.791825771E0,8.597412109E0
2.453035203E1,-3.753740549E0,-2.743969440E0,8.554341316E0
2.455065244E1,-3.801596880E0,-2.753540754E0,8.563912392E0
2.457092380E1,-3.882952929E0,-2.801397085E0,8.597412109E0
2.459119510E1,-3.873381615E0,-2.834896564E0,8.597412109E0
2.461119140E1,-3.811168194E0,-2.767897606E0,8.563912392E0
2.463159140E1,-3.820739508E0,-2.734398127E0,8.535198212E0
2.465185166E1,-3.849453449E0,-2.796611547E0,8.554341316E0
2.467212276E1,-3.868596077E0,-2.863610506E0,8.602197647E0
2.469239390E1,-3.849453449E0,-2.839682341E0,8.597412109E0
2.471266505E1,-3.801596880E0,-2.782254457E0,8.563912392E0
2.473306505E1,-3.806382656E0,-2.772683144E0,8.573483467E0
2.475320750E1,-3.811168194E0,-2.772683144E0,8.592626572E0
2.477347869E1,-3.792025566E0,-2.734398127E0,8.592626572E0
2.479374994E1,-3.782454491E0,-2.710469961E0,8.587840080E0
2.481402119E1,-3.844667673E0,-2.729612350E0,8.597412109E0
2.483442119E1,-3.863810301E0,-2.753540754E0,8.592626572E0
2.485468213E1,-3.806382656E0,-2.748754978E0,8.539983749E0
2.487483541E1,-3.787240028E0,-2.787040234E0,8.554341316E0
2.489510656E1,-3.830310822E0,-2.806182861E0,8.602197647E0
2.491537765E1,-3.820739508E0,-2.815753937E0,8.611768723E0
2.493577765E1,-3.835096598E0,-2.839682341E0,8.587840080E0
2.495592026E1,-3.820739508E0,-2.873181820E0,8.544769287E0
2.497619140E1,-3.763311863E0,-2.873181820E0,8.544769287E0
2.499646265E1,-3.772883177E0,-2.801397085E0,8.602197647E0
2.501673390E1,-3.830310822E0,-2.772683144E0,8.630910873E0
2.503700520E1,-3.835096598E0,-2.801397085E0,8.568697929E0
2.505727640E1,-3.820739508E0,-2.763111830E0,8.554341316E0
2.507754770E1,-3.825525284E0,-2.758326292E0,8.563912392E0
2.509781895E1,-3.844667673E0,-2.763111830E0,8.563912392E0
2.511809020E1,-3.859024763E0,-2.753540754E0,8.563912392E0
2.513836145E1,-3.849453449E0,-2.777468920E0,8.568697929E0
2.515863270E1,-3.806382656E0,-2.763111830E0,8.568697929E0
2.517890401E1,-3.801596880E0,-2.753540754E0,8.583054543E0
2.519917526E1,-3.796811342E0,-2.753540754E0,8.578269005E0
2.521944656E1,-3.758526087E0,-2.782254457E0,8.559126854E0
2.523971781E1,-3.753740549E0,-2.782254457E0,8.611768723E0
2.525998911E1,-3.787240028E0,-2.796611547E0,8.640482903E0
2.528026031E1,-3.796811342E0,-2.787040234E0,8.583054543E0
2.530053161E1,-3.801596880E0,-2.753540754E0,8.544769287E0
2.532080281E1,-3.854238987E0,-2.763111830E0,8.544769287E0
2.534107411E1,-3.882952929E0,-2.782254457E0,8.611768723E0
2.536134536E1,-3.859024763E0,-2.791825771E0,8.597412109E0
2.538161661E1,-3.825525284E0,-2.777468920E0,8.539983749E0
2.540188791E1,-3.844667673E0,-2.796611547E0,8.544769287E0
2.542215916E1,-3.873381615E0,-2.815753937E0,8.578269005E0
2.544243041E1,-3.849453449E0,-2.801397085E0,8.616554260E0
2.546270166E1,-3.825525284E0,-2.777468920E0,8.583054543E0
2.548297296E1,-3.787240028E0,-2.758326292E0,8.563912392E0
2.550324421E1,-3.820739508E0,-2.753540754E0,8.549555779E0
2.552351546E1,-3.863810301E0,-2.767897606E0,8.559126854E0
2.554378671E1,-3.849453449E0,-2.787040234E0,8.563912392E0
2.556405796E1,-3.796811342E0,-2.767897606E0,8.597412109E0
2.558445796E1,-3.772883177E0,-2.767897606E0,8.611768723E0
2.560460052E1,-3.729812384E0,-2.753540754E0,8.611768723E0
2.562487177E1,-3.748954773E0,-2.758326292E0,8.602197647E0
2.564514302E1,-3.758526087E0,-2.767897606E0,8.583054543E0
2.566541427E1,-3.758526087E0,-2.787040234E0,8.597412109E0
2.568568552E1,-3.768097401E0,-2.810968399E0,8.592626572E0
2.570595677E1,-3.782454491E0,-2.858824968E0,8.597412109E0
2.572622802E1,-3.768097401E0,-2.810968399E0,8.621339798E0
2.574649927E1,-3.725026608E0,-2.720041037E0,8.621339798E0
2.576677052E1,-3.753740549E0,-2.724826813E0,8.563912392E0
2.578704182E1,-3.859024763E0,-2.772683144E0,8.544769287E0
2.580731302E1,-3.902693748E0,-2.791825771E0,8.563912392E0
2.582758427E1,-3.859024763E0,-2.772683144E0,8.597412109E0
2.584785557E1,-3.830310822E0,-2.753540754E0,8.568697929E0
2.586812682E1,-3.835096598E0,-2.782254457E0,8.525627136E0
2.588839802E1,-3.854238987E0,-2.810968399E0,8.549555779E0
2.590866927E1,-3.806382656E0,-2.820539713E0,8.621339798E0
2.592894052E1,-3.739383698E0,-2.787040234E0,8.659625053E0
2.594921177E1,-3.720241070E0,-2.753540754E0,8.597412109E0
2.596948302E1,-3.753740549E0,-2.777468920E0,8.578269005E0
2.598975427E1,-3.772883177E0,-2.801397085E0,8.626125336E0
2.601002552E1,-3.720241070E0,-2.782254457E0,8.606983185E0
2.603042552E1,-3.763311863E0,-2.796611547E0,8.573483467E0
2.605072593E1,-3.863810301E0,-2.806182861E0,8.563912392E0
2.607099724E1,-3.882952929E0,-2.815753937E0,8.578269005E0
2.609126859E1,-3.878167391E0,-2.825325251E0,8.583054543E0
2.611138250E1,-3.839882135E0,-2.796611547E0,8.559126854E0
2.613178250E1,-3.777668715E0,-2.806182861E0,8.544769287E0
2.615192484E1,-3.768097401E0,-2.810968399E0,8.587840080E0
2.617219588E1,-3.772883177E0,-2.801397085E0,8.611768723E0
2.619246703E1,-3.768097401E0,-2.767897606E0,8.616554260E0
2.621273823E1,-3.777668715E0,-2.753540754E0,8.597412109E0
2.623313822E1,-3.806382656E0,-2.767897606E0,8.602197647E0
2.625328067E1,-3.844667673E0,-2.791825771E0,8.587840080E0
2.627355182E1,-3.835096598E0,-2.777468920E0,8.563912392E0
2.629382302E1,-3.806382656E0,-2.743969440E0,8.535198212E0
2.631409427E1,-3.825525284E0,-2.763111830E0,8.583054543E0
2.633449427E1,-3.849453449E0,-2.806182861E0,8.621339798E0
2.635463671E1,-3.806382656E0,-2.791825771E0,8.583054543E0
2.637490791E1,-3.763311863E0,-2.777468920E0,8.549555779E0
2.639517916E1,-3.815953970E0,-2.782254457E0,8.606983185E0
2.641545031E1,-3.830310822E0,-2.791825771E0,8.645268440E0
2.643572156E1,-3.815953970E0,-2.777468920E0,8.554341316E0
2.645599281E1,-3.782454491E0,-2.767897606E0,8.516056061E0
2.647638281E1,-3.801596880E0,-2.748754978E0,8.592626572E0
2.649653526E1,-3.815953970E0,-2.782254457E0,8.650053978E0
2.651680645E1,-3.806382656E0,-2.787040234E0,8.606983185E0
2.653707770E1,-3.777668715E0,-2.758326292E0,8.578269005E0
2.655734895E1,-3.763311863E0,-2.791825771E0,8.559126854E0
2.657762015E1,-3.811168194E0,-2.791825771E0,8.587840080E0
2.659789140E1,-3.825525284E0,-2.801397085E0,8.578269005E0
2.661816260E1,-3.787240028E0,-2.834896564E0,8.568697929E0
2.663843385E1,-3.777668715E0,-2.815753937E0,8.592626572E0
2.665870510E1,-3.782454491E0,-2.796611547E0,8.616554260E0
2.667897624E1,-3.835096598E0,-2.791825771E0,8.573483467E0
2.669924750E1,-3.830310822E0,-2.772683144E0,8.544769287E0
2.671951869E1,-3.835096598E0,-2.782254457E0,8.578269005E0
2.673978994E1,-3.815953970E0,-2.782254457E0,8.583054543E0
2.676006114E1,-3.796811342E0,-2.767897606E0,8.578269005E0
2.678033239E1,-3.806382656E0,-2.767897606E0,8.573483467E0
2.680060359E1,-3.830310822E0,-2.830111027E0,8.592626572E0
2.682087484E1,-3.820739508E0,-2.854039192E0,8.597412109E0
2.684114604E1,-3.777668715E0,-2.777468920E0,8.568697929E0
2.686141729E1,-3.768097401E0,-2.743969440E0,8.573483467E0
2.688168848E1,-3.792025566E0,-2.791825771E0,8.602197647E0
2.690195974E1,-3.820739508E0,-2.820539713E0,8.606983185E0
2.692223093E1,-3.801596880E0,-2.791825771E0,8.563912392E0
2.694250213E1,-3.787240028E0,-2.763111830E0,8.554341316E0
2.696277338E1,-3.806382656E0,-2.739183664E0,8.573483467E0
2.698304453E1,-3.815953970E0,-2.748754978E0,8.606983185E0
2.700331583E1,-3.815953970E0,-2.782254457E0,8.616554260E0
2.702358703E1,-3.830310822E0,-2.791825771E0,8.573483467E0
2.704385822E1,-3.849453449E0,-2.782254457E0,8.549555779E0
2.706412948E1,-3.825525284E0,-2.758326292E0,8.559126854E0
2.708440067E1,-3.792025566E0,-2.772683144E0,8.587840080E0
2.710467187E1,-3.772883177E0,-2.796611547E0,8.597412109E0
2.712494312E1,-3.806382656E0,-2.796611547E0,8.578269005E0
2.714521432E1,-3.859024763E0,-2.801397085E0,8.592626572E0
2.716548552E1,-3.863810301E0,-2.820539713E0,8.592626572E0
2.718575671E1,-3.811168194E0,-2.815753937E0,8.583054543E0
2.720602796E1,-3.753740549E0,-2.791825771E0,8.563912392E0
2.722629916E1,-3.801596880E0,-2.748754978E0,8.587840080E0
2.724657036E1,-3.863810301E0,-2.796611547E0,8.583054543E0
2.726684156E1,-3.859024763E0,-2.810968399E0,8.573483467E0
2.728711281E1,-3.811168194E0,-2.782254457E0,8.559126854E0
2.730738401E1,-3.792025566E0,-2.782254457E0,8.583054543E0
2.732765515E1,-3.796811342E0,-2.801397085E0,8.597412109E0
2.734792640E1,-3.825525284E0,-2.791825771E0,8.563912392E0
2.736819760E1,-3.849453449E0,-2.787040234E0,8.563912392E0
2.738846885E1,-3.835096598E0,-2.791825771E0,8.597412109E0
2.740874005E1,-3.792025566E0,-2.787040234E0,8.592626572E0
2.742901124E1,-3.796811342E0,-2.772683144E0,8.563912392E0
2.744928244E1,-3.801596880E0,-2.777468920E0,8.563912392E0
2.746955364E1,-3.811168194E0,-2.806182861E0,8.616554260E0
2.748982484E1,-3.806382656E0,-2.796611547E0,8.597412109E0
2.751009604E1,-3.820739508E0,-2.791825771E0,8.554341316E0
2.753049604E1,-3.830310822E0,-2.801397085E0,8.554341316E0
2.755079645E1,-3.811168194E0,-2.791825771E0,8.592626572E0
2.757106770E1,-3.806382656E0,-2.767897606E0,8.583054543E0
2.759133901E1,-3.811168194E0,-2.772683144E0,8.583054543E0
2.761145286E1,-3.835096598E0,-2.796611547E0,8.573483467E0
2.763185286E1,-3.820739508E0,-2.810968399E0,8.568697929E0
2.765199510E1,-3.796811342E0,-2.787040234E0,8.583054543E0
2.767226614E1,-3.806382656E0,-2.772683144E0,8.592626572E0
2.769253724E1,-3.825525284E0,-2.787040234E0,8.587840080E0
2.771280838E1,-3.825525284E0,-2.777468920E0,8.573483467E0
2.773320838E1,-3.815953970E0,-2.758326292E0,8.578269005E0
2.775335072E1,-3.854238987E0,-2.753540754E0,8.587840080E0
2.777362187E1,-3.859024763E0,-2.772683144E0,8.587840080E0
2.779389302E1,-3.839882135E0,-2.772683144E0,8.568697929E0
2.781416421E1,-3.844667673E0,-2.777468920E0,8.549555779E0
2.783456421E1,-3.839882135E0,-2.806182861E0,8.583054543E0
2.785486448E1,-3.835096598E0,-2.791825771E0,8.592626572E0
2.787513578E1,-3.815953970E0,-2.772683144E0,8.587840080E0
2.789524963E1,-3.801596880E0,-2.753540754E0,8.578269005E0
2.791552067E1,-3.839882135E0,-2.791825771E0,8.606983185E0
2.793592067E1,-3.849453449E0,-2.830111027E0,8.587840080E0
2.795606286E1,-3.782454491E0,-2.820539713E0,8.568697929E0
2.797633395E1,-3.772883177E0,-2.787040234E0,8.573483467E0
2.799660510E1,-3.849453449E0,-2.801397085E0,8.587840080E0
2.801687625E1,-3.859024763E0,-2.830111027E0,8.554341316E0
2.803714739E1,-3.787240028E0,-2.806182861E0,8.559126854E0
2.805741849E1,-3.772883177E0,-2.801397085E0,8.578269005E0
2.807768974E1,-3.777668715E0,-2.787040234E0,8.616554260E0
2.809796093E1,-3.811168194E0,-2.767897606E0,8.592626572E0
2.811823203E1,-3.811168194E0,-2.753540754E0,8.578269005E0
2.813850322E1,-3.801596880E0,-2.767897606E0,8.611768723E0
2.815877442E1,-3.820739508E0,-2.796611547E0,8.602197647E0
2.817904557E1,-3.830310822E0,-2.777468920E0,8.525627136E0
2.819931677E1,-3.811168194E0,-2.763111830E0,8.539983749E0
2.821958796E1,-3.835096598E0,-2.791825771E0,8.597412109E0
2.823985911E1,-3.830310822E0,-2.796611547E0,8.592626572E0
2.826013031E1,-3.815953970E0,-2.810968399E0,8.530412674E0
2.828040151E1,-3.839882135E0,-2.782254457E0,8.559126854E0
2.830067270E1,-3.844667673E0,-2.806182861E0,8.616554260E0
2.832094385E1,-3.830310822E0,-2.825325251E0,8.587840080E0
2.834121505E1,-3.825525284E0,-2.777468920E0,8.535198212E0
2.836148625E1,-3.792025566E0,-2.767897606E0,8.573483467E0
2.838175744E1,-3.792025566E0,-2.796611547E0,8.621339798E0
2.840202859E1,-3.820739508E0,-2.820539713E0,8.583054543E0
2.842229979E1,-3.825525284E0,-2.796611547E0,8.549555779E0
2.844257093E1,-3.811168194E0,-2.782254457E0,8.578269005E0
2.846284213E1,-3.777668715E0,-2.782254457E0,8.597412109E0
2.848311328E1,-3.768097401E0,-2.791825771E0,8.583054543E0
2.850338442E1,-3.815953970E0,-2.796611547E0,8.568697929E0
2.852365567E1,-3.825525284E0,-2.810968399E0,8.578269005E0
2.854392687E1,-3.796811342E0,-2.772683144E0,8.583054543E0
2.856419802E1,-3.830310822E0,-2.710469961E0,8.592626572E0
2.858446921E1,-3.868596077E0,-2.743969440E0,8.549555779E0
2.860474041E1,-3.835096598E0,-2.748754978E0,8.568697929E0
2.862501156E1,-3.772883177E0,-2.772683144E0,8.578269005E0
2.864528276E1,-3.806382656E0,-2.815753937E0,8.606983185E0
2.866555395E1,-3.844667673E0,-2.767897606E0,8.578269005E0
2.868582515E1,-3.868596077E0,-2.777468920E0,8.544769287E0
2.870609630E1,-3.868596077E0,-2.825325251E0,8.583054543E0
2.872636750E1,-3.844667673E0,-2.806182861E0,8.597412109E0
2.874663864E1,-3.844667673E0,-2.796611547E0,8.573483467E0
2.876690984E1,-3.849453449E0,-2.810968399E0,8.525627136E0
2.878718099E1,-3.854238987E0,-2.796611547E0,8.554341316E0
2.880745218E1,-3.825525284E0,-2.787040234E0,8.621339798E0
2.882772338E1,-3.835096598E0,-2.834896564E0,8.630910873E0
2.884799453E1,-3.796811342E0,-2.801397085E0,8.573483467E0
2.886826572E1,-3.768097401E0,-2.772683144E0,8.525627136E0
2.888853687E1,-3.806382656E0,-2.739183664E0,8.578269005E0
2.890880807E1,-3.873381615E0,-2.758326292E0,8.630910873E0
2.892920807E1,-3.835096598E0,-2.777468920E0,8.587840080E0
2.894935041E1,-3.806382656E0,-2.748754978E0,8.568697929E0
2.896962156E1,-3.854238987E0,-2.691327333E0,8.583054543E0
2.898989276E1,-3.964907169E0,-2.724826813E0,8.568697929E0
2.901016390E1,-3.859024763E0,-2.858824968E0,8.539983749E0
2.903056390E1,-3.705883980E0,-2.925823927E0,8.525627136E0
2.905086421E1,-3.729812384E0,-2.801397085E0,8.611768723E0
2.907113546E1,-3.835096598E0,-2.743969440E0,8.630910873E0
2.909140671E1,-3.830310822E0,-2.801397085E0,8.583054543E0
2.911152057E1,-3.787240028E0,-2.806182861E0,8.554341316E0
2.913192057E1,-3.787240028E0,-2.739183664E0,8.568697929E0
2.915206276E1,-3.806382656E0,-2.791825771E0,8.621339798E0
2.917233380E1,-3.839882135E0,-2.844467878E0,8.611768723E0
2.919260484E1,-3.897309780E0,-2.782254457E0,8.539983749E0
2.921287593E1,-3.936193228E0,-2.710469961E0,8.496912956E0
2.923327593E1,-3.950550079E0,-2.724826813E0,8.520841599E0
2.925341817E1,-3.936193228E0,-2.748754978E0,8.568697929E0
2.927381817E1,-3.897309780E0,-2.748754978E0,8.583054543E0
2.929396046E1,-3.868596077E0,-2.724826813E0,8.554341316E0
2.931423161E1,-3.859024763E0,-2.705684185E0,8.530412674E0
2.933463161E1,-3.859024763E0,-2.767897606E0,8.563912392E0
2.935477390E1,-3.830310822E0,-2.801397085E0,8.602197647E0
2.937504505E1,-3.782454491E0,-2.849253654E0,8.606983185E0
2.939531619E1,-3.753740549E0,-2.834896564E0,8.597412109E0
2.941558734E1,-3.753740549E0,-2.825325251E0,8.578269005E0
2.943585848E1,-3.787240028E0,-2.839682341E0,8.640482903E0
2.945612958E1,-3.815953970E0,-2.810968399E0,8.645268440E0
2.947640078E1,-3.825525284E0,-2.772683144E0,8.563912392E0
2.949667192E1,-3.815953970E0,-2.734398127E0,8.539983749E0
2.951694307E1,-3.839882135E0,-2.676970243E0,8.578269005E0
2.953721421E1,-3.882952929E0,-2.691327333E0,8.592626572E0
2.955748541E1,-3.917050600E0,-2.710469961E0,8.563912392E0
2.957775656E1,-3.887738705E0,-2.720041037E0,8.539983749E0
2.959802770E1,-3.844667673E0,-2.729612350E0,8.535198212E0
2.961829885E1,-3.878167391E0,-2.758326292E0,8.544769287E0
2.963857005E1,-3.878167391E0,-2.772683144E0,8.530412674E0
2.965884119E1,-3.844667673E0,-2.801397085E0,8.559126854E0
2.967911234E1,-3.811168194E0,-2.815753937E0,8.592626572E0
2.969938349E1,-3.811168194E0,-2.782254457E0,8.592626572E0
2.971965468E1,-3.811168194E0,-2.763111830E0,8.559126854E0
2.973992583E1,-3.835096598E0,-2.758326292E0,8.597412109E0
2.976019692E1,-3.830310822E0,-2.734398127E0,8.621339798E0
2.978046807E1,-3.820739508E0,-2.739183664E0,8.602197647E0
2.980073921E1,-3.815953970E0,-2.720041037E0,8.549555779E0
2.982101036E1,-3.806382656E0,-2.720041037E0,8.578269005E0
2.984128156E1,-3.830310822E0,-2.767897606E0,8.635697365E0
2.986155270E1,-3.849453449E0,-2.796611547E0,8.602197647E0
2.988182385E1,-3.844667673E0,-2.772683144E0,8.535198212E0
2.990209500E1,-3.811168194E0,-2.758326292E0,8.530412674E0
2.992236614E1,-3.835096598E0,-2.767897606E0,8.597412109E0
2.994263729E1,-3.825525284E0,-2.753540754E0,8.602197647E0
2.996290838E1,-3.787240028E0,-2.748754978E0,8.583054543E0
2.998317958E1,-3.801596880E0,-2.767897606E0,8.597412109E0
3.000345078E1,-3.844667673E0,-2.763111830E0,8.587840080E0
3.002372187E1,-3.854238987E0,-2.729612350E0,8.563912392E0
3.004399307E1,-3.859024763E0,-2.753540754E0,8.592626572E0
3.006426421E1,-3.854238987E0,-2.743969440E0,8.568697929E0
3.008453536E1,-3.839882135E0,-2.729612350E0,8.597412109E0
3.010480651E1,-3.844667673E0,-2.715255499E0,8.602197647E0
3.012507765E1,-3.811168194E0,-2.724826813E0,8.602197647E0
3.014534880E1,-3.811168194E0,-2.743969440E0,8.592626572E0
3.016561994E1,-3.839882135E0,-2.739183664E0,8.587840080E0
3.018589109E1,-3.844667673E0,-2.772683144E0,8.587840080E0
3.020616224E1,-3.830310822E0,-2.763111830E0,8.578269005E0
3.022643338E1,-3.820739508E0,-2.748754978E0,8.621339798E0
3.024670453E1,-3.801596880E0,-2.772683144E0,8.626125336E0
3.026697567E1,-3.792025566E0,-2.748754978E0,8.592626572E0
3.028724682E1,-3.796811342E0,-2.729612350E0,8.573483467E0
3.030751796E1,-3.815953970E0,-2.739183664E0,8.606983185E0
3.032791796E1,-3.806382656E0,-2.763111830E0,8.616554260E0
3.034806026E1,-3.729812384E0,-2.758326292E0,8.578269005E0
3.036833140E1,-3.768097401E0,-2.753540754E0,8.616554260E0
3.038860250E1,-3.844667673E0,-2.810968399E0,8.621339798E0
3.040887369E1,-3.887738705E0,-2.825325251E0,8.573483467E0
3.042914479E1,-3.854238987E0,-2.801397085E0,8.549555779E0
3.044941593E1,-3.830310822E0,-2.753540754E0,8.559126854E0
3.046968708E1,-3.839882135E0,-2.739183664E0,8.573483467E0
3.048995823E1,-3.854238987E0,-2.729612350E0,8.573483467E0
3.051022937E1,-3.859024763E0,-2.739183664E0,8.611768723E0
3.053062937E1,-3.839882135E0,-2.743969440E0,8.630910873E0
3.055092963E1,-3.787240028E0,-2.710469961E0,8.578269005E0
3.057120083E1,-3.792025566E0,-2.710469961E0,8.573483467E0
3.059123609E1,-3.801596880E0,-2.763111830E0,8.597412109E0
3.061158552E1,-3.825525284E0,-2.815753937E0,8.645268440E0
3.063198552E1,-3.815953970E0,-2.815753937E0,8.626125336E0
3.065212770E1,-3.792025566E0,-2.796611547E0,8.549555779E0
3.067252770E1,-3.763311863E0,-2.767897606E0,8.520841599E0
3.069266984E1,-3.753740549E0,-2.772683144E0,8.563912392E0
3.071294093E1,-3.763311863E0,-2.787040234E0,8.635697365E0
3.073334093E1,-3.753740549E0,-2.758326292E0,8.654839516E0
3.075348317E1,-3.744169235E0,-2.743969440E0,8.616554260E0
3.077375432E1,-3.772883177E0,-2.729612350E0,8.573483467E0
3.079402541E1,-3.806382656E0,-2.729612350E0,8.573483467E0
3.081429651E1,-3.825525284E0,-2.777468920E0,8.578269005E0
3.083469651E1,-3.835096598E0,-2.810968399E0,8.592626572E0
3.085499671E1,-3.825525284E0,-2.758326292E0,8.587840080E0
3.087511046E1,-3.820739508E0,-2.748754978E0,8.563912392E0
3.089538151E1,-3.839882135E0,-2.758326292E0,8.568697929E0
3.091565250E1,-3.844667673E0,-2.772683144E0,8.592626572E0
3.093605250E1,-3.811168194E0,-2.787040234E0,8.602197647E0
3.095619468E1,-3.772883177E0,-2.801397085E0,8.621339798E0
3.097646572E1,-3.815953970E0,-2.830111027E0,8.578269005E0
3.099673682E1,-3.897309780E0,-2.887538671E0,8.554341316E0
3.101700786E1,-3.873381615E0,-2.873181820E0,8.554341316E0
3.103727901E1,-3.811168194E0,-2.844467878E0,8.597412109E0
3.105755015E1,-3.777668715E0,-2.825325251E0,8.606983185E0
3.107782119E1,-3.753740549E0,-2.777468920E0,8.583054543E0
3.109809234E1,-3.772883177E0,-2.739183664E0,8.578269005E0
3.111836349E1,-3.763311863E0,-2.729612350E0,8.592626572E0
3.113863453E1,-3.772883177E0,-2.715255499E0,8.621339798E0
3.115890567E1,-3.796811342E0,-2.705684185E0,8.597412109E0
3.117917682E1,-3.806382656E0,-2.743969440E0,8.587840080E0
3.119944791E1,-3.806382656E0,-2.743969440E0,8.587840080E0
3.121971906E1,-3.787240028E0,-2.720041037E0,8.573483467E0
3.123999015E1,-3.820739508E0,-2.729612350E0,8.568697929E0
3.126026130E1,-3.859024763E0,-2.777468920E0,8.573483467E0
3.128053244E1,-3.859024763E0,-2.844467878E0,8.621339798E0
3.130080354E1,-3.849453449E0,-2.820539713E0,8.563912392E0
3.132107468E1,-3.815953970E0,-2.758326292E0,8.525627136E0
3.134134578E1,-3.820739508E0,-2.806182861E0,8.530412674E0
3.136174578E1,-3.921836376E0,-2.849253654E0,8.587840080E0
3.138204593E1,-3.969692707E0,-2.815753937E0,8.578269005E0
3.140215974E1,-3.839882135E0,-2.748754978E0,8.573483467E0
3.142243072E1,-3.734597921E0,-2.667398930E0,8.597412109E0
3.144270177E1,-3.729812384E0,-2.710469961E0,8.554341316E0
3.146297276E1,-3.820739508E0,-2.815753937E0,8.568697929E0
3.148324385E1,-3.887738705E0,-2.844467878E0,8.592626572E0
3.150351489E1,-3.820739508E0,-2.820539713E0,8.626125336E0
3.152378599E1,-3.710669756E0,-2.777468920E0,8.606983185E0
3.154405708E1,-3.729812384E0,-2.743969440E0,8.573483467E0
3.156432822E1,-3.811168194E0,-2.753540754E0,8.539983749E0
3.158459927E1,-3.863810301E0,-2.787040234E0,8.573483467E0
3.160487041E1,-3.830310822E0,-2.806182861E0,8.611768723E0
3.162514151E1,-3.753740549E0,-2.772683144E0,8.611768723E0
3.164541255E1,-3.772883177E0,-2.743969440E0,8.573483467E0
3.166568369E1,-3.815953970E0,-2.796611547E0,8.568697929E0
3.168595479E1,-3.830310822E0,-2.849253654E0,8.592626572E0
3.170622588E1,-3.839882135E0,-2.825325251E0,8.563912392E0
3.172662588E1,-3.825525284E0,-2.830111027E0,8.554341316E0
3.174676812E1,-3.835096598E0,-2.825325251E0,8.568697929E0
3.176703921E1,-3.825525284E0,-2.815753937E0,8.578269005E0
3.178731036E1,-3.820739508E0,-2.782254457E0,8.606983185E0
3.180758145E1,-3.815953970E0,-2.787040234E0,8.578269005E0
3.182785260E1,-3.806382656E0,-2.787040234E0,8.525627136E0
3.184812369E1,-3.792025566E0,-2.777468920E0,8.559126854E0
3.186839479E1,-3.830310822E0,-2.810968399E0,8.611768723E0
3.188866588E1,-3.839882135E0,-2.815753937E0,8.587840080E0
3.190893703E1,-3.820739508E0,-2.801397085E0,8.554341316E0
3.192920812E1,-3.792025566E0,-2.815753937E0,8.544769287E0
3.194947921E1,-3.801596880E0,-2.830111027E0,8.568697929E0
3.196975031E1,-3.820739508E0,-2.839682341E0,8.578269005E0
3.199002145E1,-3.815953970E0,-2.815753937E0,8.602197647E0
3.201029255E1,-3.806382656E0,-2.782254457E0,8.611768723E0
3.203069255E1,-3.820739508E0,-2.806182861E0,8.535198212E0
3.205083474E1,-3.801596880E0,-2.796611547E0,8.520841599E0
3.207110588E1,-3.825525284E0,-2.753540754E0,8.592626572E0
3.209137698E1,-3.820739508E0,-2.729612350E0,8.635697365E0
3.211164807E1,-3.796811342E0,-2.782254457E0,8.592626572E0
3.213204807E1,-3.844667673E0,-2.858824968E0,8.559126854E0
3.215219026E1,-3.859024763E0,-2.868396044E0,8.539983749E0
3.217246140E1,-3.806382656E0,-2.801397085E0,8.544769287E0
3.219273250E1,-3.806382656E0,-2.772683144E0,8.573483467E0
3.221300359E1,-3.878167391E0,-2.772683144E0,8.597412109E0
3.223340359E1,-3.917050600E0,-2.763111830E0,8.568697929E0
3.225354578E1,-3.882952929E0,-2.715255499E0,8.554341316E0
3.227381692E1,-3.863810301E0,-2.715255499E0,8.544769287E0
3.229408802E1,-3.854238987E0,-2.734398127E0,8.559126854E0
3.231435911E1,-3.806382656E0,-2.743969440E0,8.568697929E0
3.233475911E1,-3.792025566E0,-2.801397085E0,8.592626572E0
3.235490130E1,-3.787240028E0,-2.849253654E0,8.630910873E0
3.237517239E1,-3.758526087E0,-2.873181820E0,8.606983185E0
3.239544348E1,-3.715455294E0,-2.849253654E0,8.578269005E0
3.241571458E1,-3.753740549E0,-2.844467878E0,8.602197647E0
3.243598567E1,-3.830310822E0,-2.854039192E0,8.616554260E0
3.245625677E1,-3.844667673E0,-2.834896564E0,8.573483467E0
3.247652786E1,-3.758526087E0,-2.753540754E0,8.554341316E0
3.249679901E1,-3.777668715E0,-2.739183664E0,8.592626572E0
3.251707010E1,-3.863810301E0,-2.791825771E0,8.621339798E0
3.253734119E1,-3.878167391E0,-2.815753937E0,8.587840080E0
3.255761229E1,-3.835096598E0,-2.748754978E0,8.539983749E0
3.257788338E1,-3.820739508E0,-2.700898647E0,8.530412674E0
3.259815448E1,-3.835096598E0,-2.739183664E0,8.530412674E0
3.261842557E1,-3.849453449E0,-2.787040234E0,8.573483467E0
3.263869666E1,-3.830310822E0,-2.782254457E0,8.587840080E0
3.265896776E1,-3.772883177E0,-2.763111830E0,8.583054543E0
3.267923885E1,-3.748954773E0,-2.763111830E0,8.606983185E0
3.269950994E1,-3.763311863E0,-2.777468920E0,8.635697365E0
3.271978104E1,-3.768097401E0,-2.796611547E0,8.583054543E0
3.274005213E1,-3.744169235E0,-2.782254457E0,8.573483467E0
3.276032322E1,-3.734597921E0,-2.791825771E0,8.626125336E0
3.278059432E1,-3.758526087E0,-2.834896564E0,8.678768158E0
3.280086541E1,-3.758526087E0,-2.834896564E0,8.616554260E0
3.282113651E1,-3.763311863E0,-2.787040234E0,8.530412674E0
3.284140760E1,-3.806382656E0,-2.772683144E0,8.539983749E0
3.286167869E1,-3.854238987E0,-2.806182861E0,8.597412109E0
3.288194979E1,-3.839882135E0,-2.825325251E0,8.606983185E0
3.290222088E1,-3.815953970E0,-2.787040234E0,8.563912392E0
3.292249192E1,-3.806382656E0,-2.763111830E0,8.525627136E0
3.294276302E1,-3.815953970E0,-2.787040234E0,8.578269005E0
3.296303406E1,-3.811168194E0,-2.782254457E0,8.626125336E0
3.298330520E1,-3.763311863E0,-2.748754978E0,8.621339798E0
3.300357630E1,-3.758526087E0,-2.763111830E0,8.578269005E0
3.302384739E1,-3.796811342E0,-2.767897606E0,8.587840080E0
3.304411849E1,-3.782454491E0,-2.772683144E0,8.621339798E0
3.306438958E1,-3.763311863E0,-2.772683144E0,8.621339798E0
3.308466067E1,-3.748954773E0,-2.796611547E0,8.616554260E0
3.310493171E1,-3.753740549E0,-2.801397085E0,8.597412109E0
3.312520281E1,-3.782454491E0,-2.772683144E0,8.587840080E0
3.314547390E1,-3.796811342E0,-2.787040234E0,8.611768723E0
3.316574500E1,-3.777668715E0,-2.791825771E0,8.621339798E0
3.318601604E1,-3.768097401E0,-2.763111830E0,8.602197647E0
3.320628713E1,-3.792025566E0,-2.758326292E0,8.568697929E0
3.322655823E1,-3.825525284E0,-2.782254457E0,8.616554260E0
3.324682932E1,-3.849453449E0,-2.796611547E0,8.616554260E0
3.326710041E1,-3.835096598E0,-2.806182861E0,8.578269005E0
3.328737151E1,-3.825525284E0,-2.796611547E0,8.535198212E0
3.330764255E1,-3.815953970E0,-2.767897606E0,8.578269005E0
3.332791364E1,-3.792025566E0,-2.748754978E0,8.621339798E0
3.334818474E1,-3.772883177E0,-2.753540754E0,8.611768723E0
3.336845583E1,-3.739383698E0,-2.753540754E0,8.602197647E0
3.338872692E1,-3.729812384E0,-2.763111830E0,8.635697365E0
3.340899802E1,-3.768097401E0,-2.787040234E0,8.650053978E0
3.342926906E1,-3.763311863E0,-2.806182861E0,8.587840080E0
3.344954015E1,-3.720241070E0,-2.777468920E0,8.573483467E0
3.346981124E1,-3.720241070E0,-2.772683144E0,8.592626572E0
3.349008234E1,-3.758526087E0,-2.782254457E0,8.626125336E0
3.351035338E1,-3.787240028E0,-2.767897606E0,8.616554260E0
3.353075338E1,-3.811168194E0,-2.767897606E0,8.621339798E0
3.355089557E1,-3.801596880E0,-2.791825771E0,8.606983185E0
3.357116666E1,-3.815953970E0,-2.767897606E0,8.554341316E0
3.359143770E1,-3.830310822E0,-2.767897606E0,8.559126854E0
3.361170874E1,-3.801596880E0,-2.777468920E0,8.592626572E0
3.363210875E1,-3.806382656E0,-2.791825771E0,8.602197647E0
3.365225093E1,-3.796811342E0,-2.830111027E0,8.592626572E0
3.367252203E1,-3.782454491E0,-2.810968399E0,8.592626572E0
3.369279307E1,-3.744169235E0,-2.777468920E0,8.597412109E0
3.371306416E1,-3.734597921E0,-2.743969440E0,8.578269005E0
3.373346416E1,-3.734597921E0,-2.748754978E0,8.616554260E0
3.375360630E1,-3.748954773E0,-2.791825771E0,8.650053978E0
3.377387739E1,-3.739383698E0,-2.763111830E0,8.616554260E0
3.379414848E1,-3.701098442E0,-2.753540754E0,8.559126854E0
3.381441953E1,-3.748954773E0,-2.772683144E0,8.606983185E0
3.383469062E1,-3.792025566E0,-2.806182861E0,8.630910873E0
3.385509062E1,-3.772883177E0,-2.825325251E0,8.592626572E0
3.387523276E1,-3.782454491E0,-2.801397085E0,8.583054543E0
3.389550385E1,-3.763311863E0,-2.791825771E0,8.592626572E0
3.391577489E1,-3.739383698E0,-2.782254457E0,8.597412109E0
3.393604593E1,-3.748954773E0,-2.767897606E0,8.597412109E0
3.395631703E1,-3.796811342E0,-2.748754978E0,8.602197647E0
3.397658812E1,-3.811168194E0,-2.729612350E0,8.592626572E0
3.399685916E1,-3.825525284E0,-2.753540754E0,8.587840080E0
3.401713026E1,-3.801596880E0,-2.787040234E0,8.592626572E0
3.403740130E1,-3.777668715E0,-2.806182861E0,8.583054543E0
3.405767239E1,-3.777668715E0,-2.758326292E0,8.606983185E0
3.407794343E1,-3.763311863E0,-2.772683144E0,8.616554260E0
3.409821453E1,-3.753740549E0,-2.796611547E0,8.587840080E0
3.411848557E1,-3.725026608E0,-2.806182861E0,8.606983185E0
3.413875661E1,-3.744169235E0,-2.806182861E0,8.621339798E0
3.415902770E1,-3.768097401E0,-2.796611547E0,8.611768723E0
3.417929875E1,-3.753740549E0,-2.787040234E0,8.606983185E0
3.419956979E1,-3.753740549E0,-2.787040234E0,8.606983185E0
3.421984088E1,-3.753740549E0,-2.763111830E0,8.578269005E0
3.424011192E1,-3.801596880E0,-2.743969440E0,8.583054543E0
3.426038302E1,-3.849453449E0,-2.734398127E0,8.592626572E0
3.428065406E1,-3.839882135E0,-2.724826813E0,8.583054543E0
3.430092515E1,-3.811168194E0,-2.724826813E0,8.578269005E0
3.432119619E1,-3.782454491E0,-2.739183664E0,8.559126854E0
3.434146724E1,-3.768097401E0,-2.782254457E0,8.563912392E0
3.436173833E1,-3.768097401E0,-2.810968399E0,8.611768723E0
3.438200937E1,-3.758526087E0,-2.810968399E0,8.640482903E0
3.440228041E1,-3.782454491E0,-2.830111027E0,8.635697365E0
3.442255151E1,-3.815953970E0,-2.854039192E0,8.578269005E0
3.444282255E1,-3.801596880E0,-2.839682341E0,8.559126854E0
3.446309359E1,-3.748954773E0,-2.782254457E0,8.554341316E0
3.448336468E1,-3.720241070E0,-2.753540754E0,8.630910873E0
3.450363572E1,-3.744169235E0,-2.748754978E0,8.640482903E0
3.452390682E1,-3.753740549E0,-2.743969440E0,8.621339798E0
3.454417786E1,-3.792025566E0,-2.772683144E0,8.587840080E0
3.456444890E1,-3.796811342E0,-2.815753937E0,8.602197647E0
3.458472000E1,-3.768097401E0,-2.791825771E0,8.611768723E0
3.460499104E1,-3.710669756E0,-2.753540754E0,8.583054543E0
3.462526208E1,-3.739383698E0,-2.743969440E0,8.573483467E0
3.464553312E1,-3.835096598E0,-2.767897606E0,8.611768723E0
3.466580421E1,-3.815953970E0,-2.753540754E0,8.621339798E0
3.468607526E1,-3.796811342E0,-2.715255499E0,8.578269005E0
3.470634630E1,-3.792025566E0,-2.705684185E0,8.516056061E0
3.472661739E1,-3.835096598E0,-2.710469961E0,8.535198212E0
3.474688843E1,-3.854238987E0,-2.715255499E0,8.621339798E0
3.476715948E1,-3.854238987E0,-2.691327333E0,8.621339798E0
3.478743052E1,-3.844667673E0,-2.700898647E0,8.592626572E0
3.480770161E1,-3.839882135E0,-2.729612350E0,8.597412109E0
3.482797265E1,-3.796811342E0,-2.729612350E0,8.573483467E0
3.484824369E1,-3.787240028E0,-2.782254457E0,8.568697929E0
3.486851474E1,-3.753740549E0,-2.868396044E0,8.602197647E0
3.488878583E1,-3.763311863E0,-2.911466837E0,8.650053978E0
3.490905687E1,-3.777668715E0,-2.854039192E0,8.630910873E0
3.492932791E1,-3.815953970E0,-2.782254457E0,8.539983749E0
3.494959895E1,-3.820739508E0,-2.772683144E0,8.539983749E0
3.496987005E1,-3.782454491E0,-2.787040234E0,8.606983185E0
3.499014109E1,-3.772883177E0,-2.734398127E0,8.645268440E0
3.501041213E1,-3.806382656E0,-2.657827854E0,8.587840080E0
3.503081213E1,-3.825525284E0,-2.672184706E0,8.554341316E0
3.505095416E1,-3.820739508E0,-2.724826813E0,8.611768723E0
3.507122526E1,-3.792025566E0,-2.743969440E0,8.640482903E0
3.509149635E1,-3.748954773E0,-2.720041037E0,8.578269005E0
3.511176739E1,-3.768097401E0,-2.724826813E0,8.539983749E0
3.513216739E1,-3.820739508E0,-2.753540754E0,8.606983185E0
3.515230948E1,-3.873381615E0,-2.810968399E0,8.683553696E0
3.517258052E1,-3.863810301E0,-2.796611547E0,8.626125336E0
3.519285156E1,-3.820739508E0,-2.758326292E0,8.549555779E0
3.521312260E1,-3.839882135E0,-2.767897606E0,8.559126854E0
3.523352260E1,-3.878167391E0,-2.748754978E0,8.597412109E0
3.525366468E1,-3.878167391E0,-2.724826813E0,8.578269005E0
3.527393578E1,-3.835096598E0,-2.710469961E0,8.539983749E0
3.529420682E1,-3.772883177E0,-2.715255499E0,8.602197647E0
3.531447786E1,-3.763311863E0,-2.691327333E0,8.654839516E0
3.533487786E1,-3.763311863E0,-2.705684185E0,8.597412109E0
3.535501994E1,-3.739383698E0,-2.763111830E0,8.616554260E0
3.537529098E1,-3.787240028E0,-2.801397085E0,8.664410591E0
3.539556203E1,-3.777668715E0,-2.753540754E0,8.611768723E0
3.541583307E1,-3.758526087E0,-2.729612350E0,8.568697929E0
3.543610411E1,-3.768097401E0,-2.743969440E0,8.592626572E0
3.545637515E1,-3.777668715E0,-2.748754978E0,8.645268440E0
3.547664619E1,-3.777668715E0,-2.696112871E0,8.645268440E0
3.549691724E1,-3.792025566E0,-2.686541557E0,8.563912392E0
3.551718828E1,-3.830310822E0,-2.720041037E0,8.568697929E0
3.553745932E1,-3.854238987E0,-2.729612350E0,8.611768723E0
3.555773036E1,-3.878167391E0,-2.729612350E0,8.587840080E0
3.557800140E1,-3.839882135E0,-2.724826813E0,8.592626572E0
3.559827244E1,-3.792025566E0,-2.681756020E0,8.602197647E0
3.561854349E1,-3.777668715E0,-2.696112871E0,8.616554260E0
3.563881453E1,-3.792025566E0,-2.724826813E0,8.640482903E0
3.565908557E1,-3.744169235E0,-2.720041037E0,8.592626572E0
3.567935661E1,-3.715455294E0,-2.734398127E0,8.621339798E0
3.569962765E1,-3.763311863E0,-2.724826813E0,8.664410591E0
3.571989869E1,-3.777668715E0,-2.734398127E0,8.645268440E0
3.574016968E1,-3.792025566E0,-2.734398127E0,8.626125336E0
3.576044072E1,-3.792025566E0,-2.705684185E0,8.587840080E0
3.578071177E1,-3.815953970E0,-2.676970243E0,8.578269005E0
3.580111177E1,-3.806382656E0,-2.672184706E0,8.592626572E0
3.582125385E1,-3.796811342E0,-2.700898647E0,8.630910873E0
3.584152489E1,-3.806382656E0,-2.691327333E0,8.650053978E0
3.586179588E1,-3.801596880E0,-2.662613392E0,8.616554260E0
3.588206692E1,-3.815953970E0,-2.686541557E0,8.592626572E0
3.590233796E1,-3.806382656E0,-2.705684185E0,8.611768723E0
3.592260901E1,-3.796811342E0,-2.720041037E0,8.640482903E0
3.594288000E1,-3.806382656E0,-2.724826813E0,8.640482903E0
3.596315104E1,-3.796811342E0,-2.720041037E0,8.606983185E0
3.598342208E1,-3.777668715E0,-2.700898647E0,8.597412109E0
3.600369307E1,-3.763311863E0,-2.691327333E0,8.616554260E0
3.602396411E1,-3.720241070E0,-2.676970243E0,8.635697365E0
3.604423515E1,-3.729812384E0,-2.662613392E0,8.650053978E0
3.606450619E1,-3.772883177E0,-2.653042078E0,8.640482903E0
3.608477724E1,-3.763311863E0,-2.667398930E0,8.645268440E0
3.610504823E1,-3.744169235E0,-2.667398930E0,8.659625053E0
3.612531927E1,-3.768097401E0,-2.686541557E0,8.621339798E0
3.614559031E1,-3.801596880E0,-2.705684185E0,8.602197647E0
3.616586135E1,-3.806382656E0,-2.724826813E0,8.626125336E0
3.618613234E1,-3.806382656E0,-2.739183664E0,8.621339798E0
3.620640338E1,-3.801596880E0,-2.715255499E0,8.602197647E0
3.622667442E1,-3.806382656E0,-2.696112871E0,8.630910873E0
3.624694541E1,-3.801596880E0,-2.691327333E0,8.630910873E0
3.626721645E1,-3.782454491E0,-2.672184706E0,8.630910873E0
3.628748750E1,-3.768097401E0,-2.686541557E0,8.630910873E0
3.630775848E1,-3.792025566E0,-2.705684185E0,8.611768723E0
3.632802953E1,-3.792025566E0,-2.710469961E0,8.611768723E0
3.634830052E1,-3.772883177E0,-2.667398930E0,8.635697365E0
3.636857156E1,-3.748954773E0,-2.672184706E0,8.654839516E0
3.638884260E1,-3.787240028E0,-2.724826813E0,8.645268440E0
3.640911364E1,-3.768097401E0,-2.710469961E0,8.606983185E0
3.642938458E1,-3.753740549E0,-2.710469961E0,8.587840080E0
3.644965567E1,-3.772883177E0,-2.696112871E0,8.621339798E0
3.646992666E1,-3.777668715E0,-2.681756020E0,8.650053978E0
3.649019770E1,-3.763311863E0,-2.681756020E0,8.626125336E0
3.651046875E1,-3.777668715E0,-2.681756020E0,8.611768723E0
3.653086874E1,-3.777668715E0,-2.667398930E0,8.606983185E0
3.655101078E1,-3.777668715E0,-2.633899450E0,8.621339798E0
3.657128177E1,-3.782454491E0,-2.643470764E0,8.640482903E0
3.659155281E1,-3.801596880E0,-2.700898647E0,8.678768158E0
3.661182385E1,-3.796811342E0,-2.700898647E0,8.635697365E0
3.663222385E1,-3.772883177E0,-2.686541557E0,8.583054543E0
3.665236588E1,-3.768097401E0,-2.691327333E0,8.587840080E0
3.667263692E1,-3.801596880E0,-2.700898647E0,8.606983185E0
3.669290791E1,-3.820739508E0,-2.720041037E0,8.611768723E0
3.671317895E1,-3.815953970E0,-2.710469961E0,8.626125336E0
3.673357895E1,-3.792025566E0,-2.720041037E0,8.635697365E0
3.675372098E1,-3.744169235E0,-2.715255499E0,8.626125336E0
3.677399203E1,-3.772883177E0,-2.681756020E0,8.602197647E0
3.679426307E1,-3.801596880E0,-2.686541557E0,8.602197647E0
3.681453406E1,-3.792025566E0,-2.700898647E0,8.630910873E0
3.683480505E1,-3.768097401E0,-2.686541557E0,8.626125336E0
3.685520505E1,-3.758526087E0,-2.696112871E0,8.630910873E0
3.687534713E1,-3.792025566E0,-2.691327333E0,8.616554260E0
3.689561812E1,-3.825525284E0,-2.686541557E0,8.611768723E0
3.691588916E1,-3.811168194E0,-2.705684185E0,8.606983185E0
3.693616015E1,-3.801596880E0,-2.705684185E0,8.630910873E0
3.695643119E1,-3.792025566E0,-2.686541557E0,8.621339798E0
3.697683119E1,-3.787240028E0,-2.700898647E0,8.597412109E0
3.699697323E1,-3.792025566E0,-2.734398127E0,8.621339798E0
3.701724421E1,-3.782454491E0,-2.715255499E0,8.640482903E0
3.703751526E1,-3.772883177E0,-2.705684185E0,8.635697365E0
3.705778630E1,-3.777668715E0,-2.715255499E0,8.616554260E0
3.707805729E1,-3.787240028E0,-2.715255499E0,8.592626572E0
3.709832833E1,-3.777668715E0,-2.676970243E0,8.616554260E0
3.711859932E1,-3.758526087E0,-2.667398930E0,8.626125336E0
3.713887036E1,-3.787240028E0,-2.686541557E0,8.640482903E0
3.715914135E1,-3.806382656E0,-2.705684185E0,8.611768723E0
3.717941239E1,-3.758526087E0,-2.734398127E0,8.597412109E0
3.719968338E1,-3.772883177E0,-2.715255499E0,8.621339798E0
3.721995442E1,-3.801596880E0,-2.700898647E0,8.602197647E0
3.724022541E1,-3.796811342E0,-2.676970243E0,8.616554260E0
3.726049640E1,-3.763311863E0,-2.672184706E0,8.650053978E0
3.728076744E1,-3.734597921E0,-2.667398930E0,8.659625053E0
3.730103843E1,-3.782454491E0,-2.691327333E0,8.611768723E0
3.732130948E1,-3.820739508E0,-2.700898647E0,8.573483467E0
3.734158046E1,-3.839882135E0,-2.729612350E0,8.606983185E0
3.736185151E1,-3.835096598E0,-2.734398127E0,8.645268440E0
3.738212250E1,-3.815953970E0,-2.729612350E0,8.597412109E0
3.740239349E1,-3.806382656E0,-2.720041037E0,8.563912392E0
3.742266448E1,-3.825525284E0,-2.715255499E0,8.597412109E0
3.744293552E1,-3.844667673E0,-2.720041037E0,8.635697365E0
3.746320651E1,-3.811168194E0,-2.705684185E0,8.640482903E0
3.748347755E1,-3.748954773E0,-2.686541557E0,8.611768723E0
3.750374854E1,-3.748954773E0,-2.686541557E0,8.592626572E0
3.752401953E1,-3.777668715E0,-2.696112871E0,8.602197647E0
3.754429057E1,-3.782454491E0,-2.691327333E0,8.645268440E0
3.756456156E1,-3.763311863E0,-2.691327333E0,8.635697365E0
3.758483260E1,-3.753740549E0,-2.691327333E0,8.597412109E0
3.760510359E1,-3.787240028E0,-2.700898647E0,8.602197647E0
3.762537458E1,-3.806382656E0,-2.720041037E0,8.635697365E0
3.764564562E1,-3.772883177E0,-2.710469961E0,8.645268440E0
3.766591661E1,-3.758526087E0,-2.662613392E0,8.587840080E0
3.768618765E1,-3.792025566E0,-2.681756020E0,8.578269005E0
3.770645864E1,-3.811168194E0,-2.720041037E0,8.616554260E0
3.772672963E1,-3.806382656E0,-2.715255499E0,8.630910873E0
3.774700062E1,-3.777668715E0,-2.715255499E0,8.621339798E0
3.776727166E1,-3.792025566E0,-2.705684185E0,8.592626572E0
3.778754265E1,-3.796811342E0,-2.700898647E0,8.611768723E0
3.780781364E1,-3.796811342E0,-2.705684185E0,8.635697365E0
3.782808468E1,-3.801596880E0,-2.696112871E0,8.621339798E0
3.784835567E1,-3.777668715E0,-2.696112871E0,8.606983185E0
3.786862666E1,-3.772883177E0,-2.653042078E0,8.602197647E0
3.788889765E1,-3.806382656E0,-2.676970243E0,8.616554260E0
3.790916869E1,-3.825525284E0,-2.700898647E0,8.611768723E0
3.792943968E1,-3.787240028E0,-2.715255499E0,8.621339798E0
3.794971067E1,-3.768097401E0,-2.710469961E0,8.630910873E0
3.796998171E1,-3.782454491E0,-2.696112871E0,8.616554260E0
3.799025270E1,-3.801596880E0,-2.710469961E0,8.592626572E0
3.801052374E1,-3.801596880E0,-2.710469961E0,8.606983185E0
3.803092374E1,-3.796811342E0,-2.691327333E0,8.635697365E0
3.805106572E1,-3.787240028E0,-2.705684185E0,8.640482903E0
3.807133671E1,-3.806382656E0,-2.691327333E0,8.616554260E0
3.809160776E1,-3.796811342E0,-2.681756020E0,8.621339798E0
3.811187875E1,-3.796811342E0,-2.700898647E0,8.645268440E0
3.813227874E1,-3.782454491E0,-2.681756020E0,8.606983185E0
3.815242078E1,-3.763311863E0,-2.686541557E0,8.568697929E0
3.817269177E1,-3.796811342E0,-2.691327333E0,8.616554260E0
3.819296276E1,-3.806382656E0,-2.710469961E0,8.645268440E0
3.821323380E1,-3.796811342E0,-2.710469961E0,8.635697365E0
3.823363380E1,-3.777668715E0,-2.700898647E0,8.616554260E0
3.825377578E1,-3.772883177E0,-2.681756020E0,8.616554260E0
3.827404682E1,-3.758526087E0,-2.691327333E0,8.640482903E0
3.829431781E1,-3.772883177E0,-2.696112871E0,8.611768723E0
3.831458880E1,-3.801596880E0,-2.700898647E0,8.611768723E0
3.833498880E1,-3.792025566E0,-2.696112871E0,8.611768723E0
3.835513083E1,-3.772883177E0,-2.672184706E0,8.621339798E0
3.837540182E1,-3.753740549E0,-2.676970243E0,8.630910873E0
3.839567281E1,-3.777668715E0,-2.672184706E0,8.616554260E0
3.841594385E1,-3.787240028E0,-2.710469961E0,8.630910873E0
3.843621484E1,-3.777668715E0,-2.715255499E0,8.635697365E0
3.845648583E1,-3.772883177E0,-2.686541557E0,8.592626572E0
3.847675682E1,-3.796811342E0,-2.681756020E0,8.587840080E0
3.849702786E1,-3.806382656E0,-2.705684185E0,8.645268440E0
3.851729885E1,-3.772883177E0,-2.686541557E0,8.654839516E0
3.853756984E1,-3.753740549E0,-2.710469961E0,8.626125336E0
3.855784083E1,-3.758526087E0,-2.720041037E0,8.587840080E0
3.857811187E1,-3.782454491E0,-2.700898647E0,8.630910873E0
3.859838286E1,-3.777668715E0,-2.710469961E0,8.659625053E0
3.861865385E1,-3.782454491E0,-2.720041037E0,8.640482903E0
3.863892484E1,-3.792025566E0,-2.705684185E0,8.611768723E0
3.865919588E1,-3.768097401E0,-2.648256540E0,8.606983185E0
3.867946687E1,-3.782454491E0,-2.662613392E0,8.616554260E0
3.869973786E1,-3.796811342E0,-2.686541557E0,8.621339798E0
3.872000885E1,-3.782454491E0,-2.691327333E0,8.621339798E0
3.874027989E1,-3.763311863E0,-2.700898647E0,8.645268440E0
3.876055088E1,-3.763311863E0,-2.686541557E0,8.626125336E0
3.878082187E1,-3.768097401E0,-2.700898647E0,8.592626572E0
3.880109291E1,-3.777668715E0,-2.710469961E0,8.640482903E0
3.882136390E1,-3.744169235E0,-2.705684185E0,8.678768158E0
3.884163489E1,-3.748954773E0,-2.686541557E0,8.645268440E0
3.886190588E1,-3.758526087E0,-2.662613392E0,8.626125336E0
3.888217692E1,-3.782454491E0,-2.700898647E0,8.650053978E0
3.890244791E1,-3.801596880E0,-2.715255499E0,8.650053978E0
3.892271890E1,-3.772883177E0,-2.681756020E0,8.573483467E0
3.894298989E1,-3.768097401E0,-2.672184706E0,8.597412109E0
3.896326093E1,-3.782454491E0,-2.681756020E0,8.650053978E0
3.898353192E1,-3.777668715E0,-2.686541557E0,8.673981667E0
3.900380291E1,-3.763311863E0,-2.676970243E0,8.621339798E0
3.902407390E1,-3.748954773E0,-2.672184706E0,8.592626572E0
3.904434484E1,-3.734597921E0,-2.672184706E0,8.616554260E0
3.906461588E1,-3.729812384E0,-2.676970243E0,8.654839516E0
3.908488692E1,-3.748954773E0,-2.686541557E0,8.664410591E0
3.910515786E1,-3.753740549E0,-2.681756020E0,8.635697365E0
3.912542890E1,-3.763311863E0,-2.700898647E0,8.602197647E0
3.914569989E1,-3.777668715E0,-2.700898647E0,8.635697365E0
3.916597093E1,-3.763311863E0,-2.696112871E0,8.650053978E0
3.918624192E1,-3.782454491E0,-2.696112871E0,8.630910873E0
3.920651291E1,-3.758526087E0,-2.686541557E0,8.645268440E0
3.922678390E1,-3.744169235E0,-2.681756020E0,8.630910873E0
3.924705494E1,-3.763311863E0,-2.676970243E0,8.635697365E0
3.926732593E1,-3.787240028E0,-2.676970243E0,8.616554260E0
3.928759692E1,-3.792025566E0,-2.681756020E0,8.630910873E0
3.930786791E1,-3.792025566E0,-2.700898647E0,8.635697365E0
3.932813895E1,-3.772883177E0,-2.686541557E0,8.630910873E0
3.934840994E1,-3.777668715E0,-2.686541557E0,8.626125336E0
3.936868093E1,-3.815953970E0,-2.691327333E0,8.630910873E0
3.938895198E1,-3.820739508E0,-2.715255499E0,8.611768723E0
3.940922296E1,-3.753740549E0,-2.700898647E0,8.626125336E0
3.942962296E1,-3.715455294E0,-2.662613392E0,8.616554260E0
3.944976494E1,-3.768097401E0,-2.686541557E0,8.635697365E0
3.947003598E1,-3.801596880E0,-2.696112871E0,8.630910873E0
3.949030698E1,-3.768097401E0,-2.700898647E0,8.630910873E0
3.951057796E1,-3.763311863E0,-2.696112871E0,8.626125336E0
3.953097796E1,-3.772883177E0,-2.686541557E0,8.602197647E0
3.955112000E1,-3.787240028E0,-2.676970243E0,8.606983185E0
3.957139098E1,-3.811168194E0,-2.681756020E0,8.626125336E0
3.959166198E1,-3.801596880E0,-2.676970243E0,8.659625053E0
3.961193302E1,-3.772883177E0,-2.667398930E0,8.630910873E0
3.963233302E1,-3.758526087E0,-2.672184706E0,8.626125336E0
3.965247500E1,-3.792025566E0,-2.700898647E0,8.630910873E0
3.967274599E1,-3.811168194E0,-2.720041037E0,8.635697365E0
3.969301698E1,-3.777668715E0,-2.700898647E0,8.616554260E0
3.971328802E1,-3.748954773E0,-2.686541557E0,8.616554260E0
3.973368802E1,-3.787240028E0,-2.696112871E0,8.626125336E0
3.975383000E1,-3.811168194E0,-2.710469961E0,8.626125336E0
3.977410099E1,-3.811168194E0,-2.710469961E0,8.645268440E0
3.979437203E1,-3.772883177E0,-2.691327333E0,8.602197647E0
3.981464302E1,-3.768097401E0,-2.686541557E0,8.602197647E0
3.983491401E1,-3.801596880E0,-2.696112871E0,8.630910873E0
3.985531401E1,-3.806382656E0,-2.691327333E0,8.616554260E0
3.987545604E1,-3.796811342E0,-2.681756020E0,8.611768723E0
3.989572703E1,-3.782454491E0,-2.676970243E0,8.602197647E0
3.991599802E1,-3.796811342E0,-2.686541557E0,8.616554260E0
3.993626901E1,-3.796811342E0,-2.672184706E0,8.630910873E0
3.995654005E1,-3.777668715E0,-2.667398930E0,8.611768723E0
3.997681104E1,-3.753740549E0,-2.691327333E0,8.630910873E0
3.999708203E1,-3.782454491E0,-2.710469961E0,8.626125336E0
4.001735302E1,-3.787240028E0,-2.710469961E0,8.606983185E0
4.003762406E1,-3.768097401E0,-2.705684185E0,8.602197647E0
4.005789505E1,-3.782454491E0,-2.710469961E0,8.587840080E0
4.007816604E1,-3.815953970E0,-2.705684185E0,8.616554260E0
4.009843703E1,-3.782454491E0,-2.710469961E0,8.640482903E0
4.011870807E1,-3.758526087E0,-2.686541557E0,8.597412109E0
4.013897906E1,-3.792025566E0,-2.696112871E0,8.602197647E0
4.015925005E1,-3.835096598E0,-2.724826813E0,8.606983185E0
4.017952104E1,-3.825525284E0,-2.734398127E0,8.630910873E0
4.019979203E1,-3.753740549E0,-2.653042078E0,8.621339798E0
4.022006307E1,-3.768097401E0,-2.662613392E0,8.621339798E0
4.024033406E1,-3.811168194E0,-2.720041037E0,8.621339798E0
4.026060505E1,-3.815953970E0,-2.720041037E0,8.621339798E0
4.028087604E1,-3.777668715E0,-2.696112871E0,8.616554260E0
4.030114698E1,-3.782454491E0,-2.691327333E0,8.611768723E0
4.032141802E1,-3.777668715E0,-2.686541557E0,8.611768723E0
4.034168906E1,-3.777668715E0,-2.710469961E0,8.621339798E0
4.036196005E1,-3.782454491E0,-2.705684185E0,8.654839516E0
4.038223104E1,-3.777668715E0,-2.681756020E0,8.626125336E0
4.040250203E1,-3.792025566E0,-2.676970243E0,8.602197647E0
4.042277302E1,-3.763311863E0,-2.681756020E0,8.626125336E0
4.044304406E1,-3.792025566E0,-2.710469961E0,8.640482903E0
4.046331500E1,-3.811168194E0,-2.705684185E0,8.621339798E0
4.048358604E1,-3.801596880E0,-2.691327333E0,8.587840080E0
4.050385703E1,-3.801596880E0,-2.696112871E0,8.592626572E0
4.052412802E1,-3.811168194E0,-2.715255499E0,8.626125336E0
4.054439901E1,-3.825525284E0,-2.705684185E0,8.635697365E0
4.056467000E1,-3.801596880E0,-2.686541557E0,8.630910873E0
4.058494104E1,-3.782454491E0,-2.686541557E0,8.616554260E0
4.060521198E1,-3.801596880E0,-2.691327333E0,8.587840080E0
4.062548302E1,-3.825525284E0,-2.700898647E0,8.616554260E0
4.064575395E1,-3.825525284E0,-2.710469961E0,8.626125336E0
4.066602500E1,-3.796811342E0,-2.681756020E0,8.621339798E0
4.068629598E1,-3.777668715E0,-2.676970243E0,8.621339798E0
4.070656698E1,-3.758526087E0,-2.681756020E0,8.597412109E0
4.072683802E1,-3.763311863E0,-2.700898647E0,8.616554260E0
4.074710901E1,-3.772883177E0,-2.715255499E0,8.640482903E0
4.076738000E1,-3.782454491E0,-2.705684185E0,8.626125336E0
4.078765098E1,-3.792025566E0,-2.705684185E0,8.616554260E0
4.080792198E1,-3.772883177E0,-2.696112871E0,8.606983185E0
4.082832198E1,-3.796811342E0,-2.696112871E0,8.621339798E0
4.084846395E1,-3.792025566E0,-2.686541557E0,8.635697365E0
4.086873494E1,-3.782454491E0,-2.696112871E0,8.606983185E0
4.088900593E1,-3.777668715E0,-2.691327333E0,8.602197647E0
4.090927692E1,-3.777668715E0,-2.681756020E0,8.611768723E0
4.092954786E1,-3.801596880E0,-2.676970243E0,8.640482903E0
4.094981890E1,-3.801596880E0,-2.696112871E0,8.640482903E0
4.097008989E1,-3.801596880E0,-2.705684185E0,8.606983185E0
4.099036093E1,-3.806382656E0,-2.696112871E0,8.602197647E0
4.101063192E1,-3.782454491E0,-2.662613392E0,8.606983185E0
4.103103192E1,-3.777668715E0,-2.686541557E0,8.630910873E0
4.105117390E1,-3.772883177E0,-2.686541557E0,8.640482903E0
4.107144494E1,-3.739383698E0,-2.681756020E0,8.616554260E0
4.109171593E1,-3.753740549E0,-2.700898647E0,8.597412109E0
4.111198692E1,-3.792025566E0,-2.691327333E0,8.630910873E0
4.113238692E1,-3.792025566E0,-2.681756020E0,8.630910873E0
4.115252890E1,-3.782454491E0,-2.696112871E0,8.626125336E0
4.117279989E1,-3.782454491E0,-2.691327333E0,8.626125336E0
4.119307088E1,-3.772883177E0,-2.676970243E0,8.635697365E0
4.121334187E1,-3.777668715E0,-2.653042078E0,8.616554260E0
4.123374187E1,-3.782454491E0,-2.676970243E0,8.630910873E0
4.125388390E1,-3.792025566E0,-2.691327333E0,8.664410591E0
4.127415489E1,-3.787240028E0,-2.700898647E0,8.645268440E0
4.129442588E1,-3.748954773E0,-2.672184706E0,8.592626572E0
4.131469687E1,-3.777668715E0,-2.672184706E0,8.602197647E0
4.133509687E1,-3.792025566E0,-2.700898647E0,8.635697365E0
4.135523885E1,-3.787240028E0,-2.696112871E0,8.645268440E0
4.137550989E1,-3.763311863E0,-2.691327333E0,8.640482903E0
4.139578088E1,-3.768097401E0,-2.676970243E0,8.592626572E0
4.141605187E1,-3.782454491E0,-2.672184706E0,8.611768723E0
4.143632286E1,-3.763311863E0,-2.686541557E0,8.659625053E0
4.145659385E1,-3.772883177E0,-2.676970243E0,8.645268440E0
4.147686484E1,-3.772883177E0,-2.657827854E0,8.626125336E0
4.149713583E1,-3.787240028E0,-2.657827854E0,8.621339798E0
4.151740682E1,-3.768097401E0,-2.662613392E0,8.630910873E0
4.153767786E1,-3.758526087E0,-2.662613392E0,8.640482903E0
4.155794885E1,-3.758526087E0,-2.672184706E0,8.626125336E0
4.157821984E1,-3.763311863E0,-2.696112871E0,8.621339798E0
4.159849083E1,-3.777668715E0,-2.700898647E0,8.626125336E0
4.161876182E1,-3.739383698E0,-2.691327333E0,8.635697365E0
4.163903281E1,-3.729812384E0,-2.686541557E0,8.630910873E0
4.165930380E1,-3.763311863E0,-2.696112871E0,8.650053978E0
4.167957479E1,-3.744169235E0,-2.691327333E0,8.664410591E0
4.169984578E1,-3.729812384E0,-2.662613392E0,8.645268440E0
4.172011677E1,-3.748954773E0,-2.676970243E0,8.640482903E0
4.174038776E1,-3.758526087E0,-2.691327333E0,8.673981667E0
4.176065874E1,-3.748954773E0,-2.676970243E0,8.654839516E0
4.178092974E1,-3.763311863E0,-2.681756020E0,8.606983185E0
4.180120072E1,-3.768097401E0,-2.681756020E0,8.592626572E0
4.182147171E1,-3.748954773E0,-2.653042078E0,8.645268440E0
4.184174265E1,-3.758526087E0,-2.681756020E0,8.669196129E0
4.186201369E1,-3.744169235E0,-2.696112871E0,8.635697365E0
4.188228468E1,-3.753740549E0,-2.696112871E0,8.621339798E0
4.190255567E1,-3.768097401E0,-2.724826813E0,8.640482903E0
4.192282666E1,-3.777668715E0,-2.705684185E0,8.616554260E0
4.194309765E1,-3.777668715E0,-2.686541557E0,8.597412109E0
4.196336864E1,-3.782454491E0,-2.676970243E0,8.659625053E0
4.198363963E1,-3.768097401E0,-2.676970243E0,8.693124771E0
4.200391062E1,-3.739383698E0,-2.696112871E0,8.645268440E0
4.202418161E1,-3.739383698E0,-2.648256540E0,8.602197647E0
4.204445260E1,-3.744169235E0,-2.662613392E0,8.635697365E0
4.206472359E1,-3.768097401E0,-2.705684185E0,8.683553696E0
4.208499453E1,-3.753740549E0,-2.667398930E0,8.602197647E0
4.210526546E1,-3.744169235E0,-2.648256540E0,8.583054543E0
