"Time (s)","Gyroscope x (rad/s)","Gyroscope y (rad/s)","Gyroscope z (rad/s)"
2.698324600E-2,-1.809616536E-1,-3.354249001E-1,-2.777675092E-1
4.727913100E-2,-2.191779912E-1,-1.990711391E-1,-2.367548496E-1
6.737600600E-2,-2.085253596E-1,1.731053460E-3,-2.495380044E-1
8.765111000E-2,-1.575258672E-1,5.645897239E-2,-3.757717609E-1
1.079256410E-1,-1.282311082E-1,1.177116334E-1,-5.520728827E-1
1.281997040E-1,-1.447426975E-1,-5.898897350E-2,-7.825692892E-1
1.484734540E-1,-1.900164038E-1,-2.113216817E-1,-9.151946306E-1
1.687468390E-1,-1.047953144E-1,-3.892207146E-1,-1.215998411E0
1.890200160E-1,1.930790395E-2,-8.141277432E-1,-1.488173366E0
2.092930370E-1,3.090596199E-1,-1.396693826E0,-1.850229740E0
2.295657980E-1,6.833665967E-1,-2.208691120E0,-2.141046762E0
2.498386100E-1,1.189100519E-1,-2.124668360E0,-2.088316202E0
2.701112660E-1,-1.665806025E-1,-1.503220201E0,-1.950364590E0
2.903838190E-1,-4.940159991E-2,-1.161803126E0,-1.824663401E0
3.106560060E-1,-5.259739161E-1,-2.640522122E-1,-1.351286888E0
3.310562660E-1,-9.114661813E-1,2.753706574E-1,-7.159903049E-1
3.512009540E-1,-1.085636854E0,7.162566185E-1,-3.289001584E-1
3.714734540E-1,-1.191630483E0,1.054477811E0,-4.423507154E-1
3.917457460E-1,-1.198554754E0,9.926925302E-1,-5.962813497E-1
4.120180890E-1,-1.127182126E0,5.836313367E-1,-8.065377474E-1
4.322904330E-1,-1.556350231E0,-7.539403439E-1,-1.147954702E0
4.525627250E-1,-1.916808724E0,-3.620564938E-1,-1.048352599E0
4.728350160E-1,-1.729455471E0,9.644630551E-1,-5.653886795E-1
4.931073080E-1,-1.363537431E0,9.186567068E-1,-3.448790908E-1
5.133796000E-1,-1.180445313E0,4.554001987E-1,-3.565970063E-1
5.336518390E-1,-1.119192600E0,-1.997369342E-3,-3.518033028E-1
5.539241830E-1,-9.013462067E-1,-7.235803008E-1,-3.688475490E-1
5.741964230E-1,-8.209187984E-1,-6.591318846E-1,-4.359591305E-1
5.944686620E-1,-1.012133598E0,5.912213027E-2,-4.615254700E-1
6.147408500E-1,-1.335307956E0,5.246423483E-1,-3.795001805E-1
6.350130890E-1,-1.767272353E0,2.572611570E-1,-1.328916401E-1
6.552852770E-1,-2.031857252E0,-2.756369673E-2,2.227732539E-1
6.755575690E-1,-2.048368931E0,8.522109129E-3,5.150549412E-1
6.958298080E-1,-1.708150268E0,9.853688627E-2,5.241097212E-1
7.161019960E-1,-1.018525243E0,-1.058605760E-1,3.740406930E-1
7.363742350E-1,-3.635212183E-1,-4.083954394E-1,3.032006621E-1
7.566464750E-1,-1.511342824E-1,-5.181176066E-1,3.639206886E-1
7.769186100E-1,-2.043974549E-1,-5.170523524E-1,5.581981540E-1
7.971909020E-1,-2.825611830E-1,-5.994771123E-1,7.206508517E-1
8.174631410E-1,-4.221107066E-1,-6.117276549E-1,6.370276809E-1
8.377353290E-1,-5.621928573E-1,-4.467449486E-1,4.857602119E-1
8.580075160E-1,-5.067991614E-1,-4.861596823E-1,6.295707822E-1
8.782797560E-1,-2.841590643E-1,-7.390266657E-1,9.438235760E-1
8.985519440E-1,4.926844500E-3,-8.088014126E-1,1.013997793E0
9.188241830E-1,7.629951090E-2,-3.684480488E-1,8.857667446E-1
9.390963710E-1,2.094574571E-1,-8.082687855E-2,7.201182246E-1
9.593686100E-1,4.095938802E-1,-4.297007322E-1,6.077328920E-1
9.796407980E-1,5.597960353E-1,-3.988080621E-1,5.411539078E-1
9.999129850E-1,5.805686712E-1,1.331579551E-4,4.410191476E-1
1.020185173E0,5.305013061E-1,2.727074921E-1,3.362238407E-1
1.040585173E0,5.134570599E-1,1.438105851E-1,2.872217000E-1
1.060729548E0,4.452801943E-1,2.130527347E-1,1.982721984E-1
1.081001787E0,3.733749092E-1,4.159854650E-1,8.908267319E-2
1.101273975E0,2.808301151E-1,2.423474789E-1,-1.957421936E-2
1.121546214E0,1.940111369E-1,-4.660528619E-3,-1.584579647E-1
1.141818402E0,2.729738131E-2,7.989477366E-2,-2.724411786E-1
1.162090589E0,-3.912180662E-1,2.572611570E-1,-4.775044322E-1
1.182362777E0,-4.396875799E-1,7.231808305E-1,-4.737760127E-1
1.202634964E0,-2.314285189E-1,6.363618970E-1,-1.143826842E-1
1.223034964E0,9.440898895E-2,3.265033066E-1,3.229080439E-1
1.243179339E0,3.936149180E-1,1.560611278E-1,4.054659605E-1
1.263451527E0,5.427518487E-1,-1.010668874E-1,3.996070325E-1
1.283723714E0,6.732466221E-1,-1.681784987E-1,3.079943359E-1
1.303995902E0,6.796382070E-1,-4.110586047E-1,3.271690905E-1
1.324268037E0,7.637940049E-1,-8.343677521E-1,6.679202914E-1
1.344540225E0,1.032639980E0,-1.135171533E0,1.403351665E0
1.364812360E0,1.040096760E0,-9.930920005E-1,1.847433448E0
1.385084600E0,8.882967234E-1,-6.090644598E-1,2.017343044E0
1.405356735E0,5.864276290E-1,-4.584628344E-1,1.851694465E0
1.425756735E0,3.691138625E-1,-1.081908345E0,1.449690700E0
1.446059027E0,8.749809265E-1,-3.924165070E-1,4.479433596E-1
1.466331266E0,1.305347443E0,-1.649827063E-1,-2.298306376E-1
1.486446110E0,1.615206003E0,2.173137814E-1,-3.214432895E-1
1.506718141E0,1.582715511E0,6.427534223E-1,-1.616537571E-1
1.527118141E0,1.865010262E0,1.160871029E0,-3.289001584E-1
1.547405381E0,2.182325840E0,1.408012271E0,-6.952176690E-1
1.567529027E0,2.395378351E0,1.730654001E0,-1.259141564E0
1.587802152E0,2.662093878E0,1.975664616E0,-1.871535063E0
1.608075173E0,2.743053913E0,2.176333666E0,-2.200168848E0
1.628347933E0,2.777674913E0,2.494314909E0,-2.283126354E0
1.648620641E0,2.412955284E0,3.032139778E0,-2.451437950E0
1.668893194E0,2.163151026E0,2.998584032E0,-3.093126059E0
1.689165641E0,2.099767685E0,2.333460093E0,-3.629353285E0
1.709438141E0,1.718003988E0,1.869138241E0,-3.438671112E0
1.729710433E0,1.087501049E0,1.652889729E0,-2.957304955E0
1.749982777E0,6.897581816E-1,1.423458576E0,-2.827875376E0
1.770255016E0,5.976129174E-1,1.034237862E0,-2.802974939E0
1.790527308E0,5.960150361E-1,4.580633640E-1,-2.415751696E0
1.810799496E0,5.352949500E-1,-1.090563685E-1,-1.970071912E0
1.831071735E0,3.627222776E-1,-7.352982163E-1,-1.518533349E0
1.851343923E0,9.121319652E-2,-9.824393988E-1,-9.364998937E-1
1.871616110E0,-1.127847880E-1,-7.550055981E-1,-5.057339072E-1
1.891888298E0,-1.154479459E-1,-3.141196072E-1,-6.053360701E-1
1.912160433E0,1.327584833E-1,-1.474058628E-1,-9.892304540E-1
1.932432621E0,4.985433817E-1,-1.532648057E-1,-1.068592548E0
1.952704756E0,6.641919017E-1,-9.520793706E-2,-8.550072312E-1
1.972976891E0,6.034718752E-1,-8.988162130E-2,-7.724493146E-1
1.993249079E0,4.942823350E-1,-2.054627240E-1,-7.468829751E-1
2.013521214E0,4.181159735E-1,-6.889592409E-1,-6.218476295E-1
2.033793350E0,3.090596199E-1,-1.137834668E0,-4.194475710E-1
2.054065485E0,1.774995476E-1,-1.208142161E0,-2.095906287E-1
2.074337621E0,8.801741153E-2,-8.050730228E-1,-3.874896467E-2
2.094609756E0,-1.117195264E-1,-4.206459820E-1,1.583248079E-1
2.114881891E0,-3.965443969E-1,-2.928143442E-1,1.167795286E-1
2.135154027E0,-3.864243925E-1,-1.868206114E-1,-1.201084778E-1
2.155426162E0,-1.804290265E-1,-4.350270331E-1,-3.624559641E-1
2.175698246E0,-3.715106845E-2,-7.992140651E-1,-3.187801540E-1
2.195970381E0,-1.127847880E-1,-7.560708523E-1,-8.295740932E-2
2.216242516E0,-2.351569533E-1,-7.856319658E-3,1.391500682E-1
2.236514600E0,-5.174518228E-1,1.033305749E-1,-7.496792823E-2
2.256786735E0,-5.313002467E-1,3.994738683E-2,-1.398158520E-1
2.277058871E0,-4.151864946E-1,-1.298290044E-1,1.198421582E-3
2.297330954E0,-3.677822649E-1,-2.246374637E-1,1.322258562E-1
2.317603089E0,-3.299654126E-1,-8.349003643E-2,1.641837656E-1
2.337875225E0,-1.852227151E-1,1.651158631E-1,1.025316212E-2
2.358147308E0,1.717737690E-2,1.922800839E-1,-1.877527237E-1
2.378419444E0,7.257108390E-2,-2.649843320E-2,-1.802958697E-1
2.398691527E0,-1.442100704E-1,-2.214416862E-1,8.428898454E-2
2.418963662E0,-3.997401893E-1,-2.661827505E-1,3.117227852E-1
2.439235746E0,-3.997401893E-1,-1.633848101E-1,3.367564678E-1
2.459507829E0,-1.767006069E-1,7.456845604E-3,8.375635743E-2
2.479779964E0,2.037316747E-2,9.321057051E-2,-9.680583328E-2
2.500052048E0,-6.791055668E-3,4.793686420E-2,-1.318263728E-2
2.520324183E0,-1.261005849E-1,6.657897611E-4,1.822932363E-1
2.540724183E0,-2.101232558E-1,-3.395527974E-2,2.217079997E-1
2.560868350E0,-2.143843025E-1,2.769685537E-2,2.600574791E-1
2.581140485E0,-1.585911214E-1,3.408843651E-2,2.845585644E-1
2.601412516E0,-1.186437383E-1,-1.047953144E-1,3.181143403E-1
2.621684652E0,-2.378201038E-1,-1.985385120E-1,3.942807019E-1
2.641956787E0,-3.784348965E-1,-2.938795984E-1,5.400886536E-1
2.662228871E0,-4.173170328E-1,-2.715090811E-1,5.784381628E-1
2.682628871E0,-4.482096732E-1,-1.175784767E-1,2.904174924E-1
2.702773089E0,-2.143843025E-1,-6.804371625E-2,3.399522603E-1
2.723045173E0,-5.419528857E-2,-2.075932473E-1,8.697877526E-1
2.743317204E0,-1.703090221E-1,-2.155827284E-1,1.187635779E0
2.763589391E0,-7.379614115E-1,-3.221091032E-1,4.980107546E-1
2.783861475E0,-1.701225996E0,-3.439469934E-1,3.191796243E-1
2.804133558E0,-2.346642733E0,-2.001364082E-1,9.092025161E-1
2.824405694E0,-2.150101423E0,-1.063932031E-1,1.643435478E0
2.844677777E0,-9.487504363E-1,3.408843651E-2,2.832003355E0
2.864949860E0,5.986781716E-1,-7.352982163E-1,3.018424511E0
2.885221944E0,6.609960794E-1,-8.737825155E-1,3.227082968E0
2.905494079E0,-2.165148407E-1,4.740423337E-2,3.723895311E0
2.925894079E0,-2.889527678E-1,7.652587891E-1,4.035484791E0
2.946196162E0,4.293012619E-1,3.984085917E-1,3.758516550E0
2.966232308E0,5.789707899E-1,-3.663175404E-1,1.989113569E0
2.986582829E0,1.504684892E-2,2.316948473E-1,7.840340137E-1
3.006854808E0,-9.041424841E-2,1.078446269E0,7.419561148E-1
3.027254808E0,6.530066133E-1,1.581117511E0,9.257140756E-1
3.047549079E0,1.231844187E0,1.222656369E0,8.985498548E-1
3.067668089E0,8.506129980E-1,8.765788078E-1,8.048067093E-1
3.087940746E0,1.790974438E-1,1.027846217E0,1.007606268E0
3.108213246E0,3.419496417E-1,9.261136055E-1,9.560741186E-1
3.128485694E0,5.331644416E-1,8.669914603E-1,9.374319911E-1
3.148758089E0,2.946785688E-1,6.406229138E-1,6.593981981E-1
3.169030381E0,2.463422157E-2,5.442165732E-1,2.744385600E-1
3.189302621E0,-2.926811874E-1,6.933534741E-1,6.689855456E-1
3.209574860E0,-4.769718051E-1,5.815007687E-1,1.138101101E0
3.229847152E0,-3.693801761E-1,5.001412630E-1,1.380448580E0
3.250119287E0,-4.780370593E-1,7.231808305E-1,1.751559734E0
3.270391423E0,-1.006807327E0,8.877640963E-1,1.583248138E0
3.290663610E0,-1.293762684E0,9.623325467E-1,1.524125934E0
3.310935694E0,-1.241697907E0,7.689871788E-1,1.943307161E0
3.331207881E0,-2.575274706E-1,2.519348562E-1,1.877793431E0
3.351480016E0,8.127961755E-1,-2.949448824E-1,8.926909566E-1
3.371752152E0,4.564654827E-1,-2.880206704E-1,4.054659605E-1
3.392024287E0,-2.340916842E-1,-8.924246430E-1,3.159838319E-1
3.412296371E0,-2.186453640E-1,-1.182043195E0,-3.155843616E-1
3.432568506E0,-1.175784767E-1,-6.383592486E-1,-9.689904451E-1
3.452840589E0,-9.787109494E-2,-3.075948730E-2,-7.495461106E-1
3.473112673E0,7.363634557E-2,-2.874880135E-1,-4.189149141E-1
3.493384808E0,2.717753947E-1,-2.171806246E-1,7.843003422E-2
3.513656944E0,4.058654606E-1,-4.355596602E-1,5.283707380E-1
3.533929027E0,5.587307811E-1,-7.699192762E-1,7.813708782E-1
3.554201162E0,5.001412630E-1,-6.889592409E-1,1.183907390E0
3.574473246E0,-1.767006069E-1,-4.547344148E-1,1.102947354E0
3.594745329E0,-8.582029939E-1,-1.996037811E-1,9.708546400E-1
3.615017412E0,-1.160737872E0,5.500755310E-1,3.798996508E-1
3.635289496E0,-4.924181104E-1,4.506065249E-1,-6.627271175E-1
3.655561631E0,8.748477697E-2,1.459411234E-1,-9.450219870E-1
3.675833714E0,-9.520793706E-2,4.745749533E-1,-1.127182126E0
3.696105798E0,-4.274370372E-1,7.295724154E-1,-9.902957082E-1
3.716377881E0,-2.596580088E-1,7.807050943E-1,-9.524788260E-1
3.736649964E0,8.404930234E-1,2.263685167E-1,-9.604683518E-1
3.756922100E0,1.940111369E-1,7.812377214E-1,-5.222455263E-1
3.777194183E0,-9.711209536E-1,6.709829569E-1,5.406212807E-1
3.797466266E0,-1.617070198E0,1.917474568E-1,1.379383206E0
3.817738350E0,-4.370244145E-1,2.290316857E-2,2.142511457E-1
3.838010433E0,6.524739861E-1,1.885516644E-1,-4.141212255E-2
3.858282516E0,5.784381628E-1,-5.079975724E-1,3.980091214E-1
3.878554652E0,2.126532495E-1,-1.027180433E0,5.720465779E-1
3.898826735E0,1.913479865E-1,-9.036098719E-1,3.474090993E-1
3.919226735E0,5.597960353E-1,-6.522076726E-1,6.519413590E-1
3.939370902E0,6.444845200E-1,-8.359656334E-1,3.197122514E-1
3.959642985E0,2.675143182E-1,-9.387635589E-1,2.195774615E-1
3.979915069E0,-2.804306448E-1,-1.611211300E0,2.286322117E-1
4.000187152E0,-6.010749936E-1,-1.917474508E0,5.139896870E-1
4.020459235E0,-9.562072754E-1,-1.578321218E0,3.814975321E-1
4.040859235E0,-1.053678870E0,-1.219327450E0,-2.223737836E-1
4.061003454E0,-8.528767228E-1,-1.206544280E0,-2.522011697E-1
4.081275537E0,-6.703171730E-1,-1.371127486E0,1.731053460E-3
4.101547621E0,-9.013462067E-1,-1.120790482E0,3.209106624E-2
4.121819704E0,-1.012666225E0,-3.828291297E-1,1.316932142E-1
4.142091787E0,-2.500706315E-1,6.338318437E-2,3.954791278E-2
4.162363871E0,5.395560265E-1,1.672463864E-1,-3.257043660E-1
4.182635954E0,4.644549489E-1,2.119874656E-1,-3.608580530E-1
4.202908037E0,-1.628521830E-1,1.257011145E-1,5.925529078E-2
4.223180121E0,-7.155908346E-1,9.853688627E-2,4.825644195E-1
4.243452204E0,-7.586008906E-1,-3.395527974E-2,4.916191697E-1
4.263724287E0,-5.142560005E-1,-1.266332120E-1,3.010701239E-1
4.283996371E0,-4.151864946E-1,-3.555317223E-2,9.547425061E-2
4.304268454E0,-4.253064990E-1,-6.751108170E-2,-8.615319431E-2
4.324540537E0,-4.455465078E-1,-2.214416862E-1,-2.814959288E-1
4.344812621E0,-4.663191736E-1,-1.191763729E-1,-4.492749274E-1
4.365084704E0,-3.028011918E-1,1.805621833E-1,-5.877591968E-1
4.385356787E0,3.181143403E-1,2.657832801E-1,-6.048034430E-1
4.405668194E0,5.475454926E-1,2.556632757E-1,-5.382244587E-1
4.426059079E0,2.659164369E-1,3.861580789E-1,-6.669881940E-1
4.446330902E0,1.162468940E-1,4.330296814E-1,-8.752472401E-1
4.466445694E0,1.822932363E-1,1.432779580E-1,-5.787044764E-1
4.486717621E0,1.913479865E-1,-5.845634267E-2,-9.307741374E-2
4.506989600E0,6.032055244E-2,-4.940159991E-2,3.262370080E-2
4.527389600E0,-1.628521830E-1,-4.833633825E-2,3.635212034E-2
4.547682360E0,-2.697780132E-1,-2.703106403E-2,-5.898897350E-2
4.567802360E0,-1.532648057E-1,-5.259739235E-2,-1.398158520E-1
4.588075069E0,-4.141212255E-2,-6.058686972E-2,-1.259674281E-1
4.608347673E0,-1.292963773E-1,3.462106735E-2,-1.914811432E-1
4.628620173E0,-5.158539414E-1,1.731053442E-1,-1.957421899E-1
4.648892516E0,-6.841655970E-1,3.749727905E-1,-1.531316489E-1
4.669164860E0,-2.319611609E-1,2.130527236E-2,-7.496792823E-2
4.689437152E0,-1.388837546E-1,-1.051947847E-2,-1.675127149E-1
4.709709391E0,-3.608580530E-1,1.411474347E-1,-1.978727281E-1
4.729981631E0,-3.677822649E-1,8.042740822E-2,-1.685779691E-1
4.750253766E0,-3.150517344E-1,-1.186437383E-1,-1.058605760E-1
4.770525902E0,-2.303632647E-1,-2.560627460E-1,8.428898454E-2
4.790798037E0,1.519332230E-1,-3.977428079E-1,2.249037921E-1
4.811070121E0,1.897500902E-1,-3.448791057E-2,3.581948951E-2
4.831470173E0,1.327584833E-1,1.965411454E-1,-1.302284747E-1
4.851614391E0,2.627206445E-1,1.731053442E-1,-8.402267098E-2
4.871886475E0,2.808301151E-1,1.619200706E-1,-1.797632314E-2
4.892158610E0,1.008005738E-1,2.380864173E-1,-7.496792823E-2
4.912430694E0,-6.591318548E-2,1.816274524E-1,2.836264484E-2
4.932702777E0,-1.175784767E-1,1.182442605E-1,1.071921512E-1
4.952974860E0,-2.117211558E-2,1.715074480E-1,1.114532053E-1
4.973246944E0,1.679121852E-1,2.838927507E-1,2.265016884E-1
4.993519027E0,5.241097212E-1,1.129179448E-1,5.257076025E-1
5.013791058E0,4.809665382E-1,-3.865575492E-1,7.270424366E-1
5.034063089E0,-2.012016773E-1,-7.273087502E-1,6.221139431E-1
5.054335277E0,-1.109605193E0,-7.278413773E-1,5.352949500E-1
5.074735277E0,-8.262451291E-1,-7.816371918E-1,7.020087242E-1
5.094879339E0,-1.308942735E-1,-1.048485756E0,4.884233773E-1
5.115151423E0,-5.755086541E-1,-8.897614479E-1,3.474090993E-1
5.135423506E0,-1.277916908E0,-6.570013762E-1,5.789707899E-1
5.155695589E0,-1.502021790E0,-4.723112583E-1,5.922865868E-1
5.175967621E0,-8.038745522E-1,-2.395511568E-1,1.199753210E-1
5.196239704E0,-6.910897791E-2,1.081242561E-1,-3.028011918E-1
5.216511735E0,4.197138846E-1,9.649956822E-1,-1.474857569E0
5.236783819E0,1.348490596E0,1.694435000E0,-2.430665255E0
5.257055850E0,2.562491655E0,1.553953290E0,-3.304980397E-1
5.277327933E0,2.547578096E0,1.960085034E-1,4.697812796E-1
5.297599964E0,1.718536615E0,3.004043400E-1,6.801708341E-1
5.317872048E0,1.001214623E0,1.006541014E0,1.186570525E0
5.338144131E0,1.055010438E0,1.136369944E0,5.826992393E-1
5.358416162E0,1.203614712E0,7.530082464E-1,-1.179779470E-1
5.378688246E0,4.958802164E-1,5.985450149E-1,-4.029359818E-1
5.398960277E0,-7.230476737E-1,5.676523447E-1,-2.122537792E-1
5.419232308E0,-1.177249432E0,7.966840267E-1,2.984069884E-1
5.439504391E0,-8.949546218E-1,7.609977126E-1,-1.584579609E-2
5.459776423E0,-3.629885912E-1,5.086634159E-1,-3.065296113E-1
5.480048454E0,2.424806356E-1,7.476819158E-1,-5.632581711E-1
5.500320537E0,1.016128302E0,9.159935713E-1,-1.036634684E0
5.520592569E0,1.768071294E0,4.138549268E-1,-1.406147957E0
5.540992569E0,1.826128244E0,2.450106442E-1,-1.984452963E0
5.561136683E0,1.185505271E0,7.530082464E-1,-2.158623695E0
5.581408714E0,4.601939023E-1,1.357944846E0,-1.954625607E0
5.601680746E0,1.327584833E-1,7.657914162E-1,-1.196291089E0
5.621952829E0,-2.916159295E-2,6.368945241E-1,-9.695230722E-1
5.642224860E0,-1.798963994E-1,7.199850678E-1,-6.282392144E-1
5.662496891E0,-1.676458716E-1,5.479449630E-1,-1.222390011E-1
5.682768923E0,-2.857569754E-1,6.645913720E-1,-4.364917874E-1
5.703041006E0,-4.700475931E-1,8.185219765E-1,-5.222455263E-1
5.723441006E0,-2.372874767E-1,6.118608117E-1,-2.047969401E-1
5.743585069E0,-1.335574239E-1,4.873581231E-1,-1.211737376E-2
5.763857100E0,-2.500706315E-1,1.140098453E0,-5.206476152E-2
5.784129183E0,-3.374222517E-1,1.974599361E0,-1.249021590E-1
5.804401214E0,-7.155908346E-1,3.014030218E0,-2.740390599E-1
5.824673246E0,-3.406180441E-1,1.606151223E0,-8.668582886E-2
5.844945277E0,2.046637833E-1,2.237053663E-1,2.403501123E-1
5.865217308E0,-2.117211521E-1,3.302317262E-1,3.528685868E-2
5.885489287E0,-6.490118504E-1,-1.265000552E-2,-4.194475710E-1
5.905889287E0,-1.953427196E-1,3.158506751E-1,-4.631233811E-1
5.926191423E0,1.950764060E-1,1.970737725E-1,-5.291697383E-1
5.946306058E0,1.279647946E-1,1.592569202E-1,-8.368977308E-1
5.966577985E0,-1.980058849E-1,3.036001325E-1,-5.755086541E-1
5.986849964E0,-7.496792823E-2,4.649875760E-1,-1.063932031E-1
6.007121891E0,2.676474862E-2,3.291664720E-1,-1.744369231E-2
6.027521891E0,2.025332451E-1,-1.136769414E0,-1.707084924E-1
6.047815694E0,6.189181805E-1,-1.715607047E0,1.764342934E-1
6.067934860E0,5.885581374E-1,-3.264101028E0,4.639223218E-1
6.088207412E0,8.245140314E-1,-3.706717968E0,9.665936232E-1
6.108479964E0,7.366297841E-1,-2.685796022E0,9.900293946E-1
6.128752308E0,-1.436774284E-1,-1.119192600E0,3.117227852E-1
6.149024652E0,-6.852308512E-1,-1.905490309E-1,6.884266436E-2
6.169296891E0,-2.644517124E-1,-3.322291076E-1,1.785648167E-1
6.189569131E0,5.757750273E-1,9.960214794E-2,4.327633604E-2
6.209841266E0,7.302381992E-1,1.491369121E-2,-4.660528619E-3
6.230113454E0,6.167876720E-1,-4.141212255E-2,-5.025381446E-1
6.250385537E0,4.298338890E-1,1.518000662E-1,-7.958850861E-1
6.270657621E0,1.215732098E-1,5.592634156E-2,-6.925545335E-1
6.290929704E0,-1.665806025E-1,-2.768353820E-1,-4.956139028E-1
6.311201735E0,-1.788311303E-1,-4.121238589E-1,-6.877608299E-1
6.331473819E0,-5.632581562E-2,-3.263701499E-1,-1.184706330E0
6.351745902E0,4.921517968E-1,-3.311638236E-1,-1.142095804E0
6.372017881E0,6.205160618E-1,-6.404897571E-1,-9.396957159E-1
6.392289964E0,3.632549047E-1,-3.295659423E-1,-8.912261724E-1
6.412561996E0,4.167843983E-2,7.030740380E-2,-6.090644598E-1
6.432833975E0,-3.235738352E-2,-1.628521830E-1,-3.326285779E-1
6.453106058E0,-2.277000993E-2,-6.601971388E-1,2.729738131E-2
6.473378089E0,-2.910832763E-1,-9.941573143E-1,1.359542757E-1
6.493650069E0,-2.362222075E-1,-6.676539779E-1,-1.344895363E-1
6.513922100E0,1.695100814E-1,-2.326269448E-1,4.966791719E-2
6.534194027E0,3.840275407E-1,-2.576606572E-1,8.868319988E-1
6.554466110E0,6.221139431E-1,-4.142543972E-1,1.772332430E0
6.574738141E0,6.439518929E-1,1.768337637E-1,1.206277966E0
6.595010121E0,2.557964325E-1,4.239749312E-1,2.936132848E-1
6.615282100E0,-1.394163817E-1,9.214530140E-2,-1.090563685E-1
6.635554131E0,-5.792371184E-2,2.013348341E-1,-7.969503403E-1
6.655826110E0,3.834949136E-1,-2.773680091E-1,-1.279914260E0
6.676098141E0,1.125317931E0,-5.600623488E-1,-1.193627954E0
6.696370121E0,1.174319983E0,-2.901511788E-1,-1.990844607E0
6.716642100E0,5.358276367E-1,1.393631101E0,-2.465286493E0
6.736914079E0,1.972069293E-1,1.594433308E0,-2.872083902E0
6.757186110E0,3.106575012E-1,1.498559594E0,-3.074484110E0
6.777458089E0,5.395560265E-1,2.003894091E0,-3.147454500E0
6.797730121E0,5.842971206E-1,2.575274944E0,-2.777941227E0
6.818002100E0,2.410159074E-2,-5.579318479E-2,-1.556882858E0
6.838274079E0,-8.349003643E-2,-1.267264247E0,-1.647962809E0
6.858546058E0,-5.520728827E-1,-8.641951084E-1,-2.134122610E0
6.878818037E0,-1.100550532E0,-4.968123436E-1,-2.366749525E0
6.899090016E0,-1.540903807E0,-4.824312627E-1,-2.350770473E0
6.919362048E0,-1.869937181E0,-9.627319872E-2,-1.851827741E0
6.939634027E0,-1.747032404E0,-2.486059070E-1,-1.310274243E0
6.959906006E0,-3.741738498E-1,-6.916224360E-1,-7.916240692E-1
6.980177985E0,2.147837877E-1,-4.780370742E-2,-3.613906801E-1
7.000449964E0,2.996053919E-2,-2.741722167E-1,-5.515402555E-1
7.020721944E0,-3.677822649E-1,-8.572708964E-1,-6.994787455E-1
7.041121944E0,-5.083971024E-1,-1.361540079E0,-5.254412889E-1
7.061265902E0,-3.779022694E-1,-1.574060202E0,-2.346243113E-1
7.081537881E0,-1.537974328E-1,-1.260340095E0,-3.720433414E-1
7.101809808E0,-1.324921697E-1,-1.500690132E-1,-8.321040869E-1
7.122081787E0,-1.181111038E-1,7.657914162E-1,-6.085318327E-1
7.142353766E0,-4.660528619E-3,7.290397882E-1,-8.135951310E-2
7.162625746E0,1.375521719E-1,1.944106072E-1,3.612575233E-1
7.183025746E0,2.195774615E-1,2.290316857E-2,9.227846563E-2
7.203169704E0,3.494064808E-1,-8.135951310E-2,-3.368896246E-1
7.223441631E0,3.952127993E-1,-2.102564126E-1,-5.323655009E-1
7.243713610E0,2.424806356E-1,4.687159881E-2,-6.170539856E-1
7.263985589E0,1.316932142E-1,-1.186437383E-1,-5.611276031E-1
7.284257516E0,1.290300637E-1,-2.832269669E-1,-5.888244510E-1
7.304529496E0,3.069290817E-1,2.476737946E-1,-4.876244366E-1
7.324801475E0,-4.514054582E-2,8.600672483E-1,-3.448790908E-1
7.345073402E0,-9.956220388E-1,1.073652625E0,-4.556665123E-1
7.365345381E0,-2.713759243E-1,8.350335360E-1,-7.000113726E-1
7.385656631E0,-1.026647836E-1,7.018755674E-1,-6.495444775E-1
7.406047464E0,6.671213359E-2,8.957535625E-1,-5.318328738E-1
7.426319131E0,7.430213690E-1,4.692486227E-1,-1.091495752E0
7.446433766E0,9.751157165E-1,-5.037365556E-1,-1.446627975E0
7.466705537E0,7.542066574E-1,-1.332777977E0,-1.448758602E0
7.486977412E0,6.391581893E-1,-2.125733614E0,-1.017992616E0
7.507249339E0,3.435475230E-1,-1.462207556E0,-1.391234279E0
7.527649339E0,2.623211779E-2,-6.330329180E-1,-1.816141367E0
7.547943819E0,-1.138500497E-1,3.733749092E-1,-9.535441399E-1
7.568062360E0,3.277017176E-1,1.028378844E0,-5.382244587E-1
7.588334756E0,1.097088337E0,-1.228382111E0,7.523424178E-2
7.608607204E0,9.277114868E-1,-2.797116041E0,4.740423262E-1
7.628879444E0,-7.443529367E-2,-1.114398956E0,-9.520793706E-2
7.649151579E0,-3.033338189E-1,2.024000883E-2,-4.327633679E-1
7.669423714E0,5.446160212E-2,-9.414267540E-2,-5.099949613E-2
7.689695902E0,2.623211779E-2,-6.788392663E-1,-1.206411049E-1
7.709967985E0,2.143843099E-2,-5.978792310E-1,5.765739456E-2
7.730240016E0,2.818953991E-1,-1.105211023E-2,4.708465338E-1
7.750511996E0,4.335623085E-1,-1.001614094E0,5.938844681E-1
7.770784027E0,6.066676378E-1,-2.101232529E0,6.322339773E-1
7.791056006E0,4.612591565E-1,-1.843971372E0,8.980172276E-1
7.811327985E0,3.229080439E-1,-7.528750896E-1,6.546044946E-1
7.831599964E0,2.099900991E-1,4.522044063E-1,6.937529147E-2
7.851871891E0,3.250385821E-1,3.584612012E-1,-7.202513814E-1
7.872143871E0,4.170507193E-1,-2.543316968E-2,-1.048885226E0
7.892415798E0,3.792338669E-1,-5.472791940E-2,-8.933567405E-1
7.912687725E0,6.061350107E-1,6.178529188E-2,-4.194475710E-1
7.932959704E0,5.933518410E-1,-1.591237634E-1,-4.322307110E-1
7.953231631E0,4.308991432E-1,-5.914876461E-1,-9.231840968E-1
7.973503558E0,4.761728346E-1,-1.190032601E0,-1.204280496E0
7.993775485E0,6.769750714E-1,-1.822133422E0,-1.117062092E0
8.014047412E0,1.047553658E0,-1.112268448E0,-1.866874546E-1
8.034319339E0,1.085370541E0,5.858949944E-2,1.810149193E0
8.054591266E0,8.479498625E-1,7.050713897E-1,1.493366480E0
8.074863194E0,4.974781275E-1,1.388304830E0,9.942904711E-1
8.095135069E0,2.749711871E-1,1.134772062E0,3.873564899E-1
8.115406996E0,1.732385010E-1,4.814991653E-1,-3.097254038E-1
8.135678923E0,1.833585054E-1,2.189116776E-1,-2.676474750E-1
8.155950798E0,-6.431528926E-2,5.912213027E-2,2.914827764E-1
8.176222725E0,-3.299654126E-1,5.299686790E-1,1.028911471E0
8.196494600E0,-3.933486044E-1,1.361140609E0,1.065130472E0
8.216766527E0,-2.873548567E-1,1.650759220E0,7.147918940E-1
8.237038402E0,-1.671132296E-1,1.194426894E0,3.506048918E-1
8.257310329E0,-9.041424841E-2,1.842906028E-1,1.396826953E-1
8.277582256E0,-4.407528415E-2,-2.059953511E-1,1.402153224E-1
8.297854079E0,-1.997369342E-3,5.858949944E-2,1.455416381E-1
8.318126058E0,-1.850895584E-2,1.656484902E-1,1.535311192E-1
8.338397933E0,-3.981423005E-2,1.965411454E-1,1.103879437E-1
8.358669860E0,-1.158474199E-2,1.049284711E-1,6.937529147E-2
8.378941735E0,1.877527125E-2,-9.307741374E-2,4.167843983E-2
8.399213610E0,3.475422785E-2,-1.053279415E-1,3.848264739E-2
8.419613610E0,1.238369010E-2,2.796316985E-3,4.700475931E-2
8.439757412E0,3.861580743E-3,4.154528305E-2,4.380896688E-2
8.460029287E0,1.930790395E-2,-9.454214945E-3,2.197106183E-2
8.480301214E0,1.398158539E-2,-7.337003201E-2,1.771000773E-2
8.500573089E0,1.078579482E-2,-6.005423889E-2,4.434159771E-2
8.520844964E0,5.992108025E-3,1.544632297E-2,7.097318769E-2
8.541180902E0,-1.211737376E-2,3.515370190E-2,7.044056058E-2
8.561580902E0,-1.464737463E-3,3.036001325E-2,6.564687192E-2
8.581660641E0,9.720530361E-3,2.503369562E-2,5.605949834E-2
8.601932516E0,4.394212738E-3,5.326318368E-2,4.860265180E-2
8.622204391E0,7.590003312E-3,8.522108942E-2,5.286370963E-2
8.642476266E0,6.524739787E-3,5.060002208E-2,4.913528636E-2
8.662748141E0,2.463422157E-2,1.810948178E-2,4.593949392E-2
8.683020069E0,3.901528195E-2,1.864211448E-2,4.860265180E-2
8.703291944E0,3.954791278E-2,3.249054030E-2,3.262370080E-2
8.723563819E0,3.262370080E-2,5.006739125E-2,4.394212738E-3
8.743835694E0,4.008054361E-2,3.994738683E-2,-2.010685205E-2
8.764107569E0,8.162582666E-2,-3.981423005E-2,-5.193160381E-3
8.784379444E0,7.683213800E-2,-4.354264960E-2,2.796316985E-3
8.804651319E0,5.819002539E-2,2.556632832E-2,1.557948068E-2
8.824923194E0,5.392897129E-2,5.805686861E-2,2.303632535E-2
8.845195069E0,6.032055244E-2,5.006739125E-2,1.930790395E-2
8.865466944E0,7.523424178E-2,4.048001766E-2,3.635212034E-2
8.885738819E0,7.683213800E-2,4.420844093E-2,4.327633604E-2
8.906010641E0,6.671213359E-2,5.432844535E-2,3.262370080E-2
8.926282516E0,3.581948951E-2,5.965476483E-2,1.664474420E-2
8.946554391E0,1.185105834E-2,4.261054471E-2,6.657897611E-4
8.966826266E0,1.185105834E-2,2.876211889E-2,-2.530001104E-3
8.987098089E0,8.122635074E-3,3.834949061E-2,5.992108025E-3
9.007369964E0,-9.454214945E-3,5.273054913E-2,2.463422157E-2
9.027641839E0,-1.957421936E-2,7.084003091E-2,4.593949392E-2
9.047913714E0,-6.791055668E-3,4.420844093E-2,6.191844866E-2
9.068185537E0,-6.791055668E-3,-1.957421936E-2,5.765739456E-2
9.088457360E0,-2.596580051E-2,-3.235738352E-2,2.889527567E-2
9.108729287E0,-2.916159295E-2,3.089264594E-2,2.197106183E-2
9.129001110E0,-3.129211813E-2,1.864211448E-2,3.209106624E-2
9.149272985E0,-2.170474641E-2,-3.022685647E-2,7.363634557E-2
9.169544808E0,-3.994738800E-4,-7.922898233E-2,5.925529078E-2
9.189816683E0,-3.928159550E-2,-1.431448013E-1,3.848264739E-2
9.210088506E0,-3.129211813E-2,1.065263618E-2,5.712476373E-2
9.230360381E0,-5.193160381E-3,3.941475600E-2,6.298371404E-2
9.250632204E0,8.122635074E-3,-2.170474641E-2,3.155843541E-2
9.270904079E0,1.771000773E-2,-3.715106845E-2,-4.660528619E-3
9.291175902E0,1.344895363E-2,-3.994738800E-4,-2.063948289E-2
9.311447777E0,4.394212738E-3,1.278316416E-2,-1.957421936E-2
9.331847777E0,-9.321057005E-4,-1.744369231E-2,-1.051947847E-2
9.351991423E0,1.331579551E-4,-3.022685647E-2,1.331579551E-4
9.372263298E0,6.657897611E-4,3.861580743E-3,1.611211337E-2
9.392535121E0,-3.994738800E-4,2.982738242E-2,2.037316747E-2
9.412806944E0,-6.258423906E-3,1.704421826E-2,1.131842658E-2
9.433078819E0,-1.997369342E-3,-1.464737463E-3,1.451421715E-2
9.453350641E0,1.331579551E-4,1.384842768E-2,2.197106183E-2
9.473622464E0,8.122635074E-3,2.024000883E-2,2.889527567E-2
9.493894287E0,1.984053478E-2,2.876211889E-2,3.209106624E-2
9.514166110E0,3.049317189E-2,2.716422267E-2,2.303632535E-2
9.534437933E0,4.327633604E-2,1.278316416E-2,-3.994738800E-4
9.554709756E0,4.913528636E-2,9.054740891E-3,-2.490053698E-2
9.574981579E0,4.860265180E-2,1.544632297E-2,-4.034686089E-2
9.595253402E0,5.499423668E-2,3.568633273E-2,-4.141212255E-2
9.615525225E0,5.126581341E-2,2.024000883E-2,-3.874896467E-2
9.635797048E0,4.380896688E-2,-3.595264861E-3,-3.395527974E-2
9.656108194E0,5.339634046E-2,1.384842768E-2,-1.850895584E-2
9.676340746E0,4.434159771E-2,2.343579940E-2,-1.318263728E-2
9.696612569E0,3.049317189E-2,2.716422267E-2,-1.051947847E-2
9.716884391E0,2.037316747E-2,3.462106735E-2,5.992108025E-3
9.737156162E0,2.263685223E-3,2.769685537E-2,2.463422157E-2
9.757427985E0,-5.725792143E-3,1.597895473E-2,4.327633604E-2
9.777699808E0,-9.321057005E-4,1.597895473E-2,5.499423668E-2
9.797971631E0,-1.318263728E-2,2.663159184E-2,4.167843983E-2
9.818243454E0,-1.957421936E-2,2.290316857E-2,1.664474420E-2
9.838515277E0,-8.388951421E-3,-4.127896391E-3,1.731053460E-3
9.858787100E0,1.451421715E-2,-2.530001104E-3,-9.454214945E-3
9.879058871E0,1.930790395E-2,-1.158474199E-2,-1.371526904E-2
9.899330694E0,2.197106183E-2,1.331579551E-4,-1.850895584E-2
9.919602516E0,2.143843099E-2,-1.371526904E-2,-3.235738352E-2
9.939874287E0,2.410159074E-2,-3.608580679E-2,-3.768370301E-2
9.960146110E0,1.984053478E-2,-3.235738352E-2,-2.862896025E-2
9.980417881E0,4.926844500E-3,-2.223737910E-2,-2.649843320E-2
1.000068970E1,2.263685223E-3,-6.258423906E-3,-2.277000993E-2
1.002096153E1,4.394212738E-3,-1.318263728E-2,-9.986846708E-3
1.004129741E1,3.861580743E-3,-1.904158667E-2,4.394212738E-3
1.006169741E1,-4.127896391E-3,-1.997369342E-3,9.187898599E-3
1.008177689E1,-1.584579609E-2,6.391582079E-3,7.590003312E-3
1.010204866E1,-2.436790615E-2,-5.725792143E-3,9.187898599E-3
1.012232049E1,-3.661843762E-2,-2.543316968E-2,1.025316212E-2
1.014259226E1,-5.526055023E-2,-4.407528415E-2,1.451421715E-2
1.016286408E1,-4.727107286E-2,-2.756369673E-2,2.143843099E-2
1.018313585E1,-3.981423005E-2,-4.660528619E-3,2.197106183E-2
1.020340762E1,-4.194475710E-2,-7.856319658E-3,2.250369452E-2
1.022367944E1,-4.194475710E-2,-6.258423906E-3,3.209106624E-2
1.024395121E1,-3.768370301E-2,6.924213842E-3,4.434159771E-2
1.026422298E1,-3.874896467E-2,1.864211448E-2,5.179844424E-2
1.028449476E1,-4.833633825E-2,2.024000883E-2,5.126581341E-2
1.030476658E1,-5.472791940E-2,5.858949851E-3,4.700475931E-2
1.032503835E1,-4.940159991E-2,-1.211737376E-2,3.635212034E-2
1.034531012E1,-3.661843762E-2,-1.265000552E-2,3.049317189E-2
1.036558189E1,-2.170474641E-2,4.394212738E-3,3.741738573E-2
1.038585371E1,-1.531316526E-2,1.731053460E-3,3.581948951E-2
1.040612548E1,-9.454214945E-3,-1.904158667E-2,2.197106183E-2
1.042639726E1,3.328948980E-3,-2.436790615E-2,2.263685223E-3
1.044666903E1,5.992108025E-3,-2.649843320E-2,-2.010685205E-2
1.046694080E1,1.291632187E-2,-2.649843320E-2,-2.916159295E-2
1.048721257E1,2.090579830E-2,-2.649843320E-2,-2.862896025E-2
1.050748434E1,2.197106183E-2,-3.075948730E-2,-2.649843320E-2
1.052775611E1,2.356895804E-2,-2.223737910E-2,-2.862896025E-2
1.054802788E1,1.877527125E-2,-1.850895584E-2,-3.129211813E-2
1.056829965E1,1.717737690E-2,-1.478053257E-2,-2.596580051E-2
1.058857142E1,1.344895363E-2,-1.318263728E-2,-1.531316526E-2
1.060884314E1,7.057371549E-3,-1.797632314E-2,-5.193160381E-3
1.062911491E1,2.263685223E-3,-1.318263728E-2,-1.997369342E-3
1.064938668E1,-8.388951421E-3,1.731053460E-3,1.331579551E-4
1.066965845E1,-1.957421936E-2,1.704421826E-2,6.524739787E-3
1.068993023E1,-2.490053698E-2,2.183790505E-2,1.078579482E-2
1.071020200E1,-3.022685647E-2,1.491369121E-2,6.524739787E-3
1.073047371E1,-2.223737910E-2,3.328948980E-3,1.398158539E-2
1.075074549E1,-1.318263728E-2,6.924213842E-3,1.717737690E-2
1.077101726E1,-1.584579609E-2,1.917474531E-2,7.590003312E-3
1.079140773E1,-1.211737376E-2,4.394212738E-3,3.328948980E-3
1.081156075E1,-1.997369342E-3,-9.454214945E-3,4.926844500E-3
1.083183246E1,-9.321057005E-4,-1.904158667E-2,3.861580743E-3
1.085210424E1,-5.725792143E-3,-3.129211813E-2,2.796316985E-3
1.087237595E1,-4.660528619E-3,-2.809632942E-2,5.992108025E-3
1.089264773E1,-9.986846708E-3,-3.448791057E-2,9.187898599E-3
1.091291950E1,-3.994738800E-4,-3.022685647E-2,1.664474420E-2
1.093319121E1,1.331579551E-4,-1.265000552E-2,1.824264042E-2
1.095346298E1,-7.323687430E-3,4.926844500E-3,1.078579482E-2
1.097373470E1,-6.258423906E-3,1.970737800E-2,4.926844500E-3
1.099400648E1,-7.323687430E-3,1.225053146E-2,1.198421582E-3
1.101427819E1,-1.105211023E-2,5.326318089E-3,3.328948980E-3
1.103454996E1,-1.371526904E-2,7.989477366E-3,6.524739787E-3
1.105482168E1,-2.010685205E-2,-7.323687430E-3,5.992108025E-3
1.107509340E1,-1.957421936E-2,-1.265000552E-2,3.328948980E-3
1.109536512E1,-1.478053257E-2,-9.454214945E-3,2.263685223E-3
1.111563689E1,-1.584579609E-2,-1.158474199E-2,-4.660528619E-3
1.113590861E1,-5.725792143E-3,-1.464737463E-3,1.198421582E-3
1.115618033E1,6.657897611E-4,-9.321057005E-4,6.524739787E-3
1.117645210E1,2.263685223E-3,-1.105211023E-2,9.187898599E-3
1.119672382E1,5.992108025E-3,-1.464737463E-3,6.524739787E-3
1.121699554E1,1.331579551E-4,-1.051947847E-2,-2.530001104E-3
1.123726731E1,2.796316985E-3,-1.957421936E-2,-5.193160381E-3
1.125753903E1,1.731053460E-3,-1.997369342E-3,-1.997369342E-3
1.127781075E1,-4.127896391E-3,-4.660528619E-3,-2.530001104E-3
1.129808246E1,1.731053460E-3,-2.170474641E-2,-8.388951421E-3
1.131835418E1,8.122635074E-3,-6.791055668E-3,-7.856319658E-3
1.133862590E1,4.926844500E-3,1.731053460E-3,-1.051947847E-2
1.135889762E1,7.057371549E-3,-1.105211023E-2,-9.986846708E-3
1.137916934E1,2.263685223E-3,-2.010685205E-2,-7.323687430E-3
1.139944111E1,7.057371549E-3,-9.986846708E-3,1.331579551E-4
1.141971283E1,1.731053460E-3,2.263685223E-3,1.331579551E-4
1.143998455E1,-1.464737463E-3,1.225053146E-2,-2.530001104E-3
1.146025627E1,-3.595264861E-3,1.757685095E-2,-4.127896391E-3
1.148052798E1,-4.660528619E-3,-1.997369342E-3,-6.258423906E-3
1.150079970E1,1.198421582E-3,-1.797632314E-2,-9.321057005E-4
1.152107137E1,-2.530001104E-3,3.328948980E-3,7.057371549E-3
1.154140720E1,-1.105211023E-2,5.858949851E-3,-9.321057005E-4
1.156180720E1,6.657897611E-4,3.861580743E-3,-4.127896391E-3
1.158188648E1,2.263685223E-3,8.522109129E-3,-3.994738800E-4
1.160215819E1,-5.193160381E-3,8.522109129E-3,-1.464737463E-3
1.162242991E1,-2.530001104E-3,1.731053460E-3,6.657897611E-4
1.164270168E1,-9.321057005E-4,-1.464737463E-3,1.331579551E-4
1.166297335E1,-4.127896391E-3,-4.127896391E-3,-2.530001104E-3
1.168324502E1,-1.464737463E-3,1.384842768E-2,2.263685223E-3
1.170351674E1,6.657897611E-4,1.704421826E-2,2.796316985E-3
1.172378840E1,1.198421582E-3,6.657897611E-4,1.331579551E-4
1.174406012E1,-3.994738800E-4,-8.388951421E-3,-4.660528619E-3
1.176433184E1,1.731053460E-3,5.858949851E-3,-1.997369342E-3
1.178460356E1,6.657897611E-4,1.171789970E-2,6.657897611E-4
1.180487522E1,-3.994738800E-4,-9.321057005E-4,-3.595264861E-3
1.182514694E1,7.057371549E-3,-7.323687430E-3,-4.127896391E-3
1.184541866E1,8.122635074E-3,1.331579551E-4,-9.321057005E-4
1.186569033E1,6.657897611E-4,1.731053460E-3,-1.997369342E-3
1.188596200E1,-9.321057005E-4,-9.321057005E-4,-3.062632866E-3
1.190623371E1,6.657897611E-4,1.198421582E-3,-1.464737463E-3
1.192650538E1,2.796316985E-3,3.328948980E-3,1.331579551E-4
1.194677710E1,-3.994738800E-4,-4.660528619E-3,-9.321057005E-4
1.196704877E1,1.731053460E-3,1.331579551E-4,2.796316985E-3
1.198732049E1,-3.994738800E-4,1.331579551E-4,4.394212738E-3
1.200759210E1,-1.464737463E-3,-1.158474199E-2,3.328948980E-3
1.202786382E1,1.331579551E-4,-8.388951421E-3,6.657897611E-4
1.204813554E1,3.328948980E-3,-2.530001104E-3,1.198421582E-3
1.206840720E1,4.394212738E-3,-6.258423906E-3,-3.595264861E-3
1.208867887E1,-9.321057005E-4,1.331579551E-4,-5.725792143E-3
1.210895059E1,-3.595264861E-3,1.731053460E-3,-4.127896391E-3
1.212922226E1,-4.127896391E-3,1.731053460E-3,1.198421582E-3
1.214949392E1,-5.725792143E-3,1.198421582E-3,3.861580743E-3
1.216976559E1,-5.193160381E-3,1.198421582E-3,3.328948980E-3
1.219003731E1,-5.193160381E-3,6.657897611E-4,8.122635074E-3
1.221030898E1,-8.388951421E-3,7.456845604E-3,1.185105834E-2
1.223058064E1,-1.211737376E-2,9.587372653E-3,8.122635074E-3
1.225085231E1,-1.105211023E-2,-7.856319658E-3,5.992108025E-3
1.227112398E1,-9.454214945E-3,-7.323687430E-3,1.664474420E-2
1.229139564E1,-5.725792143E-3,6.924213842E-3,1.398158539E-2
1.231166726E1,-2.530001104E-3,2.263685223E-3,1.331579551E-4
1.233193892E1,5.459476262E-3,-4.660528619E-3,-5.193160381E-3
1.235221059E1,6.524739787E-3,1.198421582E-3,-6.791055668E-3
1.237248226E1,4.394212738E-3,1.331579551E-4,-1.211737376E-2
1.239275398E1,1.025316212E-2,2.796316985E-3,-1.105211023E-2
1.241302564E1,1.078579482E-2,2.796316985E-3,-1.478053257E-2
1.243329731E1,9.720530361E-3,-4.127896391E-3,-1.637842879E-2
1.245356898E1,1.344895363E-2,-8.388951421E-3,-1.051947847E-2
1.247384059E1,1.557948068E-2,-8.388951421E-3,-4.127896391E-3
1.249411226E1,8.655266836E-3,4.394212738E-3,-2.530001104E-3
1.251438392E1,1.731053460E-3,7.989477366E-3,-3.062632866E-3
1.253465559E1,-3.062632866E-3,3.328948980E-3,2.263685223E-3
1.255492726E1,-5.725792143E-3,-3.595264861E-3,7.590003312E-3
1.257519892E1,-1.105211023E-2,3.861580743E-3,1.344895363E-2
1.259547054E1,-1.371526904E-2,1.065263618E-2,2.197106183E-2
1.261574220E1,-9.454214945E-3,6.924213842E-3,1.877527125E-2
1.263601387E1,-6.258423906E-3,5.858949851E-3,1.398158539E-2
1.265628549E1,-7.323687430E-3,5.858949851E-3,8.655266836E-3
1.267655715E1,-3.595264861E-3,1.198421582E-3,3.861580743E-3
1.269682882E1,5.459476262E-3,-2.530001104E-3,-1.464737463E-3
1.271710043E1,7.057371549E-3,-7.323687430E-3,-9.454214945E-3
1.273737210E1,6.524739787E-3,1.331579551E-4,-1.158474199E-2
1.275764371E1,7.590003312E-3,3.861580743E-3,-8.388951421E-3
1.277791538E1,6.524739787E-3,1.731053460E-3,-9.986846708E-3
1.279818700E1,2.263685223E-3,-1.997369342E-3,-9.454214945E-3
1.281845866E1,-1.997369342E-3,-3.062632866E-3,-6.258423906E-3
1.283873033E1,6.657897611E-4,-3.062632866E-3,3.861580743E-3
1.285900194E1,1.198421582E-3,6.657897611E-4,9.187898599E-3
1.287927361E1,-9.321057005E-4,2.263685223E-3,9.187898599E-3
1.289954522E1,-1.997369342E-3,-1.464737463E-3,4.394212738E-3
1.291994523E1,6.657897611E-4,-5.725792143E-3,7.057371549E-3
1.294008851E1,-1.464737463E-3,6.657897611E-4,1.504684892E-2
1.296036012E1,-7.323687430E-3,6.657897611E-4,1.557948068E-2
1.298063179E1,-8.921583183E-3,1.331579551E-4,2.263685223E-3
1.300090340E1,-1.464737463E-3,-9.321057005E-4,-1.265000552E-2
1.302117502E1,1.331579551E-4,-3.994738800E-4,-2.117211558E-2
1.304151085E1,6.524739787E-3,7.456845604E-3,-2.703106403E-2
1.306191085E1,1.238369010E-2,1.651158556E-2,-3.448791057E-2
1.308198996E1,2.143843099E-2,1.597895473E-2,-4.034686089E-2
1.310226158E1,1.930790395E-2,1.012000442E-2,-3.928159550E-2
1.312253319E1,1.557948068E-2,1.384842768E-2,-3.874896467E-2
1.314280486E1,1.664474420E-2,1.438105945E-2,-3.661843762E-2
1.316307648E1,1.877527125E-2,1.225053146E-2,-2.490053698E-2
1.318334809E1,2.090579830E-2,4.394212738E-3,-1.051947847E-2
1.320361970E1,1.930790395E-2,2.263685223E-3,-1.051947847E-2
1.322389132E1,1.930790395E-2,1.331579592E-2,-9.986846708E-3
1.324416298E1,1.504684892E-2,2.982738242E-2,-6.791055668E-3
1.326443460E1,1.185105834E-2,2.929474972E-2,-4.660528619E-3
1.328470616E1,7.590003312E-3,2.024000883E-2,-2.530001104E-3
1.330497783E1,5.992108025E-3,2.929474972E-2,-1.997369342E-3
1.332524944E1,8.122635074E-3,4.207791388E-2,6.524739787E-3
1.334552106E1,1.504684892E-2,5.166528746E-2,1.451421715E-2
1.336579267E1,2.889527567E-2,5.273054913E-2,1.930790395E-2
1.338606424E1,4.221107066E-2,5.432844535E-2,2.463422157E-2
1.340633585E1,4.647212476E-2,4.793686420E-2,2.197106183E-2
1.342660752E1,5.499423668E-2,5.858949944E-2,1.185105834E-2
1.344687913E1,6.032055244E-2,4.101264849E-2,-4.127896391E-3
1.346715075E1,5.392897129E-2,2.263685223E-3,-1.531316526E-2
1.348742236E1,4.061317816E-2,-1.105211023E-2,-1.637842879E-2
1.350769398E1,3.209106624E-2,4.926844500E-3,-1.531316526E-2
1.352796559E1,3.049317189E-2,1.731053460E-3,-1.850895584E-2
1.354823720E1,3.528685868E-2,-1.211737376E-2,-2.223737910E-2
1.356850882E1,2.623211779E-2,-3.448791057E-2,-2.969422378E-2
1.358878043E1,1.930790395E-2,-1.691105962E-2,-2.703106403E-2
1.360905205E1,1.664474420E-2,3.328948980E-3,-1.744369231E-2
1.362932361E1,1.398158539E-2,-2.530001104E-3,-1.265000552E-2
1.364959517E1,1.078579482E-2,-3.595264861E-3,-1.265000552E-2
1.366986679E1,5.459476262E-3,6.657897611E-4,-1.051947847E-2
1.369013840E1,1.331579551E-4,-1.318263728E-2,-1.158474199E-2
1.371041002E1,-6.258423906E-3,-1.531316526E-2,-9.986846708E-3
1.373068163E1,-3.595264861E-3,7.989477366E-3,-2.530001104E-3
1.375095319E1,-4.660528619E-3,6.391582079E-3,-3.062632866E-3
1.377122481E1,-4.127896391E-3,-1.265000552E-2,-3.595264861E-3
1.379149642E1,-9.321057005E-4,-1.797632314E-2,2.263685223E-3
1.381176804E1,1.731053460E-3,-1.265000552E-2,7.057371549E-3
1.383216804E1,-3.595264861E-3,-9.454214945E-3,8.655266836E-3
1.385231121E1,-5.193160381E-3,-5.725792143E-3,8.122635074E-3
1.387258283E1,-4.127896391E-3,6.391582079E-3,7.590003312E-3
1.389285444E1,-4.127896391E-3,7.456845604E-3,7.057371549E-3
1.391312601E1,-3.062632866E-3,1.331579551E-4,7.590003312E-3
1.393339762E1,-5.725792143E-3,-1.997369342E-3,1.078579482E-2
1.395366927E1,-6.258423906E-3,3.861580743E-3,1.451421715E-2
1.397394083E1,-4.127896391E-3,5.858949851E-3,1.238369010E-2
1.399421244E1,1.331579551E-4,-3.595264861E-3,8.122635074E-3
1.401448401E1,4.926844500E-3,-4.127896391E-3,3.328948980E-3
1.403475562E1,7.057371549E-3,8.522109129E-3,4.926844500E-3
1.405502718E1,5.992108025E-3,-3.994738800E-4,1.731053460E-3
1.407529880E1,6.524739787E-3,-2.010685205E-2,1.331579551E-4
1.409557041E1,1.078579482E-2,-1.051947847E-2,-3.994738800E-4
1.411584198E1,1.025316212E-2,2.796316985E-3,-9.321057005E-4
1.413611359E1,8.655266836E-3,2.263685223E-3,1.331579551E-4
1.415651359E1,8.655266836E-3,-9.454214945E-3,1.331579551E-4
1.417665677E1,8.655266836E-3,-1.158474199E-2,1.198421582E-3
1.419692833E1,3.328948980E-3,-2.530001104E-3,7.057371549E-3
1.421719994E1,-1.997369342E-3,1.331579551E-4,1.131842658E-2
1.423747151E1,-9.321057005E-4,-6.791055668E-3,1.025316212E-2
1.425774307E1,1.731053460E-3,-9.321057005E-4,9.187898599E-3
1.427801468E1,1.198421582E-3,3.328948980E-3,8.122635074E-3
1.429828625E1,1.331579551E-4,1.198421582E-3,7.057371549E-3
1.431855786E1,-3.994738800E-4,-1.051947847E-2,3.328948980E-3
1.433882942E1,1.731053460E-3,-6.791055668E-3,3.328948980E-3
1.435910099E1,2.263685223E-3,-2.530001104E-3,2.263685223E-3
1.437937260E1,-9.321057005E-4,-1.997369342E-3,-3.994738800E-4
1.439964416E1,1.731053460E-3,-9.321057005E-4,-3.062632866E-3
1.441991573E1,4.394212738E-3,-4.660528619E-3,-6.258423906E-3
1.444018734E1,5.459476262E-3,-8.921583183E-3,-6.258423906E-3
1.446045890E1,4.394212738E-3,-3.994738800E-4,-2.530001104E-3
1.448073046E1,-2.530001104E-3,4.394212738E-3,3.328948980E-3
1.450100203E1,-5.193160381E-3,-5.193160381E-3,1.198421582E-3
1.452127364E1,-2.530001104E-3,-5.193160381E-3,1.198421582E-3
1.454160942E1,-9.321057005E-4,-5.193160381E-3,3.861580743E-3
1.456200942E1,-3.595264861E-3,-3.994738800E-4,2.263685223E-3
1.458208833E1,-2.530001104E-3,1.731053460E-3,-3.994738800E-4
1.460235989E1,1.198421582E-3,-3.062632866E-3,-1.997369342E-3
1.462263151E1,1.731053460E-3,-3.062632866E-3,-9.321057005E-4
1.464290307E1,-3.994738800E-4,2.796316985E-3,-1.997369342E-3
1.466317463E1,-3.595264861E-3,3.861580743E-3,-1.464737463E-3
1.468344619E1,-1.464737463E-3,-1.997369342E-3,1.731053460E-3
1.470371776E1,-3.994738800E-4,-5.725792143E-3,3.328948980E-3
1.472398932E1,-3.994738800E-4,-1.464737463E-3,1.731053460E-3
1.474426088E1,6.657897611E-4,-1.464737463E-3,1.198421582E-3
1.476453244E1,2.263685223E-3,-2.530001104E-3,6.657897611E-4
1.478480401E1,1.731053460E-3,-9.454214945E-3,-9.321057005E-4
1.480507557E1,3.861580743E-3,-6.791055668E-3,1.731053460E-3
1.482534713E1,4.394212738E-3,-2.530001104E-3,-1.464737463E-3
1.484561869E1,3.328948980E-3,-8.388951421E-3,-5.193160381E-3
1.486589026E1,1.198421582E-3,-9.986846708E-3,-4.127896391E-3
1.488616182E1,6.657897611E-4,-6.258423906E-3,-3.595264861E-3
1.490643338E1,-1.997369342E-3,3.328948980E-3,-4.660528619E-3
1.492670494E1,-5.193160381E-3,5.858949851E-3,-5.193160381E-3
1.494697651E1,-6.791055668E-3,4.394212738E-3,-1.997369342E-3
1.496724802E1,-8.388951421E-3,9.587372653E-3,2.263685223E-3
1.498751963E1,-6.791055668E-3,1.012000442E-2,1.331579551E-4
1.500779119E1,-5.193160381E-3,5.858949851E-3,-1.997369342E-3
1.502806270E1,-2.530001104E-3,2.263685223E-3,-2.530001104E-3
1.504833427E1,-1.997369342E-3,-4.660528619E-3,-3.062632866E-3
1.506860583E1,-1.464737463E-3,-3.994738800E-4,-2.530001104E-3
1.508887739E1,-3.994738800E-4,2.263685223E-3,-1.997369342E-3
1.510914895E1,-1.464737463E-3,1.198421582E-3,-7.323687430E-3
1.512942046E1,1.731053460E-3,-1.464737463E-3,-9.454214945E-3
1.514969203E1,1.731053460E-3,-3.994738800E-4,-7.323687430E-3
1.516996359E1,-6.258423906E-3,1.331579551E-4,-4.660528619E-3
1.519023515E1,-6.258423906E-3,4.926844500E-3,-1.997369342E-3
1.521050671E1,-7.323687430E-3,5.858949851E-3,-5.193160381E-3
1.523077828E1,-8.921583183E-3,-5.725792143E-3,-3.595264861E-3
1.525104979E1,-6.791055668E-3,6.657897611E-4,5.459476262E-3
1.527132135E1,-8.388951421E-3,-4.127896391E-3,7.590003312E-3
1.529172135E1,-8.388951421E-3,-5.725792143E-3,2.263685223E-3
1.531186442E1,-5.725792143E-3,-6.258423906E-3,1.731053460E-3
1.533213598E1,-4.127896391E-3,-1.105211023E-2,7.057371549E-3
1.535240755E1,-5.725792143E-3,-1.318263728E-2,7.590003312E-3
1.537267911E1,-1.371526904E-2,-1.904158667E-2,4.394212738E-3
1.539295062E1,-1.318263728E-2,-1.904158667E-2,8.655266836E-3
1.541322218E1,-8.388951421E-3,-9.986846708E-3,9.720530361E-3
1.543349375E1,-1.997369342E-3,4.394212738E-3,8.122635074E-3
1.545376526E1,-3.062632866E-3,3.861580743E-3,7.590003312E-3
1.547403677E1,-3.994738800E-4,-1.997369342E-3,4.394212738E-3
1.549430833E1,1.198421582E-3,-7.856319658E-3,-9.321057005E-4
1.551457989E1,1.198421582E-3,-5.193160381E-3,-3.994738800E-4
1.553485140E1,3.328948980E-3,-1.464737463E-3,2.263685223E-3
1.555512291E1,1.331579551E-4,2.796316985E-3,2.263685223E-3
1.557539448E1,-1.464737463E-3,2.263685223E-3,1.331579551E-4
1.559566598E1,-2.530001104E-3,-6.258423906E-3,1.331579551E-4
1.561593755E1,-3.994738800E-4,-4.660528619E-3,6.657897611E-4
1.563620906E1,1.198421582E-3,4.394212738E-3,2.796316985E-3
1.565648057E1,-1.464737463E-3,5.326318089E-3,3.328948980E-3
1.567675213E1,-3.062632866E-3,-9.321057005E-4,4.926844500E-3
1.569702364E1,-1.464737463E-3,1.331579551E-4,2.796316985E-3
1.571729520E1,1.331579551E-4,2.263685223E-3,2.796316985E-3
1.573756671E1,-9.321057005E-4,1.731053460E-3,1.731053460E-3
1.575783822E1,-1.997369342E-3,6.657897611E-4,1.198421582E-3
1.577810974E1,-3.595264861E-3,-1.464737463E-3,-3.994738800E-4
1.579838130E1,-9.321057005E-4,1.198421582E-3,1.731053460E-3
1.581865281E1,-3.062632866E-3,1.012000442E-2,2.263685223E-3
1.583892437E1,-3.062632866E-3,6.924213842E-3,1.731053460E-3
1.585919588E1,-2.530001104E-3,-3.595264861E-3,1.198421582E-3
1.587946734E1,-2.530001104E-3,-6.791055668E-3,3.328948980E-3
1.589973895E1,-1.997369342E-3,4.394212738E-3,3.328948980E-3
1.592001046E1,-1.997369342E-3,4.926844500E-3,2.263685223E-3
1.594028198E1,-1.464737463E-3,-1.464737463E-3,-2.530001104E-3
1.596055348E1,-9.321057005E-4,-7.856319658E-3,-3.595264861E-3
1.598082500E1,-3.994738800E-4,-6.258423906E-3,-9.321057005E-4
1.600109656E1,-3.062632866E-3,1.731053460E-3,2.263685223E-3
1.602136807E1,-3.595264861E-3,-3.595264861E-3,-9.321057005E-4
1.604170385E1,-9.321057005E-4,-1.051947847E-2,-1.464737463E-3
1.606210385E1,1.198421582E-3,-3.994738800E-4,-9.321057005E-4
1.608218265E1,1.331579551E-4,5.326318089E-3,1.731053460E-3
1.610245416E1,-3.994738800E-4,-2.530001104E-3,1.731053460E-3
1.612272567E1,1.731053460E-3,-5.725792143E-3,1.331579551E-4
1.614299718E1,-9.321057005E-4,-3.994738800E-4,-9.321057005E-4
1.616326869E1,-9.321057005E-4,1.731053460E-3,1.198421582E-3
1.618354020E1,-3.994738800E-4,1.731053460E-3,1.331579551E-4
1.620381171E1,-3.994738800E-4,-3.062632866E-3,1.198421582E-3
1.622408322E1,-2.530001104E-3,5.858949851E-3,4.926844500E-3
1.624435479E1,-3.595264861E-3,1.198421582E-3,6.524739787E-3
1.626462630E1,-3.994738800E-4,-8.921583183E-3,4.394212738E-3
1.628489781E1,1.331579551E-4,-5.725792143E-3,6.657897611E-4
1.630516927E1,1.198421582E-3,6.657897611E-4,1.331579551E-4
1.632544078E1,3.861580743E-3,-3.062632866E-3,-3.994738800E-4
1.634571234E1,3.328948980E-3,-3.595264861E-3,1.331579551E-4
1.636598385E1,1.731053460E-3,-2.530001104E-3,-9.321057005E-4
1.638625536E1,-9.321057005E-4,-3.595264861E-3,-1.997369342E-3
1.640652682E1,-2.530001104E-3,6.924213842E-3,4.394212738E-3
1.642679833E1,-1.464737463E-3,-4.660528619E-3,2.263685223E-3
1.644706984E1,1.731053460E-3,-2.530001104E-3,-1.464737463E-3
1.646734130E1,6.657897611E-4,-4.660528619E-3,-4.660528619E-3
1.648761281E1,2.796316985E-3,-3.062632866E-3,-2.530001104E-3
1.650788432E1,6.657897611E-4,-1.997369342E-3,-1.464737463E-3
1.652815583E1,1.731053460E-3,-1.158474199E-2,-4.660528619E-3
1.654842734E1,-9.321057005E-4,2.263685223E-3,-6.791055668E-3
1.656869885E1,-1.997369342E-3,2.263685223E-3,-5.725792143E-3
1.658897031E1,-2.530001104E-3,2.263685223E-3,-3.994738800E-4
1.660924182E1,-3.595264861E-3,-3.062632866E-3,4.926844500E-3
1.662951333E1,-4.660528619E-3,-6.791055668E-3,9.187898599E-3
1.664978484E1,-4.660528619E-3,-3.994738800E-4,1.131842658E-2
1.667005630E1,-6.258423906E-3,4.926844500E-3,4.394212738E-3
1.669032781E1,-4.127896391E-3,-3.994738800E-4,-3.062632866E-3
1.671059932E1,-3.994738800E-4,-7.323687430E-3,-3.062632866E-3
1.673087078E1,1.731053460E-3,-5.725792143E-3,-9.321057005E-4
1.675114229E1,3.328948980E-3,-9.321057005E-4,-5.725792143E-3
1.677141380E1,3.328948980E-3,-2.530001104E-3,-9.454214945E-3
1.679168526E1,3.328948980E-3,-3.062632866E-3,-6.791055668E-3
1.681195677E1,3.328948980E-3,2.796316985E-3,-2.530001104E-3
1.683222828E1,-3.994738800E-4,-1.464737463E-3,6.657897611E-4
1.685249974E1,-1.464737463E-3,-7.323687430E-3,2.263685223E-3
1.687277125E1,1.198421582E-3,-3.994738800E-4,4.926844500E-3
1.689304270E1,1.198421582E-3,-9.321057005E-4,4.394212738E-3
1.691331421E1,2.263685223E-3,-6.791055668E-3,4.394212738E-3
1.693358572E1,3.328948980E-3,-5.725792143E-3,2.263685223E-3
1.695385718E1,1.731053460E-3,-3.062632866E-3,-1.464737463E-3
1.697412869E1,1.731053460E-3,-1.997369342E-3,-1.997369342E-3
1.699440015E1,-2.530001104E-3,-1.997369342E-3,-4.127896391E-3
1.701467166E1,-2.530001104E-3,-9.321057005E-4,-1.464737463E-3
1.703494312E1,-3.062632866E-3,-3.994738800E-4,-9.321057005E-4
1.705521463E1,-4.127896391E-3,-8.921583183E-3,-9.321057005E-4
1.707548614E1,-3.994738800E-4,6.657897611E-4,-9.321057005E-4
1.709575760E1,-2.530001104E-3,3.861580743E-3,-1.464737463E-3
1.711602911E1,-2.530001104E-3,-1.464737463E-3,-2.530001104E-3
1.713630057E1,-4.660528619E-3,1.331579551E-4,-2.530001104E-3
1.715657203E1,-2.530001104E-3,-5.725792143E-3,1.331579551E-4
1.717684354E1,-2.530001104E-3,2.263685223E-3,4.394212738E-3
1.723257468E1,-3.994738800E-4,-1.997369342E-3,5.459476262E-3
1.725279276E1,-1.464737463E-3,-7.323687430E-3,3.328948980E-3
1.727305463E1,-2.530001104E-3,-5.193160381E-3,3.328948980E-3
1.729333698E1,-3.994738800E-4,6.391582079E-3,5.459476262E-3
1.731360822E1,-1.464737463E-3,-3.062632866E-3,3.328948980E-3
1.733400822E1,-3.994738800E-4,-7.323687430E-3,2.263685223E-3
1.735415109E1,-2.530001104E-3,1.198421582E-3,1.331579551E-4
1.737455109E1,-4.660528619E-3,9.587372653E-3,4.394212738E-3
1.739469401E1,-7.856319658E-3,6.391582079E-3,4.394212738E-3
1.741496546E1,-2.530001104E-3,-9.321057005E-4,-1.997369342E-3
1.743523692E1,-3.994738800E-4,1.331579551E-4,-3.062632866E-3
1.745550838E1,-3.595264861E-3,3.328948980E-3,1.198421582E-3
1.747577984E1,-3.595264861E-3,4.394212738E-3,1.198421582E-3
1.749605135E1,3.861580743E-3,-1.997369342E-3,-1.997369342E-3
1.751632281E1,7.057371549E-3,-1.997369342E-3,-9.321057005E-4
1.753659427E1,-3.994738800E-4,2.263685223E-3,-4.127896391E-3
1.755686572E1,-1.464737463E-3,1.198421582E-3,-4.127896391E-3
1.757713718E1,-3.994738800E-4,1.331579551E-4,-9.321057005E-4
1.759740864E1,-3.994738800E-4,1.331579551E-4,-9.321057005E-4
1.761768010E1,2.796316985E-3,3.328948980E-3,-6.258423906E-3
1.763795161E1,2.796316985E-3,4.394212738E-3,-8.388951421E-3
1.765822307E1,1.731053460E-3,7.456845604E-3,-5.193160381E-3
1.767849448E1,-2.530001104E-3,1.171789970E-2,-1.997369342E-3
1.769876598E1,-4.660528619E-3,5.326318089E-3,4.394212738E-3
1.771903744E1,-5.725792143E-3,-5.193160381E-3,1.078579482E-2
1.773930890E1,-7.856319658E-3,1.198421582E-3,9.720530361E-3
1.775958031E1,-7.856319658E-3,1.065263618E-2,6.524739787E-3
1.777985177E1,-4.660528619E-3,4.394212738E-3,8.655266836E-3
1.780012322E1,-1.464737463E-3,-9.454214945E-3,6.524739787E-3
1.782039468E1,-1.464737463E-3,-7.323687430E-3,4.394212738E-3
1.784066614E1,-2.530001104E-3,8.522109129E-3,1.198421582E-3
1.786093760E1,-1.464737463E-3,8.522109129E-3,-7.323687430E-3
1.788120906E1,1.731053460E-3,-4.127896391E-3,-1.051947847E-2
1.790160906E1,4.926844500E-3,-6.258423906E-3,-6.258423906E-3
1.792175198E1,4.926844500E-3,-4.127896391E-3,-5.193160381E-3
1.794202343E1,1.731053460E-3,1.331579551E-4,-1.997369342E-3
1.796229489E1,1.731053460E-3,-3.062632866E-3,2.263685223E-3
1.798256630E1,1.731053460E-3,-6.258423906E-3,3.328948980E-3
1.800283776E1,1.731053460E-3,-3.062632866E-3,4.394212738E-3
1.802310921E1,-1.464737463E-3,5.326318089E-3,5.459476262E-3
1.804338067E1,-5.725792143E-3,1.198421582E-3,3.328948980E-3
1.806365213E1,-1.464737463E-3,-6.258423906E-3,4.394212738E-3
1.808392359E1,6.657897611E-4,-1.997369342E-3,6.524739787E-3
1.810419494E1,-1.464737463E-3,5.326318089E-3,7.590003312E-3
1.812446645E1,-3.595264861E-3,6.391582079E-3,5.459476262E-3
1.814473791E1,-4.660528619E-3,3.328948980E-3,2.263685223E-3
1.816500937E1,-6.791055668E-3,4.394212738E-3,3.328948980E-3
1.818528083E1,-5.725792143E-3,1.198421582E-3,7.590003312E-3
1.820555224E1,-2.530001104E-3,-3.062632866E-3,4.394212738E-3
1.822582369E1,4.926844500E-3,-3.062632866E-3,-1.997369342E-3
1.824609515E1,1.131842658E-2,-1.997369342E-3,1.198421582E-3
1.826636656E1,8.122635074E-3,-1.997369342E-3,2.263685223E-3
1.828663802E1,3.861580743E-3,-9.321057005E-4,1.198421582E-3
1.830690948E1,3.861580743E-3,1.331579551E-4,3.328948980E-3
1.832718093E1,6.657897611E-4,-4.127896391E-3,1.331579551E-4
1.834758093E1,-2.530001104E-3,-1.997369342E-3,-9.321057005E-4
1.836772380E1,-3.994738800E-4,2.263685223E-3,3.328948980E-3
1.838799526E1,1.731053460E-3,-9.321057005E-4,1.198421582E-3
1.840826666E1,-3.994738800E-4,1.331579551E-4,-3.062632866E-3
1.842866666E1,-3.595264861E-3,9.587372653E-3,-6.258423906E-3
1.844880958E1,-1.464737463E-3,6.391582079E-3,-6.258423906E-3
1.846908104E1,1.731053460E-3,-7.323687430E-3,-4.127896391E-3
1.848935244E1,-3.994738800E-4,-4.127896391E-3,-7.323687430E-3
1.850962390E1,-1.464737463E-3,5.326318089E-3,-4.127896391E-3
1.852989536E1,-1.464737463E-3,3.328948980E-3,2.263685223E-3
1.855029536E1,-2.530001104E-3,-3.062632866E-3,5.459476262E-3
1.857043822E1,-4.660528619E-3,1.198421582E-3,4.394212738E-3
1.859083823E1,-4.660528619E-3,4.394212738E-3,3.328948980E-3
1.861113906E1,-4.660528619E-3,2.263685223E-3,4.394212738E-3
1.863141057E1,-1.464737463E-3,1.198421582E-3,5.459476262E-3
1.865152468E1,6.657897611E-4,4.394212738E-3,1.331579551E-4
1.867179599E1,6.657897611E-4,4.394212738E-3,-9.321057005E-4
1.869206724E1,-1.464737463E-3,1.198421582E-3,8.655266836E-3
1.871233864E1,-4.660528619E-3,-4.127896391E-3,1.291632187E-2
1.873273864E1,-8.921583183E-3,-5.193160381E-3,1.185105834E-2
1.875288145E1,-2.170474641E-2,-1.051947847E-2,3.328948980E-3
1.877328145E1,-2.596580051E-2,-2.543316968E-2,-4.127896391E-3
1.879342427E1,-1.318263728E-2,-1.371526904E-2,1.198421582E-3
1.881369562E1,-2.530001104E-3,9.587372653E-3,4.394212738E-3
1.883409562E1,-1.464737463E-3,4.394212738E-3,2.263685223E-3
1.885427796E1,2.796316985E-3,-1.051947847E-2,-3.062632866E-3
1.887451005E1,4.926844500E-3,-8.388951421E-3,-9.454214945E-3
1.889478145E1,2.796316985E-3,-3.062632866E-3,-1.904158667E-2
1.891505281E1,2.796316985E-3,-1.158474199E-2,-2.330264263E-2
1.893545281E1,2.796316985E-3,-1.904158667E-2,-1.904158667E-2
1.895559567E1,3.861580743E-3,-1.584579609E-2,-1.371526904E-2
1.897586713E1,3.861580743E-3,-7.323687430E-3,-1.158474199E-2
1.899613848E1,-3.994738800E-4,2.263685223E-3,-5.193160381E-3
1.901640994E1,-9.986846708E-3,8.522109129E-3,3.328948980E-3
1.903668130E1,-1.744369231E-2,1.198421582E-3,1.398158539E-2
1.905695276E1,-1.744369231E-2,-6.258423906E-3,2.037316747E-2
1.907722421E1,-1.424790081E-2,-4.127896391E-3,2.037316747E-2
1.909749562E1,-1.424790081E-2,1.198421582E-3,1.078579482E-2
1.911776703E1,-7.856319658E-3,7.456845604E-3,2.263685223E-3
1.913803849E1,-3.994738800E-4,7.456845604E-3,-3.062632866E-3
1.915830989E1,2.796316985E-3,2.263685223E-3,-8.388951421E-3
1.917858135E1,4.926844500E-3,2.263685223E-3,-1.265000552E-2
1.919885270E1,7.057371549E-3,-3.062632866E-3,-1.265000552E-2
1.921912416E1,4.926844500E-3,-6.258423906E-3,-9.454214945E-3
1.923939557E1,6.657897611E-4,1.198421582E-3,-7.323687430E-3
1.925966703E1,-3.595264861E-3,4.394212738E-3,-9.321057005E-4
1.927993843E1,-6.791055668E-3,5.326318089E-3,8.655266836E-3
1.930020989E1,-9.986846708E-3,6.391582079E-3,1.611211337E-2
1.932048130E1,-8.921583183E-3,1.198421582E-3,1.611211337E-2
1.934075270E1,-7.856319658E-3,4.394212738E-3,1.504684892E-2
1.936102416E1,-6.791055668E-3,1.065263618E-2,1.504684892E-2
1.938129557E1,-5.725792143E-3,6.391582079E-3,1.185105834E-2
1.940156703E1,2.796316985E-3,-6.258423906E-3,5.459476262E-3
1.942183838E1,9.187898599E-3,-7.323687430E-3,-1.997369342E-3
1.944210989E1,9.187898599E-3,3.328948980E-3,-6.258423906E-3
1.946238130E1,1.238369010E-2,1.331579551E-4,-9.454214945E-3
1.948265270E1,1.664474420E-2,-9.454214945E-3,-1.051947847E-2
1.950292411E1,1.451421715E-2,-3.062632866E-3,-7.323687430E-3
1.952319557E1,9.187898599E-3,1.065263618E-2,1.331579551E-4
1.954346703E1,7.057371549E-3,3.328948980E-3,7.590003312E-3
1.956373843E1,3.861580743E-3,-1.158474199E-2,1.398158539E-2
1.958400984E1,1.731053460E-3,-1.158474199E-2,1.611211337E-2
1.960428130E1,-1.464737463E-3,1.331579551E-4,1.824264042E-2
1.962455270E1,-3.595264861E-3,1.331579551E-4,2.143843099E-2
1.964482416E1,-5.725792143E-3,-7.323687430E-3,1.611211337E-2
1.966509557E1,-3.994738800E-4,-4.127896391E-3,3.328948980E-3
1.968536698E1,3.861580743E-3,-9.321057005E-4,-3.062632866E-3
1.970563838E1,5.992108025E-3,1.331579551E-4,-6.258423906E-3
1.972590984E1,5.992108025E-3,-4.127896391E-3,-9.454214945E-3
1.974618125E1,9.187898599E-3,-9.454214945E-3,-1.265000552E-2
1.976645270E1,1.025316212E-2,-4.127896391E-3,-1.265000552E-2
1.978672411E1,8.122635074E-3,4.394212738E-3,-1.051947847E-2
1.980699552E1,5.992108025E-3,2.263685223E-3,-9.454214945E-3
1.982739552E1,7.057371549E-3,-3.062632866E-3,-5.193160381E-3
1.984753838E1,4.926844500E-3,-9.321057005E-4,-9.321057005E-4
1.986780979E1,6.657897611E-4,4.394212738E-3,-9.321057005E-4
1.988808125E1,-2.530001104E-3,5.326318089E-3,-1.997369342E-3
1.990835265E1,-3.595264861E-3,3.328948980E-3,-1.997369342E-3
1.992862406E1,-4.660528619E-3,5.326318089E-3,1.331579551E-4
1.994889546E1,-6.791055668E-3,6.391582079E-3,2.263685223E-3
1.996916692E1,-8.921583183E-3,7.456845604E-3,1.198421582E-3
1.998943833E1,-5.725792143E-3,8.522109129E-3,-9.321057005E-4
2.000970974E1,-2.530001104E-3,6.391582079E-3,-1.997369342E-3
2.003005989E1,-3.595264861E-3,5.326318089E-3,-1.997369342E-3
2.005041026E1,-8.921583183E-3,1.331579551E-4,3.328948980E-3
2.007052427E1,-5.725792143E-3,-7.323687430E-3,9.720530361E-3
2.009092427E1,-2.530001104E-3,-1.997369342E-3,8.655266836E-3
2.011122500E1,-2.530001104E-3,1.198421582E-3,-1.997369342E-3
2.013149645E1,6.657897611E-4,-9.321057005E-4,-1.051947847E-2
2.015161057E1,2.796316985E-3,-3.062632866E-3,-8.388951421E-3
2.017201057E1,4.926844500E-3,-9.321057005E-4,-5.193160381E-3
2.019215323E1,6.657897611E-4,-4.127896391E-3,-3.062632866E-3
2.021242448E1,-3.595264861E-3,-9.454214945E-3,-9.321057005E-4
2.023282448E1,-3.994738800E-4,-6.258423906E-3,1.198421582E-3
2.025296718E1,-1.464737463E-3,-5.193160381E-3,4.394212738E-3
2.027323854E1,-3.595264861E-3,4.394212738E-3,8.655266836E-3
2.029350989E1,-5.725792143E-3,8.522109129E-3,1.078579482E-2
2.031378124E1,-9.986846708E-3,-3.062632866E-3,7.590003312E-3
2.033418124E1,-7.856319658E-3,1.331579551E-4,5.459476262E-3
2.035432395E1,-2.530001104E-3,6.391582079E-3,7.590003312E-3
2.037459541E1,-2.530001104E-3,-1.997369342E-3,5.459476262E-3
2.039486687E1,-3.595264861E-3,-1.051947847E-2,1.198421582E-3
2.041513822E1,-3.994738800E-4,-1.997369342E-3,1.331579551E-4
2.043540963E1,-3.994738800E-4,1.331579551E-4,-1.997369342E-3
2.045568098E1,-2.530001104E-3,1.331579551E-4,1.331579551E-4
2.047595239E1,-5.725792143E-3,-3.062632866E-3,-9.321057005E-4
2.049622380E1,-1.464737463E-3,-4.127896391E-3,-9.321057005E-4
2.051649520E1,6.657897611E-4,-3.062632866E-3,2.263685223E-3
2.053676666E1,-3.994738800E-4,-9.321057005E-4,6.524739787E-3
2.055703807E1,-1.464737463E-3,3.328948980E-3,4.394212738E-3
2.057730948E1,-1.464737463E-3,-6.258423906E-3,4.394212738E-3
2.059758088E1,-3.994738800E-4,-7.323687430E-3,4.394212738E-3
2.061785224E1,6.657897611E-4,3.328948980E-3,2.263685223E-3
2.063812364E1,1.731053460E-3,5.326318089E-3,-9.321057005E-4
2.065839505E1,1.731053460E-3,-4.127896391E-3,-5.193160381E-3
2.067866645E1,4.926844500E-3,-3.062632866E-3,-6.258423906E-3
2.069893786E1,3.861580743E-3,4.394212738E-3,-8.388951421E-3
2.071920932E1,1.731053460E-3,2.263685223E-3,-9.454214945E-3
2.073948072E1,-1.464737463E-3,1.331579551E-4,-6.258423906E-3
2.075975213E1,-1.464737463E-3,-1.997369342E-3,-9.321057005E-4
2.078002354E1,1.731053460E-3,-9.321057005E-4,3.328948980E-3
2.080029494E1,2.796316985E-3,-3.062632866E-3,2.263685223E-3
2.082056635E1,1.731053460E-3,-1.997369342E-3,1.198421582E-3
2.084083776E1,-3.994738800E-4,2.263685223E-3,3.328948980E-3
2.086110916E1,-2.530001104E-3,6.391582079E-3,5.459476262E-3
2.088138057E1,-3.595264861E-3,4.394212738E-3,7.590003312E-3
2.090165198E1,-2.530001104E-3,6.391582079E-3,3.328948980E-3
2.092192338E1,-2.530001104E-3,8.522109129E-3,-1.997369342E-3
2.094219479E1,-3.994738800E-4,5.326318089E-3,-9.321057005E-4
2.096246619E1,1.731053460E-3,3.328948980E-3,3.328948980E-3
2.098273760E1,2.796316985E-3,5.326318089E-3,4.394212738E-3
2.100300901E1,4.926844500E-3,2.263685223E-3,1.331579551E-4
2.102328041E1,7.057371549E-3,1.331579551E-4,-8.388951421E-3
2.104355182E1,8.122635074E-3,2.263685223E-3,-9.454214945E-3
2.106382322E1,2.796316985E-3,6.391582079E-3,-6.258423906E-3
2.108409463E1,-5.725792143E-3,1.198421582E-3,-1.997369342E-3
2.110436598E1,-4.660528619E-3,-3.062632866E-3,1.198421582E-3
2.112463739E1,-3.994738800E-4,-1.997369342E-3,1.198421582E-3
2.114490880E1,-1.464737463E-3,2.263685223E-3,1.198421582E-3
2.116518020E1,-1.464737463E-3,5.326318089E-3,3.328948980E-3
2.118545161E1,-1.464737463E-3,5.326318089E-3,4.394212738E-3
2.120572296E1,-4.660528619E-3,3.328948980E-3,2.263685223E-3
2.122599437E1,-6.791055668E-3,-9.321057005E-4,4.394212738E-3
2.124626578E1,-3.595264861E-3,-5.193160381E-3,6.524739787E-3
2.126653718E1,1.731053460E-3,-5.193160381E-3,1.198421582E-3
2.128680859E1,5.992108025E-3,-3.062632866E-3,-3.062632866E-3
2.130707994E1,7.057371549E-3,-9.321057005E-4,1.331579551E-4
2.132735135E1,7.057371549E-3,-9.321057005E-4,1.198421582E-3
2.134762276E1,9.187898599E-3,-3.062632866E-3,1.331579551E-4
2.136789411E1,1.025316212E-2,-5.193160381E-3,1.331579551E-4
2.138816552E1,9.187898599E-3,-9.321057005E-4,1.198421582E-3
2.140843692E1,3.861580743E-3,1.198421582E-3,4.394212738E-3
2.142870828E1,1.731053460E-3,-1.997369342E-3,5.459476262E-3
2.144897968E1,1.731053460E-3,6.391582079E-3,4.394212738E-3
2.146925109E1,1.731053460E-3,8.522109129E-3,3.328948980E-3
2.148952244E1,1.731053460E-3,5.326318089E-3,3.328948980E-3
2.150979385E1,-3.994738800E-4,3.328948980E-3,4.394212738E-3
2.153019385E1,-1.464737463E-3,7.456845604E-3,5.459476262E-3
2.155049458E1,6.657897611E-4,9.587372653E-3,3.328948980E-3
2.157064791E1,2.796316985E-3,1.198421582E-3,2.263685223E-3
2.159103802E1,5.992108025E-3,-5.193160381E-3,1.198421582E-3
2.161130906E1,4.926844500E-3,-6.258423906E-3,1.198421582E-3
2.163158046E1,3.861580743E-3,1.331579551E-4,1.331579551E-4
2.165169448E1,1.731053460E-3,4.394212738E-3,-9.321057005E-4
2.167196567E1,2.796316985E-3,1.331579551E-4,-9.321057005E-4
2.169223692E1,5.992108025E-3,-7.323687430E-3,-3.062632866E-3
2.171250812E1,7.057371549E-3,-5.193160381E-3,-6.258423906E-3
2.173290812E1,7.057371549E-3,4.394212738E-3,-5.193160381E-3
2.175305078E1,5.992108025E-3,2.263685223E-3,-5.193160381E-3
2.177332208E1,4.926844500E-3,-6.258423906E-3,-6.258423906E-3
2.179359343E1,2.796316985E-3,-9.321057005E-4,-4.127896391E-3
2.181386468E1,6.657897611E-4,2.263685223E-3,-4.127896391E-3
2.183426468E1,6.657897611E-4,3.328948980E-3,-1.997369342E-3
2.185452588E1,3.861580743E-3,-9.321057005E-4,-1.997369342E-3
2.187467921E1,4.926844500E-3,-9.321057005E-4,-1.997369342E-3
2.189495046E1,2.796316985E-3,2.263685223E-3,-9.321057005E-4
2.191522177E1,-3.994738800E-4,3.328948980E-3,2.263685223E-3
2.193562177E1,-2.530001104E-3,1.198421582E-3,4.394212738E-3
2.195576442E1,-4.660528619E-3,-3.062632866E-3,2.263685223E-3
2.197603573E1,-2.530001104E-3,-1.997369342E-3,-1.997369342E-3
2.199630703E1,-2.530001104E-3,-1.997369342E-3,1.331579551E-4
2.201657838E1,-3.994738800E-4,-4.127896391E-3,1.331579551E-4
2.203684974E1,2.796316985E-3,-3.062632866E-3,-4.127896391E-3
2.205712104E1,4.926844500E-3,-9.321057005E-4,-8.388951421E-3
2.207739244E1,3.861580743E-3,-9.321057005E-4,-6.258423906E-3
2.209766380E1,-3.994738800E-4,-1.997369342E-3,-5.193160381E-3
2.211793510E1,-1.464737463E-3,-1.997369342E-3,-6.258423906E-3
2.213820645E1,2.796316985E-3,-3.062632866E-3,-3.062632866E-3
2.215847786E1,6.657897611E-4,3.328948980E-3,2.263685223E-3
2.217874921E1,-3.595264861E-3,3.328948980E-3,3.328948980E-3
2.219902057E1,-3.595264861E-3,1.331579551E-4,2.263685223E-3
2.221929187E1,-3.595264861E-3,6.391582079E-3,2.263685223E-3
2.223956328E1,-4.660528619E-3,1.065263618E-2,3.328948980E-3
2.225983463E1,-3.595264861E-3,4.394212738E-3,4.394212738E-3
2.228010593E1,-2.530001104E-3,-4.127896391E-3,3.328948980E-3
2.230037729E1,-1.464737463E-3,4.394212738E-3,1.331579551E-4
2.232064864E1,-2.530001104E-3,7.456845604E-3,1.198421582E-3
2.234092000E1,6.657897611E-4,1.198421582E-3,1.198421582E-3
2.236119135E1,2.796316985E-3,-3.062632866E-3,1.198421582E-3
2.238146276E1,6.657897611E-4,-4.127896391E-3,1.198421582E-3
2.240173411E1,-3.595264861E-3,3.328948980E-3,1.331579551E-4
2.242200546E1,-5.725792143E-3,6.391582079E-3,1.331579551E-4
2.244227677E1,-2.530001104E-3,1.198421582E-3,3.328948980E-3
2.246254812E1,6.657897611E-4,-9.321057005E-4,4.394212738E-3
2.248281948E1,-2.530001104E-3,1.331579551E-4,3.328948980E-3
2.250309093E1,-3.595264861E-3,6.391582079E-3,3.328948980E-3
2.252336218E1,-2.530001104E-3,2.263685223E-3,3.328948980E-3
2.254363354E1,-3.994738800E-4,-9.321057005E-4,3.328948980E-3
2.256390489E1,-1.464737463E-3,4.394212738E-3,1.331579551E-4
2.258417625E1,-3.994738800E-4,2.263685223E-3,2.263685223E-3
2.260444760E1,-3.994738800E-4,1.331579551E-4,4.394212738E-3
2.262471895E1,-1.464737463E-3,2.263685223E-3,4.394212738E-3
2.264499026E1,-3.994738800E-4,-1.997369342E-3,4.394212738E-3
2.266526161E1,2.796316985E-3,-9.321057005E-4,4.394212738E-3
2.268553296E1,1.731053460E-3,1.198421582E-3,4.394212738E-3
2.270580427E1,-3.994738800E-4,1.331579551E-4,1.331579551E-4
2.272607567E1,-1.464737463E-3,-1.997369342E-3,-4.127896391E-3
2.274634703E1,-1.464737463E-3,1.331579551E-4,-9.321057005E-4
2.276661833E1,-1.464737463E-3,-4.127896391E-3,3.328948980E-3
2.278688963E1,1.731053460E-3,-6.258423906E-3,-1.997369342E-3
2.280716104E1,4.926844500E-3,1.331579551E-4,-4.127896391E-3
2.282743239E1,1.731053460E-3,-1.997369342E-3,-9.321057005E-4
2.284770369E1,-5.725792143E-3,1.198421582E-3,1.331579551E-4
2.286797505E1,-5.725792143E-3,4.394212738E-3,1.331579551E-4
2.288824640E1,-4.660528619E-3,4.394212738E-3,3.328948980E-3
2.290851770E1,-5.725792143E-3,2.263685223E-3,2.263685223E-3
2.292878906E1,-3.595264861E-3,1.331579551E-4,1.331579551E-4
2.294906041E1,-2.530001104E-3,4.394212738E-3,1.198421582E-3
2.296933171E1,-1.464737463E-3,3.328948980E-3,-1.997369342E-3
2.298960307E1,-1.464737463E-3,3.328948980E-3,-3.062632866E-3
2.300987442E1,-3.595264861E-3,1.331579551E-4,-1.997369342E-3
2.303027442E1,-1.464737463E-3,1.331579551E-4,2.263685223E-3
2.305057505E1,-3.595264861E-3,4.394212738E-3,1.198421582E-3
2.307080703E1,-1.464737463E-3,3.328948980E-3,1.331579551E-4
2.309111781E1,-1.464737463E-3,1.331579551E-4,2.263685223E-3
2.311138921E1,-3.994738800E-4,-3.062632866E-3,3.328948980E-3
2.313166057E1,6.657897611E-4,2.263685223E-3,4.394212738E-3
2.315177458E1,-2.530001104E-3,1.331579551E-4,-9.321057005E-4
2.317204572E1,-2.530001104E-3,-1.997369342E-3,-4.127896391E-3
2.319231692E1,-3.994738800E-4,1.331579551E-4,1.331579551E-4
2.321258817E1,1.731053460E-3,-3.062632866E-3,1.198421582E-3
2.323298817E1,1.731053460E-3,-1.997369342E-3,1.331579551E-4
2.325313073E1,-3.994738800E-4,-9.321057005E-4,1.331579551E-4
2.327340198E1,-3.994738800E-4,-9.321057005E-4,3.328948980E-3
2.329367328E1,-2.530001104E-3,2.263685223E-3,4.394212738E-3
2.331394453E1,-2.530001104E-3,-1.997369342E-3,4.394212738E-3
2.333434453E1,-3.994738800E-4,-5.193160381E-3,4.394212738E-3
2.335448718E1,-3.994738800E-4,-1.997369342E-3,3.328948980E-3
2.337475848E1,-3.994738800E-4,4.394212738E-3,1.198421582E-3
2.339502979E1,2.796316985E-3,3.328948980E-3,1.331579551E-4
2.341530109E1,4.926844500E-3,-6.258423906E-3,1.331579551E-4
2.343557244E1,3.861580743E-3,-9.454214945E-3,3.328948980E-3
2.345584369E1,4.926844500E-3,-9.454214945E-3,4.394212738E-3
2.347611500E1,2.796316985E-3,-7.323687430E-3,2.263685223E-3
2.349638635E1,-3.994738800E-4,-6.258423906E-3,1.198421582E-3
2.351665760E1,6.657897611E-4,-1.691105962E-2,1.198421582E-3
2.353692895E1,3.861580743E-3,-2.010685205E-2,1.198421582E-3
2.355720031E1,5.992108025E-3,-1.584579609E-2,1.331579551E-4
2.357747161E1,5.992108025E-3,-5.193160381E-3,-4.127896391E-3
2.359774296E1,-2.530001104E-3,6.391582079E-3,-4.127896391E-3
2.361801427E1,-3.595264861E-3,1.198421582E-3,-3.062632866E-3
2.363828552E1,-3.595264861E-3,-6.258423906E-3,-9.321057005E-4
2.365855682E1,-3.994738800E-4,-1.997369342E-3,2.263685223E-3
2.367882817E1,-3.994738800E-4,1.331579551E-4,3.328948980E-3
2.369909948E1,-3.994738800E-4,-6.258423906E-3,4.394212738E-3
2.371937072E1,1.731053460E-3,-4.127896391E-3,6.524739787E-3
2.373964208E1,4.926844500E-3,-9.321057005E-4,6.524739787E-3
2.375991343E1,2.796316985E-3,-4.127896391E-3,1.331579551E-4
2.378018474E1,3.861580743E-3,-8.388951421E-3,-5.193160381E-3
2.380045604E1,1.731053460E-3,-9.321057005E-4,-4.127896391E-3
2.382072734E1,-1.464737463E-3,3.328948980E-3,-9.321057005E-4
2.384099869E1,6.657897611E-4,-5.193160381E-3,-9.321057005E-4
2.386127000E1,4.926844500E-3,-9.454214945E-3,-3.062632866E-3
2.388154130E1,4.926844500E-3,-7.323687430E-3,-5.193160381E-3
2.390181260E1,6.657897611E-4,1.198421582E-3,-5.193160381E-3
2.392208390E1,-3.994738800E-4,2.263685223E-3,-1.997369342E-3
2.394235520E1,-3.994738800E-4,-1.997369342E-3,1.198421582E-3
2.396262651E1,1.731053460E-3,-7.323687430E-3,3.328948980E-3
2.398289786E1,-2.530001104E-3,1.198421582E-3,2.263685223E-3
2.400316916E1,-6.791055668E-3,7.456845604E-3,1.198421582E-3
2.402344046E1,-3.595264861E-3,3.328948980E-3,1.331579551E-4
2.404371177E1,-2.530001104E-3,-5.193160381E-3,-5.193160381E-3
2.406398307E1,-3.994738800E-4,-9.321057005E-4,-8.388951421E-3
2.408425437E1,3.861580743E-3,3.328948980E-3,-7.323687430E-3
2.410452567E1,2.796316985E-3,-5.193160381E-3,-7.323687430E-3
2.412479698E1,1.731053460E-3,-7.323687430E-3,-7.323687430E-3
2.414506828E1,-1.464737463E-3,-4.127896391E-3,-5.193160381E-3
2.416533958E1,-3.595264861E-3,4.394212738E-3,-9.321057005E-4
2.418561088E1,-4.660528619E-3,3.328948980E-3,4.394212738E-3
2.420588218E1,-5.725792143E-3,-4.127896391E-3,1.331579551E-4
2.422615348E1,-4.660528619E-3,-4.127896391E-3,-5.193160381E-3
2.424642479E1,-3.595264861E-3,1.198421582E-3,-9.321057005E-4
2.426669609E1,-7.856319658E-3,3.328948980E-3,3.328948980E-3
2.428696739E1,-4.660528619E-3,3.328948980E-3,2.263685223E-3
2.430723864E1,-2.530001104E-3,4.394212738E-3,2.263685223E-3
2.432751000E1,-5.725792143E-3,7.456845604E-3,2.263685223E-3
2.434778124E1,-8.921583183E-3,4.394212738E-3,3.328948980E-3
2.436805260E1,-6.791055668E-3,1.331579551E-4,5.459476262E-3
2.438832385E1,-4.660528619E-3,1.198421582E-3,6.524739787E-3
2.440872385E1,-2.530001104E-3,5.326318089E-3,3.328948980E-3
2.442886750E1,-2.530001104E-3,6.391582079E-3,1.331579551E-4
2.444913859E1,6.657897611E-4,6.391582079E-3,1.331579551E-4
2.446940968E1,6.657897611E-4,3.328948980E-3,1.331579551E-4
2.448968088E1,-3.595264861E-3,6.391582079E-3,1.331579551E-4
2.450995203E1,-6.791055668E-3,9.587372653E-3,3.328948980E-3
2.453035203E1,-2.530001104E-3,6.391582079E-3,7.590003312E-3
2.455065244E1,-1.464737463E-3,7.456845604E-3,5.459476262E-3
2.457092380E1,-5.725792143E-3,9.587372653E-3,7.590003312E-3
2.459119510E1,-8.921583183E-3,1.278316416E-2,1.398158539E-2
2.461119140E1,-7.856319658E-3,6.391582079E-3,1.398158539E-2
2.463159140E1,-4.660528619E-3,-1.997369342E-3,9.720530361E-3
2.465185166E1,-2.530001104E-3,2.263685223E-3,4.394212738E-3
2.467212276E1,-4.660528619E-3,7.456845604E-3,1.198421582E-3
2.469239390E1,-1.464737463E-3,4.394212738E-3,1.331579551E-4
2.471266505E1,-1.464737463E-3,-1.997369342E-3,1.331579551E-4
2.473306505E1,-3.994738800E-4,-9.321057005E-4,1.198421582E-3
2.475320750E1,-3.994738800E-4,-1.997369342E-3,-1.997369342E-3
2.477347869E1,-1.464737463E-3,-1.997369342E-3,-4.127896391E-3
2.479374994E1,-2.530001104E-3,-3.062632866E-3,-6.258423906E-3
2.481402119E1,-2.530001104E-3,-9.321057005E-4,-7.323687430E-3
2.483442119E1,-4.660528619E-3,1.331579551E-4,-6.258423906E-3
2.485468213E1,-3.595264861E-3,3.328948980E-3,-9.321057005E-4
2.487483541E1,-6.791055668E-3,6.391582079E-3,-1.997369342E-3
2.489510656E1,-7.856319658E-3,8.522109129E-3,-1.997369342E-3
2.491537765E1,-8.921583183E-3,8.522109129E-3,3.328948980E-3
2.493577765E1,-9.986846708E-3,-9.321057005E-4,5.459476262E-3
2.495592026E1,-8.921583183E-3,-3.062632866E-3,5.459476262E-3
2.497619140E1,-8.921583183E-3,2.263685223E-3,1.078579482E-2
2.499646265E1,-4.660528619E-3,-3.062632866E-3,1.291632187E-2
2.501673390E1,-3.994738800E-4,-9.454214945E-3,5.459476262E-3
2.503700520E1,4.926844500E-3,-8.388951421E-3,1.331579551E-4
2.505727640E1,8.122635074E-3,-3.062632866E-3,-9.321057005E-4
2.507754770E1,3.861580743E-3,1.198421582E-3,-1.997369342E-3
2.509781895E1,6.657897611E-4,1.198421582E-3,1.198421582E-3
2.511809020E1,-1.464737463E-3,-1.997369342E-3,4.394212738E-3
2.513836145E1,-3.595264861E-3,-5.193160381E-3,7.590003312E-3
2.515863270E1,-5.725792143E-3,1.331579551E-4,8.655266836E-3
2.517890401E1,-6.791055668E-3,3.328948980E-3,1.078579482E-2
2.519917526E1,-7.856319658E-3,1.198421582E-3,1.078579482E-2
2.521944656E1,-6.791055668E-3,1.198421582E-3,5.459476262E-3
2.523971781E1,-5.725792143E-3,5.326318089E-3,2.263685223E-3
2.525998911E1,-3.595264861E-3,1.198421582E-3,-1.997369342E-3
2.528026031E1,2.796316985E-3,-3.062632866E-3,-6.258423906E-3
2.530053161E1,9.187898599E-3,-1.997369342E-3,-8.388951421E-3
2.532080281E1,9.187898599E-3,-9.321057005E-4,-1.051947847E-2
2.534107411E1,2.796316985E-3,2.263685223E-3,-9.454214945E-3
2.536134536E1,-1.464737463E-3,1.198421582E-3,-4.127896391E-3
2.538161661E1,6.657897611E-4,-5.193160381E-3,1.198421582E-3
2.540188791E1,-2.530001104E-3,-9.321057005E-4,5.459476262E-3
2.542215916E1,-9.986846708E-3,-5.193160381E-3,9.720530361E-3
2.544243041E1,-1.424790081E-2,-1.997369342E-3,1.398158539E-2
2.546270166E1,-1.211737376E-2,1.331579551E-4,1.291632187E-2
2.548297296E1,-6.791055668E-3,-3.062632866E-3,9.720530361E-3
2.550324421E1,-1.464737463E-3,-8.388951421E-3,1.198421582E-3
2.552351546E1,7.057371549E-3,-7.323687430E-3,-9.454214945E-3
2.554378671E1,9.187898599E-3,-1.158474199E-2,-1.265000552E-2
2.556405796E1,8.122635074E-3,-1.584579609E-2,-1.158474199E-2
2.558445796E1,2.796316985E-3,-1.158474199E-2,-1.158474199E-2
2.560460052E1,-1.464737463E-3,-1.051947847E-2,-9.454214945E-3
2.562487177E1,-3.595264861E-3,-9.454214945E-3,-3.062632866E-3
2.564514302E1,-4.660528619E-3,-3.062632866E-3,1.198421582E-3
2.566541427E1,-4.660528619E-3,2.263685223E-3,2.263685223E-3
2.568568552E1,-2.530001104E-3,-3.062632866E-3,-1.997369342E-3
2.570595677E1,-2.530001104E-3,-5.193160381E-3,-6.258423906E-3
2.572622802E1,6.657897611E-4,-5.193160381E-3,-3.062632866E-3
2.574649927E1,4.926844500E-3,-7.323687430E-3,-4.127896391E-3
2.576677052E1,1.025316212E-2,-1.051947847E-2,-1.265000552E-2
2.578704182E1,1.238369010E-2,-3.062632866E-3,-1.584579609E-2
2.580731302E1,7.057371549E-3,5.326318089E-3,-7.323687430E-3
2.582758427E1,-3.994738800E-4,4.394212738E-3,5.459476262E-3
2.584785557E1,-2.530001104E-3,-5.193160381E-3,8.655266836E-3
2.586812682E1,-5.725792143E-3,-4.127896391E-3,7.590003312E-3
2.588839802E1,-1.105211023E-2,6.391582079E-3,8.655266836E-3
2.590866927E1,-1.531316526E-2,1.278316416E-2,1.291632187E-2
2.592894052E1,-1.211737376E-2,8.522109129E-3,1.291632187E-2
2.594921177E1,-5.725792143E-3,1.331579551E-4,2.263685223E-3
2.596948302E1,-4.660528619E-3,4.394212738E-3,-8.388951421E-3
2.598975427E1,-4.660528619E-3,9.587372653E-3,-1.051947847E-2
2.601002552E1,-1.464737463E-3,5.326318089E-3,-8.388951421E-3
2.603042552E1,6.657897611E-4,-1.997369342E-3,-1.265000552E-2
2.605072593E1,6.657897611E-4,5.326318089E-3,-1.371526904E-2
2.607099724E1,-3.994738800E-4,7.456845604E-3,-6.258423906E-3
2.609126859E1,-4.660528619E-3,-9.321057005E-4,-9.321057005E-4
2.611138250E1,-4.660528619E-3,-1.997369342E-3,4.394212738E-3
2.613178250E1,-6.791055668E-3,7.456845604E-3,7.590003312E-3
2.615192484E1,-1.105211023E-2,4.394212738E-3,1.185105834E-2
2.617219588E1,-8.921583183E-3,3.328948980E-3,1.185105834E-2
2.619246703E1,-4.660528619E-3,6.391582079E-3,8.655266836E-3
2.621273823E1,6.657897611E-4,1.198421582E-3,3.328948980E-3
2.623313822E1,2.796316985E-3,-4.127896391E-3,-9.321057005E-4
2.625328067E1,3.861580743E-3,1.331579551E-4,-1.997369342E-3
2.627355182E1,2.796316985E-3,-4.127896391E-3,-1.997369342E-3
2.629382302E1,2.796316985E-3,-5.193160381E-3,1.331579551E-4
2.631409427E1,-3.595264861E-3,2.263685223E-3,1.331579551E-4
2.633449427E1,-5.725792143E-3,2.263685223E-3,3.328948980E-3
2.635463671E1,-4.660528619E-3,-9.321057005E-4,8.655266836E-3
2.637490791E1,-4.660528619E-3,-9.321057005E-4,7.590003312E-3
2.639517916E1,-5.725792143E-3,6.391582079E-3,5.459476262E-3
2.641545031E1,-4.660528619E-3,1.331579551E-4,2.263685223E-3
2.643572156E1,-3.994738800E-4,-1.051947847E-2,-1.997369342E-3
2.645599281E1,-1.464737463E-3,-3.062632866E-3,-4.127896391E-3
2.647638281E1,-5.725792143E-3,6.391582079E-3,-1.997369342E-3
2.649653526E1,-5.725792143E-3,2.263685223E-3,-7.323687430E-3
2.651680645E1,-2.530001104E-3,-1.997369342E-3,-4.127896391E-3
2.653707770E1,-2.530001104E-3,-1.997369342E-3,2.263685223E-3
2.655734895E1,-6.791055668E-3,4.394212738E-3,-9.321057005E-4
2.657762015E1,-5.725792143E-3,9.587372653E-3,-7.323687430E-3
2.659789140E1,-3.994738800E-4,2.263685223E-3,-6.258423906E-3
2.661816260E1,-3.994738800E-4,-9.321057005E-4,-1.997369342E-3
2.663843385E1,-3.595264861E-3,4.394212738E-3,3.328948980E-3
2.665870510E1,-4.660528619E-3,4.394212738E-3,5.459476262E-3
2.667897624E1,-3.595264861E-3,-1.997369342E-3,3.328948980E-3
2.669924750E1,-2.530001104E-3,1.331579551E-4,2.263685223E-3
2.671951869E1,-2.530001104E-3,-9.321057005E-4,4.394212738E-3
2.673978994E1,-2.530001104E-3,1.198421582E-3,6.524739787E-3
2.676006114E1,-5.725792143E-3,2.263685223E-3,5.459476262E-3
2.678033239E1,-3.595264861E-3,1.198421582E-3,3.328948980E-3
2.680060359E1,-1.464737463E-3,5.326318089E-3,2.263685223E-3
2.682087484E1,-1.464737463E-3,4.394212738E-3,1.198421582E-3
2.684114604E1,-3.994738800E-4,-3.062632866E-3,1.198421582E-3
2.686141729E1,1.731053460E-3,-5.193160381E-3,-9.321057005E-4
2.688168848E1,1.731053460E-3,-9.321057005E-4,-9.321057005E-4
2.690195974E1,-3.994738800E-4,2.263685223E-3,-9.321057005E-4
2.692223093E1,2.796316985E-3,-9.321057005E-4,1.331579551E-4
2.694250213E1,2.796316985E-3,1.198421582E-3,2.263685223E-3
2.696277338E1,6.657897611E-4,-9.321057005E-4,1.331579551E-4
2.698304453E1,-1.464737463E-3,2.263685223E-3,1.331579551E-4
2.700331583E1,-1.464737463E-3,5.326318089E-3,1.198421582E-3
2.702358703E1,-1.464737463E-3,3.328948980E-3,1.331579551E-4
2.704385822E1,-4.660528619E-3,-9.321057005E-4,3.328948980E-3
2.706412948E1,-3.595264861E-3,2.263685223E-3,7.590003312E-3
2.708440067E1,-3.595264861E-3,4.394212738E-3,8.655266836E-3
2.710467187E1,-4.660528619E-3,7.456845604E-3,5.459476262E-3
2.712494312E1,-5.725792143E-3,8.522109129E-3,1.198421582E-3
2.714521432E1,-5.725792143E-3,4.394212738E-3,2.263685223E-3
2.716548552E1,-5.725792143E-3,-9.321057005E-4,2.263685223E-3
2.718575671E1,-4.660528619E-3,3.328948980E-3,3.328948980E-3
2.720602796E1,-2.530001104E-3,1.198421582E-3,3.328948980E-3
2.722629916E1,-2.530001104E-3,-3.062632866E-3,-9.321057005E-4
2.724657036E1,6.657897611E-4,-9.321057005E-4,-6.258423906E-3
2.726684156E1,3.861580743E-3,1.198421582E-3,-6.258423906E-3
2.728711281E1,6.657897611E-4,-1.997369342E-3,-1.997369342E-3
2.730738401E1,-2.530001104E-3,1.198421582E-3,-9.321057005E-4
2.732765515E1,-2.530001104E-3,2.263685223E-3,-9.321057005E-4
2.734792640E1,-2.530001104E-3,-4.127896391E-3,1.198421582E-3
2.736819760E1,-3.595264861E-3,1.331579551E-4,3.328948980E-3
2.738846885E1,-4.660528619E-3,8.522109129E-3,7.590003312E-3
2.740874005E1,-4.660528619E-3,3.328948980E-3,8.655266836E-3
2.742901124E1,-4.660528619E-3,-5.193160381E-3,4.394212738E-3
2.744928244E1,-2.530001104E-3,2.263685223E-3,3.328948980E-3
2.746955364E1,-3.595264861E-3,7.456845604E-3,3.328948980E-3
2.748982484E1,-3.595264861E-3,-1.997369342E-3,2.263685223E-3
2.751009604E1,-2.530001104E-3,-5.193160381E-3,1.331579551E-4
2.753049604E1,-1.464737463E-3,1.198421582E-3,1.198421582E-3
2.755079645E1,-1.464737463E-3,3.328948980E-3,4.394212738E-3
2.757106770E1,-1.464737463E-3,-9.321057005E-4,4.394212738E-3
2.759133901E1,6.657897611E-4,-1.997369342E-3,2.263685223E-3
2.761145286E1,-3.994738800E-4,-3.062632866E-3,-1.997369342E-3
2.763185286E1,-3.994738800E-4,-1.997369342E-3,-9.321057005E-4
2.765199510E1,6.657897611E-4,1.198421582E-3,-9.321057005E-4
2.767226614E1,1.731053460E-3,-9.321057005E-4,-1.997369342E-3
2.769253724E1,1.731053460E-3,-4.127896391E-3,-4.127896391E-3
2.771280838E1,6.657897611E-4,-1.997369342E-3,-4.127896391E-3
2.773320838E1,-3.994738800E-4,3.328948980E-3,-1.997369342E-3
2.775335072E1,-3.595264861E-3,1.331579551E-4,-1.997369342E-3
2.777362187E1,-3.595264861E-3,-9.321057005E-4,-1.997369342E-3
2.779389302E1,-3.595264861E-3,1.331579551E-4,-1.997369342E-3
2.781416421E1,-4.660528619E-3,2.263685223E-3,-9.321057005E-4
2.783456421E1,-7.856319658E-3,4.394212738E-3,1.331579551E-4
2.785486448E1,-5.725792143E-3,1.198421582E-3,2.263685223E-3
2.787513578E1,-5.725792143E-3,-9.321057005E-4,1.198421582E-3
2.789524963E1,-5.725792143E-3,1.198421582E-3,-1.997369342E-3
2.791552067E1,-7.856319658E-3,4.394212738E-3,-5.193160381E-3
2.793592067E1,-5.725792143E-3,1.198421582E-3,-5.193160381E-3
2.795606286E1,-2.530001104E-3,-4.127896391E-3,-3.062632866E-3
2.797633395E1,-5.725792143E-3,-6.258423906E-3,1.331579551E-4
2.799660510E1,-4.660528619E-3,-3.062632866E-3,-6.258423906E-3
2.801687625E1,-2.530001104E-3,1.331579551E-4,-9.454214945E-3
2.803714739E1,1.731053460E-3,1.331579551E-4,-9.321057005E-4
2.805741849E1,-1.464737463E-3,-9.321057005E-4,3.328948980E-3
2.807768974E1,-1.464737463E-3,-4.127896391E-3,1.198421582E-3
2.809796093E1,1.731053460E-3,-6.258423906E-3,-3.062632866E-3
2.811823203E1,6.657897611E-4,-9.321057005E-4,1.331579551E-4
2.813850322E1,-1.464737463E-3,3.328948980E-3,2.263685223E-3
2.815877442E1,-1.464737463E-3,-9.321057005E-4,1.331579551E-4
2.817904557E1,6.657897611E-4,-3.062632866E-3,1.198421582E-3
2.819931677E1,1.731053460E-3,4.394212738E-3,6.524739787E-3
2.821958796E1,-1.464737463E-3,3.328948980E-3,6.524739787E-3
2.823985911E1,-2.530001104E-3,-3.062632866E-3,5.459476262E-3
2.826013031E1,-3.595264861E-3,3.328948980E-3,6.524739787E-3
2.828040151E1,-4.660528619E-3,7.456845604E-3,7.590003312E-3
2.830067270E1,-4.660528619E-3,2.263685223E-3,8.655266836E-3
2.832094385E1,-2.530001104E-3,-4.127896391E-3,6.524739787E-3
2.834121505E1,-1.464737463E-3,-3.062632866E-3,3.328948980E-3
2.836148625E1,-1.464737463E-3,5.326318089E-3,3.328948980E-3
2.838175744E1,-2.530001104E-3,7.456845604E-3,2.263685223E-3
2.840202859E1,-2.530001104E-3,-9.321057005E-4,1.198421582E-3
2.842229979E1,-1.464737463E-3,-3.062632866E-3,3.328948980E-3
2.844257093E1,-2.530001104E-3,4.394212738E-3,4.394212738E-3
2.846284213E1,-3.595264861E-3,1.198421582E-3,3.328948980E-3
2.848311328E1,-2.530001104E-3,-1.997369342E-3,3.328948980E-3
2.850338442E1,-3.595264861E-3,-4.127896391E-3,3.328948980E-3
2.852365567E1,-5.725792143E-3,3.328948980E-3,5.459476262E-3
2.854392687E1,-1.464737463E-3,5.326318089E-3,7.590003312E-3
2.856419802E1,-3.994738800E-4,-5.193160381E-3,1.331579551E-4
2.858446921E1,-4.660528619E-3,1.198421582E-3,-7.323687430E-3
2.860474041E1,-2.530001104E-3,9.587372653E-3,4.394212738E-3
2.862501156E1,-2.530001104E-3,7.456845604E-3,8.655266836E-3
2.864528276E1,-6.791055668E-3,7.456845604E-3,4.394212738E-3
2.866555395E1,-3.595264861E-3,5.326318089E-3,4.394212738E-3
2.868582515E1,-3.595264861E-3,1.331579551E-4,5.459476262E-3
2.870609630E1,-8.921583183E-3,6.391582079E-3,2.263685223E-3
2.872636750E1,-4.660528619E-3,4.394212738E-3,4.394212738E-3
2.874663864E1,-1.464737463E-3,-6.258423906E-3,4.394212738E-3
2.876690984E1,1.731053460E-3,-1.997369342E-3,-9.321057005E-4
2.878718099E1,2.796316985E-3,6.391582079E-3,-4.127896391E-3
2.880745218E1,1.731053460E-3,1.198421582E-3,1.331579551E-4
2.882772338E1,-1.464737463E-3,-6.258423906E-3,5.459476262E-3
2.884799453E1,-1.464737463E-3,-6.258423906E-3,9.720530361E-3
2.886826572E1,-3.994738800E-4,3.328948980E-3,8.655266836E-3
2.888853687E1,-1.464737463E-3,3.328948980E-3,5.459476262E-3
2.890880807E1,-4.660528619E-3,-9.321057005E-4,4.394212738E-3
2.892920807E1,-2.530001104E-3,-1.997369342E-3,7.590003312E-3
2.894935041E1,-3.994738800E-4,4.394212738E-3,5.459476262E-3
2.896962156E1,-1.464737463E-3,6.391582079E-3,-9.321057005E-4
2.898989276E1,-9.986846708E-3,5.326318089E-3,-3.062632866E-3
2.901016390E1,-2.063948289E-2,1.384842768E-2,1.504684892E-2
2.903056390E1,-1.850895584E-2,2.237053588E-2,2.996053919E-2
2.905086421E1,-1.105211023E-2,1.384842768E-2,2.783001214E-2
2.907113546E1,-4.660528619E-3,-7.323687430E-3,2.143843099E-2
2.909140671E1,-3.994738800E-4,-7.323687430E-3,1.398158539E-2
2.911152057E1,8.122635074E-3,4.394212738E-3,3.328948980E-3
2.913192057E1,1.344895363E-2,1.331579551E-4,-6.258423906E-3
2.915206276E1,1.238369010E-2,-7.323687430E-3,-1.158474199E-2
2.917233380E1,1.664474420E-2,-5.193160381E-3,-1.371526904E-2
2.919260484E1,2.090579830E-2,-3.062632866E-3,-1.584579609E-2
2.921287593E1,1.771000773E-2,-9.454214945E-3,-1.797632314E-2
2.923327593E1,8.122635074E-3,1.198421582E-3,-1.691105962E-2
2.925341817E1,3.861580743E-3,9.587372653E-3,-7.323687430E-3
2.927381817E1,-2.530001104E-3,1.198421582E-3,1.198421582E-3
2.929396046E1,-6.791055668E-3,-1.997369342E-3,6.524739787E-3
2.931423161E1,-9.986846708E-3,6.391582079E-3,9.720530361E-3
2.933463161E1,-1.744369231E-2,1.171789970E-2,1.504684892E-2
2.935477390E1,-2.063948289E-2,1.065263618E-2,1.930790395E-2
2.937504505E1,-1.850895584E-2,1.171789970E-2,2.143843099E-2
2.939531619E1,-7.856319658E-3,6.391582079E-3,1.717737690E-2
2.941558734E1,-1.464737463E-3,2.263685223E-3,1.078579482E-2
2.943585848E1,-3.994738800E-4,3.328948980E-3,4.394212738E-3
2.945612958E1,4.926844500E-3,-9.454214945E-3,1.331579551E-4
2.947640078E1,9.187898599E-3,-1.691105962E-2,-6.258423906E-3
2.949667192E1,1.557948068E-2,-1.265000552E-2,-1.158474199E-2
2.951694307E1,1.984053478E-2,-9.454214945E-3,-1.584579609E-2
2.953721421E1,1.984053478E-2,-1.371526904E-2,-1.904158667E-2
2.955748541E1,1.771000773E-2,-1.158474199E-2,-1.797632314E-2
2.957775656E1,1.451421715E-2,-6.258423906E-3,-1.051947847E-2
2.959802770E1,7.057371549E-3,-1.997369342E-3,-4.127896391E-3
2.961829885E1,-1.464737463E-3,1.198421582E-3,1.198421582E-3
2.963857005E1,-6.791055668E-3,4.394212738E-3,8.655266836E-3
2.965884119E1,-1.211737376E-2,8.522109129E-3,1.185105834E-2
2.967911234E1,-8.921583183E-3,1.171789970E-2,1.185105834E-2
2.969938349E1,-3.595264861E-3,5.326318089E-3,8.655266836E-3
2.971965468E1,6.657897611E-4,-1.997369342E-3,5.459476262E-3
2.973992583E1,3.861580743E-3,-4.127896391E-3,4.394212738E-3
2.976019692E1,8.122635074E-3,-1.265000552E-2,1.331579551E-4
2.978046807E1,4.926844500E-3,-1.158474199E-2,-4.127896391E-3
2.980073921E1,-3.994738800E-4,1.198421582E-3,-9.454214945E-3
2.982101036E1,-1.464737463E-3,7.456845604E-3,-8.388951421E-3
2.984128156E1,-3.994738800E-4,2.263685223E-3,-4.127896391E-3
2.986155270E1,4.926844500E-3,-1.051947847E-2,-5.193160381E-3
2.988182385E1,4.926844500E-3,-1.371526904E-2,-4.127896391E-3
2.990209500E1,4.926844500E-3,-1.997369342E-3,-1.997369342E-3
2.992236614E1,3.861580743E-3,3.328948980E-3,-6.258423906E-3
2.994263729E1,2.796316985E-3,-4.127896391E-3,-6.258423906E-3
2.996290838E1,1.731053460E-3,-4.127896391E-3,1.198421582E-3
2.998317958E1,-3.994738800E-4,-3.062632866E-3,3.328948980E-3
3.000345078E1,1.731053460E-3,-3.062632866E-3,2.263685223E-3
3.002372187E1,4.926844500E-3,-7.323687430E-3,2.263685223E-3
3.004399307E1,3.861580743E-3,-7.323687430E-3,-1.997369342E-3
3.006426421E1,3.861580743E-3,-8.388951421E-3,-7.323687430E-3
3.008453536E1,5.992108025E-3,-1.997369342E-3,-1.051947847E-2
3.010480651E1,4.926844500E-3,-5.193160381E-3,-1.371526904E-2
3.012507765E1,4.926844500E-3,-7.323687430E-3,-1.265000552E-2
3.014534880E1,2.796316985E-3,-3.062632866E-3,-6.258423906E-3
3.016561994E1,-4.660528619E-3,-7.323687430E-3,-6.258423906E-3
3.018589109E1,-8.921583183E-3,1.331579551E-4,-1.997369342E-3
3.020616224E1,-8.921583183E-3,2.263685223E-3,2.263685223E-3
3.022643338E1,-9.986846708E-3,3.328948980E-3,7.590003312E-3
3.024670453E1,-1.318263728E-2,-3.062632866E-3,5.459476262E-3
3.026697567E1,-9.986846708E-3,-5.193160381E-3,2.263685223E-3
3.028724682E1,-5.725792143E-3,2.263685223E-3,4.394212738E-3
3.030751796E1,-7.856319658E-3,-9.321057005E-4,1.198421582E-3
3.032791796E1,-5.725792143E-3,1.331579551E-4,-3.062632866E-3
3.034806026E1,2.796316985E-3,1.331579551E-4,-1.997369342E-3
3.036833140E1,3.861580743E-3,4.394212738E-3,-6.258423906E-3
3.038860250E1,-3.994738800E-4,-3.062632866E-3,-1.158474199E-2
3.040887369E1,-3.994738800E-4,-1.265000552E-2,-8.388951421E-3
3.042914479E1,6.657897611E-4,-7.323687430E-3,-1.997369342E-3
3.044941593E1,-1.464737463E-3,-5.193160381E-3,-1.997369342E-3
3.046968708E1,-3.994738800E-4,-6.258423906E-3,-4.127896391E-3
3.048995823E1,6.657897611E-4,-6.258423906E-3,-4.127896391E-3
3.051022937E1,-3.994738800E-4,-6.258423906E-3,-3.062632866E-3
3.053062937E1,-3.595264861E-3,-6.258423906E-3,-1.997369342E-3
3.055092963E1,-6.791055668E-3,-8.388951421E-3,-9.321057005E-4
3.057120083E1,-1.211737376E-2,-1.997369342E-3,-9.321057005E-4
3.059123609E1,-1.318263728E-2,3.328948980E-3,1.331579551E-4
3.061158552E1,-1.531316526E-2,1.198421582E-3,1.198421582E-3
3.063198552E1,-1.211737376E-2,-4.127896391E-3,3.328948980E-3
3.065212770E1,-8.921583183E-3,-4.127896391E-3,2.263685223E-3
3.067252770E1,-8.921583183E-3,-1.997369342E-3,1.331579551E-4
3.069266984E1,-7.856319658E-3,3.328948980E-3,1.198421582E-3
3.071294093E1,-5.725792143E-3,5.326318089E-3,6.524739787E-3
3.073334093E1,-6.791055668E-3,1.331579551E-4,9.720530361E-3
3.075348317E1,-5.725792143E-3,-9.321057005E-4,9.720530361E-3
3.077375432E1,-7.856319658E-3,1.198421582E-3,7.590003312E-3
3.079402541E1,-7.856319658E-3,4.394212738E-3,7.590003312E-3
3.081429651E1,-9.986846708E-3,5.326318089E-3,7.590003312E-3
3.083469651E1,-7.856319658E-3,4.394212738E-3,6.524739787E-3
3.085499671E1,-5.725792143E-3,5.326318089E-3,4.394212738E-3
3.087511046E1,-3.595264861E-3,4.394212738E-3,-9.321057005E-4
3.089538151E1,-4.660528619E-3,8.522109129E-3,-1.997369342E-3
3.091565250E1,-8.921583183E-3,4.394212738E-3,3.328948980E-3
3.093605250E1,-9.986846708E-3,3.328948980E-3,1.398158539E-2
3.095619468E1,-1.424790081E-2,9.587372653E-3,1.930790395E-2
3.097646572E1,-1.424790081E-2,9.587372653E-3,1.185105834E-2
3.099673682E1,-1.318263728E-2,1.331579551E-4,5.459476262E-3
3.101700786E1,-1.318263728E-2,-3.062632866E-3,1.185105834E-2
3.103727901E1,-8.921583183E-3,2.263685223E-3,1.611211337E-2
3.105755015E1,-4.660528619E-3,1.198421582E-3,6.524739787E-3
3.107782119E1,6.657897611E-4,-6.258423906E-3,-3.062632866E-3
3.109809234E1,3.861580743E-3,-5.193160381E-3,-9.321057005E-4
3.111836349E1,3.861580743E-3,3.328948980E-3,1.198421582E-3
3.113863453E1,1.731053460E-3,-9.321057005E-4,-9.321057005E-4
3.115890567E1,-1.464737463E-3,-8.388951421E-3,-1.997369342E-3
3.117917682E1,-1.464737463E-3,2.263685223E-3,2.263685223E-3
3.119944791E1,-3.595264861E-3,5.326318089E-3,5.459476262E-3
3.121971906E1,-4.660528619E-3,-1.997369342E-3,4.394212738E-3
3.123999015E1,-4.660528619E-3,1.198421582E-3,1.198421582E-3
3.126026130E1,-3.595264861E-3,1.384842768E-2,-3.062632866E-3
3.128053244E1,-8.921583183E-3,9.587372653E-3,-4.127896391E-3
3.130080354E1,-6.791055668E-3,-5.193160381E-3,-1.997369342E-3
3.132107468E1,-1.464737463E-3,-3.062632866E-3,-1.997369342E-3
3.134134578E1,-1.464737463E-3,1.065263618E-2,-5.193160381E-3
3.136174578E1,-1.464737463E-3,8.522109129E-3,-1.371526904E-2
3.138204593E1,-3.994738800E-4,-1.158474199E-2,-1.371526904E-2
3.140215974E1,-2.530001104E-3,-9.454214945E-3,-9.321057005E-4
3.142243072E1,-1.464737463E-3,1.198421582E-3,2.263685223E-3
3.144270177E1,-1.464737463E-3,1.198421582E-3,-9.454214945E-3
3.146297276E1,-5.725792143E-3,4.394212738E-3,-1.797632314E-2
3.148324385E1,-7.856319658E-3,4.394212738E-3,-9.454214945E-3
3.150351489E1,-9.986846708E-3,5.326318089E-3,6.524739787E-3
3.152378599E1,-9.986846708E-3,-4.127896391E-3,8.655266836E-3
3.154405708E1,-5.725792143E-3,-8.388951421E-3,-9.321057005E-4
3.156432822E1,-2.530001104E-3,-9.321057005E-4,-1.265000552E-2
3.158459927E1,-2.530001104E-3,5.326318089E-3,-1.584579609E-2
3.160487041E1,-2.530001104E-3,6.391582079E-3,-9.454214945E-3
3.162514151E1,-1.464737463E-3,-1.997369342E-3,-4.127896391E-3
3.164541255E1,-1.464737463E-3,-4.127896391E-3,-6.258423906E-3
3.166568369E1,-2.530001104E-3,6.391582079E-3,-9.454214945E-3
3.168595479E1,-1.464737463E-3,1.278316416E-2,-6.258423906E-3
3.170622588E1,-3.994738800E-4,1.198421582E-3,-1.997369342E-3
3.172662588E1,-2.530001104E-3,1.331579551E-4,1.331579551E-4
3.174676812E1,-4.660528619E-3,1.198421582E-3,-1.997369342E-3
3.176703921E1,-3.595264861E-3,1.331579551E-4,1.331579551E-4
3.178731036E1,-2.530001104E-3,1.198421582E-3,1.331579551E-4
3.180758145E1,-3.994738800E-4,-3.062632866E-3,-1.997369342E-3
3.182785260E1,1.731053460E-3,1.331579551E-4,1.331579551E-4
3.184812369E1,-1.464737463E-3,7.456845604E-3,1.331579551E-4
3.186839479E1,-3.595264861E-3,9.587372653E-3,-1.997369342E-3
3.188866588E1,-3.595264861E-3,1.331579551E-4,-1.997369342E-3
3.190893703E1,-2.530001104E-3,-9.321057005E-4,-9.321057005E-4
3.192920812E1,-1.464737463E-3,7.456845604E-3,-9.321057005E-4
3.194947921E1,-3.994738800E-4,1.278316416E-2,-9.321057005E-4
3.196975031E1,-3.994738800E-4,1.198421582E-3,1.331579551E-4
3.199002145E1,3.861580743E-3,-5.193160381E-3,2.263685223E-3
3.201029255E1,4.926844500E-3,1.198421582E-3,2.263685223E-3
3.203069255E1,4.926844500E-3,-3.062632866E-3,-1.997369342E-3
3.205083474E1,2.796316985E-3,-3.062632866E-3,-9.321057005E-4
3.207110588E1,2.796316985E-3,1.198421582E-3,5.459476262E-3
3.209137698E1,3.861580743E-3,-9.321057005E-4,7.590003312E-3
3.211164807E1,3.861580743E-3,-5.193160381E-3,-9.321057005E-4
3.213204807E1,3.861580743E-3,-5.193160381E-3,-6.258423906E-3
3.215219026E1,3.861580743E-3,-9.321057005E-4,-1.997369342E-3
3.217246140E1,4.926844500E-3,-9.321057005E-4,2.263685223E-3
3.219273250E1,4.926844500E-3,-5.193160381E-3,1.198421582E-3
3.221300359E1,6.657897611E-4,-4.127896391E-3,-5.193160381E-3
3.223340359E1,-1.464737463E-3,-4.127896391E-3,-1.997369342E-3
3.225354578E1,-5.725792143E-3,-4.127896391E-3,8.655266836E-3
3.227381692E1,-1.424790081E-2,3.328948980E-3,1.717737690E-2
3.229408802E1,-1.850895584E-2,8.522109129E-3,2.037316747E-2
3.231435911E1,-1.957421936E-2,1.171789970E-2,2.037316747E-2
3.233475911E1,-1.957421936E-2,1.065263618E-2,1.824264042E-2
3.235490130E1,-1.744369231E-2,9.587372653E-3,1.611211337E-2
3.237517239E1,-1.211737376E-2,1.331579551E-4,1.717737690E-2
3.239544348E1,-7.856319658E-3,-5.193160381E-3,1.398158539E-2
3.241571458E1,-3.595264861E-3,-5.193160381E-3,4.394212738E-3
3.243598567E1,4.926844500E-3,-1.051947847E-2,-7.323687430E-3
3.245625677E1,1.664474420E-2,-2.010685205E-2,-1.371526904E-2
3.247652786E1,2.516685426E-2,-2.117211558E-2,-2.010685205E-2
3.249679901E1,2.410159074E-2,-1.904158667E-2,-2.969422378E-2
3.251707010E1,1.984053478E-2,-2.010685205E-2,-3.502054140E-2
3.253734119E1,1.664474420E-2,-2.330264263E-2,-2.756369673E-2
3.255761229E1,1.025316212E-2,-2.010685205E-2,-1.478053257E-2
3.257788338E1,3.861580743E-3,-1.158474199E-2,-9.454214945E-3
3.259815448E1,6.657897611E-4,-4.127896391E-3,-4.127896391E-3
3.261842557E1,-5.725792143E-3,-9.321057005E-4,4.394212738E-3
3.263869666E1,-1.531316526E-2,1.198421582E-3,1.398158539E-2
3.265896776E1,-1.957421936E-2,4.394212738E-3,1.930790395E-2
3.267923885E1,-1.531316526E-2,6.391582079E-3,2.037316747E-2
3.269950994E1,-1.318263728E-2,1.198421582E-3,1.504684892E-2
3.271978104E1,-8.921583183E-3,-9.321057005E-4,8.655266836E-3
3.274005213E1,-5.725792143E-3,7.456845604E-3,6.524739787E-3
3.276032322E1,-3.595264861E-3,1.065263618E-2,4.394212738E-3
3.278059432E1,-1.464737463E-3,2.263685223E-3,-9.321057005E-4
3.280086541E1,2.796316985E-3,-1.265000552E-2,-6.258423906E-3
3.282113651E1,9.187898599E-3,-9.454214945E-3,-7.323687430E-3
3.284140760E1,7.057371549E-3,-1.997369342E-3,-1.051947847E-2
3.286167869E1,5.992108025E-3,-3.062632866E-3,-1.158474199E-2
3.288194979E1,8.122635074E-3,-8.388951421E-3,-7.323687430E-3
3.290222088E1,1.025316212E-2,-8.388951421E-3,-3.062632866E-3
3.292249192E1,5.992108025E-3,-7.323687430E-3,-1.997369342E-3
3.294276302E1,6.657897611E-4,-9.321057005E-4,2.263685223E-3
3.296303406E1,-3.994738800E-4,1.331579551E-4,5.459476262E-3
3.298330520E1,-3.994738800E-4,-6.258423906E-3,6.524739787E-3
3.300357630E1,-2.530001104E-3,-5.193160381E-3,3.328948980E-3
3.302384739E1,-3.595264861E-3,2.263685223E-3,4.394212738E-3
3.304411849E1,-4.660528619E-3,4.394212738E-3,9.720530361E-3
3.306438958E1,-3.595264861E-3,-9.321057005E-4,9.720530361E-3
3.308466067E1,-2.530001104E-3,-1.997369342E-3,6.524739787E-3
3.310493171E1,-1.464737463E-3,1.331579551E-4,3.328948980E-3
3.312520281E1,1.731053460E-3,-9.321057005E-4,-9.321057005E-4
3.314547390E1,1.731053460E-3,-3.062632866E-3,-4.127896391E-3
3.316574500E1,3.861580743E-3,-1.997369342E-3,-1.997369342E-3
3.318601604E1,5.992108025E-3,-7.323687430E-3,-5.193160381E-3
3.320628713E1,7.057371549E-3,-7.323687430E-3,-9.454214945E-3
3.322655823E1,3.861580743E-3,-9.321057005E-4,-1.051947847E-2
3.324682932E1,6.657897611E-4,-3.062632866E-3,-5.193160381E-3
3.326710041E1,6.657897611E-4,-1.158474199E-2,-3.062632866E-3
3.328737151E1,6.657897611E-4,-1.265000552E-2,-3.062632866E-3
3.330764255E1,-1.464737463E-3,-4.127896391E-3,2.263685223E-3
3.332791364E1,-3.595264861E-3,-3.062632866E-3,4.394212738E-3
3.334818474E1,-2.530001104E-3,-4.127896391E-3,2.263685223E-3
3.336845583E1,-2.530001104E-3,-1.997369342E-3,2.263685223E-3
3.338872692E1,-3.595264861E-3,1.198421582E-3,1.198421582E-3
3.340899802E1,-4.660528619E-3,-4.127896391E-3,1.331579551E-4
3.342926906E1,-1.464737463E-3,-6.258423906E-3,1.331579551E-4
3.344954015E1,-3.994738800E-4,-4.127896391E-3,3.328948980E-3
3.346981124E1,-2.530001104E-3,1.198421582E-3,-9.321057005E-4
3.349008234E1,-3.994738800E-4,2.263685223E-3,-4.127896391E-3
3.351035338E1,2.796316985E-3,-4.127896391E-3,-5.193160381E-3
3.353075338E1,1.731053460E-3,-5.193160381E-3,-6.258423906E-3
3.355089557E1,-1.464737463E-3,-5.193160381E-3,-6.258423906E-3
3.357116666E1,-2.530001104E-3,-6.258423906E-3,1.331579551E-4
3.359143770E1,-6.791055668E-3,2.263685223E-3,2.263685223E-3
3.361170874E1,-8.921583183E-3,5.326318089E-3,2.263685223E-3
3.363210875E1,-7.856319658E-3,3.328948980E-3,2.263685223E-3
3.365225093E1,-6.791055668E-3,1.198421582E-3,2.263685223E-3
3.367252203E1,-6.791055668E-3,1.331579551E-4,2.263685223E-3
3.369279307E1,-4.660528619E-3,-1.997369342E-3,3.328948980E-3
3.371306416E1,-1.464737463E-3,-1.997369342E-3,1.198421582E-3
3.373346416E1,-2.530001104E-3,1.198421582E-3,-9.321057005E-4
3.375360630E1,-5.725792143E-3,2.263685223E-3,-1.997369342E-3
3.377387739E1,-6.791055668E-3,-1.997369342E-3,1.198421582E-3
3.379414848E1,-6.791055668E-3,2.263685223E-3,6.524739787E-3
3.381441953E1,-8.921583183E-3,7.456845604E-3,7.590003312E-3
3.383469062E1,-5.725792143E-3,3.328948980E-3,5.459476262E-3
3.385509062E1,-2.530001104E-3,-9.321057005E-4,4.394212738E-3
3.387523276E1,-3.994738800E-4,-9.321057005E-4,-3.062632866E-3
3.389550385E1,2.796316985E-3,-1.997369342E-3,-3.062632866E-3
3.391577489E1,1.731053460E-3,1.198421582E-3,-9.321057005E-4
3.393604593E1,1.731053460E-3,4.394212738E-3,1.331579551E-4
3.395631703E1,1.731053460E-3,1.198421582E-3,-3.062632866E-3
3.397658812E1,1.731053460E-3,-9.321057005E-4,-4.127896391E-3
3.399685916E1,-3.994738800E-4,1.331579551E-4,-1.997369342E-3
3.401713026E1,-3.595264861E-3,6.391582079E-3,-9.321057005E-4
3.403740130E1,-6.791055668E-3,8.522109129E-3,2.263685223E-3
3.405767239E1,-7.856319658E-3,-9.321057005E-4,7.590003312E-3
3.407794343E1,-7.856319658E-3,1.198421582E-3,6.524739787E-3
3.409821453E1,-4.660528619E-3,6.391582079E-3,1.331579551E-4
3.411848557E1,-1.464737463E-3,4.394212738E-3,1.331579551E-4
3.413875661E1,-3.994738800E-4,3.328948980E-3,-9.321057005E-4
3.415902770E1,1.731053460E-3,2.263685223E-3,-1.997369342E-3
3.417929875E1,3.861580743E-3,-9.321057005E-4,-1.997369342E-3
3.419956979E1,4.926844500E-3,1.331579551E-4,-5.193160381E-3
3.421984088E1,4.926844500E-3,3.328948980E-3,-7.323687430E-3
3.424011192E1,3.861580743E-3,2.263685223E-3,-8.388951421E-3
3.426038302E1,2.796316985E-3,1.331579551E-4,-7.323687430E-3
3.428065406E1,2.796316985E-3,3.328948980E-3,-3.062632866E-3
3.430092515E1,6.657897611E-4,6.391582079E-3,1.331579551E-4
3.432119619E1,-6.791055668E-3,7.456845604E-3,1.198421582E-3
3.434146724E1,-1.105211023E-2,1.278316416E-2,6.524739787E-3
3.436173833E1,-1.105211023E-2,1.597895473E-2,9.720530361E-3
3.438200937E1,-8.921583183E-3,1.278316416E-2,1.078579482E-2
3.440228041E1,-5.725792143E-3,4.394212738E-3,3.328948980E-3
3.442255151E1,6.657897611E-4,1.331579551E-4,-9.321057005E-4
3.444282255E1,-3.994738800E-4,3.328948980E-3,1.198421582E-3
3.446309359E1,-3.994738800E-4,1.198421582E-3,3.328948980E-3
3.448336468E1,3.861580743E-3,3.328948980E-3,3.328948980E-3
3.450363572E1,7.057371549E-3,2.263685223E-3,-1.997369342E-3
3.452390682E1,8.122635074E-3,2.263685223E-3,-5.193160381E-3
3.454417786E1,5.992108025E-3,3.328948980E-3,-6.258423906E-3
3.456444890E1,2.796316985E-3,4.394212738E-3,1.331579551E-4
3.458472000E1,5.992108025E-3,1.198421582E-3,7.590003312E-3
3.460499104E1,1.025316212E-2,-1.997369342E-3,8.655266836E-3
3.462526208E1,1.131842658E-2,-9.321057005E-4,2.263685223E-3
3.464553312E1,5.992108025E-3,5.326318089E-3,1.331579551E-4
3.466580421E1,4.926844500E-3,5.326318089E-3,1.331579551E-4
3.468607526E1,5.992108025E-3,-1.997369342E-3,-5.193160381E-3
3.470634630E1,9.187898599E-3,-6.258423906E-3,-1.265000552E-2
3.472661739E1,1.025316212E-2,6.391582079E-3,-1.797632314E-2
3.474688843E1,1.238369010E-2,1.384842768E-2,-1.797632314E-2
3.476715948E1,1.238369010E-2,9.587372653E-3,-1.691105962E-2
3.478743052E1,5.992108025E-3,6.391582079E-3,-2.010685205E-2
3.480770161E1,-3.994738800E-4,1.384842768E-2,-1.691105962E-2
3.482797265E1,-1.464737463E-3,1.810948178E-2,-9.454214945E-3
3.484824369E1,-3.595264861E-3,1.597895473E-2,-5.193160381E-3
3.486851474E1,-2.530001104E-3,2.343579940E-2,-3.062632866E-3
3.488878583E1,1.731053460E-3,2.130527236E-2,-1.997369342E-3
3.490905687E1,5.992108025E-3,1.198421582E-3,-8.388951421E-3
3.492932791E1,1.238369010E-2,-1.265000552E-2,-1.584579609E-2
3.494959895E1,1.877527125E-2,2.263685223E-3,-1.797632314E-2
3.496987005E1,2.303632535E-2,1.171789970E-2,-1.691105962E-2
3.499014109E1,2.197106183E-2,5.326318089E-3,-1.584579609E-2
3.501041213E1,1.877527125E-2,-4.127896391E-3,-1.371526904E-2
3.503081213E1,1.344895363E-2,-6.258423906E-3,-1.051947847E-2
3.505095416E1,4.926844500E-3,1.171789970E-2,-3.062632866E-3
3.507122526E1,-1.464737463E-3,1.597895473E-2,2.263685223E-3
3.509149635E1,2.796316985E-3,7.456845604E-3,3.328948980E-3
3.511176739E1,4.926844500E-3,8.522109129E-3,1.198421582E-3
3.513216739E1,2.796316985E-3,1.065263618E-2,-9.321057005E-4
3.515230948E1,3.861580743E-3,7.456845604E-3,-3.062632866E-3
3.517258052E1,3.861580743E-3,-1.997369342E-3,-9.321057005E-4
3.519285156E1,4.926844500E-3,-6.258423906E-3,1.331579551E-4
3.521312260E1,-3.994738800E-4,1.331579551E-4,-3.062632866E-3
3.523352260E1,-1.464737463E-3,3.328948980E-3,-5.193160381E-3
3.525366468E1,3.861580743E-3,-3.062632866E-3,-5.193160381E-3
3.527393578E1,4.926844500E-3,-4.127896391E-3,-4.127896391E-3
3.529420682E1,-1.464737463E-3,1.331579551E-4,5.459476262E-3
3.531447786E1,-4.660528619E-3,-9.321057005E-4,1.611211337E-2
3.533487786E1,-1.464737463E-3,-5.193160381E-3,1.717737690E-2
3.535501994E1,-2.530001104E-3,-6.258423906E-3,1.611211337E-2
3.537529098E1,-2.530001104E-3,-1.051947847E-2,1.291632187E-2
3.539556203E1,1.731053460E-3,-1.265000552E-2,4.394212738E-3
3.541583307E1,5.992108025E-3,-1.051947847E-2,-4.127896391E-3
3.543610411E1,8.122635074E-3,-9.454214945E-3,-9.454214945E-3
3.545637515E1,1.344895363E-2,-8.388951421E-3,-9.454214945E-3
3.547664619E1,1.664474420E-2,-8.388951421E-3,-9.454214945E-3
3.549691724E1,1.451421715E-2,-1.478053257E-2,-8.388951421E-3
3.551718828E1,9.187898599E-3,-4.127896391E-3,-4.127896391E-3
3.553745932E1,8.122635074E-3,-6.258423906E-3,-1.997369342E-3
3.555773036E1,9.187898599E-3,-7.323687430E-3,-1.997369342E-3
3.557800140E1,7.057371549E-3,-5.193160381E-3,1.198421582E-3
3.559827244E1,4.926844500E-3,-4.127896391E-3,7.590003312E-3
3.561854349E1,3.861580743E-3,1.198421582E-3,5.459476262E-3
3.563881453E1,3.861580743E-3,2.263685223E-3,1.198421582E-3
3.565908557E1,5.992108025E-3,4.394212738E-3,2.263685223E-3
3.567935661E1,9.187898599E-3,5.326318089E-3,3.328948980E-3
3.569962765E1,7.057371549E-3,-9.321057005E-4,1.198421582E-3
3.571989869E1,7.057371549E-3,-4.127896391E-3,1.198421582E-3
3.574016968E1,9.187898599E-3,-3.062632866E-3,1.331579551E-4
3.576044072E1,9.187898599E-3,-4.127896391E-3,-3.062632866E-3
3.578071177E1,8.122635074E-3,-8.388951421E-3,-4.127896391E-3
3.580111177E1,8.122635074E-3,-5.193160381E-3,-1.997369342E-3
3.582125385E1,9.187898599E-3,-1.997369342E-3,1.331579551E-4
3.584152489E1,5.992108025E-3,-3.062632866E-3,1.198421582E-3
3.586179588E1,2.796316985E-3,-4.127896391E-3,1.331579551E-4
3.588206692E1,-3.994738800E-4,-9.321057005E-4,-3.062632866E-3
3.590233796E1,-1.464737463E-3,3.328948980E-3,-9.321057005E-4
3.592260901E1,-3.994738800E-4,-1.997369342E-3,2.263685223E-3
3.594288000E1,2.796316985E-3,-5.193160381E-3,1.331579551E-4
3.596315104E1,6.657897611E-4,-5.193160381E-3,-9.321057005E-4
3.598342208E1,-3.595264861E-3,-3.062632866E-3,1.198421582E-3
3.600369307E1,6.657897611E-4,-9.321057005E-4,3.328948980E-3
3.602396411E1,2.796316985E-3,-3.062632866E-3,2.263685223E-3
3.604423515E1,1.731053460E-3,-4.127896391E-3,-9.321057005E-4
3.606450619E1,3.861580743E-3,-5.193160381E-3,-3.062632866E-3
3.608477724E1,2.796316985E-3,-1.997369342E-3,1.198421582E-3
3.610504823E1,-2.530001104E-3,-3.062632866E-3,5.459476262E-3
3.612531927E1,-3.595264861E-3,-4.127896391E-3,2.263685223E-3
3.614559031E1,-4.660528619E-3,-3.062632866E-3,-9.321057005E-4
3.616586135E1,-4.660528619E-3,1.331579551E-4,-9.321057005E-4
3.618613234E1,-2.530001104E-3,-1.997369342E-3,-9.321057005E-4
3.620640338E1,6.657897611E-4,-4.127896391E-3,-4.127896391E-3
3.622667442E1,4.926844500E-3,-5.193160381E-3,-4.127896391E-3
3.624694541E1,3.861580743E-3,-1.997369342E-3,-1.997369342E-3
3.626721645E1,-1.464737463E-3,1.331579551E-4,1.331579551E-4
3.628748750E1,-3.595264861E-3,-1.997369342E-3,2.263685223E-3
3.630775848E1,-5.725792143E-3,-3.062632866E-3,1.331579551E-4
3.632802953E1,-5.725792143E-3,3.328948980E-3,3.328948980E-3
3.634830052E1,-6.791055668E-3,3.328948980E-3,8.655266836E-3
3.636857156E1,-7.856319658E-3,4.394212738E-3,5.459476262E-3
3.638884260E1,-7.856319658E-3,3.328948980E-3,1.198421582E-3
3.640911364E1,-3.595264861E-3,1.198421582E-3,-9.321057005E-4
3.642938458E1,1.731053460E-3,3.328948980E-3,-9.321057005E-4
3.644965567E1,-3.994738800E-4,3.328948980E-3,-1.997369342E-3
3.646992666E1,-2.530001104E-3,2.263685223E-3,1.331579551E-4
3.649019770E1,6.657897611E-4,1.331579551E-4,3.328948980E-3
3.651046875E1,-3.994738800E-4,1.198421582E-3,3.328948980E-3
3.653086874E1,-3.994738800E-4,5.326318089E-3,4.394212738E-3
3.655101078E1,-1.464737463E-3,6.391582079E-3,4.394212738E-3
3.657128177E1,-5.725792143E-3,5.326318089E-3,1.198421582E-3
3.659155281E1,-6.791055668E-3,4.394212738E-3,-4.127896391E-3
3.661182385E1,-1.464737463E-3,1.331579551E-4,-1.997369342E-3
3.663222385E1,-1.464737463E-3,-9.321057005E-4,1.198421582E-3
3.665236588E1,-3.595264861E-3,2.263685223E-3,-1.997369342E-3
3.667263692E1,-2.530001104E-3,4.394212738E-3,-6.258423906E-3
3.669290791E1,-3.994738800E-4,3.328948980E-3,-5.193160381E-3
3.671317895E1,-3.994738800E-4,1.331579551E-4,-3.062632866E-3
3.673357895E1,-3.994738800E-4,3.328948980E-3,-9.321057005E-4
3.675372098E1,-2.530001104E-3,1.331579551E-4,3.328948980E-3
3.677399203E1,-2.530001104E-3,-1.997369342E-3,4.394212738E-3
3.679426307E1,-3.595264861E-3,1.198421582E-3,3.328948980E-3
3.681453406E1,-5.725792143E-3,2.263685223E-3,1.198421582E-3
3.683480505E1,-4.660528619E-3,1.331579551E-4,1.331579551E-4
3.685520505E1,-2.530001104E-3,2.263685223E-3,-9.321057005E-4
3.687534713E1,-1.464737463E-3,5.326318089E-3,-3.062632866E-3
3.689561812E1,-2.530001104E-3,-1.997369342E-3,-5.193160381E-3
3.691588916E1,-3.595264861E-3,1.331579551E-4,-3.062632866E-3
3.693616015E1,-4.660528619E-3,2.263685223E-3,-9.321057005E-4
3.695643119E1,-4.660528619E-3,1.331579551E-4,-1.997369342E-3
3.697683119E1,-4.660528619E-3,2.263685223E-3,-1.997369342E-3
3.699697323E1,-5.725792143E-3,6.391582079E-3,1.331579551E-4
3.701724421E1,-6.791055668E-3,2.263685223E-3,6.524739787E-3
3.703751526E1,-6.791055668E-3,-9.321057005E-4,8.655266836E-3
3.705778630E1,-6.791055668E-3,-9.321057005E-4,2.263685223E-3
3.707805729E1,-6.791055668E-3,-9.321057005E-4,1.331579551E-4
3.709832833E1,-5.725792143E-3,-5.193160381E-3,4.394212738E-3
3.711859932E1,-4.660528619E-3,-4.127896391E-3,4.394212738E-3
3.713887036E1,-4.660528619E-3,1.331579551E-4,-9.321057005E-4
3.715914135E1,-1.464737463E-3,1.198421582E-3,-1.997369342E-3
3.717941239E1,-3.994738800E-4,1.331579551E-4,2.263685223E-3
3.719968338E1,-2.530001104E-3,1.198421582E-3,3.328948980E-3
3.721995442E1,1.731053460E-3,-3.062632866E-3,2.263685223E-3
3.724022541E1,1.731053460E-3,-5.193160381E-3,3.328948980E-3
3.726049640E1,-1.464737463E-3,3.328948980E-3,3.328948980E-3
3.728076744E1,-2.530001104E-3,3.328948980E-3,3.328948980E-3
3.730103843E1,-1.464737463E-3,1.331579551E-4,2.263685223E-3
3.732130948E1,-2.530001104E-3,1.331579551E-4,2.263685223E-3
3.734158046E1,-4.660528619E-3,4.394212738E-3,3.328948980E-3
3.736185151E1,-6.791055668E-3,1.198421582E-3,4.394212738E-3
3.738212250E1,-3.595264861E-3,-4.127896391E-3,3.328948980E-3
3.740239349E1,-2.530001104E-3,1.331579551E-4,1.198421582E-3
3.742266448E1,-2.530001104E-3,1.198421582E-3,-9.321057005E-4
3.744293552E1,-2.530001104E-3,1.331579551E-4,-9.321057005E-4
3.746320651E1,-3.994738800E-4,-5.193160381E-3,1.331579551E-4
3.748347755E1,6.657897611E-4,-5.193160381E-3,-9.321057005E-4
3.750374854E1,-1.464737463E-3,-1.997369342E-3,-4.127896391E-3
3.752401953E1,-2.530001104E-3,1.198421582E-3,-1.997369342E-3
3.754429057E1,-2.530001104E-3,-9.321057005E-4,1.331579551E-4
3.756456156E1,-2.530001104E-3,-5.193160381E-3,1.198421582E-3
3.758483260E1,6.657897611E-4,-5.193160381E-3,-9.321057005E-4
3.760510359E1,-1.464737463E-3,-1.997369342E-3,-4.127896391E-3
3.762537458E1,-1.464737463E-3,3.328948980E-3,1.331579551E-4
3.764564562E1,-1.464737463E-3,1.331579551E-4,1.198421582E-3
3.766591661E1,-3.994738800E-4,-6.258423906E-3,1.331579551E-4
3.768618765E1,6.657897611E-4,1.198421582E-3,-1.997369342E-3
3.770645864E1,-1.464737463E-3,5.326318089E-3,-9.321057005E-4
3.772672963E1,-2.530001104E-3,2.263685223E-3,2.263685223E-3
3.774700062E1,-2.530001104E-3,-9.321057005E-4,3.328948980E-3
3.776727166E1,-2.530001104E-3,-9.321057005E-4,2.263685223E-3
3.778754265E1,-2.530001104E-3,2.263685223E-3,4.394212738E-3
3.780781364E1,-2.530001104E-3,-1.997369342E-3,3.328948980E-3
3.782808468E1,6.657897611E-4,-1.997369342E-3,-1.997369342E-3
3.784835567E1,6.657897611E-4,-3.062632866E-3,-1.997369342E-3
3.786862666E1,6.657897611E-4,-5.193160381E-3,1.198421582E-3
3.788889765E1,6.657897611E-4,-3.062632866E-3,-1.997369342E-3
3.790916869E1,1.731053460E-3,1.331579551E-4,-4.127896391E-3
3.792943968E1,6.657897611E-4,1.198421582E-3,-9.321057005E-4
3.794971067E1,-3.994738800E-4,1.198421582E-3,2.263685223E-3
3.796998171E1,-2.530001104E-3,-1.997369342E-3,1.198421582E-3
3.799025270E1,-2.530001104E-3,-3.062632866E-3,3.328948980E-3
3.801052374E1,-2.530001104E-3,1.331579551E-4,5.459476262E-3
3.803092374E1,-2.530001104E-3,1.331579551E-4,6.524739787E-3
3.805106572E1,-3.994738800E-4,-4.127896391E-3,3.328948980E-3
3.807133671E1,2.796316985E-3,-5.193160381E-3,1.198421582E-3
3.809160776E1,1.731053460E-3,-4.127896391E-3,1.198421582E-3
3.811187875E1,-1.464737463E-3,-1.997369342E-3,1.198421582E-3
3.813227874E1,-3.595264861E-3,-5.193160381E-3,1.198421582E-3
3.815242078E1,-4.660528619E-3,-5.193160381E-3,2.263685223E-3
3.817269177E1,-4.660528619E-3,1.331579551E-4,2.263685223E-3
3.819296276E1,-1.464737463E-3,-1.997369342E-3,2.263685223E-3
3.821323380E1,-1.464737463E-3,-7.323687430E-3,2.263685223E-3
3.823363380E1,-1.464737463E-3,-7.323687430E-3,1.331579551E-4
3.825377578E1,-3.994738800E-4,-1.997369342E-3,-1.997369342E-3
3.827404682E1,-3.994738800E-4,-1.997369342E-3,-1.997369342E-3
3.829431781E1,1.731053460E-3,-7.323687430E-3,-5.193160381E-3
3.831458880E1,1.731053460E-3,-5.193160381E-3,-5.193160381E-3
3.833498880E1,1.731053460E-3,-9.321057005E-4,-9.321057005E-4
3.835513083E1,-3.994738800E-4,-1.997369342E-3,2.263685223E-3
3.837540182E1,-2.530001104E-3,-1.997369342E-3,3.328948980E-3
3.839567281E1,-3.595264861E-3,-9.321057005E-4,4.394212738E-3
3.841594385E1,-3.595264861E-3,1.331579551E-4,5.459476262E-3
3.843621484E1,-1.464737463E-3,-1.997369342E-3,3.328948980E-3
3.845648583E1,6.657897611E-4,-6.258423906E-3,-9.321057005E-4
3.847675682E1,1.731053460E-3,-5.193160381E-3,-3.062632866E-3
3.849702786E1,1.731053460E-3,-9.321057005E-4,-1.997369342E-3
3.851729885E1,6.657897611E-4,-4.127896391E-3,1.331579551E-4
3.853756984E1,6.657897611E-4,-7.323687430E-3,1.331579551E-4
3.855784083E1,-3.994738800E-4,-5.193160381E-3,1.198421582E-3
3.857811187E1,-1.464737463E-3,-9.321057005E-4,2.263685223E-3
3.859838286E1,-3.595264861E-3,-9.321057005E-4,4.394212738E-3
3.861865385E1,-2.530001104E-3,-8.388951421E-3,-9.321057005E-4
3.863892484E1,-3.994738800E-4,-1.265000552E-2,-9.321057005E-4
3.865919588E1,1.731053460E-3,-7.323687430E-3,1.331579551E-4
3.867946687E1,2.796316985E-3,-3.062632866E-3,-5.193160381E-3
3.869973786E1,3.861580743E-3,-4.127896391E-3,-6.258423906E-3
3.872000885E1,2.796316985E-3,-3.062632866E-3,-9.321057005E-4
3.874027989E1,-3.994738800E-4,-3.062632866E-3,3.328948980E-3
3.876055088E1,-2.530001104E-3,-4.127896391E-3,3.328948980E-3
3.878082187E1,-2.530001104E-3,-4.127896391E-3,5.459476262E-3
3.880109291E1,-3.595264861E-3,1.331579551E-4,6.524739787E-3
3.882136390E1,-2.530001104E-3,1.198421582E-3,4.394212738E-3
3.884163489E1,2.796316985E-3,-5.193160381E-3,1.331579551E-4
3.886190588E1,4.926844500E-3,-4.127896391E-3,-9.321057005E-4
3.888217692E1,2.796316985E-3,1.331579551E-4,-3.062632866E-3
3.890244791E1,6.657897611E-4,-7.323687430E-3,-3.062632866E-3
3.892271890E1,1.731053460E-3,-1.051947847E-2,-9.321057005E-4
3.894298989E1,-3.994738800E-4,-3.062632866E-3,-9.321057005E-4
3.896326093E1,-2.530001104E-3,1.198421582E-3,2.263685223E-3
3.898353192E1,-3.994738800E-4,-3.062632866E-3,5.459476262E-3
3.900380291E1,-3.994738800E-4,-8.388951421E-3,2.263685223E-3
3.902407390E1,-3.595264861E-3,-9.321057005E-4,1.331579551E-4
3.904434484E1,-3.595264861E-3,5.326318089E-3,-9.321057005E-4
3.906461588E1,-3.595264861E-3,1.198421582E-3,1.198421582E-3
3.908488692E1,-3.994738800E-4,-9.321057005E-4,1.198421582E-3
3.910515786E1,-3.994738800E-4,1.331579551E-4,-1.997369342E-3
3.912542890E1,-2.530001104E-3,4.394212738E-3,1.331579551E-4
3.914569989E1,-3.595264861E-3,8.522109129E-3,3.328948980E-3
3.916597093E1,-4.660528619E-3,1.331579551E-4,5.459476262E-3
3.918624192E1,-3.595264861E-3,-4.127896391E-3,4.394212738E-3
3.920651291E1,-2.530001104E-3,1.198421582E-3,3.328948980E-3
3.922678390E1,-1.464737463E-3,5.326318089E-3,2.263685223E-3
3.924705494E1,-3.994738800E-4,2.263685223E-3,1.198421582E-3
3.926732593E1,6.657897611E-4,-1.997369342E-3,-1.997369342E-3
3.928759692E1,-3.994738800E-4,1.198421582E-3,-9.321057005E-4
3.930786791E1,-2.530001104E-3,4.394212738E-3,1.331579551E-4
3.932813895E1,-3.595264861E-3,3.328948980E-3,2.263685223E-3
3.934840994E1,-2.530001104E-3,1.331579551E-4,4.394212738E-3
3.936868093E1,-5.725792143E-3,1.331579551E-4,1.331579551E-4
3.938895198E1,-4.660528619E-3,1.198421582E-3,-1.997369342E-3
3.940922296E1,-5.725792143E-3,2.263685223E-3,3.328948980E-3
3.942962296E1,-4.660528619E-3,1.331579551E-4,5.459476262E-3
3.944976494E1,-3.595264861E-3,2.263685223E-3,-9.321057005E-4
3.947003598E1,-2.530001104E-3,1.331579551E-4,-4.127896391E-3
3.949030698E1,-3.595264861E-3,1.198421582E-3,-1.997369342E-3
3.951057796E1,-3.595264861E-3,2.263685223E-3,-9.321057005E-4
3.953097796E1,-1.464737463E-3,-1.997369342E-3,1.331579551E-4
3.955112000E1,-3.994738800E-4,1.331579551E-4,1.331579551E-4
3.957139098E1,-3.595264861E-3,5.326318089E-3,3.328948980E-3
3.959166198E1,-6.791055668E-3,6.391582079E-3,5.459476262E-3
3.961193302E1,-7.856319658E-3,1.198421582E-3,4.394212738E-3
3.963233302E1,-3.595264861E-3,5.326318089E-3,2.263685223E-3
3.965247500E1,-3.595264861E-3,5.326318089E-3,1.331579551E-4
3.967274599E1,-5.725792143E-3,1.198421582E-3,1.331579551E-4
3.969301698E1,-4.660528619E-3,1.198421582E-3,3.328948980E-3
3.971328802E1,-4.660528619E-3,4.394212738E-3,2.263685223E-3
3.973368802E1,-3.595264861E-3,3.328948980E-3,-1.997369342E-3
3.975383000E1,-3.994738800E-4,1.331579551E-4,-9.321057005E-4
3.977410099E1,-3.994738800E-4,1.331579551E-4,-9.321057005E-4
3.979437203E1,-1.464737463E-3,-3.062632866E-3,-9.321057005E-4
3.981464302E1,-3.994738800E-4,-9.321057005E-4,-9.321057005E-4
3.983491401E1,-3.994738800E-4,3.328948980E-3,-1.997369342E-3
3.985531401E1,-2.530001104E-3,-1.997369342E-3,-9.321057005E-4
3.987545604E1,-2.530001104E-3,1.198421582E-3,2.263685223E-3
3.989572703E1,-3.595264861E-3,3.328948980E-3,4.394212738E-3
3.991599802E1,-4.660528619E-3,1.331579551E-4,2.263685223E-3
3.993626901E1,-4.660528619E-3,1.331579551E-4,2.263685223E-3
3.995654005E1,-4.660528619E-3,2.263685223E-3,2.263685223E-3
3.997681104E1,-5.725792143E-3,3.328948980E-3,1.198421582E-3
3.999708203E1,-4.660528619E-3,2.263685223E-3,-9.321057005E-4
4.001735302E1,-2.530001104E-3,1.198421582E-3,1.198421582E-3
4.003762406E1,-1.464737463E-3,1.331579551E-4,1.331579551E-4
4.005789505E1,-1.464737463E-3,-1.997369342E-3,-1.997369342E-3
4.007816604E1,-2.530001104E-3,1.331579551E-4,1.198421582E-3
4.009843703E1,-2.530001104E-3,2.263685223E-3,3.328948980E-3
4.011870807E1,-3.994738800E-4,-1.997369342E-3,3.328948980E-3
4.013897906E1,-2.530001104E-3,-1.997369342E-3,1.198421582E-3
4.015925005E1,-4.660528619E-3,1.331579551E-4,1.331579551E-4
4.017952104E1,-5.725792143E-3,1.331579551E-4,-9.321057005E-4
4.019979203E1,-3.595264861E-3,-5.193160381E-3,2.263685223E-3
4.022006307E1,-1.464737463E-3,-3.062632866E-3,1.198421582E-3
4.024033406E1,-2.530001104E-3,1.198421582E-3,-4.127896391E-3
4.026060505E1,-3.994738800E-4,3.328948980E-3,1.331579551E-4
