"Time (s)","Acceleration x (m/s^2)","Acceleration y (m/s^2)","Acceleration z (m/s^2)"
3.164421800E-2,-3.486748457E0,4.539168835E0,7.962971210E0
5.154138700E-2,-2.759184122E0,4.399318695E0,8.318850517E0
7.143855600E-2,-1.858254433E0,3.931560040E0,8.789772987E0
9.130520800E-2,-1.310924053E0,3.470434904E0,9.077882767E0
1.112023770E-1,-1.338708997E0,3.341521978E0,9.122087479E0
1.310995460E-1,-1.531490326E0,3.327996731E0,9.096668243E0
1.509661980E-1,-1.899054646E0,3.227980614E0,9.063339233E0
1.708633670E-1,-1.915398598E0,3.031717777E0,9.127449036E0
1.907605360E-1,-1.911843419E0,2.727870941E0,9.223554611E0
2.106577060E-1,-1.686451197E0,2.426450968E0,9.350861549E0
2.305243570E-1,-1.340529203E0,2.157235861E0,9.472048759E0
2.504215260E-1,-9.351874590E-1,1.794156551E0,9.595665932E0
2.703186960E-1,-7.856500149E-1,1.335846066E0,9.683422089E0
2.901853480E-1,-1.089503646E0,8.534641266E-1,9.708499908E0
3.100825180E-1,-2.014824390E0,2.301719487E-1,9.594679832E0
3.299796870E-1,-2.826112509E0,-3.119080141E-2,9.390554428E0
3.498463380E-1,-3.199943542E0,-1.686029285E-1,9.268350601E0
3.697435080E-1,-3.608345270E0,-1.989721656E-1,9.116503716E0
3.896406770E-1,-3.912227392E0,-1.322464347E-1,8.991517067E0
4.095073290E-1,-3.928683043E0,1.279487014E-1,8.984401703E0
4.294044980E-1,-3.660535336E0,5.820730925E-1,9.079210281E0
4.493016670E-1,-3.261454821E0,1.053737164E0,9.188195229E0
4.691683190E-1,-2.802548885E0,1.448115110E0,9.285422325E0
4.890654880E-1,-2.358097076E0,1.662840605E0,9.372551918E0
5.089626570E-1,-1.940096617E0,1.823122621E0,9.438360214E0
5.288293100E-1,-1.349889874E0,2.019032478E0,9.501141548E0
5.487264790E-1,-5.195734501E-1,2.303335667E0,9.518144608E0
5.686236480E-1,4.625454843E-1,2.664007664E0,9.426531792E0
5.884903000E-1,1.621142268E0,3.009467602E0,9.191594124E0
6.083874690E-1,2.926309824E0,3.218622208E0,8.789059639E0
6.282846380E-1,4.254131317E0,3.243683338E0,8.218957901E0
6.481512900E-1,5.535309792E0,3.022894382E0,7.509517193E0
6.680484590E-1,6.711992264E0,2.582392693E0,6.667142868E0
6.879151110E-1,7.802240372E0,1.951769948E0,5.611243248E0
7.078122800E-1,8.659490585E0,1.193825960E0,4.445044041E0
7.277094490E-1,9.233231544E0,3.086810410E-1,3.289768696E0
7.475761020E-1,9.541886330E0,-6.790726781E-1,2.159087658E0
7.674732710E-1,9.600355148E0,-1.731392622E0,1.002923250E0
7.873704400E-1,9.396253586E0,-2.804171801E0,-1.320657134E-1
8.072676080E-1,8.976288795E0,-3.806131124E0,-1.053561568E0
8.271342610E-1,8.471633911E0,-4.665125847E0,-1.624318004E0
8.470314300E-1,7.974417686E0,-5.415036678E0,-1.804557085E0
8.669286000E-1,7.569194794E0,-6.018320560E0,-1.630183697E0
8.867952510E-1,7.262536526E0,-6.457521915E0,-1.313905835E0
9.066924200E-1,7.042772770E0,-6.761991978E0,-9.193582535E-1
9.265895900E-1,6.896679878E0,-6.950201511E0,-5.485433936E-1
9.464562410E-1,6.822292328E0,-7.039180756E0,-2.768880129E-1
9.663534110E-1,6.797107697E0,-7.068666458E0,-6.064940616E-2
9.862505800E-1,6.802352428E0,-7.063442707E0,7.845160365E-2
1.006117232E0,6.813814640E0,-7.049777985E0,2.072574347E-1
1.026014401E0,6.850926399E0,-7.005906582E0,3.905167282E-1
1.045881053E0,6.884274960E0,-6.960023403E0,5.789958239E-1
1.065778223E0,6.902766228E0,-6.929249287E0,7.125298381E-1
1.085675392E0,6.921502590E0,-6.910163403E0,7.161334157E-1
1.105542043E0,6.966466904E0,-6.869097710E0,6.739806533E-1
1.125439213E0,7.010434628E0,-6.830772400E0,6.039303541E-1
1.145336382E0,7.067560673E0,-6.777470112E0,5.346913934E-1
1.165203033E0,7.170718670E0,-6.673670769E0,4.618500471E-1
1.185100203E0,7.280287266E0,-6.560552597E0,3.563029170E-1
1.204997372E0,7.389448643E0,-6.442338467E0,2.504156232E-1
1.224894541E0,7.474575996E0,-6.346203327E0,1.636673063E-1
1.244761193E0,7.543486118E0,-6.266101837E0,-4.662205279E-2
1.264658362E0,7.595608234E0,-6.199078083E0,-2.203565687E-1
1.284555531E0,7.658615112E0,-6.112434387E0,-3.926227689E-1
1.304422184E0,7.758128166E0,-5.973752975E0,-5.441513062E-1
1.324319353E0,7.876205921E0,-5.798172474E0,-7.190344334E-1
1.344216522E0,8.024147987E0,-5.557650566E0,-9.465619326E-1
1.364083174E0,8.188101768E0,-5.269766331E0,-1.164031506E0
1.383980343E0,8.366116524E0,-4.938536167E0,-1.337677836E0
1.403846995E0,8.549608231E0,-4.576032639E0,-1.461004853E0
1.423744164E0,8.718070030E0,-4.196238995E0,-1.599138498E0
1.443641333E0,8.850360870E0,-3.802016735E0,-1.840170741E0
1.463507985E0,8.927354813E0,-3.399344921E0,-2.217476130E0
1.483405154E0,8.937825203E0,-3.042507410E0,-2.651200771E0
1.503302323E0,8.901655197E0,-2.787500381E0,-3.026680708E0
1.523168976E0,8.877182007E0,-2.575643778E0,-3.275989771E0
1.543066145E0,8.877551079E0,-2.383638859E0,-3.417271614E0
1.562963314E0,8.895844460E0,-2.207776546E0,-3.487134933E0
1.582829966E0,8.920639038E0,-2.076438904E0,-3.504425526E0
1.602727135E0,8.936655045E0,-2.000808716E0,-3.507621288E0
1.622624305E0,8.935418129E0,-1.983216286E0,-3.520739079E0
1.642490956E0,8.918032646E0,-1.983521461E0,-3.564364910E0
1.662388125E0,8.893250465E0,-1.974969983E0,-3.630428791E0
1.682285295E0,8.867418289E0,-1.952475309E0,-3.705013037E0
1.702151946E0,8.847940445E0,-1.910112023E0,-3.773037434E0
1.722049115E0,8.846693993E0,-1.835569739E0,-3.812756300E0
1.741946285E0,8.865428925E0,-1.710344076E0,-3.827434778E0
1.761812937E0,8.899300575E0,-1.541598201E0,-3.820519924E0
1.781710107E0,8.938119888E0,-1.351632357E0,-3.801773071E0
1.801607276E0,8.970812798E0,-1.162923932E0,-3.787153721E0
1.821473927E0,8.979356766E0,-9.829251766E-1,-3.817773819E0
1.841371097E0,8.964075089E0,-8.143391013E-1,-3.892639875E0
1.861237748E0,8.936882973E0,-6.563721895E-1,-3.983934641E0
1.881134918E0,8.919822693E0,-4.690253437E-1,-4.048109531E0
1.901032087E0,8.940206528E0,-1.731260270E-1,-4.026553154E0
1.920929256E0,8.967645645E0,1.560496688E-1,-3.965774775E0
1.940826425E0,8.989123344E0,4.950298369E-1,-3.888572931E0
1.960815146E0,8.967421532E0,8.062793016E-1,-3.886608362E0
1.980681798E0,8.888541222E0,1.102323890E0,-3.993632555E0
2.000609483E0,8.787968636E0,1.434258342E0,-4.109123707E0
2.020506653E0,8.705284119E0,1.790239573E0,-4.145300865E0
2.040373305E0,8.614420891E0,2.041672468E0,-4.218260288E0
2.060270475E0,8.518236160E0,2.189183712E0,-4.337915897E0
2.080167644E0,8.392807007E0,2.377396584E0,-4.480983257E0
2.100064813E0,8.258948326E0,2.593949795E0,-4.607775688E0
2.119931465E0,8.175593376E0,2.701124907E0,-4.694037437E0
2.139828634E0,8.170374870E0,2.669048548E0,-4.721392632E0
2.159725803E0,8.311848640E0,2.525796175E0,-4.550163746E0
2.179592455E0,8.507216454E0,2.405296326E0,-4.244079113E0
2.199489624E0,8.660574913E0,2.243892431E0,-4.016194820E0
2.219386793E0,8.804899216E0,1.867308974E0,-3.893243074E0
2.239283962E0,8.991996765E0,1.268454432E0,-3.702090502E0
2.259181132E0,9.195167542E0,4.852309227E-1,-3.374001741E0
2.279108817E0,9.331527710E0,-3.309320509E-1,-2.997241735E0
2.299036504E0,9.388758659E0,-1.062907815E0,-2.625229359E0
2.318964190E0,9.441143990E0,-1.670450330E0,-2.060282946E0
2.338922394E0,9.451456070E0,-2.171735764E0,-1.457377315E0
2.358819562E0,9.416136742E0,-2.586327076E0,-9.042647481E-1
2.378716732E0,9.332561493E0,-2.980229378E0,-4.380985796E-1
2.398613901E0,9.186892509E0,-3.383940220E0,-5.659960508E-1
2.418572104E0,8.989018440E0,-3.772977591E0,-1.064220309E0
2.438499791E0,8.745417595E0,-4.115529537E0,-1.658465743E0
2.458488512E0,8.559234619E0,-4.389803410E0,-1.907765508E0
2.478568783E0,8.403763771E0,-4.623800755E0,-2.041474342E0
2.498557504E0,8.149286270E0,-4.960165024E0,-2.270758867E0
2.518515708E0,7.744142056E0,-5.515612125E0,-2.403474569E0
2.538534945E0,7.274664879E0,-6.130307674E0,-2.380958796E0
2.558462632E0,6.841574669E0,-6.657365799E0,-2.245599270E0
2.578512386E0,6.478742123E0,-7.061703682E0,-2.080547333E0
2.598470590E0,6.207091331E0,-7.371305943E0,-1.818324327E0
2.618428793E0,6.001004219E0,-7.601243019E0,-1.542546868E0
2.638356479E0,5.889657497E0,-7.739106178E0,-1.260391712E0
2.658314682E0,5.840796471E0,-7.813745975E0,-1.000451326E0
2.678272886E0,5.854407310E0,-7.800457478E0,-1.024290442E0
2.698231089E0,5.669670105E0,-7.892077923E0,-1.319229126E0
2.718189292E0,5.418901443E0,-8.041544914E0,-1.462687135E0
2.738147497E0,5.297544003E0,-8.160487175E0,-1.229988933E0
2.758044666E0,5.056829929E0,-8.360401154E0,-8.381962180E-1
2.777941834E0,4.742148399E0,-8.571005821E0,-4.693237245E-1
2.797808487E0,4.349143505E0,-8.788305283E0,-1.451075673E-1
2.817766690E0,3.885788202E0,-9.003946304E0,-9.264671826E-4
2.837663859E0,3.685671329E0,-9.086945534E0,-1.169242561E-1
2.857561029E0,3.807468176E0,-9.028584480E0,-3.977782726E-1
2.877488714E0,4.044507027E0,-8.925406456E0,-3.865981102E-1
2.897385883E0,4.093754768E0,-8.905508995E0,3.216454387E-1
2.917313570E0,3.893979788E0,-8.976561546E0,6.547188759E-1
2.937210739E0,3.340520382E0,-9.204570770E0,5.359136462E-1
2.957107909E0,2.685710907E0,-9.412735939E0,5.981249213E-1
2.976974560E0,2.237488031E0,-9.523176193E0,6.878753304E-1
2.996871730E0,2.212806225E0,-9.525064468E0,7.395984530E-1
3.016768899E0,2.429731369E0,-9.475986481E0,6.873632669E-1
3.036666068E0,2.662649632E0,-9.416729927E0,6.370908618E-1
3.056532720E0,2.858694315E0,-9.353392601E0,7.157710195E-1
3.076429889E0,3.001223564E0,-9.293409348E0,8.919716477E-1
3.096296541E0,3.087147236E0,-9.257822990E0,9.657219648E-1
3.116193710E0,3.160615921E0,-9.228222847E0,1.010351419E0
3.136090879E0,3.232216358E0,-9.200000763E0,1.040744185E0
3.155988048E0,3.285910368E0,-9.191285133E0,9.452403188E-1
3.175854701E0,3.209584713E0,-9.226246834E0,8.633160591E-1
3.195751870E0,3.068824053E0,-9.277572632E0,8.242313862E-1
3.215649039E0,2.962394953E0,-9.311865807E0,8.268956542E-1
3.235515691E0,2.938433886E0,-9.315608025E0,8.691577315E-1
3.255412860E0,2.914986134E0,-9.318470001E0,9.161714315E-1
3.275310029E0,2.869759560E0,-9.325043678E0,9.891688824E-1
3.295176681E0,2.812316418E0,-9.337512016E0,1.035446644E0
3.315073850E0,2.719484806E0,-9.366432190E0,1.022144675E0
3.334940502E0,2.656979322E0,-9.392186165E0,9.474802017E-1
3.354837671E0,2.609989166E0,-9.407191277E0,9.290268421E-1
3.374734840E0,2.570455551E0,-9.412756920E0,9.813994169E-1
3.394601493E0,2.514344931E0,-9.422010422E0,1.036429167E0
3.414498662E0,2.441947460E0,-9.434136391E0,1.097438693E0
3.434395831E0,2.388785839E0,-9.437066078E0,1.185691595E0
3.454262483E0,2.357063532E0,-9.432306290E0,1.283062339E0
3.474159652E0,2.348699808E0,-9.423748970E0,1.359027386E0
3.494056821E0,2.390338659E0,-9.410139084E0,1.380561233E0
3.513953991E0,2.509116411E0,-9.388298035E0,1.317030668E0
3.533851160E0,2.703671217E0,-9.352788925E0,1.177243471E0
3.553748329E0,2.922495842E0,-9.309525490E0,9.808827043E-1
3.573706532E0,3.096343040E0,-9.277752876E0,7.115893364E-1
3.593603702E0,3.252912045E0,-9.243584633E0,3.809188902E-1
3.613500871E0,3.457268238E0,-9.176313400E0,1.138642803E-1
3.633398039E0,3.755598783E0,-9.058460236E0,-1.007961258E-1
3.653356243E0,4.107362270E0,-8.902572632E0,-2.101999223E-1
3.673253412E0,4.416483402E0,-8.755846024E0,-1.511924341E-2
3.693181098E0,4.746534824E0,-8.574475288E0,3.452309072E-1
3.713108785E0,5.111302853E0,-8.363210678E0,3.188964427E-1
3.733005953E0,5.473341942E0,-8.136928558E0,5.759995803E-2
3.752903123E0,5.833745956E0,-7.881583214E0,-1.358838081E-1
3.772800292E0,6.135359764E0,-7.648200035E0,-1.810936481E-1
3.792727979E0,6.394291878E0,-7.433619976E0,-1.572977602E-1
3.812594630E0,6.646547318E0,-7.208746910E0,-1.667149961E-1
3.832491799E0,6.885821342E0,-6.979183674E0,-2.164928764E-1
3.852388969E0,7.107391357E0,-6.750831604E0,-2.857867777E-1
3.872286138E0,7.321850300E0,-6.512903214E0,-3.781540990E-1
3.892213825E0,7.533024788E0,-6.255352497E0,-5.426905751E-1
3.912141510E0,7.722544193E0,-6.013600826E0,-6.076982021E-1
3.932099714E0,7.869784355E0,-5.821449757E0,-5.895966887E-1
3.952088435E0,7.951202393E0,-5.706950188E0,-6.160241365E-1
3.972016120E0,7.975845337E0,-5.670941353E0,-6.298550963E-1
3.991913290E0,7.996599674E0,-5.645291328E0,-5.962269306E-1
4.011810459E0,8.009443283E0,-5.625753403E0,-6.083768010E-1
4.031677111E0,7.976940632E0,-5.670293808E0,-6.217711568E-1
4.051574281E0,7.929884434E0,-5.740995407E0,-5.729816556E-1
4.071471449E0,7.861806870E0,-5.840953827E0,-4.956435859E-1
4.091338102E0,7.784944534E0,-5.944062233E0,-4.828834832E-1
4.111235271E0,7.710404873E0,-6.042132854E0,-4.611638188E-1
4.131132440E0,7.599207878E0,-6.187066078E0,-3.776882291E-1
4.150999092E0,7.425178051E0,-6.401381016E0,-2.438672185E-1
4.170896261E0,7.183446884E0,-6.675019264E0,-1.122796461E-1
4.190793430E0,6.843023777E0,-7.023342609E0,-1.268067658E-1
4.210660082E0,6.444927216E0,-7.388762474E0,-1.987304389E-1
4.230557251E0,6.159717560E0,-7.630643368E0,3.962707892E-2
4.250423904E0,5.923360825E0,-7.811959743E0,2.397463322E-1
4.270321073E0,5.746064186E0,-7.940865517E0,3.094780445E-1
4.290218241E0,5.493497372E0,-8.117376328E0,3.163420856E-1
4.310084894E0,5.091630459E0,-8.375245094E0,3.177759051E-1
4.329982063E0,4.535447598E0,-8.690159798E0,2.849929929E-1
4.349879232E0,3.853498697E0,-9.015919685E0,1.847551018E-1
4.369776401E0,3.162590742E0,-9.282429695E0,7.038286328E-2
4.389673570E0,2.590967178E0,-9.458186150E0,1.581716235E-3
4.409540222E0,2.145475388E0,-9.568763733E0,-7.796645164E-2
4.429437391E0,1.780573845E0,-9.641447067E0,-2.060258538E-1
4.449365077E0,1.451581478E0,-9.691318512E0,-3.763479292E-1
4.469262246E0,1.170609474E0,-9.722156525E0,-5.289326906E-1
4.489128899E0,9.020289183E-1,-9.748579979E0,-5.673761368E-1
4.509026068E0,6.696513891E-1,-9.774455070E0,-4.266150594E-1
4.528923237E0,4.868696332E-1,-9.793028831E0,-1.730103046E-1
4.548850923E0,5.363774896E-1,-9.791655540E0,7.857318968E-2
4.568748092E0,7.405623794E-1,-9.775050163E0,2.652706504E-1
4.588645262E0,9.510977864E-1,-9.751033783E0,4.279395938E-1
4.608511913E0,1.132344246E0,-9.727894783E0,5.062240362E-1
4.628409083E0,1.289517283E0,-9.712373734E0,4.211053550E-1
4.648275735E0,1.272639155E0,-9.723026276E0,1.163105071E-1
4.668172904E0,1.103309631E0,-9.744358063E0,2.416647412E-2
4.688070073E0,9.340704083E-1,-9.760998726E0,1.443056017E-1
4.707967242E0,8.257742524E-1,-9.769610405E0,2.077963650E-1
4.727833894E0,7.863956094E-1,-9.772606850E0,2.194061428E-1
4.747731064E0,6.953487396E-1,-9.779992104E0,1.965764612E-1
4.767628233E0,5.143889189E-1,-9.791532516E0,1.780155599E-1
4.787494885E0,1.868877262E-1,-9.801586151E0,2.536930144E-1
4.807392054E0,-4.338490963E-1,-9.787169456E0,4.398416281E-1
4.827289223E0,-1.032458544E0,-9.733931541E0,5.958335400E-1
4.847155875E0,-1.382745028E0,-9.683782578E0,6.948106885E-1
4.867053044E0,-1.546916723E0,-9.652228355E0,7.822574973E-1
4.886950213E0,-1.568419576E0,-9.642924309E0,8.511457443E-1
4.906877900E0,-1.461106300E0,-9.656404495E0,8.884902596E-1
4.926836103E0,-1.331211209E0,-9.676837921E0,8.701064587E-1
4.946733272E0,-1.205912471E0,-9.698362350E0,8.111276031E-1
4.966630442E0,-1.056183696E0,-9.721804619E0,7.357827425E-1
4.986588645E0,-8.820464611E-1,-9.744542122E0,6.605343223E-1
5.006516331E0,-6.984580755E-1,-9.764959335E0,5.728361607E-1
5.026413500E0,-5.112123489E-1,-9.785468102E0,3.920230567E-1
5.046310669E0,-2.965714931E-1,-9.801704407E0,9.489946812E-2
5.066177321E0,-1.571311802E-2,-9.804372787E0,-2.107949704E-1
5.086074490E0,3.712053001E-1,-9.789019585E0,-4.557265937E-1
5.106002177E0,8.398939371E-1,-9.748856544E0,-6.517302394E-1
5.125960380E0,1.356931925E0,-9.677219391E0,-8.249515295E-1
5.145949101E0,1.901544452E0,-9.572656631E0,-9.585194588E-1
5.165815753E0,2.443583012E0,-9.443355560E0,-1.011114717E0
5.185743439E0,2.972809076E0,-9.288986206E0,-1.023502469E0
5.205671125E0,3.529444933E0,-9.087566376E0,-1.062808156E0
5.225659846E0,4.112802982E0,-8.831323624E0,-1.123812914E0
5.245587532E0,4.701188564E0,-8.526921272E0,-1.166557789E0
5.265484701E0,5.221048355E0,-8.217072487E0,-1.179313302E0
5.285381870E0,5.656423569E0,-7.920481205E0,-1.200526118E0
5.305279039E0,6.058684826E0,-7.607930660E0,-1.257820368E0
5.325176209E0,6.444605350E0,-7.273974419E0,-1.314068913E0
5.345073378E0,6.826297283E0,-6.923303127E0,-1.280601025E0
5.364970547E0,7.162748814E0,-6.593338013E0,-1.180390000E0
5.384867716E0,7.393653870E0,-6.340392113E0,-1.141802192E0
5.404764885E0,7.492230892E0,-6.204007149E0,-1.243863821E0
5.424662055E0,7.543623447E0,-6.116405487E0,-1.361523390E0
5.444559224E0,7.590889454E0,-6.052660942E0,-1.383504272E0
5.464425876E0,7.635250568E0,-6.017413139E0,-1.290000677E0
5.484353561E0,7.674916744E0,-6.004390717E0,-1.101521611E0
5.504281248E0,7.699487686E0,-6.007741928E0,-8.918225765E-1
5.524208935E0,7.698682308E0,-6.032391071E0,-7.147960663E-1
5.544106103E0,7.666834354E0,-6.091378212E0,-5.340215564E-1
5.564033790E0,7.605104446E0,-6.179968834E0,-3.751993477E-1
5.583961476E0,7.504553318E0,-6.305603504E0,-3.023836911E-1
5.603889162E0,7.366017342E0,-6.466563225E0,-3.093932867E-1
5.623816849E0,7.221415043E0,-6.618504047E0,-4.657838643E-1
5.643714017E0,7.076101780E0,-6.769995689E0,-5.161111951E-1
5.663611187E0,6.904454708E0,-6.963446140E0,-9.660743922E-2
5.683508356E0,6.697282791E0,-7.159490585E0,2.417939156E-1
5.703405525E0,6.521495819E0,-7.318163872E0,2.914847136E-1
5.723272178E0,6.356443405E0,-7.464044094E0,2.324701995E-1
5.743169347E0,6.173182964E0,-7.618220806E0,1.578793675E-1
5.763066515E0,5.939873695E0,-7.802384377E0,1.053869575E-1
5.782963684E0,5.679573059E0,-7.993702412E0,1.164297462E-1
5.802891371E0,5.440558434E0,-8.156844139E0,1.913724691E-1
5.822758023E0,5.218366146E0,-8.299389839E0,2.432990521E-1
5.842655192E0,5.003838062E0,-8.430090904E0,2.560550869E-1
5.862552361E0,4.754887581E0,-8.573205948E0,2.482008636E-1
5.882419014E0,4.475092411E0,-8.723230362E0,2.217711210E-1
5.902316182E0,4.204340935E0,-8.857484818E0,1.971341074E-1
5.922213351E0,3.968696594E0,-8.965991020E0,1.756634414E-1
5.942080004E0,3.771290779E0,-9.050989151E0,1.653489769E-1
5.961977173E0,3.587212324E0,-9.125700951E0,1.546265036E-1
5.981874342E0,3.414600134E0,-9.191141129E0,1.839566380E-1
6.001740994E0,3.259779453E0,-9.245326996E0,2.610948384E-1
6.021638163E0,3.121426105E0,-9.289784431E0,3.563607931E-1
6.041535332E0,3.005409718E0,-9.323868752E0,4.509977996E-1
6.061401984E0,2.910887003E0,-9.350235939E0,5.198252797E-1
6.081329671E0,2.852316618E0,-9.365839005E0,5.618985891E-1
6.101196322E0,2.820411444E0,-9.371711731E0,6.218290329E-1
6.121093492E0,2.792052507E0,-9.374315262E0,7.050374746E-1
6.141021178E0,2.760252953E0,-9.376258850E0,7.982505560E-1
6.160918348E0,2.714440823E0,-9.382279396E0,8.803770542E-1
6.180815516E0,2.642724514E0,-9.396112442E0,9.484119415E-1
6.200743203E0,2.543504000E0,-9.419091225E0,9.908008575E-1
6.220670888E0,2.448609829E0,-9.445777893E0,9.757055640E-1
6.240598575E0,2.371324778E0,-9.470067978E0,9.300690293E-1
6.260495744E0,2.307481050E0,-9.488198280E0,9.055716991E-1
6.280362396E0,2.233716488E0,-9.504849434E0,9.158230424E-1
6.300259565E0,2.137960672E0,-9.524031639E0,9.446330070E-1
6.320156734E0,2.021992683E0,-9.543207169E0,1.004555225E0
6.340053904E0,1.907677531E0,-9.556801796E0,1.094839931E0
6.359981590E0,1.808765888E0,-9.566745758E0,1.173081636E0
6.379878760E0,1.713832259E0,-9.579354286E0,1.212084532E0
6.399775928E0,1.605059147E0,-9.598026276E0,1.213295579E0
6.419642581E0,1.512691855E0,-9.614882469E0,1.198404908E0
6.439570266E0,1.463957548E0,-9.623447418E0,1.190176606E0
6.459497953E0,1.484014034E0,-9.622674942E0,1.171412230E0
6.479395122E0,1.606487751E0,-9.618194580E0,1.039198637E0
6.499292292E0,1.811444521E0,-9.606805801E0,7.735188603E-1
6.519158943E0,2.069773436E0,-9.573674202E0,4.808557630E-1
6.539086630E0,2.348871231E0,-9.518945694E0,2.070703954E-1
6.558983799E0,2.648470163E0,-9.442143440E0,-4.408288747E-2
6.578880968E0,2.990252733E0,-9.336802483E0,-2.300660610E-1
6.598778137E0,3.344725609E0,-9.213510513E0,-3.072767258E-1
6.618675306E0,3.741715193E0,-9.060862541E0,-2.659428418E-1
6.638572475E0,4.163026810E0,-8.877060890E0,-1.933855563E-1
6.658500162E0,4.583461761E0,-8.668997765E0,-1.038186848E-1
6.678397331E0,5.026381969E0,-8.420545578E0,-1.717208512E-2
6.698294500E0,5.452897072E0,-8.150442123E0,-8.126549423E-2
6.718222186E0,5.842275143E0,-7.872111797E0,-2.609188855E-1
6.738119355E0,6.161829948E0,-7.621406078E0,-3.412006199E-1
6.758016524E0,6.493094921E0,-7.343795300E0,-2.806593478E-1
6.777944211E0,6.815086842E0,-7.046975136E0,-2.551823854E-1
6.797871897E0,7.105493069E0,-6.749131680E0,-3.627075255E-1
6.817799584E0,7.356549263E0,-6.464274883E0,-5.145072937E-1
6.837757787E0,7.564726353E0,-6.209281445E0,-6.246183515E-1
6.857654956E0,7.710168839E0,-6.018636227E0,-7.069208026E-1
6.877613160E0,7.804467201E0,-5.888478756E0,-7.658253908E-1
6.897510329E0,7.857523441E0,-5.816942215E0,-7.700187564E-1
6.917468532E0,7.893243790E0,-5.776921272E0,-7.030471563E-1
6.937426735E0,7.913819790E0,-5.761569977E0,-5.883738995E-1
6.957354421E0,7.917119980E0,-5.769905090E0,-4.447615445E-1
6.977221074E0,7.894175053E0,-5.808943748E0,-3.295136988E-1
6.997118243E0,7.826679230E0,-5.901367188E0,-2.955412865E-1
7.017015412E0,7.732584476E0,-6.024471760E0,-2.885924876E-1
7.036882064E0,7.604331017E0,-6.186382294E0,-2.706026733E-1
7.056779233E0,7.441267967E0,-6.382374763E0,-2.514063716E-1
7.076676402E0,7.245098591E0,-6.604601860E0,-2.412216663E-1
7.096543054E0,7.032538414E0,-6.831537724E0,-2.094809562E-1
7.116440223E0,6.840774536E0,-7.025767326E0,-1.132429317E-1
7.136337392E0,6.682733536E0,-7.176818371E0,6.876315922E-2
7.156234562E0,6.600634098E0,-7.249469280E0,2.173053622E-1
7.176131731E0,6.559261799E0,-7.285799980E0,2.522509992E-1
7.196028900E0,6.478899002E0,-7.359154224E0,1.926344484E-1
7.215926069E0,6.317476273E0,-7.500173569E0,8.525777608E-2
7.235823238E0,6.086730957E0,-7.689067841E0,1.856850646E-2
7.255720408E0,5.788165092E0,-7.916182518E0,4.028583318E-2
7.275648093E0,5.494984627E0,-8.121858597E0,1.048047766E-1
7.295545263E0,5.283506393E0,-8.259917259E0,1.695189476E-1
7.315442432E0,5.138577461E0,-8.349861145E0,2.126847208E-1
7.335370119E0,4.969287872E0,-8.448966980E0,3.025666475E-1
7.355267288E0,4.741318703E0,-8.571687698E0,4.652858675E-1
7.375133940E0,4.492684841E0,-8.698568344E0,5.666454434E-1
7.395031109E0,4.261325359E0,-8.815565109E0,5.452578068E-1
7.414928278E0,4.075346470E0,-8.909280777E0,4.320663214E-1
7.434825447E0,3.909625292E0,-8.987341881E0,3.359779418E-1
7.454692099E0,3.774488211E0,-9.045819283E0,3.111474514E-1
7.474589268E0,3.638925076E0,-9.100601196E0,3.281055987E-1
7.494486437E0,3.472965240E0,-9.164045334E0,3.594377041E-1
7.514414124E0,3.294731140E0,-9.227754593E0,4.045797586E-1
7.534280776E0,3.117200613E0,-9.286696434E0,4.590484202E-1
7.554177945E0,2.970724106E0,-9.331321716E0,5.211836696E-1
7.574075114E0,2.876916885E0,-9.356562614E0,5.903378725E-1
7.593972283E0,2.794307470E0,-9.376866341E0,6.607797742E-1
7.613838935E0,2.692585230E0,-9.402685165E0,7.140928507E-1
7.633736104E0,2.589722633E0,-9.426951408E0,7.722235918E-1
7.653602756E0,2.485627174E0,-9.444455147E0,8.912538290E-1
7.673499925E0,2.365859032E0,-9.461613655E0,1.025163174E0
7.693397094E0,2.252127409E0,-9.483933449E0,1.073926926E0
7.713263747E0,2.146754503E0,-9.507142067E0,1.084471703E0
7.733160916E0,2.041668653E0,-9.528009415E0,1.104095817E0
7.753058084E0,1.954839706E0,-9.543341637E0,1.128559232E0
7.772955254E0,1.894322634E0,-9.553451538E0,1.146089673E0
7.792821906E0,1.857692719E0,-9.559997559E0,1.151439190E0
7.812719075E0,1.838917255E0,-9.562578201E0,1.160117507E0
7.832616245E0,1.818766475E0,-9.562834740E0,1.189406157E0
7.852513414E0,1.800434947E0,-9.561349869E0,1.228589654E0
7.872380066E0,1.779877901E0,-9.563319206E0,1.243127227E0
7.892277235E0,1.748318434E0,-9.569559097E0,1.239882588E0
7.912204921E0,1.690529108E0,-9.578179359E0,1.253381014E0
7.932071573E0,1.616496444E0,-9.585663795E0,1.293200970E0
7.951968742E0,1.550003886E0,-9.589070320E0,1.348188043E0
7.971865912E0,1.496603131E0,-9.590294838E0,1.398859739E0
7.991732563E0,1.508873463E0,-9.587354660E0,1.405813217E0
8.011629733E0,1.597249031E0,-9.583593369E0,1.331893325E0
8.031496384E0,1.721461177E0,-9.581275940E0,1.185784459E0
8.051393553E0,1.880444407E0,-9.575718880E0,9.695143104E-1
8.071290723E0,2.071811914E0,-9.559206963E0,7.067962885E-1
8.091157374E0,2.301698685E0,-9.520586014E0,4.806500077E-1
8.111054543E0,2.577594757E0,-9.455803871E0,3.379191160E-1
8.130951713E0,2.921381712E0,-9.357694626E0,2.635872364E-1
8.150818365E0,3.353274822E0,-9.213262558E0,2.043383420E-1
8.170715535E0,3.841117382E0,-9.021708488E0,1.581453234E-1
8.190582186E0,4.320185661E0,-8.801998138E0,1.767190844E-1
8.210479355E0,4.754039764E0,-8.571742058E0,3.078267574E-1
8.230376525E0,5.182555676E0,-8.304436684E0,5.897586346E-1
8.250243176E0,5.658368587E0,-7.991187096E0,5.423989296E-1
8.270140346E0,6.075209141E0,-7.693349838E0,2.731125951E-1
8.290037515E0,6.406897545E0,-7.424349308E0,3.347557038E-2
8.309904166E0,6.715477943E0,-7.144328117E0,-1.769569963E-1
8.329801336E0,7.056388855E0,-6.800904274E0,-3.542284667E-1
8.349667988E0,7.405232430E0,-6.412712097E0,-4.583013952E-1
8.369565157E0,7.709135532E0,-6.041432381E0,-4.906295538E-1
8.389462327E0,7.955966949E0,-5.702024460E0,-5.999141335E-1
8.409328978E0,8.132558823E0,-5.418362617E0,-8.205038905E-1
8.429226148E0,8.241744041E0,-5.211811066E0,-1.039753437E0
8.449123317E0,8.297204971E0,-5.091836929E0,-1.183212638E0
8.469020486E0,8.322831154E0,-5.035276413E0,-1.243745685E0
8.488887138E0,8.339558601E0,-5.007530212E0,-1.243703008E0
8.508784307E0,8.353433609E0,-5.004230499E0,-1.161131144E0
8.528681476E0,8.355269432E0,-5.029161930E0,-1.033142447E0
8.548578645E0,8.333194733E0,-5.088675022E0,-9.130454063E-1
8.568475815E0,8.274648666E0,-5.194892883E0,-8.447943330E-1
8.588372984E0,8.191707611E0,-5.333284378E0,-7.889221907E-1
8.608239635E0,8.090326309E0,-5.496676922E0,-7.096276879E-1
8.628136805E0,7.961204052E0,-5.694579601E0,-6.011679173E-1
8.648003457E0,7.794563293E0,-5.929008007E0,-5.119277835E-1
8.667900625E0,7.620035648E0,-6.153899193E0,-4.847446084E-1
8.687797795E0,7.440613747E0,-6.374886990E0,-4.104606211E-1
8.707664447E0,7.253673553E0,-6.598562717E0,-1.165080741E-1
8.727561617E0,7.121534348E0,-6.739371300E0,1.871785223E-1
8.747428268E0,7.051391602E0,-6.810745716E0,2.490092516E-1
8.767325437E0,6.965237617E0,-6.902709007E0,9.209902585E-2
8.787222607E0,6.788030148E0,-7.076417923E0,-1.317325383E-1
8.807119776E0,6.539192200E0,-7.304207325E0,-2.407154739E-1
8.826986428E0,6.245126724E0,-7.558632851E0,-1.893476844E-1
8.846883597E0,5.979102612E0,-7.772972584E0,-4.040273651E-2
8.866780766E0,5.786664009E0,-7.915747166E0,1.608159989E-1
8.886647418E0,5.648137093E0,-8.009659767E0,3.380687535E-1
8.906544587E0,5.477466106E0,-8.120543480E0,4.738695621E-1
8.926441756E0,5.282103539E0,-8.240550995E0,6.025935411E-1
8.946308409E0,5.062721729E0,-8.364570618E0,7.571066618E-1
8.966205578E0,4.844991684E0,-8.479403496E0,8.922785521E-1
8.986072230E0,4.632176399E0,-8.588042259E0,9.792150259E-1
9.005969399E0,4.430171013E0,-8.686269760E0,1.045318007E0
9.025866568E0,4.236706734E0,-8.775058746E0,1.104108095E0
9.045733220E0,4.059789658E0,-8.852313042E0,1.151108861E0
9.065630389E0,3.906853676E0,-8.916666031E0,1.183202147E0
9.085527558E0,3.777164936E0,-8.970988274E0,1.193653345E0
9.105394210E0,3.660431147E0,-9.021049500E0,1.179956198E0
9.125291379E0,3.530899048E0,-9.074794769E0,1.162438154E0
9.145188548E0,3.378718138E0,-9.133074760E0,1.158282161E0
9.165055201E0,3.210753441E0,-9.191011429E0,1.177604675E0
9.184952370E0,3.037935019E0,-9.246547699E0,1.201129913E0
9.204849539E0,2.862136364E0,-9.302367210E0,1.201889277E0
9.224716191E0,2.699173927E0,-9.352973938E0,1.186062694E0
9.244613360E0,2.573964119E0,-9.384695053E0,1.213514805E0
9.264510529E0,2.482094526E0,-9.397005081E0,1.306098461E0
9.284377181E0,2.433869600E0,-9.392106056E0,1.426534414E0
9.304274350E0,2.423829556E0,-9.376599312E0,1.541049361E0
9.324171519E0,2.434369802E0,-9.356800079E0,1.641499996E0
9.344038171E0,2.449609518E0,-9.333442688E0,1.748331308E0
9.363935340E0,2.456607819E0,-9.307003975E0,1.874866843E0
9.383832510E0,2.431314468E0,-9.292522430E0,1.976892829E0
9.403729679E0,2.378422499E0,-9.300300598E0,2.004471064E0
9.423596331E0,2.306013346E0,-9.326161385E0,1.968609810E0
9.443493501E0,2.217257023E0,-9.359601974E0,1.911026239E0
9.463360152E0,2.125800371E0,-9.393538475E0,1.847378492E0
9.483257321E0,2.049674034E0,-9.419700623E0,1.799582481E0
9.503154491E0,1.995310545E0,-9.429961205E0,1.806919932E0
9.523021142E0,1.963531256E0,-9.425256729E0,1.865335345E0
9.542918312E0,1.944788575E0,-9.416810036E0,1.926621318E0
9.562784963E0,1.923719406E0,-9.415341377E0,1.954747081E0
9.582682132E0,1.910335302E0,-9.426444054E0,1.913942456E0
9.602579302E0,1.906510472E0,-9.441981316E0,1.839726806E0
9.622445954E0,1.904279351E0,-9.452461243E0,1.787477612E0
9.642343124E0,1.898427725E0,-9.463418007E0,1.734968901E0
9.662240293E0,1.894950390E0,-9.477670670E0,1.659319401E0
9.682106944E0,1.919983149E0,-9.486464500E0,1.578307867E0
9.702004114E0,2.038473368E0,-9.472660065E0,1.511203051E0
9.721901283E0,2.235790968E0,-9.431914330E0,1.486812115E0
9.741798452E0,2.454245806E0,-9.378109932E0,1.482614040E0
9.761665104E0,2.654802084E0,-9.318499565E0,1.512610555E0
9.781562273E0,2.878779650E0,-9.278738976E0,1.337167740E0
9.801489960E0,3.147300959E0,-9.221630096E0,1.107451320E0
9.821356611E0,3.465014219E0,-9.124480247E0,9.528688788E-1
9.841253781E0,3.825816154E0,-9.002247810E0,7.021750808E-1
9.861120432E0,4.184916973E0,-8.860630989E0,3.822253048E-1
9.881017601E0,4.470757484E0,-8.727352142E0,1.267588288E-1
9.900914771E0,4.670080185E0,-8.623241425E0,-2.149608545E-2
9.920811940E0,4.775995255E0,-8.564220428E0,-1.199000552E-1
9.940709109E0,4.802709103E0,-8.547701836E0,-2.029024512E-1
9.960575761E0,4.766642094E0,-8.566218376E0,-2.634866834E-1
9.980472930E0,4.745089531E0,-8.577775002E0,-2.761798799E-1
1.000037010E1,4.742670059E0,-8.579831123E0,-2.529138625E-1
1.002026727E1,4.755702972E0,-8.573400497E0,-2.247175425E-1
1.004016444E1,4.780840874E0,-8.560229301E0,-1.908621788E-1
1.006006161E1,4.826027870E0,-8.535642624E0,-1.505795568E-1
1.007995878E1,4.854998589E0,-8.519434929E0,-1.364507973E-1
1.009982543E1,4.837398529E0,-8.528773308E0,-1.732749343E-1
1.011972260E1,4.755198479E0,-8.572810173E0,-2.557217479E-1
1.013958925E1,4.610167980E0,-8.648401260E0,-3.491257131E-1
1.015948642E1,4.416728973E0,-8.746078491E0,-4.111373723E-1
1.017938359E1,4.197446346E0,-8.853989601E0,-3.983724117E-1
1.019928076E1,3.972574472E0,-8.961313248E0,-2.896966636E-1
1.021914741E1,3.763345957E0,-9.054912567E0,-1.272682399E-1
1.023904458E1,3.535280704E0,-9.147105217E0,5.162943155E-2
1.025894175E1,3.328475714E0,-9.221735954E0,2.263485044E-1
1.027880840E1,3.174957037E0,-9.270545959E0,3.834405839E-1
1.029870557E1,3.054514408E0,-9.303216934E0,5.389845967E-1
1.031860274E1,3.032488585E0,-9.303706169E0,6.445584297E-1
1.033846939E1,3.069967508E0,-9.288683891E0,6.826655865E-1
1.035836656E1,3.140861750E0,-9.265447617E0,6.759425402E-1
1.037826373E1,3.204223156E0,-9.245285988E0,6.542439461E-1
1.039816090E1,3.212239981E0,-9.243318558E0,6.426327229E-1
1.041802755E1,3.191875458E0,-9.248827934E0,6.644647121E-1
1.043792472E1,3.175174475E0,-9.255554199E0,6.506903768E-1
1.045782189E1,3.277471542E0,-9.218200684E0,6.733002067E-1
1.047771906E1,3.458934307E0,-9.146225929E0,7.434495091E-1
1.049758571E1,3.629674911E0,-9.074350357E0,8.074862361E-1
1.051748288E1,3.773491621E0,-9.006945610E0,8.978167176E-1
1.053738005E1,3.918239117E0,-8.933128357E0,1.008483529E0
1.055727722E1,4.012725353E0,-8.883848190E0,1.070370317E0
1.057714387E1,4.018826962E0,-8.876833916E0,1.105105758E0
1.059704104E1,3.968641281E0,-8.896471024E0,1.128309608E0
1.061693821E1,3.887905598E0,-8.933063507E0,1.120258451E0
1.063680486E1,3.800183773E0,-8.972829819E0,1.103328705E0
1.065670203E1,3.652098417E0,-9.030943871E0,1.128997207E0
1.067659920E1,3.479976177E0,-9.089025497E0,1.204061747E0
1.069646585E1,3.341660261E0,-9.132401466E0,1.266080022E0
1.071636302E1,3.235329390E0,-9.167399406E0,1.289114475E0
1.073626019E1,3.134133577E0,-9.198338509E0,1.318393230E0
1.075612684E1,3.031349659E0,-9.222901344E0,1.385421515E0
1.077602401E1,2.980243921E0,-9.236857414E0,1.403216958E0
1.079589066E1,3.004564047E0,-9.235398293E0,1.360306144E0
1.081578783E1,3.050770044E0,-9.223126411E0,1.340572715E0
1.083568500E1,3.089303970E0,-9.206751823E0,1.364679456E0
1.085555165E1,3.107882977E0,-9.193971634E0,1.407959104E0
1.087544882E1,3.097789049E0,-9.189024925E0,1.461485624E0
1.089534599E1,3.039512634E0,-9.196325302E0,1.536021233E0
1.091524316E1,2.933088303E0,-9.217855453E0,1.611998439E0
1.093510981E1,2.811698437E0,-9.244263649E0,1.675816298E0
1.095500698E1,2.690960884E0,-9.266534805E0,1.749413729E0
1.097490415E1,2.572746038E0,-9.283066750E0,1.837404609E0
1.099477080E1,2.452884674E0,-9.297579765E0,1.925821543E0
1.101466797E1,2.324681044E0,-9.313985825E0,2.003975391E0
1.103456514E1,2.186314106E0,-9.332615852E0,2.071888924E0
1.105443179E1,2.028827906E0,-9.350004196E0,2.152137995E0
1.107432896E1,1.911836267E0,-9.363204956E0,2.201289415E0
1.109422613E1,1.839193225E0,-9.369056702E0,2.237981081E0
1.111409278E1,1.773752213E0,-9.365547180E0,2.304502249E0
1.113398995E1,1.744142056E0,-9.349511147E0,2.390609503E0
1.115388712E1,1.751762152E0,-9.333857536E0,2.445575953E0
1.117378429E1,1.773913622E0,-9.329811096E0,2.445047855E0
1.119365094E1,1.799774528E0,-9.334834099E0,2.406675577E0
1.121354811E1,1.813150525E0,-9.338479996E0,2.382369757E0
1.123344528E1,1.807448387E0,-9.336922646E0,2.392783403E0
1.125331193E1,1.788426876E0,-9.335705757E0,2.411745071E0
1.127320910E1,1.752419472E0,-9.341717720E0,2.414894104E0
1.129310627E1,1.707663774E0,-9.353591919E0,2.400957584E0
1.131300344E1,1.656715393E0,-9.376036644E0,2.348540306E0
1.133287009E1,1.590063334E0,-9.386444092E0,2.353031874E0
1.135276726E1,1.515764594E0,-9.396188736E0,2.363148451E0
1.137266443E1,1.431353569E0,-9.410545349E0,2.358655453E0
1.139256160E1,1.338992953E0,-9.431240082E0,2.330070972E0
1.141242825E1,1.255443096E0,-9.459488869E0,2.261049032E0
1.143232542E1,1.162070155E0,-9.478781700E0,2.229955673E0
1.145222259E1,1.072717190E0,-9.496565819E0,2.198838949E0
1.147208924E1,9.899755120E-1,-9.512657166E0,2.167876482E0
1.149198641E1,9.216063023E-1,-9.527331352E0,2.133305311E0
1.151188358E1,8.333145976E-1,-9.541384697E0,2.106649876E0
1.153175023E1,7.300745845E-1,-9.549884796E0,2.106441021E0
1.155164740E1,6.276856065E-1,-9.550848961E0,2.134876728E0
1.157154457E1,5.117945075E-1,-9.545829773E0,2.187605381E0
1.159141122E1,4.045142829E-1,-9.534104347E0,2.260003567E0
1.161130839E1,3.783703744E-1,-9.513196945E0,2.350812435E0
1.163120556E1,3.962506056E-1,-9.508759499E0,2.365775585E0
1.165107221E1,4.514335692E-1,-9.528630257E0,2.274163485E0
1.167096938E1,5.840104222E-1,-9.561276436E0,2.100314856E0
1.169086655E1,7.601438165E-1,-9.585337639E0,1.927144170E0
1.171076372E1,9.480232000E-1,-9.600403786E0,1.761789441E0
1.173066089E1,1.146647811E0,-9.610756874E0,1.577631235E0
1.175055806E1,1.343166113E0,-9.614228249E0,1.390306473E0
1.177051626E1,1.529394269E0,-9.608549118E0,1.227648735E0
1.179038291E1,1.725228667E0,-9.589426994E0,1.112141728E0
1.181028008E1,1.940786839E0,-9.557929993E0,1.024564981E0
1.183017725E1,2.173979282E0,-9.526329041E0,8.326074481E-1
1.185004390E1,2.409393072E0,-9.488080025E0,5.844339132E-1
1.186994107E1,2.641482592E0,-9.437231064E0,3.628209233E-1
1.188983824E1,2.868387461E0,-9.375858307E0,1.897935271E-1
1.190973541E1,3.112681150E0,-9.299200058E0,8.070084453E-2
1.192960206E1,3.383258343E0,-9.204561234E0,-2.959580394E-3
1.194949923E1,3.683510065E0,-9.087937355E0,-1.074469611E-1
1.196939640E1,4.005866051E0,-8.948214531E0,-2.299802899E-1
1.198926305E1,4.336773872E0,-8.789834976E0,-3.187815845E-1
1.200916022E1,4.666491508E0,-8.618884087E0,-3.302667141E-1
1.202905739E1,4.984516144E0,-8.441084862E0,-2.703254521E-1
1.204895456E1,5.291413784E0,-8.254489899E0,-1.863866448E-1
1.206882121E1,5.575273514E0,-8.065753937E0,-1.742151380E-1
1.208871838E1,5.842357159E0,-7.871519089E0,-2.764896750E-1
1.210861555E1,6.095218658E0,-7.671597004E0,-4.065706432E-1
1.212848220E1,6.333007336E0,-7.471030235E0,-4.971027076E-1
1.214837937E1,6.549341202E0,-7.279253960E0,-5.375921130E-1
1.216827654E1,6.737411976E0,-7.106259346E0,-5.279753208E-1
1.218814319E1,6.898740292E0,-6.952528000E0,-4.900256097E-1
1.220804036E1,7.021590233E0,-6.830114841E0,-4.660478532E-1
1.222793753E1,7.113930702E0,-6.732337475E0,-4.878582060E-1
1.224786522E1,7.178077221E0,-6.662737370E0,-5.035295486E-1
1.226782342E1,7.222715378E0,-6.617440224E0,-4.607310593E-1
1.228784266E1,7.246410370E0,-6.597812176E0,-3.588773012E-1
1.230780086E1,7.254530430E0,-6.595204353E0,-2.132050246E-1
1.232772855E1,7.252442837E0,-6.600613117E0,-6.625848264E-2
1.234762572E1,7.242614269E0,-6.611590385E0,4.258081317E-2
1.236752289E1,7.227988720E0,-6.627111912E0,8.912599832E-2
1.238738954E1,7.200606823E0,-6.656538963E0,1.102693975E-1
1.240731722E1,7.151864529E0,-6.708533287E0,1.296939403E-1
1.242718388E1,7.073692322E0,-6.790845871E0,1.330077350E-1
1.244708105E1,6.966554642E0,-6.900650024E0,1.362793744E-1
1.246694770E1,6.836642742E0,-7.028520584E0,1.749137938E-1
1.248684487E1,6.712651253E0,-7.145305157E0,2.351643443E-1
1.250674204E1,6.615760326E0,-7.234922886E0,2.408145517E-1
1.252660869E1,6.547790527E0,-7.295263290E0,2.756262720E-1
1.254650586E1,6.437549114E0,-7.381752968E0,4.879289865E-1
1.256637251E1,6.293171883E0,-7.491683960E0,6.641026735E-1
1.258626968E1,6.156516075E0,-7.605271816E0,6.538780332E-1
1.260616685E1,5.998342514E0,-7.739666939E0,5.365080833E-1
1.262603350E1,5.799822807E0,-7.896944523E0,4.131456316E-1
1.264593067E1,5.571599483E0,-8.063335419E0,3.320842683E-1
1.266582784E1,5.317690372E0,-8.233050346E0,3.308337033E-1
1.268569449E1,5.110908508E0,-8.358343124E0,4.325552583E-1
1.270559166E1,4.922311306E0,-8.464580536E0,5.405068398E-1
1.272548883E1,4.713964462E0,-8.578497887E0,5.985918045E-1
1.274535548E1,4.480645180E0,-8.701236725E0,6.186287403E-1
1.276525265E1,4.233369827E0,-8.825038910E0,6.063674092E-1
1.278514982E1,3.988104343E0,-8.940474510E0,5.773530602E-1
1.280501647E1,3.759047508E0,-9.041369438E0,5.418364406E-1
1.282491364E1,3.539037466E0,-9.131189346E0,5.167256594E-1
1.284478029E1,3.318269968E0,-9.212460518E0,5.385675430E-1
1.286467746E1,3.129119396E0,-9.274172783E0,6.072317362E-1
1.288457463E1,2.919077158E0,-9.338735580E0,6.613621116E-1
1.290444128E1,2.710968256E0,-9.397751808E0,7.094479799E-1
1.292433845E1,2.518527508E0,-9.448703766E0,7.412117720E-1
1.294423562E1,2.356067896E0,-9.488684654E0,7.643293142E-1
1.296410227E1,2.228046894E0,-9.517300606E0,7.919713259E-1
1.298402996E1,2.121083498E0,-9.538321495E0,8.317490816E-1
1.300398816E1,2.018495321E0,-9.555704117E0,8.857676983E-1
1.302388533E1,1.927530766E0,-9.568043709E0,9.526628256E-1
1.304378250E1,1.854181170E0,-9.575978279E0,1.016389728E0
1.306364915E1,1.801090002E0,-9.581598282E0,1.058027506E0
1.308357684E1,1.768501401E0,-9.584802628E0,1.083677292E0
1.310347401E1,1.747785091E0,-9.584810257E0,1.116719842E0
1.312337118E1,1.733170033E0,-9.580511093E0,1.174876928E0
1.314326835E1,1.700900555E0,-9.575144768E0,1.262516975E0
1.316316552E1,1.639686465E0,-9.572745323E0,1.358074665E0
1.318303217E1,1.567790627E0,-9.574862480E0,1.426343203E0
1.320292934E1,1.498055100E0,-9.584512711E0,1.436440706E0
1.322282650E1,1.442405105E0,-9.597009659E0,1.409703732E0
1.324269316E1,1.403628826E0,-9.603529930E0,1.404439569E0
1.326259033E1,1.374897480E0,-9.605656624E0,1.418246984E0
1.328248750E1,1.346728563E0,-9.608236313E0,1.427761316E0
1.330235415E1,1.317221522E0,-9.612326622E0,1.427755117E0
1.332225132E1,1.287701130E0,-9.615141869E0,1.435709000E0
1.334214849E1,1.244018078E0,-9.617967606E0,1.455172777E0
1.336201514E1,1.171545863E0,-9.624444962E0,1.472386718E0
1.338191231E1,1.070655584E0,-9.634552956E0,1.483062744E0
1.340180948E1,9.567343593E-1,-9.642746925E0,1.507480264E0
1.342170664E1,8.327081203E-1,-9.647946358E0,1.547302842E0
1.344157330E1,6.924945116E-1,-9.652402878E0,1.588065863E0
1.346147047E1,5.666148067E-1,-9.653796196E0,1.628968954E0
1.348136764E1,4.845236540E-1,-9.652340889E0,1.663723826E0
1.350123429E1,4.940837920E-1,-9.654488564E0,1.648375750E0
1.352113146E1,5.992845893E-1,-9.669167519E0,1.522643566E0
1.354102863E1,7.849611640E-1,-9.690061569E0,1.287214518E0
1.356092580E1,1.025162220E0,-9.700510025E0,1.009715438E0
1.358082296E1,1.286755085E0,-9.692873001E0,7.502368093E-1
1.360068962E1,1.559953928E0,-9.667634010E0,5.232447386E-1
1.362058679E1,1.853753090E0,-9.624908447E0,3.084367216E-1
1.364048395E1,2.184749126E0,-9.559356689E0,1.263774335E-1
1.366035061E1,2.512942553E0,-9.479159355E0,3.287789598E-2
1.368024778E1,2.854772806E0,-9.381925583E0,1.202186197E-2
1.370011443E1,3.246817589E0,-9.253129959E0,9.036474675E-2
1.372001160E1,3.692777395E0,-9.083469391E0,1.561380774E-1
1.373990877E1,4.160241604E0,-8.876797676E0,2.554705441E-1
1.375983645E1,4.597616196E0,-8.653547287E0,3.852434754E-1
1.377976414E1,5.025446892E0,-8.416461945E0,2.800974846E-1
1.379972234E1,5.396102905E0,-8.188535690E0,1.872691326E-2
1.381971106E1,5.722096443E0,-7.961618423E0,-2.016328722E-1
1.383960823E1,6.072691917E0,-7.695881844E0,-2.573093176E-1
1.385947488E1,6.433682919E0,-7.397621632E0,-2.308762074E-1
1.387937205E1,6.767049789E0,-7.094095707E0,-2.263330221E-1
1.389923870E1,7.060209751E0,-6.799959660E0,-2.905279994E-1
1.391913587E1,7.302631855E0,-6.534388065E0,-3.791562021E-1
1.393903304E1,7.478964806E0,-6.330898285E0,-3.939695954E-1
1.395899125E1,7.588608742E0,-6.203827858E0,-3.097445071E-1
1.397897997E1,7.644342422E0,-6.140297413E0,-1.765774935E-1
1.399890765E1,7.666958809E0,-6.114512444E0,-2.959069051E-2
1.401883534E1,7.658186913E0,-6.124279499E0,1.255998760E-1
1.403873251E1,7.610677242E0,-6.179053307E0,2.594323754E-1
1.405862968E1,7.516384125E0,-6.289196014E0,3.469635844E-1
1.407849633E1,7.378976822E0,-6.446834087E0,3.992769718E-1
1.409839350E1,7.206672668E0,-6.638537884E0,4.050490558E-1
1.411829067E1,6.988269329E0,-6.872360706E0,3.242470026E-1
1.413815732E1,6.743001938E0,-7.116469383E0,2.412438840E-1
1.415805449E1,6.485558510E0,-7.346036911E0,3.790680170E-1
1.417792114E1,6.112142086E0,-7.625378132E0,8.159171939E-1
1.419784883E1,5.742823124E0,-7.872608662E0,1.101088285E0
1.421780703E1,5.567859650E0,-8.005125999E0,1.042735219E0
1.423770420E1,5.424170971E0,-8.121478081E0,8.890385032E-1
1.425760137E1,5.215310574E0,-8.266880035E0,7.934740186E-1
1.427752906E1,4.955717087E0,-8.428155899E0,7.599012852E-1
1.429742622E1,4.700218201E0,-8.574601173E0,7.446869016E-1
1.431732339E1,4.471647263E0,-8.696794510E0,7.352167368E-1
1.433722056E1,4.245766163E0,-8.807085991E0,7.609782219E-1
1.435708722E1,3.998202085E0,-8.916579247E0,8.242710233E-1
1.437698438E1,3.734031677E0,-9.025627136E0,8.749009967E-1
1.439688155E1,3.477792740E0,-9.126181602E0,8.877986073E-1
1.441674821E1,3.234823704E0,-9.215358734E0,8.851463199E-1
1.443664537E1,3.010292768E0,-9.291519165E0,8.810330629E-1
1.445654254E1,2.818035841E0,-9.351135254E0,8.862018585E-1
1.447640920E1,2.663365364E0,-9.395223618E0,8.981449604E-1
1.449630636E1,2.524473429E0,-9.431274414E0,9.211384058E-1
1.451623405E1,2.388066769E0,-9.463075638E0,9.579817057E-1
1.453610070E1,2.257865667E0,-9.489979744E0,1.006351352E0
1.455599787E1,2.148382187E0,-9.509171486E0,1.063257575E0
1.457589504E1,2.065791845E0,-9.521754265E0,1.113144994E0
1.459579221E1,1.999958038E0,-9.531962395E0,1.145542264E0
1.461568938E1,1.948791623E0,-9.541028976E0,1.158171654E0
1.463558655E1,1.915032029E0,-9.547613144E0,1.160236955E0
1.465548372E1,1.895484090E0,-9.549808502E0,1.174185991E0
1.467538089E1,1.872718692E0,-9.550107002E0,1.207787991E0
1.469527806E1,1.848258257E0,-9.547528267E0,1.264528036E0
1.471517523E1,1.818620682E0,-9.546159744E0,1.316756487E0
1.473510291E1,1.774725676E0,-9.552370071E0,1.331538439E0
1.475500008E1,1.705603957E0,-9.563845634E0,1.339468956E0
1.477492777E1,1.623575926E0,-9.576837540E0,1.348541141E0
1.479485545E1,1.546653748E0,-9.586923599E0,1.367173672E0
1.481478314E1,1.474493861E0,-9.593907356E0,1.397569180E0
1.483474134E1,1.398084879E0,-9.602637291E0,1.416019440E0
1.485466903E1,1.328354359E0,-9.610597610E0,1.429086447E0
1.487459672E1,1.265250206E0,-9.616151810E0,1.448843598E0
1.489449389E1,1.199912429E0,-9.621713638E0,1.467394590E0
1.491436054E1,1.129271150E0,-9.628590584E0,1.478301525E0
1.493425771E1,1.060689807E0,-9.634190559E0,1.492551208E0
1.495415488E1,9.928551912E-1,-9.638328552E0,1.512371540E0
1.497402153E1,9.333157539E-1,-9.642858505E0,1.521376014E0
1.499391870E1,9.171800613E-1,-9.648461342E0,1.495451689E0
1.501384638E1,9.029714465E-1,-9.660462379E0,1.424965024E0
1.503374355E1,9.307727814E-1,-9.671323776E0,1.330239415E0
1.505361020E1,1.017336369E0,-9.677978516E0,1.213321090E0
1.507350737E1,1.163520098E0,-9.679476738E0,1.060355425E0
1.509340454E1,1.346999407E0,-9.672154427E0,8.974667192E-1
1.511330171E1,1.574702263E0,-9.650961876E0,7.413681149E-1
1.513319888E1,1.861777306E0,-9.610507011E0,5.850880146E-1
1.515309605E1,2.199326277E0,-9.546507835E0,4.444771707E-1
1.517302374E1,2.554080486E0,-9.463191986E0,3.083373606E-1
1.519292091E1,2.926512957E0,-9.357150078E0,2.228194624E-1
1.521287911E1,3.344198465E0,-9.215841293E0,2.345626503E-1
1.523280680E1,3.775905848E0,-9.041242599E0,4.109511971E-1
1.525273448E1,4.163726330E0,-8.849017143E0,7.270913124E-1
1.527269268E1,4.511220932E0,-8.654629707E0,9.574129581E-1
1.529265089E1,4.876690388E0,-8.451931953E0,9.762766361E-1
1.531267013E1,5.238882065E0,-8.252841949E0,7.842866182E-1
1.533265885E1,5.565752029E0,-8.056859016E0,5.289702415E-1
1.535261705E1,5.871389389E0,-7.844958305E0,3.922080696E-1
1.537260577E1,6.180282116E0,-7.604650974E0,3.791740835E-1
1.539256397E1,6.460540295E0,-7.367702961E0,3.857263029E-1
1.541252218E1,6.704453468E0,-7.146483898E0,3.853225410E-1
1.543244986E1,6.922224522E0,-6.936514378E0,3.714604378E-1
1.545234703E1,7.109157562E0,-6.746154308E0,3.459771872E-1
1.547227472E1,7.245150089E0,-6.599785328E0,3.478877842E-1
1.549217189E1,7.328475952E0,-6.503678322E0,4.074141681E-1
1.551206906E1,7.376304150E0,-6.441108704E0,5.221591592E-1
1.553199674E1,7.394965649E0,-6.406574726E0,6.638320088E-1
1.555192443E1,7.384318829E0,-6.402506828E0,8.063228726E-1
1.557182160E1,7.341174126E0,-6.435438156E0,9.288186431E-1
1.559171877E1,7.258622646E0,-6.518193722E0,9.979729652E-1
1.561161594E1,7.137206554E0,-6.650549412E0,1.000440598E0
1.563151311E1,6.977724552E0,-6.825624943E0,9.447751641E-1
1.565137976E1,6.778875828E0,-7.039474487E0,8.142717481E-1
1.567127693E1,6.563317776E0,-7.251024723E0,7.182559967E-1
1.569117410E1,6.262888908E0,-7.490111351E0,9.191585183E-1
1.571104075E1,5.894778252E0,-7.744265556E0,1.203469634E0
1.573096844E1,5.679138660E0,-7.906202793E0,1.187321782E0
1.575086560E1,5.603163719E0,-7.984592438E0,1.010565281E0
1.577076277E1,5.464700699E0,-8.095417976E0,8.784393668E-1
1.579069046E1,5.237212658E0,-8.248820305E0,8.360352516E-1
1.581064866E1,4.972813606E0,-8.411699295E0,8.275647759E-1
1.583057635E1,4.724350452E0,-8.554868698E0,8.155542016E-1
1.585050404E1,4.496502399E0,-8.677026749E0,8.130525947E-1
1.587046224E1,4.247387409E0,-8.798429489E0,8.471791744E-1
1.589051199E1,3.977312803E0,-8.921197891E0,8.738511801E-1
1.591043968E1,3.716489792E0,-9.035236359E0,8.500488400E-1
1.593039788E1,3.494172335E0,-9.128425598E0,7.956145406E-1
1.595035609E1,3.283307791E0,-9.209628105E0,7.569962144E-1
1.597028377E1,3.089370966E0,-9.277959824E0,7.386845946E-1
1.599021146E1,2.940866947E0,-9.326930046E0,7.280700803E-1
1.601016966E1,2.815646887E0,-9.365963936E0,7.219765782E-1
1.603009735E1,2.696890831E0,-9.399703979E0,7.367187142E-1
1.604996400E1,2.574211121E0,-9.430213928E0,7.841489911E-1
1.606986117E1,2.456409931E0,-9.455037117E0,8.594995737E-1
1.608975834E1,2.361953020E0,-9.470509529E0,9.492261410E-1
1.610971654E1,2.299160242E0,-9.477981567E0,1.025724053E0
1.612961371E1,2.261933804E0,-9.482522964E0,1.065745831E0
1.614954140E1,2.231435537E0,-9.487820625E0,1.082760334E0
1.616949960E1,2.209141254E0,-9.490854263E0,1.101719737E0
1.618942729E1,2.200660706E0,-9.491084099E0,1.116614580E0
1.620938549E1,2.200217485E0,-9.489820480E0,1.128158450E0
1.622931318E1,2.198712826E0,-9.486099243E0,1.161875367E0
1.624917983E1,2.180202484E0,-9.483097076E0,1.219827056E0
1.626907700E1,2.139711857E0,-9.483536720E0,1.286304712E0
1.628900469E1,2.066666842E0,-9.491643906E0,1.344618678E0
1.630887134E1,1.967791557E0,-9.506306648E0,1.388639808E0
1.632876851E1,1.863179088E0,-9.522649765E0,1.420605183E0
1.634869619E1,1.772885323E0,-9.536445618E0,1.443435431E0
1.636862388E1,1.696149588E0,-9.547483444E0,1.462548375E0
1.638858208E1,1.634189725E0,-9.555078506E0,1.483345866E0
1.640847925E1,1.601605535E0,-9.558059692E0,1.499585986E0
1.642843745E1,1.579136491E0,-9.560707092E0,1.506517768E0
1.644839566E1,1.545120835E0,-9.565567970E0,1.510923743E0
1.646829283E1,1.497674227E0,-9.569353104E0,1.534559608E0
1.648822051E1,1.411380768E0,-9.575799942E0,1.575581074E0
1.650820923E1,1.283330679E0,-9.587189674E0,1.615325451E0
1.652816744E1,1.152358651E0,-9.599805832E0,1.638964534E0
1.654809512E1,1.051202774E0,-9.609363556E0,1.650917053E0
1.656799229E1,9.938082099E-1,-9.614714622E0,1.655293226E0
1.658791998E1,9.650561810E-1,-9.623685837E0,1.619794965E0
1.660781715E1,9.871487617E-1,-9.635590553E0,1.533404350E0
1.662771432E1,1.075194955E0,-9.646541595E0,1.399490118E0
1.664761149E1,1.229589701E0,-9.652783394E0,1.217494249E0
1.666750866E1,1.434196353E0,-9.648818970E0,1.006860852E0
1.668737531E1,1.681695819E0,-9.626931190E0,8.151584864E-1
1.670727248E1,1.958297133E0,-9.586953163E0,6.525433064E-1
1.672716965E1,2.255486488E0,-9.529947281E0,5.131087899E-1
1.674706682E1,2.581115723E0,-9.451862335E0,4.129618108E-1
1.676693347E1,2.921098232E0,-9.354542732E0,3.607230783E-1
1.678683064E1,3.284749985E0,-9.235069275E0,3.071419895E-1
1.680672781E1,3.631959915E0,-9.101643562E0,3.733244836E-1
1.682662498E1,3.960930347E0,-8.956804276E0,5.070607662E-1
1.684649163E1,4.292987347E0,-8.804548264E0,4.696776569E-1
1.686638880E1,4.614688873E0,-8.648953438E0,2.658151388E-1
1.688625545E1,4.928678036E0,-8.478035927E0,-3.788213432E-2
1.690615262E1,5.224878788E0,-8.292514801E0,-3.243798316E-1
1.692604979E1,5.516780376E0,-8.093603134E0,-4.786600173E-1
1.694597747E1,5.834050179E0,-7.871001244E0,-4.261338413E-1
1.696587464E1,6.174576759E0,-7.611843109E0,-3.237894773E-1
1.698577181E1,6.486640453E0,-7.349187851E0,-2.886426151E-1
1.700566898E1,6.751900196E0,-7.103874683E0,-3.423625231E-1
1.702556615E1,6.968177795E0,-6.887184620E0,-4.261375070E-1
1.704543280E1,7.149775982E0,-6.695259571E0,-4.739283025E-1
1.706532997E1,7.283501625E0,-6.547489166E0,-5.013725162E-1
1.708525766E1,7.369089127E0,-6.449521065E0,-5.201750994E-1
1.710515482E1,7.424781799E0,-6.386492252E0,-5.057030916E-1
1.712505200E1,7.470568180E0,-6.337193489E0,-4.483079910E-1
1.714494916E1,7.503174305E0,-6.305441380E0,-3.379395902E-1
1.716490737E1,7.502440929E0,-6.312194347E0,-1.999311894E-1
1.718480454E1,7.480803013E0,-6.340308666E0,-9.209186584E-2
1.720473222E1,7.438449383E0,-6.390579700E0,-1.936579496E-2
1.722462939E1,7.365733624E0,-6.474011421E0,5.949907005E-2
1.724449604E1,7.257214546E0,-6.594057560E0,1.470659971E-1
1.726439321E1,7.103313446E0,-6.758026123E0,2.059329152E-1
1.728429038E1,6.913934231E0,-6.952530384E0,1.738781631E-1
1.730415703E1,6.733882904E0,-7.129127979E0,2.730637975E-2
1.732405420E1,6.517145157E0,-7.327813148E0,-1.940466650E-2
1.734395137E1,6.323190212E0,-7.493727207E0,1.780690402E-1
1.736384854E1,6.203672886E0,-7.586081982E0,3.690542579E-1
1.738371519E1,6.149730206E0,-7.626964569E0,4.250128865E-1
1.740361236E1,6.037134647E0,-7.718019009E0,3.944564164E-1
1.742350953E1,5.846045494E0,-7.866278172E0,3.402898014E-1
1.744337618E1,5.572965145E0,-8.063720703E0,2.981003225E-1
1.746327335E1,5.273314476E0,-8.262526512E0,3.053123057E-1
1.748317052E1,5.020173550E0,-8.416264534E0,3.671056032E-1
1.750303718E1,4.817354202E0,-8.529575348E0,4.580800235E-1
1.752293434E1,4.594918251E0,-8.647089958E0,5.338180065E-1
1.754283151E1,4.372776985E0,-8.761322975E0,5.370696783E-1
1.756269816E1,4.163896084E0,-8.858987808E0,5.922139287E-1
1.758262585E1,3.971712112E0,-8.938039780E0,7.122641802E-1
1.760255354E1,3.813722372E0,-9.003956795E0,7.447682619E-1
1.762248122E1,3.659943581E0,-9.069914818E0,7.154448628E-1
1.764240891E1,3.502363443E0,-9.134103775E0,6.870154738E-1
1.766230608E1,3.335206509E0,-9.195786476E0,6.959227324E-1
1.768223377E1,3.170237303E0,-9.250121117E0,7.451570034E-1
1.770216145E1,3.002076387E0,-9.299165726E0,8.267121315E-1
1.772205862E1,2.820886850E0,-9.347489357E0,9.151324630E-1
1.774198631E1,2.649889946E0,-9.389583588E0,9.920590520E-1
1.776188348E1,2.498531342E0,-9.424421310E0,1.052633882E0
1.778184168E1,2.399237633E0,-9.444698334E0,1.100779533E0
1.780179988E1,2.344604492E0,-9.453067780E0,1.145746469E0
1.782172757E1,2.309165955E0,-9.459261894E0,1.166411996E0
1.784162474E1,2.257206202E0,-9.471261024E0,1.170734763E0
1.786149139E1,2.207021952E0,-9.483929634E0,1.163845301E0
1.788141908E1,2.182886600E0,-9.490825653E0,1.153096318E0
1.790134676E1,2.187004805E0,-9.490082741E0,1.151408792E0
1.792124393E1,2.196491480E0,-9.481987000E0,1.199061871E0
1.794114110E1,2.196848869E0,-9.470528603E0,1.285818100E0
1.796106879E1,2.187280416E0,-9.457421303E0,1.394046545E0
1.798096596E1,2.154229164E0,-9.447237015E0,1.509760618E0
1.800086313E1,2.078593969E0,-9.451429367E0,1.587545156E0
1.802076030E1,1.984074235E0,-9.468034744E0,1.609407425E0
1.804065747E1,1.889247894E0,-9.487483978E0,1.608982801E0
1.806055463E1,1.795162559E0,-9.498039246E0,1.653793335E0
1.808048232E1,1.705429435E0,-9.504554749E0,1.710362196E0
1.810034897E1,1.616043448E0,-9.513478279E0,1.747144461E0
1.812030718E1,1.537861347E0,-9.524194717E0,1.759291410E0
1.814020434E1,1.476464272E0,-9.532061577E0,1.769254208E0
1.816010151E1,1.410361886E0,-9.540103912E0,1.779797316E0
1.817999868E1,1.331070662E0,-9.553990364E0,1.766323805E0
1.819992637E1,1.249558449E0,-9.570618629E0,1.735581160E0
1.821985406E1,1.167455673E0,-9.584931374E0,1.713625550E0
1.823981226E1,1.068522692E0,-9.597783089E0,1.706232905E0
1.825973994E1,9.553484321E-1,-9.609411240E0,1.707894921E0
1.827966763E1,8.377212882E-1,-9.617681503E0,1.723034382E0
1.829956480E1,7.298892736E-1,-9.620645523E0,1.755234480E0
1.831946197E1,6.501736641E-1,-9.619955063E0,1.790006876E0
1.833932862E1,6.357920766E-1,-9.619686127E0,1.796608448E0
1.835922579E1,6.447483897E-1,-9.625713348E0,1.760776639E0
1.837915348E1,6.808859110E-1,-9.634996414E0,1.695187211E0
1.839902013E1,7.702882290E-1,-9.640825272E0,1.622203469E0
1.841891730E1,9.153598547E-1,-9.642173767E0,1.536551118E0
1.843881447E1,1.104682684E0,-9.639643669E0,1.423836589E0
1.845871164E1,1.320145011E0,-9.630390167E0,1.297375321E0
1.847860880E1,1.549284935E0,-9.610698700E0,1.185149074E0
1.849850597E1,1.772498369E0,-9.584305763E0,1.081536770E0
1.851840314E1,1.986299276E0,-9.555322647E0,9.595885873E-1
1.853836135E1,2.190791607E0,-9.523995399E0,8.150716424E-1
1.855825852E1,2.405577421E0,-9.483535767E0,6.679390073E-1
1.857818620E1,2.636225224E0,-9.430189133E0,5.406050086E-1
1.859811389E1,2.857629776E0,-9.371036530E0,4.336570799E-1
1.861804158E1,3.068116188E0,-9.308100700E0,3.410051167E-1
1.863793874E1,3.259132147E0,-9.246914864E0,2.074021101E-1
1.865783591E1,3.423089743E0,-9.189785004E0,2.643441781E-2
1.867773308E1,3.558390379E0,-9.136931419E0,-1.573018581E-1
1.869766077E1,3.670676470E0,-9.088865280E0,-2.984752953E-1
1.871758846E1,3.789899349E0,-9.036051750E0,-3.960030675E-1
1.873748562E1,3.930850744E0,-8.973306656E0,-4.456424117E-1
1.875738279E1,4.087629318E0,-8.902616501E0,-4.528481066E-1
1.877727996E1,4.231588840E0,-8.835433006E0,-4.463081956E-1
1.879717713E1,4.340786457E0,-8.782350540E0,-4.452814758E-1
1.881704378E1,4.414729118E0,-8.744012833E0,-4.720303714E-1
1.883694095E1,4.462281704E0,-8.716836929E0,-5.246069431E-1
1.885683812E1,4.475963593E0,-8.705552101E0,-5.911868811E-1
1.887676581E1,4.448399067E0,-8.715415955E0,-6.508835554E-1
1.889666298E1,4.382149220E0,-8.745840073E0,-6.909750104E-1
1.891659066E1,4.271005154E0,-8.799097061E0,-7.104945779E-1
1.893648783E1,4.115178108E0,-8.872241974E0,-7.204238176E-1
1.895641552E1,3.913269520E0,-8.962708473E0,-7.256640792E-1
1.897631269E1,3.661621809E0,-9.069588661E0,-7.109724283E-1
1.899627089E1,3.356815338E0,-9.190175056E0,-6.654872298E-1
1.901622910E1,3.042275190E0,-9.303864479E0,-5.942185521E-1
1.903612626E1,2.743326902E0,-9.401873589E0,-4.993266761E-1
1.905602343E1,2.487170696E0,-9.478855133E0,-3.683773875E-1
1.907595112E1,2.299745798E0,-9.531558037E0,-1.759954542E-1
1.909587881E1,2.153173447E0,-9.567166328E0,5.989069864E-2
1.911577598E1,2.108662128E0,-9.573651314E0,2.629308105E-1
1.913567314E1,2.150846481E0,-9.559480667E0,4.007663429E-1
1.915557031E1,2.239094734E0,-9.536131859E0,4.680214226E-1
1.917549800E1,2.350720882E0,-9.507491112E0,5.021423101E-1
1.919539517E1,2.469729424E0,-9.473471642E0,5.693769455E-1
1.921529234E1,2.572763681E0,-9.446393967E0,5.629702806E-1
1.923531158E1,2.632888317E0,-9.434345245E0,4.810930789E-1
1.925526978E1,2.654917717E0,-9.428891182E0,4.667147398E-1
1.927519746E1,2.647516727E0,-9.425826073E0,5.611357689E-1
1.929515567E1,2.619547367E0,-9.424869537E0,6.929585934E-1
1.931517491E1,2.584854603E0,-9.423606873E0,8.273784518E-1
1.933516363E1,2.541790009E0,-9.422517776E0,9.622045755E-1
1.935509131E1,2.449136019E0,-9.432003975E0,1.099746108E0
1.937511055E1,2.343888044E0,-9.443949699E0,1.220008612E0
1.939509927E1,2.238508463E0,-9.454568863E0,1.330634236E0
1.941502696E1,2.143551588E0,-9.465798378E0,1.405079842E0
1.943501568E1,2.086498022E0,-9.474239349E0,1.433779597E0
1.945503492E1,2.055046797E0,-9.479172707E0,1.446532369E0
1.947493209E1,2.036884546E0,-9.478359222E0,1.477221251E0
1.949492081E1,2.037826061E0,-9.468767166E0,1.536264181E0
1.951490953E1,2.060189724E0,-9.448700905E0,1.627290010E0
1.953489825E1,2.090183020E0,-9.424321175E0,1.727331519E0
1.955491748E1,2.113576174E0,-9.405663490E0,1.799082160E0
1.957493672E1,2.120056152E0,-9.395294189E0,1.845052123E0
1.959492544E1,2.115068913E0,-9.389435768E0,1.880263209E0
1.961485313E1,2.108631849E0,-9.386010170E0,1.904441357E0
1.963471978E1,2.105038643E0,-9.388636589E0,1.895442605E0
1.965464747E1,2.108935833E0,-9.396120071E0,1.853566885E0
1.967454464E1,2.123097181E0,-9.403118134E0,1.801173806E0
1.969450284E1,2.137525320E0,-9.407370567E0,1.761464357E0
1.971440001E1,2.142001152E0,-9.411793709E0,1.732156992E0
1.973429718E1,2.132873058E0,-9.418547630E0,1.706521034E0
1.975425538E1,2.106385946E0,-9.429283142E0,1.679924726E0
1.977418307E1,2.064877987E0,-9.444758415E0,1.644142032E0
1.979408024E1,2.015825272E0,-9.459688187E0,1.619001150E0
1.981400792E1,1.963904262E0,-9.472058296E0,1.610465407E0
1.983387458E1,1.916516900E0,-9.483597755E0,1.599606752E0
1.985383278E1,1.862694383E0,-9.491994858E0,1.613313794E0
1.987372995E1,1.797766089E0,-9.493258476E0,1.678237796E0
1.989362712E1,1.733460665E0,-9.485212326E0,1.787808180E0
1.991352429E1,1.676817536E0,-9.473059654E0,1.902585506E0
1.993342146E1,1.620315790E0,-9.459567070E0,2.015336752E0
1.995328811E1,1.561655521E0,-9.448191643E0,2.112647533E0
1.997318528E1,1.508416295E0,-9.445552826E0,2.162542820E0
1.999311296E1,1.457346678E0,-9.467440605E0,2.100973845E0
2.001304065E1,1.413403034E0,-9.503043175E0,1.965929508E0
2.003293782E1,1.369331956E0,-9.533675194E0,1.845087171E0
2.005280447E1,1.327402472E0,-9.554058075E0,1.768729925E0
2.007270164E1,1.286900043E0,-9.565876007E0,1.734444857E0
2.009259881E1,1.220739245E0,-9.578500748E0,1.712458611E0
2.011249598E1,1.168904662E0,-9.591215134E0,1.677092671E0
2.013245418E1,1.178154707E0,-9.592362404E0,1.664006472E0
2.015235135E1,1.266748786E0,-9.574875832E0,1.699265361E0
2.017224852E1,1.422114015E0,-9.544362068E0,1.747321844E0
2.019214569E1,1.704717636E0,-9.540179253E0,1.499766827E0
2.021204286E1,2.169115543E0,-9.502771378E0,1.078276277E0
2.023194003E1,2.723447323E0,-9.374896049E0,9.298223853E-1
2.025180668E1,3.370308638E0,-9.174068451E0,8.049123883E-1
2.027170385E1,4.120284557E0,-8.882481575E0,5.432955623E-1
2.029160102E1,4.836767673E0,-8.528322220E0,2.092290223E-1
2.031146767E1,5.395622730E0,-8.188802719E0,3.429331630E-2
2.033136484E1,5.779451370E0,-7.921754837E0,1.189431921E-1
2.035126201E1,6.086413383E0,-7.686201572E0,2.196943164E-1
2.037115918E1,6.402890682E0,-7.424818039E0,2.132458687E-1
2.039105635E1,6.712282181E0,-7.149506092E0,1.494388655E-2
2.041095352E1,7.006911755E0,-6.849624634E0,-3.952262402E-1
2.043085068E1,7.225823402E0,-6.589191437E0,-7.351496816E-1
2.045074785E1,7.401982784E0,-6.375979900E0,-8.531926870E-1
2.047064502E1,7.600062847E0,-6.151325703E0,-7.553922534E-1
2.049054219E1,7.822418213E0,-5.883848667E0,-6.004267335E-1
2.051043936E1,8.021217346E0,-5.615602970E0,-5.435785055E-1
2.053033653E1,8.163621902E0,-5.393525124E0,-6.599678993E-1
2.055032525E1,8.247129440E0,-5.244661808E0,-8.054857850E-1
2.057019190E1,8.294654846E0,-5.155921936E0,-8.863310218E-1
2.059008907E1,8.324807167E0,-5.107202053E0,-8.857172728E-1
2.060998624E1,8.344891548E0,-5.079972744E0,-8.526812792E-1
2.062985289E1,8.354916573E0,-5.070129871E0,-8.121370673E-1
2.064975006E1,8.358880997E0,-5.071469307E0,-7.613853812E-1
2.066964723E1,8.345879555E0,-5.098274708E0,-7.240729928E-1
2.068951388E1,8.294501305E0,-5.183121204E0,-7.119804025E-1
2.070941105E1,8.216180801E0,-5.310648441E0,-6.795598865E-1
2.072930822E1,8.131179810E0,-5.452868462E0,-5.661398768E-1
2.074917487E1,8.037474632E0,-5.604632854E0,-3.968599737E-1
2.076907204E1,7.920266628E0,-5.777425766E0,-2.472808212E-1
2.078896921E1,7.781412125E0,-5.965075016E0,-1.946411133E-1
2.080883586E1,7.643398285E0,-6.140148640E0,-2.177946121E-1
2.082873303E1,7.519982815E0,-6.291579247E0,-1.904465854E-1
2.084869124E1,7.415436745E0,-6.417268276E0,-1.901742071E-2
2.086858841E1,7.328710079E0,-6.512359142E0,2.227040082E-1
2.088848558E1,7.233681202E0,-6.607826710E0,4.252940416E-1
2.090841326E1,7.111016273E0,-6.744945049E0,3.310334682E-1
2.092827991E1,6.924319267E0,-6.943696022E0,9.632921219E-2
2.094817708E1,6.656030178E0,-7.201920986E0,1.857026131E-3
2.096807425E1,6.370070934E0,-7.454850197E0,1.334369928E-1
2.098797142E1,6.118701458E0,-7.656038761E0,3.419610858E-1
2.100786859E1,5.915934086E0,-7.803509235E0,5.266308784E-1
2.102776576E1,5.712866783E0,-7.941681385E0,6.806196570E-1
2.104766293E1,5.471517563E0,-8.100645065E0,7.825847864E-1
2.106756010E1,5.211068153E0,-8.268694878E0,8.024100065E-1
2.108745727E1,4.968255043E0,-8.420079231E0,7.675520778E-1
2.110735444E1,4.749871254E0,-8.548077583E0,7.345067263E-1
2.112728212E1,4.552624226E0,-8.655528069E0,7.251473665E-1
2.114717929E1,4.359854221E0,-8.753397942E0,7.349176407E-1
2.116707646E1,4.168976784E0,-8.842988968E0,7.691507339E-1
2.118697363E1,3.978542566E0,-8.924663544E0,8.318477273E-1
2.120687080E1,3.792269945E0,-8.997879982E0,9.095324278E-1
2.122676797E1,3.623193264E0,-9.060389519E0,9.758183956E-1
2.124666514E1,3.454473495E0,-9.119549751E0,1.034797192E0
2.126656231E1,3.279639482E0,-9.177305222E0,1.091534972E0
2.128645948E1,3.104115009E0,-9.231874466E0,1.143407226E0
2.130632613E1,2.918313026E0,-9.286222458E0,1.191608071E0
2.132622330E1,2.723742247E0,-9.338304520E0,1.244057775E0
2.134612047E1,2.539017677E0,-9.381123543E0,1.310835958E0
2.136601763E1,2.381497622E0,-9.413497925E0,1.372916222E0
2.138588429E1,2.263228655E0,-9.435648918E0,1.420115232E0
2.140578146E1,2.176193476E0,-9.448397636E0,1.470492840E0
2.142567862E1,2.120551825E0,-9.453003883E0,1.521309972E0
2.144554528E1,2.060186625E0,-9.459263802E0,1.564715981E0
2.146547296E1,1.984479904E0,-9.469522476E0,1.600118756E0
2.148537013E1,1.899443984E0,-9.480663300E0,1.636926651E0
2.150523678E1,1.796299815E0,-9.492727280E0,1.682806969E0
2.152513395E1,1.674963593E0,-9.505411148E0,1.735527992E0
2.154503112E1,1.556217313E0,-9.519452095E0,1.768791914E0
2.156489778E1,1.491656661E0,-9.539858818E0,1.713596702E0
2.158479494E1,1.410855889E0,-9.561752319E0,1.659148455E0
2.160469211E1,1.340417743E0,-9.581052780E0,1.605329156E0
2.162455876E1,1.250490546E0,-9.595006943E0,1.594529033E0
2.164445593E1,1.151834249E0,-9.605606079E0,1.604990125E0
2.166432259E1,1.067411184E0,-9.612620354E0,1.621284842E0
2.168421976E1,1.005753756E0,-9.612385750E0,1.661587119E0
2.170411692E1,9.667156339E-1,-9.606305122E0,1.718941569E0
2.172398358E1,9.532278180E-1,-9.597065926E0,1.777104378E0
2.174388075E1,9.984332323E-1,-9.583377838E0,1.825479984E0
2.176377791E1,1.093729615E0,-9.578671455E0,1.795333862E0
2.178364457E1,1.211545229E0,-9.590289116E0,1.651944280E0
2.180354174E1,1.376098990E0,-9.599231720E0,1.459959745E0
2.182343890E1,1.592697620E0,-9.590819359E0,1.284488082E0
2.184333607E1,1.854448318E0,-9.563508034E0,1.127266884E0
2.186320273E1,2.149587870E0,-9.517760277E0,9.807581902E-1
2.188309990E1,2.481038809E0,-9.449664116E0,8.477502465E-1
2.190299706E1,2.844146967E0,-9.358889580E0,7.016998529E-1
2.192286372E1,3.231349468E0,-9.243492126E0,5.353642106E-1
2.194276089E1,3.643314123E0,-9.094134331E0,4.397311509E-1
2.196265806E1,4.062145233E0,-8.909496307E0,5.387637615E-1
2.198255522E1,4.439992428E0,-8.716534615E0,6.920248270E-1
2.200242188E1,4.794076443E0,-8.526058197E0,7.025327682E-1
2.202231904E1,5.153205872E0,-8.326204300E0,5.377531052E-1
2.204221621E1,5.502062321E0,-8.112502098E0,2.915858328E-1
2.206208287E1,5.825187206E0,-7.888805389E0,6.603051722E-2
2.208198004E1,6.125203133E0,-7.657799721E0,-1.019324362E-1
2.210187720E1,6.418818474E0,-7.411639690E0,-1.917769611E-1
2.212174386E1,6.699833393E0,-7.157493591E0,-2.300532013E-1
2.214164103E1,6.942636013E0,-6.922403812E0,-2.247849107E-1
2.216150768E1,7.138539314E0,-6.720900536E0,-2.028478086E-1
2.218140485E1,7.289262772E0,-6.556614876E0,-2.187608331E-1
2.220130202E1,7.391268253E0,-6.439333916E0,-2.729956806E-1
2.222119918E1,7.449720860E0,-6.369828701E0,-3.120306432E-1
2.224112687E1,7.480738163E0,-6.334811687E0,-2.812555730E-1
2.226102404E1,7.492370605E0,-6.325555801E0,-1.487538069E-1
2.228092121E1,7.479219437E0,-6.342455387E0,7.037585229E-2
2.230078786E1,7.441029072E0,-6.381706238E0,2.744300961E-1
2.232068503E1,7.375712395E0,-6.450072765E0,4.072165191E-1
2.234055168E1,7.280208111E0,-6.550524235E0,5.095224977E-1
2.236044885E1,7.142233849E0,-6.696412086E0,5.629980564E-1
2.238034602E1,6.959402561E0,-6.891398430E0,4.957102239E-1
2.240021267E1,6.739745617E0,-7.112567902E0,3.970107734E-1
2.242010984E1,6.461318970E0,-7.353009701E0,5.958066583E-1
2.244000701E1,6.137330532E0,-7.606351852E0,8.043500781E-1
2.245987366E1,5.867445469E0,-7.808915615E0,8.742507100E-1
2.247977083E1,5.670521736E0,-7.955047131E0,8.560323119E-1
2.249966800E1,5.454894066E0,-8.109736443E0,8.041659594E-1
2.251953465E1,5.221859932E0,-8.266753197E0,7.505968213E-1
2.253943182E1,4.984377384E0,-8.412630081E0,7.443459630E-1
2.255932899E1,4.765830517E0,-8.541559219E0,7.064163685E-1
2.257922616E1,4.558658600E0,-8.660492897E0,6.204232574E-1
2.259909281E1,4.325861454E0,-8.785072327E0,5.290139318E-1
2.261898998E1,4.058944702E0,-8.917104721E0,4.249953628E-1
2.263888715E1,3.784029245E0,-9.042076111E0,3.039373457E-1
2.265875380E1,3.531459093E0,-9.145585060E0,2.397626936E-1
2.267865097E1,3.296817780E0,-9.232724190E0,2.412351072E-1
2.269854814E1,3.055998087E0,-9.314307213E0,2.737888992E-1
2.271841479E1,2.807142735E0,-9.389812469E0,3.489812016E-1
2.273831196E1,2.569759130E0,-9.451307297E0,4.893938899E-1
2.275820913E1,2.363307953E0,-9.493752480E0,6.736965775E-1
2.277810630E1,2.189931870E0,-9.524145126E0,8.156225681E-1
2.279797295E1,2.051733732E0,-9.545574188E0,9.180430770E-1
2.281787012E1,1.968069792E0,-9.550354004E0,1.042987585E0
2.283776729E1,1.884970546E0,-9.548379898E0,1.202375531E0
2.285763394E1,1.793401480E0,-9.548695564E0,1.332867146E0
2.287753111E1,1.717730761E0,-9.553141594E0,1.399023414E0
2.289742828E1,1.672762275E0,-9.553751945E0,1.448474526E0
2.291729493E1,1.622361302E0,-9.554136276E0,1.502265096E0
2.293719210E1,1.539770126E0,-9.560042381E0,1.550836563E0
2.295708927E1,1.423558712E0,-9.574327469E0,1.573579073E0
2.297695592E1,1.295999050E0,-9.591605186E0,1.578575611E0
2.299685309E1,1.173718214E0,-9.606437683E0,1.584020495E0
2.301671975E1,1.073728442E0,-9.616863251E0,1.591682315E0
2.303661691E1,1.001612425E0,-9.622409821E0,1.605121732E0
2.305651408E1,9.508338571E-1,-9.625642776E0,1.616585374E0
2.307641125E1,9.071353078E-1,-9.627939224E0,1.627967715E0
2.309627790E1,8.456444740E-1,-9.630932808E0,1.643298030E0
2.311617508E1,7.552397251E-1,-9.634181976E0,1.668091655E0
2.313607224E1,6.593573689E-1,-9.636333466E0,1.696090221E0
2.315596941E1,6.057683825E-1,-9.637246132E0,1.710824847E0
2.317583607E1,5.969017744E-1,-9.638759613E0,1.705412149E0
2.319573323E1,6.510913372E-1,-9.646048546E0,1.643241882E0
2.321566092E1,8.009378910E-1,-9.662367821E0,1.472255230E0
2.323555809E1,1.032309532E0,-9.675169945E0,1.223024368E0
2.325545526E1,1.314213872E0,-9.669929504E0,9.673369527E-1
2.327535243E1,1.626790524E0,-9.642379761E0,7.405746579E-1
2.329524960E1,1.963300347E0,-9.592030525E0,5.557020307E-1
2.331514677E1,2.317560673E0,-9.520539284E0,3.982774317E-1
2.333504394E1,2.689341307E0,-9.426867485E0,2.683504820E-1
2.335494110E1,3.084304571E0,-9.307170868E0,1.845037490E-1
2.337483827E1,3.514880419E0,-9.153442383E0,1.746621579E-1
2.339470493E1,3.956971884E0,-8.969006538E0,2.639911473E-1
2.341460209E1,4.376591206E0,-8.765658379E0,4.231891930E-1
2.343449926E1,4.763006687E0,-8.556038857E0,5.276169181E-1
2.345436592E1,5.133633614E0,-8.345220566E0,4.165402353E-1
2.347426308E1,5.487899780E0,-8.124662399E0,2.078834623E-1
2.349416025E1,5.815137386E0,-7.895327091E0,1.355745941E-1
2.351402691E1,6.163271427E0,-7.626375198E0,1.512058824E-1
2.353392408E1,6.500487328E0,-7.341331005E0,1.375824213E-1
2.355382124E1,6.798934460E0,-7.065733433E0,1.425473541E-1
2.357368790E1,7.056930542E0,-6.806166649E0,2.150619775E-1
2.359358507E1,7.274847984E0,-6.571722984E0,2.437848002E-1
2.361348224E1,7.440478802E0,-6.385694981E0,1.804910153E-1
2.363334889E1,7.539131165E0,-6.270256042E0,1.255880445E-1
2.365324606E1,7.584340096E0,-6.215409756E0,1.298632324E-1
2.367311271E1,7.583269596E0,-6.215008736E0,1.951590031E-1
2.369300988E1,7.539517879E0,-6.263523102E0,3.071943223E-1
2.371290705E1,7.465919971E0,-6.344369888E0,4.235685468E-1
2.373280422E1,7.373581886E0,-6.445943832E0,5.005185008E-1
2.375270138E1,7.250951290E0,-6.578743935E0,5.605880618E-1
2.377259855E1,7.076928616E0,-6.764726162E0,5.709235668E-1
2.379249572E1,6.850885868E0,-6.996101856E0,5.388122797E-1
2.381236237E1,6.573832989E0,-7.262727261E0,4.559563100E-1
2.383229006E1,6.227412224E0,-7.557942867E0,5.169552565E-1
2.385215671E1,5.850081444E0,-7.844445705E0,6.415595412E-1
2.387208440E1,5.574456692E0,-8.031620979E0,7.673948407E-1
2.389198157E1,5.352236271E0,-8.169544220E0,8.845938444E-1
2.391187874E1,5.121953964E0,-8.309705734E0,9.406248927E-1
2.393177591E1,4.822239399E0,-8.489384651E0,9.201882482E-1
2.395167308E1,4.506233215E0,-8.669718742E0,8.367980719E-1
2.397153973E1,4.260129452E0,-8.803760529E0,7.179729342E-1
2.399143690E1,4.070696831E0,-8.902765274E0,5.836006999E-1
2.401133407E1,3.862896442E0,-9.002143860E0,4.580851495E-1
2.403120072E1,3.637418747E0,-9.099785805E0,3.653799593E-1
2.405109789E1,3.419799328E0,-9.185482025E0,3.198129833E-1
2.407099506E1,3.196606874E0,-9.264968872E0,3.353507221E-1
2.409086171E1,2.957981825E0,-9.340229034E0,4.252817631E-1
2.411075888E1,2.722850561E0,-9.403732300E0,5.712515116E-1
2.413065605E1,2.511029482E0,-9.449843407E0,7.520710230E-1
2.415052270E1,2.321741819E0,-9.480917931E0,9.445114136E-1
2.417041987E1,2.131698847E0,-9.510284424E0,1.086626172E0
2.419031704E1,1.926006079E0,-9.543026924E0,1.179637074E0
2.421018369E1,1.736517787E0,-9.568858147E0,1.261687040E0
2.423008086E1,1.545619965E0,-9.591497421E0,1.335911989E0
2.424997803E1,1.384658694E0,-9.607011795E0,1.399448276E0
2.426984468E1,1.271216512E0,-9.615191460E0,1.450007677E0
2.428974185E1,1.181327581E0,-9.618513107E0,1.503020883E0
2.430960850E1,1.100207329E0,-9.617130280E0,1.571855903E0
2.432950567E1,1.023394704E0,-9.617425919E0,1.621167421E0
2.434940284E1,9.433546066E-1,-9.625624657E0,1.621063352E0
2.436926949E1,8.462155461E-1,-9.639399529E0,1.592571378E0
2.438916666E1,7.423428297E-1,-9.651671410E0,1.569889069E0
2.440906383E1,6.509177685E-1,-9.656003952E0,1.583756208E0
2.442893048E1,5.740782619E-1,-9.652732849E0,1.632653832E0
2.444882765E1,4.855103195E-1,-9.648495674E0,1.685591698E0
2.446872482E1,3.859174252E-1,-9.646099091E0,1.724589229E0
2.448859147E1,3.048305213E-1,-9.644928932E0,1.747228265E0
2.450848864E1,2.982420623E-1,-9.647171974E0,1.735958099E0
2.452835529E1,4.410445690E-1,-9.662005424E0,1.619108677E0
2.454825246E1,6.855866313E-1,-9.685501099E0,1.375299335E0
2.456814963E1,9.878385067E-1,-9.698048592E0,1.068844438E0
2.458801628E1,1.316508412E0,-9.687452316E0,7.684259415E-1
2.460791345E1,1.663269043E0,-9.651133537E0,5.094739795E-1
2.462781062E1,2.028138638E0,-9.589668274E0,3.087608218E-1
2.464770779E1,2.400663853E0,-9.506757736E0,1.696224064E-1
2.466760496E1,2.818700790E0,-9.392463684E0,8.343523741E-2
2.468750213E1,3.304825783E0,-9.232914925E0,4.250000417E-2
2.470739930E1,3.813446999E0,-9.034250259E0,1.018131971E-1
2.472729647E1,4.281033993E0,-8.817243576E0,3.152192235E-1
2.474716312E1,4.684481144E0,-8.594219208E0,6.044949889E-1
2.476706029E1,5.081300259E0,-8.353489876E0,7.549731731E-1
2.478695746E1,5.491580963E0,-8.104771614E0,5.706453323E-1
2.480682411E1,5.870277405E0,-7.851595879E0,2.503705919E-1
2.482671912E1,6.216650963E0,-7.584060669E0,7.524374872E-2
2.484661627E1,6.533385277E0,-7.312684536E0,9.962006658E-2
2.486651343E1,6.805375099E0,-7.058263302E0,1.954641193E-1
2.488641058E1,7.048334122E0,-6.812490940E0,2.852139473E-1
2.490627722E1,7.262394905E0,-6.579560757E0,3.706657887E-1
2.492617437E1,7.418867588E0,-6.399455547E0,4.216249883E-1
2.494607152E1,7.499849319E0,-6.304415703E0,4.207359552E-1
2.496593816E1,7.524861813E0,-6.275161743E0,4.113409221E-1
2.498583532E1,7.508656025E0,-6.290444851E0,4.699082673E-1
2.500573247E1,7.453875065E0,-6.341472149E0,6.291811466E-1
2.502559911E1,7.361173630E0,-6.423096657E0,8.528484106E-1
2.504549626E1,7.237582684E0,-6.531999588E0,1.058663249E0
2.506539342E1,7.089283943E0,-6.672926903E0,1.176651955E0
2.508526005E1,6.913085461E0,-6.866428375E0,1.109876156E0
2.510515721E1,6.670370579E0,-7.119373798E0,9.955273271E-1
2.512505436E1,6.295387268E0,-7.407898903E0,1.289006352E0
2.514492100E1,5.809390545E0,-7.692024231E0,1.803925157E0
2.516481815E1,5.537955761E0,-7.877989769E0,1.854376435E0
2.518468479E1,5.478662014E0,-7.968798637E0,1.628781915E0
2.520458194E1,5.377799034E0,-8.079167366E0,1.405960441E0
2.522447910E1,5.132375717E0,-8.254878044E0,1.298502564E0
2.524434573E1,4.819934368E0,-8.442652702E0,1.288509607E0
2.526424289E1,4.543957710E0,-8.590226173E0,1.315615058E0
2.528414004E1,4.308672905E0,-8.711724281E0,1.308279276E0
2.530400668E1,4.085671425E0,-8.824762344E0,1.265410423E0
2.532390383E1,3.838956356E0,-8.942501068E0,1.210160851E0
2.534380099E1,3.574339628E0,-9.056705475E0,1.170716166E0
2.536366763E1,3.322201490E0,-9.155270576E0,1.146474838E0
2.538356478E1,3.086061954E0,-9.240261078E0,1.124369979E0
2.540346193E1,2.877214909E0,-9.311278343E0,1.091844797E0
2.542332857E1,2.696518421E0,-9.368188858E0,1.065932393E0
2.544322572E1,2.546488285E0,-9.410319328E0,1.063802361E0
2.546309236E1,2.428658724E0,-9.438637733E0,1.088189244E0
2.548298952E1,2.324355125E0,-9.458569527E0,1.141594648E0
2.550288667E1,2.201431036E0,-9.473887444E0,1.252809286E0
2.552275331E1,2.073679209E0,-9.483729362E0,1.388929248E0
2.554265046E1,1.944674492E0,-9.488329887E0,1.536311150E0
2.556254762E1,1.795452237E0,-9.496569633E0,1.661896825E0
2.558244477E1,1.643520117E0,-9.512093544E0,1.728961945E0
2.560234192E1,1.533141375E0,-9.523348808E0,1.767960191E0
2.562226960E1,1.422645330E0,-9.532160759E0,1.812289119E0
2.564216675E1,1.282446265E0,-9.544246674E0,1.852855563E0
2.566206390E1,1.154991269E0,-9.561618805E0,1.847118974E0
2.568193054E1,1.076113820E0,-9.571829796E0,1.841853023E0
2.570182769E1,1.025957227E0,-9.570363998E0,1.877746820E0
2.572172485E1,9.643380642E-1,-9.566450119E0,1.929625988E0
2.574159148E1,8.820990920E-1,-9.564677238E0,1.977176309E0
2.576148864E1,7.912062407E-1,-9.566551208E0,2.006361961E0
2.578138579E1,6.982438564E-1,-9.570362091E0,2.022625923E0
2.580125243E1,6.053700447E-1,-9.574243546E0,2.034152508E0
2.582114958E1,5.244953036E-1,-9.577966690E0,2.039076567E0
2.584104674E1,4.736620486E-1,-9.583094597E0,2.027398825E0
2.586091338E1,5.102148652E-1,-9.593710899E0,1.967431188E0
2.588081053E1,6.366174221E-1,-9.611127853E0,1.841552019E0
2.590070768E1,8.587722778E-1,-9.627843857E0,1.654550552E0
2.592057432E1,1.163670301E0,-9.632460594E0,1.425472975E0
2.594047148E1,1.511594415E0,-9.611837387E0,1.223952055E0
2.596036863E1,1.876630664E0,-9.564703941E0,1.079400301E0
2.598023527E1,2.287973881E0,-9.487219810E0,9.634522200E-1
2.600013242E1,2.736845732E0,-9.379909515E0,8.350953460E-1
2.602002957E1,3.239611387E0,-9.231618881E0,6.727116704E-1
2.603989621E1,3.770367384E0,-9.027929306E0,6.717430949E-1
2.605979336E1,4.263586998E0,-8.765864372E0,1.073237181E0
2.607969052E1,4.666434288E0,-8.523154259E0,1.323115587E0
2.609955716E1,5.117731094E0,-8.300465584E0,1.039953351E0
2.611945431E1,5.518244267E0,-8.089978218E0,5.211994648E-1
2.613932095E1,5.859555721E0,-7.856527328E0,3.331780732E-1
2.615921810E1,6.217693806E0,-7.571753025E0,4.233767986E-1
2.617911526E1,6.578210831E0,-7.250719070E0,5.697597861E-1
2.619898189E1,6.903327465E0,-6.925552845E0,7.424153090E-1
2.621887905E1,7.209456444E0,-6.599713802E0,7.986801863E-1
2.623877620E1,7.483407021E0,-6.310972691E0,5.836363435E-1
2.625864284E1,7.671970367E0,-6.105277061E0,1.920183599E-1
2.627853999E1,7.755239964E0,-6.000455379E0,-1.455336809E-1
2.629843715E1,7.765750885E0,-5.981853485E0,-2.845283151E-1
2.631830378E1,7.743276596E0,-6.013890743E0,-2.125824243E-1
2.633820094E1,7.684815407E0,-6.092125893E0,-5.959200673E-3
2.635809809E1,7.590690136E0,-6.204674244E0,2.320277244E-1
2.637796473E1,7.437882900E0,-6.375473499E0,4.490285516E-1
2.639786188E1,7.225896358E0,-6.598267555E0,6.478261948E-1
2.641775904E1,6.974013805E0,-6.853665352E0,7.488579154E-1
2.643762567E1,6.622797966E0,-7.175187111E0,9.086445570E-1
2.645752283E1,6.192347050E0,-7.482050896E0,1.357991099E0
2.647741998E1,5.761895180E0,-7.774761677E0,1.588724136E0
2.649728662E1,5.435591221E0,-7.963031769E0,1.793002248E0
2.651718377E1,5.333075047E0,-8.067924500E0,1.623980641E0
2.653705041E1,5.261969566E0,-8.166730881E0,1.336636186E0
2.655694756E1,5.140647411E0,-8.264827728E0,1.198656797E0
2.657684472E1,4.981681347E0,-8.360753059E0,1.204597950E0
2.659674187E1,4.773409367E0,-8.466710091E0,1.303757429E0
2.661660851E1,4.575282097E0,-8.551737785E0,1.450854659E0
2.663650566E1,4.363672733E0,-8.630200386E0,1.627389669E0
2.665646385E1,4.104490757E0,-8.710796356E0,1.856224656E0
2.667645256E1,3.836575031E0,-8.781221390E0,2.083567381E0
2.669638023E1,3.629045963E0,-8.834725380E0,2.224423885E0
2.671630790E1,3.467472553E0,-8.892233849E0,2.252820253E0
2.673632712E1,3.296813011E0,-8.959168434E0,2.243821144E0
2.675634634E1,3.075943947E0,-9.030468941E0,2.271469593E0
2.677630453E1,2.827655554E0,-9.092451096E0,2.345653057E0
2.679629324E1,2.580634356E0,-9.142908096E0,2.432690144E0
2.681615988E1,2.342808485E0,-9.188578606E0,2.500328302E0
2.683605703E1,2.132370472E0,-9.230161667E0,2.535254955E0
2.685595418E1,1.957989335E0,-9.263053894E0,2.555874586E0
2.687585134E1,1.824343681E0,-9.281930923E0,2.586100578E0
2.689574849E1,1.734200239E0,-9.288667679E0,2.623662233E0
2.691564565E1,1.689293981E0,-9.292128563E0,2.640651703E0
2.693557332E1,1.681082368E0,-9.294883728E0,2.636187553E0
2.695547047E1,1.685278893E0,-9.296617508E0,2.627382040E0
2.697536763E1,1.690914035E0,-9.300760269E0,2.609032393E0
2.699526478E1,1.667406917E0,-9.311597824E0,2.585405350E0
2.701522297E1,1.602704048E0,-9.329918861E0,2.560146809E0
2.703515064E1,1.515071988E0,-9.352316856E0,2.531628370E0
2.705513934E1,1.433097482E0,-9.372781754E0,2.503519058E0
2.707515857E1,1.346685290E0,-9.386780739E0,2.499039173E0
2.709517779E1,1.233819962E0,-9.394958496E0,2.526432514E0
2.711522753E1,1.092597723E0,-9.398657799E0,2.577179909E0
2.713521624E1,9.223434329E-1,-9.400197029E0,2.637421846E0
2.715523546E1,7.281719446E-1,-9.409888268E0,2.663485050E0
2.717525468E1,5.376189947E-1,-9.434640884E0,2.620862246E0
2.719527390E1,3.849105835E-1,-9.467830658E0,2.526345253E0
2.721532364E1,2.501993477E-1,-9.495373726E0,2.438377142E0
2.723534287E1,1.196454987E-1,-9.506526947E0,2.404580355E0
2.725530105E1,3.462707624E-2,-9.497671127E0,2.442019463E0
2.727535079E1,-1.250935346E-2,-9.479297638E0,2.512598753E0
2.729537002E1,-4.390314594E-2,-9.471658707E0,2.540895700E0
2.731532820E1,-4.362725466E-2,-9.484613419E0,2.492107868E0
2.733531691E1,1.554302219E-2,-9.503000259E0,2.421393871E0
2.735533613E1,1.493175775E-1,-9.512249947E0,2.380165100E0
2.737538587E1,3.919478059E-1,-9.505522728E0,2.379454613E0
2.739543561E1,5.538219213E-1,-9.573733330E0,2.051172018E0
2.741551587E1,9.001471996E-1,-9.625824928E0,1.644275188E0
2.743559612E1,1.438893318E0,-9.608283043E0,1.334502697E0
2.745564586E1,2.088697195E0,-9.523307800E0,1.055621266E0
2.747566509E1,2.754114628E0,-9.380536079E0,7.686319947E-1
2.749568431E1,3.345745564E0,-9.201065063E0,5.628362298E-1
2.751564250E1,3.758460045E0,-9.046497345E0,4.530472755E-1
2.753566172E1,3.988914251E0,-8.951635361E0,3.566313982E-1
2.755574198E1,4.153988361E0,-8.880808830E0,2.144866139E-1
2.757582223E1,4.264761925E0,-8.830520630E0,6.413246691E-2
2.759584146E1,4.354598522E0,-8.786783218E0,-1.795432158E-2
2.761579965E1,4.431918621E0,-8.747658730E0,-8.349986374E-2
2.763578835E1,4.512404919E0,-8.705484390E0,-1.521319747E-1
2.765574654E1,4.584633827E0,-8.666909218E0,-1.902849972E-1
2.767567421E1,4.617126942E0,-8.650112152E0,-1.675454527E-1
2.769560188E1,4.603195667E0,-8.658482552E0,-1.081050262E-1
2.771556007E1,4.538919449E0,-8.692586899E0,-8.677247912E-2
2.773551826E1,4.423967361E0,-8.751502037E0,-1.006703600E-1
2.775550696E1,4.253730774E0,-8.835929871E0,-4.989225045E-2
2.777543464E1,4.024069786E0,-8.942779541E0,6.299430877E-2
2.779533179E1,3.745848894E0,-9.060368538E0,2.207575887E-1
2.781522894E1,3.439863682E0,-9.173977852E0,4.193834960E-1
2.783512610E1,3.126198292E0,-9.273118019E0,6.376414299E-1
2.785511480E1,2.759862423E0,-9.374983788E0,8.143870234E-1
2.787501196E1,2.423815727E0,-9.453742027E0,9.603440762E-1
2.789497015E1,2.105566025E0,-9.515511513E0,1.091804624E0
2.791492833E1,1.774600863E0,-9.566286087E0,1.227756143E0
2.793488652E1,1.493518949E0,-9.595469475E0,1.366291761E0
2.795478368E1,1.376822829E0,-9.592831612E0,1.500776768E0
2.797471135E1,1.428853273E0,-9.546467781E0,1.730240107E0
2.799460850E1,1.447180986E0,-9.508040428E0,1.916564345E0
2.801450566E1,1.459031224E0,-9.519215584E0,1.850997925E0
2.803443333E1,1.897474647E0,-9.484154701E0,1.618886113E0
2.805433048E1,2.462839127E0,-9.385367393E0,1.421162248E0
2.807425815E1,3.018682480E0,-9.238661766E0,1.305795193E0
2.809418582E1,3.390360594E0,-9.130548477E0,1.144089341E0
2.811414401E1,3.546010971E0,-9.087209702E0,1.009358764E0
2.813410220E1,3.536232710E0,-9.092176437E0,9.988880157E-1
2.815406039E1,3.482621908E0,-9.105298996E0,1.065483451E0
2.817395754E1,3.395325184E0,-9.125504494E0,1.169330478E0
2.819385470E1,3.297097206E0,-9.153717995E0,1.228417754E0
2.821375185E1,3.125141144E0,-9.210586548E0,1.252588749E0
2.823371004E1,2.862912178E0,-9.286326408E0,1.318435431E0
2.825369874E1,2.538458109E0,-9.356332779E0,1.478394747E0
2.827365693E1,2.204400778E0,-9.401886940E0,1.707495093E0
2.829367616E1,1.878564239E0,-9.421068192E0,1.971005797E0
2.831366486E1,1.555907607E0,-9.433753967E0,2.180326700E0
2.833356202E1,1.299882054E0,-9.474653244E0,2.170634508E0
2.835352020E1,1.109023094E0,-9.535284996E0,2.004693031E0
2.837353942E1,9.326385856E-1,-9.585223198E0,1.850426793E0
2.839358916E1,7.553311586E-1,-9.613817215E0,1.781682968E0
2.841351684E1,6.155802011E-1,-9.620683670E0,1.798312187E0
2.843350554E1,5.635761619E-1,-9.607576370E0,1.883420467E0
2.845355528E1,6.114049554E-1,-9.589873314E0,1.957266331E0
2.847360502E1,6.552320719E-1,-9.593535423E0,1.924868941E0
2.849359373E1,6.782862544E-1,-9.613343239E0,1.814931035E0
2.851355192E1,6.911866069E-1,-9.626016617E0,1.741394401E0
2.853360166E1,6.723726392E-1,-9.630510330E0,1.723831654E0
2.855365139E1,5.993427634E-1,-9.639177322E0,1.702177048E0
2.857357907E1,5.011079907E-1,-9.649848938E0,1.673227787E0
2.859356777E1,3.949477077E-1,-9.662820816E0,1.626131415E0
2.861349544E1,2.852490246E-1,-9.676410675E0,1.567205787E0
2.863348415E1,1.763166487E-1,-9.686274529E0,1.521642566E0
2.865347285E1,6.099252030E-2,-9.693444252E0,1.484515786E0
2.867349208E1,-6.705985963E-2,-9.701213837E0,1.432600975E0
2.869357233E1,-1.880798638E-1,-9.708641052E0,1.370153546E0
2.871356104E1,-2.799395323E-1,-9.714426994E0,1.312217474E0
2.873354974E1,-3.259337842E-1,-9.719988823E0,1.259365559E0
2.875359948E1,-3.061836660E-1,-9.728607178E0,1.196190476E0
2.877361871E1,-1.977384984E-1,-9.742042542E0,1.106290102E0
2.879360741E1,9.464403242E-2,-9.763114929E0,9.181582332E-1
2.881356560E1,5.431941748E-1,-9.766824722E0,6.960594654E-1
2.883355431E1,1.062091231E0,-9.734024048E0,5.395683646E-1
2.885360404E1,1.574982285E0,-9.669476509E0,4.371069372E-1
2.887359275E1,2.082308054E0,-9.576988220E0,3.401294947E-1
2.889364249E1,2.605154991E0,-9.449585915E0,2.981356978E-1
2.891366171E1,3.128654718E0,-9.286046028E0,3.889467120E-1
2.893368094E1,3.669718027E0,-9.073868752E0,6.069955826E-1
2.895363912E1,4.238057137E0,-8.796689034E0,9.096928835E-1
2.897353628E1,4.791111946E0,-8.472594261E0,1.196162343E0
2.899349447E1,5.270190239E0,-8.154815674E0,1.376396179E0
2.901345265E1,5.708705425E0,-7.865521908E0,1.309441924E0
2.903344136E1,6.162405014E0,-7.563569546E0,9.937737584E-1
2.905343006E1,6.541002274E0,-7.266355515E0,7.653436065E-1
2.907338825E1,6.833787918E0,-6.983374119E0,8.379803896E-1
2.909340748E1,7.055757999E0,-6.753984451E0,8.777112365E-1
2.911339618E1,7.226496696E0,-6.582194805E0,7.892104983E-1
2.913344592E1,7.350426197E0,-6.456276894E0,6.768680215E-1
2.915343463E1,7.405704021E0,-6.399888039E0,6.061129570E-1
2.917339282E1,7.373555660E0,-6.442282200E0,5.459595323E-1
2.919328997E1,7.267099380E0,-6.568213463E0,4.671407044E-1
2.921324816E1,7.119399071E0,-6.731867313E0,4.080788493E-1
2.923314531E1,6.937151432E0,-6.921321392E0,3.763578832E-1
2.925304247E1,6.679822922E0,-7.171026707E0,3.559900522E-1
2.927293962E1,6.358186245E0,-7.455521107E0,3.988461792E-1
2.929283677E1,6.017215252E0,-7.717677593E0,6.332296729E-1
2.931270341E1,5.617645264E0,-7.979341030E0,9.708594680E-1
2.933263108E1,5.180092812E0,-8.246698380E0,1.152816296E0
2.935252824E1,4.858361244E0,-8.442177773E0,1.138581038E0
2.937242539E1,4.641735554E0,-8.570755005E0,1.080215573E0
2.939235306E1,4.403452873E0,-8.709369659E0,9.627432227E-1
2.941231125E1,4.110594749E0,-8.867194176E0,8.039197326E-1
2.943220840E1,3.810624599E0,-9.010300636E0,6.811892390E-1
2.945216659E1,3.590297222E0,-9.105832100E0,6.033195257E-1
2.947209426E1,3.390592813E0,-9.186374664E0,5.336781144E-1
2.949202193E1,3.162663698E0,-9.270705223E0,4.711451232E-1
2.951201064E1,2.907924891E0,-9.355913162E0,4.257417917E-1
2.953190779E1,2.670573235E0,-9.427510262E0,4.006117284E-1
2.955180495E1,2.462821245E0,-9.485033035E0,3.729235232E-1
2.957173262E1,2.275948524E0,-9.532418251E0,3.514034748E-1
2.959159926E1,2.096400976E0,-9.573029518E0,3.641653359E-1
2.961149641E1,1.919337869E0,-9.607740402E0,4.217644036E-1
2.963139357E1,1.754664540E0,-9.634306908E0,5.212386250E-1
2.965126020E1,1.611032128E0,-9.652252197E0,6.395444274E-1
2.967115736E1,1.486479759E0,-9.665371895E0,7.357774377E-1
2.969105451E1,1.377400994E0,-9.675163269E0,8.151046634E-1
2.971095167E1,1.270769000E0,-9.683720589E0,8.838000298E-1
2.973090985E1,1.185164094E0,-9.690539360E0,9.269474149E-1
2.975080701E1,1.119030356E0,-9.696382523E0,9.478154182E-1
2.977067364E1,1.035340309E0,-9.703776360E0,9.670403600E-1
2.979057080E1,9.363844991E-1,-9.709813118E0,1.006526828E0
2.981046795E1,8.360282183E-1,-9.713896751E0,1.054357409E0
2.983036511E1,7.744684219E-1,-9.715316772E0,1.087751150E0
2.985023174E1,7.233090401E-1,-9.718713760E0,1.092633605E0
2.987012890E1,6.728960872E-1,-9.723695755E0,1.080447197E0
2.989002605E1,5.774652362E-1,-9.730831146E0,1.071377754E0
2.990995372E1,4.225292504E-1,-9.738040924E0,1.078160286E0
2.992985088E1,2.676096261E-1,-9.744297981E0,1.071195364E0
2.994974803E1,1.625862271E-1,-9.748638153E0,1.052621603E0
2.996964518E1,9.298487008E-2,-9.752072334E0,1.028992295E0
2.998951182E1,4.414280131E-2,-9.756124496E0,9.932202101E-1
3.000940898E1,6.537409872E-2,-9.759099960E0,9.623489380E-1
3.002930613E1,2.049289942E-1,-9.761421204E0,9.181950688E-1
3.004923380E1,4.608256817E-1,-9.764505386E0,7.826064229E-1
3.006913096E1,7.931392193E-1,-9.757131577E0,5.828571916E-1
3.008905863E1,1.178821921E0,-9.728241920E0,3.769575953E-1
3.010895578E1,1.626252174E0,-9.668638229E0,2.076201290E-1
3.012891397E1,2.130703211E0,-9.572028160E0,8.229454607E-2
3.014887216E1,2.660252571E0,-9.438739777E0,-6.040098518E-2
3.016886086E1,3.172232866E0,-9.277892113E0,-1.675853580E-1
3.018884957E1,3.734148979E0,-9.067186356E0,-1.126116514E-1
3.020877724E1,4.344708443E0,-8.789685249E0,1.879886687E-1
3.022867439E1,4.884930134E0,-8.484980583E0,5.594187379E-1
3.024860207E1,5.265552521E0,-8.251790047E0,5.935540795E-1
3.026859077E1,5.594562054E0,-8.045748711E0,3.703958988E-1
3.028851844E1,5.908064365E0,-7.824623108E0,2.011529803E-1
3.030844611E1,6.224658966E0,-7.572849274E0,2.756549716E-1
3.032834327E1,6.550500393E0,-7.287183285E0,3.978907764E-1
3.034824042E1,6.848478317E0,-6.999441624E0,5.259003639E-1
3.036813758E1,7.095624924E0,-6.734882832E0,6.810632944E-1
3.038803473E1,7.286045074E0,-6.522365570E0,7.366657853E-1
3.040793188E1,7.403774261E0,-6.399470329E0,6.334709525E-1
3.042779852E1,7.445209980E0,-6.364469528E0,4.824528992E-1
3.044769568E1,7.426491737E0,-6.390624523E0,4.213376343E-1
3.046759283E1,7.357033253E0,-6.464435577E0,5.054869652E-1
3.048745947E1,7.231493473E0,-6.589618206E0,6.729225516E-1
3.050735662E1,7.042207241E0,-6.782539845E0,7.582091689E-1
3.052725377E1,6.758742332E0,-7.069529533E0,7.152233124E-1
3.054715093E1,6.388653278E0,-7.413877010E0,6.244527698E-1
3.056701756E1,5.911447048E0,-7.787288189E0,7.637481689E-1
3.058691472E1,5.292636395E0,-8.181403160E0,1.105914950E0
3.060681187E1,4.777818203E0,-8.488931656E0,1.131758928E0
3.062670903E1,4.570498466E0,-8.623590469E0,9.563539624E-1
3.064660618E1,4.489433765E0,-8.665656090E0,9.600871801E-1
3.066647282E1,4.334990501E0,-8.738350868E0,1.009694457E0
3.068636997E1,4.041046143E0,-8.880917549E0,9.847093821E-1
3.070626713E1,3.678842545E0,-9.043984413E0,9.180672169E-1
3.072619480E1,3.375380516E0,-9.170468330E0,8.244448900E-1
3.074609195E1,3.189063549E0,-9.246978760E0,7.026057243E-1
3.076601962E1,3.010011196E0,-9.315032959E0,5.834576488E-1
3.078591678E1,2.799043894E0,-9.383967400E0,5.262107253E-1
3.080581393E1,2.586746454E0,-9.443862915E0,5.409334898E-1
3.082568057E1,2.379836082E0,-9.495649338E0,5.826072693E-1
3.084557772E1,2.191728592E0,-9.537813187E0,6.299684644E-1
3.086550539E1,2.069258451E0,-9.561920166E0,6.769406796E-1
3.088537203E1,2.000009298E0,-9.573894501E0,7.147849202E-1
3.090526918E1,1.934371233E0,-9.584866524E0,7.476078868E-1
3.092516634E1,1.850506067E0,-9.597758293E0,7.931538224E-1
3.094512453E1,1.740147710E0,-9.614016533E0,8.443804383E-1
3.096502168E1,1.619753480E0,-9.631900787E0,8.793731332E-1
3.098491884E1,1.522706389E0,-9.646706581E0,8.904112577E-1
3.100481599E1,1.465815783E0,-9.654767990E0,8.984566331E-1
3.102471314E1,1.432052374E0,-9.655589104E0,9.429884553E-1
3.104464082E1,1.398054242E0,-9.653573036E0,1.012114882E0
3.106453797E1,1.353232503E0,-9.652488708E0,1.081030607E0
3.108446564E1,1.287095070E0,-9.654859543E0,1.139063954E0
3.110436280E1,1.193186879E0,-9.662849426E0,1.173034906E0
3.112425995E1,1.075105309E0,-9.676599503E0,1.173882484E0
3.114412659E1,9.387094378E-1,-9.693379402E0,1.152220130E0
3.116402374E1,7.676137686E-1,-9.708505630E0,1.151566863E0
3.118392089E1,5.926949978E-1,-9.716693878E0,1.185306072E0
3.120378753E1,4.711576700E-1,-9.721127510E0,1.203378558E0
3.122368469E1,3.948535919E-1,-9.724175453E0,1.206199169E0
3.124358184E1,3.296896517E-1,-9.727752686E0,1.196883678E0
3.126347899E1,3.072241247E-1,-9.732858658E0,1.160801172E0
3.128334563E1,3.820096254E-1,-9.738047600E0,1.093119621E0
3.130324279E1,5.965577960E-1,-9.742246628E0,9.503399730E-1
3.132320097E1,9.061784744E-1,-9.734204292E0,7.710331678E-1
3.134309813E1,1.261964083E0,-9.706518173E0,6.011091471E-1
3.136299528E1,1.657387257E0,-9.653984070E0,4.733753502E-1
3.138289244E1,2.094727516E0,-9.573066711E0,3.726967275E-1
3.140275907E1,2.573974609E0,-9.459069252E0,2.665948868E-1
3.142265623E1,3.107223511E0,-9.299725533E0,1.751417518E-1
3.144255338E1,3.706106424E0,-9.077015877E0,2.072889954E-1
3.146242002E1,4.401458740E0,-8.751734734E0,4.524570704E-1
3.148231717E1,5.061532974E0,-8.362890244E0,7.831573486E-1
3.150221433E1,5.561505318E0,-8.039882660E0,7.748256922E-1
3.152211148E1,5.896959305E0,-7.814559937E0,5.735272169E-1
3.154200864E1,6.192538261E0,-7.579968452E0,6.057492495E-1
3.156190579E1,6.488765717E0,-7.320735931E0,6.878602505E-1
3.158180294E1,6.799843311E0,-7.038664341E0,6.242824197E-1
3.160173061E1,7.065992355E0,-6.772302151E0,6.148862243E-1
3.162162777E1,7.281735897E0,-6.535378456E0,6.599472761E-1
3.164149441E1,7.447252750E0,-6.353149891E0,5.884928703E-1
3.166139156E1,7.535817623E0,-6.263387203E0,3.896709383E-1
3.168131923E1,7.531112194E0,-6.277677536E0,2.086021304E-1
3.170121639E1,7.473912716E0,-6.347569942E0,1.391751021E-1
3.172108302E1,7.382557392E0,-6.452064991E0,1.977680922E-1
3.174098018E1,7.258635044E0,-6.585362911E0,3.400484025E-1
3.176090785E1,7.118125439E0,-6.729236603E0,4.691007435E-1
3.178083552E1,6.941789150E0,-6.907001972E0,5.246767998E-1
3.180070216E1,6.669989109E0,-7.171878338E0,4.957821369E-1
3.182059931E1,6.295283794E0,-7.501299381E0,5.199111700E-1
3.184052698E1,5.891699791E0,-7.816951752E0,5.945788622E-1
3.186045465E1,5.499447346E0,-8.091911316E0,6.689267159E-1
3.188035181E1,5.205448151E0,-8.280645370E0,7.103729844E-1
3.190027948E1,5.006791115E0,-8.400525093E0,7.304797769E-1
3.192023767E1,4.790729046E0,-8.517317772E0,8.213416934E-1
3.194016534E1,4.504633904E0,-8.665686607E0,8.857571483E-1
3.196009301E1,4.170012474E0,-8.831177711E0,8.897706270E-1
3.198002068E1,3.850493670E0,-8.980165482E0,8.371064067E-1
3.199991783E1,3.626383781E0,-9.084688187E0,6.986924410E-1
3.201981499E1,3.494211435E0,-9.148455620E0,5.163599253E-1
3.203971214E1,3.354140282E0,-9.208090782E0,3.622226715E-1
3.205960930E1,3.168602228E0,-9.276619911E0,2.733008265E-1
3.207956748E1,2.971411467E0,-9.342411041E0,2.458952069E-1
3.209949516E1,2.778151989E0,-9.401268005E0,2.616065741E-1
3.211945334E1,2.588309765E0,-9.454256058E0,2.967956662E-1
3.213938102E1,2.407312155E0,-9.499867439E0,3.574164510E-1
3.215930869E1,2.248277187E0,-9.535730362E0,4.306798279E-1
3.217923636E1,2.102982044E0,-9.564860344E0,5.111945271E-1
3.219919147E1,1.958334565E0,-9.591242790E0,5.859978199E-1
3.221911914E1,1.832380533E0,-9.611988068E0,6.499810219E-1
3.223904681E1,1.725907564E0,-9.626630783E0,7.208420634E-1
3.225900500E1,1.641115069E0,-9.635471344E0,7.967685461E-1
3.227893266E1,1.554818273E0,-9.644544601E0,8.577081561E-1
3.229882982E1,1.457139134E0,-9.656689644E0,8.918868899E-1
3.231872697E1,1.357434034E0,-9.670789719E0,8.964303732E-1
3.233865464E1,1.269104838E0,-9.682221413E0,9.024190903E-1
3.235864334E1,1.184581518E0,-9.690940857E0,9.234917164E-1
3.237857101E1,1.086732626E0,-9.699801445E0,9.503998756E-1
3.239849868E1,9.781050682E-1,-9.707208633E0,9.918769598E-1
3.241845687E1,8.303484321E-1,-9.718266487E0,1.017925620E0
3.243844557E1,6.542755365E-1,-9.729881287E0,1.035250187E0
3.245837324E1,4.709817469E-1,-9.738293648E0,1.055563211E0
3.247830091E1,3.234297037E-1,-9.743318558E0,1.064690828E0
3.249822858E1,2.186404169E-1,-9.745989799E0,1.066897154E0
3.251815625E1,1.538446993E-1,-9.746436119E0,1.074111938E0
3.253814495E1,1.497331709E-1,-9.746402740E0,1.074998617E0
3.255813366E1,2.339651138E-1,-9.746805191E0,1.056150079E0
3.257815288E1,3.982034922E-1,-9.749201775E0,9.822890759E-1
3.259814158E1,6.220514178E-1,-9.751086235E0,8.365192413E-1
3.261813029E1,8.955503702E-1,-9.742332458E0,6.748086214E-1
3.263811899E1,1.205905795E0,-9.717975616E0,5.264546275E-1
3.265816873E1,1.558892965E0,-9.673291206E0,4.095087349E-1
3.267818795E1,1.971988440E0,-9.601080894E0,3.176747859E-1
3.269817665E1,2.432115316E0,-9.498059273E0,2.052230090E-1
3.271813484E1,2.910249233E0,-9.364647865E0,6.507920474E-2
3.273806251E1,3.423198223E0,-9.189770699E0,1.531944238E-2
3.275805121E1,3.977881432E0,-8.962749481E0,1.264078319E-1
3.277803992E1,4.550031185E0,-8.676781654E0,4.255415797E-1
3.279796759E1,4.968549728E0,-8.428742409E0,6.634876132E-1
3.281789526E1,5.317752361E0,-8.216534615E0,6.168032885E-1
3.283788396E1,5.641828537E0,-8.009415627E0,4.352012575E-1
3.285781163E1,5.939093590E0,-7.795879841E0,3.490419984E-1
3.287786137E1,6.239645004E0,-7.557711601E0,3.438265920E-1
3.289775852E1,6.548397541E0,-7.291671276E0,3.470129669E-1
3.291765567E1,6.835093021E0,-7.021500111E0,3.878432810E-1
3.293761386E1,7.079101562E0,-6.772996902E0,4.280667305E-1
3.295754153E1,7.273172855E0,-6.566349030E0,3.929468989E-1
3.297746920E1,7.398207188E0,-6.431008339E0,2.812044919E-1
3.299739687E1,7.455938816E0,-6.367070675E0,1.994150579E-1
3.301732454E1,7.483543873E0,-6.333694458E0,2.264602929E-1
3.303731324E1,7.486740112E0,-6.323003769E0,3.724840283E-1
3.305730194E1,7.454446316E0,-6.344841957E0,5.870221853E-1
3.307735168E1,7.393686295E0,-6.396344662E0,7.684950233E-1
3.309743194E1,7.308040142E0,-6.482460022E0,8.606227040E-1
3.311751219E1,7.194643974E0,-6.602389336E0,9.032880068E-1
3.313759245E1,7.045225143E0,-6.754902363E0,9.520914555E-1
3.315767270E1,6.857560635E0,-6.943077564E0,9.684672952E-1
3.317775296E1,6.640294075E0,-7.162219524E0,8.828983903E-1
3.319777218E1,6.379056931E0,-7.404020309E0,8.114873767E-1
3.321785243E1,6.026093483E0,-7.678775311E0,9.449842572E-1
3.323793269E1,5.579373837E0,-7.968575478E0,1.242090225E0
3.325801294E1,5.226788998E0,-8.194692612E0,1.303110600E0
3.327806268E1,5.014394760E0,-8.348080635E0,1.155759811E0
3.329814294E1,4.785784245E0,-8.503952026E0,9.744071960E-1
3.331822319E1,4.502509594E0,-8.672442436E0,8.285828829E-1
3.333830345E1,4.207396030E0,-8.824848175E0,7.682911754E-1
3.335835318E1,3.931399584E0,-8.947905540E0,8.059002161E-1
3.337840292E1,3.696579695E0,-9.041224480E0,8.728928566E-1
3.339848318E1,3.479200125E0,-9.121791840E0,9.265525341E-1
3.341856343E1,3.254084587E0,-9.201354027E0,9.572879076E-1
3.343861317E1,3.017985344E0,-9.281358719E0,9.584013820E-1
3.345869343E1,2.787673712E0,-9.355210304E0,9.377253652E-1
3.347874316E1,2.553906441E0,-9.424535751E0,9.088988304E-1
3.349876238E1,2.374251127E0,-9.474625587E0,8.745344877E-1
3.351881212E1,2.246745348E0,-9.508768082E0,8.401634097E-1
3.353877031E1,2.141661167E0,-9.534867287E0,8.185402155E-1
3.355878953E1,2.069928169E0,-9.551271439E0,8.117720485E-1
3.357883927E1,2.032988310E0,-9.557981491E0,8.260486722E-1
3.359888901E1,2.014206648E0,-9.557575226E0,8.752774000E-1
3.361899978E1,1.989914775E0,-9.555016518E0,9.551324844E-1
3.363908003E1,1.968947411E0,-9.549039841E0,1.053334475E0
3.365912977E1,1.950279236E0,-9.540089607E0,1.163401961E0
3.367921003E1,1.928706288E0,-9.528676033E0,1.286404371E0
3.369929028E1,1.876187563E0,-9.527544022E0,1.369750261E0
3.371937054E1,1.817882657E0,-9.538838387E0,1.369767189E0
3.373945079E1,1.775739789E0,-9.549771309E0,1.348701835E0
3.375953105E1,1.729212999E0,-9.560845375E0,1.330576420E0
3.377961130E1,1.659142613E0,-9.576359749E0,1.308040500E0
3.379969156E1,1.576328754E0,-9.595478058E0,1.269806862E0
3.381977181E1,1.489786506E0,-9.613508224E0,1.237493992E0
3.383985207E1,1.381983399E0,-9.632382393E0,1.215623140E0
3.385993232E1,1.238995552E0,-9.653252602E0,1.204153419E0
3.388001258E1,1.072590113E0,-9.675885201E0,1.182033062E0
3.390009283E1,9.068495035E-1,-9.697130203E0,1.146164417E0
3.392017309E1,7.644330859E-1,-9.713724136E0,1.108880401E0
3.394025334E1,6.634779572E-1,-9.724838257E0,1.075966001E0
3.396033360E1,6.090332270E-1,-9.732179642E0,1.041229367E0
3.398041385E1,5.406430364E-1,-9.742097855E0,9.846963882E-1
3.400046359E1,4.083537161E-1,-9.756746292E0,8.997440338E-1
3.402057436E1,2.493871450E-1,-9.771075249E0,7.964338660E-1
3.404065462E1,9.677958488E-2,-9.780571938E0,7.081108689E-1
3.406073487E1,2.818126231E-2,-9.787443161E0,6.128536463E-1
3.408081513E1,6.622399390E-2,-9.794175148E0,4.900543988E-1
3.410083435E1,2.277589589E-1,-9.798014641E0,3.426917493E-1
3.412091460E1,5.194807053E-1,-9.790556908E0,2.133691907E-1
3.414102538E1,8.949679136E-1,-9.764048576E0,1.809919477E-1
3.416107512E1,1.318335056E0,-9.715317726E0,2.121200711E-1
3.418112485E1,1.750392675E0,-9.644489288E0,3.005927205E-1
3.420120511E1,2.171303034E0,-9.551380157E0,4.764157534E-1
3.422128536E1,2.570656538E0,-9.436020851E0,7.236287594E-1
3.424136562E1,2.926233053E0,-9.288395882E0,1.154665112E0
3.426144587E1,3.212004185E0,-9.172275543E0,1.312543869E0
3.428152613E1,3.462925673E0,-9.074854851E0,1.351130605E0
3.430160638E1,3.699292421E0,-8.982594490E0,1.341127038E0
3.432168664E1,3.891296625E0,-8.910740852E0,1.275492787E0
3.434176689E1,4.070190907E0,-8.844947815E0,1.170835972E0
3.436184715E1,4.210657120E0,-8.795817375E0,1.036510468E0
3.438192740E1,4.330305099E0,-8.745407104E0,9.678419828E-1
3.440200766E1,4.438511372E0,-8.680029869E0,1.061647296E0
3.442208791E1,4.577386379E0,-8.595476151E0,1.155731320E0
3.444216817E1,4.737534523E0,-8.510566711E0,1.138613582E0
3.446224843E1,4.878620148E0,-8.447429657E0,1.005180120E0
3.448232868E1,4.984695911E0,-8.400905609E0,8.648685217E-1
3.450240894E1,5.052772522E0,-8.367781639E0,7.874667048E-1
3.452248919E1,5.073496342E0,-8.355571747E0,7.838719487E-1
3.454259996E1,5.035101414E0,-8.375426292E0,8.187608719E-1
3.456268022E1,4.939937592E0,-8.427520752E0,8.627321124E-1
3.458276047E1,4.781765938E0,-8.512266159E0,9.200304747E-1
3.460284073E1,4.546647549E0,-8.630778313E0,1.004023910E0
3.462289047E1,4.239364147E0,-8.772255898E0,1.116114140E0
3.464297072E1,3.855154514E0,-8.929670334E0,1.252659678E0
3.466305098E1,3.392399073E0,-9.083536148E0,1.466768265E0
3.468310071E1,2.906008482E0,-9.218055725E0,1.659196973E0
3.470315045E1,2.461047649E0,-9.325840950E0,1.772659063E0
3.472323071E1,2.119884014E0,-9.387725830E0,1.883369923E0
3.474331096E1,1.779250026E0,-9.408200264E0,2.119065523E0
3.476336070E1,1.377740622E0,-9.413721085E0,2.377829790E0
3.478334940E1,9.619657993E-1,-9.425878525E0,2.529395103E0
3.480333811E1,6.521101594E-1,-9.439526558E0,2.576915741E0
3.482332681E1,5.355744958E-1,-9.440373421E0,2.600561857E0
3.484334603E1,6.529860497E-1,-9.424396515E0,2.631490707E0
3.486336525E1,1.163559198E0,-9.379197121E0,2.616709948E0
3.488344551E1,1.783194423E0,-9.250955582E0,2.722214460E0
3.490352576E1,2.427653074E0,-9.078356743E0,2.803631306E0
3.492357550E1,3.085098505E0,-8.956242561E0,2.537380934E0
3.494365576E1,3.559106588E0,-8.914354324E0,2.009343147E0
3.496373601E1,3.747017145E0,-8.952997208E0,1.405040979E0
3.498378575E1,3.741884708E0,-9.011666298E0,9.790601730E-1
3.500386600E1,3.703434944E0,-9.036848068E0,8.890098929E-1
3.502394626E1,3.653981686E0,-9.031114578E0,1.121509910E0
3.504402651E1,3.603164911E0,-9.001717567E0,1.468569756E0
3.506410677E1,3.514020920E0,-8.981006622E0,1.778651595E0
3.508418702E1,3.335490942E0,-8.994354248E0,2.036287785E0
3.510426728E1,3.114291430E0,-9.016160011E0,2.276052952E0
3.512434754E1,2.933945894E0,-9.035068512E0,2.435137510E0
3.514442779E1,2.818068266E0,-9.075570107E0,2.421340942E0
3.516450805E1,2.664493084E0,-9.150357246E0,2.311243534E0
3.518458830E1,2.442309856E0,-9.239542007E0,2.199177027E0
3.520466856E1,2.271573544E0,-9.312839508E0,2.069149733E0
3.522474881E1,2.188477516E0,-9.364771843E0,1.918859720E0
3.524482907E1,2.114148378E0,-9.406991959E0,1.791442156E0
3.526490932E1,2.016123295E0,-9.441287994E0,1.722715259E0
3.528498958E1,1.912133455E0,-9.462345123E0,1.725736022E0
3.530506983E1,1.805547476E0,-9.475311279E0,1.768871427E0
3.532515009E1,1.694244742E0,-9.482619286E0,1.838435411E0
3.534523034E1,1.570688725E0,-9.481921196E0,1.948466897E0
3.536531060E1,1.433968306E0,-9.479554176E0,2.062080383E0
3.538536033E1,1.299091697E0,-9.486150742E0,2.120306969E0
3.540547111E1,1.170795798E0,-9.504614830E0,2.112325907E0
3.542552084E1,1.060356379E0,-9.527897835E0,2.065236807E0
3.544560110E1,9.974573851E-1,-9.545555115E0,2.014406919E0
3.546568135E1,9.855783582E-1,-9.554452896E0,1.977744460E0
3.548573109E1,9.899345040E-1,-9.563183784E0,1.932862520E0
3.550578083E1,9.898878336E-1,-9.577143669E0,1.862479687E0
3.552580005E1,9.868139625E-1,-9.592139244E0,1.785347342E0
3.554588031E1,9.927889705E-1,-9.601999283E0,1.728116155E0
3.556596056E1,1.002387166E0,-9.608410835E0,1.686431646E0
3.558604082E1,1.001672983E0,-9.616785049E0,1.638441801E0
3.560612107E1,1.031044960E0,-9.625847816E0,1.565377116E0
3.562620133E1,1.120489717E0,-9.627724648E0,1.490582824E0
3.564628158E1,1.305101395E0,-9.613172531E0,1.433185697E0
3.566633132E1,1.602039218E0,-9.579325676E0,1.356601715E0
3.568641158E1,2.094755173E0,-9.526485443E0,1.014129162E0
3.570649183E1,2.699766397E0,-9.387573242E0,8.689800501E-1
3.572657208E1,3.362634659E0,-9.182882309E0,7.333113551E-1
3.574665234E1,4.069202900E0,-8.909702301E0,4.787298739E-1
3.576673260E1,4.702125549E0,-8.601711273E0,2.664461136E-1
3.578681285E1,5.173518181E0,-8.327591896E0,2.372925133E-1
3.580689310E1,5.500019550E0,-8.113236427E0,3.091729283E-1
3.582694284E1,5.787112236E0,-7.911528111E0,2.957458794E-1
3.584702310E1,6.081101418E0,-7.692495823E0,1.269453019E-1
3.586710335E1,6.385074615E0,-7.441477776E0,-1.601572484E-1
3.588718361E1,6.650613785E0,-7.192323208E0,-4.584662318E-1
3.590726386E1,6.918462753E0,-6.925872326E0,-5.810101032E-1
3.592734412E1,7.160196304E0,-6.684239864E0,-4.721592665E-1
3.594742437E1,7.402103424E0,-6.427543640E0,-2.567576766E-1
3.596750463E1,7.642900944E0,-6.143143177E0,-1.351712793E-1
3.598761540E1,7.850835800E0,-5.874074459E0,-1.732692420E-1
3.600769566E1,8.014376640E0,-5.646418571E0,-2.410977483E-1
3.602777591E1,8.141338348E0,-5.462801933E0,-2.163788974E-1
3.604785617E1,8.236133575E0,-5.322039127E0,-1.114233211E-1
3.606790590E1,8.290139198E0,-5.238693237E0,-7.823825814E-3
3.608798616E1,8.313387871E0,-5.201724529E0,7.793430705E-3
3.610806642E1,8.320047379E0,-5.190982342E0,-3.046762012E-2
3.612811615E1,8.314629555E0,-5.199101448E0,-8.179857582E-2
3.614819641E1,8.289555550E0,-5.238446236E0,-1.110755280E-1
3.616824615E1,8.241452217E0,-5.313425541E0,-1.280313432E-1
3.618832640E1,8.177402496E0,-5.410970211E0,-1.480114609E-1
3.620840666E1,8.110425949E0,-5.510175705E0,-1.713321358E-1
3.622848691E1,8.047776222E0,-5.601643085E0,-1.590834856E-1
3.624856717E1,7.985106468E0,-5.692317963E0,-7.743629068E-2
3.626864742E1,7.913107395E0,-5.792427540E0,-3.035831451E-2
3.628869716E1,7.834510326E0,-5.897135735E0,-1.209638864E-1
3.630877741E1,7.762622833E0,-5.988351345E0,-2.274789661E-1
3.632882715E1,7.693512917E0,-6.078597546E0,-1.757651567E-1
3.634887689E1,7.626136303E0,-6.165109634E0,-6.234744564E-2
3.636895714E1,7.599865437E0,-6.197760105E0,1.519698463E-2
3.638900688E1,7.590681076E0,-6.208706379E0,6.263444573E-2
3.640908714E1,7.557472229E0,-6.248149872E0,1.250794977E-1
3.642916739E1,7.461346149E0,-6.361865044E0,1.593909413E-1
3.644924765E1,7.293696404E0,-6.555215359E0,3.922551125E-2
3.646932790E1,7.044731617E0,-6.821987629E0,-5.141863972E-2
3.648940816E1,6.780266762E0,-7.084599495E0,8.265198022E-2
3.650945790E1,6.527446270E0,-7.313913822E0,2.636649609E-1
3.652953815E1,6.310210228E0,-7.496731281E0,3.881476820E-1
3.654958789E1,6.093462467E0,-7.672190666E0,4.214414656E-1
3.656966814E1,5.834195614E0,-7.873105526E0,3.830962479E-1
3.658974840E1,5.548864841E0,-8.079540253E0,3.186772466E-1
3.660976762E1,5.271197796E0,-8.264192581E0,2.966477871E-1
3.662978684E1,5.014406681E0,-8.421540260E0,3.221323490E-1
3.664977555E1,4.759792328E0,-8.566221237E0,3.669342101E-1
3.666982528E1,4.517911434E0,-8.694173813E0,4.125736654E-1
3.668981399E1,4.289455414E0,-8.805287361E0,4.877215624E-1
3.670989424E1,4.038822174E0,-8.913691521E0,6.359510422E-1
3.672994398E1,3.760621786E0,-9.018974304E0,8.283832669E-1
3.674987165E1,3.481510878E0,-9.115494728E0,9.783937931E-1
3.676986035E1,3.226821184E0,-9.201326370E0,1.045762300E0
3.678987957E1,3.027280807E0,-9.270206451E0,1.034043193E0
3.680980724E1,2.857933998E0,-9.329485893E0,9.814841747E-1
3.682973491E1,2.705029726E0,-9.381088257E0,9.210773110E-1
3.684969310E1,2.564599514E0,-9.424442291E0,8.792653084E-1
3.686965129E1,2.433410883E0,-9.460677147E0,8.628244400E-1
3.688960947E1,2.312724352E0,-9.490428925E0,8.680325747E-1
3.690959818E1,2.218754768E0,-9.510980606E0,8.881366253E-1
3.692961740E1,2.145474434E0,-9.525186539E0,9.155097604E-1
3.694963662E1,2.082693338E0,-9.530212402E0,1.003912330E0
3.696962532E1,2.006958485E0,-9.530877113E0,1.142319441E0
3.698970558E1,1.913190722E0,-9.532941818E0,1.277937293E0
3.700975532E1,1.802839398E0,-9.545129776E0,1.345607996E0
3.702980505E1,1.694946885E0,-9.562482834E0,1.362524033E0
3.704985479E1,1.565206766E0,-9.583036423E0,1.373285651E0
3.706984350E1,1.421191096E0,-9.605117798E0,1.375624895E0
3.708983220E1,1.286604047E0,-9.624598503E0,1.371916771E0
3.710979039E1,1.167420864E0,-9.640336990E0,1.367992878E0
3.712980961E1,1.072086811E0,-9.652131081E0,1.362862468E0
3.714979831E1,9.933692217E-1,-9.662332535E0,1.350157380E0
3.716975650E1,9.153785110E-1,-9.671976089E0,1.336170316E0
3.718971468E1,8.191714883E-1,-9.681113243E0,1.332438111E0
3.720967287E1,6.971373558E-1,-9.689394951E0,1.341647267E0
3.722966157E1,5.703510642E-1,-9.695429802E0,1.357842088E0
3.724968080E1,4.535629749E-1,-9.699482918E0,1.372844338E0
3.726960847E1,3.579875231E-1,-9.701782227E0,1.384795189E0
3.728959717E1,3.004892766E-1,-9.701778412E0,1.398420691E0
3.730964691E1,3.285056949E-1,-9.703001022E0,1.383566260E0
3.732960509E1,4.548428059E-1,-9.713888168E0,1.266462564E0
3.734956328E1,6.422162652E-1,-9.727875710E0,1.061331630E0
3.736958250E1,8.728852272E-1,-9.727527618E0,8.852701187E-1
3.738954069E1,1.175755858E0,-9.705217361E0,7.724977136E-1
3.740949887E1,1.570160270E0,-9.654701233E0,7.012427449E-1
3.742948758E1,2.023677826E0,-9.574633598E0,6.336731911E-1
3.744938473E1,2.513525486E0,-9.465641975E0,5.041869879E-1
3.746937344E1,3.010105371E0,-9.326888084E0,3.446931541E-1
3.748936214E1,3.499769688E0,-9.150449753E0,4.373702705E-1
3.750941188E1,3.976289749E0,-8.904982567E0,1.029954433E0
3.752946161E1,4.434942245E0,-8.620603561E0,1.478809476E0
3.754948084E1,4.891672611E0,-8.363403320E0,1.515068531E0
3.756953057E1,5.313475132E0,-8.160615921E0,1.158328295E0
3.758951928E1,5.692935944E0,-7.951869011E0,7.270745039E-1
3.760956902E1,6.010974407E0,-7.718097210E0,6.852455735E-1
3.762955772E1,6.294386864E0,-7.471259594E0,8.551952839E-1
3.764951590E1,6.561081886E0,-7.225932121E0,9.531570673E-1
3.766944358E1,6.821158886E0,-6.991669655E0,8.710592389E-1
3.768949331E1,7.046253204E0,-6.786588192E0,6.803928614E-1
3.770951253E1,7.193204403E0,-6.645472527E0,5.156634450E-1
3.772953175E1,7.257467270E0,-6.581892967E0,4.221919775E-1
3.774952046E1,7.266028881E0,-6.571838379E0,4.314946532E-1
3.776950916E1,7.244596958E0,-6.586734295E0,5.487561822E-1
3.778943683E1,7.193184853E0,-6.625777245E0,7.263274789E-1
3.780942554E1,7.108361244E0,-6.694313049E0,9.098212123E-1
3.782938372E1,6.990654945E0,-6.790962696E0,1.088106751E0
3.784937243E1,6.827090740E0,-6.930662155E0,1.235778093E0
3.786936113E1,6.620238781E0,-7.119670868E0,1.285734296E0
3.788938035E1,6.429249763E0,-7.316782475E0,1.140095949E0
3.790933854E1,6.228470802E0,-7.513135910E0,9.640186429E-1
3.792926621E1,5.980239868E0,-7.691049576E0,1.120214581E0
3.794919388E1,5.801451206E0,-7.797157288E0,1.310689807E0
3.796912155E1,5.625069141E0,-7.918900490E0,1.349077702E0
3.798904922E1,5.444187164E0,-8.050711632E0,1.310445547E0
3.800897688E1,5.259953499E0,-8.183614731E0,1.237636805E0
3.802887404E1,5.055688381E0,-8.326009750E0,1.134895444E0
3.804883222E1,4.829329967E0,-8.471772194E0,1.037801147E0
3.806882093E1,4.581347466E0,-8.618187904E0,9.531441927E-1
3.808887067E1,4.310465813E0,-8.761519432E0,9.088783860E-1
3.810885937E1,4.017915249E0,-8.897136688E0,9.315151572E-1
3.812887859E1,3.714971066E0,-9.026653290E0,9.428104162E-1
3.814889781E1,3.413577557E0,-9.149973869E0,8.921090364E-1
3.816888652E1,3.137302876E0,-9.254995346E0,8.202245235E-1
3.818890574E1,2.901939631E0,-9.337164879E0,7.526625395E-1
3.820886392E1,2.701481581E0,-9.402396202E0,6.836076975E-1
3.822888314E1,2.523704290E0,-9.456697464E0,6.100578904E-1
3.824884133E1,2.355093002E0,-9.503568649E0,5.532867908E-1
3.826886055E1,2.199992657E0,-9.541902542E0,5.315396786E-1
3.828884926E1,2.078762054E0,-9.568006516E0,5.499339700E-1
3.830877693E1,1.988468051E0,-9.584587097E0,5.933592916E-1
3.832870459E1,1.928308487E0,-9.592505455E0,6.602005363E-1
3.834860175E1,1.889117241E0,-9.593646049E0,7.507219315E-1
3.836852942E1,1.846122980E0,-9.592479706E0,8.640525341E-1
3.838845709E1,1.771568418E0,-9.591894150E0,1.013656855E0
3.840841527E1,1.649700880E0,-9.593143463E0,1.191842437E0
3.842846501E1,1.502409220E0,-9.590909004E0,1.388392091E0
3.844848423E1,1.326212406E0,-9.607188225E0,1.453784823E0
3.846853397E1,1.173193336E0,-9.628622055E0,1.443482637E0
3.848849216E1,1.046037912E0,-9.638338089E0,1.476025343E0
3.850851138E1,9.346411824E-1,-9.640843391E0,1.533288002E0
3.852853060E1,8.277060986E-1,-9.643844604E0,1.575288296E0
3.854851930E1,6.857093573E-1,-9.648251534E0,1.615992069E0
3.856847749E1,5.027566552E-1,-9.651484489E0,1.663272500E0
3.858840516E1,3.081017733E-1,-9.649750710E0,1.719824433E0
3.860836334E1,1.453247070E-1,-9.643008232E0,1.778102994E0
3.862838256E1,4.389116541E-2,-9.634339333E0,1.829750776E0
3.864843230E1,-2.966360934E-2,-9.630004883E0,1.852711082E0
3.866845152E1,-7.624299079E-2,-9.633469582E0,1.833258510E0
3.868847075E1,-5.232639983E-2,-9.638694763E0,1.806440115E0
3.870855100E1,6.774082780E-2,-9.638621330E0,1.806317687E0
3.872857022E1,2.760007083E-1,-9.639349937E0,1.782456875E0
3.874858944E1,5.500029325E-1,-9.657731056E0,1.611256242E0
3.876866970E1,8.289870620E-1,-9.679368019E0,1.339042068E0
3.878868892E1,1.096036434E0,-9.690855026E0,1.027824521E0
3.880870814E1,1.422613144E0,-9.675483704E0,7.290998697E-1
3.882872736E1,1.800816059E0,-9.626404762E0,5.097224116E-1
3.884877710E1,2.257712126E0,-9.537407875E0,3.331605196E-1
3.886879632E1,2.759151220E0,-9.409674644E0,1.245177761E-1
3.888881554E1,3.265310526E0,-9.247057915E0,-6.390578113E-3
3.890880424E1,3.807206154E0,-9.037366867E0,3.966740891E-2
3.892876243E1,4.353469849E0,-8.783048630E0,2.752279937E-1
3.894878165E1,4.847142220E0,-8.503433228E0,6.059978008E-1
3.896870932E1,5.205920219E0,-8.275698662E0,7.626274824E-1
3.898875906E1,5.516686916E0,-8.080604553E0,6.636281610E-1
3.900871724E1,5.822903633E0,-7.868084908E0,5.978460908E-1
3.902867543E1,6.129093647E0,-7.628444672E0,6.414455771E-1
3.904860310E1,6.440057755E0,-7.359295368E0,7.326771617E-1
3.906853077E1,6.748066425E0,-7.067008972E0,8.314987421E-1
3.908842792E1,7.019268036E0,-6.785114288E0,9.286988974E-1
3.910835559E1,7.226839542E0,-6.563795090E0,9.272387624E-1
3.912828326E1,7.358193874E0,-6.433730602E0,7.965472937E-1
3.914821093E1,7.407472610E0,-6.391712666E0,6.676701307E-1
3.916823015E1,7.410332680E0,-6.391760349E0,6.346329451E-1
3.918815782E1,7.395953178E0,-6.403571129E0,6.815870404E-1
3.920814653E1,7.340295315E0,-6.452839851E0,8.070535064E-1
3.922816575E1,7.242423534E0,-6.539293289E0,9.774112105E-1
3.924812393E1,7.121071815E0,-6.656710148E0,1.071881652E0
3.926805160E1,6.968615532E0,-6.820528507E0,1.043642282E0
3.928797927E1,6.750370979E0,-7.044307232E0,9.902771115E-1
3.930787643E1,6.468371391E0,-7.306373119E0,9.733926058E-1
3.932780410E1,6.170814991E0,-7.548484325E0,1.054427862E0
3.934776228E1,5.886558056E0,-7.736299515E0,1.291701674E0
3.936768995E1,5.662657738E0,-7.880693913E0,1.413979530E0
3.938761762E1,5.454054832E0,-8.037828445E0,1.347953677E0
3.940757581E1,5.213301659E0,-8.206750870E0,1.281055689E0
3.942756451E1,4.934949875E0,-8.380786896E0,1.256611586E0
3.944749218E1,4.664528370E0,-8.536512375E0,1.241183758E0
3.946745037E1,4.475404263E0,-8.643109322E0,1.199086428E0
3.948743907E1,4.298329353E0,-8.740596771E0,1.138748050E0
3.950742778E1,4.108674049E0,-8.840088844E0,1.068650365E0
3.952747751E1,3.927422285E0,-8.932291985E0,9.797616005E-1
3.954743570E1,3.736189127E0,-9.027116776E0,8.499842882E-1
3.956742440E1,3.547678709E0,-9.115563393E0,7.006313205E-1
3.958747414E1,3.370164394E0,-9.191164017E0,5.786913037E-1
3.960752388E1,3.193060398E0,-9.258253098E0,5.093898177E-1
3.962757362E1,2.987043619E0,-9.325841904E0,5.259709358E-1
3.964759284E1,2.763809443E0,-9.388861656E0,6.172954440E-1
3.966761206E1,2.561714649E0,-9.434260368E0,7.763637304E-1
3.968763128E1,2.388358116E0,-9.460261345E0,9.846867323E-1
3.970771154E1,2.233053207E0,-9.468856812E0,1.234751105E0
3.972776127E1,2.086264372E0,-9.460909843E0,1.519567609E0
3.974778049E1,1.932267427E0,-9.445783615E0,1.792732120E0
3.976786075E1,1.705430627E0,-9.461393356E0,1.934930563E0
3.978791049E1,1.498271108E0,-9.506602287E0,1.884171247E0
3.980799074E1,1.387329102E0,-9.528508186E0,1.858296871E0
3.982804048E1,1.301925778E0,-9.547401428E0,1.822766066E0
3.984809022E1,1.204775095E0,-9.565384865E0,1.795084834E0
3.986817047E1,1.067180037E0,-9.577181816E0,1.819099426E0
3.988822021E1,8.625725508E-1,-9.592234612E0,1.848077655E0
3.990826995E1,6.438999772E-1,-9.614179611E0,1.823008657E0
3.992822814E1,4.477437735E-1,-9.629396439E0,1.801289916E0
3.994824736E1,3.147092164E-1,-9.630124092E0,1.825391412E0
3.996823606E1,2.490688711E-1,-9.633692741E0,1.816682935E0
3.998819425E1,2.236266732E-1,-9.641676903E0,1.777207255E0
4.000821347E1,2.067199647E-1,-9.651003838E0,1.727947593E0
4.002823269E1,2.045300603E-1,-9.659131050E0,1.682192326E0
4.004825191E1,2.317386717E-1,-9.664861679E0,1.645342112E0
4.006824061E1,3.152589500E-1,-9.664505959E0,1.633500814E0
4.008819880E1,4.702785611E-1,-9.661922455E0,1.611364365E0
4.010821802E1,7.219803929E-1,-9.662104607E0,1.514217973E0
4.012814569E1,1.063045740E0,-9.649847031E0,1.385924220E0
4.014813440E1,1.438148379E0,-9.616238594E0,1.276738405E0
4.016815362E1,1.859882951E0,-9.553322792E0,1.202188492E0
4.018820335E1,2.370269060E0,-9.449981689E0,1.118068814E0
4.020822257E1,2.934949160E0,-9.302972794E0,1.005554795E0
4.022821128E1,3.484321594E0,-9.118236542E0,9.421505332E-1
4.024826102E1,4.038324356E0,-8.878782272E0,1.014680386E0
4.026831075E1,4.593176842E0,-8.572035789E0,1.262273908E0
4.028832998E1,5.061963081E0,-8.263649940E0,1.503004551E0
4.030831868E1,5.448468685E0,-8.012098312E0,1.513552189E0
4.032830738E1,5.832387924E0,-7.759988308E0,1.391479492E0
4.034826557E1,6.182157516E0,-7.512075424E0,1.232893467E0
4.036831531E1,6.496074677E0,-7.263603687E0,1.100676894E0
4.038836504E1,6.785407066E0,-6.990924358E0,1.120543718E0
4.040835375E1,7.058124065E0,-6.684330463E0,1.293453455E0
4.042837297E1,7.295412064E0,-6.402865887E0,1.396661282E0
4.044845322E1,7.497739792E0,-6.172332764E0,1.362571359E0
4.046847244E1,7.636774063E0,-6.020476341E0,1.266460776E0
4.048852218E1,7.672607422E0,-5.992380619E0,1.180203438E0
4.050857192E1,7.613420010E0,-6.068963528E0,1.172138214E0
4.052859114E1,7.491708279E0,-6.204286098E0,1.245605588E0
4.054864088E1,7.314953804E0,-6.388740063E0,1.358625889E0
4.056862959E1,7.091962814E0,-6.611173153E0,1.472031355E0
4.058852674E1,6.807522297E0,-6.894875526E0,1.512854934E0
4.060848492E1,6.486034870E0,-7.222231388E0,1.393243551E0
4.062844311E1,6.085084438E0,-7.573506355E0,1.335723162E0
4.064846233E1,5.515025139E0,-7.940942764E0,1.642052412E0
4.066845104E1,4.919665337E0,-8.285394669E0,1.821953535E0
4.068839679E1,4.470800877E0,-8.522199631E0,1.885320425E0
4.070832446E1,4.223315239E0,-8.639219284E0,1.922984123E0
4.072822160E1,4.007015705E0,-8.736029625E0,1.948332429E0
4.074817978E1,3.770349503E0,-8.852784157E0,1.892901659E0
4.076813796E1,3.555335760E0,-8.971288681E0,1.745267272E0
4.078812666E1,3.418354750E0,-9.065594673E0,1.516659021E0
4.080802381E1,3.342465401E0,-9.137125015E0,1.229339004E0
4.082795147E1,3.264961004E0,-9.195079803E0,9.802730083E-1
4.084787914E1,3.145845413E0,-9.252804756E0,8.121972680E-1
4.086777628E1,2.990081549E0,-9.311640739E0,7.233055234E-1
4.088767343E1,2.801616430E0,-9.372201920E0,6.951069832E-1
4.090763161E1,2.611506701E0,-9.425494194E0,7.144944072E-1
4.092758979E1,2.452620268E0,-9.462710381E0,7.824041843E-1
4.094748694E1,2.331486225E0,-9.481952667E0,9.094646573E-1
4.096738408E1,2.242328882E0,-9.486983299E0,1.067475557E0
4.098728123E1,2.152948141E0,-9.488967896E0,1.222581387E0
4.100717838E1,2.023276567E0,-9.498471260E0,1.362268090E0
4.102704501E1,1.853389740E0,-9.514393806E0,1.487156391E0
4.104697267E1,1.671156883E0,-9.532736778E0,1.582588911E0
4.106686982E1,1.537379146E0,-9.554231644E0,1.588563323E0
4.108688903E1,1.486905098E0,-9.567193031E0,1.558321953E0
4.110693876E1,1.439760685E0,-9.575765610E0,1.549894333E0
4.112701901E1,1.326170921E0,-9.591075897E0,1.556578875E0
4.114703823E1,1.139639139E0,-9.614281654E0,1.561158061E0
4.116711848E1,9.123522043E-1,-9.637899399E0,1.564889669E0
4.118716821E1,6.826146245E-1,-9.655779839E0,1.571734905E0
4.120721794E1,4.821148217E-1,-9.670349121E0,1.556372285E0
4.122726767E1,3.426516950E-1,-9.682891846E0,1.514798760E0
4.124731741E1,2.550114095E-1,-9.690807343E0,1.481085300E0
4.126739766E1,2.233922929E-1,-9.692924500E0,1.472321868E0
4.128744739E1,2.716629803E-1,-9.694077492E0,1.456521869E0
