"Time (s)","Gyroscope x (rad/s)","Gyroscope y (rad/s)","Gyroscope z (rad/s)"
1.177756500E-2,-1.784317940E-1,-3.781688958E-2,5.805691332E-2
3.164421800E-2,-1.784317940E-1,-3.781688958E-2,5.805691332E-2
5.154138700E-2,-1.784317940E-1,-3.781688958E-2,5.805691332E-2
7.143855600E-2,-1.784317940E-1,-3.781688958E-2,5.805691332E-2
9.130520800E-2,-1.256479383E0,-5.699164867E-1,-7.616640925E-1
1.112023770E-1,-1.048752904E0,-1.012001261E-1,-1.075917125E0
1.310995460E-1,-1.027980208E0,6.657902896E-2,-1.225054145E0
1.509661980E-1,-1.312938452E0,2.343581803E-2,-1.186704636E0
1.708633670E-1,-1.726793647E0,-2.588592768E-1,-9.416937828E-1
1.907605360E-1,-1.918008685E0,-7.121292949E-1,-6.455502510E-1
2.106577060E-1,-1.735315800E0,-1.294296265E0,-2.695119083E-1
2.305243570E-1,-1.544100881E0,-9.779127836E-1,-1.757686399E-2
2.504215260E-1,-1.429052234E0,6.753776670E-1,1.651159972E-1
2.703186960E-1,-1.237837315E0,3.132942677E0,4.362258017E-1
2.901853480E-1,-1.379517436E0,4.932706833E0,4.143878818E-1
3.100825180E-1,-1.417866945E0,4.296744347E0,1.336906850E-1
3.299796870E-1,-8.197209835E-1,2.011219263E0,2.460760921E-1
3.498463380E-1,-3.802994192E-1,2.230663776E0,5.842975378E-1
3.697435080E-1,1.422128081E-1,1.713477850E0,6.056028605E-1
3.896406770E-1,1.314536333E0,1.432780623E-1,5.885586143E-1
4.095073290E-1,2.287655354E0,-1.471662879E0,5.789712071E-1
4.294044980E-1,2.368083000E0,-2.142246723E0,5.997439027E-1
4.493016670E-1,2.000034094E0,-2.436792374E0,4.442152679E-1
4.691683190E-1,1.154746652E0,-2.395779848E0,1.384843793E-2
4.890654880E-1,8.607336879E-1,-2.237055302E0,-1.864212751E-2
5.089626570E-1,9.576727748E-1,-3.036536217E0,4.724447727E-1
5.288293100E-1,1.413073301E0,-4.182760715E0,9.337043166E-1
5.487264790E-1,1.910551786E0,-4.940696716E0,1.030643344E0
5.686236480E-1,2.005892992E0,-5.871737480E0,1.258077264E0
5.884903000E-1,1.596298814E0,-6.725014687E0,1.681519985E0
6.083874690E-1,1.025317073E0,-7.057909489E0,2.077798367E0
6.282846380E-1,3.281014562E-1,-7.074421406E0,2.794188738E0
6.481512900E-1,-2.199771106E-1,-7.024886608E0,3.366235733E0
6.680484590E-1,-7.382282615E-1,-7.543137550E0,3.742806673E0
6.879151110E-1,-1.017860174E0,-7.326356411E0,4.013383865E0
7.078122800E-1,-1.028512836E0,-6.576410294E0,4.527906418E0
7.277094490E-1,-9.715211987E-1,-6.034190655E0,5.006210327E0
7.475761020E-1,-5.107942820E-1,-6.016080856E0,5.449892998E0
7.674732710E-1,3.920173049E-1,-6.099171638E0,5.694371223E0
7.873704400E-1,1.442900658E0,-5.560680389E0,5.388640404E0
8.072676080E-1,2.144377232E0,-4.329234600E0,4.619519234E0
8.271342610E-1,2.019208670E0,-2.340918541E0,4.169445038E0
8.470314300E-1,1.425856471E0,7.882957160E-2,3.586212873E0
8.669286000E-1,5.858954787E-1,1.650627255E0,2.860234976E0
8.867952510E-1,3.233077526E-1,2.477805138E0,2.092179298E0
9.066924200E-1,5.161206126E-1,2.166215181E0,1.302818418E0
9.265895900E-1,6.727145314E-1,1.304416299E0,6.114618182E-1
9.464562410E-1,5.629922748E-1,1.015197039E0,2.039981484E-1
9.663534110E-1,1.938781291E-1,8.266451955E-1,-3.834952042E-2
9.862505800E-1,-4.048004746E-2,9.928264618E-1,-1.017327532E-1
1.006117232E0,-2.455434501E-1,1.602690339E0,-3.339604139E-1
1.026014401E0,-4.873584807E-1,1.874865413E0,-3.701793849E-1
1.045881053E0,-6.034722924E-1,1.582983017E0,-2.812298238E-1
1.065778223E0,-3.888215125E-1,4.154531360E-1,-1.789644361E-1
1.085675392E0,1.225054115E-1,-4.266384244E-1,-2.849582434E-1
1.105542043E0,4.383563101E-1,-9.342369437E-1,-2.359560728E-1
1.125439213E0,3.137203753E-1,-8.500810266E-1,-2.530003190E-1
1.145336382E0,-3.462109342E-2,-5.443501472E-1,-5.294364095E-1
1.165203033E0,-8.356999755E-1,-8.575379103E-2,-7.169229984E-1
1.185100203E0,-1.272991061E0,2.759034932E-1,-8.181231022E-1
1.204997372E0,-1.120125532E0,2.998719513E-1,-6.695187092E-1
1.224894541E0,-7.131945491E-1,-8.085356951E-1,-5.416869521E-1
1.244761193E0,-5.970807076E-1,-6.636597514E-1,-4.351605177E-1
1.264658362E0,-1.112136126E0,-2.375539690E-1,-5.262406468E-1
1.284555531E0,-1.565938711E0,1.763012707E-1,-8.042746782E-1
1.304422184E0,-1.605353594E0,-2.716424316E-2,-9.997506738E-1
1.324319353E0,-1.061003447E0,-7.068029642E-1,-1.410942793E0
1.344216522E0,-1.315068960E0,-5.070658922E-1,-1.624528289E0
1.364083174E0,-1.880191803E0,7.829693705E-2,-1.778991699E0
1.383980343E0,-1.950499177E0,3.270362020E-1,-1.932922363E0
1.403846995E0,-1.673530459E0,5.326322280E-4,-2.028796196E0
1.423744164E0,-1.367266893E0,-8.532768488E-1,-2.145975351E0
1.443641333E0,-1.020523310E0,-1.800829530E0,-2.150768995E0
1.463507985E0,-6.439523697E-1,-2.265284777E0,-1.899366498E0
1.483405154E0,-3.920173049E-1,-2.046905756E0,-1.378452182E0
1.503302323E0,-4.207794666E-1,-1.347559571E0,-1.108407617E0
1.523168976E0,-6.178534031E-1,-6.913566589E-1,-9.044095278E-1
1.543066145E0,-6.013417840E-1,-2.604571581E-1,-7.771103978E-1
1.562963314E0,-3.680488765E-1,-9.054748341E-3,-5.965480804E-1
1.582829966E0,-1.091896072E-1,6.924218964E-3,-3.834952116E-1
1.602727135E0,2.103897333E-1,-1.928128600E-1,-2.274339646E-1
1.622624305E0,3.845604658E-1,-4.559331834E-1,-2.205097377E-1
1.642490956E0,3.792341352E-1,-6.077333689E-1,-2.727077007E-1
1.662388125E0,2.748382390E-1,-6.562029123E-1,-3.009372056E-1
1.682285295E0,1.747033745E-1,-5.368933082E-1,-3.403519988E-1
1.702151946E0,1.086569726E-1,-3.328951299E-1,-4.804342687E-1
1.722049115E0,3.089267015E-2,-1.789644361E-1,-7.291735411E-1
1.741946285E0,-6.391586736E-3,-7.563377917E-2,-9.635316730E-1
1.761812937E0,6.285060197E-2,-6.391586363E-2,-1.122256160E0
1.781710107E0,2.386192381E-1,-1.283643693E-1,-1.194161415E0
1.801607276E0,5.411543250E-1,-3.376888335E-1,-1.269795179E0
1.821473927E0,8.186557293E-1,-5.406216979E-1,-1.326254249E0
1.841371097E0,7.717841268E-1,-5.821670294E-1,-1.261273146E0
1.861237748E0,4.101268053E-1,-3.882888854E-1,-1.239967823E0
1.881134918E0,-2.018676102E-1,1.257012039E-1,-1.574460864E0
1.901032087E0,-3.744404614E-1,2.993393242E-1,-1.679922104E0
1.920929256E0,-2.764361203E-1,3.526025414E-1,-1.768871665E0
1.940826425E0,1.043959185E-1,-3.675162420E-2,-1.780589581E0
1.960815146E0,5.629922748E-1,-5.395564437E-1,-1.907356024E0
1.980681798E0,9.757822156E-1,-5.177185535E-1,-2.337722778E0
2.000609483E0,1.164334059E0,-2.178465873E-1,-2.567287445E0
2.020506653E0,1.636246204E0,-1.869539171E-1,-2.237587929E0
2.040373305E0,1.830124378E0,-4.388889670E-1,-1.757153749E0
2.060270475E0,1.663943052E0,-5.193164349E-1,-1.962217093E0
2.080167644E0,1.404018521E0,-3.462109566E-1,-2.073537350E0
2.100064813E0,1.201085687E0,-1.406149119E-1,-1.335309029E0
2.119931465E0,1.026914954E0,1.789644361E-1,-4.032025933E-1
2.139828634E0,4.633900523E-1,1.217064619E0,5.326322317E-1
2.159725803E0,-5.699164793E-2,1.812547445E0,7.499461770E-1
2.179592455E0,-1.826928556E-1,1.286839485E0,1.034371734E0
2.199489624E0,-2.998719513E-1,6.370281577E-1,2.303101778E0
2.219386793E0,-2.780340314E-1,1.030643344E0,3.500991583E0
2.239283962E0,-7.936219871E-2,1.805623293E0,4.359594822E0
2.259181132E0,2.343581766E-1,1.955292940E0,4.248807430E0
2.279108817E0,-5.379585549E-2,1.998436093E0,3.940413237E0
2.299036504E0,-3.840278387E-1,3.066896439E0,3.333745003E0
2.318964190E0,-5.416869521E-1,3.312972546E0,2.763828516E0
2.338922394E0,-7.398261428E-1,3.124420643E0,2.295644999E0
2.358819562E0,-1.327852130E0,3.022155285E0,2.314286947E0
2.378716732E0,-3.390204191E0,4.708468914E-1,2.375007153E0
2.398613901E0,-3.279949188E0,-1.494033456E0,2.452771425E0
2.418572104E0,-8.404936790E-1,-3.110572100E0,2.067145586E0
2.438499791E0,1.476989150E0,-2.231196404E0,1.262871027E0
2.458488512E0,1.956890821E0,-1.828526497E0,9.246495366E-1
2.478568783E0,1.802960038E0,-2.423476696E0,1.554220796E0
2.498557504E0,2.005892992E0,-2.160888910E0,2.903378248E0
2.518515708E0,1.606418848E0,-1.115864515E0,3.537743330E0
2.538534945E0,8.639294505E-1,1.139832959E-1,3.348658800E0
2.558462632E0,4.351605177E-1,7.605988383E-1,2.884203434E0
2.578512386E0,1.709749401E-1,1.867408633E0,2.381931305E0
2.598470590E0,1.810949594E-1,2.041579247E0,1.837581158E0
2.618428793E0,1.182443574E-1,2.225337505E0,1.133973956E0
2.638356479E0,7.456851192E-3,2.090581417E0,7.281082273E-1
2.658314682E0,-4.767058492E-1,4.213120937E-1,-1.864212751E-2
2.678272886E0,-6.082659960E-1,-1.736381054E0,9.203884602E-1
2.698231089E0,-2.865561247E-1,-8.847021461E-1,1.422660708E0
2.718189292E0,9.097358584E-1,8.005462289E-1,8.836368918E-1
2.738147497E0,1.947836041E0,6.838997602E-1,1.545698762E0
2.758044666E0,2.622681141E0,-7.478156686E-1,1.810416937E0
2.777941834E0,2.629072666E0,-1.555818796E0,2.172606945E0
2.797808487E0,1.513208151E0,-1.506816626E0,2.609365225E0
2.817766690E0,4.740426689E-2,-1.648496747E0,1.097755075E0
2.837663859E0,-7.504788041E-1,-1.953162432E0,-7.313040495E-1
2.857561029E0,7.563377917E-2,-2.982740477E-2,-1.328384757E0
2.877488714E0,2.022404671E0,4.303135872E0,-2.615224123E-1
2.897385883E0,6.332997084E-1,2.779274940E0,9.629990458E-1
2.917313570E0,-4.420847595E-1,-5.363606811E-1,3.041862726E0
2.937210739E0,5.203816891E-1,-6.279733777E-1,3.679955959E0
2.957107909E0,4.804342687E-1,-1.544633508E-2,2.380333424E0
2.976974560E0,2.237055302E-1,2.125202566E-1,1.145159304E-1
2.996871730E0,-2.945456207E-1,7.456851006E-2,-1.153148770E0
3.016768899E0,-4.090615511E-1,4.516721368E-1,-1.254881501E0
3.036666068E0,-6.285060197E-2,1.449292302E0,-1.182443500E0
3.056532720E0,2.066612989E-1,2.114549875E0,-1.048752904E0
3.076429889E0,-1.001348570E-1,1.284708977E0,-6.924219131E-1
3.096296541E0,-1.810949594E-1,1.065264463E0,-5.976133347E-1
3.116193710E0,-1.613875628E-1,8.953547478E-1,-5.177185535E-1
3.136090879E0,-6.673882008E-1,4.159857631E-1,-3.435477912E-1
3.155988048E0,-1.600559831E0,3.270361900E0,5.113269389E-2
3.175854701E0,-1.987783432E0,5.164934635E0,2.998719513E-1
3.195751870E0,-1.088700294E0,3.208576441E0,3.190467060E-1
3.215649039E0,-2.854908705E-1,1.032241225E0,9.693906456E-2
3.235515691E0,1.635181010E-1,-1.272991002E-1,1.661812514E-1
3.255412860E0,4.340952635E-1,-3.968110085E-1,3.041329980E-1
3.275310029E0,2.700445354E-1,-1.715075821E-1,3.904194236E-1
3.295176681E0,-2.013349831E-1,3.888215125E-1,5.518069863E-1
3.315073850E0,-6.950850487E-1,8.303736448E-1,3.595267534E-1
3.334940502E0,-4.149205089E-1,8.500810266E-1,2.695119083E-1
3.354837671E0,4.953479767E-2,7.078682184E-1,1.741707325E-1
3.374734840E0,1.683117896E-1,4.436826408E-1,2.572613657E-1
3.394601493E0,2.407497615E-1,3.233077526E-1,3.499393761E-1
3.414498662E0,3.893541694E-1,3.153182864E-1,2.450108230E-1
3.434395831E0,4.436826408E-1,2.982740402E-1,1.299622655E-1
3.454262483E0,3.137203753E-1,3.680488765E-1,-6.924218964E-3
3.474159652E0,3.036003746E-2,3.360909224E-1,-2.711097896E-1
3.494056821E0,-3.131877482E-1,-1.017327532E-1,-6.205165386E-1
3.513953991E0,-5.715143681E-1,-6.407565475E-1,-9.582054019E-1
3.533851160E0,-8.676578999E-1,-6.301039457E-1,-1.105744481E0
3.553748329E0,-1.476989150E0,6.391586363E-2,-9.459548593E-1
3.573706532E0,-2.239718437E0,1.314536333E0,-9.246495366E-1
3.593603702E0,-2.008556128E0,1.513208151E0,-1.155811906E0
3.613500871E0,-2.207227945E0,2.588592529E0,-1.646366239E0
3.633398039E0,-1.702825189E0,2.491120815E0,-1.925465465E0
3.653356243E0,1.699096859E-1,1.941444516E0,-1.729456902E0
3.673253412E0,9.821738005E-1,2.095375299E0,-1.954227686E0
3.693181098E0,-2.828277051E-1,2.178465873E-1,-2.169943810E0
3.713108785E0,-6.380934119E-1,-1.565406084E0,-2.278600693E0
3.733005953E0,-3.025351167E-1,-1.471662879E0,-2.429335594E0
3.752903123E0,1.384843793E-2,-4.580637217E-1,-2.021339417E0
3.772800292E0,2.556634694E-2,1.518001854E-1,-1.736381054E0
3.792727979E0,1.704423130E-2,-9.161274135E-2,-1.731054783E0
3.812594630E0,1.070590764E-1,-4.825648069E-1,-1.710814714E0
3.832491799E0,2.130528986E-1,-7.068029642E-1,-1.647964120E0
3.852388969E0,-3.249056637E-2,-6.135923266E-1,-1.655953646E0
3.872286138E0,-1.885518134E-1,-9.512811303E-1,-1.731054783E0
3.892213825E0,-1.198422536E-1,-3.312972486E-1,-1.581385136E0
3.912141510E0,7.563377917E-2,5.912217870E-2,-1.242630959E0
3.932099714E0,1.006674916E-1,-2.407497615E-1,-7.329019308E-1
3.952088435E0,1.177117229E-1,-1.709749401E-1,-2.354234457E-1
3.972016120E0,1.832254827E-1,8.149272949E-2,-1.752360016E-1
3.991913290E0,3.371562064E-1,-3.137203753E-1,-1.480717659E-1
4.011810459E0,4.830974340E-1,-4.255731404E-1,2.428802997E-1
4.031677111E0,5.395564437E-1,-7.829693705E-2,4.069310129E-1
4.051574281E0,5.709817410E-1,7.350324839E-2,5.976133347E-1
4.071471449E0,5.246427655E-1,-3.131877482E-1,6.295713186E-1
4.091338102E0,5.528722405E-1,-2.865561247E-1,6.034722924E-1
4.111235271E0,6.295713186E-1,3.195793182E-2,9.129316211E-1
4.131132440E0,7.222493291E-1,2.604571581E-1,1.396561742E0
4.150999092E0,7.914915085E-1,1.699096859E-1,1.854625463E0
4.170896261E0,8.372978568E-1,-8.538094759E-1,2.478870392E0
4.190793430E0,2.551308274E-1,-8.207862377E-1,2.757969618E0
4.210660082E0,5.065332651E-1,1.300155282E0,1.925465465E0
4.230557251E0,7.174556255E-1,7.478156686E-1,1.524926066E0
4.250423904E0,6.125270724E-1,-2.253034264E-1,1.140898228E0
4.270321073E0,8.351673484E-1,-1.131843448E0,1.625060916E0
4.290218241E0,7.344998717E-1,-1.130778193E0,2.492718935E0
4.310084894E0,4.958806038E-1,-1.221858382E0,3.324157715E0
4.329982063E0,1.688444167E-1,-1.557416677E0,3.912716389E0
4.349879232E0,-2.998719513E-1,-8.564726114E-1,3.807255268E0
4.369776401E0,-1.651159972E-1,-6.641923785E-1,3.068494320E0
4.389673570E0,-1.507349163E-1,-1.101483464E0,2.402704000E0
4.409540222E0,-3.888215125E-1,-1.657551527E0,2.114017248E0
4.429437391E0,-5.720469952E-1,-2.237055302E0,1.795503259E0
4.449365077E0,-6.141249537E-1,-2.198705912E0,1.484978676E0
4.469262246E0,-1.267664731E-1,-1.973402381E0,1.396561742E0
4.489128899E0,6.908239722E-1,-1.692172647E0,1.222923636E0
4.509026068E0,1.213336229E0,-1.628256679E0,1.013066530E0
4.528923237E0,1.191498280E0,-9.837717414E-1,-2.157160491E-1
4.548850923E0,9.779127836E-1,-6.141249537E-1,-1.043959141E0
4.568748092E0,8.735168576E-1,-4.170510471E-1,-1.068992853E0
4.588645262E0,3.659183383E-1,3.557983339E-1,-9.523464441E-1
4.608511913E0,-5.597964525E-1,9.592706561E-1,-8.628641963E-1
4.628409083E0,-1.172323585E0,-3.064765930E0,1.720402092E-1
4.648275735E0,-2.423476577E-1,-1.918541312E0,8.894958496E-1
4.668172904E0,4.655205607E-1,1.607484102E0,8.452873230E-1
4.688070073E0,5.379585549E-2,4.124703884E0,3.419498801E-1
4.707967242E0,-2.929477394E-1,4.118312359E0,-7.030745596E-2
4.727833894E0,-4.506068528E-1,2.936401367E0,2.737729549E-1
4.747731064E0,-2.737729549E-1,1.447161794E0,8.431568146E-1
4.767628233E0,3.307646215E-1,1.605886221E0,1.644768357E0
4.787494885E0,9.688580036E-1,9.677927494E-1,3.155845881E0
4.807392054E0,7.941546440E-1,-1.209075153E-1,3.088734388E0
4.827289223E0,4.788363874E-1,-2.695119083E-1,1.831189632E0
4.847155875E0,4.106594622E-1,-2.945456207E-1,8.772453070E-1
4.867053044E0,3.632551730E-1,2.716424316E-2,1.097222418E-1
4.886950213E0,2.822950780E-1,5.592638254E-1,-6.093312502E-1
4.906877900E0,3.142530099E-2,8.783105612E-1,-7.542072535E-1
4.926836103E0,-2.364887148E-1,5.235774517E-1,-6.934871674E-1
4.946733272E0,-4.250405133E-1,-3.009372056E-1,-7.510114312E-1
4.966630442E0,-5.091964006E-1,-1.211738348E0,-8.122641444E-1
4.986588645E0,-6.077333689E-1,-1.941444516E0,-8.202536106E-1
5.006516331E0,-1.053546548E0,-2.025600433E0,-8.612663150E-1
5.026413500E0,-1.570732474E0,-1.114266634E0,-1.073786616E0
5.046310669E0,-1.563808203E0,2.151834220E-1,-1.438639641E0
5.066177321E0,-1.284708977E0,1.446629167E0,-1.938781261E0
5.086074490E0,-1.155811906E0,2.378202915E0,-2.276470184E0
5.106002177E0,-1.177117229E0,2.495382071E0,-2.481533527E0
5.125960380E0,-1.066862345E0,2.194977522E0,-2.631735802E0
5.145949101E0,-7.020092607E-1,1.858353853E0,-2.661030531E0
5.165815753E0,-5.012069345E-1,1.496163964E0,-2.705239058E0
5.185743439E0,-7.254450917E-1,1.422128081E0,-2.951847792E0
5.205671125E0,-9.667274952E-1,1.365669012E0,-3.280481815E0
5.225659846E0,-7.930893898E-1,9.992180467E-1,-3.401921988E0
5.245587532E0,-4.207794666E-1,5.725796223E-1,-3.055178404E0
5.265484701E0,-2.743056118E-1,2.109223604E-1,-2.680737972E0
5.285381870E0,-4.335626364E-1,8.309062570E-2,-2.590723038E0
5.305279039E0,-5.374259353E-1,1.874865443E-1,-2.574211597E0
5.325176209E0,-4.431500137E-1,7.275756001E-1,-2.569417953E0
5.345073378E0,-2.977414131E-1,1.007740140E0,-2.318548203E0
5.364970547E0,-2.114549875E-1,4.543353021E-1,-1.712945223E0
5.384867716E0,-1.629854590E-1,-5.518069863E-1,-8.948221207E-1
5.404764885E0,-5.379585549E-2,-7.424893379E-1,-5.763080716E-1
5.424662055E0,1.443433315E-1,-2.620550692E-1,-4.495415986E-1
5.444559224E0,3.856257200E-1,3.115898669E-1,-3.004045784E-1
5.464425876E0,5.906891227E-1,7.755125165E-1,-1.778991669E-1
5.484353561E0,5.795038939E-1,9.161274433E-1,-5.326322466E-2
5.504281248E0,5.342301130E-1,7.360977530E-1,1.049285457E-1
5.524208935E0,5.986786485E-1,7.084008455E-1,3.366235793E-1
5.544106103E0,6.327670813E-1,5.368933082E-1,5.454154015E-1
5.564033790E0,5.672533512E-1,1.491370238E-2,8.090683818E-1
5.583961476E0,4.474110603E-1,-4.708468914E-1,1.082308650E0
5.603889162E0,2.940129936E-1,-1.255414128E0,1.099352956E0
5.623816849E0,2.716424316E-2,-3.787015080E-1,1.061536074E0
5.643714017E0,6.721818447E-1,2.355832338E0,1.361407995E0
5.663611187E0,6.966829300E-1,1.777393699E0,1.456216455E0
5.683508356E0,5.113269091E-1,-1.821602285E-1,1.227184653E0
5.703405525E0,6.705839634E-1,-1.230380416E0,1.165931940E0
5.723272178E0,6.034722924E-1,-1.325721622E0,1.257544637E0
5.743169347E0,4.607268870E-1,-1.022121191E0,1.538241863E0
5.763066515E0,3.265035450E-1,-3.483414650E-1,1.661279917E0
5.782963684E0,2.428802997E-1,3.360909224E-1,1.469532371E0
5.802891371E0,5.805691332E-2,4.213120937E-1,1.308144808E0
5.822758023E0,-1.810949668E-2,1.544633508E-1,1.217064619E0
5.842655192E0,1.757686399E-2,-1.651159972E-1,1.401355386E0
5.862552361E0,1.065264493E-1,-6.285060048E-1,1.590439796E0
5.882419014E0,1.709749401E-1,-8.468852639E-1,1.571797729E0
5.902316182E0,2.434129268E-1,-1.010403395E0,1.378452182E0
5.922213351E0,3.414172530E-1,-1.140365601E0,1.162736177E0
5.942080004E0,3.584614992E-1,-1.346494317E0,1.116397142E0
5.961977173E0,4.809668958E-1,-1.209075212E0,1.069525480E0
5.981874342E0,6.833671331E-1,-9.981527925E-1,9.672601223E-1
6.001740994E0,7.590008974E-1,-7.744472623E-1,8.500810266E-1
6.021638163E0,6.178534031E-1,-3.185140789E-1,6.849650741E-1
6.041535332E0,3.872236311E-1,-4.474110901E-2,5.310343504E-1
6.061401984E0,2.300971150E-1,-1.278317347E-2,3.158509135E-1
6.081329671E0,2.524676621E-1,2.263686955E-1,1.565938741E-1
6.101196322E0,3.073287904E-1,4.660531878E-1,1.193096191E-1
6.121093492E0,3.067961633E-1,6.514092088E-1,1.182443574E-1
6.141021178E0,2.306297570E-1,7.153250575E-1,1.810949594E-1
6.160918348E0,1.432780623E-1,7.787083387E-1,3.057309091E-1
6.180815516E0,4.580637068E-2,6.977482438E-1,4.474110603E-1
6.200743203E0,-1.496696621E-1,3.233077526E-1,4.783037305E-1
6.220670888E0,-2.460760921E-1,3.941478580E-2,4.575310946E-1
6.240598575E0,-2.045307755E-1,1.539307088E-1,3.984089196E-1
6.260495744E0,-7.510114461E-2,2.434129268E-1,4.277036786E-1
6.280362396E0,8.362326026E-2,1.331580579E-1,5.273059011E-1
6.300259565E0,3.115898669E-1,1.970739290E-2,6.093312502E-1
6.320156734E0,3.978762627E-1,3.755057156E-1,5.603290796E-1
6.340053904E0,2.854908705E-1,6.471481323E-1,4.431500137E-1
6.359981590E0,9.960222989E-2,5.699164867E-1,4.266384244E-1
6.379878760E0,-5.006742850E-2,3.259709179E-1,5.289037824E-1
6.399775928E0,-6.018744037E-2,-1.091896072E-1,4.969458580E-1
6.419642581E0,3.408846259E-2,-4.985437691E-1,3.169161677E-1
6.439570266E0,-8.522115648E-3,-5.832322836E-1,-3.302319720E-2
6.459497953E0,-6.253102422E-1,-4.005394280E-1,-5.928196907E-1
6.479395122E0,-1.399224877E0,5.699164793E-2,-1.076982379E0
6.499292292E0,-1.666073561E0,6.540724039E-1,-1.396561742E0
6.519158943E0,-1.679922104E0,1.021055937E0,-1.508414507E0
6.539086630E0,-1.504153371E0,6.631271243E-1,-1.591505051E0
6.558983799E0,-9.922938347E-1,-1.065264456E-2,-1.829591751E0
6.578880968E0,-3.627225459E-1,-1.629854590E-1,-1.925465465E0
6.598778137E0,-2.247707993E-1,1.165931940E0,-2.147040606E0
6.618675306E0,-8.165252209E-1,2.775546551E0,-2.289785862E0
6.638572475E0,-1.179780364E0,3.396063089E0,-2.351038694E0
6.658500162E0,-4.900216460E-1,1.776328444E0,-2.588592529E0
6.678397331E0,-1.070590764E-1,-4.447479248E-1,-2.612560987E0
6.698294500E0,-4.964132309E-1,-9.161274433E-1,-2.589657784E0
6.718222186E0,-3.115898669E-1,-2.711097896E-1,-2.315352201E0
6.738119355E0,-2.039981484E-1,7.190535069E-1,-2.279665947E0
6.758016524E0,-3.845604658E-1,6.082659960E-1,-2.226402760E0
6.777944211E0,-3.909520507E-1,-3.877562582E-1,-2.129996300E0
6.797871897E0,-2.849582434E-1,-7.930893898E-1,-1.959553957E0
6.817799584E0,-1.821602285E-1,-5.858954787E-1,-1.701227307E0
6.837757787E0,-1.049285457E-1,-4.559331834E-1,-1.241565704E0
6.857654956E0,-1.065264456E-3,-3.808320463E-1,-8.431568146E-1
6.877613160E0,1.230380461E-1,-1.187769845E-1,-4.697816372E-1
6.897510329E0,1.565938741E-1,3.121224940E-1,-2.700445354E-1
6.917468532E0,2.625876963E-1,5.352953672E-1,-1.187769845E-1
6.937426735E0,5.065332651E-1,5.400890708E-1,1.970739290E-2
6.957354421E0,7.094660997E-1,2.119876295E-1,2.130528986E-1
6.977221074E0,6.588660479E-1,-2.732403278E-1,5.656554103E-1
6.997118243E0,6.402239203E-1,-4.458131790E-1,7.712514400E-1
7.017015412E0,6.759102941E-1,-4.202468395E-1,1.036502361E0
7.036882064E0,6.466155052E-1,-4.117247164E-1,1.288969994E0
7.056779233E0,5.805691481E-1,-4.436826408E-1,1.501490235E0
7.076676402E0,5.273059011E-1,-2.364887148E-1,1.584580898E0
7.096543054E0,3.920173049E-1,3.067961633E-1,1.400290132E0
7.116440223E0,1.464738697E-1,1.198955178E0,1.122256160E0
7.136337392E0,3.179814517E-1,7.787083387E-1,5.566006899E-1
7.156234562E0,1.944107562E-1,5.219795927E-2,2.844256163E-1
7.176131731E0,3.158509135E-1,-8.143946528E-1,5.763080716E-1
7.196028900E0,5.134574771E-1,-1.399224877E0,1.001348615E0
7.215926069E0,7.211840153E-1,-1.424258590E0,1.434911251E0
7.235823238E0,7.558051348E-1,-8.916263580E-1,1.761947393E0
7.255720408E0,6.194512844E-1,-3.057309091E-1,1.840244293E0
7.275648093E0,4.910869002E-1,-1.438107044E-1,1.298024774E0
7.295545263E0,-5.326322466E-2,5.012069345E-1,8.655273914E-1
7.315442432E0,-2.018676102E-1,1.229315162E0,9.752495885E-1
7.335370119E0,1.326254308E-1,1.449292302E0,1.278849959E0
7.355267288E0,2.604571581E-1,6.221144199E-1,1.391235352E0
7.375133940E0,1.752360016E-1,-6.002765298E-1,1.331047893E0
7.395031109E0,-7.456851192E-3,-1.382180691E0,1.083906531E0
7.414928278E0,-4.633900523E-2,-1.195759296E0,9.507485032E-1
7.434825447E0,-3.781688958E-2,-4.186489284E-1,7.483482957E-1
7.454692099E0,5.326322280E-3,-5.219795927E-2,7.574030161E-1
7.474589268E0,1.257012039E-1,-2.135855258E-1,9.512811303E-1
7.494486437E0,3.765709996E-1,-5.656554103E-1,1.021055937E0
7.514414124E0,6.210491657E-1,-9.720538259E-1,1.012533903E0
7.534280776E0,7.329019308E-1,-1.213868856E0,8.559399843E-1
7.554177945E0,6.849650741E-1,-1.000283360E0,5.640575290E-1
7.574075114E0,4.575310946E-1,-2.684466541E-1,4.607268870E-1
7.593972283E0,2.082591951E-1,2.077265680E-1,5.273059011E-1
7.613838935E0,2.039981484E-1,3.472762108E-1,5.209143162E-1
7.633736104E0,4.506068528E-1,6.823018789E-1,4.942827225E-1
7.653602756E0,3.984089196E-1,1.226119399E0,5.134574771E-1
7.673499925E0,2.450108156E-2,9.608685374E-1,4.969458580E-1
7.693397094E0,-4.633900523E-2,4.410194755E-1,5.075985193E-1
7.713263747E0,8.202536404E-2,1.139832959E-1,5.555354357E-1
7.733160916E0,1.347559541E-1,5.326322280E-3,5.150553584E-1
7.753058084E0,1.022653878E-1,-2.876213938E-2,4.351605177E-1
7.772955254E0,3.941478580E-2,-3.994741663E-2,3.643204570E-1
7.792821906E0,6.391586363E-2,7.989482954E-3,2.737729549E-1
7.812719075E0,1.406149119E-1,2.316950262E-1,1.571265012E-1
7.832616245E0,1.283643693E-1,4.873584807E-1,5.699164793E-2
7.852513414E0,-2.609897964E-2,5.475459099E-1,3.728425503E-2
7.872380066E0,-7.669904083E-2,3.233077526E-1,1.241033077E-1
7.892277235E0,4.474110901E-2,1.454086006E-1,2.844256163E-1
7.912204921E0,2.210423797E-1,-7.243798673E-2,3.973436356E-1
7.932071573E0,3.478088379E-1,-3.579288721E-1,3.984089196E-1
7.951968742E0,3.296993375E-1,-4.037352204E-1,3.376888335E-1
7.971865912E0,5.113269389E-2,-9.374327213E-2,-5.060006306E-2
7.991732563E0,-4.085289240E-1,1.257012039E-1,-4.820321798E-1
8.011629733E0,-7.627293468E-1,-2.077265643E-2,-6.487460732E-1
8.031496384E0,-1.040763378E0,-5.091964006E-1,-7.781757116E-1
8.051393553E0,-1.231445670E0,-7.195861340E-1,-9.422264099E-1
8.071290723E0,-1.127049804E0,-2.806971967E-1,-1.193628788E0
8.091157374E0,-8.271778226E-1,2.721750736E-1,-1.475391269E0
8.111054543E0,-5.651227832E-1,5.747101903E-1,-1.855158091E0
8.130951713E0,-6.215817928E-1,8.905611038E-1,-2.360093355E0
8.150818365E0,-1.116397142E0,2.183259487E0,-2.736664295E0
8.170715535E0,-1.487109184E0,3.476490498E0,-2.767024517E0
8.190582186E0,-1.196824670E0,3.746002436E0,-2.618420124E0
8.210479355E0,4.106594622E-1,2.154497385E0,-2.666889668E0
8.230376525E0,-1.528654546E-1,-2.093244642E-1,-2.920422554E0
8.250243176E0,-8.458199501E-1,-1.131310821E0,-2.740925550E0
8.270140346E0,-5.550028086E-1,-1.245826840E0,-2.348908186E0
8.290037515E0,-3.286340833E-1,-1.217597246E0,-2.351038694E0
8.309904166E0,-6.945524216E-1,-5.986786485E-1,-2.632268429E0
8.329801336E0,-8.964200616E-1,9.480853379E-2,-2.652508497E0
8.349667988E0,-5.166532397E-1,2.103897333E-1,-2.440520763E0
8.369565157E0,-3.201119602E-1,-4.612595141E-1,-2.155562639E0
8.389462327E0,-3.941478431E-1,-1.105744481E0,-1.737446308E0
8.409328978E0,-3.526025414E-1,-1.119060278E0,-1.229847789E0
8.429226148E0,-2.812298238E-1,-6.966829300E-1,-6.913566589E-1
8.449123317E0,-3.036003709E-1,-1.810949594E-1,-2.977414131E-1
8.469020486E0,-3.398193717E-1,2.050634027E-1,-1.166464612E-1
8.488887138E0,-2.860234976E-1,6.695187092E-1,2.130528912E-2
8.508784307E0,-3.408846259E-2,7.904262543E-1,1.544633508E-1
8.528681476E0,2.785666585E-1,5.544701219E-1,3.259709179E-1
8.548578645E0,4.426173866E-1,1.390170157E-1,5.960154533E-1
8.568475815E0,4.942827225E-1,2.503371425E-2,7.957525253E-1
8.588372984E0,6.759102941E-1,3.994741663E-2,9.464874864E-1
8.608239635E0,8.564726114E-1,8.309062570E-2,1.171258211E0
8.628136805E0,8.511462808E-1,-5.858954415E-2,1.435443878E0
8.648003457E0,5.992112756E-1,-2.705771625E-1,1.514806032E0
8.667900625E0,6.817692518E-1,-7.137271762E-2,1.434378624E0
8.687797795E0,6.631271243E-1,1.425323844E0,1.506283998E0
8.707664447E0,8.271778226E-1,1.359277487E0,9.901633263E-1
8.727561617E0,2.876214087E-1,1.635181010E-1,5.150553584E-1
8.747428268E0,4.143878818E-1,-1.532382965E0,6.705839634E-1
8.767325437E0,6.466155052E-1,-2.265817404E0,1.183508754E0
8.787222607E0,8.942894936E-1,-1.792307496E0,1.652757764E0
8.807119776E0,8.751147389E-1,-6.897587180E-1,1.839711666E0
8.826986428E0,8.799084425E-1,1.230380461E-1,1.748631597E0
8.846883597E0,6.748450398E-1,8.191883564E-1,1.226652026E0
8.866780766E0,3.515372574E-1,1.065797091E0,8.261125684E-1
8.886647418E0,2.359560728E-1,8.607336879E-1,9.331716895E-1
8.906544587E0,3.046656251E-1,7.073355913E-1,1.089232922E0
8.926441756E0,5.470132828E-1,6.130596995E-1,1.265001535E0
8.946308409E0,5.656554103E-1,4.111920893E-1,1.261273146E0
8.966205578E0,4.990763962E-1,3.249056637E-2,1.260207891E0
8.986072230E0,4.873584807E-1,-1.635181010E-1,1.215466738E0
9.005969399E0,4.735100567E-1,-2.024002522E-1,1.168062449E0
9.025866568E0,4.383563101E-1,-2.354234457E-1,1.080178142E0
9.045733220E0,4.133225977E-1,-3.419498801E-1,9.459548593E-1
9.065630389E0,3.701793849E-1,-6.332997084E-1,8.149272799E-1
9.085527558E0,2.940129936E-1,-8.543421030E-1,7.558051348E-1
9.105394210E0,2.290318608E-1,-7.824367285E-1,8.021441102E-1
9.125291379E0,1.981391907E-1,-5.278385282E-1,8.660600185E-1
9.145188548E0,2.316950262E-1,-2.886866629E-1,9.022790194E-1
9.165055201E0,2.178465873E-1,-2.269013226E-1,9.289106131E-1
9.184952370E0,1.230380461E-1,-3.941478431E-1,9.976201653E-1
9.204849539E0,7.669904083E-2,-6.380934119E-1,9.720538259E-1
9.224716191E0,2.545982003E-1,-5.336974859E-1,7.680556774E-1
9.244613360E0,4.857605994E-1,-1.475391239E-1,5.539374948E-1
9.264510529E0,5.198490620E-1,3.169161677E-1,2.609897852E-1
9.284377181E0,3.696467578E-1,8.543421030E-1,-3.728425503E-2
9.304274350E0,1.970739216E-1,1.328384757E0,-2.577939928E-1
9.324171519E0,1.022653878E-1,1.911617041E0,-4.367584288E-1
9.344038171E0,6.657902896E-2,2.496979952E0,-5.619270205E-1
9.363935340E0,-1.027980223E-1,2.634931564E0,-4.676510990E-1
9.383832510E0,-3.755057156E-1,2.152366877E0,-2.551308274E-1
9.403729679E0,-5.262406468E-1,1.441835403E0,-1.917476021E-2
9.423596331E0,-4.985437691E-1,8.463526368E-1,2.221076339E-1
9.443493501E0,-4.048005044E-1,2.759034932E-1,4.165183902E-1
9.463360152E0,-2.024002522E-1,-2.311623842E-1,4.788363874E-1
9.483257321E0,1.241033077E-1,-2.444781959E-1,4.149205089E-1
9.503154491E0,3.632551730E-1,1.949433982E-1,2.455434501E-1
9.523021142E0,3.243730366E-1,6.562029123E-1,8.841694891E-2
9.542918312E0,-2.130528912E-2,1.451422811E0,-7.563377917E-2
9.562784963E0,-4.905542731E-1,1.819471717E0,-1.997370869E-1
9.582682132E0,-7.424893379E-1,1.981924534E0,-2.865561247E-1
9.602579302E0,-6.950850487E-1,2.127865791E0,-3.504720032E-1
9.622445954E0,-6.471481323E-1,1.829059124E0,-3.094593287E-1
9.642343124E0,-6.679208279E-1,1.330515265E0,-2.199771106E-1
9.662240293E0,-6.332997084E-1,1.013599157E0,-3.057309091E-1
9.682106944E0,-5.438175201E-1,8.980179429E-1,-7.755125165E-1
9.702004114E0,-3.941478431E-1,1.169660330E0,-1.234641552E0
9.721901283E0,-3.094593287E-1,1.646366239E0,-1.400290132E0
9.741798452E0,-7.552725077E-1,3.359844208E0,-1.616538763E0
9.761665104E0,-2.395247221E0,4.858138561E0,-1.956890821E0
9.781562273E0,-2.919357300E0,5.130846024E0,-2.136920452E0
9.801489960E0,-2.199238539E0,3.755589724E0,-2.159823656E0
9.821356611E0,-2.088983536E0,1.732120037E0,-2.161954165E0
9.841253781E0,-2.100168943E0,6.684534550E-1,-2.061286688E0
9.861120432E0,-1.989914060E0,1.072188616E0,-1.667138815E0
9.881017601E0,-1.831189632E0,1.845570683E0,-1.165931940E0
9.900914771E0,-1.641039848E0,1.938781261E0,-6.034722924E-1
9.920811940E0,-1.258077264E0,1.307612062E0,-1.901497096E-1
9.940709109E0,-7.504788041E-1,4.862932265E-1,5.326322466E-2
9.960575761E0,-5.379585624E-1,7.494135499E-1,9.800432622E-2
9.980472930E0,-7.403587699E-1,1.569134593E0,6.072007492E-2
1.000037010E1,-8.980179429E-1,1.920139194E0,-2.290318534E-2
1.002026727E1,-8.143946528E-1,1.820004344E0,-1.033306494E-1
1.004016444E1,-5.395564437E-1,1.381647944E0,-2.380866110E-1
1.006006161E1,-4.479437172E-1,9.358348250E-1,-1.549959779E-1
1.007995878E1,-3.866910040E-1,2.982740402E-1,1.091896072E-1
1.009982543E1,-3.249056637E-1,-2.860234976E-1,4.767058492E-1
1.011972260E1,-2.540655732E-1,-5.352953672E-1,8.277105093E-1
1.013958925E1,-1.065264493E-1,-4.862932265E-1,1.098287702E0
1.015948642E1,1.310275346E-1,-1.187769845E-1,1.246892095E0
1.017938359E1,3.217098713E-1,6.024070382E-1,1.292165756E0
1.019928076E1,3.467435837E-1,1.324123740E0,1.277784705E0
1.021914741E1,2.801645398E-1,1.768871665E0,1.268729925E0
1.023904458E1,2.503371537E-1,1.888713837E0,1.103081346E0
1.025894175E1,2.194444835E-1,1.804025412E0,7.749798894E-1
1.027880840E1,2.221076339E-1,1.851429582E0,5.608617067E-1
1.029870557E1,7.616640627E-2,1.510545015E0,2.290318534E-2
1.031860274E1,3.195793368E-3,6.812366247E-1,-1.970739216E-1
1.033846939E1,1.464738697E-1,-3.893541694E-1,-1.310275346E-1
1.035836656E1,4.000068009E-1,-1.413605928E0,-7.456851192E-3
1.037826373E1,6.583334208E-1,-1.948368669E0,1.826928556E-1
1.039816090E1,7.845672965E-1,-1.922802329E0,2.466087192E-1
1.041802755E1,4.474110901E-2,-3.478088379E-1,1.155811921E-1
1.043792472E1,-3.078614175E-1,1.233576298E0,-6.450176239E-1
1.045782189E1,-2.396845073E-1,1.700162053E0,-1.124386668E0
1.047771906E1,-3.419498801E-1,1.786981106E0,-1.094026566E0
1.049758571E1,0.000000000E0,1.338504791E0,-1.055677056E0
1.051748288E1,3.382214606E-1,7.020092607E-1,-9.811085463E-1
1.053738005E1,2.609897852E-1,1.981391907E-1,-5.566006899E-1
1.055727722E1,1.832254827E-1,3.142530099E-2,-5.432848632E-2
1.057714387E1,1.411475390E-1,-9.054748341E-3,1.555286050E-1
1.059704104E1,-3.568635881E-2,-1.651159860E-2,2.482066154E-1
1.061693821E1,-2.045307755E-1,2.279665917E-1,3.371562064E-1
1.063680486E1,-2.130528986E-1,7.499461770E-1,5.667206645E-1
1.065670203E1,-4.793690052E-3,7.904262543E-1,6.322344542E-1
1.067659920E1,1.960086524E-1,1.326254308E-1,6.205165386E-1
1.069646585E1,3.584614992E-1,-7.680556774E-1,6.338323355E-1
1.071636302E1,5.118595958E-1,-1.005609632E0,6.908239722E-1
1.073626019E1,4.186489284E-1,-7.350324839E-2,5.949501991E-1
1.075612684E1,-9.054748341E-3,3.563309610E-1,2.359560728E-1
1.077602401E1,-3.840278387E-1,4.788363874E-1,-1.976065636E-1
1.079589066E1,-3.808320463E-1,8.266451955E-1,-3.797667921E-1
1.081578783E1,-2.689792812E-1,1.169127703E0,-4.298342168E-1
1.083568500E1,-2.775014043E-1,1.464205980E0,-4.218447208E-1
1.085555165E1,-3.366235793E-1,1.734783173E0,-3.787015080E-1
1.087544882E1,-3.163835406E-1,1.957423449E0,-1.784317940E-1
1.089534599E1,-2.322276533E-1,1.746501088E0,1.304948926E-1
1.091524316E1,-1.384843737E-1,1.247957349E0,3.115898669E-1
1.093510981E1,-3.888215125E-2,1.102548718E0,3.584614992E-1
1.095500698E1,6.657902896E-2,1.153681397E0,3.797667921E-1
1.097490415E1,7.456851006E-2,1.318264723E0,3.962783813E-1
1.099477080E1,1.597896684E-3,1.679389358E0,4.229099751E-1
1.101466797E1,-1.267664731E-1,2.230131149E0,3.872236311E-1
1.103456514E1,-2.577939928E-1,3.184075356E0,2.503371537E-1
1.105443179E1,-3.648530841E-1,3.033340454E0,3.834952042E-2
1.107432896E1,-2.860234976E-1,2.412291288E0,-7.350324839E-2
1.109422613E1,-5.166532472E-2,2.174204826E0,-5.006742850E-2
1.111409278E1,1.613875628E-1,1.846635938E0,-1.400822699E-1
1.113398995E1,5.699164793E-2,1.690574646E0,-3.036003709E-1
1.115388712E1,-2.226402760E-1,1.609614611E0,-3.691141307E-1
1.117378429E1,-4.154531360E-1,1.425856471E0,-3.589941263E-1
1.119365094E1,-3.270362020E-1,1.256479383E0,-2.844256163E-1
1.121354811E1,-1.118527651E-1,1.152083516E0,-1.885518134E-1
1.123344528E1,-2.396845073E-2,1.065264463E0,-1.107875034E-1
1.125331193E1,-1.081243455E-1,1.052481294E0,-3.728425503E-2
1.127320910E1,-2.024002522E-1,1.071655989E0,-1.118527725E-2
1.129310627E1,-2.050634027E-1,1.157942414E0,-9.054748341E-3
1.131300344E1,-1.549959779E-1,1.351820588E0,6.924218964E-3
1.133287009E1,-1.363538504E-1,1.539839745E0,-1.118527725E-2
1.135276726E1,-2.066612989E-1,1.596831441E0,2.609897964E-2
1.137266443E1,-3.046656251E-1,1.484978676E0,1.145159304E-1
1.139256160E1,-3.238403797E-1,1.384311199E0,1.864212751E-1
1.141242825E1,-3.009372056E-1,1.246892095E0,2.306297570E-1
1.143232542E1,-2.822950780E-1,1.080178142E0,2.583266199E-1
1.145222259E1,-2.711097896E-1,9.917612076E-1,2.423476577E-1
1.147208924E1,-2.876214087E-1,9.544769526E-1,1.741707325E-1
1.149198641E1,-2.380866110E-1,1.027447581E0,2.428802997E-1
1.151188358E1,-8.362326026E-2,1.007740140E0,3.211772442E-1
1.153175023E1,8.948221803E-2,8.495483994E-1,3.510046303E-1
1.155164740E1,2.412824035E-1,6.077333689E-1,4.724447727E-1
1.157154457E1,3.584614992E-1,4.777711034E-1,4.538026452E-1
1.159141122E1,4.500742257E-1,7.270429730E-1,-3.781688958E-2
1.161130839E1,3.781688958E-2,1.013066530E0,-3.456783295E-1
1.163120556E1,-5.273059011E-1,9.789780378E-1,-5.299690962E-1
1.165107221E1,-9.651296139E-1,8.910937309E-1,-9.033442736E-1
1.167096938E1,-9.848369956E-1,1.078580260E0,-1.151550889E0
1.169086655E1,-9.795106649E-1,1.271393180E0,-1.228782535E0
1.171076372E1,-1.098820329E0,1.240500450E0,-1.254881501E0
1.173066089E1,-1.120125532E0,1.086569786E0,-1.195226669E0
1.175055806E1,-9.970875382E-1,9.805759192E-1,-1.107342362E0
1.177051626E1,-7.504788041E-1,9.704559445E-1,-1.137702465E0
1.179038291E1,-6.428871155E-1,1.272991061E0,-1.280447841E0
1.181028008E1,-1.241033077E0,1.591505051E0,-1.423193336E0
1.183017725E1,-1.542502880E0,1.328917384E0,-1.447694421E0
1.185004390E1,-1.385909081E0,7.398261428E-1,-1.358744860E0
1.186994107E1,-9.869675040E-1,6.604639441E-2,-1.279915214E0
1.188983824E1,-6.013417840E-1,-9.640643001E-2,-1.367799520E0
1.190973541E1,-5.613943934E-1,1.512675583E-1,-1.513208151E0
1.192960206E1,-8.277105093E-1,4.660531878E-1,-1.679922104E0
1.194949923E1,-1.074319243E0,6.817692518E-1,-1.797633767E0
1.196939640E1,-1.108940244E0,1.014664412E0,-1.846103311E0
1.198926305E1,-8.197209835E-1,1.237837315E0,-1.869539142E0
1.200916022E1,-4.287689328E-1,1.244761467E0,-1.886050701E0
1.202905739E1,-1.672465205E-1,1.040230751E0,-1.943042397E0
1.204895456E1,-2.103897333E-1,3.717772961E-1,-1.910019159E0
1.206882121E1,-2.892192900E-1,-5.635249019E-1,-1.842907548E0
1.208871838E1,-2.364887148E-1,-8.330367804E-1,-1.753425241E0
1.210861555E1,-2.034655064E-1,-4.980111420E-1,-1.627724051E0
1.212848220E1,-1.837581247E-1,-1.059938148E-1,-1.483913422E0
1.214837937E1,-6.711166352E-2,1.454086006E-1,-1.303351045E0
1.216827654E1,3.195793368E-3,2.764361203E-1,-1.133441329E0
1.218814319E1,7.669904083E-2,9.747169912E-2,-8.905611038E-1
1.220804036E1,1.075917110E-1,-2.583266199E-1,-7.025418878E-1
1.222793753E1,8.415589482E-2,-1.890844405E-1,-4.953479767E-1
1.224786522E1,8.202536404E-2,2.226402760E-1,-3.211772442E-1
1.226782342E1,1.390170157E-1,5.784385800E-1,-1.438107044E-1
1.228784266E1,2.466087192E-1,7.792409658E-1,-2.769687586E-2
1.230780086E1,3.078614175E-1,7.350324988E-1,3.142530099E-2
1.232772855E1,2.295644879E-1,5.443501472E-1,7.563377917E-2
1.234762572E1,1.502022892E-1,1.858886480E-1,1.091896072E-1
1.236752289E1,1.976065636E-1,-3.462109342E-2,2.077265680E-1
1.238738954E1,2.956108749E-1,-1.390170157E-1,3.696467578E-1
1.240731722E1,3.664509654E-1,-3.243730366E-1,5.874933600E-1
1.242718388E1,3.845604658E-1,-3.515372574E-1,7.946872711E-1
1.244708105E1,2.988066673E-1,-2.130528912E-2,9.448895454E-1
1.246694770E1,1.613875628E-1,2.652508616E-1,9.086706042E-1
1.248684487E1,2.700445354E-1,-2.487392575E-1,6.854977012E-1
1.250674204E1,6.711166352E-2,1.917476058E-1,4.633900523E-1
1.252660869E1,2.908172011E-1,1.317199469E0,6.876282096E-1
1.254650586E1,4.990763962E-1,8.447546959E-1,9.209211469E-1
1.256637251E1,5.352953672E-1,-6.647250056E-1,9.848369956E-1
1.258626968E1,4.671184719E-1,-1.551557660E0,1.163268805E0
1.260616685E1,4.383563101E-1,-1.631985188E0,1.375256419E0
1.262603350E1,2.226402760E-1,-1.030110717E0,1.487641811E0
1.264593067E1,1.816275865E-1,-2.833603323E-1,1.577656627E0
1.266582784E1,3.323625028E-1,4.516721368E-1,1.231978297E0
1.268569449E1,3.334277868E-1,5.241101384E-1,1.098287702E0
1.270559166E1,2.828277051E-1,1.395496428E-1,1.190433025E0
1.272548883E1,2.663161159E-1,-2.082591951E-1,1.296959519E0
1.274535548E1,2.284992188E-1,-5.768406987E-1,1.414671183E0
1.276525265E1,1.549959779E-1,-7.222493291E-1,1.399224877E0
1.278514982E1,8.948221803E-2,-7.840346098E-1,1.299622655E0
1.280501647E1,1.107875034E-1,-7.339671850E-1,1.258077264E0
1.282491364E1,2.082591951E-1,-6.514092088E-1,1.309210062E0
1.284478029E1,3.552657068E-1,-5.736449361E-1,1.292698383E0
1.286467746E1,3.936152160E-1,-4.399542212E-1,1.246892095E0
1.288457463E1,3.446130455E-1,-3.542004228E-1,1.196292043E0
1.290444128E1,3.004045784E-1,-5.012069345E-1,1.097222447E0
1.292433845E1,2.886866629E-1,-6.657902598E-1,9.406285286E-1
1.294423562E1,3.062635362E-1,-6.833671331E-1,7.605988383E-1
1.296410227E1,3.526025414E-1,-6.343649626E-1,6.498113275E-1
1.298402996E1,4.117247164E-1,-5.683186054E-1,6.194512844E-1
1.300398816E1,4.250405133E-1,-3.142530024E-1,5.305017233E-1
1.302388533E1,3.238403797E-1,1.001348570E-1,3.925499618E-1
1.304378250E1,1.619201899E-1,3.281014562E-1,2.577939928E-1
1.306364915E1,7.350324839E-2,3.456783295E-1,1.491370201E-1
1.308357684E1,9.427590668E-2,4.149205089E-1,8.575379103E-2
1.310347401E1,2.087918371E-1,4.777711034E-1,3.994741663E-2
1.312337118E1,3.552657068E-1,5.896238685E-1,1.134506613E-1
1.314326835E1,3.877562582E-1,8.532768488E-1,2.242381722E-1
1.316316552E1,2.402171344E-1,1.090830803E0,2.530003190E-1
1.318303217E1,-4.900216311E-2,9.667274952E-1,2.838929892E-1
1.320292934E1,-1.816275865E-1,4.186489284E-1,3.281014562E-1
1.322282650E1,-2.130528912E-2,-2.024002373E-2,3.344930410E-1
1.324269316E1,1.038632840E-1,-2.572613657E-1,3.291667104E-1
1.326259033E1,8.309062570E-2,-3.408846259E-1,3.334277868E-1
1.328248750E1,2.663161233E-2,-2.870887816E-1,3.105245829E-1
1.330235415E1,4.846953228E-2,-2.929477207E-2,2.375539690E-1
1.332225132E1,5.805691332E-2,4.181163013E-1,2.077265680E-1
1.334214849E1,-8.522115648E-3,8.138620257E-1,2.657834888E-1
1.336201514E1,-4.527373984E-2,8.681905270E-1,3.941478431E-1
1.338191231E1,5.645901710E-2,6.737797856E-1,4.894890189E-1
1.340180948E1,1.677791476E-1,4.282363057E-1,5.784385800E-1
1.342170664E1,2.039981484E-1,1.049285457E-1,7.131945491E-1
1.344157330E1,2.348908186E-1,-3.312972486E-1,7.115966678E-1
1.346147047E1,2.162486911E-1,-6.482134461E-1,5.379585624E-1
1.348136764E1,-3.781688958E-2,-8.303736448E-1,9.267801046E-2
1.350123429E1,-6.098638773E-1,-7.984157205E-1,-4.170510471E-1
1.352113146E1,-1.186704636E0,-4.990763962E-1,-8.916263580E-1
1.354102863E1,-1.436509132E0,-2.130528912E-2,-1.242630959E0
1.356092580E1,-1.424258590E0,6.657902598E-1,-1.416269064E0
1.358082296E1,-1.367799520E0,1.287372112E0,-1.503088117E0
1.360068962E1,-1.347559571E0,1.280980468E0,-1.588309288E0
1.362058679E1,-1.131843448E0,8.452873230E-1,-1.753425241E0
1.364048395E1,-4.937500656E-1,-8.415589482E-2,-1.725728393E0
1.366035061E1,-3.568635881E-2,-2.641855776E-1,-1.821602225E0
1.368024778E1,-3.632551730E-1,2.400040865E0,-2.127865791E0
1.370011443E1,-1.063133955E0,3.752393961E0,-2.508697748E0
1.372001160E1,-7.989483476E-1,3.095125914E0,-2.726544380E0
1.373990877E1,2.082591951E-1,1.240500450E0,-2.648247480E0
1.375983645E1,-2.066612989E-1,-6.578007936E-1,-2.591255903E0
1.377976414E1,-5.619270205E-1,-1.623463035E0,-2.298840761E0
1.379972234E1,-4.010720551E-1,-1.422128081E0,-2.125202656E0
1.381971106E1,-7.456851192E-3,-4.665858448E-1,-2.300438643E0
1.383960823E1,4.793690052E-3,2.066612989E-1,-2.397377729E0
1.385947488E1,-2.284992188E-1,2.854908705E-1,-2.306830168E0
1.387937205E1,-2.343581766E-1,-2.311623842E-1,-2.129463673E0
1.389923870E1,-1.688444167E-1,-4.644553065E-1,-1.853560209E0
1.391913587E1,5.326322280E-4,-1.012001261E-1,-1.383778572E0
1.393903304E1,1.651159972E-1,4.245078862E-1,-8.554073572E-1
1.395899125E1,2.226402760E-1,6.956176758E-1,-4.250405133E-1
1.397897997E1,2.231729031E-1,7.819041014E-1,-1.715075821E-1
1.399890765E1,3.328951299E-1,7.504788041E-1,6.604639441E-2
1.401883534E1,5.715143681E-1,4.191815555E-1,3.744404614E-1
1.403873251E1,7.030745149E-1,2.130528912E-3,7.600662112E-1
1.405862968E1,8.165252209E-1,-3.451456726E-1,1.104679227E0
1.407849633E1,8.191883564E-1,-6.950850487E-1,1.368332148E0
1.409839350E1,6.988134980E-1,-1.237304688E0,1.691639900E0
1.411829067E1,5.986786485E-1,-1.215999365E0,1.818406463E0
1.413815732E1,-2.386192381E-1,1.309742689E0,1.735848427E0
1.415805449E1,6.759102941E-1,2.682335854E0,2.292981625E0
1.417792114E1,1.127582431E0,9.475527406E-1,2.281796455E0
1.419784883E1,5.209143162E-1,-1.249022603E0,1.274588943E0
1.421780703E1,3.834952116E-1,-1.963814974E0,1.128115058E0
1.423770420E1,4.543353021E-1,-1.602690339E0,1.445563912E0
1.425760137E1,4.277036786E-1,-1.033839107E0,1.659149408E0
1.427752906E1,2.711097896E-1,-6.167881489E-1,1.551025033E0
1.429742622E1,1.262338310E-1,-3.142530024E-1,1.322525859E0
1.431732339E1,1.544633508E-1,2.663161140E-3,1.238369942E0
1.433722056E1,2.737729549E-1,1.725728363E-1,1.314003706E0
1.435708722E1,2.870887816E-1,-7.989483327E-2,1.427986979E0
1.437698438E1,2.530003190E-1,-5.326322317E-1,1.473793387E0
1.439688155E1,2.540655732E-1,-7.803062201E-1,1.435976505E0
1.441674821E1,1.960086524E-1,-7.041398287E-1,1.331580520E0
1.443664537E1,1.789644361E-1,-5.576659441E-1,1.145691872E0
1.445654254E1,2.077265680E-1,-5.699164867E-1,9.464874864E-1
1.447640920E1,2.396845073E-1,-4.948153496E-1,8.596684337E-1
1.449630636E1,2.860234976E-1,-3.712446690E-1,8.426241875E-1
1.451623405E1,3.137203753E-1,-1.933455020E-1,8.127967715E-1
1.453610070E1,3.169161677E-1,5.539375171E-2,6.801713705E-1
1.455599787E1,2.801645398E-1,5.060006306E-2,5.033374429E-1
1.457589504E1,1.960086524E-1,-3.408846259E-2,3.898867965E-1
1.459579221E1,1.171790883E-1,-2.039981484E-1,3.211772442E-1
1.461568938E1,7.776430249E-2,-3.211772442E-1,2.402171344E-1
1.463558655E1,1.219727769E-1,-2.567287385E-1,1.533980817E-1
1.465548372E1,1.832254827E-1,-1.438106969E-2,1.379517466E-1
1.467538089E1,2.119876295E-1,4.767058492E-1,7.510114461E-2
1.469527806E1,1.145159304E-1,8.447546959E-1,4.314320907E-2
1.471517523E1,-4.261057824E-2,6.226470470E-1,1.459412277E-1
1.473510291E1,-5.912217870E-2,3.637878001E-1,3.344930410E-1
1.475500008E1,1.438106969E-2,-6.072007492E-2,5.054680109E-1
1.477492777E1,1.177117229E-1,-2.428802997E-1,5.123922229E-1
1.479485545E1,1.480717659E-1,5.858954508E-3,4.452805519E-1
1.481478314E1,6.498113275E-2,1.555286050E-1,4.282363057E-1
1.483474134E1,4.740426689E-2,1.251685768E-1,3.771036267E-1
1.485466903E1,8.681905270E-2,1.177117229E-1,3.233077526E-1
1.487459672E1,8.149272949E-2,1.193096191E-1,3.227751255E-1
1.489449389E1,6.178534031E-2,-3.994741663E-2,3.749730885E-1
1.491436054E1,8.628641814E-2,-1.038632840E-1,3.744404614E-1
1.493425771E1,9.054747969E-2,1.203748807E-1,3.350256681E-1
1.495415488E1,7.456851192E-3,3.952131271E-1,2.482066154E-1
1.497402153E1,-1.928128600E-1,5.997439027E-1,-9.587380104E-3
1.499391870E1,-4.037352204E-1,3.904194236E-1,1.491370238E-2
1.501384638E1,-4.889563918E-1,-2.982740477E-2,-1.400822699E-1
1.503374355E1,-5.656554103E-1,-4.143878818E-1,-3.952131271E-1
1.505361020E1,-7.355651259E-1,-5.320996046E-1,-6.977482438E-1
1.507350737E1,-8.117315173E-1,-2.647182047E-1,-9.262474179E-1
1.509340454E1,-8.026767969E-1,-6.178534031E-2,-1.179247737E0
1.511330171E1,-7.925567627E-1,-1.288969964E-1,-1.489239693E0
1.513319888E1,-6.977482438E-1,-2.535329461E-1,-1.735315800E0
1.515309605E1,-6.636597514E-1,-2.380866110E-1,-1.851429582E0
1.517302374E1,-8.090683818E-1,1.212270975E0,-2.020273924E0
1.519292091E1,-9.001484513E-1,2.854376078E0,-2.330798626E0
1.521287911E1,-4.079962969E-1,3.528688431E0,-2.494316816E0
1.523280680E1,3.371562064E-1,3.249056578E0,-2.394181967E0
1.525273448E1,8.362326026E-2,2.712695837E0,-2.384061813E0
1.527269268E1,-4.037352204E-1,1.070058107E0,-2.363821745E0
1.529265089E1,-3.414172530E-1,-1.265001535E0,-2.112419367E0
1.531267013E1,-2.780340314E-1,-1.888713837E0,-1.937183380E0
1.533265885E1,-1.821602285E-1,-9.283779860E-1,-1.921204448E0
1.535261705E1,-1.709749401E-1,1.107875034E-1,-2.009088755E0
1.537260577E1,-2.530003190E-1,3.515372574E-1,-1.890844464E0
1.539256397E1,-1.235706806E-1,1.331580579E-1,-1.691107273E0
1.541252218E1,9.587380104E-3,-1.118527651E-1,-1.543568254E0
1.543244986E1,-1.704423130E-2,-1.656486243E-1,-1.362473249E0
1.545234703E1,1.438106969E-2,0.000000000E0,-1.024251819E0
1.547227472E1,1.603222936E-1,2.657834888E-1,-6.535397172E-1
1.549217189E1,2.865561247E-1,5.320996046E-1,-4.095941782E-1
1.551206906E1,4.458131790E-1,5.763080716E-1,-1.992044598E-1
1.553199674E1,6.364955306E-1,4.159857631E-1,3.568635881E-2
1.555192443E1,7.169229984E-1,2.098570913E-1,3.089267015E-1
1.557182160E1,6.146575809E-1,-6.924218684E-2,6.508765817E-1
1.559171877E1,4.601942301E-1,-4.037352204E-1,9.880327582E-1
1.561161594E1,3.680488765E-1,-7.478156686E-1,1.297492146E0
1.563151311E1,2.514024079E-1,-1.206944585E0,1.594700933E0
1.565137976E1,-2.700445354E-1,-4.303668439E-1,1.559547186E0
1.567127693E1,-1.784317940E-1,1.779524326E0,1.850896955E0
1.569117410E1,9.454222322E-1,1.165931940E0,2.266350031E0
1.571104075E1,4.783037305E-1,-7.872304320E-1,1.507349253E0
1.573096844E1,1.225054115E-1,-1.744903207E0,7.211840153E-1
1.575086560E1,2.412824035E-1,-1.550492406E0,1.047687650E0
1.577076277E1,3.685815036E-1,-9.049421549E-1,1.466869116E0
1.579069046E1,2.551308274E-1,-4.724447727E-1,1.621332526E0
1.581064866E1,5.113269389E-2,-2.135855258E-1,1.488174438E0
1.583057635E1,-5.219795927E-2,7.030745596E-2,1.320395350E0
1.585050404E1,8.309062570E-2,2.258360684E-1,1.402420640E0
1.587046224E1,1.507349163E-1,-1.810949668E-2,1.514806032E0
1.589051199E1,1.118527651E-1,-6.737797856E-1,1.521730304E0
1.591043968E1,1.661812514E-1,-1.335309029E0,1.397626996E0
1.593039788E1,2.833603323E-1,-1.410942793E0,1.304416299E0
1.595035609E1,3.222424984E-1,-1.232510924E0,1.155811906E0
1.597028377E1,3.030677438E-1,-1.138767719E0,9.049421549E-1
1.599021146E1,2.460760921E-1,-9.981527925E-1,7.957525253E-1
1.601016966E1,2.716424465E-1,-7.909588814E-1,7.595335841E-1
1.603009735E1,3.904194236E-1,-6.242449880E-1,7.749798894E-1
1.604996400E1,5.411543250E-1,-5.747101903E-1,7.472830415E-1
1.606986117E1,6.109291911E-1,-4.703142643E-1,6.093312502E-1
1.608975834E1,4.751079381E-1,-1.768338978E-1,3.989415467E-1
1.610971654E1,2.604571581E-1,-1.097222418E-1,2.370213419E-1
1.612961371E1,1.565938741E-1,-2.018676102E-1,2.013349831E-1
1.614954140E1,1.587243974E-1,-1.778991669E-1,1.486043930E-1
1.616949960E1,1.214401498E-1,-1.235706806E-1,6.231797114E-2
1.618942729E1,9.374327213E-2,-4.367584363E-2,-1.171790902E-2
1.620938549E1,1.294296384E-1,2.055960447E-1,-3.249056637E-2
1.622931318E1,2.029328793E-1,4.575310946E-1,2.077265643E-2
1.624917983E1,2.178465873E-1,6.226470470E-1,1.129180342E-1
1.626907700E1,1.518001854E-1,7.558051348E-1,2.631203234E-1
1.628900469E1,9.374327213E-2,6.673882008E-1,4.287689328E-1
1.630887134E1,1.150485575E-1,3.169161677E-1,5.736449361E-1
1.632876851E1,1.422128081E-1,-8.042746782E-2,6.087986231E-1
1.634869619E1,1.448759735E-1,-2.380866110E-1,5.709817410E-1
1.636862388E1,1.715075821E-1,-2.966761589E-1,4.905542731E-1
1.638858208E1,1.432780623E-1,-2.471413612E-1,3.158509135E-1
1.640847925E1,5.326322466E-2,-7.403588295E-2,2.034655064E-1
1.642843745E1,-1.065264456E-3,1.134506613E-1,1.874865443E-1
1.644839566E1,6.178534031E-2,3.898867965E-1,1.864212751E-1
1.646829283E1,1.054611802E-1,7.233145833E-1,3.355582952E-1
1.648822051E1,9.161274135E-2,8.287757635E-1,5.326322317E-1
1.650820923E1,4.740426689E-2,5.976133347E-1,5.816344023E-1
1.652816744E1,3.462109342E-2,2.418150306E-1,4.862932265E-1
1.654809512E1,2.396845073E-2,-1.065264456E-2,3.014698327E-1
1.656799229E1,-1.912149638E-1,5.645901710E-2,1.406149119E-1
1.658791998E1,-4.649879336E-1,1.459412277E-1,-1.390170157E-1
1.660781715E1,-7.068029642E-1,8.149272949E-2,-4.713795185E-1
1.662771432E1,-9.592706561E-1,9.534116834E-2,-8.170578480E-1
1.664761149E1,-1.155279279E0,4.229099751E-1,-1.114266634E0
1.666750866E1,-1.139832973E0,8.671252728E-1,-1.372593284E0
1.668737531E1,-1.039698124E0,9.906959534E-1,-1.524926066E0
1.670727248E1,-8.799084425E-1,6.657902598E-1,-1.603222966E0
1.672716965E1,-6.599313021E-1,5.086637735E-1,-1.749164224E0
1.674706682E1,-7.616640925E-1,1.649029374E0,-1.884985447E0
1.676693347E1,-1.317732096E0,3.078081608E0,-2.079928875E0
1.678683064E1,-1.025849700E0,3.689543486E0,-2.046905756E0
1.680672781E1,-2.940129936E-1,2.540122986E0,-2.028796196E0
1.682662498E1,-1.597896665E-1,5.166532472E-2,-2.035187721E0
1.684649163E1,-4.820321798E-1,-1.219727755E0,-2.005892992E0
1.686638880E1,-9.821738005E-1,-1.450890183E0,-1.953162432E0
1.688625545E1,-1.113201380E0,-1.053013921E0,-1.875930667E0
1.690615262E1,-7.978830934E-1,-2.636529505E-1,-1.865278006E0
1.692604979E1,-2.993393242E-1,8.863000274E-1,-1.980326653E0
1.694597747E1,-3.536677957E-1,1.311340570E0,-2.143844604E0
1.696587464E1,-4.724447727E-1,8.372978568E-1,-2.062351942E0
1.698577181E1,-3.238403797E-1,-5.432848632E-2,-1.847168565E0
1.700566898E1,-2.237055302E-1,-3.856257200E-1,-1.574993491E0
1.702556615E1,-2.130528986E-1,-1.352885813E-1,-1.352885842E0
1.704543280E1,-1.976065636E-1,-1.012001187E-2,-1.017327547E0
1.706532997E1,-1.358212233E-1,-8.522115648E-3,-6.625944972E-1
1.708525766E1,-1.059938148E-1,1.901497096E-1,-4.202468395E-1
1.710515482E1,-2.982740477E-2,4.127899706E-1,-3.307646215E-1
1.712505200E1,1.299622655E-1,6.311691999E-1,-2.199771106E-1
1.714494916E1,2.221076339E-1,7.376956344E-1,3.728425503E-2
1.716490737E1,3.009372056E-1,4.671184719E-1,1.821602285E-1
1.718480454E1,3.488741219E-1,1.922802329E-1,3.360909224E-1
1.720473222E1,4.074636400E-1,1.805623323E-1,5.667206645E-1
1.722462939E1,5.555354357E-1,1.054611802E-1,8.330367804E-1
1.724449604E1,5.400890708E-1,-8.948221803E-2,1.162736177E0
1.726439321E1,1.837581247E-1,-4.095941782E-1,1.399757504E0
1.728429038E1,1.065264456E-2,-1.013066530E0,1.369930148E0
1.730415703E1,3.941478580E-2,-3.978762627E-1,1.509479761E0
1.732405420E1,2.806971967E-1,1.221858382E0,1.302285790E0
1.734395137E1,8.133293986E-1,5.534048676E-1,7.765777707E-1
1.736384854E1,6.178534031E-2,3.792341352E-1,3.366235793E-1
1.738371519E1,2.838929892E-1,-6.098638773E-1,7.712514400E-1
1.740361236E1,5.763080716E-1,-1.150485635E0,1.194161415E0
1.742350953E1,5.629922748E-1,-1.137169838E0,1.688444138E0
1.744337618E1,4.751079381E-1,-6.482134461E-1,1.871669650E0
1.746327335E1,4.111920893E-1,-6.285060197E-2,1.528121829E0
1.748317052E1,3.701793849E-1,2.918824553E-1,1.188835144E0
1.750303718E1,2.284992188E-1,3.930825889E-1,1.280980468E0
1.752293434E1,-1.049285457E-1,2.391518652E-1,1.268197298E0
1.754283151E1,5.379585549E-2,5.044026971E-1,1.165931940E0
1.756269816E1,5.368933082E-1,2.647182047E-1,1.066329718E0
1.758262585E1,4.026699662E-1,-5.470132828E-1,9.241169095E-1
1.760255354E1,2.237055302E-1,-9.347695708E-1,9.294432402E-1
1.762248122E1,2.183792144E-1,-9.534116983E-1,9.422264099E-1
1.764240891E1,2.934803665E-1,-7.089334726E-1,9.720538259E-1
1.766230608E1,4.106594622E-1,-4.820321798E-1,9.757822156E-1
1.768223377E1,4.681837261E-1,-9.214537591E-2,1.034371734E0
1.770216145E1,2.663161159E-1,6.663229465E-1,1.048752904E0
1.772205862E1,2.625876963E-1,5.699164867E-1,1.020523310E0
1.774198631E1,3.153182864E-1,1.129180342E-1,9.113337398E-1
1.776188348E1,3.600593805E-1,-2.993393242E-1,6.508765817E-1
1.778184168E1,4.335626364E-1,-6.823018789E-1,4.186489284E-1
1.780179988E1,3.984089196E-1,-1.090830803E0,3.478088379E-1
1.782172757E1,3.595267534E-1,-1.311340570E0,4.633900523E-1
1.784162474E1,3.243730366E-1,-1.453553319E0,4.788363874E-1
1.786149139E1,2.828277051E-1,-1.419464946E0,3.414172530E-1
1.788141908E1,2.556634545E-1,-1.168595076E0,1.523328125E-1
1.790134676E1,3.281014562E-1,-3.850930929E-1,1.438106969E-2
1.792124393E1,3.536677957E-1,3.994741738E-1,-5.432848632E-2
1.794114110E1,3.680488765E-1,8.756473660E-1,-8.735168725E-2
1.796106879E1,3.904194236E-1,1.125451922E0,-3.142530099E-2
1.798096596E1,1.331580579E-1,1.401888013E0,1.299622655E-1
1.800086313E1,-1.358212233E-1,1.152083516E0,2.620550692E-1
1.802076030E1,-1.102548689E-1,3.552657068E-1,4.085289240E-1
1.804065747E1,2.721750736E-1,-2.359560728E-1,5.416869521E-1
1.806055463E1,3.733751774E-1,-3.760383427E-1,5.821670294E-1
1.808048232E1,2.173139453E-1,-1.012001261E-1,5.448827744E-1
1.810034897E1,4.900216311E-2,1.608549356E-1,4.303668439E-1
1.812030718E1,2.769687586E-2,3.126551211E-1,2.918824553E-1
1.814020434E1,-8.522115648E-3,5.496764779E-1,2.567287385E-1
1.816010151E1,-1.512675583E-1,6.146575809E-1,3.067961633E-1
1.817999868E1,-2.237055302E-1,4.713795185E-1,3.430151641E-1
1.819992637E1,-1.645833552E-1,3.909520507E-1,3.600593805E-1
1.821985406E1,-9.640643001E-2,4.953479767E-1,4.293015897E-1
1.823981226E1,-4.740426689E-2,5.320996046E-1,4.958806038E-1
1.825973994E1,4.207794741E-2,3.962783813E-1,5.432848930E-1
1.827966763E1,1.475391239E-1,2.508697808E-1,5.171858668E-1
1.829956480E1,1.565938741E-1,3.494067490E-1,3.520699143E-1
1.831946197E1,3.728425596E-3,4.601942301E-1,-1.065264456E-2
1.833932862E1,-2.167813182E-1,4.410194755E-1,-1.283643693E-1
1.835922579E1,-3.573962152E-1,2.194444835E-1,-2.279665917E-1
1.837915348E1,-3.765709996E-1,-3.142530099E-2,-4.585963488E-1
1.839902013E1,-4.085289240E-1,-1.901497096E-1,-7.025418878E-1
1.841891730E1,-5.486112237E-1,-1.502022892E-1,-9.443569183E-1
1.843881447E1,-6.556702852E-1,1.970739216E-1,-1.133441329E0
1.845871164E1,-6.471481323E-1,6.918892860E-1,-1.275121570E0
1.847860880E1,-6.274407506E-1,7.946872711E-1,-1.279382586E0
1.849850597E1,-6.764429212E-1,5.603290796E-1,-1.215999365E0
1.851840314E1,-7.440872192E-1,5.273059011E-1,-1.164334059E0
1.853836135E1,-8.980179429E-1,9.342369437E-1,-1.245826840E0
1.855825852E1,-9.108011127E-1,1.225054145E0,-1.389104843E0
1.857818620E1,-8.048073053E-1,1.107874990E0,-1.430650115E0
1.859811389E1,-6.455502510E-1,5.502091050E-1,-1.327852130E0
1.861804158E1,-6.151902080E-1,-3.089267015E-1,-1.129180312E0
1.863793874E1,-6.578007936E-1,-9.038769007E-1,-9.225190282E-1
1.865783591E1,-7.307714224E-1,-7.270429730E-1,-7.472830415E-1
1.867773308E1,-8.516789079E-1,1.842907518E-1,-6.146575809E-1
1.869766077E1,-9.603359103E-1,1.021055937E0,-6.210491657E-1
1.871758846E1,-8.958874345E-1,1.444498658E0,-7.179882526E-1
1.873748562E1,-7.446198463E-1,1.569667220E0,-8.026767969E-1
1.875738279E1,-6.311691999E-1,1.424791217E0,-7.435545921E-1
1.877727996E1,-5.251753926E-1,1.091363430E0,-5.677859783E-1
1.879717713E1,-4.644553065E-1,6.226470470E-1,-3.914846778E-1
1.881704378E1,-4.442152679E-1,2.775014043E-1,-2.583266199E-1
1.883694095E1,-4.532700181E-1,1.347559541E-1,-7.030745596E-2
1.885683812E1,-3.957457542E-1,1.001348570E-1,1.661812514E-1
1.887676581E1,-2.482066154E-1,3.515372798E-2,3.834952116E-1
1.889666298E1,-1.102548689E-1,-3.195793368E-3,6.364955306E-1
1.891659066E1,-4.527373984E-2,-2.343581803E-2,8.831042051E-1
1.893648783E1,-3.408846259E-2,1.012001187E-2,1.138767719E0
1.895641552E1,4.793690052E-3,1.832254827E-1,1.415203810E0
1.897631269E1,6.338323653E-2,4.399542212E-1,1.688444138E0
1.899627089E1,1.347559541E-1,6.317018270E-1,1.826395869E0
1.901622910E1,2.870887816E-1,6.471481323E-1,1.701759934E0
1.903612626E1,5.954828262E-1,3.669835925E-1,1.380582690E0
1.905602343E1,1.015197039E0,7.989482954E-3,9.912285805E-1
1.907595112E1,1.282045722E0,-1.821602285E-1,7.691209316E-1
1.909587881E1,1.154746652E0,-4.048005044E-1,2.402171344E-1
1.911577598E1,7.653924823E-1,-1.853560209E-1,-2.151834220E-1
1.913567314E1,8.255799860E-2,1.180845618E0,-5.182511806E-1
1.915557031E1,-2.503371537E-1,1.785915852E0,-6.801713705E-1
1.917549800E1,2.806971967E-1,5.225121975E-1,-6.668555737E-1
1.919539517E1,5.347627401E-1,-1.930259228E0,-5.017395616E-1
1.921529234E1,4.138552547E-1,-3.029612064E0,-2.338255495E-1
1.923531158E1,5.257080197E-1,-2.191248894E0,-1.081243455E-1
1.925526978E1,7.078682184E-1,-8.687231541E-1,-4.420847446E-2
1.927519746E1,6.588660479E-1,-8.468852192E-2,-1.384843793E-2
1.929515567E1,5.512743592E-1,2.876214087E-1,-4.101268202E-2
1.931517491E1,5.193164349E-1,4.308994710E-1,-1.597896591E-2
1.933516363E1,5.379585624E-1,4.665858448E-1,2.327602804E-1
1.935509131E1,5.326322317E-1,3.728425503E-1,3.797667921E-1
1.937511055E1,4.841626883E-1,4.628573954E-1,4.186489284E-1
1.939509927E1,2.508697808E-1,6.274407506E-1,3.675162494E-1
1.941502696E1,5.113269389E-2,3.712446690E-1,2.269013226E-1
1.943501568E1,1.757686399E-2,9.054747969E-2,1.581917703E-1
1.945503492E1,1.102548689E-1,1.193096191E-1,1.075917110E-1
1.947493209E1,2.167813182E-1,4.324973822E-1,-2.024002373E-2
1.949492081E1,2.881540358E-1,1.072721362E0,-2.370213419E-1
1.951490953E1,1.928128600E-1,1.816808581E0,-4.569984376E-1
1.953489825E1,-4.420847446E-2,2.218413115E0,-5.427522659E-1
1.955491748E1,-2.013349831E-1,2.322276592E0,-5.113269091E-1
1.957493672E1,-2.306297570E-1,2.223206997E0,-4.575310946E-1
1.959492544E1,-2.418150306E-1,1.952097058E0,-3.962783813E-1
1.961485313E1,-3.451456726E-1,1.577124000E0,-3.318298757E-1
1.963471978E1,-4.569984376E-1,1.225054145E0,-2.934803665E-1
1.965464747E1,-4.846953154E-1,1.076982379E0,-3.163835406E-1
1.967454464E1,-4.846953154E-1,1.358744860E0,-3.771036267E-1
1.969450284E1,-5.475459099E-1,1.840244293E0,-4.303668439E-1
1.971440001E1,-6.322344542E-1,2.182726860E0,-4.383563101E-1
1.973429718E1,-6.865629554E-1,2.257827997E0,-3.408846259E-1
1.975425538E1,-6.977482438E-1,1.918008685E0,-1.832254827E-1
1.977418307E1,-5.731122494E-1,1.380050063E0,-2.609897964E-2
1.979408024E1,-3.723099232E-1,7.153250575E-1,1.448759735E-1
1.981400792E1,-2.748382390E-1,3.158509135E-1,2.269013226E-1
1.983387458E1,-1.848233789E-1,6.865629554E-1,2.471413612E-1
1.985383278E1,-5.273059011E-2,1.658084154E0,1.896170676E-1
1.987372995E1,4.687163606E-2,2.795786619E0,-3.089267015E-2
1.989362712E1,6.924218964E-3,3.496197939E0,-2.572613657E-1
1.991352429E1,-9.587380104E-3,3.912183762E0,-3.861583769E-1
1.993342146E1,-7.456851192E-3,4.045341969E0,-4.623247683E-1
1.995328811E1,-1.763012707E-1,3.907390118E0,-5.081311464E-1
1.997318528E1,-6.663229465E-1,3.218696594E0,-3.430151641E-1
1.999311296E1,-1.050350785E0,2.842125654E0,-2.471413612E-1
2.001304065E1,-1.052481294E0,2.820287704E0,-2.002697140E-1
2.003293782E1,-8.809736967E-1,2.942260504E0,-2.013349831E-1
2.005280447E1,-5.539374948E-1,2.087385654E0,-6.391586736E-3
2.007270164E1,-3.131877482E-1,1.185106754E0,2.641855776E-1
2.009259881E1,-2.178465873E-1,2.599245310E-1,2.258360684E-1
2.011249598E1,-4.687163606E-2,-1.773665249E-1,-1.757686399E-2
2.013245418E1,2.945456207E-1,-8.639294505E-1,-3.115898669E-1
2.015235135E1,2.354234457E-1,1.225054115E-1,-8.388957381E-1
2.017224852E1,-2.002164602E0,4.262123108E0,-2.213619471E0
2.019214569E1,-3.395530462E0,5.755091190E0,-3.230414391E0
2.021204286E1,-2.426139832E0,6.311159134E0,-3.622964382E0
2.023194003E1,-1.956358194E0,3.894606829E0,-3.869573116E0
2.025180668E1,-1.939846516E0,1.160073042E0,-4.267982006E0
2.027170385E1,-2.042644501E0,2.215750068E-1,-4.146009445E0
2.029160102E1,-1.839179039E0,1.286306858E0,-3.379018784E0
2.031146767E1,-1.489772320E0,2.910302401E0,-2.426139832E0
2.033136484E1,-2.085255146E0,3.596332788E0,-2.054895163E0
2.035126201E1,-2.203499556E0,2.614158869E0,-2.180063725E0
2.037115918E1,-1.208542466E0,-1.768338978E-1,-2.131061554E0
2.039105635E1,-1.432780743E0,-1.543035507E0,-2.186987877E0
2.041095352E1,-2.149171114E0,-4.799016416E-1,-1.866876006E0
2.043085068E1,-1.775795817E0,7.195861340E-1,-1.320395350E0
2.045074785E1,-1.063133955E0,1.543035507E0,-1.391235352E0
2.047064502E1,-8.420915604E-1,1.667138815E0,-1.669269443E0
2.049054219E1,-1.070590734E0,1.137702465E0,-1.624528289E0
2.051043936E1,-1.170725584E0,7.350324839E-2,-1.292165756E0
2.053033653E1,-9.715211987E-1,-2.615224123E-1,-8.250473142E-1
2.055032525E1,-8.319715261E-1,3.408846259E-2,-4.516721368E-1
2.057019190E1,-7.297061682E-1,4.543353021E-1,-2.173139453E-1
2.059008907E1,-6.040049195E-1,5.683186054E-1,-1.012001261E-1
2.060998624E1,-4.660531878E-1,5.273059011E-1,-1.278317347E-2
2.062985289E1,-3.046656251E-1,4.905542731E-1,3.675162420E-2
2.064975006E1,-1.027980223E-1,2.870887816E-1,1.704423130E-1
2.066964723E1,1.001348570E-1,1.118527725E-2,5.038700700E-1
2.068951388E1,1.635181010E-1,9.374327213E-2,7.637946010E-1
2.070941105E1,2.364887148E-1,5.416869521E-1,8.564726114E-1
2.072930822E1,3.339604139E-1,8.239820600E-1,9.235842824E-1
2.074917487E1,4.037352204E-1,6.556702852E-1,1.073786616E0
2.076907204E1,4.127899706E-1,6.391586363E-2,1.233576298E0
2.078896921E1,3.792341352E-1,-4.335626364E-1,1.153681397E0
2.080883586E1,4.261057973E-1,-1.677791476E-1,9.938917160E-1
2.082873303E1,-3.249056637E-2,1.181378245E0,8.463526368E-1
2.084869124E1,-1.491370238E-2,1.655953646E0,6.460828781E-1
2.086858841E1,1.054611802E-1,1.303351045E0,6.636597514E-1
2.088848558E1,2.370213419E-1,-7.936220169E-1,9.438242912E-1
2.090841326E1,3.446130455E-1,-2.014415026E0,1.431715488E0
2.092827991E1,2.977414131E-1,-9.661948681E-1,1.855158091E0
2.094817708E1,3.925499618E-1,5.736449361E-1,1.955825567E0
2.096807425E1,3.195793331E-1,1.291633129E0,1.631452560E0
2.098797142E1,1.438107044E-1,1.357679605E0,1.242098331E0
2.100786859E1,2.242381722E-1,1.027447581E0,1.217597246E0
2.102776576E1,3.328951299E-1,4.388889670E-1,1.472195506E0
2.104766293E1,3.557983339E-1,-3.462109566E-1,1.586178780E0
2.106756010E1,2.673813701E-1,-7.872304320E-1,1.495631337E0
2.108745727E1,1.858886480E-1,-6.796387434E-1,1.337439537E0
2.110735444E1,9.480853379E-2,-2.929477394E-1,1.171790957E0
2.112728212E1,-3.728425503E-2,1.581917703E-1,1.096157074E0
2.114717929E1,-3.994741663E-2,4.356931746E-1,1.051948667E0
2.116707646E1,7.989483327E-2,5.070658922E-1,1.032773852E0
2.118697363E1,1.592570394E-1,4.639226794E-1,1.004011750E0
2.120687080E1,2.093244642E-1,2.732403278E-1,9.145295620E-1
2.122676797E1,2.561961114E-1,1.203748807E-1,9.203884602E-1
2.124666514E1,2.631203234E-1,1.272991002E-1,9.464874864E-1
2.126656231E1,2.109223604E-1,2.173139453E-1,9.347695708E-1
2.128645948E1,1.448759735E-1,4.101268053E-1,9.827064872E-1
2.130632613E1,1.544633508E-1,5.118595958E-1,1.045557022E0
2.132622330E1,2.093244642E-1,6.631271243E-1,9.805759192E-1
2.134612047E1,1.890844405E-1,6.796387434E-1,8.069378138E-1
2.136601763E1,8.042746782E-2,7.632619739E-1,5.491438508E-1
2.138588429E1,3.941478580E-2,9.747169614E-1,3.147856593E-1
2.140578146E1,3.728425503E-2,1.024784446E0,1.336906850E-1
2.142567862E1,-4.793690052E-3,1.065264463E0,1.470064968E-1
2.144554528E1,-5.060006306E-2,1.117995024E0,2.157160491E-1
2.146547296E1,-2.077265643E-2,1.052481294E0,2.705771625E-1
2.148537013E1,6.285060197E-2,9.251821637E-1,3.845604658E-1
2.150523678E1,1.464738697E-1,7.984157205E-1,5.028048158E-1
2.152513395E1,1.182443574E-1,8.213189244E-1,5.123922229E-1
2.154503112E1,-1.097222418E-1,8.926916122E-1,4.793690145E-1
2.156489778E1,-3.600593805E-1,6.492787004E-1,3.696467578E-1
2.158479494E1,-3.350256681E-1,4.293015897E-1,3.403519988E-1
2.160469211E1,-1.161138266E-1,4.404868484E-1,3.978762627E-1
2.162455876E1,7.989482954E-3,3.744404614E-1,4.548679292E-1
2.164445593E1,6.764429063E-2,1.523328125E-1,4.159857631E-1
2.166432259E1,1.992044598E-1,1.097222418E-1,3.041329980E-1
2.168421976E1,2.812298238E-1,1.826928556E-1,1.720402092E-1
2.170411692E1,2.609897852E-1,4.346278906E-1,-8.522115648E-3
2.172398358E1,1.645833552E-1,8.777779341E-1,-4.021373391E-1
2.174388075E1,-3.020024598E-1,1.317732096E0,-7.488809228E-1
2.176377791E1,-9.129316211E-1,1.339037418E0,-8.586031795E-1
2.178364457E1,-1.125984550E0,8.809736967E-1,-1.006142259E0
2.180354174E1,-9.645969868E-1,2.940129936E-1,-1.176584601E0
2.182343890E1,-7.840346098E-1,-2.279665917E-1,-1.344896317E0
2.184333607E1,-6.514092088E-1,-5.736449361E-1,-1.491370201E0
2.186320273E1,-6.535397172E-1,-2.146507949E-1,-1.738511562E0
2.188309990E1,-9.960222840E-1,7.611314654E-1,-2.003229856E0
2.190299706E1,-1.547296643E0,1.985652924E0,-2.224272251E0
2.192286372E1,-1.594700933E0,2.853310823E0,-2.413356543E0
2.194276089E1,-7.547398806E-1,3.067429066E0,-2.564091444E0
2.196265806E1,-1.587243974E-1,2.252501726E0,-2.481000900E0
2.198255522E1,-4.974785149E-1,1.146224499E0,-2.320678711E0
2.200242188E1,-8.426241875E-1,-2.119876295E-1,-2.185389996E0
2.202231904E1,-9.448895454E-1,-8.644620776E-1,-2.089516163E0
2.204221621E1,-8.452873230E-1,-8.074704409E-1,-2.011751890E0
2.206208287E1,-6.327670813E-1,-5.917543769E-1,-1.944107652E0
2.208198004E1,-4.170510471E-1,-2.189118415E-1,-1.962749720E0
2.210187720E1,-3.643204570E-1,1.113201380E-1,-1.935585499E0
2.212174386E1,-4.154531360E-1,4.676510990E-1,-1.720934749E0
2.214164103E1,-3.254382908E-1,4.719121456E-1,-1.428519607E0
2.216150768E1,-2.039981484E-1,7.669904083E-2,-1.140365601E0
2.218140485E1,-1.848233789E-1,-2.077265680E-1,-7.968178391E-1
2.220130202E1,-1.464738697E-1,-1.379517466E-1,-4.649879336E-1
2.222119918E1,-2.130528912E-2,2.253034264E-1,-2.348908186E-1
2.224112687E1,1.949433982E-1,7.233145833E-1,-6.764429063E-2
2.226102404E1,4.079962969E-1,1.125984550E0,1.113201380E-1
2.228092121E1,4.271710515E-1,1.010403395E0,2.743056118E-1
2.230078786E1,3.344930410E-1,6.125270724E-1,4.799016416E-1
2.232068503E1,4.133225977E-1,3.350256681E-1,7.147924304E-1
2.234055168E1,4.522047639E-1,-4.207794741E-2,1.051948667E0
2.236044885E1,3.728425503E-1,-8.388957381E-1,1.417866945E0
2.238034602E1,3.989415467E-1,-1.121190786E0,1.626658797E0
2.240021267E1,4.351605177E-1,1.039165497E0,1.866343379E0
2.242010984E1,8.777779341E-1,6.215817928E-1,2.118810892E0
2.244000701E1,6.615292430E-1,-2.641855776E-1,1.788578987E0
2.245987366E1,4.836300611E-1,-8.197209835E-1,1.347559571E0
2.247977083E1,2.785666585E-1,-8.708537221E-1,1.439172268E0
2.249966800E1,5.006742850E-2,-5.811017752E-1,1.485511303E0
2.251953465E1,7.829693705E-2,-1.896170676E-1,1.450357556E0
2.253943182E1,-1.597896591E-2,-3.632551730E-1,1.326786876E0
2.255932899E1,-5.912217870E-2,-8.080030680E-1,1.257012010E0
2.257922616E1,1.225054078E-2,-1.072721362E0,1.370462775E0
2.259909281E1,-1.757686399E-2,-1.280980468E0,1.546231389E0
2.261898998E1,-8.096009493E-2,-1.568601966E0,1.572862983E0
2.263888715E1,6.711166352E-2,-1.510545015E0,1.447161794E0
2.265875380E1,4.223773479E-1,-1.506816626E0,1.358212233E0
2.267865097E1,7.195861340E-1,-1.889779091E0,1.406681657E0
2.269854814E1,9.571400881E-1,-2.033589840E0,1.485511303E0
2.271841479E1,1.166464567E0,-1.552622914E0,1.432780743E0
2.273831196E1,1.156344533E0,-6.375607848E-1,1.208542466E0
2.275820913E1,7.398261428E-1,1.294296384E-1,9.832391143E-1
2.277810630E1,4.719121456E-1,3.435477912E-1,7.265103459E-1
2.279797295E1,5.384911895E-1,5.709817410E-1,3.824299276E-1
2.281787012E1,6.705839634E-1,8.341020942E-1,3.392867148E-1
2.283776729E1,5.246427655E-1,8.420915604E-1,3.701793849E-1
2.285763394E1,2.482066154E-1,5.464806557E-1,3.206445873E-1
2.287753111E1,2.359560728E-1,1.363538504E-1,2.162486911E-1
2.289742828E1,3.515372574E-1,-3.483414650E-1,3.163835406E-1
2.291729493E1,3.659183383E-1,-4.660531878E-1,5.012069345E-1
2.293719210E1,2.013349831E-1,-2.109223604E-1,6.471481323E-1
2.295708927E1,5.699164793E-2,7.137271762E-2,7.147924304E-1
2.297695592E1,2.450108156E-2,1.150485575E-1,6.945524216E-1
2.299685309E1,3.195793182E-2,9.534116834E-2,5.571333170E-1
2.301671975E1,5.912217870E-2,1.235706806E-1,3.739078343E-1
2.303661691E1,4.474110901E-2,1.491370201E-1,2.402171344E-1
2.305651408E1,3.675162420E-2,2.348908186E-1,1.885518134E-1
2.307641125E1,5.645901710E-2,2.588592768E-1,2.769687474E-1
2.309627790E1,1.102548689E-1,2.322276533E-1,4.324973822E-1
2.311617508E1,1.395496428E-1,8.841694891E-2,4.846953154E-1
2.313607224E1,8.362326026E-2,-1.033306494E-1,2.977414131E-1
2.315596941E1,-2.237055451E-2,-9.374327213E-2,6.285060197E-2
2.317583607E1,-3.265035450E-1,3.036003746E-2,-2.881540358E-1
2.319573323E1,-8.932242393E-1,4.101268202E-2,-7.866978049E-1
2.321566092E1,-1.296959519E0,3.621899337E-2,-1.205879331E0
2.323555809E1,-1.326786876E0,-1.438106969E-2,-1.463140726E0
2.325545526E1,-1.183508754E0,2.130528912E-2,-1.628789306E0
2.327535243E1,-9.784454107E-1,6.604639441E-2,-1.763012648E0
2.329524960E1,-8.447546959E-1,7.510114461E-2,-1.866876006E0
2.331514677E1,-6.934871674E-1,1.597896591E-2,-1.972869754E0
2.333504394E1,-6.695187092E-1,7.126619220E-1,-2.136387825E0
2.335494110E1,-7.323693037E-1,1.898833871E0,-2.381398678E0
2.337483827E1,-5.869607329E-1,2.625344276E0,-2.515621901E0
2.339470493E1,-2.199771106E-1,2.392051220E0,-2.506567240E0
2.341460209E1,3.355583176E-2,1.156877160E0,-2.466619730E0
2.343449926E1,-3.057309091E-1,-5.241101384E-1,-2.323874474E0
2.345436592E1,-5.981460214E-1,-1.045024395E0,-2.142779350E0
2.347426308E1,-2.977414131E-1,-2.210423797E-1,-2.048503637E0
2.349416025E1,5.858954508E-3,1.235706806E-1,-2.256762743E0
2.351402691E1,-1.794970632E-1,1.038632840E-1,-2.270078659E0
2.353392408E1,-3.616572917E-1,4.293015897E-1,-2.090581417E0
2.355382124E1,-1.587243974E-1,6.849650741E-1,-1.887115955E0
2.357368790E1,-8.628641814E-2,2.822950780E-1,-1.649562001E0
2.359358507E1,-1.528654546E-1,-2.977414131E-1,-1.275121570E0
2.361348224E1,-6.977482140E-2,-3.094593287E-1,-7.760451436E-1
2.363334889E1,1.086569726E-1,-6.125270575E-2,-3.632551730E-1
2.365324606E1,2.732403278E-1,2.087918371E-1,3.195793368E-3
2.367311271E1,3.312972486E-1,4.724447727E-1,3.339604139E-1
2.369300988E1,3.414172530E-1,4.926848114E-1,5.581985712E-1
2.371290705E1,3.872236311E-1,1.874865443E-1,7.121292949E-1
2.373280422E1,3.547330499E-1,9.693906456E-2,9.384979606E-1
2.375270138E1,2.316950262E-1,-1.432780623E-1,1.323058486E0
2.377259855E1,9.321063757E-2,-3.238403797E-1,1.677258849E0
2.379249572E1,5.406216979E-1,-1.148355126E0,1.913747549E0
2.381236237E1,6.673882008E-1,-2.929477394E-1,2.372344017E0
2.383229006E1,6.945524216E-1,1.496696621E-1,2.447445154E0
2.385215671E1,2.348908186E-1,7.824367285E-1,1.678324103E0
2.387208440E1,2.450108230E-1,7.131945491E-1,1.303883672E0
2.389198157E1,6.924218684E-2,4.287689328E-1,1.357146859E0
2.391187874E1,3.195793368E-3,-2.119876295E-1,1.816808581E0
2.393177591E1,7.297061384E-2,-1.032773852E0,1.956890821E0
2.395167308E1,7.936219871E-2,-1.520665050E0,1.551025033E0
2.397153973E1,5.326322280E-3,-1.673530459E0,1.197357297E0
2.399143690E1,-3.195793368E-3,-1.741174698E0,1.262871027E0
2.401133407E1,2.024002373E-2,-1.671399951E0,1.334243774E0
2.403120072E1,2.077265680E-1,-1.495098710E0,1.265534163E0
2.405109789E1,4.687163532E-1,-1.303883672E0,1.278849959E0
2.407099506E1,7.462177277E-1,-1.026382327E0,1.365669012E0
2.409086171E1,9.337043166E-1,-6.902913451E-1,1.362473249E0
2.411075888E1,1.009870648E0,-9.321063757E-2,1.199487805E0
2.413065605E1,8.319715261E-1,9.624664187E-1,9.688580036E-1
2.415052270E1,3.078614175E-1,2.055427790E0,8.154599667E-1
2.417041987E1,5.326322466E-2,2.062351942E0,8.410263062E-1
2.419031704E1,1.262338310E-1,1.593103051E0,7.930893898E-1
2.421018369E1,2.876214087E-1,5.976133347E-1,9.219864011E-1
2.423008086E1,4.101268053E-1,-5.075985193E-1,9.150621891E-1
2.424997803E1,4.809668958E-1,-1.567536592E0,8.255799413E-1
2.426984468E1,4.644553065E-1,-1.466336489E0,6.956176758E-1
2.428974185E1,4.522047639E-1,-7.153250575E-1,5.709817410E-1
2.430960850E1,2.902845740E-1,4.154531285E-2,5.022721887E-1
2.432950567E1,1.597896684E-3,4.282363057E-1,5.155879855E-1
2.434940284E1,-1.773665249E-1,4.484763443E-1,5.214469433E-1
2.436926949E1,-1.342233270E-1,2.050634027E-1,5.187838078E-1
2.438916666E1,7.723167539E-2,-6.977482140E-2,4.873584807E-1
2.440906383E1,2.577939928E-1,-5.113269389E-2,4.085289240E-1
2.442893048E1,2.716424465E-1,8.149272949E-2,4.479437172E-1
2.444882765E1,1.997370869E-1,7.563377917E-2,5.054680109E-1
2.446872482E1,1.214401498E-1,-9.693906456E-2,4.399542212E-1
2.448859147E1,-5.166532472E-2,-2.284992188E-1,7.563377917E-2
2.450848864E1,-5.938849449E-1,-3.760383427E-1,-6.780408025E-1
2.452835529E1,-1.260207891E0,-1.443433315E-1,-1.250087857E0
2.454825246E1,-1.606418848E0,1.997370869E-1,-1.592570305E0
2.456814963E1,-1.586711407E0,2.439455539E-1,-1.727326274E0
2.458801628E1,-1.360342741E0,7.989483327E-2,-1.810416937E0
2.460791345E1,-1.058872819E0,5.379585549E-2,-1.908421278E0
2.462781062E1,-8.042746782E-1,3.099919558E-1,-1.968608737E0
2.464770779E1,-6.530070901E-1,7.046724558E-1,-2.232794285E0
2.466760496E1,-6.471481323E-1,1.296426892E0,-2.632268429E0
2.468750213E1,-5.789712071E-1,2.323341846E0,-2.817091942E0
2.470739930E1,-4.649879336E-1,3.703391790E0,-2.763828516E0
2.472729647E1,-3.249056637E-2,3.511644363E0,-2.702575922E0
2.474716312E1,6.870955974E-2,1.523328185E0,-2.594984293E0
2.476706029E1,-2.503371537E-1,-1.352885842E0,-2.427205086E0
2.478695746E1,-3.526025414E-1,-2.338255405E0,-2.265284777E0
2.480682411E1,-1.874865443E-1,-1.219195127E0,-2.233326912E0
2.482671912E1,-1.491370201E-1,3.664509654E-1,-2.141714096E0
2.484661627E1,-1.789644361E-1,9.150621891E-1,-1.921204448E0
2.486651343E1,-1.853560209E-1,8.367652297E-1,-1.789644241E0
2.488641058E1,-7.350324839E-2,6.689860821E-1,-1.639441967E0
2.490627722E1,1.054611802E-1,2.561961114E-1,-1.229315162E0
2.492617437E1,2.663161159E-1,-2.327602804E-1,-6.253102422E-1
2.494607152E1,3.600593805E-1,-3.643204570E-1,-1.757686287E-1
2.496593816E1,4.985437691E-1,-2.450108156E-2,1.315601617E-1
2.498583532E1,6.844323874E-1,4.921521842E-1,3.930825889E-1
2.500573247E1,8.000136018E-1,8.282431364E-1,6.338323355E-1
2.502559911E1,8.910937309E-1,6.285060048E-1,8.676578999E-1
2.504549626E1,8.420915604E-1,5.166532472E-2,1.120125532E0
2.506539342E1,7.243798375E-1,-1.179780364E0,1.507349253E0
2.508526005E1,2.860234976E-1,-1.169660330E0,1.873267531E0
2.510515721E1,4.687163606E-2,2.222674370E0,2.245044947E0
2.512505436E1,1.560079813E0,2.329733372E0,2.757969618E0
2.514492100E1,4.484763443E-1,-1.677791476E-1,1.794438004E0
2.516481815E1,-1.171790883E-1,-1.889779091E0,7.914915085E-1
2.518468479E1,-1.810949668E-2,-2.039448738E0,1.018392801E0
2.520458194E1,1.283643693E-1,-1.227184653E0,1.713477850E0
2.522447910E1,2.487392575E-1,-5.182511806E-1,1.961151838E0
2.524434573E1,2.322276533E-1,-1.310275346E-1,1.651159883E0
2.526424289E1,6.285060197E-2,-2.061286718E-1,1.398159623E0
2.528414004E1,-2.822950855E-2,-4.543353021E-1,1.344896317E0
2.530400668E1,-6.178534031E-2,-5.550028086E-1,1.465803862E0
2.532390383E1,3.888215125E-2,-6.364955306E-1,1.560079813E0
2.534380099E1,1.576591432E-1,-8.415589333E-1,1.529719710E0
2.536366763E1,2.210423797E-1,-1.049285531E0,1.479119658E0
2.538356478E1,2.013349831E-1,-1.229847789E0,1.344363689E0
2.540346193E1,2.082591951E-1,-1.208009839E0,1.168595076E0
2.542332857E1,2.561961114E-1,-1.002413869E0,9.715211987E-1
2.544322572E1,3.009372056E-1,-6.956176758E-1,7.621967196E-1
2.546309236E1,3.430151641E-1,-2.982740402E-1,6.519418359E-1
2.548298952E1,4.655205607E-1,4.788363874E-1,6.412891746E-1
2.550288667E1,5.017395616E-1,9.800432920E-1,5.528722405E-1
2.552275331E1,5.155879855E-1,1.258077264E0,4.905542731E-1
2.554265046E1,3.339604139E-1,1.679922104E0,5.070658922E-1
2.556254762E1,3.355583176E-2,1.774730563E0,4.868258536E-1
2.558244477E1,1.225054078E-2,1.160605669E0,3.696467578E-1
2.560234192E1,1.826928556E-1,3.296993375E-1,5.209143162E-1
2.562226960E1,2.327602804E-1,-1.363538504E-1,7.637946010E-1
2.564216675E1,1.757686399E-2,-2.918824553E-1,7.648598552E-1
2.566206390E1,3.142530099E-2,-3.632551730E-1,6.253102422E-1
2.568193054E1,2.423476577E-1,-2.631203234E-1,4.937500656E-1
2.570182769E1,3.227751255E-1,-2.226402760E-1,4.452805519E-1
2.572172485E1,2.444781959E-1,5.539375171E-2,4.207794666E-1
2.574159148E1,1.139832959E-1,4.527373910E-1,3.840278387E-1
2.576148864E1,4.314320907E-2,5.432848930E-1,3.739078343E-1
2.578138579E1,4.314320907E-2,2.551308274E-1,4.335626364E-1
2.580125243E1,2.556634694E-2,5.326322280E-3,4.239752591E-1
2.582114958E1,-5.912217870E-2,-4.101268202E-2,2.753708661E-1
2.584104674E1,-3.211772442E-1,1.336906850E-1,-2.194444835E-1
2.586091338E1,-6.791061163E-1,3.222424984E-1,-7.265103459E-1
2.588081053E1,-1.001348615E0,3.131877482E-1,-1.217597246E0
2.590070768E1,-1.215999365E0,1.949433982E-1,-1.622397780E0
2.592057432E1,-1.047687650E0,-4.687163606E-2,-1.813612700E0
2.594047148E1,-7.041398287E-1,-3.030677438E-1,-1.876995921E0
2.596036863E1,-5.709817410E-1,-1.864212751E-1,-2.150236368E0
2.598023527E1,-8.490157723E-1,6.162554622E-1,-2.453836679E0
2.600013242E1,-1.561145067E0,2.130528927E0,-2.887931824E0
2.602002957E1,-1.517469168E0,3.938815355E0,-3.211772442E0
2.603989621E1,-4.580637068E-2,5.132444382E0,-3.293797731E0
2.605979336E1,7.776430249E-2,2.662095785E0,-2.711097956E0
2.607969052E1,-5.949501991E-1,-1.886050701E0,-2.431466103E0
2.609955716E1,-8.484831452E-1,-3.536145449E0,-2.240251064E0
2.611945431E1,-9.214537740E-1,-3.920173049E-1,-2.356364965E0
2.613932095E1,-4.154531360E-1,1.287904739E0,-2.497512579E0
2.615921810E1,-4.207794666E-1,1.637311459E0,-2.554504156E0
2.617911526E1,-4.665858448E-1,1.777926326E0,-2.469815731E0
2.619898189E1,-3.520699143E-1,7.387608886E-1,-2.362756491E0
2.621887905E1,-3.643204570E-1,-1.151018262E0,-2.009621382E0
2.623877620E1,-4.229099751E-1,-2.250903845E0,-1.385909081E0
2.625864284E1,-3.153182864E-1,-1.955292940E0,-6.849650741E-1
2.627853999E1,-4.207794741E-2,-8.676578999E-1,-1.193096191E-1
2.629843715E1,1.635181010E-1,3.398193717E-1,2.024002522E-1
2.631830378E1,2.045307755E-1,1.187769890E0,5.075985193E-1
2.633820094E1,1.635181010E-1,1.434378624E0,7.430219650E-1
2.635809809E1,3.435477912E-1,1.163801432E0,1.157942414E0
2.637796473E1,8.069378138E-1,6.508765817E-1,1.589907169E0
2.639786188E1,1.054611802E0,-2.838929892E-1,1.911617041E0
2.641775904E1,7.840346098E-1,3.723099232E-1,2.472478867E0
2.643762567E1,1.901497096E-1,3.312439919E0,2.444249392E0
2.645752283E1,6.072007492E-2,1.862614870E0,2.476207256E0
2.647741998E1,5.448827744E-1,1.067927599E0,1.854625463E0
2.649728662E1,1.443433315E-1,-1.794970632E0,1.026382327E0
2.651718377E1,6.231797114E-2,-2.781405449E0,9.853696227E-1
2.653705041E1,1.491370201E-1,-1.636246204E0,9.629990458E-1
2.655694756E1,4.495415986E-1,-6.924219131E-1,1.049285531E0
2.657684472E1,6.695187092E-1,-1.331580579E-1,1.263936281E0
2.659674187E1,6.572681665E-1,3.850930929E-1,1.107874990E0
2.661660851E1,4.809668958E-1,1.063666582E0,1.049285531E0
2.663650566E1,4.133225977E-1,1.965945601E0,1.065264463E0
2.665646385E1,5.411543250E-1,2.029328823E0,1.010936022E0
2.667645256E1,2.876214087E-1,1.489772320E0,7.488809228E-1
2.669638023E1,-6.711166352E-2,7.840346098E-1,6.354302764E-1
2.671630790E1,-1.294296384E-1,3.936152160E-1,7.632619739E-1
2.673632712E1,4.793690052E-3,5.571333170E-1,1.006142259E0
2.675634634E1,1.970739216E-1,7.329019308E-1,1.141430855E0
2.677630453E1,3.078614175E-1,6.103965044E-1,1.190965652E0
2.679629324E1,2.988066673E-1,2.790992856E-1,1.227184653E0
2.681615988E1,2.098570913E-1,-5.645901710E-2,1.178715110E0
2.683605703E1,1.597896665E-1,-1.480717659E-1,1.038632870E0
2.685595418E1,1.747033745E-1,1.171790883E-1,8.117315173E-1
2.687585134E1,1.635181010E-1,5.134574771E-1,5.246427655E-1
2.689574849E1,2.024002373E-2,7.600662112E-1,2.061286718E-1
2.691564565E1,-1.731054783E-1,1.086037159E0,-1.640507281E-1
2.693557332E1,-2.908172011E-1,1.450357556E0,-4.037352204E-1
2.695547047E1,-4.463458061E-1,1.944107652E0,-5.725796223E-1
2.697536763E1,-5.619270205E-1,2.475142002E0,-5.597964525E-1
2.699526478E1,-6.402239203E-1,2.898051977E0,-4.554005563E-1
2.701522297E1,-6.562029123E-1,2.886866570E0,-3.398193717E-1
2.703515064E1,-5.709817410E-1,2.537992477E0,-2.636529505E-1
2.705513934E1,-3.675162494E-1,2.241848946E0,-1.544633508E-1
2.707515857E1,-1.326254308E-1,2.050634146E0,3.781688958E-2
2.709517779E1,8.415589482E-2,1.892974973E0,2.300971150E-1
2.711522753E1,1.880191714E-1,1.741707444E0,4.388889670E-1
2.713521624E1,5.805691332E-2,1.348624825E0,6.838997602E-1
2.715523546E1,-2.306297570E-1,6.119944453E-1,9.012137055E-1
2.717525468E1,-4.479437172E-1,-2.162486911E-1,1.043959141E0
2.719527390E1,-4.346278906E-1,-7.329019308E-1,1.064199209E0
2.721532364E1,-1.608549356E-1,-8.511462808E-1,9.022790194E-1
2.723534287E1,1.997370869E-1,-3.589941263E-1,5.384911895E-1
2.725530105E1,3.717772961E-1,7.840346098E-1,4.420847446E-2
2.727535079E1,1.549959779E-1,2.029861450E0,-3.760383427E-1
2.729537002E1,-2.455434501E-1,2.508165121E0,-6.673882008E-1
2.731532820E1,-3.691141307E-1,2.759567499E0,-1.026382327E0
2.733531691E1,-2.439455539E-1,3.114300728E0,-1.490304947E0
2.735533613E1,-1.017327532E-1,3.443467379E0,-2.136387825E0
2.737538587E1,-2.030394077E0,6.335127831E0,-2.317482710E0
2.739543561E1,-2.516154528E0,5.309810638E0,-2.821352959E0
2.741551587E1,-1.843440175E0,1.968076110E0,-3.094593287E0
2.743559612E1,-1.561677694E0,5.954828262E-1,-3.457315683E0
2.745564586E1,-1.912682295E0,1.554753423E0,-3.661314011E0
2.747566509E1,-2.062884569E0,2.913498402E0,-3.389671564E0
2.749568431E1,-1.963282347E0,3.498861074E0,-2.454369307E0
2.751564250E1,-1.632517815E0,2.545449495E0,-1.397626996E0
2.753566172E1,-1.162203550E0,7.824367285E-1,-1.025849700E0
2.755574198E1,-8.628641963E-1,1.118527725E-2,-8.559399843E-1
2.757582223E1,-7.733820081E-1,5.938849449E-1,-6.471481323E-1
2.759584146E1,-7.595335841E-1,7.419567108E-1,-4.841626883E-1
2.761579965E1,-6.492787004E-1,4.980111420E-1,-4.554005563E-1
2.763578835E1,-4.607268870E-1,4.601942301E-1,-4.069310129E-1
2.765574654E1,-2.386192381E-1,6.966829300E-1,-1.736381054E-1
2.767567421E1,-1.422128081E-1,9.139968753E-1,9.534116834E-2
2.769560188E1,-3.009372056E-1,8.053399324E-1,3.808320463E-1
2.771556007E1,-3.398193717E-1,5.060006380E-1,6.657902598E-1
2.773551826E1,7.723167539E-2,4.298342168E-1,9.736517072E-1
2.775550696E1,4.175836742E-1,4.676510990E-1,1.292165756E0
2.777543464E1,6.466155052E-1,5.395564437E-1,1.542502880E0
2.779533179E1,7.733820081E-1,8.149272799E-1,1.658084154E0
2.781522894E1,7.387608886E-1,1.293763638E0,1.747033715E0
2.783512610E1,4.900216460E-1,1.465803862E0,1.860484362E0
2.785511480E1,2.066612989E-1,2.066612959E0,1.590972424E0
2.787501196E1,4.633900523E-2,2.723348618E0,1.391767979E0
2.789497015E1,7.137271762E-2,3.160106897E0,1.353951097E0
2.791492833E1,2.173139453E-1,2.973685741E0,1.067394972E0
2.793488652E1,5.038700700E-1,1.326786876E0,4.111920893E-1
2.795478368E1,1.157942414E0,3.217098713E-1,-3.275688291E-1
2.797471135E1,7.344998717E-1,1.635713577E0,-4.095941782E-1
2.799460850E1,-7.520766854E-1,2.656236887E0,-5.885586143E-1
2.801450566E1,-1.054079175E0,-9.832391143E-1,-2.139583588E0
2.803443333E1,-5.049353242E-1,-2.365952253E0,-2.625876904E0
2.805433048E1,-1.672465205E-1,-1.547296643E0,-2.773416042E0
2.807425815E1,-6.034722924E-1,-7.153250575E-1,-2.159291029E0
2.809418582E1,-9.267801046E-1,3.920173049E-1,-1.096157074E0
2.811414401E1,-6.860303283E-1,1.455151200E0,-2.540655732E-1
2.813410220E1,-2.929477394E-1,1.710282087E0,1.012001261E-1
2.815406039E1,5.326322280E-4,1.511610270E0,2.945456207E-1
2.817395754E1,-9.747169912E-2,1.153681397E0,3.888215125E-1
2.819385470E1,-2.055960447E-1,9.661948681E-1,8.106662631E-1
2.821375185E1,2.663161233E-2,8.229168057E-1,1.211205721E0
2.823371004E1,5.320996046E-1,6.966829300E-1,1.458879709E0
2.825369874E1,1.005077004E0,7.605988383E-1,1.574460864E0
2.827365693E1,1.165931940E0,1.452488065E0,1.479652286E0
2.829367616E1,6.444849968E-1,2.795786619E0,1.133441329E0
2.831366486E1,-4.639226794E-1,2.786731720E0,7.313040495E-1
2.833356202E1,-1.114266634E0,1.869006515E0,5.986786485E-1
2.835352020E1,-9.827064872E-1,1.631452560E0,5.954828262E-1
2.837353942E1,-5.065332651E-1,1.692705274E0,6.024070382E-1
2.839358916E1,-2.343581803E-2,1.538774490E0,4.383563101E-1
2.841351684E1,3.382214606E-1,1.622930408E0,1.171790902E-2
2.843350554E1,2.727077007E-1,2.275937557E0,-4.884237647E-1
2.845355528E1,-2.535329461E-1,2.574744225E0,-5.544701219E-1
2.847360502E1,-6.556702852E-1,2.457032442E0,-4.628573954E-1
2.849359373E1,-4.442152679E-1,1.951564431E0,-3.925499618E-1
2.851355192E1,-9.161274135E-2,9.139968753E-1,-1.038632840E-1
2.853360166E1,-9.960222989E-2,3.659183383E-1,2.759034932E-1
2.855365139E1,-1.656486243E-1,6.056028605E-1,3.856257200E-1
2.857357907E1,-2.865561247E-1,9.289106131E-1,4.021373391E-1
2.859356777E1,-3.366235793E-1,8.431568146E-1,4.458131790E-1
2.861349544E1,-2.588592768E-1,9.518138170E-1,4.127899706E-1
2.863348415E1,-2.071939409E-1,1.266599417E0,3.989415467E-1
2.865347285E1,-2.673813701E-1,1.421062827E0,4.468784332E-1
2.867349208E1,-3.030677438E-1,1.396029115E0,4.213120937E-1
2.869357233E1,-2.684466541E-1,1.189367771E0,3.067961633E-1
2.871356104E1,-2.455434501E-1,8.516789079E-1,1.241033077E-1
2.873354974E1,-3.131877482E-1,3.637878001E-1,-1.475391239E-1
2.875359948E1,-4.522047639E-1,3.238403797E-1,-5.938849449E-1
2.877361871E1,-9.576727748E-1,1.120658159E0,-1.613875628E0
2.879360741E1,-1.203216195E0,2.001099348E0,-2.463423967E0
2.881356560E1,-9.901633263E-1,2.259425879E0,-2.809634924E0
2.883355431E1,-7.749798894E-1,1.814677954E0,-2.736131668E0
2.885360404E1,-7.792409658E-1,1.455683827E0,-2.688194752E0
2.887359275E1,-5.683186054E-1,1.410410166E0,-2.796851873E0
2.889364249E1,3.408846259E-2,1.468466997E0,-2.841060400E0
2.891366171E1,5.267732739E-1,1.781654835E0,-3.040797472E0
2.893368094E1,3.930825889E-1,2.935868740E0,-3.426423073E0
2.895363912E1,2.322276533E-1,2.752110720E0,-3.571831703E0
2.897353628E1,1.896170676E-1,1.477521777E0,-3.281547070E0
2.899349447E1,2.950782478E-1,-9.976201653E-1,-2.765426636E0
2.901345265E1,1.374191195E-1,-2.838397026E0,-2.531600952E0
2.903344136E1,-4.420847595E-1,-1.283111095E0,-2.402171373E0
2.905343006E1,-6.391586736E-3,5.502091050E-1,-2.117745638E0
2.907338825E1,3.802994192E-1,-8.948221803E-2,-1.608016729E0
2.909340748E1,2.514024079E-1,-8.538094759E-1,-1.172323585E0
2.911339618E1,1.097222418E-1,-8.692557812E-1,-8.532768488E-1
2.913344592E1,1.448759735E-1,-6.045376062E-1,-3.685815036E-1
2.915343463E1,3.153182864E-1,-6.812366247E-1,3.115898669E-1
2.917339282E1,4.442152679E-1,-9.342369437E-1,8.926916122E-1
2.919328997E1,5.976133347E-1,-9.651296139E-1,1.179780364E0
2.921324816E1,6.418218613E-1,-8.495483994E-1,1.386441708E0
2.923314531E1,4.687163532E-1,-6.354302764E-1,1.868473887E0
2.925304247E1,5.347627401E-1,-2.695119083E-1,2.224272251E0
2.927293962E1,2.838929892E-1,1.415203810E0,2.000566721E0
2.929283677E1,7.526093125E-1,1.901497006E0,2.364354372E0
2.931270341E1,7.882956862E-1,5.118595958E-1,2.647714853E0
2.933263108E1,-6.125270575E-2,-4.048004746E-2,1.940379262E0
2.935252824E1,1.182443574E-1,-8.293083906E-1,1.388039589E0
2.937242539E1,2.343581803E-2,-1.350222707E0,1.545698762E0
2.939235306E1,-3.302319720E-2,-1.804025412E0,1.853560209E0
2.941231125E1,0.000000000E0,-1.552622914E0,1.810416937E0
2.943220840E1,-9.054748341E-3,-1.035437107E0,1.295894265E0
2.945216659E1,-1.853560209E-1,-5.139901042E-1,1.125984550E0
2.947209426E1,-2.412824035E-1,-2.966761589E-1,1.255414128E0
2.949202193E1,-2.359560728E-1,-1.672465205E-1,1.385909081E0
2.951201064E1,-1.965412945E-1,-1.922802329E-1,1.300687909E0
2.953190779E1,-1.241033077E-1,-3.648530841E-1,1.141963482E0
2.955180495E1,2.077265643E-2,-6.961503029E-1,1.028512836E0
2.957173262E1,2.253034264E-1,-8.857674003E-1,1.000815988E0
2.959159926E1,3.808320463E-1,-6.412891746E-1,1.009870648E0
2.961149641E1,4.830974340E-1,-3.036003746E-2,9.331716895E-1
2.963139357E1,5.091964006E-1,5.102616549E-1,7.728493810E-1
2.965126020E1,3.962783813E-1,6.402239203E-1,6.151902080E-1
2.967115736E1,3.057309091E-1,7.195861340E-1,5.091964006E-1
2.969105451E1,2.375539690E-1,8.708537221E-1,4.772384763E-1
2.971095167E1,1.459412277E-1,6.146575809E-1,3.866910040E-1
2.973090985E1,7.723167539E-2,2.577939928E-1,3.169161677E-1
2.975080701E1,9.534116834E-2,3.834952042E-2,4.298342168E-1
2.977067364E1,1.890844405E-1,1.065264456E-3,5.352953672E-1
2.979057080E1,2.221076339E-1,1.390170157E-1,5.390238166E-1
2.981046795E1,1.358212233E-1,2.130528986E-1,5.017395616E-1
2.983036511E1,6.018744037E-2,1.826928556E-1,5.257080197E-1
2.985023174E1,2.130528912E-2,2.732403278E-1,5.896238685E-1
2.987012890E1,1.704423130E-2,2.897519469E-1,6.599313021E-1
2.989002605E1,1.597896591E-2,3.707120419E-1,7.590008974E-1
2.990995372E1,-5.166532472E-2,4.458131790E-1,7.488809228E-1
2.992985088E1,-1.049285457E-1,4.143878818E-1,4.964132309E-1
2.994974803E1,-1.257012039E-1,2.972087860E-1,3.270362020E-1
2.996964518E1,-1.842907518E-1,-2.663161140E-3,2.519350350E-1
2.998951182E1,-1.587243974E-1,-9.374327213E-2,-1.001348570E-1
3.000940898E1,-2.284992188E-1,8.202536404E-2,-7.265103459E-1
3.002930613E1,-7.073355913E-1,2.737729549E-1,-1.341167927E0
3.004923380E1,-1.053546548E0,4.143878818E-1,-1.737446308E0
3.006913096E1,-1.073786616E0,1.150485575E-1,-1.995240331E0
3.008905863E1,-8.314388990E-1,-3.094593287E-1,-2.305764914E0
3.010895578E1,-4.974785149E-1,-8.053399324E-1,-2.623213768E0
3.012891397E1,-4.399542212E-1,-1.238902569E0,-2.789927721E0
3.014887216E1,-4.980111420E-1,-2.434129268E-1,-2.744121313E0
3.016886086E1,-3.041329980E-1,1.604288220E0,-3.040264845E0
3.018884957E1,3.739078343E-1,2.896454096E0,-3.433347225E0
3.020877724E1,5.065332651E-1,3.091397524E0,-3.274622917E0
3.022867439E1,-1.848233789E-1,6.338323355E-1,-2.512958765E0
3.024860207E1,-2.950782478E-1,-1.614940882E0,-2.049036264E0
3.026859077E1,-2.327602804E-1,-1.151018262E0,-1.935052872E0
3.028851844E1,2.982740477E-2,5.784385800E-1,-2.081526756E0
3.030844611E1,1.661812514E-1,7.669904232E-1,-2.235457420E0
3.032834327E1,1.443433315E-1,8.064051867E-1,-2.148638487E0
3.034824042E1,2.860234976E-1,8.367652297E-1,-1.882322311E0
3.036813758E1,4.250405133E-1,-3.195793368E-3,-1.443433285E0
3.038803473E1,4.900216460E-1,-1.137169838E0,-7.952198982E-1
3.040793188E1,5.587311983E-1,-1.502555490E0,-1.949433982E-1
3.042779852E1,7.062703371E-1,-1.019458055E0,2.199771106E-1
3.044769568E1,7.627293468E-1,-9.108011425E-2,5.496764779E-1
3.046759283E1,6.636597514E-1,5.597964525E-1,9.161274433E-1
3.048745947E1,4.271710515E-1,2.013349831E-1,1.403485894E0
3.050735662E1,3.174487948E-1,-6.317018270E-1,2.124137402E0
3.052725377E1,3.254382908E-1,-1.052481294E0,2.665824413E0
3.054715093E1,-2.886866629E-1,1.495098710E0,3.018959522E0
3.056701756E1,1.345429063E0,1.156877160E0,3.765709877E0
3.058691472E1,5.992112756E-1,-7.339671850E-1,3.202717543E0
3.060681187E1,-5.470132828E-1,-8.847021461E-1,1.325721622E0
3.062670903E1,1.001348570E-1,-1.496696621E-1,4.878911078E-1
3.064660618E1,2.705771625E-1,3.142530099E-2,8.884305358E-1
3.066647282E1,1.810949594E-1,-6.812366247E-1,1.756621122E0
3.068636997E1,2.093244642E-1,-1.358744860E0,2.174204826E0
3.070626713E1,1.193096191E-1,-1.680454731E0,1.845570683E0
3.072619480E1,-9.640643001E-2,-1.732652664E0,1.184041500E0
3.074609195E1,-2.311623842E-1,-1.376321673E0,1.090298176E0
3.076601962E1,-1.006674916E-1,-7.137271762E-1,1.185639381E0
3.078591678E1,1.352885813E-1,-1.981391907E-1,1.144626617E0
3.080581393E1,2.242381722E-1,-1.171790902E-2,1.098820329E0
3.082568057E1,2.284992188E-1,9.161274135E-2,9.890980721E-1
3.084557772E1,1.880191714E-1,2.652508616E-1,6.263754964E-1
3.086550539E1,9.587380290E-2,4.825648069E-1,3.281014562E-1
3.088537203E1,2.982740477E-2,6.945524216E-1,2.918824553E-1
3.090526918E1,8.681905270E-2,7.696535587E-1,3.776362538E-1
3.092516634E1,1.523328125E-1,6.189186573E-1,5.246427655E-1
3.094512453E1,1.459412277E-1,2.077265680E-1,6.082659960E-1
3.096502168E1,9.906959534E-2,-2.641855776E-1,5.315669775E-1
3.098491884E1,9.161274135E-2,-4.921521842E-1,3.696467578E-1
3.100481599E1,1.970739216E-1,-4.261057824E-2,2.210423797E-1
3.102471314E1,2.364887148E-1,5.129248500E-1,1.640507281E-1
3.104464082E1,2.013349831E-1,7.563377619E-1,1.842907518E-1
3.106453797E1,1.491370201E-1,8.479505181E-1,2.727077007E-1
3.108446564E1,5.273059011E-2,8.554073572E-1,3.968110085E-1
3.110436280E1,-8.735168725E-2,7.824367285E-1,5.187838078E-1
3.112425995E1,-1.533980817E-1,3.941478431E-1,6.604639888E-1
3.114412659E1,-5.326322280E-4,-3.249056637E-2,8.916263580E-1
3.116402374E1,1.912149638E-1,-2.375539690E-1,9.337043166E-1
3.118392089E1,1.086569726E-1,-2.775014043E-1,6.625944972E-1
3.120378753E1,1.810949668E-2,-7.882957160E-2,4.048005044E-1
3.122368469E1,-5.379585549E-2,1.518001854E-1,3.179814517E-1
3.124358184E1,-1.944107562E-1,2.455434501E-1,8.628641814E-2
3.126347899E1,-3.712446690E-1,6.173207760E-1,-4.575310946E-1
3.128334563E1,-7.861651778E-1,9.614011645E-1,-1.209607840E0
3.130324279E1,-1.003479123E0,1.012001276E0,-1.687378883E0
3.132320097E1,-9.523464441E-1,6.854977012E-1,-1.882322311E0
3.134309813E1,-6.727145314E-1,6.338323653E-2,-2.056493044E0
3.136299528E1,-4.021373391E-1,-6.364955306E-1,-2.258360624E0
3.138289244E1,-2.838929892E-1,-1.127049804E0,-2.493251562E0
3.140275907E1,-2.796319127E-1,-6.972155571E-1,-2.845321417E0
3.142265623E1,-3.067961633E-1,1.301753163E0,-3.302852392E0
3.144255338E1,-6.231797114E-2,3.176618576E0,-4.037884712E0
3.146242002E1,2.833603323E-1,3.005643606E0,-4.099670410E0
3.148231717E1,2.114549875E-1,-4.053331316E-1,-3.025351048E0
3.150221433E1,-9.427590668E-2,-1.635180950E0,-2.220011234E0
3.152211148E1,-2.849582434E-1,6.301039457E-1,-1.980326653E0
3.154200864E1,1.033306494E-1,5.294364095E-1,-2.044242382E0
3.156190579E1,7.989483327E-2,-5.672533512E-1,-2.125735283E0
3.158180294E1,-1.533980817E-1,8.468852192E-2,-1.944640279E0
3.160173061E1,-5.699164793E-2,3.680488765E-1,-1.662345171E0
3.162162777E1,-5.752427876E-2,-4.372910559E-1,-1.248489976E0
3.164149441E1,-1.278317273E-1,-1.228249907E0,-6.114618182E-1
3.166139156E1,5.379585549E-2,-1.252750993E0,9.747169912E-2
3.168131923E1,3.286340833E-1,-7.408914566E-1,4.751079381E-1
3.170121639E1,4.143878818E-1,3.941478580E-2,7.163903713E-1
3.172108302E1,3.659183383E-1,6.524744630E-1,9.299758673E-1
3.174098018E1,1.081243455E-1,8.021441102E-1,1.012001276E0
3.176090785E1,-1.912149638E-1,5.821670294E-1,1.255414128E0
3.178083552E1,3.573962152E-1,-5.826996565E-1,1.979794025E0
3.180070216E1,8.985505700E-1,-8.255799413E-1,2.574744225E0
3.182059931E1,1.518001854E-1,4.250405133E-1,2.617354870E0
3.184052698E1,4.308994710E-1,5.326322466E-2,2.470348358E0
3.186045465E1,2.269013226E-1,4.154531285E-2,1.798699021E0
3.188035181E1,1.459412277E-1,-4.048004746E-2,1.200553060E0
3.190027948E1,2.583266199E-1,4.846953154E-1,1.237304688E0
3.192023767E1,1.624528319E-1,3.941478431E-1,1.629321933E0
3.194016534E1,1.619201899E-1,-2.801645398E-1,1.947836041E0
3.196009301E1,9.001484513E-2,-8.580704927E-1,1.905225515E0
3.198002068E1,-1.533980817E-1,-1.516936541E0,1.404018521E0
3.199991783E1,-3.158509135E-1,-1.826928496E0,8.522115946E-1
3.201981499E1,-3.307646215E-1,-1.449824929E0,8.234494328E-1
3.203971214E1,-2.253034264E-1,-8.532768488E-1,1.022121191E0
3.205960930E1,-5.592638254E-2,-5.949501991E-1,1.054611802E0
3.207956748E1,1.262338310E-1,-5.864281058E-1,1.029045463E0
3.209949516E1,2.668487430E-1,-6.072007418E-1,1.027447581E0
3.211945334E1,3.675162494E-1,-4.468784332E-1,9.869675040E-1
3.213938102E1,3.749730885E-1,-1.390170157E-1,8.665926456E-1
3.215930869E1,3.286340833E-1,2.993393242E-1,7.781757116E-1
3.217923636E1,2.476739883E-1,5.976133347E-1,7.504788041E-1
3.219919147E1,2.109223604E-1,5.922870636E-1,6.279733777E-1
3.221911914E1,2.689792812E-1,5.443501472E-1,5.166532397E-1
3.223904681E1,2.993393242E-1,5.507417321E-1,3.984089196E-1
3.225900500E1,2.178465873E-1,5.965480804E-1,3.973436356E-1
3.227893266E1,7.723167539E-2,6.439523697E-1,4.495415986E-1
3.229882982E1,-5.060006306E-2,5.097290277E-1,4.713795185E-1
3.231872697E1,-9.587380104E-3,2.998719513E-1,4.308994710E-1
3.233865464E1,8.681905270E-2,1.193096191E-1,4.314320982E-1
3.235864334E1,1.091896072E-1,-8.841694891E-2,5.507417321E-1
3.237857101E1,1.592570394E-1,-3.142530099E-2,6.620618701E-1
3.239849868E1,8.894958347E-2,3.925499618E-1,7.504788041E-1
3.241845687E1,4.101268202E-2,6.322344542E-1,8.404936790E-1
3.243844557E1,6.924218684E-2,6.082659960E-1,8.767126203E-1
3.245837324E1,4.101268202E-2,1.475391239E-1,7.440872192E-1
3.247830091E1,1.810949668E-2,-2.428802997E-1,5.661880374E-1
3.249822858E1,4.101268202E-2,-2.018676102E-1,3.557983339E-1
3.251815625E1,6.391586736E-3,-1.171790883E-1,3.408846259E-2
3.253814495E1,-9.906959534E-2,1.182443574E-1,-4.452805519E-1
3.255813366E1,-3.994741738E-1,6.290386319E-1,-9.086706042E-1
3.257815288E1,-7.882956862E-1,7.930893898E-1,-1.220793009E0
3.259814158E1,-8.655273914E-1,4.559331834E-1,-1.439172268E0
3.261813029E1,-7.600662112E-1,-2.503371425E-2,-1.594168305E0
3.263811899E1,-5.427522659E-1,-4.255731404E-1,-1.800829530E0
3.265816873E1,-3.307646215E-1,-7.888283134E-1,-2.108158350E0
3.267818795E1,-3.515372574E-1,-1.026382327E0,-2.378735542E0
3.269817665E1,-5.779059529E-1,-5.842975378E-1,-2.527872562E0
3.271813484E1,-5.512743592E-1,8.277105093E-1,-2.773948669E0
3.273806251E1,-1.432780623E-1,1.857821226E0,-3.081277370E0
3.275805121E1,7.185208797E-1,2.023469925E0,-3.308711290E0
3.277803992E1,5.368933082E-1,1.584048271E0,-2.720685482E0
3.279796759E1,-1.299622655E-1,-2.231729031E-1,-2.194444895E0
3.281789526E1,-2.109223604E-1,-1.350755334E0,-1.916943431E0
3.283788396E1,-4.900216311E-2,-6.775081754E-1,-1.848233819E0
3.285781163E1,2.716424316E-2,-7.723167539E-2,-1.961151838E0
3.287786137E1,-9.693906456E-2,1.374191195E-1,-2.080461502E0
3.289775852E1,-1.784317940E-1,4.974785149E-1,-2.038916111E0
3.291765567E1,-9.587380290E-2,3.856257200E-1,-1.800829530E0
3.293761386E1,-1.970739290E-2,-2.269013226E-1,-1.443965912E0
3.295754153E1,-5.539375171E-2,-7.153250575E-1,-9.283779860E-1
3.297746920E1,-9.800432622E-2,-4.681837261E-1,-4.351605177E-1
3.299739687E1,-7.510114461E-2,2.455434501E-1,-2.263686955E-1
3.301732454E1,2.077265643E-2,9.614011645E-1,-7.084008306E-2
3.303731324E1,1.528654546E-1,1.307079434E0,1.560612470E-1
3.305730194E1,2.066612989E-1,1.045557022E0,3.659183383E-1
3.307735168E1,1.778991669E-1,4.692489803E-1,6.040049195E-1
3.309743194E1,2.173139453E-1,9.693906456E-2,8.500810266E-1
3.311751219E1,3.360909224E-1,2.609897964E-2,1.110538244E0
3.313759245E1,2.444781959E-1,-1.358212233E-1,1.380582690E0
3.315767270E1,3.568635881E-2,-7.169229984E-1,1.620799899E0
3.317775296E1,-4.378236830E-1,-5.645901710E-2,1.792840123E0
3.319777218E1,-4.676510990E-1,1.643703103E0,2.146507978E0
3.321785243E1,8.154599667E-1,1.450357556E0,2.640790701E0
3.323793269E1,4.458131790E-1,-1.043959185E-1,2.189118385E0
3.325801294E1,-3.941478580E-2,-1.369397402E0,1.482315540E0
3.327806268E1,-1.070590764E-1,-1.661812544E0,1.563275576E0
3.329814294E1,-6.072007492E-2,-1.451422811E0,1.794970632E0
3.331822319E1,6.072007492E-2,-8.122641444E-1,1.755023241E0
3.333830345E1,1.768338978E-1,5.592638254E-2,1.559547186E0
3.335835318E1,1.858886480E-1,3.904194236E-1,1.291100502E0
3.337840292E1,1.507349163E-1,2.982740402E-1,1.187237263E0
3.339848318E1,1.139832959E-1,8.042746782E-2,1.238369942E0
3.341856343E1,5.805691332E-2,-1.922802329E-1,1.309742689E0
3.343861317E1,4.687163606E-2,-5.118595958E-1,1.287904739E0
3.345869343E1,2.556634694E-2,-6.407565475E-1,1.310275316E0
3.347874316E1,4.474110901E-2,-9.054747820E-1,1.057274938E0
3.349876238E1,6.125270575E-2,-1.058340192E0,8.133293986E-1
3.351881212E1,3.781688958E-2,-7.440872192E-1,6.775081754E-1
3.353877031E1,9.054748341E-3,-3.201119602E-1,4.687163532E-1
3.355878953E1,1.171790902E-2,1.507349163E-1,2.253034264E-1
3.357883927E1,8.415589482E-2,6.439523697E-1,6.498113275E-2
3.359888901E1,1.773665249E-1,9.624664187E-1,4.101268202E-2
3.361899978E1,2.673813701E-1,1.008272767E0,-1.065264456E-3
3.363908003E1,3.552657068E-1,9.837717414E-1,-2.663161233E-2
3.365912977E1,4.559331834E-1,9.310411215E-1,-9.587380104E-3
3.367921003E1,2.237055302E-1,1.112668753E0,1.012001261E-1
3.369929028E1,-1.571265012E-1,7.984157205E-1,1.794970632E-1
3.371937054E1,-9.960222989E-2,-9.587380290E-2,2.194444835E-1
3.373945079E1,-1.917476021E-2,-4.356931746E-1,2.897519469E-1
3.375953105E1,-1.459412277E-1,8.522115648E-2,3.376888335E-1
3.377961130E1,-3.749730885E-1,7.275756001E-1,3.147856593E-1
3.379969156E1,-3.824299276E-1,8.138620257E-1,3.291667104E-1
3.381977181E1,-2.514024079E-1,7.334345579E-1,4.697816372E-1
3.383985207E1,-1.448759735E-1,6.301039457E-1,6.593986750E-1
3.385993232E1,-1.608549356E-1,3.920173049E-1,8.090683818E-1
3.388001258E1,-1.965412945E-1,1.187769845E-1,8.378304839E-1
3.390009283E1,-1.992044598E-1,9.161274135E-2,7.201187611E-1
3.392017309E1,-1.976065636E-1,3.941478431E-1,4.729774296E-1
3.394025334E1,-2.412824035E-1,9.704559445E-1,1.731054783E-1
3.396033360E1,-3.733751774E-1,1.426921725E0,2.013349831E-1
3.398041385E1,-5.044026971E-1,1.447694421E0,5.358279943E-1
3.400046359E1,-5.683186054E-1,1.205346704E0,7.073355913E-1
3.402057436E1,-4.649879336E-1,8.884305358E-1,7.078682184E-1
3.404065462E1,-4.889563918E-1,6.434197426E-1,3.057309091E-1
3.406073487E1,-6.258428693E-1,9.102684855E-1,-2.306297570E-1
3.408081513E1,-7.627293468E-1,1.430117488E0,-8.058725595E-1
3.410083435E1,-7.286409140E-1,1.617604017E0,-1.449824929E0
3.412091460E1,-2.913498282E-1,1.414138556E0,-1.837048531E0
3.414102538E1,-2.929477207E-2,1.204814076E0,-2.030394077E0
3.416107512E1,1.613875628E-1,1.498294473E0,-2.131594181E0
3.418112485E1,4.452805519E-1,2.076733112E0,-2.217880487E0
3.420120511E1,8.314388990E-1,2.486327171E0,-2.287655354E0
3.422128536E1,1.443433285E0,2.999784708E0,-2.204032183E0
3.424136562E1,2.716424465E-1,1.775263190E0,-1.783785343E0
3.426144587E1,-7.456851192E-3,6.141249537E-1,-1.463140726E0
3.428152613E1,-1.379517466E-1,4.447479248E-1,-1.449824929E0
3.430160638E1,-5.097290277E-1,6.135923266E-1,-1.315068960E0
3.432168664E1,-6.908239722E-1,2.711097896E-1,-1.075384498E0
3.434176689E1,-7.984157205E-1,8.522115648E-2,-8.037420511E-1
3.436184715E1,-8.064051867E-1,8.554073572E-1,-7.771103978E-1
3.438192740E1,-6.013417840E-1,2.272209167E0,-8.905611038E-1
3.440200766E1,-4.495415986E-1,1.984587669E0,-1.105744481E0
3.442208791E1,-6.242449880E-1,1.048752904E0,-1.143028736E0
3.444216817E1,-7.424893379E-1,-2.396845073E-2,-8.894958496E-1
3.446224843E1,-6.476807594E-1,-2.993393242E-1,-6.205165386E-1
3.448232868E1,-5.400890708E-1,1.342233270E-1,-4.175836742E-1
3.450240894E1,-4.548679292E-1,7.158577442E-1,-1.906823367E-1
3.452248919E1,-4.175836742E-1,1.034904361E0,1.294296384E-1
3.454259996E1,-4.458131790E-1,1.189367771E0,4.442152679E-1
3.456268022E1,-4.532700181E-1,1.376854300E0,7.850999236E-1
3.458276047E1,-3.994741738E-1,1.630919933E0,1.182976127E0
3.460284073E1,-2.673813701E-1,1.800296903E0,1.539307117E0
3.462289047E1,-1.651159860E-2,1.718804240E0,1.935052872E0
3.464297072E1,5.060006380E-1,1.333178520E0,2.340385914E0
3.466305098E1,9.209211469E-1,3.669835925E-1,2.584331512E0
3.468310071E1,9.470201135E-1,-1.163268805E0,2.608832598E0
3.470315045E1,1.071123362E0,-1.964880347E0,2.202434301E0
3.472323071E1,1.369397402E0,-5.805691481E-1,1.928661346E0
3.474331096E1,1.202150941E0,9.965549111E-1,1.886583328E0
3.476336070E1,6.231797338E-1,1.443965912E0,1.825330615E0
3.478334940E1,9.960222989E-2,1.781654835E0,1.161138296E0
3.480333811E1,-7.243798673E-2,3.143595457E0,-2.444781959E-1
3.482332681E1,-1.379517466E-1,4.793157578E0,-1.952097058E0
3.484334603E1,-2.641855776E-1,1.921737075E0,-3.249056578E0
3.486336525E1,4.671184719E-1,6.237123609E-1,-3.501524210E0
3.488344551E1,3.510046303E-1,3.978762627E-1,-3.621899128E0
3.490352576E1,-6.348975897E-1,-2.137453079E0,-3.151052237E0
3.492357550E1,-1.728391528E0,-3.234142780E0,-1.859419107E0
3.494365576E1,-2.170476437E0,-2.934270859E0,-5.656554103E-1
3.496373601E1,-1.727858901E0,-1.628256679E0,1.331580579E-1
3.498378575E1,-5.464806557E-1,1.182443574E-1,2.002697140E-1
3.500386600E1,6.348975897E-1,1.588309288E0,9.587380290E-2
3.502394626E1,1.096157074E0,2.039448738E0,-1.225054078E-2
3.504402651E1,9.901633263E-1,1.837581158E0,1.619201899E-1
3.506410677E1,8.500810266E-1,1.478054404E0,5.672533512E-1
3.508418702E1,1.065797091E0,8.239820600E-1,8.064051867E-1
3.510426728E1,9.342369437E-1,1.965412945E-1,7.680556774E-1
3.512434754E1,1.283643693E-1,-2.503371537E-1,5.901564956E-1
3.514442779E1,-5.837649107E-1,3.637878001E-1,6.572681665E-1
3.516450805E1,-8.564726114E-1,1.401888013E0,7.888283134E-1
3.518458830E1,-1.002413869E0,1.445563912E0,5.310343504E-1
3.520466856E1,-9.661948681E-1,4.479437172E-1,3.153182864E-1
3.522474881E1,-7.105314136E-1,-4.010720551E-1,4.729774296E-1
3.524482907E1,-3.344930410E-1,-5.187838078E-1,6.348975897E-1
3.526490932E1,-3.036003746E-2,-1.810949668E-2,5.757754445E-1
3.528498958E1,1.651159860E-2,8.804410696E-1,4.362258017E-1
3.530506983E1,-1.278317347E-2,1.925998092E0,2.844256163E-1
3.532515009E1,8.255799860E-2,2.967294216E0,1.528654546E-1
3.534523034E1,9.054747969E-2,3.608050823E0,8.468852192E-2
3.536531060E1,-1.139832959E-1,3.577690601E0,7.510114461E-2
3.538536033E1,-3.531351686E-1,3.067429066E0,1.533980817E-1
3.540547111E1,-4.538026452E-1,2.286590099E0,2.247707993E-1
3.542552084E1,-3.664509654E-1,1.448759675E0,1.715075821E-1
3.544560110E1,-2.109223604E-1,8.575378656E-1,3.834952042E-2
3.546568135E1,-2.290318608E-1,6.562029123E-1,-1.757686399E-2
3.548573109E1,-3.925499618E-1,8.452873230E-1,-3.888215125E-2
3.550578083E1,-4.878911078E-1,1.359277487E0,-1.102548689E-1
3.552580005E1,-4.298342168E-1,1.867408633E0,-2.189118415E-1
3.554588031E1,-3.701793849E-1,2.116147757E0,-2.705771625E-1
3.556596056E1,-4.372910559E-1,2.075135231E0,-2.945456207E-1
3.558604082E1,-5.747101903E-1,1.860484362E0,-4.617921412E-1
3.560612107E1,-6.082659960E-1,1.980859280E0,-7.771103978E-1
3.562620133E1,-6.151902080E-1,2.523078918E0,-1.339037418E0
3.564628158E1,-1.148887753E0,4.960936546E0,-2.262089014E0
3.566633132E1,-3.377953529E0,8.216917038E0,-3.592071772E0
3.568641158E1,-2.465554476E0,6.711165905E0,-3.854126692E0
3.570649183E1,-1.649029374E0,2.822418213E0,-3.798732996E0
3.572657208E1,-1.608016729E0,5.028048158E-1,-3.923368931E0
3.574665234E1,-1.692172647E0,9.677927494E-1,-3.641073942E0
3.576673260E1,-1.530252337E0,2.329200745E0,-2.842658281E0
3.578681285E1,-1.243696213E0,2.586462021E0,-2.063949823E0
3.580689310E1,-1.274588943E0,1.691107273E0,-1.848233819E0
3.582694284E1,-1.415736437E0,4.426173866E-1,-1.891377091E0
3.584702310E1,-1.270860553E0,-7.510114312E-1,-2.002164602E0
3.586710335E1,-1.416801691E0,-7.195861340E-1,-2.075135231E0
3.588718361E1,-1.418399572E0,5.763080716E-1,-1.847168565E0
3.590726386E1,-9.571400881E-1,1.695368409E0,-1.637844086E0
3.592734412E1,-5.667206645E-1,1.983522415E0,-1.727326274E0
3.594742437E1,-5.901564956E-1,1.298024774E0,-1.867408633E0
3.596750463E1,-7.339671850E-1,3.243730366E-1,-1.715075731E0
3.598761540E1,-6.977482438E-1,8.149272949E-2,-1.408812284E0
3.600769566E1,-5.134574771E-1,5.054680109E-1,-1.117462397E0
3.602777591E1,-3.515372574E-1,8.697884083E-1,-8.490157723E-1
3.604785617E1,-2.998719513E-1,8.159925938E-1,-5.001416802E-1
3.606790590E1,-2.743056118E-1,2.663161159E-1,-2.221076339E-1
3.608798616E1,-2.993393242E-1,-4.207794741E-2,-6.391586363E-2
3.610806642E1,-2.950782478E-1,-1.230380461E-1,5.060006306E-2
3.612811615E1,-2.391518652E-1,-2.556634694E-2,2.391518652E-1
3.614819641E1,-1.416801661E-1,-1.171790902E-2,4.538026452E-1
3.616824615E1,-4.314320907E-2,-9.321063757E-2,5.933523178E-1
3.618832640E1,8.042746782E-2,-1.965412945E-1,6.050702333E-1
3.620840666E1,2.221076339E-1,-7.723167539E-2,5.592638254E-1
3.622848691E1,3.094593287E-1,2.892192900E-1,5.587311983E-1
3.624856717E1,3.888215125E-2,2.668487430E-1,6.269081235E-1
3.626864742E1,-1.677791476E-1,-3.510046303E-1,7.419567108E-1
3.628869716E1,-1.645833552E-1,-3.483414650E-1,7.275756001E-1
3.630877741E1,-1.422128081E-1,5.129248500E-1,6.157228351E-1
3.632882715E1,-3.568635881E-1,1.023719192E0,5.688512325E-1
3.634887689E1,-2.402171344E-1,7.030745149E-1,2.146507949E-1
3.636895714E1,-7.829693705E-2,3.749730885E-1,7.137271762E-2
3.638900688E1,-2.732403278E-1,6.902913451E-1,2.487392575E-1
3.640908714E1,3.249056637E-2,2.002697140E-1,7.547398806E-1
3.642916739E1,2.604571581E-1,-1.039165497E0,1.308677435E0
3.644924765E1,1.123853996E-1,-6.732471585E-1,1.794438004E0
3.646932790E1,2.178465873E-1,7.467503548E-1,1.892442346E0
3.648940816E1,1.789644361E-1,1.161138296E0,1.720934749E0
3.650945790E1,2.077265643E-2,9.432916641E-1,1.421595454E0
3.652953815E1,1.288969964E-1,1.097222418E-1,1.417334318E0
3.654958789E1,2.790992856E-1,-6.844323874E-1,1.699096799E0
3.656966814E1,3.408846259E-1,-1.056209683E0,1.815210581E0
3.658974840E1,4.394215941E-1,-9.949570298E-1,1.676726222E0
3.660976762E1,4.958806038E-1,-6.993461251E-1,1.506283998E0
3.662978684E1,4.122573435E-1,-4.340952635E-1,1.449824929E0
3.664977555E1,2.284992188E-1,-3.355583176E-2,1.372593284E0
3.666982528E1,1.693770438E-1,4.564658105E-1,1.267132044E0
3.668981399E1,2.977414131E-1,1.090830803E0,1.350222707E0
3.670989424E1,4.229099751E-1,1.495098710E0,1.464738607E0
3.672994398E1,3.169161677E-1,1.340102673E0,1.482315540E0
3.674987165E1,1.267664731E-1,7.286409140E-1,1.407214403E0
3.676986035E1,7.137271762E-2,-3.249056637E-1,1.202150941E0
3.678987957E1,7.243798673E-2,-1.063133955E0,1.109472990E0
3.680980724E1,1.257012039E-1,-1.457814455E0,1.050883412E0
3.682973491E1,2.290318608E-1,-1.533448219E0,9.715211987E-1
3.684969310E1,2.902845740E-1,-1.352353215E0,8.809736967E-1
3.686965129E1,2.924150825E-1,-1.018925428E0,7.691209316E-1
3.688960947E1,2.391518652E-1,-5.624596477E-1,5.693838596E-1
3.690959818E1,2.071939409E-1,-3.067961633E-1,4.213120937E-1
3.692961740E1,3.861583769E-1,3.371562064E-1,2.961435318E-1
3.694963662E1,5.049353242E-1,1.030110717E0,2.806971967E-1
3.696962532E1,4.026699662E-1,1.553688169E0,2.892192900E-1
3.698970558E1,2.130528912E-2,1.802427411E0,3.078614175E-1
3.700975532E1,-1.139832959E-1,1.230913043E0,3.547330499E-1
3.702980505E1,-1.278317347E-2,5.283711553E-1,5.800365210E-1
3.704985479E1,-1.704423130E-2,2.055960447E-1,7.376956344E-1
3.706984350E1,-4.953479767E-2,1.512675583E-1,7.659251690E-1
3.708983220E1,-7.030745596E-2,3.643204570E-1,7.009440064E-1
3.710979039E1,-9.587380290E-2,5.976133347E-1,5.038700700E-1
3.712980961E1,-1.336906850E-1,6.519418359E-1,3.584614992E-1
3.714979831E1,-1.230380461E-1,5.203816891E-1,3.387540877E-1
3.716975650E1,-6.338323653E-2,4.916195571E-1,4.303668439E-1
3.718971468E1,7.989482954E-3,5.065332651E-1,5.613943934E-1
3.720967287E1,5.432848632E-2,4.495415986E-1,5.928196907E-1
3.722966157E1,6.018744037E-2,3.259709179E-1,5.566006899E-1
3.724968080E1,5.699164793E-2,1.086569726E-1,4.767058492E-1
3.726960847E1,7.243798673E-2,-5.805691332E-2,3.057309091E-1
3.728959717E1,-7.403588295E-2,-7.882957160E-2,-1.331580579E-1
3.730964691E1,-5.986786485E-1,-7.243798673E-2,-6.391586661E-1
3.732960509E1,-1.070058107E0,2.258360684E-1,-9.928264618E-1
3.734956328E1,-9.422264099E-1,4.543353021E-1,-1.233576298E0
3.736958250E1,-6.295713186E-1,4.724447727E-1,-1.597364068E0
3.738954069E1,-4.761732221E-1,7.568703890E-1,-2.099103689E0
3.740949887E1,-5.123922229E-1,8.575378656E-1,-2.422944069E0
3.742948758E1,-8.570052385E-1,7.408914566E-1,-2.618420124E0
3.744938473E1,-1.159007788E0,1.040763378E0,-2.703108549E0
3.746937344E1,-4.724447727E-1,2.765426636E0,-2.768622398E0
3.748936214E1,1.326786876E0,4.726578236E0,-3.024818420E0
3.750941188E1,2.551308274E-1,4.791559696E0,-3.296460867E0
3.752946161E1,-1.725728363E-1,7.547398806E-1,-2.937466621E0
3.754948084E1,-2.178465873E-1,-2.912965536E0,-2.273807049E0
3.756953057E1,-5.832322836E-1,-3.009904623E0,-2.106560469E0
3.758951928E1,-7.408914566E-1,6.343649626E-1,-2.087918282E0
3.760956902E1,-6.924218684E-2,1.463140726E0,-2.009621382E0
3.762955772E1,-7.989483327E-2,8.538094759E-1,-1.920671821E0
3.764951590E1,-2.833603323E-1,-3.137203753E-1,-1.792840123E0
3.766944358E1,-1.874865443E-1,-1.193628788E0,-1.505218625E0
3.768949331E1,-6.977482140E-2,-1.088167667E0,-9.944243431E-1
3.770951253E1,2.663161233E-2,-6.705839634E-1,-4.378236830E-1
3.772953175E1,1.347559541E-1,-5.805691332E-2,-6.125270575E-2
3.774952046E1,2.455434501E-1,5.858954787E-1,1.193096191E-1
3.776950916E1,3.739078343E-1,8.884305358E-1,3.036003709E-1
3.778943683E1,5.075985193E-1,8.149272799E-1,5.390238166E-1
3.780942554E1,6.061354876E-1,6.854977012E-1,7.717841268E-1
3.782938372E1,7.153250575E-1,3.605920076E-1,1.133441329E0
3.784937243E1,6.636597514E-1,-3.217098713E-1,1.530784965E0
3.786936113E1,5.566006899E-1,-1.671399951E0,1.650627255E0
3.788938035E1,-5.326322466E-2,-1.327319503E0,1.540904999E0
3.790933854E1,1.693770438E-1,1.071123362E0,1.489239693E0
3.792926621E1,9.757822156E-1,3.398193717E-1,1.105211854E0
3.794919388E1,5.363606811E-1,-4.005394280E-1,1.194161415E0
3.796912155E1,4.660531878E-1,-1.022653818E0,1.307079434E0
3.798904922E1,2.024002522E-1,-9.896306992E-1,1.294296265E0
3.800897688E1,1.810949668E-2,-1.015197039E0,1.382180691E0
3.802887404E1,-1.651159860E-2,-9.592706561E-1,1.478587031E0
3.804883222E1,-1.086569726E-1,-7.041398287E-1,1.536111355E0
3.806882093E1,-2.087918371E-1,-9.001484513E-2,1.569134593E0
3.808887067E1,7.563377917E-2,1.107875034E-1,1.641039848E0
3.810885937E1,2.519350350E-1,-4.378236830E-1,1.736913681E0
3.812887859E1,1.597896665E-1,-1.117995024E0,1.769404292E0
3.814889781E1,7.190535218E-2,-1.299090028E0,1.620799899E0
3.816888652E1,1.491370238E-2,-1.237304688E0,1.404018521E0
3.818890574E1,-5.326322466E-2,-1.238369942E0,1.241565704E0
3.820886392E1,-9.001484513E-2,-1.301220536E0,1.111070871E0
3.822888314E1,-4.048004746E-2,-1.270327806E0,1.049818158E0
3.824884133E1,1.123853996E-1,-1.243696213E0,9.720538259E-1
3.826886055E1,3.185140789E-1,-1.238902569E0,7.755125165E-1
3.828884926E1,4.452805519E-1,-1.140898228E0,5.752428174E-1
3.830877693E1,5.044026971E-1,-7.568703890E-1,3.643204570E-1
3.832870459E1,4.751079381E-1,-7.989482954E-3,2.055960447E-1
3.834860175E1,4.090615511E-1,9.486179948E-1,1.454086006E-1
3.836852942E1,4.591289759E-1,1.715608358E0,2.221076339E-1
3.838845709E1,5.826996565E-1,1.959553957E0,4.122573435E-1
3.840841527E1,7.387608886E-1,1.752359986E0,5.336974859E-1
3.842846501E1,2.407497615E-1,6.721818447E-1,8.159925938E-1
3.844848423E1,6.178534031E-2,-8.873652816E-1,9.283779860E-1
3.846853397E1,3.350256681E-1,-1.396029115E0,8.937568665E-1
3.848849216E1,3.973436356E-1,-8.127967715E-1,7.936220169E-1
3.850851138E1,2.316950262E-1,8.522115648E-3,7.068029642E-1
3.852853060E1,1.810949594E-1,4.607268870E-1,7.403587699E-1
3.854851930E1,2.189118415E-1,4.255731404E-1,8.761799932E-1
3.856847749E1,2.860234976E-1,1.805623323E-1,9.789780378E-1
3.858840516E1,3.073287904E-1,-1.768338978E-1,8.788431883E-1
3.860836334E1,2.716424465E-1,-3.217098713E-1,5.874933600E-1
3.862838256E1,1.193096191E-1,-3.227751255E-1,4.431500137E-1
3.864843230E1,-1.033306494E-1,-4.708468914E-1,3.312972486E-1
3.866845152E1,-1.438107044E-1,-7.185208797E-1,1.171790902E-2
3.868847075E1,0.000000000E0,-7.936220169E-1,-4.735100567E-1
3.870855100E1,-1.166464612E-1,-3.723099232E-1,-1.006674886E0
3.872857022E1,-8.905611038E-1,9.906959534E-2,-1.435976505E0
3.874858944E1,-1.432248116E0,3.627225459E-1,-1.496696591E0
3.876866970E1,-1.612810373E0,1.262338310E-1,-1.388572216E0
3.878868892E1,-1.457814455E0,-6.396912932E-1,-1.626658797E0
3.880870814E1,-9.203884602E-1,-1.287904739E0,-1.874865413E0
3.882872736E1,-5.001416802E-1,-1.984587669E0,-2.294579744E0
3.884877710E1,-5.587311983E-1,-2.038383484E0,-2.590723038E0
3.886879632E1,-7.632619739E-1,1.928128600E-1,-2.711630583E0
3.888881554E1,-7.776430249E-1,2.661030531E0,-2.965696335E0
3.890880424E1,-1.901497096E-1,3.303385019E0,-3.125485897E0
3.892876243E1,1.080710769E0,1.586711407E0,-3.022687912E0
3.894878165E1,9.816411734E-1,1.597896684E-3,-2.351038694E0
3.896870932E1,-1.139832959E-1,-7.456851006E-1,-2.046905756E0
3.898875906E1,2.343581803E-2,-6.556702852E-1,-2.062884569E0
3.900871724E1,3.403519988E-1,-1.246359423E-1,-2.143311977E0
3.902867543E1,3.707120419E-1,2.806971967E-1,-2.223206997E0
3.904860310E1,2.657834888E-1,4.649879336E-1,-2.218945980E0
3.906853077E1,2.881540358E-1,4.186489284E-1,-2.018143415E0
3.908842792E1,3.834952116E-1,-3.696467578E-1,-1.511610270E0
3.910835559E1,3.936152160E-1,-1.250087857E0,-8.484831452E-1
3.912828326E1,4.362258017E-1,-1.254881501E0,-2.423476577E-1
3.914821093E1,4.932174385E-1,-6.492787004E-1,4.367584363E-2
3.916823015E1,4.516721368E-1,-7.350324839E-2,1.198422536E-1
3.918815782E1,3.744404614E-1,5.278385282E-1,3.733751774E-1
3.920814653E1,3.930825889E-1,8.186557293E-1,6.412891746E-1
3.922816575E1,4.282363057E-1,2.636529505E-1,8.777779341E-1
3.924812393E1,4.665858448E-1,-6.471481323E-1,1.235174179E0
3.926805160E1,3.536677957E-1,-7.478156686E-1,1.689509392E0
3.928797927E1,8.894958347E-2,-1.640507281E-1,2.002697229E0
3.930787643E1,5.709817410E-1,-2.663161233E-2,2.017078161E0
3.932780410E1,2.269013226E-1,1.687378883E0,1.607484102E0
3.934776228E1,5.246427655E-1,3.515372574E-1,1.375789046E0
3.936768995E1,-1.123853996E-1,-4.351605177E-1,1.390702724E0
3.938761762E1,8.894958347E-2,-7.648598552E-1,1.611212492E0
3.940757581E1,2.290318608E-1,-6.157228351E-1,1.775795817E0
3.942756451E1,-6.924218964E-3,-1.486043930E-1,1.621332526E0
3.944749218E1,-2.306297570E-1,-2.876213938E-2,1.108940244E0
3.946745037E1,-3.467435837E-1,-2.130528912E-3,1.021055937E0
3.948743907E1,-2.822950780E-1,-2.439455539E-1,1.110005617E0
3.950742778E1,-2.514024079E-1,-5.507417321E-1,1.083906531E0
3.952747751E1,-3.755057156E-1,-8.506136537E-1,1.145159245E0
3.954743570E1,-4.175836742E-1,-1.225054145E0,1.138235092E0
3.956742440E1,-3.025351167E-1,-1.412008047E0,1.064199209E0
3.958747414E1,-7.882957160E-2,-1.303883672E0,1.037567616E0
3.960752388E1,2.077265680E-1,-9.827064872E-1,1.190965652E0
3.962757362E1,4.942827225E-1,-5.571333170E-1,1.274588943E0
3.964759284E1,7.398261428E-1,-1.667138934E-1,1.169127703E0
3.966761206E1,9.496832490E-1,3.328951299E-1,9.486179948E-1
3.968763128E1,1.068992853E0,1.013066530E0,7.163903713E-1
3.970771154E1,1.070058107E0,1.878061295E0,4.990763962E-1
3.972776127E1,8.490157723E-1,2.786199093E0,3.243730366E-1
3.974778049E1,-5.912217870E-2,4.212588310E0,3.680488765E-1
3.976786075E1,-9.145295620E-1,3.836549997E0,3.153182864E-1
3.978791049E1,-3.850930929E-1,1.645833611E0,2.577939928E-1
3.980799074E1,-8.948221803E-2,-6.812366247E-1,5.773733258E-1
3.982804048E1,6.444849819E-2,-1.598429322E0,8.223841786E-1
3.984809022E1,2.093244642E-1,-5.853627920E-1,9.486179948E-1
3.986817047E1,7.776430249E-2,7.595335841E-1,9.853696227E-1
3.988822021E1,-2.071939409E-1,9.816411734E-1,9.480853677E-1
3.990826995E1,-1.560612470E-1,7.664577961E-1,8.724516034E-1
3.992822814E1,1.022653878E-1,5.842975378E-1,5.821670294E-1
3.994824736E1,-4.953479767E-2,1.496696621E-1,3.121224940E-1
3.996823606E1,-2.039981484E-1,-3.728425503E-2,1.390170157E-1
3.998819425E1,-2.514024079E-1,-1.997370869E-1,1.241033077E-1
4.000821347E1,-2.290318608E-1,-3.611246645E-1,7.510114461E-2
4.002823269E1,-1.826928556E-1,-3.467435837E-1,-8.096009493E-2
4.004825191E1,-5.805691332E-2,-1.113201380E-1,-4.127899706E-1
4.006824061E1,-1.299622655E-1,3.781688809E-1,-8.660600185E-1
4.008819880E1,-5.432848930E-1,6.402239203E-1,-1.408812284E0
4.010821802E1,-7.126619220E-1,5.299690962E-1,-1.843972802E0
4.012814569E1,-6.205165386E-1,3.984089196E-1,-2.009088755E0
4.014813440E1,-4.197141826E-1,1.778991669E-1,-2.224272251E0
4.016815362E1,-3.600593805E-1,-3.691141307E-1,-2.638127327E0
4.018820335E1,-4.889563918E-1,-3.872236311E-1,-2.959837198E0
4.020822257E1,-6.269081235E-1,8.122641444E-1,-3.065298557E0
4.022821128E1,-5.331648588E-1,2.240251064E0,-3.323625088E0
