"Time (s)","Acceleration x (m/s^2)","Acceleration y (m/s^2)","Acceleration z (m/s^2)"
1.801553900E-2,-2.745003939E0,3.920168400E0,8.559651375E0
3.827236100E-2,-2.632420778E0,3.728578329E0,8.679772377E0
5.839027800E-2,-2.490063667E0,3.473574400E0,8.826338768E0
7.866444500E-2,-2.273869991E0,3.153934479E0,9.002921104E0
9.893809100E-2,-1.978077292E0,2.732836008E0,9.208105087E0
1.192111640E-1,-1.596152663E0,2.222275496E0,9.417227745E0
1.394840280E-1,-1.118526578E0,1.679618001E0,9.596778870E0
1.597564240E-1,-5.574446917E-1,1.157789350E0,9.722096443E0
1.800286640E-1,-1.908112504E-2,6.991524696E-1,9.781677246E0
2.003007470E-1,4.523120224E-1,3.472204208E-1,9.790058136E0
2.205726740E-1,8.057251573E-1,1.152791157E-1,9.772814751E0
2.408444450E-1,1.163134217E0,2.444042359E-3,9.737427711E0
2.611161640E-1,1.576190114E0,8.130501024E-3,9.679150581E0
2.813878300E-1,1.981074810E0,1.017841995E-1,9.603924751E0
3.016593930E-1,2.324447870E0,2.508359849E-1,9.523886681E0
3.219309030E-1,2.483399630E0,4.417162240E-1,9.476709366E0
3.422023090E-1,2.524857998E0,6.186183095E-1,9.455833435E0
3.624737680E-1,2.580817699E0,7.445343733E-1,9.431617737E0
3.827452260E-1,2.720488787E0,8.441390395E-1,9.383855820E0
4.030166320E-1,2.906481504E0,9.458051324E-1,9.318164825E0
4.232879860E-1,3.036045790E0,1.048012614E0,9.265769005E0
4.435593410E-1,3.066624403E0,1.202547312E0,9.236886978E0
4.638346010E-1,3.104857922E0,1.438403726E0,9.190279961E0
4.841405910E-1,3.177219391E0,1.673137903E0,9.125584602E0
5.043727780E-1,3.222127438E0,1.804443002E0,9.084727287E0
5.246442360E-1,3.236711502E0,1.797881842E0,9.080842972E0
5.449156950E-1,3.256543636E0,1.664028764E0,9.099248886E0
5.651870490E-1,3.249005795E0,1.430286884E0,9.141588211E0
5.854584550E-1,3.146753311E0,1.122951269E0,9.219942093E0
6.057298090E-1,3.001452684E0,7.693744302E-1,9.304285049E0
6.260011640E-1,2.934154034E0,4.320546687E-1,9.347430229E0
6.464012160E-1,3.028437376E0,1.782671064E-1,9.325619698E0
6.665438200E-1,3.210743904E0,-9.787917137E-3,9.266143799E0
6.868151220E-1,3.353351593E0,-1.866758764E-1,9.213607788E0
7.070864760E-1,3.380553961E0,-3.501432538E-1,9.198892593E0
7.273577780E-1,3.360721350E0,-5.000979900E-1,9.199230194E0
7.477577780E-1,3.355293989E0,-6.311131716E-1,9.193154335E0
7.679003820E-1,3.363330126E0,-7.296807766E-1,9.182916641E0
7.881716840E-1,3.397622347E0,-8.144107461E-1,9.163147926E0
8.085482470E-1,3.398572683E0,-9.627634883E-1,9.148397446E0
8.282184030E-1,3.419709921E0,-1.133645177E0,9.120900154E0
8.486184030E-1,3.424102306E0,-1.296864867E0,9.097474098E0
8.690184030E-1,3.373209953E0,-1.430258989E0,9.096493721E0
8.894184030E-1,3.392972231E0,-1.538753629E0,9.071403503E0
9.097918930E-1,3.447688103E0,-1.635123730E0,9.033836365E0
9.300622050E-1,3.528612137E0,-1.717610121E0,8.987163544E0
9.504640800E-1,3.621188402E0,-1.713272452E0,8.951093674E0
9.706081430E-1,3.766639233E0,-1.688075542E0,8.895684242E0
9.908804860E-1,3.982854366E0,-1.605846167E0,8.816377640E0
1.011152674E0,4.229810238E0,-1.470005393E0,8.724574089E0
1.031423924E0,4.542729855E0,-1.296136498E0,8.593835831E0
1.051824653E0,4.886300564E0,-1.137021422E0,8.426246643E0
1.071967830E0,5.186381817E0,-1.015450597E0,8.260792732E0
1.092239549E0,5.343958855E0,-8.852656484E-1,8.174888611E0
1.112511268E0,5.324085236E0,-7.439385653E-1,8.201893806E0
1.132782830E0,5.239190578E0,-6.530569196E-1,8.264065742E0
1.153054341E0,5.102289200E0,-5.468729734E-1,8.356910706E0
1.173325851E0,5.279376984E0,-3.823091686E-1,8.255446434E0
1.193597257E0,5.376167774E0,-2.672161758E-1,8.197304726E0
1.213868716E0,5.218330860E0,-1.447121650E-1,8.301713943E0
1.234140122E0,5.043682098E0,7.518938184E-2,8.409875870E0
1.254411476E0,4.918809891E0,2.691330016E-1,8.479578972E0
1.274682830E0,4.830158234E0,4.814808667E-1,8.521039963E0
1.294954184E0,4.870612144E0,8.057445884E-1,8.473387718E0
1.315225486E0,5.082552433E0,1.219921589E0,8.297579765E0
1.335496789E0,5.266811371E0,1.605112791E0,8.115090370E0
1.355768143E0,5.197397709E0,1.803704023E0,8.118135452E0
1.376039497E0,4.857066154E0,1.876406312E0,8.310138702E0
1.396310799E0,4.443658352E0,1.935556293E0,8.525134087E0
1.416582049E0,4.567264557E0,1.912309885E0,8.464841843E0
1.436982049E0,4.578337193E0,1.974795461E0,8.444489479E0
1.457124705E0,4.453818321E0,2.099257469E0,8.480978966E0
1.477396007E0,4.338055611E0,2.304861069E0,8.487594604E0
1.497667309E0,4.294474602E0,2.543582201E0,8.441449165E0
1.517938611E0,4.258547783E0,2.622078896E0,8.435629845E0
1.538209914E0,4.158560276E0,2.487939835E0,8.525662422E0
1.558609914E0,4.075347424E0,2.214863062E0,8.640388489E0
1.578752518E0,4.018934727E0,2.013782024E0,8.715688705E0
1.599023820E0,4.067883015E0,1.965163231E0,8.704071045E0
1.619295174E0,4.153903484E0,1.977382779E0,8.660568237E0
1.639566424E0,4.219340324E0,1.951328397E0,8.634805679E0
1.659966424E0,4.312065125E0,1.851282239E0,8.610994339E0
1.680109080E0,4.520385265E0,1.730991483E0,8.528784752E0
1.700380382E0,4.884067059E0,1.629082799E0,8.346398354E0
1.720651684E0,5.322923183E0,1.515330076E0,8.095717430E0
1.740922986E0,5.821708202E0,1.401694655E0,7.766167641E0
1.761194289E0,6.231701851E0,1.273481488E0,7.464216232E0
1.781465643E0,6.590159893E0,1.155871987E0,7.169667721E0
1.801736997E0,7.037014008E0,1.064350843E0,6.746701717E0
1.822008299E0,7.524198055E0,9.736350775E-1,6.213603497E0
1.842279601E0,7.931016922E0,8.304041624E-1,5.707870483E0
1.862550903E0,8.252221107E0,6.468195319E-1,5.258598328E0
1.882822257E0,8.528673172E0,4.761359990E-1,4.817201138E0
1.903093559E0,8.793961525E0,3.195400834E-1,4.328339100E0
1.923364914E0,9.027747154E0,1.417682469E-1,3.827542543E0
1.943636216E0,9.217031479E0,-5.491786823E-2,3.348682642E0
1.963907518E0,9.358132362E0,-2.384229749E-1,2.922137499E0
1.984178872E0,9.466159821E0,-3.847162127E-1,2.532624722E0
2.004450174E0,9.549881935E0,-5.021104217E-1,2.172098398E0
2.024721528E0,9.612722397E0,-5.995221734E-1,1.845675468E0
2.044992830E0,9.658730507E0,-6.780056953E-1,1.555513382E0
2.065264184E0,9.685873985E0,-7.348015308E-1,1.346956015E0
2.085535539E0,9.700937271E0,-7.527399659E-1,1.222938895E0
2.105935539E0,9.715254784E0,-7.173273563E-1,1.126789093E0
2.126078195E0,9.732195854E0,-6.552087069E-1,1.012638927E0
2.146349549E0,9.748557091E0,-5.954834819E-1,8.839849234E-1
2.166620903E0,9.764265060E0,-5.354497433E-1,7.367652655E-1
2.186892257E0,9.779409409E0,-4.609893560E-1,5.665847063E-1
2.207163611E0,9.791481972E0,-3.734623194E-1,3.972266316E-1
2.227434966E0,9.799623489E0,-2.834572792E-1,2.396223545E-1
2.247834966E0,9.804561615E0,-1.933256686E-1,5.985790491E-2
2.267977674E0,9.804269791E0,-1.074229926E-1,-1.874200255E-1
2.288377674E0,9.794006348E0,-3.348011896E-2,-4.967099428E-1
2.308520382E0,9.774599075E0,2.052322961E-2,-7.919459939E-1
2.328791736E0,9.757258415E0,6.229383126E-2,-9.810259342E-1
2.349191736E0,9.743978500E0,9.748832881E-2,-1.102613449E0
2.369334497E0,9.728568077E0,1.190540120E-1,-1.229305148E0
2.389605851E0,9.708199501E0,1.272085309E-1,-1.380245686E0
2.409877257E0,9.687429428E0,1.384753585E-1,-1.518207550E0
2.430148611E0,9.677454948E0,1.682092249E-1,-1.577643156E0
2.450548611E0,9.679900169E0,2.037910819E-1,-1.558327556E0
2.470691372E0,9.685416222E0,2.441819161E-1,-1.517721295E0
2.490962778E0,9.686625481E0,3.102962077E-1,-1.497796297E0
2.511234184E0,9.680642128E0,4.001636207E-1,-1.515062094E0
2.531505486E0,9.668286324E0,5.036987066E-1,-1.562347054E0
2.551905486E0,9.649688721E0,6.018450260E-1,-1.640628457E0
2.572048351E0,9.636383057E0,6.894282103E-1,-1.683800817E0
2.592319757E0,9.629993439E0,7.789993286E-1,-1.681302071E0
2.612591164E0,9.630656242E0,8.674510121E-1,-1.633511066E0
2.632862518E0,9.639091492E0,9.491023421E-1,-1.535420060E0
2.653133924E0,9.648895264E0,1.040598273E0,-1.409380317E0
2.673405330E0,9.660532951E0,1.119756579E0,-1.261197805E0
2.693676789E0,9.674898148E0,1.127233148E0,-1.138453841E0
2.713948247E0,9.686110497E0,1.009192586E0,-1.153772473E0
2.734219653E0,9.692601204E0,8.584790826E-1,-1.219381690E0
2.754491059E0,9.698942184E0,7.611895800E-1,-1.233483315E0
2.774762466E0,9.717471123E0,6.570619345E-1,-1.144292235E0
2.795033924E0,9.746805191E0,4.450994432E-1,-9.859320521E-1
2.815305330E0,9.770346642E0,4.286926985E-2,-8.419406414E-1
2.835576736E0,9.760985374E0,-4.963592887E-1,-8.044832349E-1
2.855848195E0,9.683086395E0,-1.055416465E0,-1.137679577E0
2.876119601E0,9.513831139E0,-1.605861068E0,-1.754598260E0
2.896391059E0,9.277949333E0,-2.265025854E0,-2.227037668E0
2.916662466E0,9.030963898E0,-2.990259886E0,-2.381267309E0
2.936933924E0,8.801671028E0,-3.712979794E0,-2.216927290E0
2.957205382E0,8.610142708E0,-4.388476849E0,-1.666465998E0
2.977476841E0,8.389033318E0,-4.883853436E0,-1.393725991E0
2.997748299E0,8.165079117E0,-5.217656136E0,-1.509283781E0
3.018019757E0,7.836156368E0,-5.666024208E0,-1.631323099E0
3.038291216E0,7.380276203E0,-6.250089169E0,-1.624284744E0
3.058562674E0,6.836136818E0,-6.862315655E0,-1.531743646E0
3.078834132E0,6.194039345E0,-7.453215122E0,-1.501280785E0
3.099105591E0,5.638801098E0,-7.837859631E0,-1.715303659E0
3.119377049E0,5.254896164E0,-8.053101540E0,-1.924581170E0
3.139648559E0,5.154173851E0,-8.111850739E0,-1.950067282E0
3.159920018E0,5.172878742E0,-8.122344017E0,-1.854520321E0
3.180191528E0,5.114316463E0,-8.158969879E0,-1.856168151E0
3.200462986E0,4.991208553E0,-8.224825859E0,-1.900119662E0
3.220734497E0,4.824449539E0,-8.323412895E0,-1.901545525E0
3.241005955E0,4.646497250E0,-8.425066948E0,-1.897026777E0
3.261277466E0,4.547716618E0,-8.475551605E0,-1.911461353E0
3.281548976E0,4.529375076E0,-8.484306335E0,-1.916167855E0
3.301820486E0,4.537127495E0,-8.482866287E0,-1.904163361E0
3.322091945E0,4.553819656E0,-8.474964142E0,-1.899497986E0
3.342363455E0,4.564292908E0,-8.471108437E0,-1.891542077E0
3.362634966E0,4.546130657E0,-8.482776642E0,-1.882971168E0
3.382906528E0,4.378013134E0,-8.573186874E0,-1.871860027E0
3.403178091E0,4.093372345E0,-8.716322899E0,-1.854833007E0
3.423449601E0,3.759117126E0,-8.866747856E0,-1.849380136E0
3.443721111E0,3.414405107E0,-9.003913879E0,-1.855199218E0
3.463992622E0,2.975328684E0,-9.144155502E0,-1.924117208E0
3.484264184E0,2.345303297E0,-9.315749168E0,-1.971487045E0
3.504535695E0,1.674275637E0,-9.467719078E0,-1.931184530E0
3.524807257E0,1.038305402E0,-9.578527451E0,-1.828697205E0
3.545078820E0,5.323981047E-1,-9.643680573E0,-1.698928833E0
3.565350330E0,2.036893964E-1,-9.682766914E0,-1.540430188E0
3.585621893E0,3.642595559E-2,-9.716017723E0,-1.329683781E0
3.605893455E0,-9.880146384E-2,-9.734121323E0,-1.186383963E0
3.626165018E0,-1.638002545E-1,-9.743296623E0,-1.100789785E0
3.646436528E0,-1.666440666E-1,-9.750615120E0,-1.033498168E0
3.666708143E0,-1.450237334E-1,-9.752974510E0,-1.014320254E0
3.686979705E0,-1.301152259E-1,-9.750597000E0,-1.038898230E0
3.707251268E0,-1.132412553E-1,-9.744059563E0,-1.100398660E0
3.727522830E0,-8.702340722E-2,-9.732460022E0,-1.200849771E0
3.747922830E0,-4.471624270E-2,-9.714406967E0,-1.341150880E0
3.768066007E0,2.906459756E-2,-9.691731453E0,-1.496620774E0
3.788337622E0,1.421362460E-1,-9.669158936E0,-1.630198717E0
3.808581841E0,2.630304992E-1,-9.650742531E0,-1.721732616E0
3.828578820E0,2.828225791E-1,-9.644004822E0,-1.756008625E0
3.848978820E0,2.746309042E-1,-9.648256302E0,-1.733813524E0
3.869393559E0,3.151193559E-1,-9.649268150E0,-1.721253753E0
3.889686372E0,3.546471596E-1,-9.647525787E0,-1.723326206E0
3.909959705E0,3.503257632E-1,-9.646636009E0,-1.729179502E0
3.930231216E0,3.543734550E-1,-9.647327423E0,-1.724494815E0
3.950632830E0,3.599430323E-1,-9.647213936E0,-1.723973989E0
3.970777257E0,3.576659858E-1,-9.646491051E0,-1.728491783E0
3.991049809E0,3.578713536E-1,-9.646195412E0,-1.730090976E0
4.011322205E0,3.616845906E-1,-9.646570206E0,-1.727209568E0
4.031593768E0,3.683061600E-1,-9.647112846E0,-1.722772121E0
4.051994445E0,3.742308915E-1,-9.647820473E0,-1.717527866E0
4.072138143E0,3.783974946E-1,-9.648485184E0,-1.712872028E0
4.092410174E0,3.814544678E-1,-9.649188995E0,-1.708223939E0
4.112682101E0,3.842963278E-1,-9.650063515E0,-1.702635288E0
4.132954028E0,3.872750998E-1,-9.651067734E0,-1.696262479E0
4.153225851E0,3.908668160E-1,-9.652185440E0,-1.689060807E0
4.173497570E0,3.961467743E-1,-9.653277397E0,-1.681572080E0
4.193769393E0,4.014418423E-1,-9.654517174E0,-1.673176765E0
4.214041111E0,4.060338438E-1,-9.655784607E0,-1.664734960E0
4.234312882E0,4.098653793E-1,-9.656927109E0,-1.657155037E0
4.254584497E0,4.135307670E-1,-9.658159256E0,-1.649040818E0
4.274856216E0,4.161510170E-1,-9.659576416E0,-1.640054226E0
4.295127882E0,4.179641604E-1,-9.661211967E0,-1.629928589E0
4.315399601E0,4.203191698E-1,-9.663091660E0,-1.618142247E0
4.335671320E0,4.268877506E-1,-9.664486885E0,-1.608055115E0
4.355942934E0,4.357419610E-1,-9.666257858E0,-1.594988108E0
4.376214601E0,4.449857473E-1,-9.668144226E0,-1.580936313E0
4.396486268E0,4.582423270E-1,-9.669485092E0,-1.568904400E0
4.416757934E0,4.706529379E-1,-9.671337128E0,-1.553743124E0
4.437029601E0,4.731807709E-1,-9.673895836E0,-1.536957264E0
4.457301268E0,4.772855937E-1,-9.677103996E0,-1.515344262E0
4.477572934E0,4.810631871E-1,-9.680354118E0,-1.493223786E0
4.497844549E0,4.828877449E-1,-9.683960915E0,-1.469047308E0
4.518116268E0,4.877201915E-1,-9.687279701E0,-1.445376992E0
4.538387934E0,4.901748002E-1,-9.690981865E0,-1.419502258E0
4.558659601E0,4.921187758E-1,-9.694373131E0,-1.395473838E0
4.578931268E0,4.937014878E-1,-9.697466850E0,-1.373239279E0
4.599202934E0,4.966050088E-1,-9.700299263E0,-1.352018714E0
4.619474601E0,5.007548332E-1,-9.702877045E0,-1.331841111E0
4.639746268E0,5.056809783E-1,-9.705295563E0,-1.312211871E0
4.660017934E0,5.104663968E-1,-9.708097458E0,-1.289438963E0
4.680289549E0,5.121940970E-1,-9.711191177E0,-1.265220761E0
4.700561216E0,5.130873322E-1,-9.714026451E0,-1.242914200E0
4.720832934E0,5.128657222E-1,-9.716779709E0,-1.221287608E0
4.741104601E0,5.101136565E-1,-9.719731331E0,-1.198749542E0
4.761376268E0,5.023575425E-1,-9.723361969E0,-1.172291636E0
4.781647934E0,4.898080826E-1,-9.727255821E0,-1.144969821E0
4.801919601E0,4.783579111E-1,-9.731092453E0,-1.116878390E0
4.822191268E0,4.766130447E-1,-9.734133720E0,-1.090803742E0
4.842462934E0,4.824162722E-1,-9.736611366E0,-1.065860271E0
4.862734601E0,4.900138676E-1,-9.738994598E0,-1.040317655E0
4.883006268E0,4.966123402E-1,-9.741135597E0,-1.016875148E0
4.903277986E0,4.998465776E-1,-9.742998123E0,-9.972606897E-1
4.923549653E0,5.009045601E-1,-9.744724274E0,-9.797139168E-1
4.943821320E0,5.036615729E-1,-9.745982170E0,-9.656895399E-1
4.964092986E0,5.062237382E-1,-9.747220993E0,-9.517311454E-1
4.984364653E0,5.072375536E-1,-9.748516083E0,-9.378359914E-1
5.004636320E0,5.081906915E-1,-9.749047279E0,-9.317809343E-1
5.024908039E0,5.114512444E-1,-9.749551773E0,-9.246930480E-1
5.045179705E0,5.130854845E-1,-9.749958038E0,-9.194751382E-1
5.065451372E0,5.171926022E-1,-9.750036240E0,-9.163372517E-1
5.085723039E0,5.193504691E-1,-9.750049591E0,-9.149877429E-1
5.105994705E0,5.204516649E-1,-9.749574661E0,-9.194068313E-1
5.126266424E0,5.218953490E-1,-9.748806953E0,-9.266937375E-1
5.146666424E0,5.275335312E-1,-9.747820854E0,-9.338520765E-1
5.166809757E0,5.352482200E-1,-9.747077942E0,-9.372180700E-1
5.187081424E0,5.407949090E-1,-9.747126579E0,-9.335106015E-1
5.207353143E0,5.464317203E-1,-9.747394562E0,-9.274170399E-1
5.227624809E0,5.528196692E-1,-9.747529030E0,-9.222110510E-1
5.248024809E0,5.588173270E-1,-9.747944832E0,-9.141491055E-1
5.268168195E0,5.596286058E-1,-9.748867989E0,-9.037550092E-1
5.288439861E0,5.603942871E-1,-9.750127792E0,-8.895835876E-1
5.308711528E0,5.584285855E-1,-9.751580238E0,-8.747642040E-1
5.328983195E0,5.566299558E-1,-9.752995491E0,-8.600223064E-1
5.349383195E0,5.546333790E-1,-9.754648209E0,-8.423859477E-1
5.369526580E0,5.527717471E-1,-9.756435394E0,-8.226706982E-1
5.389798247E0,5.498631597E-1,-9.758260727E0,-8.027341962E-1
5.410069914E0,5.450294018E-1,-9.760202408E0,-7.821679115E-1
5.430341632E0,5.416848063E-1,-9.761788368E0,-7.644898295E-1
5.450741632E0,5.419323444E-1,-9.762936592E0,-7.495020032E-1
5.470884966E0,5.446839333E-1,-9.763805389E0,-7.360857129E-1
5.491156684E0,5.452153087E-1,-9.764571190E0,-7.254540920E-1
5.511428351E0,5.435718894E-1,-9.765579224E0,-7.130137682E-1
5.531700018E0,5.442519188E-1,-9.766392708E0,-7.012549639E-1
5.551971684E0,5.456218719E-1,-9.767217636E0,-6.885856390E-1
5.572243403E0,5.480792522E-1,-9.767943382E0,-6.762175560E-1
5.592515070E0,5.505032539E-1,-9.768402100E0,-6.675742865E-1
5.612786736E0,5.543060899E-1,-9.768619537E0,-6.612234712E-1
5.633058403E0,5.631349087E-1,-9.768780708E0,-6.513081193E-1
5.653330070E0,5.705987811E-1,-9.769154549E0,-6.390753388E-1
5.673601789E0,5.756759644E-1,-9.769404411E0,-6.306500435E-1
5.693873455E0,5.796090364E-1,-9.769571304E0,-6.244263649E-1
5.714145122E0,5.831741691E-1,-9.769672394E0,-6.195071936E-1
5.734416789E0,5.861499310E-1,-9.769793510E0,-6.147667766E-1
5.754688455E0,5.888366103E-1,-9.769853592E0,-6.112443805E-1
5.774960174E0,5.890149474E-1,-9.770136833E0,-6.065270305E-1
5.795231841E0,5.894288421E-1,-9.770231247E0,-6.045929790E-1
5.815503507E0,5.919812918E-1,-9.770288467E0,-6.011743546E-1
5.835775174E0,5.947654843E-1,-9.770386696E0,-5.968110561E-1
5.856046841E0,5.962314010E-1,-9.770461082E0,-5.941184163E-1
5.876318559E0,5.971985459E-1,-9.770546913E0,-5.917413235E-1
5.896590226E0,5.983831882E-1,-9.770648956E0,-5.888448358E-1
5.916861893E0,5.989208221E-1,-9.770815849E0,-5.855239630E-1
5.937133559E0,5.984773636E-1,-9.771086693E0,-5.814502239E-1
5.957401268E0,5.970270634E-1,-9.771457672E0,-5.766727328E-1
5.977638403E0,5.943908095E-1,-9.772075653E0,-5.688859224E-1
5.997949236E0,5.897774100E-1,-9.772528648E0,-5.658982396E-1
6.018220747E0,5.839068890E-1,-9.772839546E0,-5.666216016E-1
6.038492309E0,5.767749548E-1,-9.773173332E0,-5.681573153E-1
6.058763872E0,5.685760975E-1,-9.773604393E0,-5.690134764E-1
6.079035486E0,5.578119755E-1,-9.774243355E0,-5.686704516E-1
6.099307153E0,5.456206203E-1,-9.774701118E0,-5.726252794E-1
6.119578768E0,5.355150700E-1,-9.774811745E0,-5.802214742E-1
6.139850382E0,5.281867981E-1,-9.774557114E0,-5.911383033E-1
6.160122049E0,5.202021003E-1,-9.774141312E0,-6.049259305E-1
6.180393664E0,5.122931600E-1,-9.773647308E0,-6.194829941E-1
6.200665278E0,5.108172297E-1,-9.772739410E0,-6.348440051E-1
6.220936945E0,5.111716986E-1,-9.771781921E0,-6.491259336E-1
6.241208611E0,5.097060800E-1,-9.771090508E0,-6.605893373E-1
6.261480278E0,5.093175173E-1,-9.770388603E0,-6.711801887E-1
6.281751893E0,5.126658678E-1,-9.769398689E0,-6.829326749E-1
6.302023507E0,5.177648664E-1,-9.768208504E0,-6.959919930E-1
6.322295174E0,5.249097943E-1,-9.766971588E0,-7.079083323E-1
6.342566841E0,5.347802043E-1,-9.765770912E0,-7.170171738E-1
6.362838507E0,5.436577201E-1,-9.764571190E0,-7.266162038E-1
6.383110122E0,5.530029535E-1,-9.763133049E0,-7.387925386E-1
6.403381789E0,5.639018416E-1,-9.761411667E0,-7.531614900E-1
6.423653403E0,5.717975497E-1,-9.759703636E0,-7.691693306E-1
6.443925070E0,5.788553953E-1,-9.757901192E0,-7.865618467E-1
6.464196684E0,5.863018036E-1,-9.755989075E0,-8.045616746E-1
6.484468351E0,5.903295279E-1,-9.754481316E0,-8.197530508E-1
6.504739966E0,5.926457047E-1,-9.753406525E0,-8.307908773E-1
6.525011632E0,5.903505683E-1,-9.752993584E0,-8.372513652E-1
6.545283247E0,5.826252699E-1,-9.753102303E0,-8.413885236E-1
6.565554914E0,5.718201995E-1,-9.753300667E0,-8.464825153E-1
6.585826528E0,5.599974394E-1,-9.753490448E0,-8.521779180E-1
6.606098143E0,5.453573465E-1,-9.753728867E0,-8.589258790E-1
6.626365799E0,5.289629698E-1,-9.754083633E0,-8.651196957E-1
6.646602882E0,5.156869292E-1,-9.754232407E0,-8.714334965E-1
6.666913611E0,5.059983730E-1,-9.754099846E0,-8.785768151E-1
6.687185122E0,4.993222058E-1,-9.753784180E0,-8.858652115E-1
6.707456632E0,4.945052862E-1,-9.753292084E0,-8.939422369E-1
6.727728299E0,4.914473891E-1,-9.752533913E0,-9.038581252E-1
6.748128195E0,4.909436703E-1,-9.751551628E0,-9.146610498E-1
6.768271372E0,4.947092235E-1,-9.750343323E0,-9.254450798E-1
6.788542986E0,5.001524091E-1,-9.749144554E0,-9.351057410E-1
6.808806684E0,5.046866536E-1,-9.747882843E0,-9.457517862E-1
6.828999757E0,5.105558038E-1,-9.746506691E0,-9.567269087E-1
6.849405226E0,5.177183151E-1,-9.745226860E0,-9.658755660E-1
6.869627622E0,5.257709026E-1,-9.743988037E0,-9.739868641E-1
6.889899497E0,5.332597494E-1,-9.742950439E0,-9.802731276E-1
6.910171424E0,5.402065516E-1,-9.742112160E0,-9.847868085E-1
6.930443039E0,5.485766530E-1,-9.741348267E0,-9.877183437E-1
6.950843247E0,5.570001006E-1,-9.740825653E0,-9.881557226E-1
6.970986528E0,5.630337000E-1,-9.740726471E0,-9.857140183E-1
6.991258299E0,5.690594912E-1,-9.740664482E0,-9.828637838E-1
7.011530070E0,5.772669911E-1,-9.740522385E0,-9.794721007E-1
7.031801684E0,5.855029225E-1,-9.740420341E0,-9.755942822E-1
7.052201736E0,5.944413543E-1,-9.740305901E0,-9.713158011E-1
7.072345018E0,6.023073792E-1,-9.740324974E0,-9.662684202E-1
7.092616632E0,6.102782488E-1,-9.740369797E0,-9.608023167E-1
7.112888247E0,6.170300841E-1,-9.740518570E0,-9.549557567E-1
7.133159861E0,6.228218079E-1,-9.740720749E0,-9.491229057E-1
7.153431476E0,6.288107038E-1,-9.740848541E0,-9.438407421E-1
7.173703039E0,6.338183880E-1,-9.741241455E0,-9.364206195E-1
7.193974705E0,6.387058496E-1,-9.741951942E0,-9.256436229E-1
7.214246268E0,6.404136419E-1,-9.742957115E0,-9.138026237E-1
7.234517830E0,6.393107772E-1,-9.744204521E0,-9.011876583E-1
7.254789393E0,6.358542442E-1,-9.745496750E0,-8.895829320E-1
7.275061059E0,6.294308305E-1,-9.746908188E0,-8.786321282E-1
7.295332622E0,6.228702068E-1,-9.748339653E0,-8.673521876E-1
7.315604184E0,6.167795062E-1,-9.749772072E0,-8.555154800E-1
7.335875747E0,6.142778397E-1,-9.751002312E0,-8.432108760E-1
7.356147309E0,6.112988591E-1,-9.752093315E0,-8.326935172E-1
7.376418872E0,6.084601879E-1,-9.753001213E0,-8.240947127E-1
7.396690434E0,6.059054136E-1,-9.753664970E0,-8.180915713E-1
7.416961997E0,6.030426621E-1,-9.754184723E0,-8.140049577E-1
7.437233507E0,5.984437466E-1,-9.754712105E0,-8.110836148E-1
7.457505070E0,5.940996408E-1,-9.754992485E0,-8.109033704E-1
7.477776632E0,5.934227109E-1,-9.755158424E0,-8.093868494E-1
7.498048195E0,5.941827893E-1,-9.755577087E0,-8.037723899E-1
7.518319757E0,5.936457515E-1,-9.756461143E0,-7.933589816E-1
7.538591216E0,5.943972468E-1,-9.757373810E0,-7.814994454E-1
7.558862830E0,5.941812396E-1,-9.758184433E0,-7.714772224E-1
7.579134393E0,5.932356715E-1,-9.758920670E0,-7.628374100E-1
7.599405851E0,5.910779238E-1,-9.759428978E0,-7.579990029E-1
7.619677466E0,5.900951624E-1,-9.759629250E0,-7.561964393E-1
7.639948976E0,5.892698765E-1,-9.759569168E0,-7.576035261E-1
7.660220486E0,5.883925557E-1,-9.759111404E0,-7.641595602E-1
7.680492049E0,5.902303457E-1,-9.758262634E0,-7.735337019E-1
7.700763559E0,5.914385915E-1,-9.757433891E0,-7.829902768E-1
7.721035070E0,5.929178596E-1,-9.756743431E0,-7.904424071E-1
7.741306580E0,5.950863361E-1,-9.756121635E0,-7.964596152E-1
7.761578091E0,5.955506563E-1,-9.755661964E0,-8.017182946E-1
7.781849653E0,5.958024859E-1,-9.755276680E0,-8.062208295E-1
7.802121164E0,5.959727168E-1,-9.755010605E0,-8.093037009E-1
7.822392674E0,5.964682698E-1,-9.754644394E0,-8.133332729E-1
7.842664184E0,5.984145999E-1,-9.754118919E0,-8.181986213E-1
7.862935643E0,6.006272435E-1,-9.753364563E0,-8.255380392E-1
7.883207101E0,6.038531661E-1,-9.752403259E0,-8.344886303E-1
7.903478611E0,6.086710691E-1,-9.751260757E0,-8.442934752E-1
7.923750122E0,6.146057844E-1,-9.750147820E0,-8.528019190E-1
7.944021632E0,6.198214889E-1,-9.749301910E0,-8.586667180E-1
7.964293143E0,6.243031025E-1,-9.748943329E0,-8.594990969E-1
7.984564601E0,6.270554662E-1,-9.748682976E0,-8.604503870E-1
8.004836111E0,6.265932918E-1,-9.748832703E0,-8.590951562E-1
8.025107622E0,6.247919202E-1,-9.749034882E0,-8.581038713E-1
8.045379080E0,6.230775714E-1,-9.749417305E0,-8.549946547E-1
8.065650591E0,6.224375963E-1,-9.749694824E0,-8.522878885E-1
8.085922049E0,6.231480241E-1,-9.749758720E0,-8.510542512E-1
8.106193507E0,6.230441332E-1,-9.749797821E0,-8.506728411E-1
8.126465018E0,6.215384603E-1,-9.749957085E0,-8.499499559E-1
8.146736476E0,6.196168661E-1,-9.750169754E0,-8.489093184E-1
8.167007986E0,6.171833277E-1,-9.750446320E0,-8.475055099E-1
8.187279445E0,6.137159467E-1,-9.750500679E0,-8.494001031E-1
8.207550903E0,6.089863181E-1,-9.750459671E0,-8.532553911E-1
8.227822361E0,6.034957170E-1,-9.750378609E0,-8.580782413E-1
8.248222361E0,5.973181725E-1,-9.750322342E0,-8.630278707E-1
8.268365278E0,5.903964043E-1,-9.750124931E0,-8.699936271E-1
8.288636736E0,5.855818987E-1,-9.749668121E0,-8.783227801E-1
8.308908195E0,5.802358985E-1,-9.749365807E0,-8.852079511E-1
8.329179653E0,5.743792057E-1,-9.749378204E0,-8.888844848E-1
8.349579653E0,5.660898685E-1,-9.749559402E0,-8.922036290E-1
8.369722570E0,5.570694804E-1,-9.749678612E0,-8.965755105E-1
8.389994028E0,5.508416295E-1,-9.749505997E0,-9.022762179E-1
8.410265434E0,5.462005138E-1,-9.749374390E0,-9.065039754E-1
8.430536893E0,5.404854417E-1,-9.749359131E0,-9.100834727E-1
8.450936893E0,5.365163684E-1,-9.749114037E0,-9.150517583E-1
8.471079757E0,5.352120399E-1,-9.748602867E0,-9.212437272E-1
8.491351164E0,5.336735249E-1,-9.747856140E0,-9.299915433E-1
8.511622622E0,5.329887271E-1,-9.746763229E0,-9.417551756E-1
8.531894028E0,5.360010862E-1,-9.745400429E0,-9.540699720E-1
8.552165434E0,5.388470292E-1,-9.744055748E0,-9.661291838E-1
8.572436893E0,5.465267301E-1,-9.742418289E0,-9.782578945E-1
8.592708299E0,5.569223166E-1,-9.740638733E0,-9.900432229E-1
8.612979705E0,5.642685294E-1,-9.738783836E0,-1.004030824E0
8.633251111E0,5.715097189E-1,-9.736643791E0,-1.020550847E0
8.653522518E0,5.752333403E-1,-9.734248161E0,-1.041099906E0
8.673793924E0,5.738760829E-1,-9.732288361E0,-1.060010672E0
8.694065382E0,5.753821135E-1,-9.730255127E0,-1.077710629E0
8.714336789E0,5.791199803E-1,-9.727421761E0,-1.101036072E0
8.734608143E0,5.858889222E-1,-9.724328995E0,-1.124522209E0
8.754879497E0,5.914215446E-1,-9.721020699E0,-1.149947047E0
8.775150903E0,5.952918530E-1,-9.717412949E0,-1.178097367E0
8.795422309E0,6.003419161E-1,-9.713624954E0,-1.206426978E0
8.815693716E0,6.051220298E-1,-9.709920883E0,-1.233558893E0
8.835965070E0,6.109449267E-1,-9.706047058E0,-1.260868311E0
8.856236476E0,6.222054362E-1,-9.701691628E0,-1.288571715E0
8.876507882E0,6.417058706E-1,-9.696363449E0,-1.318760872E0
8.896779236E0,6.640692353E-1,-9.690524101E0,-1.350239635E0
8.917050643E0,6.792444587E-1,-9.685470581E0,-1.378645062E0
8.937321997E0,6.863600016E-1,-9.680491447E0,-1.409742355E0
8.957593351E0,6.890388131E-1,-9.675086975E0,-1.445095778E0
8.977864757E0,6.902202368E-1,-9.669583321E0,-1.480926752E0
8.998136111E0,6.906667352E-1,-9.664601326E0,-1.512895584E0
9.018407518E0,6.914563179E-1,-9.660275459E0,-1.539923787E0
9.038678872E0,6.901714206E-1,-9.655923843E0,-1.567535877E0
9.058950226E0,6.866954565E-1,-9.651203156E0,-1.597845078E0
9.079221580E0,6.824990511E-1,-9.646001816E0,-1.630716324E0
9.099492934E0,6.856266260E-1,-9.640322685E0,-1.662669301E0
9.119764289E0,6.973645091E-1,-9.634485245E0,-1.691377282E0
9.140035643E0,7.110732794E-1,-9.629321098E0,-1.714911461E0
9.160306997E0,7.200651765E-1,-9.625181198E0,-1.734293342E0
9.180578351E0,7.187451124E-1,-9.622075081E0,-1.751985788E0
9.200849705E0,7.110955715E-1,-9.619666100E0,-1.768261552E0
9.221121007E0,7.020870447E-1,-9.617906570E0,-1.781386495E0
9.241392361E0,6.939166188E-1,-9.616043091E0,-1.794591427E0
9.261663716E0,6.887643337E-1,-9.614356995E0,-1.805586457E0
9.281935018E0,6.862403750E-1,-9.612613678E0,-1.815804482E0
9.302206372E0,6.848478913E-1,-9.610235214E0,-1.828864217E0
9.322477674E0,6.853635907E-1,-9.607475281E0,-1.843119144E0
9.342749028E0,6.864922047E-1,-9.604130745E0,-1.860052705E0
9.363020330E0,6.927322149E-1,-9.600503922E0,-1.876385808E0
9.383291684E0,6.999289393E-1,-9.597108841E0,-1.891033411E0
9.403562986E0,7.079864144E-1,-9.593848228E0,-1.904529929E0
9.423834341E0,7.156428099E-1,-9.590831757E0,-1.916817665E0
9.444105643E0,7.226232290E-1,-9.588647842E0,-1.925108194E0
9.464376945E0,7.299059033E-1,-9.587420464E0,-1.928466558E0
9.484648247E0,7.325117588E-1,-9.586792946E0,-1.930604100E0
9.504919549E0,7.324768305E-1,-9.586600304E0,-1.931569695E0
9.525190851E0,7.345069051E-1,-9.586710930E0,-1.930249214E0
9.545462153E0,7.372044325E-1,-9.587425232E0,-1.925663471E0
9.565733455E0,7.396470308E-1,-9.587535858E0,-1.924180150E0
9.586004809E0,7.438567877E-1,-9.587103844E0,-1.924709320E0
9.606276007E0,7.525420189E-1,-9.585845947E0,-1.927596450E0
9.626547257E0,7.623947263E-1,-9.584563255E0,-1.930098176E0
9.646937466E0,7.733703852E-1,-9.583024025E0,-1.933372378E0
9.667089966E0,7.819381356E-1,-9.581233025E0,-1.938799977E0
9.687361268E0,7.893876433E-1,-9.579272270E0,-1.945455790E0
9.707632518E0,7.951750755E-1,-9.576746941E0,-1.955503106E0
9.727903768E0,7.989786267E-1,-9.574619293E0,-1.964355707E0
9.748303768E0,8.020581603E-1,-9.573533058E0,-1.968389750E0
9.768446320E0,8.079684973E-1,-9.572756767E0,-1.969747305E0
9.788717622E0,8.086584210E-1,-9.571759224E0,-1.974310279E0
9.808996841E0,8.089209199E-1,-9.570182800E0,-1.981826782E0
9.829353195E0,8.048506379E-1,-9.568550110E0,-1.991344571E0
9.849684809E0,8.024189472E-1,-9.566971779E0,-1.999886870E0
9.869799601E0,8.044921160E-1,-9.565358162E0,-2.006761312E0
9.890071476E0,8.058760762E-1,-9.563647270E0,-2.014351845E0
9.910343195E0,8.115460873E-1,-9.563133240E0,-2.014511824E0
9.930614497E0,8.189803958E-1,-9.562355995E0,-2.015194178E0
9.951014966E0,8.200615048E-1,-9.561366081E0,-2.019443035E0
9.971157778E0,8.085182309E-1,-9.560907364E0,-2.026260853E0
9.991429289E0,7.968788147E-1,-9.561655045E0,-2.027347326E0
1.001170075E1,7.957138419E-1,-9.563276291E0,-2.020139456E0
1.003197200E1,8.012417555E-1,-9.564457893E0,-2.012348413E0
1.005237215E1,8.013042212E-1,-9.565944672E0,-2.005244017E0
1.007251481E1,7.913872004E-1,-9.567559242E0,-2.001472712E0
1.009278616E1,7.724444866E-1,-9.568167686E0,-2.005962849E0
1.011305747E1,7.546501160E-1,-9.566737175E0,-2.019508600E0
1.013332877E1,7.522975802E-1,-9.562378883E0,-2.040917873E0
1.015360007E1,7.617225051E-1,-9.557034492E0,-2.062342405E0
1.017387137E1,7.773872614E-1,-9.551524162E0,-2.081934929E0
1.019414267E1,7.969067693E-1,-9.545430183E0,-2.102397680E0
1.021441387E1,8.179503083E-1,-9.538464546E0,-2.125805140E0
1.023468512E1,8.334175348E-1,-9.531296730E0,-2.151788950E0
1.025495632E1,8.462093472E-1,-9.524748802E0,-2.175655603E0
1.027522762E1,8.565960526E-1,-9.519200325E0,-2.195784092E0
1.029549887E1,8.635101914E-1,-9.514745712E0,-2.212321043E0
1.031577007E1,8.690475821E-1,-9.512388229E0,-2.220275640E0
1.033604127E1,8.690878749E-1,-9.511974335E0,-2.222025394E0
1.035631252E1,8.696696162E-1,-9.512402534E0,-2.219972372E0
1.037658372E1,8.736479878E-1,-9.512379646E0,-2.218504906E0
1.039685497E1,8.786750436E-1,-9.511615753E0,-2.219794750E0
1.041712616E1,8.842610717E-1,-9.510072708E0,-2.224178791E0
1.043739741E1,8.943921924E-1,-9.508051872E0,-2.228768587E0
1.045766861E1,9.074107409E-1,-9.505568504E0,-2.234093189E0
1.047793981E1,9.208428264E-1,-9.503427505E0,-2.237698078E0
1.049821106E1,9.302147031E-1,-9.502443314E0,-2.238003016E0
1.051848226E1,9.351235032E-1,-9.502402306E0,-2.236129761E0
1.053875346E1,9.376019835E-1,-9.503195763E0,-2.231718063E0
1.055902465E1,9.387319684E-1,-9.504429817E0,-2.225980997E0
1.057929585E1,9.398421049E-1,-9.505980492E0,-2.218879700E0
1.059956700E1,9.418932199E-1,-9.507651329E0,-2.210836411E0
1.061983814E1,9.426127076E-1,-9.509289742E0,-2.203470707E0
1.064010934E1,9.437642097E-1,-9.510702133E0,-2.196872473E0
1.066038059E1,9.440257549E-1,-9.511498451E0,-2.193313360E0
1.068065174E1,9.456560612E-1,-9.512340546E0,-2.188951254E0
1.070092288E1,9.459376335E-1,-9.513066292E0,-2.185671568E0
1.072119408E1,9.455057979E-1,-9.513764381E0,-2.182815790E0
1.074146528E1,9.449735880E-1,-9.513911247E0,-2.182412386E0
1.076173642E1,9.449322224E-1,-9.513444901E0,-2.184457064E0
1.078200762E1,9.437828064E-1,-9.513092041E0,-2.186488867E0
1.080227877E1,9.422787428E-1,-9.512775421E0,-2.188515425E0
1.082254991E1,9.418304563E-1,-9.512276649E0,-2.190874815E0
1.084282111E1,9.413667917E-1,-9.511891365E0,-2.192748785E0
1.086309226E1,9.395219088E-1,-9.511760712E0,-2.194106579E0
1.088336340E1,9.390650988E-1,-9.511512756E0,-2.195374250E0
1.090363460E1,9.384089708E-1,-9.510787964E0,-2.198794842E0
1.092390575E1,9.391348958E-1,-9.510166168E0,-2.201172113E0
1.094417684E1,9.403710365E-1,-9.509821892E0,-2.202132702E0
1.096444804E1,9.420312047E-1,-9.509644508E0,-2.202187538E0
1.098471918E1,9.435247779E-1,-9.509304047E0,-2.203019619E0
1.100499038E1,9.452304840E-1,-9.509080887E0,-2.203247070E0
1.102526153E1,9.471485615E-1,-9.508744240E0,-2.203874588E0
1.104553267E1,9.485676289E-1,-9.508513451E0,-2.204262733E0
1.106580382E1,9.503108859E-1,-9.508119583E0,-2.205212116E0
1.108607491E1,9.515381455E-1,-9.508040428E0,-2.205024242E0
1.110634606E1,9.534232020E-1,-9.508292198E0,-2.203120947E0
1.112662517E1,9.536594152E-1,-9.508498192E0,-2.202129126E0
1.114696554E1,9.547925591E-1,-9.508297920E0,-2.202502728E0
1.116715830E1,9.574279785E-1,-9.508123398E0,-2.202114820E0
1.118742971E1,9.609563947E-1,-9.508017540E0,-2.201035500E0
1.120770106E1,9.637717605E-1,-9.507646561E0,-2.201406479E0
1.122797210E1,9.659580588E-1,-9.507199287E0,-2.202379942E0
1.124837226E1,9.681173563E-1,-9.506832123E0,-2.203019142E0
1.126851460E1,9.713776112E-1,-9.506644249E0,-2.202388048E0
1.128878580E1,9.744009376E-1,-9.506498337E0,-2.201686144E0
1.130905700E1,9.765546322E-1,-9.506247520E0,-2.201814651E0
1.132932814E1,9.783902764E-1,-9.505967140E0,-2.202208757E0
1.134972820E1,9.808798432E-1,-9.505611420E0,-2.202635527E0
1.136987049E1,9.817037582E-1,-9.505486488E0,-2.202809334E0
1.139014163E1,9.826692343E-1,-9.505306244E0,-2.203159571E0
1.141041273E1,9.842231274E-1,-9.504819870E0,-2.204566956E0
1.143068382E1,9.871953130E-1,-9.504338264E0,-2.205307722E0
1.145108387E1,9.878594875E-1,-9.503971100E0,-2.206594944E0
1.147122601E1,9.890736938E-1,-9.503448486E0,-2.208297968E0
1.149149710E1,9.900485277E-1,-9.502887726E0,-2.210276842E0
1.151176825E1,9.917729497E-1,-9.502396584E0,-2.211616278E0
1.153203934E1,9.916300774E-1,-9.502132416E0,-2.212810993E0
1.155243934E1,9.926469922E-1,-9.501826286E0,-2.213673830E0
1.157258153E1,9.942322373E-1,-9.501334190E0,-2.215069771E0
1.159285262E1,9.959024787E-1,-9.501143456E0,-2.215137005E0
1.161312366E1,9.974092841E-1,-9.500929832E0,-2.215380907E0
1.163339476E1,9.981788397E-1,-9.500996590E0,-2.214740992E0
1.167898346E1,1.000213981E0,-9.500866890E0,-2.214382887E0
1.169920694E1,1.001209140E0,-9.500883102E0,-2.213864803E0
1.171946960E1,1.001683354E0,-9.500846863E0,-2.213802814E0
1.173975043E1,1.002293825E0,-9.500514030E0,-2.214954376E0
1.176002132E1,1.002916932E0,-9.500028610E0,-2.216755390E0
1.178029231E1,1.003644943E0,-9.499625206E0,-2.218151331E0
1.180056340E1,1.003813386E0,-9.499231339E0,-2.219761848E0
1.182083445E1,1.002526402E0,-9.498773575E0,-2.222301722E0
1.184110549E1,1.003345370E0,-9.497928619E0,-2.225543022E0
1.186137653E1,1.004467487E0,-9.497136116E0,-2.228415012E0
1.188164762E1,1.004736185E0,-9.496485710E0,-2.231068134E0
1.190191866E1,1.005108356E0,-9.495635033E0,-2.234515905E0
1.192218971E1,1.005432606E0,-9.494961739E0,-2.237231493E0
1.194258971E1,1.006621838E0,-9.494455338E0,-2.238843441E0
1.196273179E1,1.007861853E0,-9.494087219E0,-2.239846945E0
1.198300283E1,1.008396149E0,-9.493683815E0,-2.241310596E0
1.200327387E1,1.008233070E0,-9.493710518E0,-2.241270542E0
1.202354491E1,1.007352948E0,-9.494028091E0,-2.240325928E0
1.204394491E1,1.006729722E0,-9.494128227E0,-2.240180254E0
1.206408700E1,1.006196737E0,-9.493919373E0,-2.241301775E0
1.208435804E1,1.006271839E0,-9.493789673E0,-2.241822004E0
1.210462903E1,1.007011652E0,-9.493653297E0,-2.242066383E0
1.212490007E1,1.008420348E0,-9.493551254E0,-2.241864681E0
1.214530007E1,1.010387063E0,-9.493489265E0,-2.241242170E0
1.216544210E1,1.010670424E0,-9.493738174E0,-2.240059614E0
1.218571314E1,1.010502934E0,-9.494043350E0,-2.238841534E0
1.220598413E1,1.011121869E0,-9.494423866E0,-2.236948252E0
1.222625517E1,1.012115717E0,-9.494605064E0,-2.235730886E0
1.224665517E1,1.013400674E0,-9.494745255E0,-2.234552145E0
1.226679721E1,1.013651848E0,-9.494902611E0,-2.233768225E0
1.228706820E1,1.013297558E0,-9.494983673E0,-2.233580351E0
1.230733918E1,1.013510466E0,-9.494927406E0,-2.233725309E0
1.232761017E1,1.014061689E0,-9.494944572E0,-2.233405113E0
1.234788122E1,1.014106870E0,-9.495184898E0,-2.232363701E0
1.236815221E1,1.013553977E0,-9.495213509E0,-2.232489586E0
1.238842320E1,1.013582706E0,-9.494935036E0,-2.233664989E0
1.240869418E1,1.013656139E0,-9.494887352E0,-2.233829021E0
1.242896517E1,1.013435960E0,-9.495077133E0,-2.233122349E0
1.244936517E1,1.011861682E0,-9.495406151E0,-2.232439041E0
1.246950814E1,1.009753466E0,-9.495644569E0,-2.232377768E0
1.248977898E1,1.008733869E0,-9.495779037E0,-2.232271194E0
1.251004976E1,1.008733153E0,-9.495784760E0,-2.232245684E0
1.253032059E1,1.007827520E0,-9.495932579E0,-2.232024670E0
1.255059148E1,1.006443143E0,-9.496164322E0,-2.231667995E0
1.257086241E1,1.004347444E0,-9.496750832E0,-2.230112791E0
1.259113325E1,1.002690315E0,-9.497284889E0,-2.228579760E0
1.261140418E1,1.001614809E0,-9.497452736E0,-2.228352547E0
1.263167512E1,1.000552654E0,-9.497590065E0,-2.228243113E0
1.265194606E1,9.996184707E-1,-9.497755051E0,-2.227957964E0
1.267221705E1,1.000209093E0,-9.497801781E0,-2.227493525E0
1.269248799E1,1.000718236E0,-9.498107910E0,-2.225959778E0
1.271275892E1,1.000241756E0,-9.498899460E0,-2.222792625E0
1.273302991E1,9.982592463E-1,-9.499794006E0,-2.219861031E0
1.275330085E1,9.963149428E-1,-9.500694275E0,-2.216878891E0
1.277357174E1,9.954110980E-1,-9.501427650E0,-2.214140415E0
1.279384273E1,9.943568707E-1,-9.502155304E0,-2.211486101E0
1.281411366E1,9.928113222E-1,-9.502635002E0,-2.210118294E0
1.283438460E1,9.923451543E-1,-9.502798080E0,-2.209627628E0
1.285465559E1,9.922707081E-1,-9.502980232E0,-2.208884716E0
1.287492653E1,9.918960333E-1,-9.503094673E0,-2.208557129E0
1.289519747E1,9.915433526E-1,-9.503103256E0,-2.208679914E0
1.291546840E1,9.926300049E-1,-9.502806664E0,-2.209464788E0
1.293573934E1,9.948830009E-1,-9.502421379E0,-2.210112572E0
1.295601028E1,9.961442351E-1,-9.502188683E0,-2.210541010E0
1.297628122E1,9.970068336E-1,-9.501914978E0,-2.211330175E0
1.299655215E1,9.979404807E-1,-9.501747131E0,-2.211630821E0
1.301682309E1,9.992159009E-1,-9.501467705E0,-2.212255239E0
1.303709403E1,1.000741482E0,-9.501194954E0,-2.212738276E0
1.305736497E1,1.001991272E0,-9.500859261E0,-2.213614464E0
1.307763590E1,1.003168464E0,-9.500767708E0,-2.213469744E0
1.309790679E1,1.003314853E0,-9.500894547E0,-2.212863445E0
1.311817773E1,1.002628446E0,-9.501261711E0,-2.211593866E0
1.313844866E1,1.001259208E0,-9.501606941E0,-2.210731268E0
1.315871955E1,9.996644855E-1,-9.501702309E0,-2.211042881E0
1.317899049E1,1.000150204E0,-9.501398087E0,-2.212134361E0
1.319926142E1,1.000551939E0,-9.501072884E0,-2.213345528E0
1.321953231E1,1.003098369E0,-9.500588417E0,-2.214272976E0
1.323980320E1,1.004896641E0,-9.500062943E0,-2.215711117E0
1.326007413E1,1.006875277E0,-9.499361992E0,-2.217818499E0
1.328034502E1,1.008611679E0,-9.498820305E0,-2.219346285E0
1.330061596E1,1.009360075E0,-9.498724937E0,-2.219412565E0
1.332088684E1,1.009370565E0,-9.498929024E0,-2.218536377E0
1.334115767E1,1.009727359E0,-9.498950958E0,-2.218278170E0
1.336142866E1,1.010275006E0,-9.498814583E0,-2.218611240E0
1.338169955E1,1.010505080E0,-9.498286247E0,-2.220771790E0
1.340197043E1,1.010203958E0,-9.497865677E0,-2.222704411E0
1.342224132E1,1.010366678E0,-9.497549057E0,-2.223983765E0
1.344264132E1,1.010822773E0,-9.497300148E0,-2.224841833E0
1.346278309E1,1.012259245E0,-9.497078896E0,-2.225130558E0
1.348305403E1,1.013070941E0,-9.496951103E0,-2.225305557E0
1.350332486E1,1.014620423E0,-9.496636391E0,-2.225945473E0
1.352359580E1,1.016444325E0,-9.496253967E0,-2.226742029E0
1.354399580E1,1.018432856E0,-9.495733261E0,-2.228051901E0
1.356413747E1,1.018622518E0,-9.495287895E0,-2.229869127E0
1.358440840E1,1.019468904E0,-9.494875908E0,-2.231230974E0
1.360467929E1,1.019773126E0,-9.494878769E0,-2.231080055E0
1.362495017E1,1.020711184E0,-9.494733810E0,-2.231268167E0
1.364535017E1,1.021527290E0,-9.494433403E0,-2.232177258E0
1.366549195E1,1.021648884E0,-9.494278908E0,-2.232779264E0
1.368576278E1,1.021306515E0,-9.494214058E0,-2.233208418E0
1.370603366E1,1.021308899E0,-9.493884087E0,-2.234612703E0
1.372630455E1,1.021363378E0,-9.493474007E0,-2.236326456E0
1.374670455E1,1.021802545E0,-9.493180275E0,-2.237369537E0
1.376684627E1,1.022519469E0,-9.492833138E0,-2.238519669E0
1.378711710E1,1.022479892E0,-9.492706299E0,-2.239077330E0
1.380738799E1,1.023485899E0,-9.492525101E0,-2.239384651E0
1.382765882E1,1.024990320E0,-9.491988182E0,-2.240969658E0
1.384792970E1,1.024395943E0,-9.491478920E0,-2.243398428E0
1.386820054E1,1.024729967E0,-9.491037369E0,-2.245114565E0
1.388847137E1,1.027073741E0,-9.490695953E0,-2.245481730E0
1.390874226E1,1.028637052E0,-9.490516663E0,-2.245529652E0
1.392901309E1,1.029964328E0,-9.490420341E0,-2.245325327E0
1.394928392E1,1.030320525E0,-9.490419388E0,-2.245166063E0
1.396955476E1,1.029255152E0,-9.490771294E0,-2.244168043E0
1.398982564E1,1.028744340E0,-9.491181374E0,-2.242666245E0
1.401009648E1,1.027931333E0,-9.491634369E0,-2.241121531E0
1.403036731E1,1.027433038E0,-9.492033005E0,-2.239660025E0
1.405063814E1,1.026676774E0,-9.492010117E0,-2.240101337E0
1.407090898E1,1.026799321E0,-9.491815567E0,-2.240874290E0
1.409117981E1,1.026431441E0,-9.491869926E0,-2.240810871E0
1.411145064E1,1.025622845E0,-9.492075920E0,-2.240307570E0
1.413172148E1,1.025396228E0,-9.492162704E0,-2.240044355E0
1.415199226E1,1.026196718E0,-9.491635323E0,-2.241912842E0
1.417226314E1,1.028009892E0,-9.490910530E0,-2.244149446E0
1.419253392E1,1.030199289E0,-9.490279198E0,-2.245810032E0
1.421280476E1,1.032357931E0,-9.489642143E0,-2.247514009E0
1.423307559E1,1.034010887E0,-9.488979340E0,-2.249550581E0
1.425334697E1,1.034902811E0,-9.488392830E0,-2.251612663E0
1.427361775E1,1.035311699E0,-9.487970352E0,-2.253204107E0
1.429388859E1,1.035400867E0,-9.487874985E0,-2.253561974E0
1.431415942E1,1.034708142E0,-9.488095284E0,-2.252955437E0
1.433443020E1,1.032908440E0,-9.488306999E0,-2.252892971E0
1.435470098E1,1.032436609E0,-9.488316536E0,-2.253064871E0
1.437497182E1,1.033010960E0,-9.488433838E0,-2.252311230E0
1.439524265E1,1.033018231E0,-9.488482475E0,-2.252103806E0
1.441551338E1,1.033977389E0,-9.488116264E0,-2.253201485E0
1.443578426E1,1.035415411E0,-9.487546921E0,-2.254939556E0
1.445605505E1,1.036387563E0,-9.486925125E0,-2.257112741E0
1.447632588E1,1.038575172E0,-9.486303329E0,-2.258718967E0
1.449659666E1,1.040187955E0,-9.486231804E0,-2.258268595E0
1.451686744E1,1.040789962E0,-9.486226082E0,-2.258024454E0
1.453713822E1,1.041019082E0,-9.486520767E0,-2.256676197E0
1.455740906E1,1.039394975E0,-9.487472534E0,-2.253422737E0
1.457767984E1,1.037635803E0,-9.488503456E0,-2.249888897E0
1.459795062E1,1.038088679E0,-9.489159584E0,-2.246909618E0
1.461822145E1,1.036102891E0,-9.490205765E0,-2.243407011E0
1.463849223E1,1.031899571E0,-9.491479874E0,-2.239952803E0
1.465876302E1,1.030032039E0,-9.492460251E0,-2.236652851E0
1.467903380E1,1.029649973E0,-9.493144035E0,-2.233924389E0
1.469930458E1,1.028483391E0,-9.494026184E0,-2.230714560E0
1.471957536E1,1.027256250E0,-9.494853020E0,-2.227753401E0
1.473984614E1,1.026464820E0,-9.495206833E0,-2.226609468E0
1.476011692E1,1.027021170E0,-9.495054245E0,-2.227008343E0
1.478038770E1,1.028184056E0,-9.494795799E0,-2.227573872E0
1.480065843E1,1.030009151E0,-9.494219780E0,-2.229185820E0
1.482092921E1,1.031454682E0,-9.493702888E0,-2.230718613E0
1.484119999E1,1.033004284E0,-9.492808342E0,-2.233803511E0
1.486147078E1,1.034549594E0,-9.491786957E0,-2.237426519E0
1.488174156E1,1.035295963E0,-9.491065979E0,-2.240134239E0
1.490201229E1,1.036965847E0,-9.490386009E0,-2.242242098E0
1.492228307E1,1.037111402E0,-9.489815712E0,-2.244589806E0
1.494268307E1,1.036890268E0,-9.489275932E0,-2.246968985E0
1.496282458E1,1.037706971E0,-9.488729477E0,-2.248902559E0
1.498309531E1,1.038177609E0,-9.488074303E0,-2.251450539E0
1.500336609E1,1.038368344E0,-9.487606049E0,-2.253334999E0
1.502363687E1,1.038016319E0,-9.487402916E0,-2.254350901E0
1.504403687E1,1.037793756E0,-9.487195969E0,-2.255326748E0
1.506417838E1,1.038524508E0,-9.486586571E0,-2.257550001E0
1.508444911E1,1.039865732E0,-9.486071587E0,-2.259095192E0
1.510471984E1,1.040556312E0,-9.485690117E0,-2.260379791E0
1.512499062E1,1.041523457E0,-9.485472679E0,-2.260847330E0
1.514539062E1,1.042811990E0,-9.485228539E0,-2.261278391E0
1.516553208E1,1.043763161E0,-9.484855652E0,-2.262401342E0
1.518580281E1,1.044304132E0,-9.484498024E0,-2.263647795E0
1.520607359E1,1.046133518E0,-9.483866692E0,-2.265452147E0
1.522634432E1,1.048576117E0,-9.483296394E0,-2.266707897E0
1.524674432E1,1.049968004E0,-9.483252525E0,-2.266246319E0
1.526688578E1,1.049198866E0,-9.483489037E0,-2.265613794E0
1.528715650E1,1.047017813E0,-9.484065056E0,-2.264214516E0
1.530742723E1,1.045347095E0,-9.484438896E0,-2.263414860E0
1.532769791E1,1.043948293E0,-9.484622955E0,-2.263293028E0
1.534796869E1,1.043241739E0,-9.484529495E0,-2.264007330E0
1.536823942E1,1.042434931E0,-9.484405518E0,-2.264902592E0
1.538851015E1,1.041823387E0,-9.484133720E0,-2.266318083E0
1.540878088E1,1.041566849E0,-9.483412743E0,-2.269451141E0
1.542905156E1,1.041381955E0,-9.482754707E0,-2.272281408E0
1.544932229E1,1.042453885E0,-9.482068062E0,-2.274660110E0
1.546959302E1,1.042733073E0,-9.481618881E0,-2.276400805E0
1.548986374E1,1.043384075E0,-9.481435776E0,-2.276862621E0
1.551013447E1,1.043998003E0,-9.481211662E0,-2.277515173E0
1.553040515E1,1.043964386E0,-9.481117249E0,-2.277929544E0
1.555067588E1,1.043795824E0,-9.481139183E0,-2.277909040E0
1.557094656E1,1.043800473E0,-9.481095314E0,-2.278091192E0
1.559121728E1,1.044968843E0,-9.481060982E0,-2.277695656E0
1.561148802E1,1.045144916E0,-9.480800629E0,-2.278701544E0
1.563175869E1,1.044847250E0,-9.480587006E0,-2.279725075E0
1.565202942E1,1.044221163E0,-9.480810165E0,-2.279086351E0
1.567230010E1,1.043994665E0,-9.480680466E0,-2.279727697E0
1.569257083E1,1.043478966E0,-9.480262756E0,-2.281699896E0
1.571284150E1,1.043005228E0,-9.480197906E0,-2.282189369E0
1.573311223E1,1.043163419E0,-9.480135918E0,-2.282369614E0
1.575338291E1,1.043696642E0,-9.479960442E0,-2.282855988E0
1.577365364E1,1.043801308E0,-9.479800224E0,-2.283476114E0
1.579392432E1,1.044481754E0,-9.479779243E0,-2.283251286E0
1.581419499E1,1.046008468E0,-9.479590416E0,-2.283332348E0
1.583446567E1,1.047535300E0,-9.479419708E0,-2.283343077E0
1.585473640E1,1.048471332E0,-9.479454041E0,-2.282770634E0
1.587500708E1,1.048540354E0,-9.479806900E0,-2.281272888E0
1.589527775E1,1.048520327E0,-9.480328560E0,-2.279117107E0
1.591554843E1,1.047315598E0,-9.480961800E0,-2.277032137E0
1.593581911E1,1.045299292E0,-9.481476784E0,-2.275817633E0
1.595608979E1,1.043540359E0,-9.481743813E0,-2.275509596E0
1.597636046E1,1.042728901E0,-9.481997490E0,-2.274825811E0
1.599663114E1,1.042981505E0,-9.481966019E0,-2.274839401E0
1.601690182E1,1.042214274E0,-9.481987953E0,-2.275103807E0
1.603717249E1,1.041795015E0,-9.481958389E0,-2.275418997E0
1.605744317E1,1.042543650E0,-9.481678963E0,-2.276234150E0
1.607771385E1,1.043779254E0,-9.481230736E0,-2.277536392E0
1.609798452E1,1.045231342E0,-9.480642319E0,-2.279319763E0
1.611825520E1,1.046310067E0,-9.480017662E0,-2.281424999E0
1.613852583E1,1.048166037E0,-9.479516983E0,-2.282650948E0
1.615879650E1,1.049116731E0,-9.479263306E0,-2.283269167E0
1.617906713E1,1.049279809E0,-9.478958130E0,-2.284456968E0
1.619933786E1,1.049063325E0,-9.478817940E0,-2.285137892E0
1.621960854E1,1.049879074E0,-9.478466988E0,-2.286221266E0
1.623987916E1,1.051450253E0,-9.478075027E0,-2.287123680E0
1.626014984E1,1.052512527E0,-9.477833748E0,-2.287632227E0
1.628042046E1,1.052979708E0,-9.477560997E0,-2.288549185E0
1.630069114E1,1.053427458E0,-9.477212906E0,-2.289783478E0
1.632096176E1,1.053948879E0,-9.476915359E0,-2.290773153E0
1.634123239E1,1.055155873E0,-9.476641655E0,-2.291348934E0
1.636150312E1,1.056731224E0,-9.476540565E0,-2.291041136E0
1.638177374E1,1.056869030E0,-9.476583481E0,-2.290801764E0
1.640204437E1,1.055822015E0,-9.476648331E0,-2.291016102E0
1.642231499E1,1.055409908E0,-9.476618767E0,-2.291332006E0
1.644271499E1,1.056149364E0,-9.476300240E0,-2.292307615E0
1.646285630E1,1.056043029E0,-9.475923538E0,-2.293909788E0
1.648312692E1,1.055612922E0,-9.475833893E0,-2.294480801E0
1.650339760E1,1.055920839E0,-9.476133347E0,-2.293102264E0
1.652366822E1,1.056031227E0,-9.476532936E0,-2.291396379E0
1.654406822E1,1.053606153E0,-9.477414131E0,-2.288869143E0
1.656420937E1,1.048966408E0,-9.479307175E0,-2.283152103E0
1.658448010E1,1.042816043E0,-9.483333588E0,-2.269207716E0
1.662002114E1,1.031044602E0,-9.493925095E0,-2.229955196E0
1.664045031E1,1.027372837E0,-9.497786522E0,-2.215159655E0
1.666056260E1,1.026571155E0,-9.499144554E0,-2.209704399E0
1.668083328E1,1.027935147E0,-9.499414444E0,-2.207908392E0
1.670110385E1,1.029401779E0,-9.500992775E0,-2.200419903E0
1.672137447E1,1.026276112E0,-9.504361153E0,-2.187295437E0
1.674164510E1,1.020266056E0,-9.508272171E0,-2.173063517E0
1.676191572E1,1.014499664E0,-9.511487007E0,-2.161662817E0
1.678218635E1,1.010527611E0,-9.513738632E0,-2.153597593E0
1.680245697E1,1.007324100E0,-9.515469551E0,-2.147445440E0
1.682272755E1,1.005454540E0,-9.516747475E0,-2.142648935E0
1.684299817E1,1.004012346E0,-9.518017769E0,-2.137682915E0
1.686326880E1,1.001309633E0,-9.519247055E0,-2.133474112E0
1.688353942E1,9.973311424E-1,-9.520098686E0,-2.131532431E0
1.690380999E1,9.939664602E-1,-9.520610809E0,-2.130817413E0
1.692408062E1,9.920157790E-1,-9.520683289E0,-2.131401777E0
1.694435124E1,9.904643297E-1,-9.520559311E0,-2.132678032E0
1.696462182E1,9.897184372E-1,-9.520012856E0,-2.135463476E0
1.698489244E1,9.877997041E-1,-9.519417763E0,-2.138998032E0
1.700516296E1,9.853614569E-1,-9.519019127E0,-2.141896725E0
1.702543359E1,9.828190207E-1,-9.518356323E0,-2.146005630E0
1.704583359E1,9.788092971E-1,-9.518105507E0,-2.148952484E0
1.706597484E1,9.747968316E-1,-9.518098831E0,-2.150799513E0
1.708624541E1,9.728221893E-1,-9.517783165E0,-2.153092146E0
1.710651604E1,9.694393873E-1,-9.517601013E0,-2.155423403E0
1.712678661E1,9.655910134E-1,-9.517608643E0,-2.157117128E0
1.714705723E1,9.631263018E-1,-9.517544746E0,-2.158499002E0
1.716732781E1,9.608136415E-1,-9.517894745E0,-2.157985449E0
1.718759838E1,9.581053257E-1,-9.518286705E0,-2.157463312E0
1.720786895E1,9.569488168E-1,-9.518525124E0,-2.156922817E0
1.722813958E1,9.588998556E-1,-9.518222809E0,-2.157393217E0
1.724841015E1,9.612424970E-1,-9.517907143E0,-2.157738447E0
1.726868072E1,9.644978642E-1,-9.517660141E0,-2.157378674E0
1.728895130E1,9.683195353E-1,-9.517262459E0,-2.157420635E0
1.730935130E1,9.707052112E-1,-9.517082214E0,-2.157142401E0
1.732949249E1,9.721769094E-1,-9.517150879E0,-2.156177044E0
1.734976307E1,9.733242989E-1,-9.517380714E0,-2.154643774E0
1.737003364E1,9.742835164E-1,-9.517492294E0,-2.153718472E0
1.739030421E1,9.774000645E-1,-9.517303467E0,-2.153139114E0
1.741057478E1,9.786302447E-1,-9.517122269E0,-2.153383255E0
1.743084536E1,9.794796109E-1,-9.516750336E0,-2.154642105E0
1.745111588E1,9.798682928E-1,-9.516389847E0,-2.156051159E0
1.747138645E1,9.806336761E-1,-9.515688896E0,-2.158796787E0
1.749165703E1,9.836088419E-1,-9.514598846E0,-2.162244320E0
1.751192760E1,9.850987792E-1,-9.513642311E0,-2.165777922E0
1.753219817E1,9.871940017E-1,-9.512595177E0,-2.169415951E0
1.755246874E1,9.872938991E-1,-9.511618614E0,-2.173648119E0
1.757273932E1,9.887800813E-1,-9.510689735E0,-2.177034855E0
1.759300984E1,9.890159965E-1,-9.509957314E0,-2.180123329E0
1.761328041E1,9.886302352E-1,-9.509154320E0,-2.183800936E0
1.763355098E1,9.884536862E-1,-9.508333206E0,-2.187446594E0
1.765382156E1,9.886830449E-1,-9.507599831E0,-2.190533400E0
1.767409208E1,9.893880486E-1,-9.506943703E0,-2.193059921E0
1.769436260E1,9.882437587E-1,-9.506249428E0,-2.196583986E0
1.771463322E1,9.877910018E-1,-9.505467415E0,-2.200169325E0
1.773490374E1,9.878979921E-1,-9.504553795E0,-2.204067945E0
1.775517432E1,9.876738787E-1,-9.503903389E0,-2.206968069E0
1.777544484E1,9.879950285E-1,-9.503312111E0,-2.209370136E0
1.779571541E1,9.884277582E-1,-9.502601624E0,-2.212229729E0
1.781598593E1,9.900724888E-1,-9.501924515E0,-2.214400768E0
1.783638593E1,9.907724261E-1,-9.501257896E0,-2.216948271E0
1.785652703E1,9.928119779E-1,-9.500644684E0,-2.218660355E0
1.787679760E1,9.940663576E-1,-9.499984741E0,-2.220923662E0
1.789706812E1,9.957635403E-1,-9.499257088E0,-2.223277092E0
1.791733864E1,9.982229471E-1,-9.498516083E0,-2.225338459E0
1.793773864E1,9.997899532E-1,-9.497985840E0,-2.226894617E0
1.795787973E1,1.002474308E0,-9.497364044E0,-2.228340864E0
1.797815025E1,1.004180193E0,-9.496627808E0,-2.230707884E0
1.799842083E1,1.006118894E0,-9.496028900E0,-2.232388973E0
1.801869135E1,1.005537271E0,-9.495572090E0,-2.234588146E0
1.803909135E1,1.006631494E0,-9.495155334E0,-2.235869884E0
1.805939036E1,1.008459926E0,-9.494696617E0,-2.236990452E0
1.807950354E1,1.009926081E0,-9.493985176E0,-2.239346743E0
1.809977395E1,1.011363387E0,-9.493217468E0,-2.241954327E0
1.812004437E1,1.011487961E0,-9.492526054E0,-2.244822025E0
1.814044437E1,1.013419271E0,-9.491477013E0,-2.248384237E0
1.816058536E1,1.014941931E0,-9.490314484E0,-2.252601862E0
1.818085578E1,1.017087102E0,-9.489133835E0,-2.256598711E0
1.820112624E1,1.019415975E0,-9.487890244E0,-2.260775566E0
1.822139671E1,1.021966338E0,-9.486419678E0,-2.265793562E0
1.824179671E1,1.024380565E0,-9.484973907E0,-2.270745993E0
1.826193775E1,1.027313471E0,-9.483926773E0,-2.273798227E0
1.828220828E1,1.030993581E0,-9.483175278E0,-2.275264263E0
1.830247880E1,1.034720540E0,-9.483214378E0,-2.273408890E0
1.832274927E1,1.036705852E0,-9.483625412E0,-2.270788431E0
1.834301979E1,1.037334204E0,-9.482985497E0,-2.273171186E0
1.836329025E1,1.035851240E0,-9.482052803E0,-2.277734518E0
1.838356072E1,1.038027167E0,-9.480707169E0,-2.282340527E0
1.840383124E1,1.042246580E0,-9.479640961E0,-2.284844875E0
1.842410176E1,1.045918465E0,-9.479044914E0,-2.285638571E0
1.844437223E1,1.047257781E0,-9.478955269E0,-2.285395861E0
1.846464275E1,1.047718883E0,-9.478406906E0,-2.287458181E0
1.848491328E1,1.049447536E0,-9.477703094E0,-2.289583445E0
1.850518380E1,1.050232172E0,-9.477383614E0,-2.290546894E0
1.852545426E1,1.051321030E0,-9.476794243E0,-2.292485952E0
1.854572478E1,1.051018715E0,-9.476322174E0,-2.294574261E0
1.856599525E1,1.050683737E0,-9.476131439E0,-2.295515776E0
1.858626578E1,1.047934413E0,-9.476111412E0,-2.296856403E0
1.860653630E1,1.045611382E0,-9.475567818E0,-2.300152063E0
1.862680676E1,1.046317220E0,-9.474408150E0,-2.304598570E0
1.864707728E1,1.046903372E0,-9.473027229E0,-2.310008526E0
1.866734775E1,1.047314405E0,-9.471414566E0,-2.316426039E0
1.868761828E1,1.048373580E0,-9.469634056E0,-2.323215485E0
1.870788874E1,1.049928665E0,-9.467799187E0,-2.329985380E0
1.872815927E1,1.051897407E0,-9.466206551E0,-2.335558891E0
1.874842973E1,1.053489327E0,-9.465551376E0,-2.337494135E0
1.876870020E1,1.053108454E0,-9.466136932E0,-2.335294485E0
1.878897072E1,1.052535415E0,-9.467241287E0,-2.331073284E0
1.880924119E1,1.051544070E0,-9.468602180E0,-2.325984001E0
1.882951171E1,1.048398495E0,-9.470274925E0,-2.320590973E0
1.884978218E1,1.045958281E0,-9.471981049E0,-2.314720154E0
1.887005265E1,1.044075489E0,-9.473362923E0,-2.309909105E0
1.889032312E1,1.043203473E0,-9.474569321E0,-2.305356979E0
1.891059364E1,1.042925477E0,-9.475571632E0,-2.301356792E0
1.893086411E1,1.043726444E0,-9.475646973E0,-2.300681114E0
1.895113458E1,1.045700073E0,-9.475029945E0,-2.302322626E0
1.897140505E1,1.048520684E0,-9.474055290E0,-2.305052996E0
1.899167557E1,1.052024484E0,-9.472648621E0,-2.309231758E0
1.901194604E1,1.057429314E0,-9.471122742E0,-2.313018560E0
1.903221650E1,1.062974453E0,-9.468894005E0,-2.319598198E0
1.905248697E1,1.068176389E0,-9.466557503E0,-2.326727867E0
1.907275739E1,1.073702574E0,-9.464096069E0,-2.334188938E0
1.909302791E1,1.078925729E0,-9.461829185E0,-2.340959311E0
1.911329838E1,1.085267901E0,-9.459751129E0,-2.346422195E0
1.913356880E1,1.090609670E0,-9.457285881E0,-2.353867769E0
1.915383937E1,1.095920324E0,-9.455041885E0,-2.360409737E0
1.917410979E1,1.100999117E0,-9.453125954E0,-2.365717173E0
1.919438025E1,1.105395317E0,-9.451552391E0,-2.369948387E0
1.921465072E1,1.109418869E0,-9.450814247E0,-2.371008635E0
1.923492119E1,1.114553809E0,-9.450022697E0,-2.371752977E0
1.925519166E1,1.118174911E0,-9.449521065E0,-2.372051001E0
1.927546213E1,1.121154547E0,-9.448860168E0,-2.373275995E0
1.929573260E1,1.124097109E0,-9.448474884E0,-2.373420715E0
1.931600307E1,1.125852346E0,-9.448878288E0,-2.370981455E0
1.933627354E1,1.126746297E0,-9.449628830E0,-2.367558718E0
1.935654400E1,1.125139356E0,-9.450380325E0,-2.365326643E0
1.937681447E1,1.122904181E0,-9.450684547E0,-2.365170002E0
1.939708494E1,1.121264815E0,-9.450789452E0,-2.365530014E0
1.941735541E1,1.118793488E0,-9.451052666E0,-2.365645647E0
1.943775541E1,1.117948294E0,-9.451016426E0,-2.366194963E0
1.945789630E1,1.116184354E0,-9.450961113E0,-2.367244482E0
1.947816676E1,1.114263058E0,-9.450878143E0,-2.368483782E0
1.949843723E1,1.114489555E0,-9.450641632E0,-2.369317055E0
1.951870770E1,1.114624977E0,-9.450485229E0,-2.369878292E0
1.953910770E1,1.114120364E0,-9.450501442E0,-2.370051622E0
1.955924859E1,1.115006328E0,-9.449992180E0,-2.371663570E0
1.957951906E1,1.114274979E0,-9.449771881E0,-2.372889280E0
1.959978953E1,1.112699270E0,-9.449595451E0,-2.374328136E0
1.962005999E1,1.112854719E0,-9.448977470E0,-2.376710892E0
1.964045999E1,1.114046216E0,-9.448562622E0,-2.377803087E0
1.966060088E1,1.114610553E0,-9.448345184E0,-2.378404617E0
1.968087135E1,1.114474535E0,-9.448231697E0,-2.378918171E0
1.970114177E1,1.114667892E0,-9.448030472E0,-2.379627466E0
1.972141223E1,1.115056157E0,-9.447507858E0,-2.381518364E0
1.974181223E1,1.115195632E0,-9.447052956E0,-2.383257627E0
1.976195312E1,1.114804387E0,-9.446592331E0,-2.385264158E0
1.978222354E1,1.116164684E0,-9.445980072E0,-2.387054443E0
1.980249400E1,1.117415428E0,-9.445611954E0,-2.387923956E0
1.982276442E1,1.119513035E0,-9.445342064E0,-2.388012171E0
1.984303489E1,1.121866345E0,-9.445005417E0,-2.388236284E0
1.986330536E1,1.123639107E0,-9.444781303E0,-2.388286352E0
1.988357578E1,1.126012325E0,-9.444962502E0,-2.386451960E0
1.990384619E1,1.131064653E0,-9.445200920E0,-2.383122683E0
1.992411666E1,1.135106564E0,-9.445519447E0,-2.379934788E0
1.994438708E1,1.140854955E0,-9.445682526E0,-2.376533985E0
1.996465755E1,1.145187497E0,-9.445699692E0,-2.374379873E0
1.998492796E1,1.147913694E0,-9.445220947E0,-2.374968290E0
2.000519843E1,1.148822784E0,-9.444807053E0,-2.376179934E0
2.002546885E1,1.145871162E0,-9.445196152E0,-2.376056433E0
2.004573926E1,1.141285539E0,-9.445942879E0,-2.375295401E0
2.006600968E1,1.135529757E0,-9.446880341E0,-2.374322891E0
2.008628015E1,1.130765915E0,-9.447387695E0,-2.374581099E0
2.010655057E1,1.124545097E0,-9.447182655E0,-2.378342152E0
2.012682098E1,1.117511868E0,-9.446359634E0,-2.384922743E0
2.014709145E1,1.111461997E0,-9.445145607E0,-2.392542601E0
2.016736260E1,1.106667399E0,-9.442921638E0,-2.403518438E0
2.018763229E1,1.103686810E0,-9.439398766E0,-2.418678045E0
2.020790270E1,1.104182124E0,-9.434566498E0,-2.437236071E0
2.022817312E1,1.107596636E0,-9.430023193E0,-2.453215837E0
2.024844354E1,1.112606287E0,-9.426524162E0,-2.464373827E0
2.026871400E1,1.118549228E0,-9.423662186E0,-2.472614288E0
2.028898442E1,1.126234293E0,-9.420688629E0,-2.480445385E0
2.030938442E1,1.132475853E0,-9.418791771E0,-2.484804392E0
2.032952525E1,1.139044762E0,-9.417800903E0,-2.485560179E0
2.034979567E1,1.145772219E0,-9.417052269E0,-2.485298395E0
2.037006609E1,1.154882789E0,-9.415986061E0,-2.485121727E0
2.039033650E1,1.162766099E0,-9.414856911E0,-2.485726357E0
2.041060692E1,1.170041919E0,-9.413848877E0,-2.486130476E0
2.043087734E1,1.177056551E0,-9.412874222E0,-2.486508131E0
2.045114775E1,1.184955001E0,-9.411801338E0,-2.486820459E0
2.047141817E1,1.193274975E0,-9.410754204E0,-2.486800671E0
2.049168859E1,1.200523138E0,-9.409727097E0,-2.487200022E0
2.051195900E1,1.207295775E0,-9.408761978E0,-2.487574816E0
2.053222942E1,1.214594245E0,-9.407922745E0,-2.487190247E0
2.055249984E1,1.220256209E0,-9.407271385E0,-2.486887932E0
2.057277025E1,1.225193739E0,-9.406608582E0,-2.486966848E0
2.059304067E1,1.229842901E0,-9.405791283E0,-2.487762451E0
2.061331109E1,1.233060956E0,-9.404983521E0,-2.489224195E0
2.063358150E1,1.234801412E0,-9.404384613E0,-2.490625620E0
2.065385187E1,1.235784650E0,-9.403685570E0,-2.492773771E0
2.067412229E1,1.234973192E0,-9.403130531E0,-2.495265961E0
2.069439270E1,1.233725786E0,-9.402962685E0,-2.496516943E0
2.071466312E1,1.230380416E0,-9.402975082E0,-2.498122454E0
2.073493354E1,1.227314472E0,-9.402986526E0,-2.499588251E0
2.075520390E1,1.223533154E0,-9.402819633E0,-2.502067327E0
2.077547432E1,1.219578147E0,-9.403013229E0,-2.503268957E0
2.079574473E1,1.215040207E0,-9.403568268E0,-2.503392935E0
2.081601515E1,1.211360693E0,-9.403983116E0,-2.503614426E0
2.083628552E1,1.206939459E0,-9.404413223E0,-2.504137278E0
2.085655593E1,1.202968597E0,-9.404603004E0,-2.505332470E0
2.087682635E1,1.199520350E0,-9.404891014E0,-2.505907059E0
2.089709676E1,1.196116090E0,-9.405365944E0,-2.505753994E0
2.091736718E1,1.193009138E0,-9.406004906E0,-2.504836798E0
2.093776718E1,1.190526962E0,-9.406543732E0,-2.503988028E0
2.095790796E1,1.187612176E0,-9.407153130E0,-2.503084421E0
2.097817838E1,1.184772491E0,-9.407787323E0,-2.502045870E0
2.099844874E1,1.182938933E0,-9.408111572E0,-2.501693726E0
2.101871916E1,1.181452155E0,-9.408277512E0,-2.501776457E0
2.103911916E1,1.179933429E0,-9.408600807E0,-2.501277685E0
2.105925994E1,1.178074360E0,-9.409167290E0,-2.500019073E0
2.107953036E1,1.176763415E0,-9.409659386E0,-2.498784065E0
2.109980072E1,1.176402330E0,-9.409975052E0,-2.497765541E0
2.112007114E1,1.175909638E0,-9.410188675E0,-2.497191668E0
2.114047114E1,1.175293922E0,-9.410281181E0,-2.497136593E0
2.116061192E1,1.175943851E0,-9.410437584E0,-2.496238232E0
2.120625692E1,1.174231291E0,-9.411807060E0,-2.491880178E0
2.122642385E1,1.174238205E0,-9.412114143E0,-2.490714550E0
2.124667463E1,1.174176931E0,-9.412546158E0,-2.489112616E0
2.126696453E1,1.174011707E0,-9.413068771E0,-2.487214327E0
2.128723442E1,1.173958421E0,-9.413519859E0,-2.485529184E0
2.130750473E1,1.174259782E0,-9.413879395E0,-2.484023571E0
2.132777510E1,1.175099850E0,-9.414074898E0,-2.482887745E0
2.134804541E1,1.172090769E0,-9.415166855E0,-2.480163813E0
2.138358609E1,1.169727921E0,-9.416605949E0,-2.475812197E0
2.140385661E1,1.167045474E0,-9.417390823E0,-2.474096298E0
2.142412697E1,1.164617777E0,-9.417939186E0,-2.473150730E0
2.144452697E1,1.163323522E0,-9.418125153E0,-2.473052740E0
2.146466781E1,1.163384080E0,-9.418137550E0,-2.472974062E0
2.148493817E1,1.163347483E0,-9.418460846E0,-2.471760750E0
2.150520854E1,1.164361596E0,-9.418084145E0,-2.472719431E0
2.152547895E1,1.165624380E0,-9.417641640E0,-2.473806858E0
2.154574932E1,1.166525126E0,-9.416959763E0,-2.475976706E0
2.156601963E1,1.168367386E0,-9.416315079E0,-2.477564335E0
2.158629010E1,1.170557380E0,-9.415782928E0,-2.478550196E0
2.160656046E1,1.171740055E0,-9.415319443E0,-2.479752302E0
2.162683083E1,1.173272967E0,-9.414422035E0,-2.482432604E0
2.164710119E1,1.174168706E0,-9.413426399E0,-2.485785961E0
2.166737156E1,1.174359322E0,-9.412891388E0,-2.487714767E0
2.168764192E1,1.175568700E0,-9.411973953E0,-2.490615606E0
2.170791234E1,1.176689029E0,-9.411251068E0,-2.492818594E0
2.172818270E1,1.177072167E0,-9.410703659E0,-2.494704247E0
2.174845307E1,1.176603079E0,-9.410126686E0,-2.497099400E0
2.176872343E1,1.175279737E0,-9.409511566E0,-2.500041008E0
2.178899380E1,1.174526453E0,-9.408816338E0,-2.503008366E0
2.180926416E1,1.176341057E0,-9.407984734E0,-2.505281687E0
2.182953452E1,1.178390980E0,-9.406614304E0,-2.509459496E0
2.184980489E1,1.181423426E0,-9.405259132E0,-2.513113260E0
2.187007525E1,1.184800386E0,-9.403954506E0,-2.516402721E0
2.189034562E1,1.186705828E0,-9.402618408E0,-2.520489454E0
2.191061604E1,1.189749837E0,-9.401745796E0,-2.522311211E0
2.193088640E1,1.191139102E0,-9.401679039E0,-2.521905422E0
2.195115676E1,1.191780686E0,-9.402440071E0,-2.518761635E0
2.197142713E1,1.189749599E0,-9.404026031E0,-2.513798237E0
2.199169749E1,1.186633945E0,-9.406282425E0,-2.506819725E0
2.201196786E1,1.183953047E0,-9.408996582E0,-2.497882128E0
2.203223822E1,1.181871533E0,-9.411938667E0,-2.487766027E0
2.205250854E1,1.179448128E0,-9.414614677E0,-2.478776455E0
2.207277890E1,1.176504612E0,-9.417113304E0,-2.470671415E0
2.209304926E1,1.172731280E0,-9.419530869E0,-2.463237047E0
2.211331963E1,1.167234302E0,-9.422007561E0,-2.456364155E0
2.213358999E1,1.162455559E0,-9.424351692E0,-2.449631691E0
2.215386036E1,1.156285644E0,-9.426587105E0,-2.443941116E0
2.217413067E1,1.150225759E0,-9.428011894E0,-2.441303492E0
2.219440104E1,1.143867493E0,-9.428839684E0,-2.441095591E0
2.221467140E1,1.139022589E0,-9.429322243E0,-2.441491604E0
2.223494177E1,1.135048270E0,-9.429271698E0,-2.443542004E0
2.225521208E1,1.132074594E0,-9.428940773E0,-2.446194172E0
2.227548244E1,1.127825499E0,-9.428335190E0,-2.450487375E0
2.229575281E1,1.122786164E0,-9.427529335E0,-2.455896139E0
2.231602317E1,1.116317511E0,-9.426860809E0,-2.461406708E0
2.233629348E1,1.109623313E0,-9.425893784E0,-2.468122482E0
2.235656385E1,1.105355144E0,-9.425046921E0,-2.473272562E0
2.237683421E1,1.101855397E0,-9.424363136E0,-2.477434874E0
2.239710453E1,1.100151539E0,-9.423784256E0,-2.480390787E0
2.241737489E1,1.098140717E0,-9.423498154E0,-2.482369184E0
2.243777489E1,1.098154664E0,-9.422714233E0,-2.485337496E0
2.245791557E1,1.100646734E0,-9.421476364E0,-2.488925457E0
2.247818593E1,1.105864406E0,-9.419914246E0,-2.492523193E0
2.249845624E1,1.112634301E0,-9.418508530E0,-2.494823456E0
2.251872661E1,1.117751122E0,-9.417663574E0,-2.495723009E0
2.253912661E1,1.120986938E0,-9.417171478E0,-2.496128321E0
2.255926728E1,1.122196555E0,-9.416750908E0,-2.497170448E0
2.257953760E1,1.123407125E0,-9.416378975E0,-2.498026848E0
2.259980796E1,1.124842286E0,-9.416127205E0,-2.498332500E0
2.262007828E1,1.128030181E0,-9.415819168E0,-2.498055696E0
2.264047828E1,1.129733682E0,-9.415927887E0,-2.496876478E0
2.266061895E1,1.130036116E0,-9.415874481E0,-2.496942282E0
2.268088926E1,1.129813552E0,-9.415474892E0,-2.498550892E0
2.270115963E1,1.129135966E0,-9.415176392E0,-2.499979973E0
2.272142994E1,1.130740762E0,-9.414980888E0,-2.499988794E0
2.274170031E1,1.131547213E0,-9.414714813E0,-2.500624180E0
2.276197062E1,1.132237196E0,-9.414681435E0,-2.500440598E0
2.278224093E1,1.132646799E0,-9.414404869E0,-2.501296759E0
2.280251124E1,1.133422136E0,-9.413938522E0,-2.502699614E0
2.282291124E1,1.134544253E0,-9.412890434E0,-2.506132841E0
2.284305192E1,1.136046290E0,-9.412246704E0,-2.507866859E0
2.286332223E1,1.136932135E0,-9.411525726E0,-2.510172844E0
2.288359255E1,1.137780905E0,-9.410974503E0,-2.511847734E0
2.290386291E1,1.138047814E0,-9.410460472E0,-2.513655424E0
2.292413322E1,1.139046431E0,-9.409817696E0,-2.515604973E0
2.294440354E1,1.139810205E0,-9.409182549E0,-2.517638683E0
2.296467385E1,1.141635656E0,-9.408194542E0,-2.520499945E0
2.298494416E1,1.143261433E0,-9.407576561E0,-2.522074223E0
2.300521453E1,1.144446611E0,-9.407380104E0,-2.522267818E0
2.302548484E1,1.145472169E0,-9.407016754E0,-2.523155928E0
2.304588484E1,1.146954536E0,-9.406357765E0,-2.524937391E0
2.306602546E1,1.148907900E0,-9.405853271E0,-2.525928020E0
2.308629578E1,1.151634932E0,-9.405081749E0,-2.527560234E0
2.310656609E1,1.155144095E0,-9.404500961E0,-2.528119802E0
2.312683640E1,1.158035994E0,-9.404144287E0,-2.528123379E0
2.314710671E1,1.158666849E0,-9.404436111E0,-2.526748180E0
2.316737702E1,1.157051563E0,-9.405356407E0,-2.524057627E0
2.318764734E1,1.155102015E0,-9.406126022E0,-2.522086620E0
2.320791765E1,1.153233647E0,-9.406778336E0,-2.520509481E0
2.322818796E1,1.151418805E0,-9.407455444E0,-2.518810987E0
2.324845828E1,1.150377274E0,-9.407907486E0,-2.517598152E0
2.326872854E1,1.148878455E0,-9.408349037E0,-2.516633749E0
2.328899890E1,1.146280527E0,-9.408493996E0,-2.517272711E0
2.330926921E1,1.144695640E0,-9.408374786E0,-2.518440485E0
2.332953952E1,1.144479275E0,-9.408062935E0,-2.519704342E0
2.334980978E1,1.145660758E0,-9.407302856E0,-2.522001028E0
2.337008010E1,1.147845507E0,-9.405961037E0,-2.526011467E0
2.339035041E1,1.150009513E0,-9.404532433E0,-2.530344248E0
2.341062072E1,1.150951028E0,-9.403698921E0,-2.533011913E0
2.343089104E1,1.152276874E0,-9.403116226E0,-2.534567595E0
2.345116135E1,1.153552175E0,-9.402539253E0,-2.536130190E0
2.347143161E1,1.153978348E0,-9.402144432E0,-2.537399292E0
2.349170192E1,1.155457139E0,-9.401636124E0,-2.538612604E0
2.351197223E1,1.156197786E0,-9.401392937E0,-2.539172173E0
2.353224255E1,1.156685710E0,-9.401440620E0,-2.538775921E0
2.355251281E1,1.157178402E0,-9.401517868E0,-2.538265467E0
2.357278312E1,1.157380104E0,-9.401370049E0,-2.538718939E0
2.359305343E1,1.158867836E0,-9.401354790E0,-2.538099527E0
2.361332369E1,1.160575509E0,-9.401424408E0,-2.537056208E0
2.363359400E1,1.162989259E0,-9.401155472E0,-2.536954880E0
2.365386427E1,1.162951946E0,-9.400939941E0,-2.537767649E0
2.367413458E1,1.163251042E0,-9.400637627E0,-2.538748980E0
2.369440489E1,1.163615704E0,-9.400334358E0,-2.539708376E0
2.371467520E1,1.165826321E0,-9.400147438E0,-2.539383411E0
2.373494546E1,1.168061852E0,-9.399943352E0,-2.539109707E0
2.375521578E1,1.169361711E0,-9.399799347E0,-2.539044857E0
2.377548604E1,1.169144869E0,-9.399959564E0,-2.538552523E0
2.379575635E1,1.168228865E0,-9.400488853E0,-2.537012100E0
2.381602666E1,1.168333888E0,-9.401035309E0,-2.534938812E0
2.383642666E1,1.167836189E0,-9.401080132E0,-2.535006285E0
2.385656723E1,1.169645071E0,-9.400904655E0,-2.534818172E0
2.387683749E1,1.170547009E0,-9.401082993E0,-2.533740997E0
2.389710781E1,1.170745969E0,-9.401015282E0,-2.533901691E0
2.391737807E1,1.171906233E0,-9.400720596E0,-2.534454584E0
2.393777807E1,1.171877980E0,-9.400574684E0,-2.535012007E0
2.395791864E1,1.173043013E0,-9.400579453E0,-2.534456730E0
2.397818895E1,1.174136281E0,-9.400650978E0,-2.533683777E0
2.399845921E1,1.174741387E0,-9.400688171E0,-2.533264399E0
2.401872947E1,1.173776269E0,-9.400958061E0,-2.532710552E0
2.403912947E1,1.171604395E0,-9.401143074E0,-2.533029318E0
2.405927005E1,1.170597911E0,-9.401214600E0,-2.533229351E0
2.407954031E1,1.169389606E0,-9.401731491E0,-2.531871557E0
2.409981062E1,1.168191671E0,-9.402081490E0,-2.531121254E0
2.412008088E1,1.167703152E0,-9.402097702E0,-2.531287909E0
2.414048088E1,1.167574048E0,-9.401906013E0,-2.532055378E0
2.416062140E1,1.167082787E0,-9.401606560E0,-2.533392906E0
2.418089171E1,1.167669773E0,-9.401013374E0,-2.535326958E0
2.420116197E1,1.169317722E0,-9.400310516E0,-2.537170172E0
2.422143223E1,1.171273470E0,-9.399552345E0,-2.539079189E0
2.424183223E1,1.172789812E0,-9.399057388E0,-2.540213108E0
2.426197275E1,1.173851371E0,-9.398547173E0,-2.541612148E0
2.428224302E1,1.173890710E0,-9.397981644E0,-2.543679714E0
2.430251333E1,1.175625086E0,-9.397018433E0,-2.546437025E0
2.432278359E1,1.179404140E0,-9.396203041E0,-2.547697067E0
2.434305385E1,1.183069944E0,-9.395423889E0,-2.548871994E0
2.436332411E1,1.185219526E0,-9.394970894E0,-2.549540520E0
2.438359437E1,1.186796188E0,-9.394629478E0,-2.550068140E0
2.440386463E1,1.188005686E0,-9.394490242E0,-2.550017118E0
2.442413489E1,1.188323617E0,-9.394389153E0,-2.550241947E0
2.444440515E1,1.189814210E0,-9.394334793E0,-2.549746275E0
2.446467541E1,1.190409064E0,-9.394657135E0,-2.548280478E0
2.448494567E1,1.190405130E0,-9.394454956E0,-2.549023628E0
2.450521593E1,1.191581130E0,-9.393885612E0,-2.550578356E0
2.452548619E1,1.192681074E0,-9.393245697E0,-2.552415133E0
2.454575645E1,1.193605423E0,-9.392965317E0,-2.553016424E0
2.456602671E1,1.195535421E0,-9.392586708E0,-2.553511143E0
2.458629697E1,1.196573257E0,-9.392077446E0,-2.554893970E0
2.460656723E1,1.198919296E0,-9.391081810E0,-2.557450294E0
2.462683749E1,1.200609803E0,-9.389952660E0,-2.560803890E0
2.464710775E1,1.202169776E0,-9.389373779E0,-2.562192202E0
2.466737802E1,1.203306556E0,-9.389064789E0,-2.562793255E0
2.468764828E1,1.203937173E0,-9.388663292E0,-2.563966990E0
2.470791848E1,1.203586698E0,-9.388234138E0,-2.565701008E0
2.472818874E1,1.204289198E0,-9.387891769E0,-2.566625357E0
2.474845900E1,1.204323530E0,-9.387540817E0,-2.567893505E0
2.476872926E1,1.205215693E0,-9.387192726E0,-2.568745375E0
2.478899952E1,1.204765797E0,-9.387309074E0,-2.568532467E0
2.480926973E1,1.203725100E0,-9.387195587E0,-2.569434166E0
2.482953999E1,1.202487111E0,-9.387133598E0,-2.570242643E0
2.484981025E1,1.201981187E0,-9.387032509E0,-2.570843935E0
2.487008052E1,1.202773094E0,-9.386599541E0,-2.572057724E0
2.489035072E1,1.202982903E0,-9.386433601E0,-2.572565317E0
2.491062098E1,1.202626348E0,-9.386433601E0,-2.572727919E0
2.493089124E1,1.201966166E0,-9.386538506E0,-2.572660923E0
2.495116150E1,1.201505423E0,-9.386417389E0,-2.573309183E0
2.497143171E1,1.201925516E0,-9.385974884E0,-2.574733734E0
2.499170197E1,1.202605486E0,-9.385684013E0,-2.575471640E0
2.501197223E1,1.204014540E0,-9.385486603E0,-2.575534582E0
2.503224249E1,1.203536868E0,-9.385469437E0,-2.575821877E0
2.505251270E1,1.202477694E0,-9.385483742E0,-2.576263189E0
2.507291270E1,1.202253222E0,-9.385596275E0,-2.575957298E0
2.509305317E1,1.202560544E0,-9.385649681E0,-2.575620890E0
2.513868864E1,1.202328086E0,-9.385225296E0,-2.577273607E0
2.515886432E1,1.202735305E0,-9.385062218E0,-2.577678919E0
2.517911676E1,1.202881455E0,-9.384874344E0,-2.578295469E0
2.519940499E1,1.203219295E0,-9.384665489E0,-2.578893900E0
2.521967473E1,1.203564882E0,-9.384598732E0,-2.578978777E0
2.523994494E1,1.204060555E0,-9.384425163E0,-2.579377174E0
2.526021510E1,1.204931378E0,-9.384262085E0,-2.579566479E0
2.528048536E1,1.205764532E0,-9.383922577E0,-2.580412388E0
2.530075557E1,1.206629276E0,-9.383415222E0,-2.581848860E0
2.532102583E1,1.207602620E0,-9.382992744E0,-2.582931280E0
2.534129604E1,1.207791686E0,-9.382457733E0,-2.584784985E0
2.536156630E1,1.209280968E0,-9.381712914E0,-2.586793423E0
2.538183650E1,1.210697174E0,-9.381238937E0,-2.587847233E0
2.540210677E1,1.211712837E0,-9.380907059E0,-2.588573933E0
2.542237697E1,1.212179780E0,-9.380473137E0,-2.589927435E0
2.544277697E1,1.211927772E0,-9.380133629E0,-2.591277122E0
2.546291744E1,1.210761905E0,-9.379998207E0,-2.592311621E0
2.548318770E1,1.210198522E0,-9.379437447E0,-2.594604015E0
2.550345791E1,1.209809303E0,-9.378527641E0,-2.598072290E0
2.552372812E1,1.209907055E0,-9.377785683E0,-2.600700140E0
2.554412812E1,1.210187554E0,-9.376686096E0,-2.604532242E0
2.556426859E1,1.210768580E0,-9.375164032E0,-2.609735966E0
2.558453885E1,1.212820411E0,-9.373671532E0,-2.614139795E0
2.560480906E1,1.214264631E0,-9.372361183E0,-2.618170023E0
2.562507926E1,1.215095282E0,-9.370723724E0,-2.623638153E0
2.564547927E1,1.218366027E0,-9.368739128E0,-2.629200697E0
2.566561973E1,1.224307895E0,-9.366693497E0,-2.633726835E0
2.568588994E1,1.230972290E0,-9.364923477E0,-2.636907578E0
2.570616020E1,1.236370921E0,-9.363491058E0,-2.639470816E0
2.572643041E1,1.241285086E0,-9.361907959E0,-2.642780781E0
2.574670062E1,1.245168447E0,-9.359767914E0,-2.648525238E0
2.576697088E1,1.248729944E0,-9.357655525E0,-2.654305220E0
2.578724109E1,1.252502084E0,-9.355636597E0,-2.659641981E0
2.580751130E1,1.256563067E0,-9.353842735E0,-2.664030075E0
2.582778150E1,1.260642767E0,-9.352241516E0,-2.667720318E0
2.584805171E1,1.264474750E0,-9.350474358E0,-2.672104597E0
2.586832197E1,1.268614888E0,-9.348330498E0,-2.677630901E0
2.588859218E1,1.272712469E0,-9.346709251E0,-2.681347132E0
2.590886239E1,1.277360678E0,-9.345422745E0,-2.683619738E0
2.592913260E1,1.282105088E0,-9.344062805E0,-2.686088324E0
2.594940281E1,1.285278678E0,-9.343117714E0,-2.687860012E0
2.596967302E1,1.288663387E0,-9.341900826E0,-2.690470695E0
2.598994328E1,1.291407347E0,-9.340826035E0,-2.692887545E0
2.601021348E1,1.292863607E0,-9.340309143E0,-2.693979979E0
2.603048369E1,1.293561220E0,-9.339838982E0,-2.695274115E0
2.605075390E1,1.294183969E0,-9.339426994E0,-2.696399212E0
2.607102411E1,1.294994950E0,-9.338905334E0,-2.697817326E0
2.609129432E1,1.295320511E0,-9.338282585E0,-2.699818134E0
2.611156453E1,1.294248939E0,-9.337982178E0,-2.701369762E0
2.613183473E1,1.293507934E0,-9.337884903E0,-2.702058077E0
2.615210494E1,1.293529868E0,-9.337668419E0,-2.702797174E0
2.617237515E1,1.292597055E0,-9.337728500E0,-2.703034163E0
2.619264536E1,1.291769505E0,-9.337612152E0,-2.703833580E0
2.621291557E1,1.291909575E0,-9.337507248E0,-2.704127312E0
2.623318578E1,1.291671991E0,-9.337878227E0,-2.702961922E0
2.625345598E1,1.290588617E0,-9.338317871E0,-2.701958656E0
2.627372619E1,1.288308144E0,-9.338866234E0,-2.701150417E0
2.629399640E1,1.287463188E0,-9.339215279E0,-2.700350761E0
2.631426661E1,1.286498308E0,-9.339717865E0,-2.699068785E0
2.633453682E1,1.286601305E0,-9.340156555E0,-2.697500944E0
2.635480703E1,1.285091281E0,-9.340776443E0,-2.696073771E0
2.637507723E1,1.281281114E0,-9.341966629E0,-2.693766117E0
2.639534744E1,1.277820706E0,-9.343194008E0,-2.691149473E0
2.641561765E1,1.274786592E0,-9.344453812E0,-2.688212156E0
2.643588786E1,1.272142529E0,-9.345940590E0,-2.684293270E0
2.645615802E1,1.269152403E0,-9.348068237E0,-2.678296328E0
2.647642822E1,1.266365170E0,-9.350301743E0,-2.671811104E0
2.649669843E1,1.263636470E0,-9.351828575E0,-2.667752028E0
2.651709843E1,1.260960102E0,-9.352669716E0,-2.666070461E0
2.653723885E1,1.259834886E0,-9.353114128E0,-2.665046692E0
2.655750906E1,1.258188009E0,-9.353562355E0,-2.664248943E0
2.657777921E1,1.256403565E0,-9.354300499E0,-2.662497759E0
2.659804942E1,1.254053950E0,-9.354830742E0,-2.661744833E0
2.661831963E1,1.251579404E0,-9.355336189E0,-2.661132336E0
2.663858984E1,1.248798609E0,-9.355810165E0,-2.660773277E0
2.665885999E1,1.246217370E0,-9.356373787E0,-2.660002947E0
2.667913020E1,1.243695974E0,-9.356963158E0,-2.659109354E0
2.669940041E1,1.241691828E0,-9.357737541E0,-2.657319307E0
2.671967057E1,1.240038633E0,-9.358510971E0,-2.655363560E0
2.673994078E1,1.237457395E0,-9.359073639E0,-2.654584169E0
2.676021098E1,1.234753728E0,-9.359857559E0,-2.653083801E0
2.678048119E1,1.233317018E0,-9.360461235E0,-2.651619196E0
2.680075130E1,1.231052756E0,-9.361197472E0,-2.650073528E0
2.682102156E1,1.228100419E0,-9.362370491E0,-2.647295713E0
2.684129176E1,1.225213528E0,-9.363922119E0,-2.643142223E0
2.686156192E1,1.221971273E0,-9.365723610E0,-2.638257504E0
2.688183213E1,1.217140794E0,-9.367861748E0,-2.632896185E0
2.690210234E1,1.212050319E0,-9.369736671E0,-2.628565311E0
2.692237244E1,1.207387805E0,-9.371084213E0,-2.625905752E0
2.694277244E1,1.202900529E0,-9.372289658E0,-2.623661995E0
2.696291291E1,1.200479031E0,-9.373172760E0,-2.621617079E0
2.698318312E1,1.200332284E0,-9.373887062E0,-2.619127035E0
2.700345328E1,1.199662209E0,-9.374520302E0,-2.617170095E0
2.702372348E1,1.198435426E0,-9.374620438E0,-2.617369175E0
2.704412348E1,1.197005272E0,-9.374524117E0,-2.618373632E0
2.706426385E1,1.196250200E0,-9.374217987E0,-2.619808435E0
2.708453406E1,1.196936846E0,-9.373575211E0,-2.621795416E0
2.710480421E1,1.197526932E0,-9.373133659E0,-2.623106003E0
2.712507437E1,1.198119640E0,-9.372601509E0,-2.624736309E0
2.714547437E1,1.198678017E0,-9.371951103E0,-2.626801491E0
2.716561479E1,1.199419618E0,-9.371008873E0,-2.629824162E0
2.718588499E1,1.201367617E0,-9.369796753E0,-2.633248806E0
2.720615515E1,1.203514814E0,-9.368763924E0,-2.635947466E0
2.722642536E1,1.206392765E0,-9.367903709E0,-2.637686491E0
2.724682536E1,1.209292293E0,-9.366945267E0,-2.639759779E0
2.726696567E1,1.211960435E0,-9.365932465E0,-2.642130136E0
2.728723588E1,1.215115666E0,-9.364981651E0,-2.644049644E0
2.730750604E1,1.218421340E0,-9.364023209E0,-2.645920992E0
2.732777624E1,1.221536875E0,-9.363156319E0,-2.647555113E0
2.734804640E1,1.223804116E0,-9.362250328E0,-2.649708509E0
2.736831661E1,1.225676775E0,-9.361582756E0,-2.651201010E0
2.738858677E1,1.227740526E0,-9.361286163E0,-2.651293993E0
2.740885692E1,1.229840040E0,-9.360892296E0,-2.651710510E0
2.742912713E1,1.230939746E0,-9.360703468E0,-2.651866436E0
2.744939729E1,1.231375337E0,-9.360559464E0,-2.652173519E0
2.746966749E1,1.231486559E0,-9.360475540E0,-2.652417421E0
2.748993765E1,1.230483413E0,-9.360768318E0,-2.651854753E0
2.751020781E1,1.230182528E0,-9.360985756E0,-2.651223183E0
2.753047802E1,1.229972243E0,-9.361032486E0,-2.651156425E0
2.755074817E1,1.229510546E0,-9.360672951E0,-2.652637720E0
2.757101833E1,1.229571581E0,-9.360369682E0,-2.653676987E0
2.759128843E1,1.230015278E0,-9.360344887E0,-2.653559446E0
2.761155869E1,1.229435325E0,-9.360400200E0,-2.653635502E0
2.763182885E1,1.227597117E0,-9.360455513E0,-2.654294014E0
2.765209900E1,1.226700187E0,-9.360276222E0,-2.655339241E0
2.767236916E1,1.226611495E0,-9.359971046E0,-2.656453609E0
2.769263937E1,1.227502823E0,-9.359606743E0,-2.657327175E0
2.771290952E1,1.228062749E0,-9.359634399E0,-2.656970024E0
2.773317968E1,1.227719426E0,-9.359898567E0,-2.656199455E0
2.775344989E1,1.226023555E0,-9.360483170E0,-2.654921293E0
2.777372005E1,1.223910332E0,-9.361256599E0,-2.653166771E0
2.779399020E1,1.222293019E0,-9.361800194E0,-2.651999235E0
2.781426036E1,1.221681356E0,-9.362193108E0,-2.650889397E0
2.783453052E1,1.222109318E0,-9.362438202E0,-2.649829149E0
2.785480067E1,1.220976830E0,-9.362866402E0,-2.648836851E0
2.787507088E1,1.219313502E0,-9.363185883E0,-2.648472548E0
2.789534104E1,1.218432784E0,-9.363429070E0,-2.648017168E0
2.791561119E1,1.219019055E0,-9.363609314E0,-2.647111416E0
2.793588135E1,1.220423102E0,-9.363601685E0,-2.646493435E0
2.795615150E1,1.221413970E0,-9.363676071E0,-2.645768404E0
2.797642166E1,1.221483946E0,-9.363709450E0,-2.645620584E0
2.799669187E1,1.221651554E0,-9.363538742E0,-2.646152020E0
2.801696202E1,1.221896648E0,-9.363320351E0,-2.646804810E0
2.803723218E1,1.223208666E0,-9.363070488E0,-2.647083521E0
2.805750234E1,1.225097299E0,-9.362949371E0,-2.646637201E0
2.807777249E1,1.226342320E0,-9.362996101E0,-2.645898581E0
2.809804265E1,1.226930737E0,-9.363142967E0,-2.645105600E0
2.811831286E1,1.226858616E0,-9.363083839E0,-2.645351887E0
2.813858302E1,1.227261901E0,-9.362952232E0,-2.645629168E0
2.815885317E1,1.228733659E0,-9.362719536E0,-2.645768881E0
2.817912333E1,1.230213761E0,-9.362650871E0,-2.645322561E0
2.819939348E1,1.231301785E0,-9.362801552E0,-2.644283533E0
2.821966364E1,1.231483102E0,-9.362990379E0,-2.643531084E0
2.823993385E1,1.231274247E0,-9.363279343E0,-2.642602682E0
2.826020400E1,1.231356263E0,-9.363422394E0,-2.642056465E0
2.828047416E1,1.232215762E0,-9.363440514E0,-2.641593456E0
2.830074432E1,1.232655764E0,-9.363621712E0,-2.640742779E0
2.832101453E1,1.232157230E0,-9.364098549E0,-2.639282942E0
2.834128468E1,1.230974674E0,-9.364513397E0,-2.638365269E0
2.836155484E1,1.229534149E0,-9.365090370E0,-2.636990070E0
2.838182499E1,1.229199171E0,-9.365717888E0,-2.634914637E0
2.840209520E1,1.228288531E0,-9.365999222E0,-2.634340048E0
2.842236536E1,1.226870775E0,-9.365915298E0,-2.635298967E0
2.844276536E1,1.225879073E0,-9.365962029E0,-2.635595083E0
2.846290567E1,1.225385189E0,-9.366150856E0,-2.635153294E0
2.848317583E1,1.225501776E0,-9.366539955E0,-2.633714914E0
2.850344604E1,1.224926114E0,-9.366950989E0,-2.632522106E0
2.852371619E1,1.223798752E0,-9.367539406E0,-2.630952358E0
2.854411619E1,1.222366691E0,-9.368085861E0,-2.629671335E0
2.856425650E1,1.220594764E0,-9.368615150E0,-2.628606796E0
2.858452666E1,1.219328165E0,-9.369005203E0,-2.627805948E0
2.860479687E1,1.217455149E0,-9.369144440E0,-2.628180981E0
2.862506703E1,1.216427684E0,-9.369154930E0,-2.628616810E0
2.864546703E1,1.215674281E0,-9.369082451E0,-2.629220486E0
2.866560734E1,1.215286613E0,-9.369057655E0,-2.629493713E0
2.868587755E1,1.215394616E0,-9.368770599E0,-2.630462170E0
2.870614770E1,1.216014266E0,-9.368208885E0,-2.632177353E0
2.872641786E1,1.216564298E0,-9.367453575E0,-2.634610415E0
2.874668802E1,1.216902494E0,-9.367097855E0,-2.635718346E0
2.876695817E1,1.217124343E0,-9.367048264E0,-2.635795116E0
2.878722838E1,1.217740655E0,-9.367094994E0,-2.635339499E0
2.880749854E1,1.217790723E0,-9.367321014E0,-2.634516239E0
2.882776869E1,1.217718601E0,-9.367285728E0,-2.634673595E0
2.884803885E1,1.217394829E0,-9.367125511E0,-2.635392189E0
2.886830900E1,1.216822743E0,-9.367210388E0,-2.635353327E0
2.888857921E1,1.217222452E0,-9.367175102E0,-2.635298014E0
2.890884937E1,1.216488600E0,-9.367362022E0,-2.634968758E0
2.892911952E1,1.215723872E0,-9.367519379E0,-2.634763479E0
2.894938973E1,1.215600491E0,-9.367630959E0,-2.634424448E0
2.896965989E1,1.215069652E0,-9.367664337E0,-2.634549379E0
2.898993005E1,1.214647889E0,-9.367506981E0,-2.635304689E0
2.901020020E1,1.214567661E0,-9.367475510E0,-2.635454416E0
2.903047041E1,1.214305639E0,-9.367411613E0,-2.635803461E0
2.905074057E1,1.214599848E0,-9.367302895E0,-2.636053801E0
2.907101072E1,1.214967728E0,-9.367170334E0,-2.636353970E0
2.909128088E1,1.215385199E0,-9.367094994E0,-2.636429310E0
2.911155109E1,1.215462446E0,-9.366976738E0,-2.636810541E0
2.913182124E1,1.215753555E0,-9.366601944E0,-2.638008595E0
2.915209140E1,1.216176629E0,-9.366680145E0,-2.637537003E0
2.917236161E1,1.216234088E0,-9.366959572E0,-2.636519194E0
2.919263176E1,1.216356158E0,-9.367034912E0,-2.636196613E0
2.921290192E1,1.216360688E0,-9.366741180E0,-2.637236118E0
2.923317208E1,1.217149377E0,-9.366514206E0,-2.637678862E0
2.925344229E1,1.218478560E0,-9.366375923E0,-2.637553930E0
2.927371244E1,1.218975902E0,-9.366281509E0,-2.637662649E0
2.929398260E1,1.219259262E0,-9.366075516E0,-2.638261318E0
2.931425275E1,1.219480872E0,-9.366018295E0,-2.638358831E0
2.933452296E1,1.219464779E0,-9.365969658E0,-2.638543367E0
2.935479312E1,1.219485760E0,-9.365700722E0,-2.639486313E0
2.937506333E1,1.220503926E0,-9.365050316E0,-2.641320705E0
2.939533348E1,1.222280622E0,-9.364486694E0,-2.642497778E0
2.941560364E1,1.222811460E0,-9.364074707E0,-2.643715858E0
2.943587385E1,1.221807718E0,-9.363818169E0,-2.645083904E0
2.945614400E1,1.222188950E0,-9.363217354E0,-2.647035360E0
2.947641416E1,1.223654866E0,-9.362359047E0,-2.649395466E0
2.949668437E1,1.225903511E0,-9.361288071E0,-2.652138472E0
2.951695453E1,1.228481174E0,-9.360168457E0,-2.654897690E0
2.953722468E1,1.231176138E0,-9.359397888E0,-2.656364202E0
2.955749489E1,1.233787775E0,-9.358937263E0,-2.656775236E0
2.957776505E1,1.233950853E0,-9.358452797E0,-2.658403158E0
2.959803520E1,1.234669685E0,-9.357937813E0,-2.659885645E0
2.961830541E1,1.235679626E0,-9.357654572E0,-2.660412788E0
2.963857557E1,1.236973286E0,-9.357588768E0,-2.660039663E0
2.965884572E1,1.236575365E0,-9.357796669E0,-2.659497976E0
2.967911593E1,1.236395955E0,-9.358248711E0,-2.657986403E0
2.969938609E1,1.236254454E0,-9.358579636E0,-2.656890631E0
2.971965630E1,1.236450195E0,-9.358922005E0,-2.655589581E0
2.973992645E1,1.236744881E0,-9.358913422E0,-2.655483007E0
2.976019666E1,1.236567974E0,-9.358738899E0,-2.656179428E0
2.978046682E1,1.237486362E0,-9.358328819E0,-2.657194853E0
2.980073697E1,1.237935901E0,-9.358074188E0,-2.657882690E0
2.982100713E1,1.237383008E0,-9.358124733E0,-2.657963753E0
2.984127734E1,1.236190200E0,-9.358201981E0,-2.658245325E0
2.986154755E1,1.235288262E0,-9.357968330E0,-2.659487486E0
2.988181770E1,1.235300779E0,-9.357500076E0,-2.661131859E0
2.990208786E1,1.235799432E0,-9.357333183E0,-2.661484480E0
2.992235807E1,1.235379934E0,-9.357521057E0,-2.661020041E0
2.994275807E1,1.235196829E0,-9.357257843E0,-2.662030220E0
2.996289843E1,1.235414743E0,-9.356813431E0,-2.663487673E0
2.998316859E1,1.235012889E0,-9.356663704E0,-2.664203882E0
3.000343880E1,1.236296177E0,-9.356060028E0,-2.665723324E0
3.002370900E1,1.238170028E0,-9.355486870E0,-2.666868925E0
3.004410900E1,1.239302039E0,-9.355496407E0,-2.666310310E0
3.006424932E1,1.239599824E0,-9.355682373E0,-2.665515661E0
3.008451952E1,1.239367962E0,-9.356039047E0,-2.664373159E0
3.010478968E1,1.238857746E0,-9.356505394E0,-2.662972927E0
3.012505989E1,1.238253117E0,-9.356644630E0,-2.662763834E0
3.014545989E1,1.237940073E0,-9.356714249E0,-2.662666559E0
3.016560025E1,1.237243891E0,-9.356743813E0,-2.662887812E0
3.018587041E1,1.236732364E0,-9.356529236E0,-2.663878441E0
3.020614062E1,1.236365914E0,-9.356191635E0,-2.665232897E0
3.022641083E1,1.236338258E0,-9.355883598E0,-2.666329861E0
3.024681083E1,1.236092806E0,-9.355965614E0,-2.666154385E0
3.026695119E1,1.235218763E0,-9.355804443E0,-2.667121649E0
3.028722135E1,1.234508276E0,-9.355956078E0,-2.666916132E0
3.030749156E1,1.234137893E0,-9.356191635E0,-2.666264772E0
3.032776176E1,1.233403206E0,-9.356180191E0,-2.666643381E0
3.034803192E1,1.232255936E0,-9.356467247E0,-2.666170359E0
3.036830213E1,1.231511474E0,-9.356539726E0,-2.666257143E0
3.038857229E1,1.230634451E0,-9.356611252E0,-2.666412354E0
3.040884249E1,1.229441285E0,-9.356798172E0,-2.666304588E0
3.042911260E1,1.228766441E0,-9.356678009E0,-2.667039633E0
3.044938286E1,1.228288412E0,-9.356735229E0,-2.667060137E0
3.046965302E1,1.226642251E0,-9.356985092E0,-2.666941404E0
3.048992322E1,1.225219846E0,-9.357118607E0,-2.667125225E0
3.051019343E1,1.224269390E0,-9.357265472E0,-2.667045832E0
3.053046359E1,1.223592401E0,-9.357037544E0,-2.668156862E0
3.055073380E1,1.223376513E0,-9.356623650E0,-2.669701815E0
3.057100395E1,1.223927736E0,-9.356262207E0,-2.670723200E0
3.059127416E1,1.224645376E0,-9.356288910E0,-2.670294523E0
3.061154437E1,1.224566460E0,-9.356704712E0,-2.668877363E0
3.063181453E1,1.224517584E0,-9.356628418E0,-2.669163465E0
3.065208473E1,1.226013184E0,-9.356219292E0,-2.669916868E0
3.067235489E1,1.227450371E0,-9.355743408E0,-2.670923710E0
3.069262510E1,1.227307558E0,-9.355675697E0,-2.671223164E0
3.071289525E1,1.228576422E0,-9.355636597E0,-2.670778513E0
3.073316546E1,1.229928017E0,-9.355319023E0,-2.671266556E0
3.075343567E1,1.231314301E0,-9.354858398E0,-2.672242403E0
3.077370583E1,1.233231068E0,-9.354306221E0,-2.673290014E0
3.079397604E1,1.234031439E0,-9.354290962E0,-2.672975540E0
3.081424624E1,1.234058022E0,-9.354577065E0,-2.671958685E0
3.083451640E1,1.233332753E0,-9.354959488E0,-2.670957327E0
3.085478661E1,1.232246041E0,-9.355112076E0,-2.670923233E0
3.087505677E1,1.231779456E0,-9.355143547E0,-2.671032190E0
3.089532697E1,1.232123733E0,-9.355086327E0,-2.671072006E0
3.091559713E1,1.232664585E0,-9.354629517E0,-2.672422171E0
3.093586734E1,1.232765794E0,-9.354050636E0,-2.674397945E0
3.095613755E1,1.232560992E0,-9.353582382E0,-2.676128626E0
3.097640775E1,1.232174397E0,-9.353207588E0,-2.677617311E0
3.099667791E1,1.232019424E0,-9.352760315E0,-2.679253101E0
3.101694812E1,1.232688427E0,-9.352441788E0,-2.680057287E0
3.103721828E1,1.232898712E0,-9.352195740E0,-2.680815697E0
3.105748848E1,1.232795000E0,-9.351985931E0,-2.681600332E0
3.107775869E1,1.232584834E0,-9.351908684E0,-2.681962490E0
3.109802885E1,1.233089328E0,-9.351633072E0,-2.682694674E0
3.111829906E1,1.233133435E0,-9.351297379E0,-2.683840752E0
3.113856921E1,1.233534694E0,-9.350872993E0,-2.685133934E0
3.115883942E1,1.234686971E0,-9.350448608E0,-2.686082602E0
3.117910963E1,1.235536456E0,-9.350252151E0,-2.686376333E0
3.119937978E1,1.235630035E0,-9.350180626E0,-2.686582088E0
3.121964999E1,1.236015201E0,-9.350026131E0,-2.686942816E0
3.123992015E1,1.237089753E0,-9.349742889E0,-2.687435627E0
3.126019036E1,1.237753510E0,-9.349472046E0,-2.688069105E0
3.128046052E1,1.237473130E0,-9.349155426E0,-2.689300299E0
3.130073067E1,1.237719059E0,-9.348682404E0,-2.690834761E0
3.132100088E1,1.237692833E0,-9.348649025E0,-2.690959454E0
3.134127109E1,1.238267899E0,-9.348690987E0,-2.690551758E0
3.136154130E1,1.238457203E0,-9.348703384E0,-2.690416813E0
3.138181145E1,1.238574505E0,-9.348588943E0,-2.690764189E0
3.140208166E1,1.238914728E0,-9.348444939E0,-2.691107988E0
3.142235182E1,1.239306688E0,-9.348461151E0,-2.690869570E0
3.144275182E1,1.238982797E0,-9.348488808E0,-2.690923214E0
3.146289218E1,1.238648534E0,-9.348565102E0,-2.690813303E0
3.148316234E1,1.239366770E0,-9.348342896E0,-2.691253662E0
3.150343255E1,1.240703702E0,-9.348146439E0,-2.691318750E0
3.152370270E1,1.241401196E0,-9.348339081E0,-2.690330267E0
3.154410270E1,1.242008924E0,-9.348311424E0,-2.690141201E0
3.156424307E1,1.242185831E0,-9.348224640E0,-2.690364838E0
3.158451328E1,1.241964698E0,-9.348331451E0,-2.690094233E0
3.160478343E1,1.240868092E0,-9.348909378E0,-2.688596249E0
3.162505359E1,1.239328742E0,-9.349585533E0,-2.686950684E0
3.164545359E1,1.238718987E0,-9.349955559E0,-2.685944557E0
3.166559395E1,1.238688827E0,-9.350210190E0,-2.685071468E0
3.168586416E1,1.237940431E0,-9.350377083E0,-2.684833765E0
3.170613432E1,1.237144113E0,-9.350336075E0,-2.685343504E0
3.172640447E1,1.236756563E0,-9.350468636E0,-2.685064793E0
3.174667468E1,1.237282753E0,-9.350454330E0,-2.684867382E0
3.176707468E1,1.238434672E0,-9.350191116E0,-2.685256243E0
3.178721505E1,1.239753604E0,-9.349723816E0,-2.686268330E0
3.180748520E1,1.240560889E0,-9.349354744E0,-2.687185526E0
3.182775536E1,1.240877628E0,-9.348981857E0,-2.688339472E0
3.184802557E1,1.240747690E0,-9.348988533E0,-2.688372850E0
3.186829572E1,1.241141677E0,-9.349157333E0,-2.687604427E0
3.188856588E1,1.241286755E0,-9.349351883E0,-2.686855793E0
3.190883609E1,1.241781235E0,-9.349414825E0,-2.686414480E0
3.192910624E1,1.242074251E0,-9.349506378E0,-2.685960293E0
3.194937640E1,1.242478967E0,-9.349691391E0,-2.685128450E0
3.196964661E1,1.243051648E0,-9.349608421E0,-2.685149908E0
3.198991676E1,1.242275000E0,-9.349858284E0,-2.684639692E0
3.201018692E1,1.241313457E0,-9.350169182E0,-2.684001446E0
3.203045708E1,1.241132498E0,-9.350632668E0,-2.682470322E0
3.205072723E1,1.240513802E0,-9.350825310E0,-2.682084799E0
3.207099744E1,1.240629673E0,-9.350865364E0,-2.681887388E0
3.209126760E1,1.241421103E0,-9.350777626E0,-2.681831360E0
3.211153781E1,1.241796374E0,-9.350466728E0,-2.682742596E0
3.213180796E1,1.241973042E0,-9.350127220E0,-2.683840752E0
3.215207812E1,1.243006706E0,-9.349618912E0,-2.685133696E0
3.217234833E1,1.245118141E0,-9.349038124E0,-2.686178684E0
3.219261848E1,1.245782495E0,-9.348766327E0,-2.686816216E0
3.221288864E1,1.246281028E0,-9.348676682E0,-2.686896801E0
3.223315880E1,1.247105837E0,-9.348108292E0,-2.688492060E0
3.225342895E1,1.247247934E0,-9.347479820E0,-2.690607548E0
3.227369916E1,1.248839498E0,-9.346900940E0,-2.691883326E0
3.229396932E1,1.250787497E0,-9.346708298E0,-2.691648006E0
3.231423947E1,1.251451254E0,-9.346829414E0,-2.690914631E0
3.233450963E1,1.251319885E0,-9.346838951E0,-2.690948486E0
3.235477979E1,1.249537706E0,-9.347074509E0,-2.690953970E0
3.237504999E1,1.248098254E0,-9.347097397E0,-2.691543818E0
3.239532015E1,1.247049451E0,-9.347480774E0,-2.690697908E0
3.241559031E1,1.245467067E0,-9.348292351E0,-2.688608170E0
3.243586046E1,1.243376136E0,-9.349066734E0,-2.686888456E0
3.245613062E1,1.241192222E0,-9.349528313E0,-2.686288834E0
3.247640078E1,1.238923192E0,-9.349807739E0,-2.686362743E0
3.249667098E1,1.237465620E0,-9.349996567E0,-2.686375618E0
3.251694114E1,1.237221003E0,-9.349867821E0,-2.686942816E0
3.253721130E1,1.236945033E0,-9.349754333E0,-2.687462330E0
3.255748145E1,1.236623526E0,-9.349768639E0,-2.687560558E0
3.257775161E1,1.237127542E0,-9.349811554E0,-2.687175989E0
3.259802176E1,1.236256599E0,-9.350019455E0,-2.686857462E0
3.261829192E1,1.234774947E0,-9.350218773E0,-2.686842918E0
3.263856213E1,1.234434366E0,-9.350372314E0,-2.686464310E0
3.265883228E1,1.234392285E0,-9.350484848E0,-2.686090946E0
3.267910244E1,1.233852744E0,-9.350659370E0,-2.685731649E0
3.269937260E1,1.232862949E0,-9.350988388E0,-2.685042858E0
3.271964275E1,1.231150270E0,-9.351278305E0,-2.684819460E0
3.273991291E1,1.230362177E0,-9.351264954E0,-2.685227871E0
3.276018302E1,1.230395675E0,-9.351107597E0,-2.685759068E0
3.278045322E1,1.231212735E0,-9.351081848E0,-2.685473442E0
3.280072333E1,1.230947733E0,-9.350977898E0,-2.685955763E0
3.282112333E1,1.231105566E0,-9.350639343E0,-2.687060833E0
3.284126364E1,1.232479811E0,-9.350341797E0,-2.687468052E0
3.286153380E1,1.232646227E0,-9.350154877E0,-2.688040018E0
3.288180395E1,1.233153582E0,-9.349835396E0,-2.688922644E0
3.290207411E1,1.234133124E0,-9.349909782E0,-2.688215494E0
3.292234426E1,1.233950734E0,-9.350152969E0,-2.687449217E0
3.294274426E1,1.233376384E0,-9.350370407E0,-2.686959028E0
3.296288458E1,1.232877493E0,-9.350491524E0,-2.686765432E0
3.298315473E1,1.231982589E0,-9.350172043E0,-2.688284874E0
3.300342484E1,1.232316017E0,-9.349894524E0,-2.689101458E0
3.302369499E1,1.232871413E0,-9.350035667E0,-2.688353300E0
3.304409499E1,1.233792424E0,-9.350193977E0,-2.687377453E0
3.306423531E1,1.233747005E0,-9.350285530E0,-2.687081099E0
3.308450541E1,1.233263373E0,-9.350526810E0,-2.686465502E0
3.310477557E1,1.233625770E0,-9.350888252E0,-2.685041904E0
3.312504572E1,1.234039783E0,-9.351200104E0,-2.683766127E0
3.314544572E1,1.234318733E0,-9.351531982E0,-2.682478428E0
3.316558604E1,1.234124422E0,-9.351715088E0,-2.681930542E0
3.318585614E1,1.234494567E0,-9.351927757E0,-2.681020737E0
3.320612630E1,1.235018134E0,-9.352295876E0,-2.679496050E0
3.322639645E1,1.235225439E0,-9.352583885E0,-2.678389311E0
3.324679645E1,1.235920668E0,-9.352612495E0,-2.677969694E0
3.326693671E1,1.236850262E0,-9.352324486E0,-2.678546667E0
3.328720682E1,1.237829447E0,-9.351922035E0,-2.679497957E0
3.330747697E1,1.239681363E0,-9.351696014E0,-2.679431915E0
3.332774713E1,1.240711451E0,-9.351740837E0,-2.678799391E0
3.334801723E1,1.240964532E0,-9.352243423E0,-2.676924944E0
3.336828739E1,1.243076563E0,-9.352502823E0,-2.675038099E0
3.338855755E1,1.243933916E0,-9.352895737E0,-2.673266888E0
3.340882765E1,1.243748069E0,-9.353839874E0,-2.670049667E0
3.342909781E1,1.243225932E0,-9.354475021E0,-2.668067694E0
3.344936791E1,1.243013024E0,-9.354839325E0,-2.666886330E0
3.346963807E1,1.242118239E0,-9.355237007E0,-2.665912390E0
3.348990812E1,1.241223693E0,-9.355881691E0,-2.664063454E0
3.351017828E1,1.240200877E0,-9.356457710E0,-2.662514448E0
3.353044843E1,1.240041852E0,-9.356947899E0,-2.660862923E0
3.355071854E1,1.239658117E0,-9.357591629E0,-2.658779144E0
3.357098869E1,1.238237381E0,-9.358028412E0,-2.657904863E0
3.359125880E1,1.237399220E0,-9.357878685E0,-2.658819914E0
3.361152895E1,1.237458706E0,-9.357428551E0,-2.660377741E0
3.363179906E1,1.238142371E0,-9.357472420E0,-2.659908056E0
3.365206916E1,1.238412619E0,-9.357780457E0,-2.658692598E0
3.367233932E1,1.237523198E0,-9.358269691E0,-2.657387495E0
3.369260942E1,1.236412883E0,-9.358295441E0,-2.657813072E0
3.371287953E1,1.236234426E0,-9.358278275E0,-2.657962322E0
3.373314968E1,1.237016439E0,-9.358328819E0,-2.657416344E0
3.375341979E1,1.237005472E0,-9.358347893E0,-2.657350302E0
3.377368989E1,1.236234665E0,-9.358987808E0,-2.655455589E0
3.379396005E1,1.234425187E0,-9.359965324E0,-2.652853489E0
3.381423015E1,1.232831240E0,-9.360948563E0,-2.650125980E0
3.383450025E1,1.231131434E0,-9.361944199E0,-2.647393942E0
3.385477036E1,1.230937719E0,-9.362521172E0,-2.645444393E0
3.387504052E1,1.230648398E0,-9.362883568E0,-2.644298077E0
3.389531062E1,1.229609013E0,-9.363142967E0,-2.643860102E0
3.391558072E1,1.228139281E0,-9.363492012E0,-2.643305540E0
3.393585083E1,1.227505326E0,-9.364063263E0,-2.641578913E0
3.395612098E1,1.227409244E0,-9.364499092E0,-2.640078545E0
3.397639109E1,1.227639198E0,-9.364890099E0,-2.638584375E0
3.399666119E1,1.227510571E0,-9.365504265E0,-2.636462450E0
3.401693130E1,1.227317095E0,-9.365653038E0,-2.636025429E0
3.403720140E1,1.225943923E0,-9.365919113E0,-2.635715485E0
3.405747150E1,1.225035787E0,-9.366250038E0,-2.634966135E0
3.407774161E1,1.224330306E0,-9.366555214E0,-2.634205341E0
3.409801171E1,1.224078536E0,-9.366868973E0,-2.633208752E0
3.411828182E1,1.223605514E0,-9.367231369E0,-2.632140160E0
3.413855192E1,1.223253369E0,-9.367588997E0,-2.631027460E0
3.415882202E1,1.221570373E0,-9.368062019E0,-2.630126476E0
3.417909213E1,1.220976830E0,-9.368175507E0,-2.630000830E0
3.419936223E1,1.220480323E0,-9.368165970E0,-2.630261421E0
3.421963234E1,1.220216990E0,-9.368350029E0,-2.629728079E0
3.423990239E1,1.219557166E0,-9.368648529E0,-2.628971338E0
3.426017255E1,1.218719959E0,-9.368994713E0,-2.628127575E0
3.428044265E1,1.216920733E0,-9.369095802E0,-2.628600359E0
3.430071275E1,1.215281010E0,-9.369050980E0,-2.629518270E0
3.432098286E1,1.215238452E0,-9.369033813E0,-2.629599810E0
3.434125296E1,1.215531468E0,-9.369255066E0,-2.628674030E0
3.436152302E1,1.215243459E0,-9.369553566E0,-2.627741575E0
3.438179312E1,1.214008451E0,-9.370213509E0,-2.625964642E0
3.440206322E1,1.212760806E0,-9.370896339E0,-2.624101162E0
3.442233333E1,1.211586952E0,-9.371730804E0,-2.621661663E0
3.444273333E1,1.211501598E0,-9.372403145E0,-2.619295359E0
3.446287348E1,1.211374402E0,-9.372636795E0,-2.618517160E0
3.448314359E1,1.210802794E0,-9.372921944E0,-2.617761850E0
3.450341369E1,1.210826278E0,-9.373089790E0,-2.617147684E0
3.452368380E1,1.210289717E0,-9.373169899E0,-2.617109537E0
3.454408380E1,1.211025000E0,-9.372550011E0,-2.618990183E0
3.456422395E1,1.212174535E0,-9.372045517E0,-2.620262146E0
3.458449406E1,1.213446736E0,-9.371682167E0,-2.620973349E0
3.460476416E1,1.214393258E0,-9.371191978E0,-2.622289419E0
3.462503421E1,1.215537310E0,-9.370556831E0,-2.624026060E0
3.464543421E1,1.216550946E0,-9.369774818E0,-2.626348019E0
3.466557437E1,1.218682885E0,-9.368734360E0,-2.629072666E0
3.468584447E1,1.220610738E0,-9.368108749E0,-2.630407810E0
3.470611458E1,1.222000957E0,-9.368056297E0,-2.629945040E0
3.472638463E1,1.223162889E0,-9.367869377E0,-2.630071163E0
3.474665473E1,1.223337770E0,-9.367683411E0,-2.630655527E0
3.476692478E1,1.223465800E0,-9.367309570E0,-2.631924868E0
3.478719489E1,1.223327160E0,-9.366990089E0,-2.633125305E0
3.480746494E1,1.222606897E0,-9.367273331E0,-2.632453442E0
3.482773499E1,1.222255588E0,-9.367409706E0,-2.632133484E0
3.484800510E1,1.221629858E0,-9.367393494E0,-2.632478476E0
3.486827515E1,1.220249653E0,-9.367828369E0,-2.631573915E0
3.488854525E1,1.219530225E0,-9.367590904E0,-2.632750034E0
3.490881531E1,1.219747186E0,-9.367444992E0,-2.633165121E0
3.492908541E1,1.220283270E0,-9.367405891E0,-2.633057594E0
3.494935546E1,1.222057700E0,-9.367226601E0,-2.632873774E0
3.496962552E1,1.223232746E0,-9.367136955E0,-2.632651806E0
3.498989562E1,1.224492073E0,-9.366698265E0,-2.633623123E0
3.501016567E1,1.225407958E0,-9.366355896E0,-2.634417534E0
3.503043578E1,1.225298166E0,-9.366563797E0,-2.633727312E0
3.505070583E1,1.224822044E0,-9.366785049E0,-2.633159637E0
3.507097588E1,1.224259496E0,-9.367075920E0,-2.632387877E0
3.509124593E1,1.223614573E0,-9.367199898E0,-2.632247925E0
3.511151604E1,1.223711133E0,-9.367011070E0,-2.632873535E0
3.513178609E1,1.223533034E0,-9.366765022E0,-2.633829117E0
3.515205614E1,1.223206401E0,-9.366450310E0,-2.635102272E0
3.517232624E1,1.222981572E0,-9.366152763E0,-2.636261225E0
3.519259630E1,1.222844601E0,-9.365907669E0,-2.637193441E0
3.521286635E1,1.223062038E0,-9.365472794E0,-2.638644218E0
3.523313640E1,1.224760532E0,-9.364767075E0,-2.640356779E0
3.525340650E1,1.226046801E0,-9.364224434E0,-2.641685486E0
3.527367656E1,1.226272941E0,-9.363882065E0,-2.642791510E0
3.529394661E1,1.227086782E0,-9.363607407E0,-2.643388033E0
3.531421666E1,1.227797747E0,-9.363512993E0,-2.643391132E0
3.533448671E1,1.228293657E0,-9.363399506E0,-2.643564701E0
3.535475677E1,1.228687525E0,-9.363171577E0,-2.644186497E0
3.537502682E1,1.228646040E0,-9.362956047E0,-2.644970179E0
3.539529687E1,1.228179932E0,-9.362724304E0,-2.646008730E0
3.541556692E1,1.228094339E0,-9.362729073E0,-2.646032333E0
3.543583703E1,1.226941705E0,-9.363045692E0,-2.645443678E0
3.545610708E1,1.225837946E0,-9.363265991E0,-2.645177126E0
3.547637713E1,1.225005031E0,-9.363252640E0,-2.645610094E0
3.549664713E1,1.224650383E0,-9.363214493E0,-2.645912647E0
3.551691723E1,1.223984003E0,-9.363081932E0,-2.646686792E0
3.553718723E1,1.222375989E0,-9.362854004E0,-2.648238182E0
3.555745729E1,1.221636891E0,-9.362845421E0,-2.648604393E0
3.557772734E1,1.222231030E0,-9.362858772E0,-2.648285627E0
3.559799744E1,1.223485231E0,-9.362898827E0,-2.647566795E0
3.561826744E1,1.225076318E0,-9.362765312E0,-2.647299290E0
3.563853749E1,1.225362778E0,-9.362997055E0,-2.646348715E0
3.565880755E1,1.223904252E0,-9.363186836E0,-2.646353483E0
3.567907760E1,1.222703218E0,-9.363464355E0,-2.645924807E0
3.569934765E1,1.222266316E0,-9.363402367E0,-2.646346569E0
3.571961770E1,1.222781301E0,-9.363170624E0,-2.646925688E0
3.573988775E1,1.222880840E0,-9.363353729E0,-2.646232367E0
3.576015781E1,1.221831203E0,-9.363325119E0,-2.646821499E0
3.578042781E1,1.220474124E0,-9.362868309E0,-2.649063349E0
3.580069786E1,1.219451427E0,-9.362229347E0,-2.651789427E0
3.582096791E1,1.219344735E0,-9.361573219E0,-2.654152632E0
3.584123796E1,1.221178651E0,-9.361067772E0,-2.655094385E0
3.586150802E1,1.223246098E0,-9.360942841E0,-2.654584408E0
3.588177807E1,1.224307656E0,-9.360825539E0,-2.654504776E0
3.590204807E1,1.224291205E0,-9.360548973E0,-2.655488729E0
3.592231812E1,1.224450231E0,-9.360400200E0,-2.655937672E0
3.594271812E1,1.225213528E0,-9.360399246E0,-2.655591488E0
3.596285822E1,1.225763083E0,-9.360375404E0,-2.655422926E0
3.598312822E1,1.225148678E0,-9.360406876E0,-2.655594826E0
3.600339828E1,1.224417567E0,-9.360545158E0,-2.655447245E0
3.602366833E1,1.223038077E0,-9.360994339E0,-2.654497623E0
3.604406833E1,1.221542239E0,-9.361481667E0,-2.653467417E0
3.606420838E1,1.220544577E0,-9.361806870E0,-2.652776957E0
3.608447838E1,1.219891429E0,-9.362140656E0,-2.651898146E0
3.610474843E1,1.219611406E0,-9.362546921E0,-2.650595188E0
3.612501843E1,1.218803644E0,-9.363038063E0,-2.649232149E0
3.614541843E1,1.218914151E0,-9.363432884E0,-2.647783756E0
3.616555854E1,1.218922734E0,-9.363527298E0,-2.647446871E0
3.618582854E1,1.219435215E0,-9.363499641E0,-2.647308111E0
3.620609859E1,1.219355464E0,-9.363753319E0,-2.646446705E0
3.622636859E1,1.219877005E0,-9.364056587E0,-2.645134211E0
3.624676859E1,1.220024943E0,-9.364474297E0,-2.643588066E0
3.626690864E1,1.219629288E0,-9.364884377E0,-2.642313004E0
3.628717869E1,1.218546391E0,-9.365401268E0,-2.640982151E0
3.630744869E1,1.217077494E0,-9.366096497E0,-2.639194250E0
3.632771874E1,1.215984702E0,-9.367042542E0,-2.636339426E0
3.634798874E1,1.215613842E0,-9.368092537E0,-2.632777452E0
3.636825880E1,1.215069056E0,-9.368834496E0,-2.630385876E0
3.638852880E1,1.213775992E0,-9.369322777E0,-2.629246235E0
3.640879880E1,1.213049293E0,-9.369527817E0,-2.628850698E0
3.642906885E1,1.213039994E0,-9.369628906E0,-2.628490210E0
3.644933885E1,1.213148475E0,-9.369947433E0,-2.627307177E0
3.646960890E1,1.212723851E0,-9.370334625E0,-2.626123190E0
3.648987890E1,1.211951494E0,-9.370473862E0,-2.625981092E0
3.651014895E1,1.211336255E0,-9.370866776E0,-2.624864578E0
3.653041895E1,1.209923983E0,-9.371718407E0,-2.622472048E0
3.655068895E1,1.208195567E0,-9.373324394E0,-2.617525578E0
3.657095895E1,1.204215407E0,-9.374846458E0,-2.613905430E0
3.659122900E1,1.199686766E0,-9.376543999E0,-2.609896660E0
3.661149900E1,1.197684646E0,-9.377918243E0,-2.605874777E0
3.663188781E1,1.194551945E0,-9.379965782E0,-2.599934816E0
3.665203900E1,1.191572189E0,-9.382224083E0,-2.593150139E0
3.667230906E1,1.189705253E0,-9.383980751E0,-2.587645769E0
3.669257906E1,1.187069416E0,-9.385701180E0,-2.582610130E0
3.671284906E1,1.184826493E0,-9.387302399E0,-2.577816010E0
3.673311906E1,1.183939457E0,-9.388777733E0,-2.572844267E0
3.675338911E1,1.182446718E0,-9.390514374E0,-2.567188025E0
3.677365906E1,1.178863049E0,-9.392271996E0,-2.562399864E0
3.679392911E1,1.176020026E0,-9.394319534E0,-2.556192636E0
3.681419911E1,1.174263954E0,-9.396383286E0,-2.549407482E0
3.683446911E1,1.172934771E0,-9.397827148E0,-2.544693470E0
3.685473911E1,1.172824383E0,-9.398794174E0,-2.541169405E0
3.687500911E1,1.172634363E0,-9.399578094E0,-2.538353682E0
3.689527911E1,1.171000957E0,-9.400547028E0,-2.535523176E0
3.691554911E1,1.169153214E0,-9.401391983E0,-2.533234596E0
3.693581911E1,1.167253256E0,-9.402089119E0,-2.531528234E0
3.695608911E1,1.165025592E0,-9.402871132E0,-2.529650211E0
3.697635911E1,1.163138032E0,-9.403378487E0,-2.528633356E0
3.699662911E1,1.161465049E0,-9.403658867E0,-2.528358221E0
3.701702911E1,1.159438133E0,-9.403802872E0,-2.528750181E0
3.703716911E1,1.157352686E0,-9.403678894E0,-2.530166626E0
3.705743911E1,1.156755090E0,-9.403184891E0,-2.532273769E0
3.707770911E1,1.156869531E0,-9.402519226E0,-2.534691572E0
3.709797911E1,1.156885624E0,-9.402050972E0,-2.536422491E0
3.711824911E1,1.156323314E0,-9.401847839E0,-2.537431002E0
3.713851911E1,1.156099319E0,-9.401624680E0,-2.538359165E0
3.715878911E1,1.156170011E0,-9.401327133E0,-2.539429665E0
3.717905911E1,1.157166481E0,-9.401247978E0,-2.539266825E0
3.719932911E1,1.156354666E0,-9.401647568E0,-2.538157940E0
3.721959906E1,1.155699968E0,-9.402028084E0,-2.537047863E0
3.723986906E1,1.156026125E0,-9.401900291E0,-2.537372828E0
3.726013906E1,1.157308221E0,-9.402084351E0,-2.536104202E0
3.728040906E1,1.157605886E0,-9.402352333E0,-2.534981012E0
3.730067906E1,1.156959295E0,-9.402555466E0,-2.534514666E0
3.732094906E1,1.157627106E0,-9.402551651E0,-2.534229040E0
3.734121900E1,1.157527089E0,-9.402462006E0,-2.534604311E0
3.736148900E1,1.157587409E0,-9.402535439E0,-2.534305334E0
3.738175900E1,1.158158183E0,-9.402651787E0,-2.533614874E0
3.740202900E1,1.159182429E0,-9.402519226E0,-2.533636808E0
3.742229895E1,1.159283042E0,-9.402230263E0,-2.534661055E0
3.744269895E1,1.159496546E0,-9.401751518E0,-2.536337376E0
3.746283895E1,1.161966920E0,-9.401054382E0,-2.537795782E0
3.748310890E1,1.165055752E0,-9.400451660E0,-2.538610935E0
3.750337890E1,1.166915655E0,-9.400444031E0,-2.537785053E0
3.752364885E1,1.167089581E0,-9.400312424E0,-2.538191795E0
3.754404885E1,1.167265177E0,-9.399861336E0,-2.539783478E0
3.756418885E1,1.167571545E0,-9.399549484E0,-2.540795803E0
3.758445880E1,1.167846203E0,-9.399385452E0,-2.541276932E0
3.760472880E1,1.168083191E0,-9.399483681E0,-2.540798664E0
3.762499880E1,1.168057680E0,-9.399392128E0,-2.541153669E0
3.764539880E1,1.168063164E0,-9.399258614E0,-2.541643858E0
3.766553874E1,1.168164253E0,-9.399023056E0,-2.542470694E0
3.768580869E1,1.168625951E0,-9.398687363E0,-2.543495655E0
3.770607869E1,1.168360949E0,-9.398553848E0,-2.544110537E0
3.772634864E1,1.168068290E0,-9.398446083E0,-2.544643402E0
3.774661864E1,1.168158412E0,-9.398418427E0,-2.544705629E0
3.776688859E1,1.168213010E0,-9.398224831E0,-2.545393944E0
3.778715859E1,1.168020010E0,-9.398090363E0,-2.545980453E0
3.780742854E1,1.167177916E0,-9.398167610E0,-2.546079159E0
3.782769854E1,1.166635513E0,-9.398305893E0,-2.545818567E0
3.784796848E1,1.166249514E0,-9.398483276E0,-2.545343637E0
3.786823848E1,1.165303707E0,-9.398740768E0,-2.544822454E0
3.788850843E1,1.164322734E0,-9.398711205E0,-2.545382023E0
3.790877843E1,1.163984656E0,-9.398572922E0,-2.546049118E0
3.792904838E1,1.164032936E0,-9.398482323E0,-2.546360731E0
3.794931833E1,1.164349437E0,-9.398333549E0,-2.546763182E0
3.796958833E1,1.164447904E0,-9.398168564E0,-2.547327280E0
3.798985828E1,1.163968205E0,-9.398015022E0,-2.548112869E0
3.801012828E1,1.163664818E0,-9.398032188E0,-2.548187494E0
3.803039822E1,1.164245367E0,-9.397561073E0,-2.549659729E0
3.805066817E1,1.164660573E0,-9.397208214E0,-2.550770998E0
3.807093817E1,1.165364027E0,-9.396850586E0,-2.551763058E0
3.809120812E1,1.166090488E0,-9.396455765E0,-2.552890778E0
3.811147807E1,1.166774392E0,-9.396017075E0,-2.554191113E0
3.813174807E1,1.166520119E0,-9.395801544E0,-2.555099249E0
3.815201802E1,1.166880608E0,-9.395733833E0,-2.555182934E0
3.817228796E1,1.166465759E0,-9.395547867E0,-2.556056738E0
3.819255791E1,1.166615009E0,-9.395371437E0,-2.556635618E0
3.821282791E1,1.166985750E0,-9.395095825E0,-2.557481766E0
3.823309786E1,1.167627692E0,-9.394715309E0,-2.558586121E0
3.825336781E1,1.169106841E0,-9.394226074E0,-2.559702873E0
3.827363775E1,1.170151830E0,-9.393803596E0,-2.560776472E0
3.829390775E1,1.171230793E0,-9.393642426E0,-2.560876369E0
3.831417770E1,1.172149777E0,-9.393460274E0,-2.561124563E0
3.833444765E1,1.172250748E0,-9.393660545E0,-2.560342073E0
3.835471760E1,1.170958281E0,-9.393974304E0,-2.559783220E0
3.837498755E1,1.169638753E0,-9.393977165E0,-2.560374737E0
3.839525755E1,1.169205904E0,-9.393863678E0,-2.560987234E0
3.841552749E1,1.168524504E0,-9.393718719E0,-2.561833382E0
3.843579744E1,1.168212771E0,-9.393671989E0,-2.562149048E0
3.845606739E1,1.168539643E0,-9.393560410E0,-2.562403679E0
3.847633734E1,1.168198228E0,-9.393166542E0,-2.564004660E0
3.849660728E1,1.168444872E0,-9.392933846E0,-2.564742804E0
3.851687723E1,1.169569850E0,-9.392440796E0,-2.566037416E0
3.853714718E1,1.170560360E0,-9.392050743E0,-2.567015648E0
3.855741713E1,1.170858860E0,-9.391875267E0,-2.567521811E0
3.857768708E1,1.170326114E0,-9.391757011E0,-2.568197727E0
3.859795702E1,1.169270635E0,-9.391897202E0,-2.568161964E0
3.861822697E1,1.168107986E0,-9.391684532E0,-2.569469213E0
3.863849692E1,1.167155504E0,-9.390940666E0,-2.572619677E0
3.865876687E1,1.166585922E0,-9.390223503E0,-2.575492859E0
3.867903682E1,1.165903687E0,-9.389962196E0,-2.576751471E0
3.869930682E1,1.164175272E0,-9.390274048E0,-2.576400518E0
3.871957671E1,1.162907481E0,-9.390666962E0,-2.575542450E0
3.873984666E1,1.162146568E0,-9.391188622E0,-2.573980808E0
3.876011661E1,1.160703659E0,-9.391703606E0,-2.572756052E0
3.878038656E1,1.160735488E0,-9.391993523E0,-2.571678162E0
3.880065650E1,1.161146164E0,-9.392170906E0,-2.570847988E0
3.882092645E1,1.161968827E0,-9.392286301E0,-2.570054293E0
3.884119640E1,1.163166046E0,-9.392130852E0,-2.570080519E0
3.886146635E1,1.163947463E0,-9.392025948E0,-2.570107222E0
3.888173630E1,1.165136576E0,-9.391852379E0,-2.570204020E0
3.890200624E1,1.166288614E0,-9.391698837E0,-2.570245504E0
3.892227619E1,1.166767836E0,-9.391613960E0,-2.570334435E0
3.894267619E1,1.168175340E0,-9.391388893E0,-2.570520878E0
3.896281604E1,1.169044733E0,-9.391451836E0,-2.569893599E0
3.898308598E1,1.168575168E0,-9.391532898E0,-2.569809198E0
3.900335593E1,1.168300748E0,-9.391392708E0,-2.570449829E0
3.902362588E1,1.168236017E0,-9.390799522E0,-2.572644949E0
3.904402588E1,1.169682145E0,-9.390057564E0,-2.574693203E0
3.906416578E1,1.170817375E0,-9.389468193E0,-2.576327085E0
3.908443567E1,1.170931101E0,-9.388916016E0,-2.578289270E0
3.910470562E1,1.170836926E0,-9.388421059E0,-2.580129862E0
3.912497557E1,1.170035124E0,-9.388241768E0,-2.581148624E0
3.914537557E1,1.168834209E0,-9.388327599E0,-2.581381559E0
3.916551546E1,1.167618513E0,-9.388582230E0,-2.581004858E0
3.918578541E1,1.165587425E0,-9.389074326E0,-2.580130100E0
3.920605531E1,1.164201617E0,-9.389342308E0,-2.579780817E0
3.922632520E1,1.164974332E0,-9.389031410E0,-2.580566883E0
3.924672520E1,1.165962815E0,-9.388600349E0,-2.581687212E0
3.926686515E1,1.167133570E0,-9.388091087E0,-2.583005905E0
3.928713505E1,1.169092059E0,-9.387658119E0,-2.583692312E0
3.930740499E1,1.171943069E0,-9.387434006E0,-2.583220720E0
3.932767494E1,1.173883915E0,-9.387274742E0,-2.582915783E0
3.934794484E1,1.175923109E0,-9.387169838E0,-2.582365751E0
3.936821478E1,1.177223682E0,-9.386754990E0,-2.583286524E0
3.938848473E1,1.178930640E0,-9.386195183E0,-2.584542513E0
3.940875468E1,1.179865956E0,-9.385796547E0,-2.585561275E0
3.942902458E1,1.178427935E0,-9.385890961E0,-2.585873365E0
3.944942458E1,1.175841808E0,-9.386481285E0,-2.584910393E0
3.946956447E1,1.174659133E0,-9.386864662E0,-2.584055662E0
3.948983442E1,1.174350023E0,-9.387552261E0,-2.581698179E0
3.951010437E1,1.172783852E0,-9.388849258E0,-2.577687502E0
3.953037426E1,1.171027660E0,-9.389935493E0,-2.574529409E0
3.955064421E1,1.169298410E0,-9.390881538E0,-2.571862459E0
3.957091416E1,1.166424036E0,-9.392138481E0,-2.568576574E0
3.959118411E1,1.163790703E0,-9.393391609E0,-2.565184593E0
3.961145400E1,1.161874771E0,-9.394571304E0,-2.561730623E0
3.963172395E1,1.160473228E0,-9.395321846E0,-2.559612513E0
3.965199390E1,1.160010815E0,-9.395816803E0,-2.558006763E0
3.967226385E1,1.160473228E0,-9.396121979E0,-2.556671143E0
3.969253380E1,1.161855817E0,-9.395800591E0,-2.557227373E0
3.971280374E1,1.164126873E0,-9.395118713E0,-2.558699846E0
3.973307369E1,1.167290807E0,-9.394681931E0,-2.558860064E0
3.975334364E1,1.170624256E0,-9.394004822E0,-2.559821844E0
3.977361359E1,1.173132539E0,-9.393486977E0,-2.560576439E0
3.979388348E1,1.174881816E0,-9.393060684E0,-2.561339617E0
3.981415343E1,1.176038861E0,-9.392461777E0,-2.563001871E0
3.983442338E1,1.176813722E0,-9.392097473E0,-2.563981771E0
3.985469333E1,1.176671267E0,-9.391942978E0,-2.564611197E0
3.987496328E1,1.175628781E0,-9.392046928E0,-2.564709187E0
3.989523322E1,1.174475193E0,-9.391926765E0,-2.565681934E0
3.991550317E1,1.172957301E0,-9.391655922E0,-2.567366600E0
3.993577312E1,1.172055721E0,-9.391516685E0,-2.568283558E0
3.995604307E1,1.171285748E0,-9.391419411E0,-2.568994284E0
3.997631302E1,1.171466708E0,-9.390949249E0,-2.570625544E0
3.999658296E1,1.170608640E0,-9.390376091E0,-2.573112965E0
4.001685291E1,1.170057297E0,-9.390013695E0,-2.574684143E0
4.003712286E1,1.168460727E0,-9.389691353E0,-2.576581240E0
4.005739281E1,1.168120265E0,-9.389401436E0,-2.577795744E0
4.007766275E1,1.168218017E0,-9.388801575E0,-2.579935312E0
4.009793270E1,1.167742014E0,-9.388175011E0,-2.582423687E0
4.011820265E1,1.167561412E0,-9.387679100E0,-2.584309578E0
4.013847260E1,1.166818976E0,-9.387380600E0,-2.585732937E0
4.015874260E1,1.166245222E0,-9.386909485E0,-2.587698698E0
4.017901255E1,1.165915370E0,-9.386408806E0,-2.589664698E0
4.019928249E1,1.166673183E0,-9.385938644E0,-2.591027021E0
4.021955244E1,1.167760491E0,-9.385572433E0,-2.591861248E0
4.023982239E1,1.168370247E0,-9.385384560E0,-2.592268705E0
4.026009234E1,1.167962670E0,-9.385210991E0,-2.593080759E0
4.028036228E1,1.167412519E0,-9.384984970E0,-2.594146013E0
4.030063223E1,1.167738676E0,-9.384607315E0,-2.595363617E0
4.032090218E1,1.168433905E0,-9.384330750E0,-2.596055269E0
4.034117218E1,1.169396281E0,-9.384408951E0,-2.595332384E0
4.036144213E1,1.168591499E0,-9.384395599E0,-2.595746517E0
4.038171208E1,1.167696834E0,-9.384625435E0,-2.595317841E0
4.040198202E1,1.167885661E0,-9.384586334E0,-2.595374823E0
4.042225197E1,1.168913960E0,-9.384177208E0,-2.596388340E0
4.044265197E1,1.171212077E0,-9.383496284E0,-2.597816229E0
4.046279192E1,1.173528314E0,-9.382894516E0,-2.598944902E0
4.048306187E1,1.174328566E0,-9.382978439E0,-2.598278999E0
4.050333182E1,1.174394131E0,-9.383078575E0,-2.597890854E0
4.052360182E1,1.174580574E0,-9.382801056E0,-2.598803759E0
4.054400182E1,1.175529242E0,-9.382520676E0,-2.599386692E0
4.056414171E1,1.176257968E0,-9.382537842E0,-2.598997831E0
4.058441171E1,1.177256823E0,-9.382812500E0,-2.597555161E0
4.060468166E1,1.177126050E0,-9.383222580E0,-2.596129656E0
4.062495166E1,1.176446438E0,-9.383609772E0,-2.595037460E0
4.064535166E1,1.176414490E0,-9.383686066E0,-2.594779015E0
4.066549156E1,1.177223206E0,-9.383546829E0,-2.594916344E0
4.068576156E1,1.179225922E0,-9.383311272E0,-2.594855309E0
4.070603145E1,1.180941582E0,-9.383169174E0,-2.594590902E0
4.072630145E1,1.182270288E0,-9.382545471E0,-2.596240759E0
4.074657145E1,1.183956385E0,-9.381856918E0,-2.597956419E0
4.076684140E1,1.185013533E0,-9.381611824E0,-2.598366499E0
4.078711140E1,1.186178923E0,-9.381065369E0,-2.599805593E0
4.080738135E1,1.186174393E0,-9.380871773E0,-2.600504160E0
4.082765135E1,1.185771108E0,-9.380787849E0,-2.600988865E0
4.084792130E1,1.185470223E0,-9.380556107E0,-2.601965904E0
4.086819130E1,1.185212016E0,-9.380702019E0,-2.601556301E0
4.088846124E1,1.185177803E0,-9.380909920E0,-2.600821733E0
4.090873124E1,1.185587406E0,-9.381007195E0,-2.600285530E0
4.092900119E1,1.184852481E0,-9.381114006E0,-2.600237131E0
4.094927119E1,1.184075594E0,-9.381484032E0,-2.599249125E0
4.096954119E1,1.183556914E0,-9.381659508E0,-2.598855972E0
4.098981114E1,1.183875203E0,-9.381630898E0,-2.598812342E0
4.101008114E1,1.183807015E0,-9.382085800E0,-2.597198248E0
4.103035114E1,1.182859063E0,-9.382247925E0,-2.597049952E0
4.105062109E1,1.181319952E0,-9.382434845E0,-2.597072601E0
4.107089109E1,1.181485176E0,-9.382425308E0,-2.597029924E0
4.109116109E1,1.183462977E0,-9.382191658E0,-2.596976757E0
4.111143104E1,1.184433222E0,-9.382528305E0,-2.595316410E0
4.113170104E1,1.184655547E0,-9.382802010E0,-2.594226360E0
4.115197104E1,1.183552265E0,-9.383195877E0,-2.593302250E0
4.117224104E1,1.181644440E0,-9.383621216E0,-2.592638016E0
4.119251104E1,1.180936456E0,-9.384317398E0,-2.590439081E0
4.121278098E1,1.179834366E0,-9.385092735E0,-2.588126421E0
4.123305098E1,1.178926826E0,-9.385533333E0,-2.586942673E0
4.125332098E1,1.177963138E0,-9.385514259E0,-2.587452173E0
4.127359098E1,1.177141547E0,-9.385437012E0,-2.588105917E0
4.129386098E1,1.176333547E0,-9.385547638E0,-2.588072777E0
4.131413098E1,1.176054001E0,-9.385717392E0,-2.587587357E0
4.133440098E1,1.175948858E0,-9.385852814E0,-2.587142706E0
4.135467093E1,1.175267339E0,-9.386051178E0,-2.586733103E0
4.137494098E1,1.174385667E0,-9.386118889E0,-2.586883307E0
4.139521098E1,1.174977303E0,-9.386220932E0,-2.586245060E0
4.141548098E1,1.174547315E0,-9.386637688E0,-2.584932566E0
4.143575098E1,1.173450589E0,-9.387073517E0,-2.583846807E0
4.145602098E1,1.171752453E0,-9.387459755E0,-2.583214760E0
4.147629098E1,1.170456529E0,-9.387721062E0,-2.582850695E0
4.149656098E1,1.170122743E0,-9.388049126E0,-2.581806421E0
4.151683098E1,1.169625998E0,-9.388304710E0,-2.581102133E0
4.153710098E1,1.168513298E0,-9.388539314E0,-2.580755472E0
4.155737098E1,1.167676568E0,-9.388554573E0,-2.581077814E0
4.157764098E1,1.166301250E0,-9.388688087E0,-2.581215382E0
4.159791098E1,1.165913701E0,-9.388827324E0,-2.580882311E0
4.161818098E1,1.166442156E0,-9.388675690E0,-2.581197023E0
4.163845104E1,1.166771412E0,-9.388576508E0,-2.581410408E0
4.165872104E1,1.167780399E0,-9.388433456E0,-2.581472635E0
4.167899104E1,1.167586207E0,-9.388282776E0,-2.582105160E0
4.169926104E1,1.168167710E0,-9.387840271E0,-2.583452940E0
4.171953109E1,1.168886781E0,-9.387722969E0,-2.583553791E0
4.173980109E1,1.169392943E0,-9.387793541E0,-2.583067179E0
4.176007104E1,1.170544267E0,-9.387832642E0,-2.582404137E0
4.178034109E1,1.168913841E0,-9.388234138E0,-2.581683874E0
