"Time (s)","Gyroscope x (rad/s)","Gyroscope y (rad/s)","Gyroscope z (rad/s)"
2.815621600E-2,-8.119972348E-1,-7.315698266E-1,-1.740374416E-1
4.827022600E-2,-1.251285315E0,-7.885614038E-1,-2.225069404E-1
6.854126800E-2,-1.494165421E0,-1.162335753E0,-4.094607234E-1
8.881241400E-2,-1.858885050E0,-1.640506029E0,-7.496792674E-1
1.090835070E-1,-2.322141647E0,-2.144242525E0,-1.089365244E0
1.293547570E-1,-2.609230042E0,-2.515486956E0,-1.210272670E0
1.496259030E-1,-2.624543190E0,-2.921751738E0,-1.208674788E0
1.698971010E-1,-2.462756395E0,-3.015495062E0,-1.247556925E0
1.901683510E-1,-2.084055185E0,-2.664490700E0,-1.494165421E0
2.104396530E-1,-1.584579706E0,-2.164482594E0,-1.742238641E0
2.307109030E-1,-1.043026209E0,-1.710813403E0,-1.859950304E0
2.509822050E-1,-4.977444410E-1,-1.987782001E0,-2.005358696E0
2.712535070E-1,-3.022685647E-2,-2.098569393E0,-2.012283087E0
2.915248090E-1,2.380864173E-1,-1.984053493E0,-1.954758763E0
3.117961110E-1,3.834949136E-1,-1.367399096E0,-2.065945625E0
3.320673610E-1,3.552654386E-1,-4.914860129E-1,-2.410025835E0
3.523386640E-1,6.511423737E-2,-3.663175404E-1,-2.724145412E0
3.726100180E-1,-2.432795912E-1,-7.363634706E-1,-2.928143501E0
3.928813200E-1,-3.657849133E-1,-1.197489500E0,-3.055974960E0
4.131526220E-1,-4.036017656E-1,-1.244893670E0,-3.050648689E0
4.334239240E-1,-2.709764242E-1,-6.948181987E-1,-2.870086670E0
4.536951740E-1,2.274337858E-1,-5.110602379E-1,-2.575674295E0
4.740058510E-1,6.576671600E-1,-6.681866050E-1,-2.126665592E0
4.942378820E-1,4.916191697E-1,-6.900244951E-1,-1.620798588E0
5.145091840E-1,-4.673844203E-2,-4.014712274E-1,-1.190565228E0
5.347804860E-1,-6.900244951E-1,-2.278332561E-1,-8.652604222E-1
5.550517890E-1,-1.277384281E0,-2.017343044E-1,-7.784414291E-1
5.753230910E-1,-1.751826048E0,1.789642870E-1,-8.695214391E-1
5.955943930E-1,-2.018674612E0,6.480797529E-1,-7.587340474E-1
6.158657470E-1,-2.004826069E0,6.379597783E-1,-4.476770461E-1
6.362657470E-1,-1.645832300E0,-8.988162130E-2,-2.518016994E-1
6.564082990E-1,-1.229447365E0,-7.773761153E-1,-3.567301631E-1
6.766796010E-1,-1.068592548E0,-9.446225166E-1,-3.647196293E-1
6.969509030E-1,-9.568730593E-1,-4.297007322E-1,-1.793637723E-1
7.172222050E-1,-8.370308876E-1,5.379581451E-2,-3.661843762E-2
7.376222050E-1,-7.486140132E-1,9.374319762E-2,1.185105834E-2
7.577648090E-1,-6.095971465E-1,2.623211779E-2,4.593949392E-2
7.780361110E-1,-4.414186180E-1,-1.213068962E-1,2.996053919E-2
7.984361110E-1,-6.910898089E-1,-4.620581120E-2,-1.798963994E-1
8.181062680E-1,-1.151150465E0,6.870950758E-2,-5.206475854E-1
8.385062680E-1,-1.115464211E0,-8.135951310E-2,-4.854938984E-1
8.589062680E-1,-8.689888120E-1,1.635179669E-1,-1.122521535E-1
8.793062680E-1,-6.729803085E-1,1.683116555E-1,-9.307741374E-2
8.996655390E-1,-9.872331023E-1,-4.673844203E-2,-1.101083159E0
9.199358510E-1,-1.020123124E0,-1.468732208E-1,-1.284841061E0
9.403358510E-1,-6.596645117E-1,-2.454101145E-1,-1.394563317E0
9.604784030E-1,-5.030707717E-1,-4.110586047E-1,-1.317331672E0
9.807496010E-1,-1.367532164E-1,-8.599340916E-1,-1.101615787E0
1.001020799E0,1.006674170E-1,-1.164466262E0,-1.094691515E0
1.021292049E0,3.147853911E-1,-1.422792792E0,-1.235306382E0
1.041692049E0,2.492716908E-1,-1.730520844E0,-1.374323249E0
1.061834601E0,1.326253265E-1,-1.848765016E0,-1.160737872E0
1.082105851E0,8.575372398E-2,-1.369529605E0,-9.902957082E-1
1.102377153E0,1.374190152E-1,-2.523343265E-1,-1.202815771E0
1.122648403E0,-6.271740049E-2,5.576655269E-1,-1.207076907E0
1.142919705E0,-3.157175183E-1,8.547409177E-1,-1.298156857E0
1.163191007E0,-4.141212255E-2,7.137266546E-2,-1.384443283E0
1.183462257E0,1.198421568E-1,-1.295493722E0,-1.227316856E0
1.203733559E0,-1.628521830E-1,5.512739420E-1,-1.201750517E0
1.224004861E0,-3.595264861E-3,9.825725555E-1,-1.700693369E0
1.244276164E0,-6.431528926E-2,9.021451473E-1,-2.321076393E0
1.264547466E0,-4.259723127E-1,6.033387184E-1,-2.821084499E0
1.284818768E0,-3.247722387E-1,8.202529699E-2,-3.424423218E0
1.305090018E0,3.898864985E-1,-1.122388363E0,-3.357311487E0
1.325361268E0,9.229177833E-1,-1.676192284E0,-2.476072073E0
1.345632622E0,4.191812575E-1,-7.709845304E-1,-2.073402405E0
1.365903924E0,-6.761760712E-1,1.112401605E0,-1.980857730E0
1.386175226E0,-8.109319210E-1,2.165814161E0,-2.148503542E0
1.406446476E0,-1.277916908E0,2.263685167E-1,-2.376470089E0
1.426846476E0,-1.469131708E0,-1.469664335E0,-2.952644587E0
1.446989080E0,-1.243295789E0,-3.269027770E-1,-3.425488472E0
1.467260382E0,-8.684561849E-1,7.590003312E-3,-3.559179068E0
1.487531684E0,-2.731069624E-1,-4.270375669E-1,-3.167161942E0
1.507802986E0,-1.676458716E-1,-5.627255440E-1,-2.018674612E0
1.528074289E0,-1.108007312E0,1.091895252E-1,-1.870070338E0
1.548474289E0,-2.117078304E0,1.043958366E-1,-1.728390217E0
1.568616893E0,-2.286455154E0,8.415582776E-2,-1.815741897E0
1.588888195E0,-1.705487132E0,-4.233091474E-1,-2.427602768E0
1.609159549E0,-1.297091603E0,-1.049950480E0,-2.916958094E0
1.629430799E0,-1.348224282E0,-1.105344176E0,-3.032539368E0
1.649830799E0,-1.508013844E0,-9.792435765E-1,-2.488855362E0
1.669973455E0,-1.616004944E0,-1.298156857E0,-1.940377712E0
1.690244757E0,-1.455283284E0,-2.056491375E0,-1.616004944E0
1.710516059E0,-1.463805437E0,-2.810964346E0,-1.490969658E0
1.730787361E0,-1.384975910E0,-3.206044197E0,-1.050483108E0
1.751058664E0,-1.220925331E0,-3.183274031E0,-6.836329699E-1
1.771329966E0,-1.072853684E0,-2.567684889E0,-3.237069845E-1
1.791601320E0,-6.223802567E-1,-2.822682381E0,7.257108390E-2
1.811872622E0,-1.362205893E-1,-3.571429491E0,4.378233552E-1
1.832143924E0,-2.530001104E-3,-3.611909628E0,7.487471700E-1
1.852415226E0,-1.340900660E-1,-2.997918129E0,9.772462249E-1
1.872686580E0,-2.436790615E-2,-2.715623379E0,1.091229439E0
1.892957882E0,2.380864173E-1,-2.744918108E0,1.076848388E0
1.913229236E0,4.830970466E-1,-2.879141331E0,1.170058966E0
1.933500539E0,7.231808305E-1,-2.797648668E0,1.357944846E0
1.953771841E0,1.025715709E0,-2.518682718E0,1.408012271E0
1.974043195E0,1.268462658E0,-2.221474171E0,1.281245828E0
1.994314497E0,1.316932201E0,-2.098036766E0,1.029976726E0
2.014585851E0,1.390435338E0,-1.883918762E0,8.659262061E-1
2.034857153E0,1.470330119E0,-1.752358675E0,7.396924496E-1
2.055128507E0,1.513473272E0,-1.428119063E0,5.928192139E-1
2.075399861E0,1.413871169E0,-9.430246353E-1,4.069307148E-1
2.095799861E0,1.293496370E0,-6.079992056E-1,1.129179448E-1
2.115942518E0,1.238635302E0,-5.978792310E-1,-1.303616315E-1
2.136213872E0,1.279115319E0,-6.964160800E-1,-1.852227151E-1
2.156485226E0,1.258342624E0,-7.273087502E-1,-1.740374416E-1
2.176756580E0,1.170458436E0,-8.167908788E-1,-2.438122183E-1
2.197027934E0,1.105077863E0,-8.689888120E-1,-3.519364893E-1
2.217299289E0,1.009736776E0,-7.938877344E-1,-4.126565158E-1
2.237699289E0,8.520777822E-1,-7.629950643E-1,-4.312986135E-1
2.257841997E0,7.237134576E-1,-1.012266755E0,-4.428833723E-1
2.278241997E0,7.135934830E-1,-1.392965317E0,-4.238417745E-1
2.298384705E0,8.265114427E-1,-1.579919100E0,-3.791007102E-1
2.318656059E0,9.980188608E-1,-1.235839009E0,-3.231743574E-1
2.339056059E0,1.105610490E0,-7.187866569E-1,-3.173153996E-1
2.359198820E0,1.044890523E0,-5.707150102E-1,-2.651174963E-1
2.379470174E0,8.787093163E-1,-6.591318846E-1,-1.857553422E-1
2.399741580E0,7.082671523E-1,-7.289066315E-1,-1.319595277E-1
2.420012934E0,4.878907502E-1,-4.840291739E-1,-1.788311303E-1
2.440412934E0,2.636527419E-1,-3.608580679E-2,-2.209090441E-1
2.460555695E0,1.688442826E-1,2.125200927E-1,-2.081258893E-1
2.480827101E0,2.380864173E-1,1.794969290E-1,-3.039996028E-1
2.501098507E0,4.569981098E-1,1.198421582E-3,-4.748412669E-1
2.521369809E0,7.338334918E-1,-1.569932252E-1,-6.213150024E-1
2.541769809E0,1.003345251E0,-3.071953952E-1,-6.974813938E-1
2.561912674E0,1.133307338E0,-2.906838059E-1,-6.660560966E-1
2.582184080E0,8.701872230E-1,1.238369010E-2,-5.994771123E-1
2.602455486E0,4.399538934E-1,1.778990328E-1,-5.307676196E-1
2.622726841E0,2.540653646E-1,4.170507193E-1,-4.737760127E-1
2.642998247E0,1.470063776E-1,6.145239472E-1,-4.492749274E-1
2.663269653E0,1.502021700E-1,7.364966273E-1,-4.844286442E-1
2.683541059E0,5.816339254E-1,8.355661631E-1,-3.322291076E-1
2.703812518E0,1.144492626E0,2.854906619E-1,1.858884990E-1
2.724083924E0,1.198687911E0,-7.709845901E-2,6.789724231E-1
2.744355330E0,8.057388067E-1,-1.207742617E-1,5.571328998E-1
2.764626736E0,4.133222997E-1,2.966759205E-1,4.250401855E-1
2.784898195E0,2.396843135E-1,7.072018981E-1,7.199850678E-1
2.805169601E0,2.157158852E-1,8.329030275E-1,1.561942816E0
2.825441007E0,3.036001325E-1,5.534044504E-1,2.466085434E0
2.845712466E0,7.151913643E-1,-6.133255363E-1,2.823880672E0
2.865983872E0,1.705087662E0,-2.887130737E0,2.615754843E0
2.886255330E0,1.712011814E0,-3.407911539E0,2.826543808E0
2.906526736E0,9.740504622E-1,-1.706552386E0,3.531082630E0
2.926798195E0,-1.058605760E-1,2.356895804E-2,4.102995872E0
2.947069653E0,2.303632535E-2,2.092310905E0,4.016177177E0
2.967341111E0,7.471492887E-1,2.339318991E0,3.362771034E0
2.987612570E0,1.547561765E0,-9.195888638E-1,2.090713024E0
3.007884028E0,2.423474789E0,-2.510160685E0,1.673262835E0
3.028155486E0,3.146655560E0,-2.612425804E0,2.683931828E0
3.048426945E0,3.416034222E0,-2.722014904E0,3.197788239E0
3.068698403E0,2.516152620E0,-1.568733811E0,3.907520294E0
3.088969861E0,7.162566185E-1,-1.801360846E0,3.703122616E0
3.109241320E0,-1.997369342E-3,-2.072470427E0,2.526272774E0
3.129512830E0,1.789642870E-1,-1.657550216E0,1.107208371E0
3.149784289E0,4.452801943E-1,9.800425172E-2,-6.111950055E-2
3.170055799E0,3.621896505E-1,-8.934898674E-2,1.033305749E-1
3.190327257E0,6.458161026E-2,-4.989428520E-1,4.628570378E-1
3.210598768E0,6.191844866E-2,-3.343596160E-1,7.998798490E-1
3.230870226E0,1.012000442E-1,-8.349003643E-2,1.052347302E0
3.251141736E0,-2.330264263E-2,-3.874896467E-2,8.414251208E-1
3.271413247E0,-6.165213138E-2,-6.111950055E-2,2.647180259E-1
3.291684757E0,6.884266436E-2,-6.751108170E-2,-2.330264263E-2
3.311956216E0,7.403582335E-2,-4.780370742E-2,-9.520793706E-2
3.332227726E0,1.310274303E-1,-2.166479975E-1,-1.266332120E-1
3.352499236E0,2.647180259E-1,-3.833617568E-1,-8.775109053E-2
3.372770747E0,3.350254297E-1,-5.914876461E-1,3.446127772E-1
3.393042309E0,7.285071611E-1,-1.249687433E0,1.183241606E0
3.413313820E0,1.082707286E0,-2.306695223E0,1.296692133E0
3.433585330E0,1.030509472E0,-2.366882563E0,1.406946898E0
3.453856841E0,6.225134134E-1,-2.100699902E0,1.576856494E0
3.474128403E0,3.914843798E-1,-2.536792278E0,2.390451670E0
3.494399914E0,7.562040091E-1,-3.126815081E0,2.905905962E0
3.514671476E0,9.197220206E-1,-2.807768583E0,2.907503843E0
3.534943039E0,8.126630187E-1,-1.577255964E0,2.689258099E0
3.555214549E0,7.785745859E-1,-4.494080842E-1,2.089115143E0
3.575486111E0,9.708546400E-1,-8.556730151E-1,8.909598589E-1
3.595757674E0,9.692567587E-1,-1.504285455E0,5.384907722E-1
3.616029236E0,5.113265514E-1,-1.090963125E0,4.106591344E-1
3.636300747E0,3.802991211E-1,-8.396940827E-1,1.097221524E-1
3.656572361E0,2.380864173E-1,-3.460775316E-1,-1.042626798E-1
3.676843924E0,-3.182475269E-2,3.834949061E-2,-8.881635964E-2
3.697115486E0,-2.347574681E-1,6.125266105E-2,-6.964161247E-2
3.717387049E0,-4.190480709E-1,1.874863952E-1,-9.254477918E-2
3.737787049E0,-6.207823753E-1,3.238401413E-1,-1.303616315E-1
3.757930226E0,-7.827024460E-1,6.022734046E-1,-2.049300969E-1
3.778201841E0,-7.624624372E-1,8.036082387E-1,-3.743070066E-1
3.798473403E0,-5.781718493E-1,7.849661708E-1,-5.222455263E-1
3.818470382E0,-3.412838280E-1,5.065328479E-1,-3.396859467E-1
3.838870382E0,1.078579482E-2,-4.301001877E-2,8.375635743E-2
3.859270382E0,1.395495385E-1,9.427583218E-2,-1.904158667E-2
3.879560643E0,-3.182475269E-2,4.287686050E-1,-1.996037811E-1
3.899831997E0,-2.063948289E-2,-2.901511788E-1,-1.149153188E-1
3.920103507E0,7.057371549E-3,-3.854922652E-1,-6.165213138E-2
3.940503507E0,4.167843983E-2,-1.798963994E-1,-6.591318548E-2
3.960646632E0,-1.424790081E-2,-1.884185076E-1,-3.981423005E-2
3.980918143E0,-1.797632314E-2,-2.555301189E-1,-4.514054582E-2
4.001189705E0,6.524739787E-3,-2.187785208E-1,-5.313002318E-2
4.021461268E0,1.877527125E-2,-1.836248189E-1,-6.644582003E-2
4.041861268E0,2.676474862E-2,-1.735048145E-1,-6.857634336E-2
4.062004445E0,2.676474862E-2,-1.772332340E-1,-6.378266215E-2
4.082276059E0,2.676474862E-2,-1.601890177E-1,-5.472791940E-2
4.102547622E0,2.996053919E-2,-1.229047924E-1,-4.460791498E-2
4.122819289E0,3.422159329E-2,-9.627319872E-2,-4.087949172E-2
4.143090903E0,4.061317816E-2,-9.680583328E-2,-3.928159550E-2
4.163362466E0,4.487423226E-2,-8.881635964E-2,-4.354264960E-2
4.183634132E0,4.860265180E-2,-9.201214463E-2,-5.153212696E-2
4.203905747E0,5.233107507E-2,-9.946899116E-2,-4.993423447E-2
4.224177414E0,4.913528636E-2,-1.042626798E-1,-4.673844203E-2
4.244448976E0,4.966791719E-2,-9.094688296E-2,-4.301001877E-2
4.264720643E0,5.286370963E-2,-9.094688296E-2,-3.502054140E-2
4.284992257E0,5.659212917E-2,-1.000016257E-1,-2.969422378E-2
4.305263924E0,6.564687192E-2,-1.213068962E-1,-2.862896025E-2
4.325535591E0,7.616634667E-2,-1.282311082E-1,-3.502054140E-2
4.345807205E0,8.788424730E-2,-1.378184855E-1,-4.567318037E-2
4.366078872E0,8.681898564E-2,-1.532648057E-1,-5.419528857E-2
4.386350486E0,7.456845790E-2,-1.532648057E-1,-7.337003201E-2
4.406622153E0,6.671213359E-2,-1.069258377E-1,-8.135951310E-2
4.426893820E0,8.309056610E-2,-1.543300748E-1,-4.354264960E-2
4.447165486E0,9.161267430E-2,-2.645848691E-1,-3.715106845E-2
4.467437153E0,1.123853177E-1,-2.241048366E-1,-4.833633825E-2
4.487708768E0,1.139832065E-1,-2.203764170E-1,-4.514054582E-2
4.507980434E0,1.235705838E-1,-2.150501013E-1,-4.780370742E-2
4.528252101E0,1.225053221E-1,-2.411490530E-1,-4.141212255E-2
4.548523768E0,1.219726875E-1,-2.768353820E-1,-3.022685647E-2
4.568795434E0,1.155811027E-1,-2.779006660E-1,-3.448791057E-2
4.589067101E0,1.091895252E-1,-2.629869580E-1,-4.034686089E-2
4.609338768E0,1.001347825E-1,-2.608564198E-1,-5.259739235E-2
4.629610434E0,1.001347825E-1,-2.736395895E-1,-5.952160433E-2
4.649882101E0,9.587372839E-2,-2.592585385E-1,-6.697845459E-2
4.670153716E0,9.534109384E-2,-2.603237927E-1,-5.952160433E-2
4.690425382E0,9.001477808E-2,-2.448774725E-1,-6.325002760E-2
4.710697101E0,9.001477808E-2,-2.049300969E-1,-6.325002760E-2
4.730968768E0,8.894951642E-2,-1.527321786E-1,-5.259739235E-2
4.751240434E0,8.149266988E-2,-7.283740491E-2,-2.596580051E-2
4.771512101E0,7.563371956E-2,-2.117211558E-2,1.731053460E-3
4.791783768E0,8.096003532E-2,4.394212738E-3,2.356895804E-2
4.812055434E0,8.255793154E-2,2.410159074E-2,3.368896246E-2
4.832327101E0,7.882951200E-2,-9.321057005E-4,2.676474862E-2
4.852598768E0,8.309056610E-2,-3.928159550E-2,7.590003312E-3
4.872870434E0,8.788424730E-2,-8.988162130E-2,-1.424790081E-2
4.893142153E0,8.948214352E-2,-1.484711170E-1,-1.744369231E-2
4.913413820E0,7.989477366E-2,-1.671132296E-1,-1.904158667E-2
4.933685486E0,6.724476814E-2,-1.660479754E-1,-1.850895584E-2
4.953957153E0,5.552686751E-2,-1.543300748E-1,-2.277000993E-2
4.974228820E0,5.819002539E-2,-1.335574239E-1,-2.010685205E-2
4.994500486E0,4.753739014E-2,-1.862879843E-1,-1.637842879E-2
5.014772205E0,3.475422785E-2,-1.964079887E-1,-2.063948289E-2
5.035043872E0,3.528685868E-2,-1.948100924E-1,-3.022685647E-2
5.055315539E0,2.463422157E-2,-2.065279931E-1,-4.194475710E-2
5.075587205E0,3.049317189E-2,-1.996037811E-1,-4.727107286E-2
5.095858872E0,1.185105834E-2,-1.671132296E-1,-4.940159991E-2
5.116130591E0,-1.211737376E-2,-1.649827063E-1,-4.087949172E-2
5.136530591E0,-1.051947847E-2,-1.751027107E-1,-3.928159550E-2
5.156673924E0,4.394212738E-3,-1.692437679E-1,-4.034686089E-2
5.176945591E0,3.049317189E-2,-1.868206114E-1,-3.821633384E-2
5.197217309E0,5.712476373E-2,-2.363553643E-1,-3.448791057E-2
5.217488976E0,6.617950648E-2,-2.699111700E-1,-4.194475710E-2
5.237888976E0,6.671213359E-2,-2.651174963E-1,-4.993423447E-2
5.258032361E0,7.616634667E-2,-2.880206704E-1,-5.046686530E-2
5.278304028E0,8.362319320E-2,-2.779006660E-1,-4.833633825E-2
5.298575695E0,9.161267430E-2,-2.651174963E-1,-4.194475710E-2
5.318847361E0,9.267793596E-2,-2.672480047E-1,-3.715106845E-2
5.339247361E0,9.108003974E-2,-2.443448454E-1,-3.022685647E-2
5.359390747E0,9.693899006E-2,-2.123869359E-1,-2.596580051E-2
5.379662414E0,9.800425172E-2,-2.017343044E-1,-2.809632942E-2
5.399934080E0,1.012000442E-1,-1.857553422E-1,-2.383527346E-2
5.420205799E0,9.161267430E-2,-1.740374416E-1,-2.010685205E-2
5.440605799E0,7.203845680E-2,-1.394163817E-1,-2.862896025E-2
5.460749132E0,6.671213359E-2,-7.656582445E-2,-3.715106845E-2
5.481020851E0,5.446160212E-2,-6.218476593E-2,-3.768370301E-2
5.501292518E0,5.020054802E-2,-8.242477477E-2,-1.584579609E-2
5.521564184E0,5.339634046E-2,-7.656582445E-2,-1.211737376E-2
5.541835851E0,5.499423668E-2,-2.809632942E-2,-1.265000552E-2
5.562107570E0,6.191844866E-2,-3.821633384E-2,-3.062632866E-3
5.582379236E0,5.659212917E-2,-5.739107728E-2,-4.127896391E-3
5.602650903E0,4.540686309E-2,-7.283740491E-2,-6.791055668E-3
5.622922570E0,4.593949392E-2,-9.627319872E-2,-1.211737376E-2
5.643194236E0,4.593949392E-2,-1.101216301E-1,-3.395527974E-2
5.663465955E0,4.274370521E-2,-1.266332120E-1,-3.715106845E-2
5.683737622E0,4.114580899E-2,-1.404816359E-1,-3.075948730E-2
5.704009289E0,3.581948951E-2,-1.580584943E-1,-2.170474641E-2
5.724280955E0,2.676474862E-2,-1.809616536E-1,-2.010685205E-2
5.744552622E0,1.398158539E-2,-1.548627019E-1,-2.756369673E-2
5.764824341E0,2.037316747E-2,-1.862879843E-1,-2.490053698E-2
5.785096007E0,2.410159074E-2,-1.964079887E-1,-1.904158667E-2
5.805367674E0,2.463422157E-2,-2.129195631E-1,-1.318263728E-2
5.825639341E0,3.635212034E-2,-2.379532605E-1,-1.478053257E-2
5.845911007E0,3.688475490E-2,-2.448774725E-1,-1.957421936E-2
5.866182726E0,3.262370080E-2,-2.667153776E-1,-2.330264263E-2
5.886454393E0,2.463422157E-2,-2.475406379E-1,-2.756369673E-2
5.906726059E0,2.197106183E-2,-2.400837988E-1,-2.649843320E-2
5.926997726E0,1.664474420E-2,-2.294311523E-1,-2.596580051E-2
5.947269393E0,1.185105834E-2,-1.878858805E-1,-2.916159295E-2
5.967501736E0,6.657897611E-4,-1.261005849E-1,-3.289001435E-2
5.987812726E0,6.657897611E-4,-1.436774284E-1,-3.129211813E-2
6.008084393E0,-1.265000552E-2,-1.026647836E-1,-2.436790615E-2
6.028356059E0,-2.010685205E-2,-5.579318479E-2,-1.424790081E-2
6.048627726E0,-2.490053698E-2,-1.637842879E-2,-1.464737463E-3
6.068899393E0,-2.756369673E-2,1.398158539E-2,9.187898599E-3
6.089171111E0,-3.075948730E-2,3.155843541E-2,1.824264042E-2
6.109442778E0,-4.194475710E-2,5.645897239E-2,2.410159074E-2
6.129714393E0,-4.940159991E-2,7.882951200E-2,2.303632535E-2
6.149986111E0,-5.632581562E-2,1.065263674E-1,2.250369452E-2
6.170257726E0,-6.005423889E-2,1.123853177E-1,3.049317189E-2
6.190529393E0,-5.898897350E-2,1.113200486E-1,3.635212034E-2
6.210801059E0,-6.165213138E-2,1.214400530E-1,2.889527567E-2
6.231072726E0,-5.046686530E-2,1.193095297E-1,2.410159074E-2
6.251344393E0,-4.407528415E-2,1.150484756E-1,2.197106183E-2
6.271616059E0,-4.514054582E-2,9.427583218E-2,2.250369452E-2
6.291887674E0,-4.833633825E-2,6.018739566E-2,2.037316747E-2
6.312159341E0,-5.366265774E-2,2.037316747E-2,2.303632535E-2
6.332431007E0,-4.087949172E-2,-1.211737376E-2,1.930790395E-2
6.352702674E0,-2.596580051E-2,-5.579318479E-2,1.185105834E-2
6.372974289E0,-2.117211558E-2,-1.154479459E-1,8.122635074E-3
6.393245955E0,-2.756369673E-2,-1.553953290E-1,1.731053460E-3
6.413517570E0,-3.129211813E-2,-1.814942956E-1,-7.856319658E-3
6.433789236E0,-3.022685647E-2,-2.113216817E-1,-1.691105962E-2
6.454060851E0,-3.235738352E-2,-2.203764170E-1,-2.543316968E-2
6.474332518E0,-3.342264518E-2,-2.193111479E-1,-2.969422378E-2
6.494604132E0,-3.608580679E-2,-2.278332561E-1,-3.235738352E-2
6.514875799E0,-2.596580051E-2,-2.187785208E-1,-3.395527974E-2
6.535147414E0,-1.478053257E-2,-1.841574460E-1,-3.395527974E-2
6.555419080E0,-1.051947847E-2,-1.383511126E-1,-2.596580051E-2
6.575690695E0,-1.424790081E-2,-6.910897791E-2,-1.691105962E-2
6.595962309E0,-2.383527346E-2,6.657897611E-4,-5.193160381E-3
6.616233924E0,-2.756369673E-2,5.645897239E-2,8.122635074E-3
6.636466268E0,-2.862896025E-2,1.123853177E-1,1.930790395E-2
6.656777153E0,-2.916159295E-2,1.747032404E-1,2.623211779E-2
6.677048768E0,-3.342264518E-2,2.157158852E-1,3.155843541E-2
6.697320382E0,-4.141212255E-2,2.359558940E-1,3.315633163E-2
6.717592049E0,-4.567318037E-2,2.450106442E-1,3.368896246E-2
6.737992049E0,-5.099949613E-2,2.492716908E-1,3.315633163E-2
6.758135278E0,-5.366265774E-2,2.668485343E-1,2.942790836E-2
6.778406945E0,-5.579318479E-2,2.759032845E-1,2.356895804E-2
6.798678559E0,-5.472791940E-2,2.673811615E-1,2.090579830E-2
6.818871632E0,-5.419528857E-2,2.599243224E-1,2.197106183E-2
6.839271632E0,-5.472791940E-2,2.530001104E-1,2.143843099E-2
6.859493559E0,-5.313002318E-2,2.434127480E-1,1.824264042E-2
6.879765122E0,-4.194475710E-2,2.242379934E-1,1.771000773E-2
6.900036736E0,-2.969422378E-2,1.992042959E-1,1.611211337E-2
6.920308351E0,-1.957421936E-2,1.784316599E-1,1.504684892E-2
6.940708351E0,-1.051947847E-2,1.640505940E-1,1.344895363E-2
6.960851424E0,-9.321057005E-4,1.358211190E-1,1.185105834E-2
6.981123091E0,1.185105834E-2,9.480846673E-2,1.504684892E-2
7.001394705E0,1.611211337E-2,6.391581893E-2,1.451421715E-2
7.021666320E0,1.771000773E-2,3.262370080E-2,7.057371549E-3
7.042066320E0,1.877527125E-2,-3.062632866E-3,-1.997369342E-3
7.062209497E0,2.197106183E-2,-4.354264960E-2,-7.856319658E-3
7.082481059E0,2.623211779E-2,-6.964161247E-2,-1.424790081E-2
7.102752622E0,2.996053919E-2,-9.840372950E-2,-1.637842879E-2
7.123024236E0,3.422159329E-2,-1.223721579E-1,-1.744369231E-2
7.143295799E0,3.581948951E-2,-1.399490088E-1,-1.584579609E-2
7.163567361E0,3.848264739E-2,-1.633848101E-1,-2.063948289E-2
7.183838976E0,4.647212476E-2,-1.852227151E-1,-2.756369673E-2
7.204110539E0,5.339634046E-2,-2.012016773E-1,-3.768370301E-2
7.224382101E0,5.233107507E-2,-2.038648278E-1,-3.874896467E-2
7.244653664E0,4.753739014E-2,-2.012016773E-1,-3.661843762E-2
7.264925278E0,4.061317816E-2,-1.862879843E-1,-3.129211813E-2
7.285196841E0,4.008054361E-2,-1.639174372E-1,-2.170474641E-2
7.305468403E0,4.593949392E-2,-1.532648057E-1,-1.318263728E-2
7.325739966E0,5.286370963E-2,-1.410142779E-1,-7.856319658E-3
7.346011528E0,5.605949834E-2,-1.276984811E-1,-1.211737376E-2
7.366283091E0,5.659212917E-2,-1.197090000E-1,-1.211737376E-2
7.386554653E0,4.540686309E-2,-1.005342528E-1,-1.531316526E-2
7.406826216E0,2.783001214E-2,-8.082687855E-2,-1.850895584E-2
7.427097726E0,1.504684892E-2,-5.472791940E-2,-1.904158667E-2
7.447369289E0,-1.997369342E-3,-3.129211813E-2,-1.478053257E-2
7.467640851E0,-1.211737376E-2,-9.454214945E-3,-1.158474199E-2
7.487912414E0,-8.921583183E-3,1.025316212E-2,-1.318263728E-2
7.508183976E0,4.394212738E-3,1.131842658E-2,-1.265000552E-2
7.528455434E0,1.771000773E-2,4.394212738E-3,-8.921583183E-3
7.548727049E0,2.569948509E-2,7.057371549E-3,-8.921583183E-3
7.568998611E0,2.250369452E-2,2.090579830E-2,-4.660528619E-3
7.589270070E0,1.504684892E-2,2.037316747E-2,-3.595264861E-3
7.609541684E0,8.655266836E-3,1.557948068E-2,-3.062632866E-3
7.629813195E0,-2.530001104E-3,1.930790395E-2,-5.725792143E-3
7.650084705E0,-1.637842879E-2,1.824264042E-2,-6.791055668E-3
7.670356268E0,-3.075948730E-2,2.197106183E-2,-6.791055668E-3
7.690627778E0,-4.034686089E-2,2.942790836E-2,-7.856319658E-3
7.710899289E0,-4.407528415E-2,2.569948509E-2,-5.725792143E-3
7.731170799E0,-3.981423005E-2,2.197106183E-2,-6.258423906E-3
7.751442309E0,-3.182475269E-2,1.717737690E-2,-6.791055668E-3
7.771713872E0,-2.756369673E-2,2.037316747E-2,-4.660528619E-3
7.791985382E0,-2.330264263E-2,3.408843651E-2,-1.997369342E-3
7.812256893E0,-1.904158667E-2,3.675159439E-2,1.198421582E-3
7.832528403E0,-1.904158667E-2,3.781685978E-2,1.731053460E-3
7.852799914E0,-2.330264263E-2,3.834949061E-2,1.198421582E-3
7.873071372E0,-2.703106403E-2,4.048001766E-2,-4.127896391E-3
7.893342882E0,-2.862896025E-2,4.261054471E-2,-7.856319658E-3
7.913614393E0,-3.182475269E-2,4.527370632E-2,-1.158474199E-2
7.933885903E0,-2.809632942E-2,3.368896246E-2,-9.986846708E-3
7.954157414E0,-2.010685205E-2,2.143843099E-2,-7.323687430E-3
7.974428872E0,-9.986846708E-3,1.451421715E-2,-7.323687430E-3
7.994700382E0,-4.660528619E-3,2.037316747E-2,-5.725792143E-3
8.014971893E0,2.263685223E-3,2.410159074E-2,1.331579551E-4
8.035243351E0,2.796316985E-3,2.836264484E-2,3.861580743E-3
8.055514861E0,2.796316985E-3,3.262370080E-2,5.459476262E-3
8.075786320E0,1.731053460E-3,4.527370632E-2,3.328948980E-3
8.096057778E0,6.657897611E-4,6.125266105E-2,4.394212738E-3
8.116329289E0,-2.530001104E-3,6.977476925E-2,5.459476262E-3
8.136600747E0,-7.856319658E-3,6.924213469E-2,8.655266836E-3
8.156872257E0,-9.986846708E-3,7.084003091E-2,9.720530361E-3
8.177143716E0,-1.105211023E-2,8.042740822E-2,1.185105834E-2
8.197415174E0,-2.543316968E-2,1.017326787E-1,1.398158539E-2
8.217686632E0,-3.608580679E-2,1.272990108E-1,1.824264042E-2
8.238086632E0,-4.567318037E-2,1.480716467E-1,2.250369452E-2
8.258229549E0,-5.206476152E-2,1.629853398E-1,2.463422157E-2
8.278501007E0,-5.898897350E-2,1.901495606E-1,2.410159074E-2
8.298772466E0,-6.111950055E-2,2.146506310E-1,2.783001214E-2
8.319043924E0,-5.206476152E-2,2.434127480E-1,3.102580272E-2
8.339443924E0,-4.833633825E-2,2.689790726E-1,3.635212034E-2
8.359586841E0,-4.940159991E-2,2.934801280E-1,4.380896688E-2
8.379858299E0,-5.579318479E-2,3.211769760E-1,4.966791719E-2
8.400129705E0,-6.325002760E-2,3.595264852E-1,5.073318258E-2
8.420401164E0,-6.165213138E-2,3.904191256E-1,5.020054802E-2
8.440801164E0,-6.111950055E-2,4.021370113E-1,4.700475931E-2
8.460944028E0,-6.538055837E-2,4.410191476E-1,4.274370521E-2
8.481215434E0,-7.603318989E-2,4.905539155E-1,4.380896688E-2
8.501486893E0,-9.361004084E-2,4.974781275E-1,5.392897129E-2
8.521758299E0,-1.021321490E-1,4.937497079E-1,5.819002539E-2
8.542029705E0,-9.627319872E-2,4.612591565E-1,6.245107949E-2
8.562301164E0,-8.189214021E-2,4.383559823E-1,5.712476373E-2
8.582572570E0,-8.082687855E-2,4.250401855E-1,4.327633604E-2
8.602843976E0,-8.934898674E-2,3.829622865E-1,3.209106624E-2
8.623115382E0,-9.893636405E-2,3.307643533E-1,2.783001214E-2
8.643386789E0,-1.085237339E-1,3.121222556E-1,2.516685426E-2
8.663658195E0,-1.165132076E-1,3.605917394E-1,3.795001656E-2
8.683929653E0,-1.133174226E-1,3.739075363E-1,5.446160212E-2
8.704201059E0,-1.170458421E-1,3.318296373E-1,6.298371404E-2
8.724472466E0,-1.202416345E-1,2.769685388E-1,5.499423668E-2
8.744743820E0,-1.266332120E-1,2.604569495E-1,4.008054361E-2
8.765015226E0,-1.303616315E-1,2.455432713E-1,3.315633163E-2
8.785286632E0,-1.298290044E-1,2.295643091E-1,3.155843541E-2
8.805558039E0,-1.298290044E-1,2.141179889E-1,3.315633163E-2
8.825829393E0,-1.335574239E-1,1.848232448E-1,4.167843983E-2
8.846100799E0,-1.335574239E-1,1.416800618E-1,3.741738573E-2
8.866372205E0,-1.282311082E-1,8.735162020E-2,1.131842658E-2
8.886643559E0,-1.213068962E-1,5.699160323E-2,-2.010685205E-2
8.906914966E0,-1.149153188E-1,4.314317927E-2,-2.916159295E-2
8.927186320E0,-1.159805804E-1,2.996053919E-2,-1.957421936E-2
8.947457674E0,-1.314269006E-1,1.771000773E-2,-4.660528619E-3
8.967729080E0,-1.372858584E-1,2.303632535E-2,2.796316985E-3
8.988000434E0,-1.319595277E-1,3.462106735E-2,-2.530001104E-3
9.008271841E0,-1.218395308E-1,3.834949061E-2,-1.211737376E-2
9.028543195E0,-1.159805804E-1,4.580633715E-2,-8.921583183E-3
9.048814549E0,-1.117195264E-1,5.858949944E-2,2.796316985E-3
9.069085903E0,-1.111868918E-1,7.456845790E-2,1.344895363E-2
9.089357257E0,-1.165132076E-1,6.657897681E-2,1.344895363E-2
9.109628611E0,-1.117195264E-1,3.155843541E-2,-9.321057005E-4
9.129899966E0,-9.467530251E-2,-1.371526904E-2,-2.277000993E-2
9.150171320E0,-7.443529367E-2,-4.833633825E-2,-3.608580679E-2
9.170442674E0,-6.271740049E-2,-6.218476593E-2,-3.661843762E-2
9.190714028E0,-5.845634267E-2,-5.366265774E-2,-2.223737910E-2
9.210985330E0,-5.632581562E-2,-3.395527974E-2,-1.371526904E-2
9.231256684E0,-6.804371625E-2,-1.904158667E-2,-1.318263728E-2
9.251528039E0,-7.390266657E-2,5.459476262E-3,-5.725792143E-3
9.271799341E0,-7.230477035E-2,2.729738131E-2,-1.211737376E-2
9.292070695E0,-6.804371625E-2,3.994738683E-2,-1.691105962E-2
9.312341997E0,-7.070687413E-2,7.510108501E-2,-1.478053257E-2
9.332613351E0,-6.697845459E-2,7.456845790E-2,-9.986846708E-3
9.352884653E0,-6.591318548E-2,6.977476925E-2,-3.062632866E-3
9.373156007E0,-6.751108170E-2,4.846949503E-2,-5.193160381E-3
9.393427309E0,-5.579318479E-2,2.889527567E-2,-1.265000552E-2
9.413698664E0,-3.768370301E-2,1.504684892E-2,-2.170474641E-2
9.433969966E0,-1.637842879E-2,6.657897611E-4,-2.809632942E-2
9.454241268E0,-5.725792143E-3,-1.211737376E-2,-3.022685647E-2
9.474512570E0,-3.062632866E-3,-1.424790081E-2,-3.502054140E-2
9.494783872E0,-2.530001104E-3,-2.383527346E-2,-3.502054140E-2
9.515055174E0,-1.464737463E-3,-2.117211558E-2,-3.395527974E-2
9.535326476E0,-1.997369342E-3,1.331579551E-4,-3.289001435E-2
9.555597778E0,-6.258423906E-3,1.198421582E-3,-2.756369673E-2
9.575869132E0,-1.318263728E-2,-8.921583183E-3,-2.436790615E-2
9.596140382E0,-1.637842879E-2,-7.856319658E-3,-2.543316968E-2
9.616411632E0,-1.584579609E-2,7.057371549E-3,-2.436790615E-2
9.636801789E0,-1.850895584E-2,-2.277000993E-2,-1.744369231E-2
9.656954289E0,-2.383527346E-2,-5.792371184E-2,-2.330264263E-2
9.677225591E0,-2.117211558E-2,-6.325002760E-2,-2.277000993E-2
9.697496893E0,-4.460791498E-2,-7.709845901E-2,-1.850895584E-2
9.717768143E0,-5.632581562E-2,-8.721846342E-2,-3.022685647E-2
9.738168143E0,-4.087949172E-2,-8.881635964E-2,-5.685844645E-2
9.758310695E0,-1.637842879E-2,-7.550056279E-2,-7.283740491E-2
9.778581997E0,-1.265000552E-2,-9.041424841E-2,-4.407528415E-2
9.798853247E0,-2.543316968E-2,-1.159805804E-1,4.394212738E-3
9.819203247E0,-3.395527974E-2,-1.111868918E-1,1.504684892E-2
9.839553455E0,-7.323687430E-3,-1.047953144E-1,-3.062632866E-3
9.859667361E0,-2.223737910E-2,-5.313002318E-2,-3.768370301E-2
9.879938559E0,-2.543316968E-2,-9.840372950E-2,-5.366265774E-2
9.900209757E0,-1.997369342E-3,-1.170458421E-1,-6.058686972E-2
9.920481059E0,1.930790395E-2,-6.910897791E-2,-7.869634777E-2
9.940881059E0,-1.531316526E-2,-5.792371184E-2,-7.337003201E-2
9.961023559E0,-3.555317223E-2,-9.520793706E-2,-3.075948730E-2
9.981294757E0,-1.997369342E-3,-1.159805804E-1,1.557948068E-2
1.000156601E1,2.836264484E-2,-1.031974182E-1,1.824264042E-2
1.002183726E1,3.049317189E-2,-4.141212255E-2,-1.211737376E-2
1.004223726E1,4.394212738E-3,3.209106624E-2,-2.916159295E-2
1.006237976E1,-4.194475710E-2,8.575372398E-2,-1.211737376E-2
1.008265101E1,-1.330247968E-1,1.049284711E-1,9.720530361E-3
1.010292220E1,-2.006690353E-1,1.113200486E-1,7.590003312E-3
1.012319346E1,-1.921469271E-1,2.167811543E-1,7.590003312E-3
1.014346471E1,-1.474058628E-1,3.222422600E-1,2.037316747E-2
1.016373596E1,-1.122521535E-1,3.190464675E-1,4.274370521E-2
1.018400720E1,-8.668582886E-2,2.279664129E-1,4.807002097E-2
1.020427835E1,-6.378266215E-2,1.720400751E-1,2.729738131E-2
1.022454960E1,-4.780370742E-2,1.278316379E-1,6.657897611E-4
1.024482080E1,-4.407528415E-2,8.468846232E-2,-1.584579609E-2
1.026509205E1,-4.940159991E-2,5.326318368E-2,-2.490053698E-2
1.028536330E1,-5.845634267E-2,2.623211779E-2,-2.916159295E-2
1.030563450E1,-5.632581562E-2,3.049317189E-2,-2.862896025E-2
1.032590570E1,-4.407528415E-2,4.793686420E-2,-2.277000993E-2
1.034617694E1,-2.916159295E-2,6.338318437E-2,-7.323687430E-3
1.036644814E1,-2.063948289E-2,8.309056610E-2,-3.595264861E-3
1.038671939E1,-1.904158667E-2,1.012000442E-1,1.331579551E-4
1.040699059E1,-1.584579609E-2,9.853688627E-2,5.992108025E-3
1.042726179E1,-6.791055668E-3,9.321057051E-2,7.057371549E-3
1.044753304E1,-3.994738800E-4,6.817687303E-2,-1.464737463E-3
1.046780418E1,8.122635074E-3,3.368896246E-2,-1.158474199E-2
1.048807543E1,2.197106183E-2,2.796316985E-3,-2.063948289E-2
1.050834663E1,2.836264484E-2,-1.158474199E-2,-2.277000993E-2
1.052861783E1,2.623211779E-2,-1.531316526E-2,-1.957421936E-2
1.054888903E1,2.676474862E-2,-1.584579609E-2,-1.424790081E-2
1.056916023E1,2.516685426E-2,-1.850895584E-2,-9.986846708E-3
1.058943142E1,2.250369452E-2,-2.063948289E-2,-9.454214945E-3
1.060970257E1,1.930790395E-2,-2.170474641E-2,-9.454214945E-3
1.062997377E1,1.877527125E-2,-1.584579609E-2,-7.856319658E-3
1.065024497E1,1.557948068E-2,-1.531316526E-2,-5.193160381E-3
1.067051616E1,1.025316212E-2,-1.904158667E-2,-3.062632866E-3
1.069078731E1,7.057371549E-3,-1.051947847E-2,-6.258423906E-3
1.071105851E1,5.459476262E-3,-1.531316526E-2,-6.258423906E-3
1.073132970E1,3.861580743E-3,-1.211737376E-2,-1.997369342E-3
1.075160085E1,-4.660528619E-3,-1.478053257E-2,-1.464737463E-3
1.077187205E1,-1.105211023E-2,-1.478053257E-2,-1.997369342E-3
1.079214320E1,-1.211737376E-2,-1.478053257E-2,-1.997369342E-3
1.081241434E1,-1.318263728E-2,-1.105211023E-2,-9.321057005E-4
1.083268554E1,-9.986846708E-3,-2.530001104E-3,1.331579551E-4
1.085295668E1,-8.921583183E-3,-6.258423906E-3,-3.994738800E-4
1.087322783E1,-8.921583183E-3,-3.595264861E-3,-1.464737463E-3
1.089349903E1,-1.105211023E-2,1.198421582E-3,-2.530001104E-3
1.091377017E1,-1.265000552E-2,4.926844500E-3,-1.997369342E-3
1.093404127E1,-1.051947847E-2,1.185105834E-2,-7.323687430E-3
1.095431247E1,-5.725792143E-3,9.720530361E-3,-1.051947847E-2
1.097458361E1,-3.994738800E-4,1.131842658E-2,-1.265000552E-2
1.099485481E1,-9.321057005E-4,1.291632187E-2,-1.478053257E-2
1.101512596E1,1.331579551E-4,1.611211337E-2,-1.265000552E-2
1.103539710E1,-3.062632866E-3,1.717737690E-2,-1.105211023E-2
1.105566825E1,-2.530001104E-3,1.504684892E-2,-1.051947847E-2
1.107593934E1,-3.595264861E-3,1.930790395E-2,-9.986846708E-3
1.109621049E1,6.657897611E-4,2.889527567E-2,-7.856319658E-3
1.111648163E1,-1.464737463E-3,3.462106735E-2,-4.127896391E-3
1.113683148E1,-2.530001104E-3,3.462106735E-2,-1.997369342E-3
1.115702398E1,-4.127896391E-3,3.515370190E-2,-2.530001104E-3
1.117729512E1,-4.660528619E-3,3.315633163E-2,-4.127896391E-3
1.119756627E1,-4.660528619E-3,2.996053919E-2,-3.062632866E-3
1.121783731E1,-5.193160381E-3,2.783001214E-2,-2.530001104E-3
1.123823731E1,-4.660528619E-3,2.889527567E-2,-1.464737463E-3
1.125837955E1,-3.595264861E-3,2.729738131E-2,-9.321057005E-4
1.127865064E1,-2.530001104E-3,1.984053478E-2,-2.530001104E-3
1.129892174E1,-5.725792143E-3,1.504684892E-2,-4.127896391E-3
1.131919288E1,-5.193160381E-3,2.037316747E-2,-4.127896391E-3
1.133959288E1,-8.388951421E-3,2.250369452E-2,-1.997369342E-3
1.135973512E1,-8.388951421E-3,2.143843099E-2,-1.464737463E-3
1.138000622E1,-7.323687430E-3,1.611211337E-2,-3.994738800E-4
1.140027731E1,-7.323687430E-3,1.398158539E-2,-9.321057005E-4
1.142054840E1,-6.258423906E-3,1.930790395E-2,-9.321057005E-4
1.144094840E1,-6.791055668E-3,1.771000773E-2,-9.321057005E-4
1.146109054E1,-7.323687430E-3,9.720530361E-3,-3.994738800E-4
1.148136163E1,-7.323687430E-3,7.057371549E-3,-3.595264861E-3
1.150163273E1,-9.454214945E-3,9.187898599E-3,-4.127896391E-3
1.152190382E1,-7.323687430E-3,1.238369010E-2,-3.062632866E-3
1.154230382E1,-3.595264861E-3,5.992108025E-3,-1.997369342E-3
1.156244601E1,-3.062632866E-3,2.796316985E-3,-2.530001104E-3
1.158271710E1,-3.994738800E-4,6.524739787E-3,-2.530001104E-3
1.160298814E1,-3.994738800E-4,1.731053460E-3,-1.997369342E-3
1.162325924E1,-3.994738800E-4,-1.464737463E-3,-1.997369342E-3
1.167898346E1,-9.321057005E-4,6.657897611E-4,-3.595264861E-3
1.169920694E1,-9.321057005E-4,-1.464737463E-3,-3.595264861E-3
1.171946960E1,-3.062632866E-3,-3.595264861E-3,-1.464737463E-3
1.173975043E1,-9.454214945E-3,-4.660528619E-3,-2.530001104E-3
1.176002132E1,-1.371526904E-2,6.657897611E-4,-1.464737463E-3
1.178029231E1,-1.265000552E-2,8.122635074E-3,-3.994738800E-4
1.180056340E1,-1.371526904E-2,4.926844500E-3,1.731053460E-3
1.182083445E1,-1.478053257E-2,3.861580743E-3,2.796316985E-3
1.184110549E1,-1.478053257E-2,9.187898599E-3,1.731053460E-3
1.186137653E1,-1.371526904E-2,1.451421715E-2,-3.994738800E-4
1.188164762E1,-1.158474199E-2,7.057371549E-3,-3.994738800E-4
1.190191866E1,-1.051947847E-2,2.796316985E-3,6.657897611E-4
1.192218971E1,-9.454214945E-3,9.187898599E-3,-1.464737463E-3
1.194258971E1,-7.323687430E-3,8.122635074E-3,-2.530001104E-3
1.196273179E1,-5.193160381E-3,3.861580743E-3,-2.530001104E-3
1.198300283E1,-3.062632866E-3,1.731053460E-3,-3.595264861E-3
1.200327387E1,1.331579551E-4,3.861580743E-3,-2.530001104E-3
1.202354491E1,1.198421582E-3,4.926844500E-3,-1.464737463E-3
1.204394491E1,-9.321057005E-4,7.057371549E-3,-1.464737463E-3
1.206408700E1,-1.997369342E-3,1.131842658E-2,-3.994738800E-4
1.208435804E1,1.331579551E-4,1.557948068E-2,6.657897611E-4
1.210462903E1,-9.321057005E-4,1.238369010E-2,1.731053460E-3
1.212490007E1,2.263685223E-3,5.992108025E-3,-3.994738800E-4
1.214530007E1,4.394212738E-3,7.057371549E-3,-2.530001104E-3
1.216544210E1,4.394212738E-3,1.238369010E-2,-2.530001104E-3
1.218571314E1,3.328948980E-3,7.057371549E-3,6.657897611E-4
1.220598413E1,3.328948980E-3,3.861580743E-3,1.731053460E-3
1.222625517E1,3.328948980E-3,7.057371549E-3,-3.994738800E-4
1.224665517E1,4.394212738E-3,8.122635074E-3,-3.994738800E-4
1.226679721E1,1.331579551E-4,4.926844500E-3,6.657897611E-4
1.228706820E1,-3.062632866E-3,3.861580743E-3,1.731053460E-3
1.230733918E1,-1.997369342E-3,7.057371549E-3,2.796316985E-3
1.232761017E1,1.331579551E-4,8.122635074E-3,2.796316985E-3
1.234788122E1,2.263685223E-3,2.796316985E-3,3.861580743E-3
1.236815221E1,2.263685223E-3,-3.994738800E-4,2.796316985E-3
1.238842320E1,-9.321057005E-4,-1.464737463E-3,6.657897611E-4
1.240869418E1,-1.997369342E-3,-1.464737463E-3,6.657897611E-4
1.242896517E1,1.331579551E-4,-4.660528619E-3,1.731053460E-3
1.244936517E1,2.263685223E-3,-7.856319658E-3,2.796316985E-3
1.246950814E1,2.263685223E-3,-6.791055668E-3,2.796316985E-3
1.248977898E1,3.328948980E-3,-4.660528619E-3,3.861580743E-3
1.251004976E1,2.263685223E-3,-6.791055668E-3,2.796316985E-3
1.253032059E1,3.328948980E-3,-5.725792143E-3,6.657897611E-4
1.255059148E1,3.328948980E-3,-5.725792143E-3,1.731053460E-3
1.257086241E1,4.394212738E-3,-6.791055668E-3,2.796316985E-3
1.259113325E1,4.394212738E-3,-7.856319658E-3,3.861580743E-3
1.261140418E1,4.394212738E-3,-1.464737463E-3,2.796316985E-3
1.263167512E1,7.590003312E-3,4.926844500E-3,2.796316985E-3
1.265194606E1,7.590003312E-3,-1.464737463E-3,3.861580743E-3
1.267221705E1,7.590003312E-3,-8.921583183E-3,1.731053460E-3
1.269248799E1,1.078579482E-2,-6.791055668E-3,-3.994738800E-4
1.271275892E1,1.291632187E-2,-4.660528619E-3,-1.464737463E-3
1.273302991E1,1.291632187E-2,-9.986846708E-3,1.731053460E-3
1.275330085E1,1.185105834E-2,-8.921583183E-3,1.731053460E-3
1.277357174E1,9.720530361E-3,-4.660528619E-3,1.731053460E-3
1.279384273E1,8.655266836E-3,6.657897611E-4,6.657897611E-4
1.281411366E1,3.328948980E-3,-1.464737463E-3,-3.994738800E-4
1.283438460E1,1.331579551E-4,-1.464737463E-3,-1.464737463E-3
1.285465559E1,-9.321057005E-4,7.057371549E-3,-1.464737463E-3
1.287492653E1,-1.997369342E-3,7.057371549E-3,-1.464737463E-3
1.289519747E1,-9.321057005E-4,4.926844500E-3,-3.994738800E-4
1.291546840E1,-9.321057005E-4,5.992108025E-3,-3.994738800E-4
1.293573934E1,-1.997369342E-3,9.187898599E-3,-2.530001104E-3
1.295601028E1,-3.062632866E-3,9.187898599E-3,-2.530001104E-3
1.297628122E1,-4.127896391E-3,3.861580743E-3,-2.530001104E-3
1.299655215E1,-9.321057005E-4,6.657897611E-4,-1.464737463E-3
1.301682309E1,-9.321057005E-4,6.657897611E-4,-3.994738800E-4
1.303709403E1,-1.997369342E-3,1.731053460E-3,-2.530001104E-3
1.305736497E1,-4.127896391E-3,-2.530001104E-3,-4.660528619E-3
1.307763590E1,-3.062632866E-3,-6.791055668E-3,-3.595264861E-3
1.309790679E1,1.331579551E-4,-5.725792143E-3,-5.725792143E-3
1.311817773E1,2.263685223E-3,-3.595264861E-3,-5.725792143E-3
1.313844866E1,1.331579551E-4,-3.994738800E-4,-3.595264861E-3
1.315871955E1,-5.193160381E-3,2.796316985E-3,-3.994738800E-4
1.317899049E1,-8.388951421E-3,1.025316212E-2,6.657897611E-4
1.319926142E1,-5.193160381E-3,1.238369010E-2,6.657897611E-4
1.321953231E1,-3.062632866E-3,4.926844500E-3,-1.464737463E-3
1.323980320E1,-3.062632866E-3,5.992108025E-3,-4.660528619E-3
1.326007413E1,-5.193160381E-3,3.861580743E-3,-3.595264861E-3
1.328034502E1,-7.323687430E-3,3.861580743E-3,-2.530001104E-3
1.330061596E1,-4.127896391E-3,3.861580743E-3,-1.464737463E-3
1.332088684E1,-9.321057005E-4,-3.994738800E-4,-1.464737463E-3
1.334115767E1,1.198421582E-3,-2.530001104E-3,-2.530001104E-3
1.336142866E1,-9.321057005E-4,1.731053460E-3,-3.595264861E-3
1.338169955E1,-9.454214945E-3,2.796316985E-3,-5.725792143E-3
1.340197043E1,-1.051947847E-2,3.861580743E-3,-5.725792143E-3
1.342224132E1,-9.454214945E-3,4.926844500E-3,-2.530001104E-3
1.344264132E1,-6.258423906E-3,9.187898599E-3,-1.464737463E-3
1.346278309E1,-4.127896391E-3,1.131842658E-2,-1.464737463E-3
1.348305403E1,-4.127896391E-3,1.025316212E-2,-1.464737463E-3
1.350332486E1,-5.193160381E-3,7.057371549E-3,-1.464737463E-3
1.352359580E1,-5.193160381E-3,4.926844500E-3,-2.530001104E-3
1.354399580E1,-7.323687430E-3,4.926844500E-3,-2.530001104E-3
1.356413747E1,-6.258423906E-3,4.926844500E-3,-3.595264861E-3
1.358440840E1,-4.127896391E-3,3.861580743E-3,-1.464737463E-3
1.360467929E1,-3.062632866E-3,5.992108025E-3,6.657897611E-4
1.362495017E1,-1.997369342E-3,4.926844500E-3,-3.994738800E-4
1.364535017E1,-5.193160381E-3,4.926844500E-3,-2.530001104E-3
1.366549195E1,-5.193160381E-3,1.731053460E-3,-1.464737463E-3
1.368576278E1,-6.258423906E-3,3.861580743E-3,-3.595264861E-3
1.370603366E1,-7.323687430E-3,4.926844500E-3,-2.530001104E-3
1.372630455E1,-7.323687430E-3,7.057371549E-3,-3.994738800E-4
1.374670455E1,-6.258423906E-3,9.187898599E-3,-3.994738800E-4
1.376684627E1,-7.323687430E-3,9.187898599E-3,-3.994738800E-4
1.378711710E1,-6.258423906E-3,7.057371549E-3,6.657897611E-4
1.380738799E1,-6.258423906E-3,4.926844500E-3,-1.464737463E-3
1.382765882E1,-8.388951421E-3,8.122635074E-3,-1.464737463E-3
1.384792970E1,-5.193160381E-3,1.238369010E-2,6.657897611E-4
1.386820054E1,-3.062632866E-3,7.057371549E-3,3.861580743E-3
1.388847137E1,1.331579551E-4,5.992108025E-3,2.796316985E-3
1.390874226E1,3.328948980E-3,2.796316985E-3,-3.994738800E-4
1.392901309E1,5.459476262E-3,-3.994738800E-4,-2.530001104E-3
1.394928392E1,2.263685223E-3,-1.464737463E-3,-1.464737463E-3
1.396955476E1,1.331579551E-4,-3.595264861E-3,-3.994738800E-4
1.398982564E1,2.263685223E-3,-3.595264861E-3,6.657897611E-4
1.401009648E1,3.328948980E-3,4.926844500E-3,1.731053460E-3
1.403036731E1,3.328948980E-3,1.731053460E-3,6.657897611E-4
1.405063814E1,-9.321057005E-4,-3.595264861E-3,-2.530001104E-3
1.407090898E1,-4.127896391E-3,2.796316985E-3,-4.660528619E-3
1.409117981E1,-6.258423906E-3,1.025316212E-2,-1.464737463E-3
1.411145064E1,-6.258423906E-3,1.025316212E-2,6.657897611E-4
1.413172148E1,-5.193160381E-3,1.131842658E-2,1.731053460E-3
1.415199226E1,-8.388951421E-3,1.771000773E-2,1.731053460E-3
1.417226314E1,-1.051947847E-2,2.410159074E-2,2.796316985E-3
1.419253392E1,-7.323687430E-3,2.090579830E-2,2.796316985E-3
1.421280476E1,-4.127896391E-3,1.238369010E-2,6.657897611E-4
1.423307559E1,-5.193160381E-3,9.187898599E-3,-3.994738800E-4
1.425334697E1,-5.193160381E-3,7.057371549E-3,-3.994738800E-4
1.427361775E1,-4.127896391E-3,2.796316985E-3,-1.464737463E-3
1.429388859E1,-4.127896391E-3,-1.464737463E-3,-2.530001104E-3
1.431415942E1,-6.258423906E-3,1.731053460E-3,-3.595264861E-3
1.433443020E1,-5.193160381E-3,6.657897611E-4,-3.595264861E-3
1.435470098E1,-4.127896391E-3,1.731053460E-3,-2.530001104E-3
1.437497182E1,-9.321057005E-4,9.187898599E-3,-2.530001104E-3
1.439524265E1,1.198421582E-3,8.122635074E-3,1.731053460E-3
1.441551338E1,1.198421582E-3,3.861580743E-3,4.926844500E-3
1.443578426E1,1.331579551E-4,5.992108025E-3,2.796316985E-3
1.445605505E1,-1.997369342E-3,2.796316985E-3,1.731053460E-3
1.447632588E1,1.331579551E-4,-7.856319658E-3,4.926844500E-3
1.449659666E1,5.459476262E-3,-9.986846708E-3,1.731053460E-3
1.451686744E1,7.590003312E-3,-1.318263728E-2,-1.464737463E-3
1.453713822E1,1.185105834E-2,-9.986846708E-3,-2.530001104E-3
1.455740906E1,1.930790395E-2,-1.105211023E-2,-2.530001104E-3
1.457767984E1,2.250369452E-2,-2.383527346E-2,-3.994738800E-4
1.459795062E1,1.611211337E-2,-1.318263728E-2,6.657897611E-4
1.461822145E1,1.398158539E-2,2.796316985E-3,-1.464737463E-3
1.463849223E1,1.398158539E-2,-7.856319658E-3,2.796316985E-3
1.465876302E1,9.720530361E-3,-8.921583183E-3,4.926844500E-3
1.467903380E1,7.590003312E-3,1.025316212E-2,1.731053460E-3
1.469930458E1,6.524739787E-3,1.451421715E-2,-3.994738800E-4
1.471957536E1,3.328948980E-3,4.926844500E-3,1.731053460E-3
1.473984614E1,1.331579551E-4,9.187898599E-3,-3.994738800E-4
1.476011692E1,-7.323687430E-3,1.877527125E-2,-1.464737463E-3
1.478038770E1,-1.158474199E-2,1.984053478E-2,6.657897611E-4
1.480065843E1,-1.158474199E-2,1.344895363E-2,1.731053460E-3
1.482092921E1,-8.388951421E-3,1.025316212E-2,6.657897611E-4
1.484119999E1,-9.454214945E-3,1.025316212E-2,-1.464737463E-3
1.486147078E1,-1.478053257E-2,1.664474420E-2,-2.530001104E-3
1.488174156E1,-1.584579609E-2,1.131842658E-2,6.657897611E-4
1.490201229E1,-1.158474199E-2,2.796316985E-3,6.657897611E-4
1.492228307E1,-7.323687430E-3,2.796316985E-3,-3.994738800E-4
1.494268307E1,-8.388951421E-3,2.796316985E-3,-3.994738800E-4
1.496282458E1,-7.323687430E-3,4.926844500E-3,6.657897611E-4
1.498309531E1,-7.323687430E-3,3.861580743E-3,-3.994738800E-4
1.500336609E1,-8.388951421E-3,1.731053460E-3,-3.994738800E-4
1.502363687E1,-7.323687430E-3,9.187898599E-3,-2.530001104E-3
1.504403687E1,-3.062632866E-3,7.057371549E-3,-2.530001104E-3
1.506417838E1,-6.258423906E-3,7.057371549E-3,-1.464737463E-3
1.508444911E1,-8.388951421E-3,1.557948068E-2,-2.530001104E-3
1.510471984E1,-8.388951421E-3,1.664474420E-2,-3.994738800E-4
1.512499062E1,-5.193160381E-3,7.057371549E-3,2.796316985E-3
1.514539062E1,-4.127896391E-3,1.731053460E-3,2.796316985E-3
1.516553208E1,1.198421582E-3,3.861580743E-3,2.796316985E-3
1.518580281E1,1.331579551E-4,8.122635074E-3,3.861580743E-3
1.520607359E1,-3.062632866E-3,-3.595264861E-3,2.796316985E-3
1.522634432E1,-4.127896391E-3,-8.921583183E-3,-3.994738800E-4
1.524674432E1,-1.997369342E-3,-6.791055668E-3,-3.595264861E-3
1.526688578E1,1.331579551E-4,-1.105211023E-2,-3.595264861E-3
1.528715650E1,2.263685223E-3,-1.637842879E-2,-1.464737463E-3
1.530742723E1,-1.997369342E-3,-1.211737376E-2,-1.464737463E-3
1.532769791E1,-4.127896391E-3,-2.530001104E-3,-3.994738800E-4
1.534796869E1,-5.193160381E-3,-1.464737463E-3,-1.464737463E-3
1.536823942E1,-8.388951421E-3,-4.660528619E-3,6.657897611E-4
1.538851015E1,-7.323687430E-3,1.731053460E-3,-1.464737463E-3
1.540878088E1,-1.051947847E-2,3.861580743E-3,-3.994738800E-4
1.542905156E1,-1.051947847E-2,3.861580743E-3,1.731053460E-3
1.544932229E1,-9.454214945E-3,7.057371549E-3,6.657897611E-4
1.546959302E1,-7.323687430E-3,7.057371549E-3,-3.994738800E-4
1.548986374E1,-4.127896391E-3,3.861580743E-3,-3.994738800E-4
1.551013447E1,-1.997369342E-3,3.861580743E-3,-3.994738800E-4
1.553040515E1,-3.062632866E-3,7.057371549E-3,-1.464737463E-3
1.555067588E1,-4.127896391E-3,5.992108025E-3,-1.464737463E-3
1.557094656E1,-3.062632866E-3,1.731053460E-3,1.731053460E-3
1.559121728E1,1.198421582E-3,2.796316985E-3,6.657897611E-4
1.561148802E1,1.331579551E-4,7.057371549E-3,-3.994738800E-4
1.563175869E1,-3.062632866E-3,7.057371549E-3,-1.464737463E-3
1.565202942E1,-4.127896391E-3,3.861580743E-3,1.731053460E-3
1.567230010E1,-3.062632866E-3,-3.994738800E-4,2.796316985E-3
1.569257083E1,-6.258423906E-3,3.861580743E-3,1.731053460E-3
1.571284150E1,-3.062632866E-3,1.131842658E-2,6.657897611E-4
1.573311223E1,-9.321057005E-4,4.926844500E-3,1.731053460E-3
1.575338291E1,-1.997369342E-3,2.796316985E-3,6.657897611E-4
1.577365364E1,-9.321057005E-4,3.861580743E-3,2.796316985E-3
1.579392432E1,5.459476262E-3,5.992108025E-3,1.731053460E-3
1.581419499E1,7.590003312E-3,-1.464737463E-3,2.796316985E-3
1.583446567E1,5.459476262E-3,-5.725792143E-3,-3.994738800E-4
1.585473640E1,4.394212738E-3,-8.921583183E-3,-3.595264861E-3
1.587500708E1,6.524739787E-3,-1.105211023E-2,-2.530001104E-3
1.589527775E1,7.590003312E-3,-1.531316526E-2,-2.530001104E-3
1.591554843E1,7.590003312E-3,-1.531316526E-2,-2.530001104E-3
1.593581911E1,5.459476262E-3,-1.211737376E-2,-1.464737463E-3
1.595608979E1,-9.321057005E-4,-7.856319658E-3,-3.994738800E-4
1.597636046E1,-9.321057005E-4,-4.660528619E-3,-1.464737463E-3
1.599663114E1,-9.321057005E-4,-1.464737463E-3,-2.530001104E-3
1.601690182E1,-3.062632866E-3,3.861580743E-3,-3.595264861E-3
1.603717249E1,-4.127896391E-3,3.861580743E-3,-1.464737463E-3
1.605744317E1,-5.193160381E-3,1.731053460E-3,-1.464737463E-3
1.607771385E1,-4.127896391E-3,3.861580743E-3,-4.660528619E-3
1.609798452E1,-7.323687430E-3,4.926844500E-3,-4.660528619E-3
1.611825520E1,-8.388951421E-3,3.861580743E-3,-5.725792143E-3
1.613852583E1,-6.258423906E-3,2.796316985E-3,-4.660528619E-3
1.615879650E1,-4.127896391E-3,4.926844500E-3,-4.660528619E-3
1.617906713E1,-5.193160381E-3,2.796316985E-3,-3.595264861E-3
1.619933786E1,-4.127896391E-3,7.057371549E-3,-1.464737463E-3
1.621960854E1,-4.127896391E-3,1.025316212E-2,6.657897611E-4
1.623987916E1,-4.127896391E-3,9.187898599E-3,-3.994738800E-4
1.626014984E1,-1.997369342E-3,4.926844500E-3,-2.530001104E-3
1.628042046E1,-4.127896391E-3,3.861580743E-3,-1.464737463E-3
1.630069114E1,-5.193160381E-3,3.861580743E-3,-1.464737463E-3
1.632096176E1,-6.258423906E-3,7.057371549E-3,-2.530001104E-3
1.634123239E1,-5.193160381E-3,-1.464737463E-3,-4.660528619E-3
1.636150312E1,-9.321057005E-4,-1.464737463E-3,-5.725792143E-3
1.638177374E1,2.263685223E-3,4.926844500E-3,-3.595264861E-3
1.640204437E1,-4.127896391E-3,1.731053460E-3,-1.464737463E-3
1.642231499E1,-9.454214945E-3,3.861580743E-3,-3.994738800E-4
1.644271499E1,-9.454214945E-3,4.926844500E-3,-1.464737463E-3
1.646285630E1,-3.062632866E-3,8.122635074E-3,-1.464737463E-3
1.648312692E1,3.328948980E-3,8.122635074E-3,3.861580743E-3
1.650339760E1,1.078579482E-2,8.122635074E-3,4.926844500E-3
1.652366822E1,2.143843099E-2,1.025316212E-2,7.057371549E-3
1.654406822E1,3.209106624E-2,4.926844500E-3,1.344895363E-2
1.656420937E1,4.807002097E-2,-2.530001104E-3,2.516685426E-2
1.658448010E1,7.669898123E-2,-8.921583183E-3,4.008054361E-2
1.662002114E1,1.219726875E-1,1.198421582E-3,4.221107066E-2
1.664045031E1,9.161267430E-2,-2.596580051E-2,2.569948509E-2
1.666056260E1,4.593949392E-2,-3.289001435E-2,9.720530361E-3
1.668083328E1,2.623211779E-2,-2.649843320E-2,-3.994738800E-4
1.670110385E1,3.688475490E-2,-4.886896908E-2,-2.530001104E-3
1.672137447E1,5.819002539E-2,-5.046686530E-2,3.861580743E-3
1.674164510E1,6.351634115E-2,-4.727107286E-2,8.655266836E-3
1.676191572E1,4.647212476E-2,-4.247738793E-2,1.078579482E-2
1.678218635E1,2.889527567E-2,-2.703106403E-2,7.057371549E-3
1.680245697E1,1.557948068E-2,-2.436790615E-2,5.459476262E-3
1.682272755E1,7.057371549E-3,-3.448791057E-2,3.861580743E-3
1.684299817E1,8.122635074E-3,-3.661843762E-2,2.263685223E-3
1.686326880E1,7.590003312E-3,-2.862896025E-2,2.796316985E-3
1.688353942E1,6.657897611E-4,-1.691105962E-2,5.992108025E-3
1.690380999E1,-3.595264861E-3,-1.478053257E-2,8.655266836E-3
1.692408062E1,-8.388951421E-3,-2.063948289E-2,9.187898599E-3
1.694435124E1,-1.051947847E-2,-1.797632314E-2,7.057371549E-3
1.696462182E1,-9.454214945E-3,-1.797632314E-2,3.861580743E-3
1.698489244E1,-9.454214945E-3,-1.371526904E-2,3.861580743E-3
1.700516296E1,-1.211737376E-2,-1.744369231E-2,5.992108025E-3
1.702543359E1,-1.211737376E-2,-7.323687430E-3,5.459476262E-3
1.704583359E1,-8.921583183E-3,-7.323687430E-3,6.524739787E-3
1.706597484E1,-5.725792143E-3,-8.388951421E-3,8.122635074E-3
1.708624541E1,-3.595264861E-3,2.796316985E-3,3.861580743E-3
1.710651604E1,-4.127896391E-3,5.992108025E-3,5.459476262E-3
1.712678661E1,-5.193160381E-3,8.655266836E-3,7.057371549E-3
1.714705723E1,-8.388951421E-3,1.451421715E-2,4.926844500E-3
1.716732781E1,-3.062632866E-3,2.676474862E-2,5.459476262E-3
1.718759838E1,4.394212738E-3,2.569948509E-2,4.926844500E-3
1.720786895E1,5.459476262E-3,2.356895804E-2,6.524739787E-3
1.722813958E1,3.328948980E-3,2.996053919E-2,5.459476262E-3
1.724841015E1,2.796316985E-3,2.889527567E-2,2.796316985E-3
1.726868072E1,1.731053460E-3,2.090579830E-2,-3.062632866E-3
1.728895130E1,1.198421582E-3,1.611211337E-2,-5.725792143E-3
1.730935130E1,6.657897611E-4,1.344895363E-2,-3.595264861E-3
1.732949249E1,2.796316985E-3,1.185105834E-2,-3.994738800E-4
1.734976307E1,-1.464737463E-3,1.398158539E-2,-9.321057005E-4
1.737003364E1,-5.725792143E-3,1.025316212E-2,-1.997369342E-3
1.739030421E1,-8.921583183E-3,1.451421715E-2,-5.193160381E-3
1.741057478E1,-1.158474199E-2,1.451421715E-2,-4.660528619E-3
1.743084536E1,-1.424790081E-2,1.025316212E-2,-9.321057005E-4
1.745111588E1,-1.424790081E-2,7.057371549E-3,2.263685223E-3
1.747138645E1,-1.531316526E-2,3.328948980E-3,-3.994738800E-4
1.749165703E1,-1.584579609E-2,9.720530361E-3,-5.725792143E-3
1.751192760E1,-1.691105962E-2,3.861580743E-3,-4.660528619E-3
1.753219817E1,-1.797632314E-2,-2.530001104E-3,-4.127896391E-3
1.755246874E1,-1.904158667E-2,-7.856319658E-3,-1.997369342E-3
1.757273932E1,-1.744369231E-2,1.731053460E-3,-4.660528619E-3
1.759300984E1,-1.584579609E-2,1.331579551E-4,-4.127896391E-3
1.761328041E1,-1.744369231E-2,-3.595264861E-3,-2.530001104E-3
1.763355098E1,-1.744369231E-2,1.198421582E-3,-1.997369342E-3
1.765382156E1,-1.637842879E-2,2.796316985E-3,-4.127896391E-3
1.767409208E1,-1.584579609E-2,8.122635074E-3,-5.725792143E-3
1.769436260E1,-1.744369231E-2,8.655266836E-3,-5.193160381E-3
1.771463322E1,-1.744369231E-2,1.131842658E-2,-3.595264861E-3
1.773490374E1,-1.850895584E-2,1.984053478E-2,-3.062632866E-3
1.775517432E1,-1.797632314E-2,1.877527125E-2,1.331579551E-4
1.777544484E1,-1.637842879E-2,2.197106183E-2,-3.994738800E-4
1.779571541E1,-1.478053257E-2,2.410159074E-2,-9.321057005E-4
1.781598593E1,-1.478053257E-2,3.408843651E-2,-3.062632866E-3
1.783638593E1,-1.318263728E-2,2.676474862E-2,-9.321057005E-4
1.785652703E1,-1.478053257E-2,2.463422157E-2,-3.994738800E-4
1.787679760E1,-1.211737376E-2,3.262370080E-2,-3.994738800E-4
1.789706812E1,-8.388951421E-3,3.621896356E-2,1.198421582E-3
1.791733864E1,-1.105211023E-2,2.889527567E-2,6.657897611E-4
1.793773864E1,-8.921583183E-3,2.250369452E-2,1.198421582E-3
1.795787973E1,-8.388951421E-3,2.250369452E-2,-9.321057005E-4
1.797815025E1,-1.211737376E-2,2.143843099E-2,-1.464737463E-3
1.799842083E1,-1.265000552E-2,2.356895804E-2,1.331579551E-4
1.801869135E1,-1.478053257E-2,1.611211337E-2,4.394212738E-3
1.803909135E1,-1.531316526E-2,1.557948068E-2,2.263685223E-3
1.805939036E1,-1.744369231E-2,1.717737690E-2,-3.994738800E-4
1.807950354E1,-1.904158667E-2,1.557948068E-2,-1.997369342E-3
1.809977395E1,-2.170474641E-2,1.877527125E-2,-3.595264861E-3
1.812004437E1,-2.223737910E-2,1.930790395E-2,-1.464737463E-3
1.814044437E1,-2.490053698E-2,1.611211337E-2,-9.321057005E-4
1.816058536E1,-2.330264263E-2,1.344895363E-2,-3.062632866E-3
1.818085578E1,-2.383527346E-2,1.557948068E-2,-4.660528619E-3
1.820112624E1,-2.170474641E-2,1.451421715E-2,-5.725792143E-3
1.822139671E1,-2.223737910E-2,1.398158539E-2,-4.660528619E-3
1.824179671E1,-2.223737910E-2,1.504684892E-2,-5.725792143E-3
1.826193775E1,-1.744369231E-2,5.992108025E-3,-8.388951421E-3
1.828220828E1,-7.323687430E-3,-5.193160381E-3,-1.051947847E-2
1.830247880E1,7.590003312E-3,-2.530001104E-3,-1.211737376E-2
1.832274927E1,1.238369010E-2,6.657897611E-4,-9.454214945E-3
1.834301979E1,-2.530001104E-3,3.328948980E-3,-4.660528619E-3
1.836329025E1,-1.318263728E-2,4.394212738E-3,-3.062632866E-3
1.838356072E1,-1.478053257E-2,8.655266836E-3,-4.660528619E-3
1.840383124E1,-1.105211023E-2,4.926844500E-3,-1.051947847E-2
1.842410176E1,-6.791055668E-3,-1.997369342E-3,-1.051947847E-2
1.844437223E1,-3.062632866E-3,-6.791055668E-3,-1.051947847E-2
1.846464275E1,-7.323687430E-3,-6.791055668E-3,-7.323687430E-3
1.848491328E1,-1.371526904E-2,1.331579551E-4,-6.791055668E-3
1.850518380E1,-1.957421936E-2,1.731053460E-3,-7.856319658E-3
1.852545426E1,-2.010685205E-2,-1.997369342E-3,-7.323687430E-3
1.854572478E1,-1.637842879E-2,7.057371549E-3,-4.660528619E-3
1.856599525E1,-2.649843320E-2,1.877527125E-2,-6.791055668E-3
1.858626578E1,-2.862896025E-2,2.996053919E-2,-3.994738800E-4
1.860653630E1,-2.596580051E-2,3.781685978E-2,7.057371549E-3
1.862680676E1,-1.850895584E-2,4.314317927E-2,1.185105834E-2
1.864707728E1,-1.584579609E-2,3.994738683E-2,1.557948068E-2
1.866734775E1,-1.424790081E-2,3.262370080E-2,1.664474420E-2
1.868761828E1,-1.105211023E-2,3.315633163E-2,1.451421715E-2
1.870788874E1,-6.258423906E-3,2.569948509E-2,1.398158539E-2
1.872815927E1,2.796316985E-3,1.877527125E-2,1.238369010E-2
1.874842973E1,1.185105834E-2,1.664474420E-2,9.720530361E-3
1.876870020E1,1.824264042E-2,1.451421715E-2,9.720530361E-3
1.878897072E1,1.877527125E-2,9.720530361E-3,5.992108025E-3
1.880924119E1,1.504684892E-2,1.451421715E-2,4.394212738E-3
1.882951171E1,1.131842658E-2,2.037316747E-2,4.926844500E-3
1.884978218E1,8.122635074E-3,2.676474862E-2,5.992108025E-3
1.887005265E1,2.796316985E-3,3.155843541E-2,5.992108025E-3
1.889032312E1,-9.321057005E-4,3.568633273E-2,2.263685223E-3
1.891059364E1,-8.921583183E-3,3.315633163E-2,-1.464737463E-3
1.893086411E1,-1.797632314E-2,2.783001214E-2,-4.127896391E-3
1.895113458E1,-2.490053698E-2,2.996053919E-2,-6.791055668E-3
1.897140505E1,-2.969422378E-2,3.315633163E-2,-8.388951421E-3
1.899167557E1,-3.342264518E-2,3.462106735E-2,-1.211737376E-2
1.901194604E1,-3.502054140E-2,3.315633163E-2,-1.637842879E-2
1.903221650E1,-3.981423005E-2,2.889527567E-2,-1.904158667E-2
1.905248697E1,-3.874896467E-2,3.515370190E-2,-1.797632314E-2
1.907275739E1,-3.395527974E-2,3.728422895E-2,-1.478053257E-2
1.909302791E1,-3.022685647E-2,3.102580272E-2,-1.318263728E-2
1.911329838E1,-2.330264263E-2,2.676474862E-2,-1.424790081E-2
1.913356880E1,-2.063948289E-2,2.090579830E-2,-1.424790081E-2
1.915383937E1,-2.170474641E-2,1.877527125E-2,-1.211737376E-2
1.917410979E1,-1.850895584E-2,1.771000773E-2,-9.454214945E-3
1.919438025E1,-1.105211023E-2,1.877527125E-2,-6.791055668E-3
1.921465072E1,-3.595264861E-3,1.078579482E-2,-6.258423906E-3
1.923492119E1,3.328948980E-3,1.131842658E-2,-6.258423906E-3
1.925519166E1,1.731053460E-3,8.122635074E-3,-3.595264861E-3
1.927546213E1,-3.062632866E-3,4.394212738E-3,-3.062632866E-3
1.929573260E1,6.657897611E-4,2.796316985E-3,-1.464737463E-3
1.931600307E1,5.992108025E-3,-6.791055668E-3,1.331579551E-4
1.933627354E1,1.078579482E-2,-8.921583183E-3,1.331579551E-4
1.935654400E1,6.524739787E-3,-8.921583183E-3,1.198421582E-3
1.937681447E1,-9.321057005E-4,-6.258423906E-3,4.394212738E-3
1.939708494E1,-5.725792143E-3,-1.464737463E-3,4.394212738E-3
1.941735541E1,-6.791055668E-3,-6.258423906E-3,6.524739787E-3
1.943775541E1,-4.127896391E-3,-6.258423906E-3,3.861580743E-3
1.945789630E1,-1.997369342E-3,-2.530001104E-3,3.861580743E-3
1.947816676E1,-3.062632866E-3,6.657897611E-4,5.459476262E-3
1.949843723E1,-3.062632866E-3,-3.994738800E-4,3.861580743E-3
1.951870770E1,-4.660528619E-3,-3.595264861E-3,2.263685223E-3
1.953910770E1,-4.660528619E-3,-6.791055668E-3,6.657897611E-4
1.955924859E1,-6.258423906E-3,-4.660528619E-3,-1.464737463E-3
1.957951906E1,-7.323687430E-3,-3.994738800E-4,1.331579551E-4
1.959978953E1,-8.921583183E-3,-4.127896391E-3,2.263685223E-3
1.962005999E1,-9.454214945E-3,-3.062632866E-3,6.657897611E-4
1.964045999E1,-7.323687430E-3,-9.321057005E-4,-1.997369342E-3
1.966060088E1,-6.791055668E-3,-5.193160381E-3,-3.062632866E-3
1.968087135E1,-4.660528619E-3,-5.725792143E-3,-4.660528619E-3
1.970114177E1,-1.997369342E-3,-3.062632866E-3,-5.193160381E-3
1.972141223E1,-3.994738800E-4,1.331579551E-4,-5.725792143E-3
1.974181223E1,2.263685223E-3,-1.464737463E-3,-4.660528619E-3
1.976195312E1,1.198421582E-3,-2.530001104E-3,-3.595264861E-3
1.978222354E1,-1.997369342E-3,2.263685223E-3,-4.660528619E-3
1.980249400E1,-1.464737463E-3,-3.595264861E-3,-7.323687430E-3
1.982276442E1,-2.530001104E-3,-9.321057005E-4,-8.921583183E-3
1.984303489E1,1.331579551E-4,1.331579551E-4,-9.986846708E-3
1.986330536E1,6.657897611E-4,-1.464737463E-3,-9.454214945E-3
1.988357578E1,3.328948980E-3,-7.856319658E-3,-1.105211023E-2
1.990384619E1,1.930790395E-2,-8.921583183E-3,-6.258423906E-3
1.992411666E1,4.434159771E-2,-2.436790615E-2,4.394212738E-3
1.994438708E1,4.807002097E-2,-4.673844203E-2,4.926844500E-3
1.996465755E1,2.303632535E-2,-6.644582003E-2,-8.921583183E-3
1.998492796E1,-3.595264861E-3,-7.337003201E-2,-2.223737910E-2
2.000519843E1,-1.797632314E-2,-5.898897350E-2,-2.277000993E-2
2.002546885E1,-2.277000993E-2,-5.419528857E-2,-1.424790081E-2
2.004573926E1,-2.596580051E-2,-5.099949613E-2,-7.856319658E-3
2.006600968E1,-3.022685647E-2,-3.395527974E-2,-1.051947847E-2
2.008628015E1,-4.194475710E-2,-1.158474199E-2,-1.584579609E-2
2.010655057E1,-5.206476152E-2,1.025316212E-2,-1.478053257E-2
2.012682098E1,-5.259739235E-2,2.516685426E-2,-4.127896391E-3
2.014709145E1,-5.313002318E-2,3.209106624E-2,1.331579551E-4
2.016736260E1,-5.472791940E-2,4.154528305E-2,1.731053460E-3
2.018763229E1,-5.898897350E-2,5.752423778E-2,3.328948980E-3
2.020790270E1,-6.431528926E-2,7.669898123E-2,4.926844500E-3
2.022817312E1,-5.739107728E-2,8.575372398E-2,1.331579551E-4
2.024844354E1,-4.247738793E-2,7.669898123E-2,-5.725792143E-3
2.026871400E1,-3.182475269E-2,7.084003091E-2,-1.211737376E-2
2.028898442E1,-2.703106403E-2,8.202529699E-2,-1.531316526E-2
2.030938442E1,-2.223737910E-2,9.161267430E-2,-1.158474199E-2
2.032952525E1,-1.797632314E-2,8.788424730E-2,-7.323687430E-3
2.034979567E1,-1.478053257E-2,7.350318879E-2,-4.127896391E-3
2.037006609E1,-1.265000552E-2,6.764423847E-2,-9.986846708E-3
2.039033650E1,-1.158474199E-2,6.657897681E-2,-1.211737376E-2
2.041060692E1,-1.051947847E-2,6.498108059E-2,-9.454214945E-3
2.043087734E1,-6.791055668E-3,5.752423778E-2,-7.323687430E-3
2.045114775E1,-9.986846708E-3,5.060002208E-2,-7.856319658E-3
2.047141817E1,-6.791055668E-3,4.527370632E-2,-1.105211023E-2
2.049168859E1,-1.997369342E-3,3.675159439E-2,-9.454214945E-3
2.051195900E1,-3.595264861E-3,2.037316747E-2,-8.388951421E-3
2.053222942E1,-3.062632866E-3,1.344895363E-2,-7.856319658E-3
2.055249984E1,-2.530001104E-3,8.655266836E-3,-5.725792143E-3
2.057277025E1,-3.595264861E-3,6.657897611E-4,-5.193160381E-3
2.059304067E1,-6.258423906E-3,-7.856319658E-3,-4.127896391E-3
2.061331109E1,-6.258423906E-3,-1.691105962E-2,-3.062632866E-3
2.063358150E1,-4.660528619E-3,-1.957421936E-2,-1.997369342E-3
2.065385187E1,-3.062632866E-3,-2.543316968E-2,1.731053460E-3
2.067412229E1,-3.595264861E-3,-3.289001435E-2,3.861580743E-3
2.069439270E1,-3.062632866E-3,-3.342264518E-2,4.394212738E-3
2.071466312E1,-1.997369342E-3,-3.395527974E-2,4.926844500E-3
2.073493354E1,-2.530001104E-3,-3.289001435E-2,3.861580743E-3
2.075520390E1,-1.997369342E-3,-2.862896025E-2,8.122635074E-3
2.077547432E1,-9.321057005E-4,-2.862896025E-2,9.187898599E-3
2.079574473E1,2.263685223E-3,-2.916159295E-2,8.655266836E-3
2.081601515E1,3.328948980E-3,-2.170474641E-2,8.122635074E-3
2.083628552E1,2.796316985E-3,-1.904158667E-2,8.655266836E-3
2.085655593E1,1.331579551E-4,-1.531316526E-2,9.187898599E-3
2.087682635E1,1.331579551E-4,-1.265000552E-2,9.187898599E-3
2.089709676E1,1.731053460E-3,-9.986846708E-3,7.590003312E-3
2.091736718E1,3.328948980E-3,-1.318263728E-2,8.122635074E-3
2.093776718E1,5.459476262E-3,-9.986846708E-3,5.992108025E-3
2.095790796E1,4.926844500E-3,-5.193160381E-3,7.590003312E-3
2.097817838E1,4.926844500E-3,-9.986846708E-3,8.655266836E-3
2.099844874E1,1.731053460E-3,-8.921583183E-3,5.992108025E-3
2.101871916E1,2.263685223E-3,-1.464737463E-3,4.394212738E-3
2.103911916E1,2.263685223E-3,-2.530001104E-3,6.524739787E-3
2.105925994E1,4.394212738E-3,-2.530001104E-3,7.057371549E-3
2.107953036E1,3.328948980E-3,-2.530001104E-3,8.122635074E-3
2.109980072E1,5.459476262E-3,1.198421582E-3,5.992108025E-3
2.112007114E1,7.590003312E-3,2.796316985E-3,3.861580743E-3
2.114047114E1,7.057371549E-3,-1.464737463E-3,5.992108025E-3
2.116061192E1,9.720530361E-3,-3.595264861E-3,4.926844500E-3
2.120625692E1,1.398158539E-2,-1.211737376E-2,3.861580743E-3
2.122642385E1,1.398158539E-2,-1.957421936E-2,1.731053460E-3
2.124667463E1,1.717737690E-2,-2.490053698E-2,6.657897611E-4
2.126696453E1,1.930790395E-2,-2.703106403E-2,6.657897611E-4
2.128723442E1,1.824264042E-2,-2.490053698E-2,6.657897611E-4
2.130750473E1,1.717737690E-2,-2.170474641E-2,-3.994738800E-4
2.132777510E1,1.504684892E-2,-1.850895584E-2,-2.530001104E-3
2.134804541E1,1.185105834E-2,-2.277000993E-2,-1.464737463E-3
2.138358609E1,1.185105834E-2,-1.105211023E-2,-1.997369342E-3
2.140385661E1,6.524739787E-3,-1.371526904E-2,1.331579551E-4
2.142412697E1,1.731053460E-3,-6.258423906E-3,1.198421582E-3
2.144452697E1,-3.595264861E-3,1.198421582E-3,-2.530001104E-3
2.146466781E1,-6.258423906E-3,5.992108025E-3,-5.725792143E-3
2.148493817E1,-5.725792143E-3,5.459476262E-3,-3.062632866E-3
2.150520854E1,-9.986846708E-3,3.328948980E-3,-2.530001104E-3
2.152547895E1,-1.051947847E-2,7.590003312E-3,-5.725792143E-3
2.154574932E1,-1.105211023E-2,8.122635074E-3,-7.323687430E-3
2.156601963E1,-1.158474199E-2,3.861580743E-3,-7.856319658E-3
2.158629010E1,-1.051947847E-2,1.731053460E-3,-8.921583183E-3
2.160656046E1,-9.454214945E-3,-9.321057005E-4,-8.921583183E-3
2.162683083E1,-1.265000552E-2,5.992108025E-3,-9.454214945E-3
2.164710119E1,-1.584579609E-2,1.025316212E-2,-6.791055668E-3
2.166737156E1,-1.424790081E-2,1.078579482E-2,-5.725792143E-3
2.168764192E1,-1.318263728E-2,8.122635074E-3,-5.193160381E-3
2.170791234E1,-1.158474199E-2,1.238369010E-2,-5.193160381E-3
2.172818270E1,-1.691105962E-2,1.611211337E-2,-5.193160381E-3
2.174845307E1,-2.223737910E-2,2.623211779E-2,-3.595264861E-3
2.176872343E1,-2.809632942E-2,3.675159439E-2,-1.997369342E-3
2.178899380E1,-2.862896025E-2,4.420844093E-2,6.657897611E-4
2.180926416E1,-2.330264263E-2,5.113265663E-2,2.263685223E-3
2.182953452E1,-1.584579609E-2,4.474107176E-2,4.394212738E-3
2.184980489E1,-5.725792143E-3,4.154528305E-2,5.992108025E-3
2.187007525E1,2.796316985E-3,3.568633273E-2,1.025316212E-2
2.189034562E1,9.187898599E-3,2.516685426E-2,1.504684892E-2
2.191061604E1,1.451421715E-2,1.344895363E-2,1.451421715E-2
2.193088640E1,2.410159074E-2,1.731053460E-3,1.664474420E-2
2.195115676E1,3.102580272E-2,-7.856319658E-3,1.824264042E-2
2.197142713E1,3.901528195E-2,-1.318263728E-2,2.143843099E-2
2.199169749E1,4.327633604E-2,-1.850895584E-2,2.410159074E-2
2.201196786E1,4.540686309E-2,-2.543316968E-2,2.516685426E-2
2.203223822E1,4.434159771E-2,-3.235738352E-2,2.037316747E-2
2.205250854E1,4.008054361E-2,-4.780370742E-2,1.824264042E-2
2.207277890E1,4.008054361E-2,-5.153212696E-2,1.824264042E-2
2.209304926E1,3.422159329E-2,-6.218476593E-2,1.717737690E-2
2.211331963E1,2.729738131E-2,-6.857634336E-2,1.611211337E-2
2.213358999E1,2.037316747E-2,-6.591318548E-2,1.131842658E-2
2.215386036E1,1.344895363E-2,-6.484792382E-2,1.025316212E-2
2.217413067E1,2.796316985E-3,-6.165213138E-2,7.590003312E-3
2.219440104E1,-3.595264861E-3,-5.472791940E-2,5.992108025E-3
2.221467140E1,-7.856319658E-3,-5.259739235E-2,-9.321057005E-4
2.223494177E1,-7.856319658E-3,-5.366265774E-2,-7.856319658E-3
2.225521208E1,-9.986846708E-3,-4.567318037E-2,-1.478053257E-2
2.227548244E1,-1.531316526E-2,-4.087949172E-2,-1.584579609E-2
2.229575281E1,-2.010685205E-2,-2.969422378E-2,-9.454214945E-3
2.231602317E1,-2.703106403E-2,-1.211737376E-2,-5.193160381E-3
2.233629348E1,-3.342264518E-2,5.459476262E-3,-9.321057005E-4
2.235656385E1,-3.289001435E-2,2.303632535E-2,1.198421582E-3
2.237683421E1,-2.649843320E-2,3.049317189E-2,3.328948980E-3
2.239710453E1,-2.010685205E-2,4.580633715E-2,4.394212738E-3
2.241737489E1,-1.265000552E-2,5.219791830E-2,9.720530361E-3
2.243777489E1,-1.211737376E-2,5.858949944E-2,1.238369010E-2
2.245791557E1,-1.584579609E-2,5.060002208E-2,1.185105834E-2
2.247818593E1,-1.637842879E-2,4.420844093E-2,5.459476262E-3
2.249845624E1,-1.318263728E-2,3.621896356E-2,-3.994738800E-4
2.251872661E1,-7.323687430E-3,2.463422157E-2,-3.595264861E-3
2.253912661E1,-1.997369342E-3,1.771000773E-2,-3.062632866E-3
2.255926728E1,-3.595264861E-3,2.090579830E-2,-3.994738800E-4
2.257953760E1,-6.258423906E-3,2.197106183E-2,2.796316985E-3
2.259980796E1,-6.258423906E-3,2.037316747E-2,3.328948980E-3
2.262007828E1,-4.127896391E-3,2.090579830E-2,2.263685223E-3
2.264047828E1,-3.595264861E-3,1.504684892E-2,6.657897611E-4
2.266061895E1,-4.660528619E-3,1.611211337E-2,2.263685223E-3
2.268088926E1,-8.921583183E-3,2.197106183E-2,4.926844500E-3
2.270115963E1,-9.986846708E-3,2.197106183E-2,6.524739787E-3
2.272142994E1,-7.856319658E-3,1.984053478E-2,4.926844500E-3
2.274170031E1,-4.660528619E-3,1.504684892E-2,4.394212738E-3
2.276197062E1,-3.062632866E-3,1.824264042E-2,4.394212738E-3
2.278224093E1,-7.856319658E-3,1.664474420E-2,4.394212738E-3
2.280251124E1,-1.318263728E-2,1.398158539E-2,2.796316985E-3
2.282291124E1,-1.797632314E-2,1.078579482E-2,-9.321057005E-4
2.284305192E1,-1.424790081E-2,1.185105834E-2,-3.595264861E-3
2.286332223E1,-9.454214945E-3,1.238369010E-2,-2.530001104E-3
2.288359255E1,-7.323687430E-3,1.557948068E-2,-1.464737463E-3
2.290386291E1,-5.725792143E-3,1.344895363E-2,-3.595264861E-3
2.292413322E1,-8.388951421E-3,1.451421715E-2,-5.193160381E-3
2.294440354E1,-8.921583183E-3,1.504684892E-2,-4.660528619E-3
2.296467385E1,-1.318263728E-2,1.504684892E-2,-5.193160381E-3
2.298494416E1,-7.856319658E-3,1.504684892E-2,-4.127896391E-3
2.300521453E1,-6.791055668E-3,1.557948068E-2,-2.530001104E-3
2.302548484E1,-5.725792143E-3,2.037316747E-2,1.731053460E-3
2.304588484E1,-3.062632866E-3,2.090579830E-2,3.328948980E-3
2.306602546E1,-1.997369342E-3,1.344895363E-2,3.861580743E-3
2.308629578E1,1.198421582E-3,7.590003312E-3,3.861580743E-3
2.310656609E1,5.459476262E-3,-1.997369342E-3,2.263685223E-3
2.312683640E1,8.655266836E-3,-9.454214945E-3,-2.530001104E-3
2.314710671E1,1.238369010E-2,-1.051947847E-2,-3.994738800E-4
2.316737702E1,1.131842658E-2,-1.105211023E-2,2.796316985E-3
2.318764734E1,8.655266836E-3,-1.371526904E-2,3.328948980E-3
2.320791765E1,4.394212738E-3,-1.371526904E-2,3.328948980E-3
2.322818796E1,2.263685223E-3,-1.371526904E-2,1.198421582E-3
2.324845828E1,-1.997369342E-3,-3.595264861E-3,-1.997369342E-3
2.326872854E1,-7.856319658E-3,5.459476262E-3,-1.997369342E-3
2.328899890E1,-1.211737376E-2,5.992108025E-3,6.657897611E-4
2.330926921E1,-1.478053257E-2,9.187898599E-3,2.263685223E-3
2.332953952E1,-1.265000552E-2,1.504684892E-2,1.731053460E-3
2.334980978E1,-1.371526904E-2,1.504684892E-2,6.657897611E-4
2.337008010E1,-1.424790081E-2,1.238369010E-2,-3.595264861E-3
2.339035041E1,-1.424790081E-2,1.238369010E-2,-5.725792143E-3
2.341062072E1,-9.986846708E-3,4.394212738E-3,-3.062632866E-3
2.343089104E1,-3.595264861E-3,2.796316985E-3,-3.062632866E-3
2.345116135E1,-2.530001104E-3,5.992108025E-3,-3.595264861E-3
2.347143161E1,-3.595264861E-3,5.992108025E-3,-2.530001104E-3
2.349170192E1,-5.725792143E-3,1.291632187E-2,-4.127896391E-3
2.351197223E1,-3.062632866E-3,1.238369010E-2,-1.997369342E-3
2.353224255E1,-1.464737463E-3,1.131842658E-2,1.331579551E-4
2.355251281E1,-1.464737463E-3,1.344895363E-2,1.731053460E-3
2.357278312E1,-9.321057005E-4,1.238369010E-2,4.394212738E-3
2.359305343E1,-9.321057005E-4,1.025316212E-2,3.328948980E-3
2.361332369E1,-9.321057005E-4,7.057371549E-3,6.657897611E-4
2.363359400E1,-3.994738800E-4,6.524739787E-3,-9.321057005E-4
2.365386427E1,6.657897611E-4,8.655266836E-3,2.263685223E-3
2.367413458E1,-1.464737463E-3,5.992108025E-3,3.328948980E-3
2.369440489E1,1.731053460E-3,1.731053460E-3,2.263685223E-3
2.371467520E1,6.524739787E-3,-1.997369342E-3,-4.660528619E-3
2.373494546E1,6.524739787E-3,-6.791055668E-3,-8.388951421E-3
2.375521578E1,5.992108025E-3,-5.725792143E-3,-8.921583183E-3
2.377548604E1,3.861580743E-3,-5.193160381E-3,-5.725792143E-3
2.379575635E1,3.861580743E-3,-7.323687430E-3,-3.595264861E-3
2.381602666E1,5.459476262E-3,-3.062632866E-3,-2.530001104E-3
2.383642666E1,3.328948980E-3,-3.595264861E-3,-1.997369342E-3
2.385656723E1,1.731053460E-3,-1.464737463E-3,-3.595264861E-3
2.387683749E1,2.796316985E-3,-2.530001104E-3,-3.595264861E-3
2.389710781E1,-3.994738800E-4,-3.062632866E-3,-2.530001104E-3
2.391737807E1,6.657897611E-4,1.331579551E-4,-2.530001104E-3
2.393777807E1,1.198421582E-3,-6.258423906E-3,-9.321057005E-4
2.395791864E1,4.394212738E-3,-7.856319658E-3,-1.997369342E-3
2.397818895E1,5.992108025E-3,-1.051947847E-2,-4.660528619E-3
2.399845921E1,4.394212738E-3,-8.921583183E-3,-3.062632866E-3
2.401872947E1,2.263685223E-3,-8.388951421E-3,-4.127896391E-3
2.403912947E1,-3.994738800E-4,-6.258423906E-3,-1.997369342E-3
2.405927005E1,-3.062632866E-3,1.331579551E-4,-9.321057005E-4
2.407954031E1,-1.464737463E-3,5.459476262E-3,-9.321057005E-4
2.409981062E1,-1.997369342E-3,5.992108025E-3,6.657897611E-4
2.412008088E1,-3.062632866E-3,8.122635074E-3,1.331579551E-4
2.414048088E1,-6.258423906E-3,1.504684892E-2,-9.321057005E-4
2.416062140E1,-8.388951421E-3,1.611211337E-2,6.657897611E-4
2.418089171E1,-1.158474199E-2,1.451421715E-2,-1.997369342E-3
2.420116197E1,-1.211737376E-2,1.451421715E-2,-3.062632866E-3
2.422143223E1,-1.158474199E-2,1.664474420E-2,-5.193160381E-3
2.424183223E1,-1.051947847E-2,1.824264042E-2,-3.595264861E-3
2.426197275E1,-1.051947847E-2,1.717737690E-2,-2.530001104E-3
2.428224302E1,-7.323687430E-3,2.250369452E-2,-3.994738800E-4
2.430251333E1,-8.388951421E-3,2.037316747E-2,6.657897611E-4
2.432278359E1,-5.193160381E-3,1.877527125E-2,-9.321057005E-4
2.434305385E1,-3.062632866E-3,1.344895363E-2,-6.791055668E-3
2.436332411E1,6.657897611E-4,6.524739787E-3,-5.725792143E-3
2.438359437E1,-2.530001104E-3,9.187898599E-3,-4.660528619E-3
2.440386463E1,-2.530001104E-3,9.187898599E-3,-3.595264861E-3
2.442413489E1,-2.530001104E-3,7.590003312E-3,-1.997369342E-3
2.444440515E1,-1.464737463E-3,1.398158539E-2,-1.464737463E-3
2.446467541E1,-3.994738800E-4,9.187898599E-3,-3.994738800E-4
2.448494567E1,-5.193160381E-3,5.459476262E-3,-3.994738800E-4
2.450521593E1,-8.388951421E-3,1.131842658E-2,-3.062632866E-3
2.452548619E1,-9.454214945E-3,1.025316212E-2,-9.321057005E-4
2.454575645E1,-7.323687430E-3,8.655266836E-3,-1.997369342E-3
2.456602671E1,-4.127896391E-3,5.992108025E-3,-3.062632866E-3
2.458629697E1,-5.725792143E-3,1.731053460E-3,-3.062632866E-3
2.460656723E1,-7.856319658E-3,4.394212738E-3,-3.062632866E-3
2.462683749E1,-1.105211023E-2,9.720530361E-3,-1.464737463E-3
2.464710775E1,-8.921583183E-3,4.394212738E-3,-1.464737463E-3
2.466737802E1,-4.660528619E-3,-2.530001104E-3,-1.464737463E-3
2.468764828E1,-1.997369342E-3,-9.321057005E-4,-2.530001104E-3
2.470791848E1,-2.530001104E-3,-3.994738800E-4,1.331579551E-4
2.472818874E1,-4.127896391E-3,4.926844500E-3,1.331579551E-4
2.474845900E1,-5.193160381E-3,-1.464737463E-3,6.657897611E-4
2.476872926E1,-3.595264861E-3,-5.725792143E-3,-1.997369342E-3
2.478899952E1,1.198421582E-3,-2.530001104E-3,-1.997369342E-3
2.480926973E1,1.731053460E-3,2.263685223E-3,-9.321057005E-4
2.482953999E1,-3.595264861E-3,6.657897611E-4,1.731053460E-3
2.484981025E1,-6.791055668E-3,2.263685223E-3,1.198421582E-3
2.487008052E1,-6.258423906E-3,3.861580743E-3,-3.062632866E-3
2.489035072E1,-2.530001104E-3,3.328948980E-3,-1.464737463E-3
2.491062098E1,-3.595264861E-3,1.731053460E-3,6.657897611E-4
2.493089124E1,6.657897611E-4,3.861580743E-3,2.263685223E-3
2.495116150E1,1.331579551E-4,4.926844500E-3,2.263685223E-3
2.497143171E1,-2.530001104E-3,3.861580743E-3,1.731053460E-3
2.499170197E1,-1.997369342E-3,1.731053460E-3,1.731053460E-3
2.501197223E1,-9.321057005E-4,1.731053460E-3,-1.464737463E-3
2.503224249E1,6.657897611E-4,-1.464737463E-3,6.657897611E-4
2.505251270E1,-1.997369342E-3,-3.062632866E-3,1.198421582E-3
2.507291270E1,-3.994738800E-4,3.328948980E-3,1.731053460E-3
2.509305317E1,-9.321057005E-4,3.328948980E-3,6.657897611E-4
2.513868864E1,-6.258423906E-3,4.926844500E-3,1.731053460E-3
2.515886432E1,-7.323687430E-3,8.122635074E-3,-3.994738800E-4
2.517911676E1,-8.388951421E-3,7.057371549E-3,6.657897611E-4
2.519940499E1,-8.388951421E-3,7.057371549E-3,-3.994738800E-4
2.521967473E1,-6.258423906E-3,1.131842658E-2,6.657897611E-4
2.523994494E1,-8.388951421E-3,1.451421715E-2,6.657897611E-4
2.526021510E1,-7.323687430E-3,1.451421715E-2,-1.464737463E-3
2.528048536E1,-5.193160381E-3,1.557948068E-2,-3.994738800E-4
2.530075557E1,-6.258423906E-3,1.238369010E-2,6.657897611E-4
2.532102583E1,-6.258423906E-3,1.451421715E-2,6.657897611E-4
2.534129604E1,-5.193160381E-3,1.344895363E-2,2.796316985E-3
2.536156630E1,-4.127896391E-3,1.131842658E-2,1.731053460E-3
2.538183650E1,-5.193160381E-3,1.131842658E-2,6.657897611E-4
2.540210677E1,-6.258423906E-3,7.057371549E-3,-1.464737463E-3
2.542237697E1,-8.388951421E-3,7.057371549E-3,-3.595264861E-3
2.544277697E1,-1.158474199E-2,9.187898599E-3,-3.595264861E-3
2.546291744E1,-1.265000552E-2,1.344895363E-2,-3.595264861E-3
2.548318770E1,-1.691105962E-2,1.557948068E-2,-1.464737463E-3
2.550345791E1,-2.330264263E-2,2.303632535E-2,-3.994738800E-4
2.552372812E1,-2.649843320E-2,3.155843541E-2,-1.464737463E-3
2.554412812E1,-3.075948730E-2,3.368896246E-2,-2.530001104E-3
2.556426859E1,-3.608580679E-2,3.675159439E-2,-2.530001104E-3
2.558453885E1,-3.608580679E-2,4.527370632E-2,-2.530001104E-3
2.560480906E1,-3.502054140E-2,5.699160323E-2,-2.530001104E-3
2.562507926E1,-3.608580679E-2,6.018739566E-2,6.657897611E-4
2.564547927E1,-3.289001435E-2,6.338318437E-2,2.796316985E-3
2.566561973E1,-3.075948730E-2,6.338318437E-2,6.657897611E-4
2.568588994E1,-2.543316968E-2,6.125266105E-2,-2.530001104E-3
2.570616020E1,-1.904158667E-2,5.273054913E-2,-5.725792143E-3
2.572643041E1,-1.691105962E-2,4.527370632E-2,-8.921583183E-3
2.574670062E1,-2.223737910E-2,3.781685978E-2,-6.791055668E-3
2.576697088E1,-2.649843320E-2,3.888212144E-2,-2.530001104E-3
2.578724109E1,-2.862896025E-2,4.207791388E-2,-1.464737463E-3
2.580751130E1,-2.543316968E-2,3.888212144E-2,-3.595264861E-3
2.582778150E1,-1.904158667E-2,3.462106735E-2,-4.660528619E-3
2.584805171E1,-1.797632314E-2,3.368896246E-2,-4.660528619E-3
2.586832197E1,-2.330264263E-2,3.049317189E-2,-2.530001104E-3
2.588859218E1,-2.223737910E-2,2.942790836E-2,-2.530001104E-3
2.590886239E1,-1.691105962E-2,2.197106183E-2,-4.660528619E-3
2.592913260E1,-1.265000552E-2,1.771000773E-2,-4.660528619E-3
2.594940281E1,-1.265000552E-2,1.344895363E-2,-3.595264861E-3
2.596967302E1,-1.371526904E-2,4.926844500E-3,-2.530001104E-3
2.598994328E1,-9.454214945E-3,3.861580743E-3,-2.530001104E-3
2.601021348E1,-5.193160381E-3,4.926844500E-3,-2.530001104E-3
2.603048369E1,-5.193160381E-3,-3.595264861E-3,-1.464737463E-3
2.605075390E1,-4.127896391E-3,-6.791055668E-3,-3.994738800E-4
2.607102411E1,-4.127896391E-3,-3.595264861E-3,-2.530001104E-3
2.609129432E1,-6.258423906E-3,-1.464737463E-3,-2.530001104E-3
2.611156453E1,-5.193160381E-3,-7.856319658E-3,-3.994738800E-4
2.613183473E1,-1.997369342E-3,-1.211737376E-2,2.796316985E-3
2.615210494E1,1.198421582E-3,-8.921583183E-3,1.731053460E-3
2.617237515E1,3.328948980E-3,-4.660528619E-3,1.731053460E-3
2.619264536E1,1.331579551E-4,-8.921583183E-3,2.796316985E-3
2.621291557E1,1.331579551E-4,-1.211737376E-2,1.731053460E-3
2.623318578E1,5.459476262E-3,-1.531316526E-2,1.731053460E-3
2.625345598E1,9.720530361E-3,-1.211737376E-2,1.731053460E-3
2.627372619E1,1.398158539E-2,-1.105211023E-2,4.926844500E-3
2.629399640E1,1.398158539E-2,-1.637842879E-2,5.992108025E-3
2.631426661E1,1.717737690E-2,-1.744369231E-2,4.926844500E-3
2.633453682E1,1.930790395E-2,-2.063948289E-2,1.731053460E-3
2.635480703E1,1.930790395E-2,-2.277000993E-2,1.731053460E-3
2.637507723E1,2.037316747E-2,-2.170474641E-2,3.861580743E-3
2.639534744E1,1.824264042E-2,-1.744369231E-2,5.992108025E-3
2.641561765E1,1.717737690E-2,-1.424790081E-2,8.122635074E-3
2.643588786E1,1.611211337E-2,-1.531316526E-2,9.187898599E-3
2.645615802E1,2.037316747E-2,-1.105211023E-2,9.187898599E-3
2.647642822E1,2.037316747E-2,-1.211737376E-2,8.122635074E-3
2.649669843E1,1.717737690E-2,-1.424790081E-2,8.122635074E-3
2.651709843E1,9.720530361E-3,-1.531316526E-2,8.122635074E-3
2.653723885E1,5.459476262E-3,-1.318263728E-2,9.187898599E-3
2.655750906E1,4.394212738E-3,-1.424790081E-2,9.187898599E-3
2.657777921E1,9.720530361E-3,-1.531316526E-2,8.122635074E-3
2.659804942E1,1.078579482E-2,-1.531316526E-2,8.122635074E-3
2.661831963E1,9.720530361E-3,-1.424790081E-2,8.122635074E-3
2.663858984E1,4.394212738E-3,-1.211737376E-2,1.025316212E-2
2.665885999E1,4.394212738E-3,-1.318263728E-2,1.025316212E-2
2.667913020E1,7.590003312E-3,-1.637842879E-2,9.187898599E-3
2.669940041E1,1.291632187E-2,-1.744369231E-2,9.187898599E-3
2.671967057E1,1.504684892E-2,-1.744369231E-2,8.122635074E-3
2.673994078E1,1.398158539E-2,-1.957421936E-2,9.187898599E-3
2.676021098E1,1.398158539E-2,-2.383527346E-2,1.025316212E-2
2.678048119E1,2.037316747E-2,-2.490053698E-2,7.057371549E-3
2.680075130E1,2.250369452E-2,-2.809632942E-2,4.926844500E-3
2.682102156E1,2.356895804E-2,-3.342264518E-2,3.861580743E-3
2.684129176E1,2.463422157E-2,-3.768370301E-2,3.861580743E-3
2.686156192E1,2.356895804E-2,-3.768370301E-2,1.731053460E-3
2.688183213E1,2.250369452E-2,-3.661843762E-2,-3.994738800E-4
2.690210234E1,1.717737690E-2,-3.235738352E-2,-3.994738800E-4
2.692237244E1,1.078579482E-2,-2.170474641E-2,6.657897611E-4
2.694277244E1,8.655266836E-3,-8.921583183E-3,3.861580743E-3
2.696291291E1,7.590003312E-3,-4.660528619E-3,5.992108025E-3
2.698318312E1,6.524739787E-3,1.731053460E-3,3.861580743E-3
2.700345328E1,5.459476262E-3,-3.994738800E-4,6.657897611E-4
2.702372348E1,-9.321057005E-4,-3.994738800E-4,-1.464737463E-3
2.704412348E1,-8.388951421E-3,7.057371549E-3,-2.530001104E-3
2.706426385E1,-1.051947847E-2,1.238369010E-2,-3.595264861E-3
2.708453406E1,-1.051947847E-2,1.238369010E-2,-1.464737463E-3
2.710480421E1,-9.454214945E-3,1.877527125E-2,-3.994738800E-4
2.712507437E1,-8.388951421E-3,1.771000773E-2,-1.464737463E-3
2.714547437E1,-1.265000552E-2,1.664474420E-2,-2.530001104E-3
2.716561479E1,-1.691105962E-2,2.623211779E-2,-3.595264861E-3
2.718588499E1,-1.797632314E-2,3.262370080E-2,-2.530001104E-3
2.720615515E1,-1.797632314E-2,3.155843541E-2,-3.994738800E-4
2.722642536E1,-1.478053257E-2,2.942790836E-2,6.657897611E-4
2.724682536E1,-1.051947847E-2,2.623211779E-2,-3.994738800E-4
2.726696567E1,-1.051947847E-2,2.303632535E-2,6.657897611E-4
2.728723588E1,-9.454214945E-3,2.410159074E-2,-3.994738800E-4
2.730750604E1,-1.051947847E-2,2.090579830E-2,-2.530001104E-3
2.732777624E1,-9.454214945E-3,1.771000773E-2,-1.464737463E-3
2.734804640E1,-7.323687430E-3,1.451421715E-2,6.657897611E-4
2.736831661E1,-3.062632866E-3,9.187898599E-3,6.657897611E-4
2.738858677E1,1.331579551E-4,5.992108025E-3,1.731053460E-3
2.740885692E1,2.263685223E-3,2.796316985E-3,-1.464737463E-3
2.742912713E1,1.331579551E-4,-3.595264861E-3,-2.530001104E-3
2.744939729E1,-1.997369342E-3,-6.791055668E-3,-3.994738800E-4
2.746966749E1,-3.062632866E-3,-4.660528619E-3,-3.994738800E-4
2.748993765E1,-9.321057005E-4,-5.725792143E-3,6.657897611E-4
2.751020781E1,3.328948980E-3,-8.921583183E-3,1.731053460E-3
2.753047802E1,2.263685223E-3,-3.595264861E-3,6.657897611E-4
2.755074817E1,-1.997369342E-3,-3.595264861E-3,6.657897611E-4
2.757101833E1,-4.127896391E-3,-5.725792143E-3,2.796316985E-3
2.759128843E1,-3.062632866E-3,-6.791055668E-3,1.731053460E-3
2.761155869E1,-1.997369342E-3,-6.791055668E-3,-3.994738800E-4
2.763182885E1,3.328948980E-3,-3.595264861E-3,6.657897611E-4
2.765209900E1,3.328948980E-3,-2.530001104E-3,3.861580743E-3
2.767236916E1,1.198421582E-3,6.657897611E-4,3.861580743E-3
2.769263937E1,1.331579551E-4,-1.464737463E-3,2.796316985E-3
2.771290952E1,2.263685223E-3,-1.464737463E-3,-3.994738800E-4
2.773317968E1,4.394212738E-3,-3.595264861E-3,-2.530001104E-3
2.775344989E1,8.655266836E-3,-7.856319658E-3,6.657897611E-4
2.777372005E1,1.078579482E-2,-5.725792143E-3,2.796316985E-3
2.779399020E1,7.590003312E-3,6.657897611E-4,3.861580743E-3
2.781426036E1,2.263685223E-3,6.657897611E-4,3.861580743E-3
2.783453052E1,2.263685223E-3,6.657897611E-4,-3.994738800E-4
2.785480067E1,4.394212738E-3,-2.530001104E-3,-1.464737463E-3
2.787507088E1,4.394212738E-3,-2.530001104E-3,6.657897611E-4
2.789534104E1,4.394212738E-3,7.057371549E-3,2.796316985E-3
2.791561119E1,2.263685223E-3,1.131842658E-2,2.796316985E-3
2.793588135E1,1.331579551E-4,8.122635074E-3,6.657897611E-4
2.795615150E1,1.198421582E-3,7.057371549E-3,-1.464737463E-3
2.797642166E1,2.263685223E-3,2.796316985E-3,-3.994738800E-4
2.799669187E1,1.331579551E-4,3.861580743E-3,6.657897611E-4
2.801696202E1,-9.321057005E-4,8.122635074E-3,6.657897611E-4
2.803723218E1,-3.062632866E-3,1.025316212E-2,1.731053460E-3
2.805750234E1,-9.321057005E-4,1.025316212E-2,-3.994738800E-4
2.807777249E1,3.328948980E-3,4.926844500E-3,-3.994738800E-4
2.809804265E1,6.524739787E-3,1.731053460E-3,6.657897611E-4
2.811831286E1,3.328948980E-3,6.657897611E-4,6.657897611E-4
2.813858302E1,1.198421582E-3,2.796316985E-3,-3.994738800E-4
2.815885317E1,2.263685223E-3,7.057371549E-3,-2.530001104E-3
2.817912333E1,5.459476262E-3,1.731053460E-3,-4.660528619E-3
2.819939348E1,7.590003312E-3,-2.530001104E-3,-3.595264861E-3
2.821966364E1,9.720530361E-3,-5.725792143E-3,-2.530001104E-3
2.823993385E1,7.590003312E-3,-3.595264861E-3,-3.994738800E-4
2.826020400E1,4.394212738E-3,-3.595264861E-3,1.731053460E-3
2.828047416E1,2.263685223E-3,-9.986846708E-3,1.731053460E-3
2.830074432E1,4.394212738E-3,-8.921583183E-3,-1.464737463E-3
2.832101453E1,8.655266836E-3,-8.921583183E-3,-2.530001104E-3
2.834128468E1,8.655266836E-3,-8.921583183E-3,-3.994738800E-4
2.836155484E1,7.590003312E-3,-7.856319658E-3,2.796316985E-3
2.838182499E1,6.524739787E-3,-9.986846708E-3,6.657897611E-4
2.840209520E1,3.328948980E-3,-1.211737376E-2,6.657897611E-4
2.842236536E1,4.394212738E-3,-8.921583183E-3,6.657897611E-4
2.844276536E1,4.394212738E-3,-6.791055668E-3,6.657897611E-4
2.846290567E1,6.524739787E-3,-5.725792143E-3,2.796316985E-3
2.848317583E1,7.590003312E-3,-6.791055668E-3,1.731053460E-3
2.850344604E1,6.524739787E-3,-9.986846708E-3,-3.994738800E-4
2.852371619E1,6.524739787E-3,-9.986846708E-3,-1.464737463E-3
2.854411619E1,5.459476262E-3,-8.921583183E-3,-3.994738800E-4
2.856425650E1,3.328948980E-3,-1.105211023E-2,1.731053460E-3
2.858452666E1,1.331579551E-4,-7.856319658E-3,6.657897611E-4
2.860479687E1,-1.997369342E-3,-4.660528619E-3,-3.994738800E-4
2.862506703E1,-9.321057005E-4,-2.530001104E-3,-1.464737463E-3
2.864546703E1,-1.997369342E-3,6.657897611E-4,1.731053460E-3
2.866560734E1,-9.321057005E-4,4.926844500E-3,2.796316985E-3
2.868587755E1,-1.997369342E-3,5.992108025E-3,2.796316985E-3
2.870614770E1,-3.062632866E-3,3.861580743E-3,1.731053460E-3
2.872641786E1,-4.127896391E-3,1.731053460E-3,6.657897611E-4
2.874668802E1,-1.997369342E-3,4.926844500E-3,1.731053460E-3
2.876695817E1,-9.321057005E-4,3.861580743E-3,2.796316985E-3
2.878722838E1,1.198421582E-3,1.731053460E-3,3.861580743E-3
2.880749854E1,2.263685223E-3,2.796316985E-3,2.796316985E-3
2.882776869E1,1.198421582E-3,1.731053460E-3,3.861580743E-3
2.884803885E1,-1.997369342E-3,1.731053460E-3,1.731053460E-3
2.886830900E1,-9.321057005E-4,-3.994738800E-4,1.731053460E-3
2.888857921E1,2.263685223E-3,6.657897611E-4,2.796316985E-3
2.890884937E1,3.328948980E-3,1.731053460E-3,1.731053460E-3
2.892911952E1,2.263685223E-3,6.657897611E-4,2.796316985E-3
2.894938973E1,-9.321057005E-4,4.926844500E-3,2.796316985E-3
2.896965989E1,-3.062632866E-3,4.926844500E-3,1.731053460E-3
2.898993005E1,-1.997369342E-3,6.657897611E-4,6.657897611E-4
2.901020020E1,1.331579551E-4,2.796316985E-3,1.731053460E-3
2.903047041E1,2.263685223E-3,3.861580743E-3,1.731053460E-3
2.905074057E1,1.331579551E-4,8.122635074E-3,2.796316985E-3
2.907101072E1,-9.321057005E-4,8.122635074E-3,6.657897611E-4
2.909128088E1,-9.321057005E-4,3.861580743E-3,-3.994738800E-4
2.911155109E1,-1.997369342E-3,1.731053460E-3,-2.530001104E-3
2.913182124E1,-1.997369342E-3,4.926844500E-3,-3.994738800E-4
2.915209140E1,1.198421582E-3,7.057371549E-3,6.657897611E-4
2.917236161E1,2.263685223E-3,4.926844500E-3,1.731053460E-3
2.919263176E1,1.331579551E-4,1.025316212E-2,-3.994738800E-4
2.921290192E1,1.198421582E-3,1.557948068E-2,2.796316985E-3
2.923317208E1,-9.321057005E-4,1.344895363E-2,3.861580743E-3
2.925344229E1,-1.997369342E-3,1.025316212E-2,6.657897611E-4
2.927371244E1,1.331579551E-4,5.992108025E-3,1.731053460E-3
2.929398260E1,-1.997369342E-3,5.992108025E-3,-3.994738800E-4
2.931425275E1,-7.323687430E-3,1.238369010E-2,-1.464737463E-3
2.933452296E1,-9.454214945E-3,1.344895363E-2,6.657897611E-4
2.935479312E1,-1.051947847E-2,1.451421715E-2,2.796316985E-3
2.937506333E1,-1.265000552E-2,1.344895363E-2,6.657897611E-4
2.939533348E1,-1.158474199E-2,1.557948068E-2,-1.464737463E-3
2.941560364E1,-1.051947847E-2,1.664474420E-2,-2.530001104E-3
2.943587385E1,-1.158474199E-2,1.451421715E-2,6.657897611E-4
2.945614400E1,-9.454214945E-3,1.451421715E-2,1.731053460E-3
2.947641416E1,-8.388951421E-3,1.771000773E-2,1.731053460E-3
2.949668437E1,-8.388951421E-3,1.664474420E-2,6.657897611E-4
2.951695453E1,-7.323687430E-3,1.557948068E-2,6.657897611E-4
2.953722468E1,-6.258423906E-3,1.877527125E-2,-2.530001104E-3
2.955749489E1,-1.997369342E-3,1.877527125E-2,-3.595264861E-3
2.957776505E1,-9.321057005E-4,3.861580743E-3,2.796316985E-3
2.959803520E1,-3.062632866E-3,5.992108025E-3,1.731053460E-3
2.961830541E1,-3.062632866E-3,8.122635074E-3,-3.994738800E-4
2.963857557E1,-9.321057005E-4,7.057371549E-3,-3.994738800E-4
2.965884572E1,-9.321057005E-4,4.926844500E-3,1.731053460E-3
2.967911593E1,2.263685223E-3,6.657897611E-4,2.796316985E-3
2.969938609E1,3.328948980E-3,-2.530001104E-3,1.731053460E-3
2.971965630E1,4.394212738E-3,-2.530001104E-3,6.657897611E-4
2.973992645E1,2.263685223E-3,-2.530001104E-3,-3.994738800E-4
2.976019666E1,-1.997369342E-3,-3.595264861E-3,-3.994738800E-4
2.978046682E1,-3.062632866E-3,-2.530001104E-3,-3.994738800E-4
2.980073697E1,-9.321057005E-4,-1.464737463E-3,-3.994738800E-4
2.982100713E1,1.331579551E-4,-5.725792143E-3,-1.464737463E-3
2.984127734E1,1.331579551E-4,-4.660528619E-3,-3.994738800E-4
2.986154755E1,-3.062632866E-3,-2.530001104E-3,-3.994738800E-4
2.988181770E1,-7.323687430E-3,-3.994738800E-4,6.657897611E-4
2.990208786E1,-7.323687430E-3,6.657897611E-4,6.657897611E-4
2.992235807E1,-4.127896391E-3,-3.994738800E-4,6.657897611E-4
2.994275807E1,-9.321057005E-4,-3.994738800E-4,-1.464737463E-3
2.996289843E1,1.331579551E-4,5.992108025E-3,-3.994738800E-4
2.998316859E1,-1.997369342E-3,2.796316985E-3,2.796316985E-3
3.000343880E1,-3.062632866E-3,-1.464737463E-3,1.731053460E-3
3.002370900E1,-3.062632866E-3,6.657897611E-4,-1.464737463E-3
3.004410900E1,1.198421582E-3,-3.994738800E-4,-3.595264861E-3
3.006424932E1,4.394212738E-3,-6.791055668E-3,-1.464737463E-3
3.008451952E1,5.459476262E-3,-2.530001104E-3,6.657897611E-4
3.010478968E1,3.328948980E-3,-3.595264861E-3,1.731053460E-3
3.012505989E1,1.198421582E-3,-6.791055668E-3,6.657897611E-4
3.014545989E1,3.328948980E-3,-5.725792143E-3,-3.994738800E-4
3.016560025E1,1.198421582E-3,-4.660528619E-3,6.657897611E-4
3.018587041E1,-3.062632866E-3,-5.725792143E-3,6.657897611E-4
3.020614062E1,-3.062632866E-3,-6.791055668E-3,6.657897611E-4
3.022641083E1,-9.321057005E-4,-6.791055668E-3,6.657897611E-4
3.024681083E1,3.328948980E-3,-7.856319658E-3,6.657897611E-4
3.026695119E1,3.328948980E-3,-8.921583183E-3,1.731053460E-3
3.028722135E1,1.198421582E-3,-4.660528619E-3,1.731053460E-3
3.030749156E1,1.198421582E-3,-6.791055668E-3,2.796316985E-3
3.032776176E1,1.331579551E-4,-7.856319658E-3,2.796316985E-3
3.034803192E1,1.198421582E-3,-4.660528619E-3,2.796316985E-3
3.036830213E1,2.263685223E-3,-8.921583183E-3,1.731053460E-3
3.038857229E1,3.328948980E-3,-6.791055668E-3,2.796316985E-3
3.040884249E1,3.328948980E-3,-7.856319658E-3,2.796316985E-3
3.042911260E1,-9.321057005E-4,-9.986846708E-3,1.731053460E-3
3.044938286E1,-3.062632866E-3,-3.595264861E-3,-3.994738800E-4
3.046965302E1,-1.997369342E-3,-1.464737463E-3,-3.994738800E-4
3.048992322E1,-1.997369342E-3,-2.530001104E-3,1.731053460E-3
3.051019343E1,-9.321057005E-4,-3.994738800E-4,1.731053460E-3
3.053046359E1,-4.127896391E-3,1.731053460E-3,6.657897611E-4
3.055073380E1,-5.193160381E-3,2.796316985E-3,6.657897611E-4
3.057100395E1,-5.193160381E-3,4.926844500E-3,6.657897611E-4
3.059127416E1,-9.321057005E-4,7.057371549E-3,-3.994738800E-4
3.061154437E1,2.263685223E-3,8.122635074E-3,-3.994738800E-4
3.063181453E1,1.331579551E-4,2.796316985E-3,6.657897611E-4
3.065208473E1,-1.997369342E-3,2.796316985E-3,-1.464737463E-3
3.067235489E1,-4.127896391E-3,8.122635074E-3,-2.530001104E-3
3.069262510E1,1.331579551E-4,9.187898599E-3,1.731053460E-3
3.071289525E1,2.263685223E-3,7.057371549E-3,2.796316985E-3
3.073316546E1,1.198421582E-3,7.057371549E-3,6.657897611E-4
3.075343567E1,1.331579551E-4,2.796316985E-3,-3.994738800E-4
3.077370583E1,-3.062632866E-3,-3.994738800E-4,-2.530001104E-3
3.079397604E1,-3.062632866E-3,1.731053460E-3,-3.595264861E-3
3.081424624E1,-1.997369342E-3,-1.464737463E-3,-2.530001104E-3
3.083451640E1,1.331579551E-4,-2.530001104E-3,-3.994738800E-4
3.085478661E1,-9.321057005E-4,-1.464737463E-3,6.657897611E-4
3.087505677E1,-3.062632866E-3,2.796316985E-3,1.731053460E-3
3.089532697E1,-3.062632866E-3,3.861580743E-3,6.657897611E-4
3.091559713E1,-4.127896391E-3,-3.994738800E-4,6.657897611E-4
3.093586734E1,-6.258423906E-3,-3.994738800E-4,-1.464737463E-3
3.095613755E1,-5.193160381E-3,2.796316985E-3,-3.994738800E-4
3.097640775E1,-5.193160381E-3,3.861580743E-3,-3.994738800E-4
3.099667791E1,-5.193160381E-3,6.657897611E-4,1.731053460E-3
3.101694812E1,-4.127896391E-3,6.657897611E-4,-3.994738800E-4
3.103721828E1,-4.127896391E-3,2.796316985E-3,-2.530001104E-3
3.105748848E1,-4.127896391E-3,6.657897611E-4,-1.464737463E-3
3.107775869E1,-3.062632866E-3,1.731053460E-3,6.657897611E-4
3.109802885E1,-5.193160381E-3,5.992108025E-3,-3.994738800E-4
3.111829906E1,-6.258423906E-3,7.057371549E-3,-3.994738800E-4
3.113856921E1,-6.258423906E-3,3.861580743E-3,-3.994738800E-4
3.115883942E1,-5.193160381E-3,4.926844500E-3,-1.464737463E-3
3.117910963E1,-4.127896391E-3,5.992108025E-3,-2.530001104E-3
3.119937978E1,-3.062632866E-3,5.992108025E-3,-3.994738800E-4
3.121964999E1,-1.997369342E-3,7.057371549E-3,6.657897611E-4
3.123992015E1,-1.997369342E-3,7.057371549E-3,6.657897611E-4
3.126019036E1,-3.062632866E-3,2.796316985E-3,6.657897611E-4
3.128046052E1,-1.997369342E-3,6.657897611E-4,6.657897611E-4
3.130073067E1,1.331579551E-4,1.731053460E-3,6.657897611E-4
3.132100088E1,1.198421582E-3,5.992108025E-3,1.731053460E-3
3.134127109E1,3.328948980E-3,2.796316985E-3,1.731053460E-3
3.136154130E1,2.263685223E-3,-1.464737463E-3,-1.464737463E-3
3.138181145E1,1.198421582E-3,-1.464737463E-3,-2.530001104E-3
3.140208166E1,-1.997369342E-3,2.796316985E-3,-3.994738800E-4
3.142235182E1,-3.062632866E-3,2.796316985E-3,6.657897611E-4
3.144275182E1,-4.127896391E-3,1.731053460E-3,1.731053460E-3
3.146289218E1,1.331579551E-4,7.057371549E-3,6.657897611E-4
3.148316234E1,4.394212738E-3,4.926844500E-3,1.731053460E-3
3.150343255E1,5.459476262E-3,6.657897611E-4,2.796316985E-3
3.152370270E1,5.459476262E-3,6.657897611E-4,2.796316985E-3
3.154410270E1,4.394212738E-3,-4.660528619E-3,6.657897611E-4
3.156424307E1,4.394212738E-3,-5.725792143E-3,-2.530001104E-3
3.158451328E1,4.394212738E-3,-5.725792143E-3,-3.994738800E-4
3.160478343E1,6.524739787E-3,-2.530001104E-3,6.657897611E-4
3.162505359E1,5.459476262E-3,-1.464737463E-3,1.731053460E-3
3.164545359E1,5.459476262E-3,-3.595264861E-3,3.861580743E-3
3.166559395E1,3.328948980E-3,-3.994738800E-4,6.657897611E-4
3.168586416E1,1.198421582E-3,-3.994738800E-4,-3.994738800E-4
3.170613432E1,1.331579551E-4,-1.464737463E-3,6.657897611E-4
3.172640447E1,1.331579551E-4,4.926844500E-3,1.731053460E-3
3.174667468E1,1.331579551E-4,2.796316985E-3,2.796316985E-3
3.176707468E1,-9.321057005E-4,4.926844500E-3,6.657897611E-4
3.178721505E1,-1.997369342E-3,5.992108025E-3,-1.464737463E-3
3.180748520E1,-5.193160381E-3,3.861580743E-3,-1.464737463E-3
3.182775536E1,-8.388951421E-3,5.992108025E-3,-2.530001104E-3
3.184802557E1,-4.127896391E-3,7.057371549E-3,6.657897611E-4
3.186829572E1,2.263685223E-3,5.992108025E-3,2.796316985E-3
3.188856588E1,5.459476262E-3,3.861580743E-3,2.796316985E-3
3.190883609E1,6.524739787E-3,3.861580743E-3,1.731053460E-3
3.192910624E1,5.459476262E-3,8.122635074E-3,2.796316985E-3
3.194937640E1,2.263685223E-3,5.992108025E-3,1.731053460E-3
3.196964661E1,1.198421582E-3,-1.464737463E-3,6.657897611E-4
3.198991676E1,5.459476262E-3,-3.595264861E-3,-3.994738800E-4
3.201018692E1,4.394212738E-3,-2.530001104E-3,6.657897611E-4
3.203045708E1,3.328948980E-3,7.057371549E-3,1.731053460E-3
3.205072723E1,1.331579551E-4,5.992108025E-3,3.861580743E-3
3.207099744E1,-4.127896391E-3,2.796316985E-3,6.657897611E-4
3.209126760E1,-4.127896391E-3,3.861580743E-3,-1.464737463E-3
3.211153781E1,-5.193160381E-3,5.992108025E-3,-2.530001104E-3
3.213180796E1,-8.388951421E-3,7.057371549E-3,-3.994738800E-4
3.215207812E1,-1.051947847E-2,8.122635074E-3,-3.994738800E-4
3.217234833E1,-8.388951421E-3,8.122635074E-3,-2.530001104E-3
3.219261848E1,-6.258423906E-3,3.861580743E-3,-2.530001104E-3
3.221288864E1,-3.062632866E-3,6.657897611E-4,-1.464737463E-3
3.223315880E1,-3.062632866E-3,3.861580743E-3,6.657897611E-4
3.225342895E1,-3.062632866E-3,7.057371549E-3,1.731053460E-3
3.227369916E1,-4.127896391E-3,3.861580743E-3,1.731053460E-3
3.229396932E1,-9.321057005E-4,1.731053460E-3,6.657897611E-4
3.231423947E1,3.328948980E-3,-5.725792143E-3,6.657897611E-4
3.233450963E1,6.524739787E-3,-9.986846708E-3,-3.994738800E-4
3.235477979E1,5.459476262E-3,-9.986846708E-3,6.657897611E-4
3.237504999E1,1.198421582E-3,-1.105211023E-2,3.861580743E-3
3.239532015E1,1.198421582E-3,-4.660528619E-3,3.861580743E-3
3.241559031E1,2.263685223E-3,-9.986846708E-3,3.861580743E-3
3.243586046E1,5.459476262E-3,-1.424790081E-2,1.731053460E-3
3.245613062E1,6.524739787E-3,-9.986846708E-3,6.657897611E-4
3.247640078E1,1.198421582E-3,-3.994738800E-4,4.926844500E-3
3.249667098E1,-3.062632866E-3,6.657897611E-4,1.025316212E-2
3.251694114E1,-1.997369342E-3,6.657897611E-4,8.122635074E-3
3.253721130E1,-9.321057005E-4,3.861580743E-3,3.861580743E-3
3.255748145E1,1.198421582E-3,-3.595264861E-3,2.796316985E-3
3.257775161E1,2.263685223E-3,-4.660528619E-3,6.657897611E-4
3.259802176E1,3.328948980E-3,-3.595264861E-3,1.731053460E-3
3.261829192E1,2.263685223E-3,-5.725792143E-3,3.861580743E-3
3.263856213E1,1.198421582E-3,6.657897611E-4,3.861580743E-3
3.265883228E1,1.331579551E-4,4.926844500E-3,2.796316985E-3
3.267910244E1,1.198421582E-3,6.657897611E-4,2.796316985E-3
3.269937260E1,3.328948980E-3,-1.464737463E-3,1.731053460E-3
3.271964275E1,3.328948980E-3,-2.530001104E-3,2.796316985E-3
3.273991291E1,-9.321057005E-4,2.796316985E-3,3.861580743E-3
3.276018302E1,-3.062632866E-3,5.992108025E-3,1.731053460E-3
3.278045322E1,-3.062632866E-3,4.926844500E-3,1.731053460E-3
3.280072333E1,-4.127896391E-3,3.861580743E-3,1.731053460E-3
3.282112333E1,-4.127896391E-3,1.731053460E-3,-3.994738800E-4
3.284126364E1,-3.062632866E-3,2.796316985E-3,-1.464737463E-3
3.286153380E1,-3.062632866E-3,4.926844500E-3,-3.994738800E-4
3.288180395E1,-3.062632866E-3,2.796316985E-3,-3.994738800E-4
3.290207411E1,1.331579551E-4,8.122635074E-3,-3.994738800E-4
3.292234426E1,4.394212738E-3,4.926844500E-3,-3.994738800E-4
3.294274426E1,4.394212738E-3,-4.660528619E-3,1.731053460E-3
3.296288458E1,4.394212738E-3,6.657897611E-4,2.796316985E-3
3.298315473E1,-9.321057005E-4,5.992108025E-3,2.796316985E-3
3.300342484E1,1.331579551E-4,1.025316212E-2,3.861580743E-3
3.302369499E1,3.328948980E-3,1.025316212E-2,3.861580743E-3
3.304409499E1,5.459476262E-3,2.796316985E-3,1.731053460E-3
3.306423531E1,8.655266836E-3,-3.994738800E-4,1.731053460E-3
3.308450541E1,5.459476262E-3,5.992108025E-3,1.731053460E-3
3.310477557E1,4.394212738E-3,9.187898599E-3,-1.464737463E-3
3.312504572E1,2.263685223E-3,3.861580743E-3,-3.595264861E-3
3.314544572E1,1.198421582E-3,3.861580743E-3,-3.595264861E-3
3.316558604E1,1.198421582E-3,4.926844500E-3,-1.464737463E-3
3.318585614E1,2.263685223E-3,1.131842658E-2,-1.464737463E-3
3.320612630E1,3.328948980E-3,1.238369010E-2,-1.464737463E-3
3.322639645E1,5.459476262E-3,1.025316212E-2,6.657897611E-4
3.324679645E1,5.459476262E-3,9.187898599E-3,6.657897611E-4
3.326693671E1,2.263685223E-3,1.344895363E-2,-3.994738800E-4
3.328720682E1,1.198421582E-3,1.238369010E-2,6.657897611E-4
3.330747697E1,3.328948980E-3,1.131842658E-2,6.657897611E-4
3.332774713E1,4.394212738E-3,9.187898599E-3,1.731053460E-3
3.334801723E1,8.655266836E-3,8.122635074E-3,2.796316985E-3
3.336828739E1,8.655266836E-3,1.131842658E-2,-3.994738800E-4
3.338855755E1,9.720530361E-3,4.926844500E-3,2.796316985E-3
3.340882765E1,9.720530361E-3,2.796316985E-3,1.731053460E-3
3.342909781E1,8.655266836E-3,-3.595264861E-3,1.731053460E-3
3.344936791E1,7.590003312E-3,-2.530001104E-3,6.657897611E-4
3.346963807E1,6.524739787E-3,6.657897611E-4,6.657897611E-4
3.348990812E1,4.394212738E-3,-3.994738800E-4,3.861580743E-3
3.351017828E1,7.590003312E-3,-2.530001104E-3,4.926844500E-3
3.353044843E1,9.720530361E-3,-2.530001104E-3,2.796316985E-3
3.355071854E1,8.655266836E-3,1.731053460E-3,6.657897611E-4
3.357098869E1,6.524739787E-3,-2.530001104E-3,-3.994738800E-4
3.359125880E1,1.198421582E-3,-4.660528619E-3,2.796316985E-3
3.361152895E1,-4.127896391E-3,6.657897611E-4,3.861580743E-3
3.363179906E1,-1.997369342E-3,6.657897611E-4,1.731053460E-3
3.365206916E1,3.328948980E-3,-1.464737463E-3,6.657897611E-4
3.367233932E1,1.291632187E-2,-2.530001104E-3,2.796316985E-3
3.369260942E1,9.720530361E-3,-4.660528619E-3,3.861580743E-3
3.371287953E1,5.459476262E-3,-3.595264861E-3,3.861580743E-3
3.373314968E1,4.394212738E-3,-4.660528619E-3,2.796316985E-3
3.375341979E1,5.459476262E-3,-7.856319658E-3,6.657897611E-4
3.377368989E1,9.720530361E-3,-8.921583183E-3,-1.464737463E-3
3.379396005E1,1.398158539E-2,-1.211737376E-2,6.657897611E-4
3.381423015E1,1.291632187E-2,-9.986846708E-3,3.861580743E-3
3.383450025E1,1.185105834E-2,-1.464737463E-3,3.861580743E-3
3.385477036E1,8.655266836E-3,-2.530001104E-3,2.796316985E-3
3.387504052E1,6.524739787E-3,-3.595264861E-3,1.731053460E-3
3.389531062E1,5.459476262E-3,-3.595264861E-3,6.657897611E-4
3.391558072E1,6.524739787E-3,-3.994738800E-4,4.926844500E-3
3.393585083E1,8.655266836E-3,6.657897611E-4,7.057371549E-3
3.395612098E1,9.720530361E-3,-3.994738800E-4,7.057371549E-3
3.397639109E1,8.655266836E-3,-1.464737463E-3,3.861580743E-3
3.399666119E1,9.720530361E-3,-2.530001104E-3,2.796316985E-3
3.401693130E1,6.524739787E-3,-3.595264861E-3,3.861580743E-3
3.403720140E1,4.394212738E-3,-2.530001104E-3,3.861580743E-3
3.405747150E1,2.263685223E-3,-2.530001104E-3,4.926844500E-3
3.407774161E1,2.263685223E-3,-1.464737463E-3,5.992108025E-3
3.409801171E1,3.328948980E-3,-4.660528619E-3,4.926844500E-3
3.411828182E1,5.459476262E-3,-3.595264861E-3,3.861580743E-3
3.413855192E1,4.394212738E-3,-3.595264861E-3,3.861580743E-3
3.415882202E1,4.394212738E-3,-6.791055668E-3,4.926844500E-3
3.417909213E1,2.263685223E-3,-8.921583183E-3,3.861580743E-3
3.419936223E1,2.263685223E-3,-6.791055668E-3,1.731053460E-3
3.421963234E1,3.328948980E-3,-6.791055668E-3,6.657897611E-4
3.423990239E1,4.394212738E-3,-7.856319658E-3,6.657897611E-4
3.426017255E1,4.394212738E-3,-5.725792143E-3,1.731053460E-3
3.428044265E1,4.394212738E-3,-4.660528619E-3,2.796316985E-3
3.430071275E1,5.459476262E-3,-1.464737463E-3,3.861580743E-3
3.432098286E1,5.459476262E-3,-2.530001104E-3,2.796316985E-3
3.434125296E1,8.655266836E-3,-4.660528619E-3,1.731053460E-3
3.436152302E1,7.590003312E-3,-6.791055668E-3,-3.994738800E-4
3.438179312E1,8.655266836E-3,-5.725792143E-3,-1.464737463E-3
3.440206322E1,7.590003312E-3,-4.660528619E-3,-3.994738800E-4
3.442233333E1,5.459476262E-3,-3.595264861E-3,1.731053460E-3
3.444273333E1,4.394212738E-3,-3.994738800E-4,-3.994738800E-4
3.446287348E1,2.263685223E-3,6.657897611E-4,6.657897611E-4
3.448314359E1,1.331579551E-4,-1.464737463E-3,-3.994738800E-4
3.450341369E1,-4.127896391E-3,1.731053460E-3,-2.530001104E-3
3.452368380E1,-4.127896391E-3,4.926844500E-3,-2.530001104E-3
3.454408380E1,-6.258423906E-3,7.057371549E-3,-1.464737463E-3
3.456422395E1,-6.258423906E-3,1.131842658E-2,-3.994738800E-4
3.458449406E1,-6.258423906E-3,1.025316212E-2,-3.994738800E-4
3.460476416E1,-5.193160381E-3,7.057371549E-3,-2.530001104E-3
3.462503421E1,-6.258423906E-3,5.992108025E-3,-2.530001104E-3
3.464543421E1,-8.388951421E-3,8.122635074E-3,-1.464737463E-3
3.466557437E1,-8.388951421E-3,8.122635074E-3,-3.994738800E-4
3.468584447E1,-6.258423906E-3,1.131842658E-2,6.657897611E-4
3.470611458E1,1.331579551E-4,7.057371549E-3,6.657897611E-4
3.472638463E1,1.198421582E-3,-6.791055668E-3,-1.464737463E-3
3.474665473E1,2.263685223E-3,-9.986846708E-3,-2.530001104E-3
3.476692478E1,1.198421582E-3,-8.921583183E-3,-3.595264861E-3
3.478719489E1,-9.321057005E-4,-3.595264861E-3,-1.464737463E-3
3.480746494E1,1.331579551E-4,6.657897611E-4,-3.994738800E-4
3.482773499E1,1.331579551E-4,-4.660528619E-3,6.657897611E-4
3.484800510E1,-9.321057005E-4,-1.464737463E-3,-1.464737463E-3
3.486827515E1,1.331579551E-4,6.657897611E-4,6.657897611E-4
3.488854525E1,-3.062632866E-3,6.657897611E-4,1.731053460E-3
3.490881531E1,-9.321057005E-4,1.025316212E-2,1.731053460E-3
3.492908541E1,1.198421582E-3,8.122635074E-3,2.796316985E-3
3.494935546E1,1.198421582E-3,6.657897611E-4,2.796316985E-3
3.496962552E1,1.198421582E-3,-3.994738800E-4,-3.994738800E-4
3.498989562E1,-9.321057005E-4,-2.530001104E-3,-3.595264861E-3
3.501016567E1,1.331579551E-4,-1.464737463E-3,-3.595264861E-3
3.503043578E1,1.331579551E-4,-2.530001104E-3,-3.994738800E-4
3.505070583E1,1.198421582E-3,-5.725792143E-3,-3.994738800E-4
3.507097588E1,3.328948980E-3,-2.530001104E-3,-3.994738800E-4
3.509124593E1,1.331579551E-4,-2.530001104E-3,6.657897611E-4
3.511151604E1,-1.997369342E-3,-3.994738800E-4,6.657897611E-4
3.513178609E1,-6.258423906E-3,-3.994738800E-4,-3.994738800E-4
3.515205614E1,-7.323687430E-3,-1.464737463E-3,-3.994738800E-4
3.517232624E1,-5.193160381E-3,1.731053460E-3,6.657897611E-4
3.519259630E1,-3.062632866E-3,3.861580743E-3,6.657897611E-4
3.521286635E1,-6.258423906E-3,3.861580743E-3,1.731053460E-3
3.523313640E1,-7.323687430E-3,7.057371549E-3,6.657897611E-4
3.525340650E1,-8.388951421E-3,3.861580743E-3,-3.994738800E-4
3.527367656E1,-7.323687430E-3,-3.994738800E-4,6.657897611E-4
3.529394661E1,-3.062632866E-3,-3.994738800E-4,1.731053460E-3
3.531421666E1,1.198421582E-3,1.731053460E-3,1.731053460E-3
3.533448671E1,2.263685223E-3,-3.595264861E-3,6.657897611E-4
3.535475677E1,-9.321057005E-4,-5.725792143E-3,-3.994738800E-4
3.537502682E1,-1.997369342E-3,-1.464737463E-3,-1.464737463E-3
3.539529687E1,-1.997369342E-3,-4.660528619E-3,-2.530001104E-3
3.541556692E1,1.331579551E-4,-6.791055668E-3,-3.994738800E-4
3.543583703E1,3.328948980E-3,-3.595264861E-3,1.731053460E-3
3.545610708E1,3.328948980E-3,-3.994738800E-4,2.796316985E-3
3.547637713E1,-1.997369342E-3,1.731053460E-3,2.796316985E-3
3.549664713E1,-4.127896391E-3,1.731053460E-3,6.657897611E-4
3.551691723E1,-3.062632866E-3,3.861580743E-3,6.657897611E-4
3.553718723E1,-1.997369342E-3,7.057371549E-3,2.796316985E-3
3.555745729E1,-9.321057005E-4,7.057371549E-3,7.057371549E-3
3.557772734E1,1.331579551E-4,4.926844500E-3,7.057371549E-3
3.559799744E1,2.263685223E-3,5.992108025E-3,2.796316985E-3
3.561826744E1,3.328948980E-3,4.926844500E-3,-1.464737463E-3
3.563853749E1,2.263685223E-3,-1.464737463E-3,-1.464737463E-3
3.565880755E1,1.198421582E-3,-4.660528619E-3,6.657897611E-4
3.567907760E1,1.198421582E-3,6.657897611E-4,2.796316985E-3
3.569934765E1,-9.321057005E-4,5.992108025E-3,2.796316985E-3
3.571961770E1,-3.062632866E-3,8.122635074E-3,1.731053460E-3
3.573988775E1,-9.321057005E-4,8.122635074E-3,6.657897611E-4
3.576015781E1,-1.997369342E-3,1.731053460E-3,6.657897611E-4
3.578042781E1,-5.193160381E-3,3.861580743E-3,2.796316985E-3
3.580069786E1,-1.051947847E-2,1.344895363E-2,3.861580743E-3
3.582096791E1,-1.371526904E-2,1.664474420E-2,3.861580743E-3
3.584123796E1,-1.051947847E-2,1.451421715E-2,3.861580743E-3
3.586150802E1,-3.062632866E-3,1.451421715E-2,3.861580743E-3
3.588177807E1,3.328948980E-3,9.187898599E-3,2.796316985E-3
3.590204807E1,2.263685223E-3,2.796316985E-3,3.861580743E-3
3.592231812E1,1.331579551E-4,4.926844500E-3,3.861580743E-3
3.594271812E1,1.198421582E-3,4.926844500E-3,2.796316985E-3
3.596285822E1,3.328948980E-3,-3.994738800E-4,1.731053460E-3
3.598312822E1,5.459476262E-3,-4.660528619E-3,6.657897611E-4
3.600339828E1,4.394212738E-3,-3.994738800E-4,6.657897611E-4
3.602366833E1,5.459476262E-3,1.731053460E-3,3.861580743E-3
3.604406833E1,5.459476262E-3,3.861580743E-3,3.861580743E-3
3.606420838E1,3.328948980E-3,5.992108025E-3,2.796316985E-3
3.608447838E1,4.394212738E-3,5.992108025E-3,2.796316985E-3
3.610474843E1,5.459476262E-3,9.187898599E-3,3.861580743E-3
3.612501843E1,5.459476262E-3,1.131842658E-2,5.992108025E-3
3.614541843E1,2.263685223E-3,9.187898599E-3,4.926844500E-3
3.616555854E1,2.263685223E-3,1.131842658E-2,3.861580743E-3
3.618582854E1,5.459476262E-3,1.557948068E-2,5.992108025E-3
3.620609859E1,7.590003312E-3,1.025316212E-2,8.122635074E-3
3.622636859E1,7.590003312E-3,5.992108025E-3,5.992108025E-3
3.624676859E1,8.655266836E-3,5.992108025E-3,5.992108025E-3
3.626690864E1,1.078579482E-2,1.731053460E-3,3.861580743E-3
3.628717869E1,8.655266836E-3,-3.994738800E-4,3.861580743E-3
3.630744869E1,9.720530361E-3,-3.994738800E-4,4.926844500E-3
3.632771874E1,1.078579482E-2,3.861580743E-3,5.992108025E-3
3.634798874E1,1.185105834E-2,3.861580743E-3,4.926844500E-3
3.636825880E1,9.720530361E-3,-3.595264861E-3,3.861580743E-3
3.638852880E1,6.524739787E-3,-7.856319658E-3,3.861580743E-3
3.640879880E1,2.263685223E-3,-1.464737463E-3,3.861580743E-3
3.642906885E1,3.328948980E-3,-3.994738800E-4,4.926844500E-3
3.644933885E1,3.328948980E-3,-2.530001104E-3,3.861580743E-3
3.646960890E1,3.328948980E-3,-6.791055668E-3,1.731053460E-3
3.648987890E1,3.328948980E-3,-7.856319658E-3,1.731053460E-3
3.651014895E1,4.394212738E-3,-4.660528619E-3,3.861580743E-3
3.653041895E1,1.185105834E-2,-4.660528619E-3,4.926844500E-3
3.655068895E1,2.356895804E-2,-1.105211023E-2,8.122635074E-3
3.657095895E1,2.889527567E-2,-1.531316526E-2,1.131842658E-2
3.659122900E1,3.315633163E-2,-1.850895584E-2,1.344895363E-2
3.661149900E1,3.315633163E-2,-1.424790081E-2,1.451421715E-2
3.663188781E1,3.954791278E-2,-1.105211023E-2,1.451421715E-2
3.665203900E1,4.807002097E-2,-2.277000993E-2,1.557948068E-2
3.667230906E1,4.380896688E-2,-2.490053698E-2,1.238369010E-2
3.669257906E1,3.741738573E-2,-2.063948289E-2,5.992108025E-3
3.671284906E1,2.996053919E-2,-2.490053698E-2,2.796316985E-3
3.673311906E1,2.676474862E-2,-2.063948289E-2,-3.994738800E-4
3.675338911E1,2.676474862E-2,-2.383527346E-2,1.731053460E-3
3.677365906E1,2.356895804E-2,-2.277000993E-2,4.926844500E-3
3.679392911E1,2.889527567E-2,-7.856319658E-3,4.926844500E-3
3.681419911E1,2.783001214E-2,-7.856319658E-3,5.992108025E-3
3.683446911E1,2.463422157E-2,-1.744369231E-2,5.992108025E-3
3.685473911E1,2.037316747E-2,-1.531316526E-2,4.926844500E-3
3.687500911E1,1.291632187E-2,-1.318263728E-2,1.731053460E-3
3.689527911E1,1.078579482E-2,-1.637842879E-2,6.657897611E-4
3.691554911E1,9.720530361E-3,-1.850895584E-2,1.731053460E-3
3.693581911E1,6.524739787E-3,-1.531316526E-2,2.796316985E-3
3.695608911E1,2.263685223E-3,-9.986846708E-3,1.731053460E-3
3.697635911E1,-1.997369342E-3,-8.921583183E-3,2.796316985E-3
3.699662911E1,-1.997369342E-3,-5.725792143E-3,2.796316985E-3
3.701702911E1,-3.062632866E-3,6.657897611E-4,2.796316985E-3
3.703716911E1,-5.193160381E-3,2.796316985E-3,3.861580743E-3
3.705743911E1,-8.388951421E-3,2.796316985E-3,5.992108025E-3
3.707770911E1,-7.323687430E-3,1.731053460E-3,3.861580743E-3
3.709797911E1,-4.127896391E-3,4.926844500E-3,6.657897611E-4
3.711824911E1,-1.997369342E-3,4.926844500E-3,-3.994738800E-4
3.713851911E1,-1.997369342E-3,6.657897611E-4,2.796316985E-3
3.715878911E1,-1.997369342E-3,6.657897611E-4,3.861580743E-3
3.717905911E1,1.331579551E-4,1.025316212E-2,6.657897611E-4
3.719932911E1,3.328948980E-3,8.122635074E-3,1.731053460E-3
3.721959906E1,4.394212738E-3,-1.464737463E-3,3.861580743E-3
3.723986906E1,3.328948980E-3,-1.464737463E-3,2.796316985E-3
3.726013906E1,3.328948980E-3,5.992108025E-3,-3.994738800E-4
3.728040906E1,3.328948980E-3,5.992108025E-3,-1.464737463E-3
3.730067906E1,3.328948980E-3,-1.464737463E-3,6.657897611E-4
3.732094906E1,3.328948980E-3,6.657897611E-4,1.731053460E-3
3.734121900E1,1.198421582E-3,5.992108025E-3,-3.994738800E-4
3.736148900E1,-9.321057005E-4,4.926844500E-3,6.657897611E-4
3.738175900E1,-1.997369342E-3,1.731053460E-3,-3.994738800E-4
3.740202900E1,-3.062632866E-3,1.731053460E-3,-2.530001104E-3
3.742229895E1,-3.062632866E-3,3.861580743E-3,-2.530001104E-3
3.744269895E1,-4.127896391E-3,8.122635074E-3,-3.994738800E-4
3.746283895E1,-5.193160381E-3,7.057371549E-3,6.657897611E-4
3.748310890E1,-1.997369342E-3,4.926844500E-3,-3.994738800E-4
3.750337890E1,1.198421582E-3,2.796316985E-3,-2.530001104E-3
3.752364885E1,2.263685223E-3,-4.660528619E-3,-3.595264861E-3
3.754404885E1,-9.321057005E-4,-2.530001104E-3,-2.530001104E-3
3.756418885E1,-5.193160381E-3,6.657897611E-4,-1.464737463E-3
3.758445880E1,-4.127896391E-3,-3.994738800E-4,-3.994738800E-4
3.760472880E1,1.331579551E-4,-1.464737463E-3,6.657897611E-4
3.762499880E1,2.263685223E-3,-7.856319658E-3,6.657897611E-4
3.764539880E1,1.331579551E-4,-1.464737463E-3,-1.464737463E-3
3.766553874E1,-1.997369342E-3,4.926844500E-3,-3.994738800E-4
3.768580869E1,-3.062632866E-3,-3.994738800E-4,2.796316985E-3
3.770607869E1,-3.062632866E-3,-3.994738800E-4,1.731053460E-3
3.772634864E1,-9.321057005E-4,-2.530001104E-3,1.731053460E-3
3.774661864E1,1.331579551E-4,-1.464737463E-3,2.796316985E-3
3.776688859E1,1.331579551E-4,6.657897611E-4,6.657897611E-4
3.778715859E1,-1.997369342E-3,-4.660528619E-3,6.657897611E-4
3.780742854E1,-1.997369342E-3,-3.994738800E-4,-3.994738800E-4
3.782769854E1,-1.997369342E-3,-1.464737463E-3,6.657897611E-4
3.784796848E1,1.198421582E-3,-3.595264861E-3,6.657897611E-4
3.786823848E1,3.328948980E-3,-4.660528619E-3,1.731053460E-3
3.788850843E1,1.331579551E-4,-2.530001104E-3,6.657897611E-4
3.790877843E1,-3.062632866E-3,2.796316985E-3,-3.994738800E-4
3.792904838E1,-4.127896391E-3,1.731053460E-3,-3.994738800E-4
3.794931833E1,-1.997369342E-3,-3.994738800E-4,-3.994738800E-4
3.796958833E1,-9.321057005E-4,-3.994738800E-4,-3.994738800E-4
3.798985828E1,-1.997369342E-3,6.657897611E-4,6.657897611E-4
3.801012828E1,-9.321057005E-4,2.796316985E-3,-3.994738800E-4
3.803039822E1,-4.127896391E-3,5.992108025E-3,-1.464737463E-3
3.805066817E1,-5.193160381E-3,7.057371549E-3,-3.994738800E-4
3.807093817E1,-6.258423906E-3,3.861580743E-3,-3.994738800E-4
3.809120812E1,-8.388951421E-3,6.657897611E-4,-1.464737463E-3
3.811147807E1,-7.323687430E-3,4.926844500E-3,-3.595264861E-3
3.813174807E1,-6.258423906E-3,4.926844500E-3,-2.530001104E-3
3.815201802E1,-1.997369342E-3,4.926844500E-3,6.657897611E-4
3.817228796E1,-3.062632866E-3,4.926844500E-3,1.731053460E-3
3.819255791E1,-6.258423906E-3,5.992108025E-3,2.796316985E-3
3.821282791E1,-7.323687430E-3,1.025316212E-2,2.796316985E-3
3.823309786E1,-9.321057005E-4,1.025316212E-2,1.731053460E-3
3.825336781E1,1.331579551E-4,5.992108025E-3,6.657897611E-4
3.827363775E1,1.331579551E-4,4.926844500E-3,6.657897611E-4
3.829390775E1,-1.997369342E-3,6.657897611E-4,1.731053460E-3
3.831417770E1,-3.062632866E-3,-4.660528619E-3,-3.994738800E-4
3.833444765E1,1.331579551E-4,-4.660528619E-3,-2.530001104E-3
3.835471760E1,1.198421582E-3,-6.791055668E-3,-1.464737463E-3
3.837498755E1,-9.321057005E-4,-5.725792143E-3,-3.994738800E-4
3.839525755E1,-5.193160381E-3,1.731053460E-3,6.657897611E-4
3.841552749E1,-7.323687430E-3,6.657897611E-4,-3.994738800E-4
3.843579744E1,-3.062632866E-3,-3.595264861E-3,-3.994738800E-4
3.845606739E1,1.331579551E-4,-3.595264861E-3,-1.464737463E-3
3.847633734E1,-1.997369342E-3,-3.994738800E-4,6.657897611E-4
3.849660728E1,-5.193160381E-3,2.796316985E-3,1.731053460E-3
3.851687723E1,-9.454214945E-3,-3.994738800E-4,-3.994738800E-4
3.853714718E1,-8.388951421E-3,-3.595264861E-3,-2.530001104E-3
3.855741713E1,-4.127896391E-3,-6.791055668E-3,-2.530001104E-3
3.857768708E1,-9.321057005E-4,-4.660528619E-3,-3.994738800E-4
3.859795702E1,1.331579551E-4,3.861580743E-3,2.796316985E-3
3.861822697E1,-1.997369342E-3,5.992108025E-3,5.992108025E-3
3.863849692E1,-5.193160381E-3,5.992108025E-3,5.992108025E-3
3.865876687E1,-4.127896391E-3,5.992108025E-3,4.926844500E-3
3.867903682E1,1.331579551E-4,5.992108025E-3,4.926844500E-3
3.869930682E1,6.524739787E-3,7.057371549E-3,7.057371549E-3
3.871957671E1,7.590003312E-3,7.057371549E-3,7.057371549E-3
3.873984666E1,4.394212738E-3,9.187898599E-3,3.861580743E-3
3.876011661E1,2.263685223E-3,1.025316212E-2,3.861580743E-3
3.878038656E1,-9.321057005E-4,1.344895363E-2,4.926844500E-3
3.880065650E1,-3.062632866E-3,1.664474420E-2,3.861580743E-3
3.882092645E1,-3.062632866E-3,1.771000773E-2,6.657897611E-4
3.884119640E1,-4.127896391E-3,1.557948068E-2,6.657897611E-4
3.886146635E1,-1.997369342E-3,1.025316212E-2,6.657897611E-4
3.888173630E1,-9.321057005E-4,8.122635074E-3,-3.994738800E-4
3.890200624E1,1.198421582E-3,9.187898599E-3,-3.994738800E-4
3.892227619E1,-9.321057005E-4,9.187898599E-3,1.731053460E-3
3.894267619E1,-3.062632866E-3,1.025316212E-2,1.731053460E-3
3.896281604E1,-4.127896391E-3,9.187898599E-3,1.731053460E-3
3.898308598E1,-4.127896391E-3,5.992108025E-3,2.796316985E-3
3.900335593E1,-5.193160381E-3,9.187898599E-3,3.861580743E-3
3.902362588E1,-5.193160381E-3,9.187898599E-3,7.057371549E-3
3.904402588E1,-4.127896391E-3,7.057371549E-3,7.057371549E-3
3.906416578E1,-4.127896391E-3,1.731053460E-3,2.796316985E-3
3.908443567E1,-4.127896391E-3,-3.595264861E-3,-3.994738800E-4
3.910470562E1,-4.127896391E-3,-8.921583183E-3,-2.530001104E-3
3.912497557E1,-3.062632866E-3,-7.856319658E-3,-4.660528619E-3
3.914537557E1,-3.062632866E-3,-6.791055668E-3,-5.725792143E-3
3.916551546E1,-1.997369342E-3,6.657897611E-4,-3.595264861E-3
3.918578541E1,-1.997369342E-3,1.451421715E-2,1.731053460E-3
3.920605531E1,-1.997369342E-3,1.664474420E-2,2.796316985E-3
3.922632520E1,-9.321057005E-4,1.238369010E-2,1.731053460E-3
3.924672520E1,-1.997369342E-3,1.877527125E-2,-3.994738800E-4
3.926686515E1,-1.997369342E-3,2.197106183E-2,-3.994738800E-4
3.928713505E1,-9.321057005E-4,1.771000773E-2,1.731053460E-3
3.930740499E1,2.263685223E-3,1.771000773E-2,2.796316985E-3
3.932767494E1,4.394212738E-3,1.664474420E-2,2.796316985E-3
3.934794484E1,3.328948980E-3,1.451421715E-2,3.861580743E-3
3.936821478E1,-4.127896391E-3,1.131842658E-2,2.796316985E-3
3.938848473E1,-1.051947847E-2,9.187898599E-3,1.731053460E-3
3.940875468E1,-9.454214945E-3,1.131842658E-2,2.796316985E-3
3.942902458E1,-9.321057005E-4,8.122635074E-3,5.992108025E-3
3.944942458E1,1.185105834E-2,-1.464737463E-3,1.131842658E-2
3.946956447E1,1.611211337E-2,-5.725792143E-3,1.344895363E-2
3.948983442E1,1.824264042E-2,-3.994738800E-4,1.025316212E-2
3.951010437E1,1.930790395E-2,-2.530001104E-3,7.057371549E-3
3.953037426E1,1.824264042E-2,-7.856319658E-3,2.796316985E-3
3.955064421E1,1.504684892E-2,-7.856319658E-3,6.657897611E-4
3.957091416E1,1.291632187E-2,-6.791055668E-3,2.796316985E-3
3.959118411E1,1.185105834E-2,-5.725792143E-3,3.861580743E-3
3.961145400E1,9.720530361E-3,6.657897611E-4,2.796316985E-3
3.963172395E1,8.655266836E-3,4.926844500E-3,6.657897611E-4
3.965199390E1,5.459476262E-3,7.057371549E-3,1.731053460E-3
3.967226385E1,4.394212738E-3,1.238369010E-2,1.731053460E-3
3.969253380E1,-1.997369342E-3,9.187898599E-3,1.731053460E-3
3.971280374E1,-6.258423906E-3,1.238369010E-2,6.657897611E-4
3.973307369E1,-1.997369342E-3,1.344895363E-2,-3.994738800E-4
3.975334364E1,-9.321057005E-4,6.657897611E-4,-3.994738800E-4
3.977361359E1,1.331579551E-4,-7.856319658E-3,-3.595264861E-3
3.979388348E1,1.331579551E-4,-1.318263728E-2,-4.660528619E-3
3.981415343E1,-3.062632866E-3,-1.424790081E-2,-4.660528619E-3
3.983442338E1,-3.062632866E-3,-1.211737376E-2,-4.660528619E-3
3.985469333E1,-1.997369342E-3,-1.637842879E-2,-4.660528619E-3
3.987496328E1,1.198421582E-3,-1.957421936E-2,-3.595264861E-3
3.989523322E1,1.198421582E-3,-1.637842879E-2,-1.464737463E-3
3.991550317E1,-3.062632866E-3,-1.424790081E-2,-3.994738800E-4
3.993577312E1,-6.258423906E-3,-1.318263728E-2,-1.464737463E-3
3.995604307E1,-6.258423906E-3,-1.637842879E-2,-1.464737463E-3
3.997631302E1,-7.323687430E-3,-1.850895584E-2,-3.994738800E-4
3.999658296E1,-7.323687430E-3,-1.424790081E-2,-3.994738800E-4
4.001685291E1,-7.323687430E-3,-9.986846708E-3,-1.464737463E-3
4.003712286E1,-7.323687430E-3,-1.105211023E-2,-1.464737463E-3
4.005739281E1,-3.062632866E-3,-1.744369231E-2,-1.464737463E-3
4.007766275E1,-5.193160381E-3,-1.318263728E-2,-2.530001104E-3
4.009793270E1,-6.258423906E-3,-6.791055668E-3,-3.595264861E-3
4.011820265E1,-8.388951421E-3,-5.725792143E-3,-4.660528619E-3
4.013847260E1,-6.258423906E-3,-5.725792143E-3,-4.660528619E-3
4.015874260E1,-3.062632866E-3,-1.105211023E-2,-3.595264861E-3
4.017901255E1,-3.062632866E-3,-5.725792143E-3,-1.464737463E-3
4.019928249E1,-4.127896391E-3,2.796316985E-3,-2.530001104E-3
4.021955244E1,-5.193160381E-3,2.796316985E-3,-2.530001104E-3
4.023982239E1,-4.127896391E-3,-1.464737463E-3,-3.994738800E-4
4.026009234E1,-1.997369342E-3,6.657897611E-4,6.657897611E-4
4.028036228E1,-3.062632866E-3,3.861580743E-3,6.657897611E-4
4.030063223E1,-3.062632866E-3,7.057371549E-3,2.796316985E-3
4.032090218E1,-3.062632866E-3,4.926844500E-3,1.731053460E-3
