"Time (s)","Acceleration x (m/s^2)","Acceleration y (m/s^2)","Acceleration z (m/s^2)"
2.557021800E-2,-2.757728100E0,2.561516523E0,8.115856171E0
4.585376000E-2,-2.736192703E0,2.516052961E0,8.142177582E0
6.597001000E-2,-2.315055847E0,1.965105653E0,8.647661209E0
8.624292700E-2,-2.018345833E0,1.642074585E0,8.743373871E0
1.065151660E-1,-2.011167526E0,1.682752490E0,8.386843681E0
1.267871980E-1,-2.204986095E0,1.424327731E0,8.132605553E0
1.470588640E-1,-2.403590441E0,8.901300430E-1,8.003393173E0
1.673303230E-1,-2.604587555E0,3.349951804E-1,7.996214867E0
1.876015730E-1,-2.532802820E0,-3.810569942E-1,7.790432453E0
2.078726140E-1,-2.274377823E0,-9.266205430E-1,6.859025955E0
2.281436560E-1,-2.609373093E0,-1.451246977E0,6.636493683E0
2.484145410E-1,-3.153141975E0,-1.290927768E0,8.951549530E0
2.686854270E-1,-2.961716175E0,-1.448854089E0,1.092203903E1
2.889562080E-1,-3.256033421E0,-1.410568953E0,1.050568771E1
3.092268850E-1,-2.923431158E0,-1.164108157E0,8.113463402E0
3.294975620E-1,-2.841476917E0,-2.051845312E0,6.126224041E0
3.497682390E-1,-3.416352510E0,-3.512663603E0,4.742574692E0
3.700388640E-1,-4.405186653E0,-4.302893162E0,3.923630953E0
3.903094370E-1,-6.035895348E0,-5.044668198E0,3.940380573E0
4.105800620E-1,-8.956335068E0,-5.284548759E0,5.683551788E0
4.308506350E-1,-9.945169449E0,-5.330012321E0,6.612565517E0
4.512506870E-1,-9.134002686E0,-6.455237389E0,6.614958286E0
4.713917810E-1,-9.122037888E0,-6.629913330E0,6.016154289E0
4.916623020E-1,-1.086700439E1,-4.281357765E0,7.390830994E0
5.119328750E-1,-1.222732353E1,-2.763111830E0,7.764111042E0
5.322035000E-1,-1.332383442E1,-1.781456470E0,8.623732567E0
5.526035000E-1,-1.328794193E1,-1.467996716E0,1.004806042E1
5.727446460E-1,-1.184626675E1,-1.379462242E0,9.839884758E0
5.930152180E-1,-1.078804111E1,-1.666600943E0,8.925228119E0
6.132857910E-1,-1.020419216E1,-2.011167526E0,8.427521706E0
6.335563640E-1,-9.734601021E0,-2.186441660E0,6.899703979E0
6.539564160E-1,-1.049850941E1,-2.562114954E0,4.040879250E0
6.740975620E-1,-1.033340454E1,-3.071786165E0,1.591825247E0
6.943681350E-1,-8.767302513E0,-3.378665686E0,-1.034895778E-1
7.146387080E-1,-6.334998131E0,-3.617947817E0,-1.099501967E0
7.349092810E-1,-5.822335720E0,-5.531009674E0,-4.121637046E-1
7.553092810E-1,-5.836692810E0,-6.661019802E0,-2.420938253E0
7.754504790E-1,-7.084549427E0,-6.335596085E0,-7.471588850E-1
7.957210520E-1,-9.052047729E0,-3.940979004E0,7.417750359E-1
8.159916770E-1,-9.904491425E0,-2.533401012E0,1.110867858E0
8.362623020E-1,-1.008395290E1,-1.467996716E0,8.877372146E-1
8.565329270E-1,-1.004566765E1,-1.317248821E0,7.633104324E-1
8.768035000E-1,-8.652446747E0,-2.686541557E0,1.627119333E-1
8.970741250E-1,-7.508079052E0,-4.822135925E0,-8.404789567E-1
9.173447500E-1,-6.990631580E0,-6.186643124E0,-2.853440940E-1
9.376153750E-1,-6.031109333E0,-6.768697262E0,-2.880360365E0
9.578860000E-1,-7.433901787E0,-5.246263504E0,-2.327020019E-1
9.781566250E-1,-1.236610699E1,-2.296511650E0,2.645265341E0
9.984272500E-1,-1.790369797E1,1.438684583E0,1.197009563E0
1.018697875E0,-2.019721794E1,4.307080805E-2,2.608176768E-1
1.038968552E0,-1.140120125E1,-2.732005358E0,2.871387079E-2
1.059239177E0,-1.262931824E1,-1.444068432E0,2.188236237E0
1.079509854E0,-7.412366390E0,-1.846062660E0,1.199402332E0
1.099909854E0,-3.617349625E0,-1.762313843E0,1.278365493E0
1.120051156E0,-3.418745279E0,-2.834896564E0,-2.478366137E0
1.140321781E0,-1.405185103E0,-5.387440205E0,-2.294118643E0
1.160592458E0,-9.529415965E-1,-6.725626469E0,-1.360319614E0
1.180863135E0,-2.197807550E0,-1.093699455E1,-2.003988981E0
1.201133760E0,-6.887740135E0,-1.162672520E1,-3.464807272E0
1.221404541E0,-4.831109047E0,-9.756733894E0,-1.774278045E0
1.241675218E0,-8.027321815E0,-8.734400749E0,-1.235892892E0
1.261945896E0,-1.160937691E1,-9.912267685E0,-1.989632010E0
1.282216677E0,-9.143573761E0,-1.275434303E1,9.355936646E-1
1.302487354E0,-7.469794273E0,-1.268973637E1,-1.216750264E0
1.322758083E0,-6.808776855E0,-9.962516785E0,-6.921239495E-1
1.343028812E0,-3.110071182E0,-7.642675400E0,-3.403790295E-1
1.363299489E0,-4.975276470E0,-9.515059471E0,-1.010369420E0
1.383570218E0,-7.144370079E0,-1.046082211E1,-1.441675663E0
1.403840948E0,-2.990430117E0,-6.859624386E0,-7.639086246E-1
1.424111677E0,-1.773679733E0,-5.861218929E0,-1.793420553E0
1.444382458E0,-5.032704353E0,-1.006301594E1,-2.162513494E0
1.464653187E0,-4.029513359E0,-7.127620220E0,-1.152144074E0
1.484923916E0,-6.557530403E0,-7.764709473E0,-1.733600020E0
1.505194698E0,-4.199403763E0,-8.243273735E0,-5.318048596E-1
1.525465427E0,-3.033500910E0,-9.445667267E0,-7.615157962E-1
1.545736208E0,-1.766501307E0,-1.094656563E1,-1.192822099E0
1.566006989E0,-3.050250769E0,-8.420941353E0,-1.506281853E0
1.586277771E0,-3.835096598E0,-1.707278967E0,-9.816554785E-1
1.606548552E0,-3.996013880E0,-4.549354076E0,-3.247060299E0
1.626819333E0,-4.881358147E0,-5.044668198E0,-1.355534077E0
1.647090114E0,-4.264009953E0,-4.144368649E0,-1.846062660E0
1.667360896E0,-2.398804665E0,-2.148156643E0,-1.903490424E0
1.687631677E0,-1.063011408E0,-6.165107727E0,1.292124242E-1
1.707902510E0,-9.744769931E-1,-1.173918819E1,-1.965703845E0
1.728173343E0,-1.362114310E0,-1.433181095E1,-1.692921996E0
1.748444125E0,-2.078166485E0,-1.211964703E1,-1.824527264E0
1.768714958E0,-1.982453585E0,-9.909874916E0,-2.830111027E0
1.788985791E0,-2.877967358E0,-1.289073372E1,-1.657029629E0
1.809256573E0,-5.616552830E0,-1.598884106E1,-1.058824062E0
1.829527406E0,-5.815157413E0,-1.607737541E1,-2.700898647E0
1.849927406E0,-2.456232548E0,-1.115474129E1,-3.146561861E0
1.870069073E0,1.273579836E0,-7.960920811E0,-2.399402857E0
1.890339906E0,3.177070379E0,-1.038843918E1,-1.109073281E0
1.910739906E0,8.620143533E-1,-1.024487019E1,-2.006381750E0
1.930881573E0,6.035895348E-1,-1.092981529E1,-2.404188633E0
1.951281573E0,1.151545882E0,-1.058524895E1,-2.461616278E0
1.971423291E0,2.408974171E0,-8.075776100E0,-2.609971285E0
1.991694073E0,3.141177893E0,-8.430512428E0,-2.449652195E0
2.011965010E0,2.854039192E0,-8.099704742E0,-2.416152716E0
2.032235843E0,3.229712248E0,-9.105288506E0,-2.219941139E0
2.052635843E0,2.607578516E0,-9.143573761E0,-1.831705689E0
2.072777562E0,2.600399971E0,-1.064985561E1,-2.013560295E0
2.093048448E0,1.654636860E0,-1.180379391E1,-3.321237803E0
2.113319333E0,9.194421172E-1,-1.020897770E1,-3.028715372E0
2.133590166E0,1.537388563E0,-9.689735413E0,-2.013560295E0
2.153990166E0,1.618744493E0,-1.047996521E1,-1.992024899E0
2.174131937E0,1.628315806E0,-1.031904793E1,-1.637887120E0
2.194402823E0,1.623530149E0,-1.020658493E1,-1.814955950E0
2.214673708E0,1.594816327E0,-1.044407272E1,-1.874776483E0
2.234944593E0,1.365105271E0,-9.289535522E0,-1.987239242E0
2.255344593E0,1.745564103E0,-9.162715912E0,-2.648256540E0
2.275486364E0,1.048654556E0,-8.142775536E0,-7.136593461E-1
2.295757302E0,-2.392822690E-2,-8.406583786E0,-1.750349760E0
2.316028187E0,-1.110867858E0,-9.184251785E0,-2.349153519E0
2.336299073E0,-1.106082320E0,-9.792626381E0,-1.992024899E0
2.356699073E0,-5.264210105E-1,-9.763913155E0,-1.999203324E0
2.376840896E0,-6.795616150E-1,-9.866804123E0,-2.068595171E0
2.397111781E0,-7.417750359E-1,-9.747162819E0,-2.080559254E0
2.417382666E0,-6.795616150E-1,-9.754341125E0,-1.972882271E0
2.437653604E0,-6.412764788E-1,-9.840482712E0,-1.948953986E0
2.457924489E0,-6.293123364E-1,-9.804591179E0,-1.826920033E0
2.478195427E0,-4.426721931E-1,-9.816555023E0,-1.826920033E0
2.498466312E0,-2.727817893E-1,-9.936196327E0,-1.762313843E0
2.518737250E0,-2.632105052E-1,-1.011326504E1,-1.609173179E0
2.539008135E0,-5.599204898E-1,-9.929018021E0,-1.415354609E0
2.559279073E0,-1.012762189E0,-9.845269203E0,-1.324427366E0
2.579550010E0,-1.584646821E0,-1.011087227E1,-1.027119160E0
2.599820896E0,-2.015953064E0,-1.017787075E1,-4.648058116E-1
2.620091833E0,-1.977667928E0,-9.426525116E0,1.292124242E-1
2.640362771E0,-1.853241086E0,-8.748757362E0,7.657032609E-1
2.660633656E0,-1.728216171E0,-9.251250267E0,1.242473125E0
2.680904541E0,-1.261615753E0,-1.261077309E1,1.063011408E0
2.701175531E0,-6.939185858E-1,-1.587159252E1,1.096511006E0
2.721446468E0,-8.069794178E-1,-1.488275909E1,2.585444927E0
2.741717354E0,-1.651047617E-1,-1.053978539E1,2.374876499E0
2.761988291E0,1.019940615E0,-8.437690735E0,6.173482537E-1
2.782388291E0,1.755135417E0,-7.616354465E0,-1.874776483E0
2.802530166E0,1.305284739E0,-7.408178806E0,-3.555734396E0
2.822801104E0,4.815555513E-1,-7.477570534E0,-3.345165968E0
2.843071989E0,-4.498506486E-1,-7.779066563E0,-1.939382792E0
2.863342927E0,-1.185045362E0,-7.905886173E0,-3.810569942E-1
2.883613864E0,-1.508076429E0,-7.960920811E0,7.082754970E-1
2.903884802E0,-1.541576028E0,-8.164310455E0,1.316650629E0
2.924155739E0,-1.252044439E0,-8.271987915E0,1.795215130E0
2.944426677E0,-9.122636318E-1,-8.023134232E0,1.728216171E0
2.964697614E0,-7.585247755E-1,-7.580461979E0,1.189831018E0
2.984918291E0,-8.596215248E-1,-7.098906517E0,8.877372146E-1
3.004680427E0,-9.696913958E-1,-7.134799004E0,6.412764788E-1
3.025080427E0,-1.297508121E0,-8.099704742E0,-1.657029688E-1
3.045480427E0,-1.944168448E0,-7.503891945E0,-1.101894855E0
3.065880427E0,-3.165106058E0,-5.504688263E0,-1.582852125E0
3.086276312E0,-3.454637766E0,-5.003990173E0,-3.906283081E-1
3.106565896E0,-2.614158630E0,-6.134000778E0,2.367697954E0
3.126841885E0,-1.539183140E0,-7.472784996E0,4.778466702E0
3.147117458E0,-1.687538147E0,-8.264809608E0,3.399602890E0
3.167392146E0,-1.469791293E0,-8.794221878E0,1.319043517E0
3.187666000E0,-1.465005636E0,-8.990432739E0,6.987041831E-1
3.207939281E0,-1.733001828E0,-8.643473625E0,8.805587292E-1
3.228212093E0,-1.960918188E0,-1.026640511E1,-3.170489892E-2
3.248484593E0,-9.936196208E-1,-1.495693588E1,-1.630708575E0
3.268756729E0,-2.009970993E-1,-1.680539131E1,-2.842075109E0
3.289028656E0,-7.322037220E-1,-1.518664742E1,-3.347558975E0
3.309300323E0,-2.855833769E0,-1.660379601E1,-2.545365095E0
3.329571885E0,-6.686742783E0,-2.346820641E1,3.232105255E0
3.349843291E0,-5.650052547E0,-1.232303619E1,5.528018475E0
3.370114646E0,-5.000999570E-1,-4.649852753E0,9.140582681E-1
3.390385896E0,2.779861689E0,-6.897909641E0,-4.345963955E0
3.410657093E0,4.350151539E0,-1.081496048E1,-9.323035240E0
3.430928239E0,1.067797065E0,-1.043928719E1,-1.071924686E1
3.451199281E0,-3.040679455E0,-1.202871990E1,-8.471190453E0
3.471470323E0,-6.698707104E0,-1.208854008E1,-3.517449379E0
3.491741312E0,-1.069711399E1,-9.529416084E0,3.782454491E0
3.512012406E0,-6.275177479E0,-9.184251785E0,3.413959742E0
3.532283291E0,-1.363908947E-1,-9.582057953E0,-1.755135417E0
3.552683343E0,2.672184706E0,-9.617950439E0,-3.345165968E0
3.572825271E0,1.946561217E0,-9.134002686E0,-8.883354068E-1
3.593096208E0,3.092723191E-1,-8.349156380E0,2.943171859E-1
3.613367198E0,-1.677966833E0,-8.126026154E0,-9.870393574E-2
3.633638135E0,-4.424329281E0,-8.102097511E0,-6.681957245E-1
3.654038187E0,-6.224927902E0,-7.939385414E0,-2.901297510E-1
3.674180010E0,-6.210571289E0,-7.657032490E0,5.024927258E-1
3.694450896E0,-4.290330887E0,-7.858029366E0,1.089332461E0
3.714721885E0,-2.707478762E0,-8.609973907E0,1.072582722E0
3.734992771E0,-1.627717614E0,-8.983254433E0,3.804588020E-1
3.755392771E0,-9.409775138E-1,-8.035098076E0,-5.324030295E-2
3.775534593E0,-7.974081635E-1,-7.144370079E0,-4.983053207E-1
3.795805531E0,-1.460219979E0,-7.058228493E0,-1.070788145E0
3.816076416E0,-2.906681299E0,-6.347560406E0,-1.590030670E0
3.836347354E0,-4.208974838E0,-5.042275429E0,-2.075773716E0
3.856618239E0,-5.082953453E0,-4.300500393E0,-1.867598057E0
3.876889125E0,-4.951348305E0,-5.545366287E0,-1.195214868E0
3.897160010E0,-4.077369690E0,-8.605188370E0,-6.299105883E-1
3.917430948E0,-4.149154663E0,-1.183729362E1,5.264209956E-2
3.937701885E0,-3.086143017E0,-1.464347649E1,8.781659007E-1
3.957972771E0,-1.891526341E0,-1.444427395E1,2.207378864E0
3.978243656E0,-3.234498024E0,-1.436770344E1,2.726621389E0
3.998514541E0,-3.552743435E0,-1.966122627E1,8.709874153E-1
4.018785427E0,2.925225794E-1,-2.270668983E1,1.094118118E0
4.039056312E0,-3.182454109E-1,-1.588834190E1,6.843472719E-1
4.059327250E0,-1.989632010E0,-1.314676571E1,-1.482353687E0
4.079598135E0,-3.289532900E0,-1.055653572E1,-1.166501045E0
4.099869021E0,-4.271188259E0,-9.000003815E0,9.571290761E-2
4.120139906E0,-4.034298897E0,-8.978468895E0,6.628118753E-1
4.140406833E0,-2.973680258E0,-8.528617859E0,1.125224829E0
4.160643135E0,-1.675574064E0,-7.738388538E0,1.134796143E0
4.180953135E0,-4.905286431E-1,-6.591628075E0,9.547362328E-1
4.201223916E0,2.512463629E-1,-5.703292847E0,7.920243144E-1
4.221494698E0,7.016952634E-1,-5.365904808E0,5.527420044E-1
4.241765531E0,8.309076428E-1,-4.743172646E0,3.206382394E-1
4.262036364E0,8.931210637E-1,-4.305285931E0,2.392822653E-1
4.282307198E0,8.668000102E-1,-4.554139614E0,1.196411345E-2
4.302578031E0,8.165507317E-1,-5.073382378E0,-4.719842672E-1
4.322848812E0,4.576273263E-1,-5.638686657E0,-9.361918569E-1
4.343119698E0,-4.666004181E-1,-6.031109333E0,-1.209571838E0
4.363390531E0,-2.322234392E0,-7.228118896E0,-5.676971674E-1
4.383661364E0,-4.350151539E0,-9.436096191E0,3.445664644E-1
4.403932198E0,-6.823133945E0,-1.008455086E1,-0.000000000E0
4.424203083E0,-7.070192814E0,-6.962515831E0,7.800601721E-1
4.444473916E0,-6.220142365E0,-6.524629116E0,1.809572101E0
4.464744802E0,-5.126024246E0,-8.283951759E0,2.245664120E0
4.485015635E0,-4.266402721E0,-1.013719273E1,3.832703590E0
4.505286521E0,-2.626122952E0,-1.301037502E1,3.122035265E0
4.525557354E0,-1.709073544E0,-1.589073563E1,-7.471588850E-1
4.545828187E0,-6.556333899E-1,-1.559881115E1,-2.942573547E0
4.566099021E0,4.313062727E-1,-1.238764286E1,-2.519043922E0
4.586369906E0,-2.440679073E-1,-1.043928719E1,-2.183450609E-1
4.606640739E0,-2.350948334E0,-1.538764381E1,-2.327020019E-1
4.626911625E0,-6.102894306E0,-2.948974419E1,3.708875179E-1
4.647182458E0,-7.022336483E0,-1.203589821E1,1.134796143E0
4.667453291E0,-3.849453449E0,-2.063809633E0,-9.768698215E-1
4.687724125E0,-7.322037220E-1,-3.768695593E0,-2.334796667E0
4.707994958E0,-1.548754454E0,-9.608379364E0,-7.908278942E0
4.728265791E0,-2.090130568E0,-1.040339470E1,-1.152383423E1
4.748536625E0,-9.266205430E-1,-1.101595688E1,-1.104227829E1
4.768807458E0,-1.709073544E0,-1.142273712E1,-3.675375462E0
4.789078291E0,-4.917250633E0,-1.013001442E1,6.138188362E0
4.809349125E0,-3.679563046E0,-9.153144836E0,3.160320520E0
4.829619958E0,-9.888339639E-1,-8.825327873E0,-1.085145116E0
4.849890791E0,-1.436291814E0,-8.428119659E0,-2.844467878E0
4.870161625E0,-2.827120066E0,-8.188239098E0,-2.008774519E0
4.890432354E0,-3.756133318E0,-7.936992645E0,-6.825526357E-1
4.910703239E0,-4.642076015E0,-7.805387497E0,1.531406492E-1
4.930974073E0,-5.628517151E0,-7.563712597E0,5.886343718E-1
4.951374073E0,-5.839085579E0,-7.353144169E0,4.642075896E-1
4.971515687E0,-4.711467743E0,-7.338787079E0,6.580262184E-1
4.991786521E0,-3.459423304E0,-7.141977310E0,7.010970116E-1
5.012057302E0,-2.640479803E0,-6.955337048E0,2.919243574E-1
5.032328135E0,-1.953739643E0,-6.467201233E0,-5.988038778E-1
5.052728135E0,-1.654038668E0,-5.937789440E0,-1.317248821E0
5.072869750E0,-1.735394597E0,-5.708078384E0,-2.090130568E0
5.093140531E0,-2.492124796E0,-5.806184292E0,-3.105285645E0
5.113411364E0,-3.559921980E0,-5.631507874E0,-3.280559778E0
5.133682146E0,-4.783252239E0,-6.529414654E0,-2.684148788E0
5.154082146E0,-5.468197823E0,-9.201001167E0,-1.731207132E0
5.174223760E0,-4.474578381E0,-1.254856014E1,-9.152546525E-2
5.194494541E0,-2.231307030E0,-1.646979904E1,1.335793257E0
5.214765323E0,-7.441678643E-1,-1.798565102E1,2.214557409E0
5.235036104E0,-3.143570662E0,-1.804307938E1,2.027318954E0
5.255436104E0,-4.756931305E0,-1.947458458E1,7.489534616E-1
5.275577666E0,-2.135594130E0,-1.686042595E1,9.834501147E-1
5.295848448E0,-1.980060697E0,-1.444188118E1,7.657032460E-2
5.316119229E0,-2.183450699E0,-1.284287739E1,-9.385846853E-1
5.336390010E0,-2.382055044E0,-1.154297638E1,-4.767699242E-1
5.356790010E0,-2.109273195E0,-1.116670513E1,4.689932466E-1
5.376931521E0,-2.020738840E0,-1.013479996E1,1.096511006E0
5.397202250E0,-1.958525300E0,-8.540582657E0,1.089332461E0
5.417473031E0,-9.290133715E-1,-7.089335442E0,7.465606928E-1
5.437743812E0,1.268195957E-1,-6.035895348E0,4.522434771E-1
5.458014593E0,7.663014531E-1,-4.903491974E0,-3.888336942E-2
5.478285323E0,8.237292171E-1,-3.553341627E0,-4.217349887E-1
5.498556104E0,8.285148144E-1,-3.093321562E0,-2.135594189E-1
5.518826833E0,7.040880919E-1,-3.527020693E0,6.699903309E-2
5.539097614E0,2.662015259E-1,-4.324428558E0,2.871387079E-2
5.559368343E0,-3.469592929E-1,-5.147559643E0,-7.178467698E-3
5.579639125E0,-1.096511006E0,-5.866004944E0,9.092725813E-2
5.599909854E0,-2.401197433E0,-6.823731899E0,2.703889608E-1
5.620180583E0,-4.362115860E0,-8.300702095E0,4.737788737E-1
5.640451364E0,-6.356533527E0,-9.332606316E0,5.120640397E-1
5.660722093E0,-7.419544697E0,-8.442476273E0,1.546361685E0
5.680992823E0,-6.428318024E0,-8.152346611E0,3.030509949E0
5.701263552E0,-4.965705395E0,-8.519046783E0,3.626920938E0
5.721534281E0,-3.713062525E0,-8.724829674E0,3.547957659E0
5.741805010E0,-2.709871531E0,-1.043450165E1,2.484946251E0
5.762075739E0,-3.660420418E0,-1.412124252E1,-2.925225794E-1
5.782346468E0,-4.285545349E0,-1.676232147E1,-2.669791937E0
5.802617198E0,-3.488137245E0,-1.421934891E1,-3.428914785E0
5.822887927E0,-1.956132531E0,-8.679366112E0,-2.928216696E0
5.843158656E0,-4.642076015E0,-1.581416512E1,-1.779063582E0
5.863429385E0,-1.031186962E1,-2.976491928E1,2.056032896E0
5.883700062E0,-6.354140759E0,-8.882756233E0,3.392424345E0
5.903970791E0,-1.158724308E0,-2.181656122E0,1.855035782E0
5.924241521E0,2.583650351E0,-6.471987247E0,-1.747956991E0
5.944512198E0,4.640281200E0,-1.111645603E1,-8.581260681E0
5.964782927E0,2.111665964E0,-1.058046341E1,-1.220818138E1
5.985014802E0,-3.230310678E-1,-1.210050392E1,-1.072163963E1
6.004893656E0,-2.743371248E0,-1.233978653E1,-4.862813950E0
6.025293656E0,-8.305487633E0,-1.143769264E1,1.957927108E0
6.045693656E0,-1.320838070E1,-9.897911072E0,8.532805443E0
6.066111364E0,-3.526422262E0,-8.492725372E0,3.995415688E0
6.086391625E0,-2.033899277E-1,-9.011968613E0,-2.846860647E0
6.106665375E0,1.387837082E-1,-8.818149567E0,-4.274179459E0
6.126938552E0,-2.671586514E0,-7.503891945E0,-2.684148788E0
6.147211260E0,-5.530411243E0,-7.055835724E0,-1.798206210E0
6.167483552E0,-7.211369038E0,-6.785446644E0,3.421736360E-1
6.187755427E0,-7.335795879E0,-7.676175117E0,1.340578914E0
6.208027198E0,-5.798407555E0,-8.152346611E0,7.010970116E-1
6.228298656E0,-4.448257446E0,-7.623532772E0,4.378865361E-1
6.248570010E0,-3.344567776E0,-7.365108013E0,9.571290612E-1
6.268841156E0,-3.043072224E0,-6.984051228E0,1.019342422E0
6.289112302E0,-3.090928555E0,-7.635497093E0,8.350951076E-1
6.309383291E0,-2.690729141E0,-8.425726891E0,3.397808075E-1
6.329654229E0,-2.769692183E0,-8.430512428E0,-7.710871100E-1
6.349925114E0,-3.023929596E0,-7.716853142E0,-1.860419631E0
6.370195948E0,-3.150749207E0,-6.124429703E0,-2.849253654E0
6.390466625E0,-3.387638569E0,-5.018347263E0,-2.887538671E0
6.410866781E0,-4.106083870E0,-5.181059361E0,-2.382653236E0
6.431008135E0,-4.469792843E0,-6.333203316E0,-1.697707653E0
6.451278916E0,-4.400400639E0,-7.747959614E0,-1.283749342E0
6.471549698E0,-5.054239750E0,-1.078146076E1,-1.147358418E0
6.491820375E0,-4.958526611E0,-1.334537029E1,-7.639086246E-1
6.512091104E0,-2.566302299E0,-1.324965763E1,-4.145565331E-1
6.532361729E0,-1.481755376E0,-1.308933830E1,1.455434322E0
6.552761729E0,-4.424329281E0,-1.278066349E1,3.847060680E0
6.572903083E0,-6.736992359E0,-1.318026543E1,3.545564890E0
6.593173708E0,-6.586244106E0,-1.825604057E1,1.108475089E0
6.613444437E0,-1.438684583E0,-1.869392776E1,6.628118753E-1
6.633715062E0,1.290329576E0,-1.409731483E1,-5.222335458E-1
6.654115062E0,1.091725349E0,-1.197368431E1,-1.802991867E0
6.674256312E0,-1.034297585E0,-1.016112137E1,-6.490531564E-1
6.694526937E0,-2.973680258E0,-9.361918449E0,7.250252366E-1
6.714797614E0,-4.271188259E0,-8.964112282E0,8.470591903E-1
6.735068187E0,-2.966501951E0,-8.094919205E0,6.699903309E-2
6.755468239E0,-9.122636318E-1,-7.357929707E0,3.780659735E-1
6.775609541E0,2.709871531E-1,-6.448058605E0,4.785645306E-1
6.795880166E0,1.079761267E0,-5.851647854E0,2.943171859E-1
6.816150791E0,1.151545882E0,-5.145166874E0,1.770688742E-1
6.836421364E0,7.064808607E-1,-4.767100811E0,2.273181528E-1
6.856821364E0,2.273181528E-1,-5.149952412E0,1.722832322E-1
6.876962614E0,5.742774159E-2,-5.588437080E0,-1.130608693E-1
6.897233187E0,-3.900300860E-1,-5.820540905E0,-6.586244106E-1
6.917503812E0,-1.939382792E0,-6.038288116E0,-1.188036442E0
6.937774437E0,-4.063013077E0,-7.695317745E0,-3.954139352E-1
6.958045010E0,-6.196214199E0,-1.179661560E1,3.445664644E-1
6.978315635E0,-7.127620220E0,-1.097767162E1,9.571290761E-2
6.998586208E0,-7.110870838E0,-7.060621262E0,5.862415433E-1
7.018856781E0,-7.709076405E0,-4.968098164E0,7.489534616E-1
7.039127406E0,-6.638886452E0,-5.799005508E0,1.476969719E0
7.059398031E0,-4.273581028E0,-9.122037888E0,3.020938635E0
7.079668604E0,-1.170688510E0,-1.423131275E1,3.215355396E0
7.099939177E0,7.686942816E-1,-1.540678692E1,1.622931957E0
7.120209750E0,-1.843669891E0,-1.286919880E1,-1.295713425E0
7.140480375E0,-3.509672642E0,-1.231346512E1,-3.735196114E0
7.160750948E0,-4.034298897E0,-1.078624630E1,-3.629911900E0
7.181021521E0,-3.847060680E0,-9.739984512E0,-1.214357495E0
7.201292093E0,-6.256034851E0,-2.062134552E1,2.116451740E0
7.221562614E0,-4.539184570E0,-2.432065010E1,2.662015200E0
7.241833291E0,-2.772084951E0,-5.059025288E0,-3.906283081E-1
7.262103812E0,-1.094118118E0,-2.056631088E0,-2.239083767E0
7.282374385E0,-1.010369420E0,-8.332406998E0,-6.538986206E0
7.302644958E0,-2.954537868E0,-1.157886887E1,-1.095135117E1
7.322915531E0,-3.701098442E0,-1.012522888E1,-1.120738316E1
7.343186104E0,-3.102892876E0,-1.126002502E1,-5.624329567E0
7.363456625E0,-3.430709362E0,-1.179422283E1,3.672384501E0
7.383727146E0,-3.114856958E0,-1.018983555E1,4.666004181E0
7.403997718E0,-7.106683254E-1,-8.971290588E0,-8.452646136E-1
7.424268291E0,-3.517449200E-1,-8.516654015E0,-3.627519131E0
7.444538864E0,-5.670989752E-1,-8.456833839E0,-3.347558975E0
7.464809385E0,-1.941775560E0,-8.523832321E0,-1.688136339E0
7.485079958E0,-3.837489367E0,-8.288737297E0,-1.099501967E0
7.505350427E0,-5.310271740E0,-7.544569969E0,-8.309076428E-1
7.525621052E0,-6.136393547E0,-7.475177765E0,-5.102694035E-1
7.545891573E0,-5.975476265E0,-7.903493404E0,-2.392822644E-3
7.566162146E0,-5.324628353E0,-7.975277901E0,8.231309652E-1
7.586432666E0,-4.878965378E0,-8.471190453E0,9.020941257E-1
7.606703187E0,-3.878167391E0,-8.988039970E0,9.810572863E-2
7.626973760E0,-3.107678413E0,-7.673782349E0,-3.595215976E-1
7.647244281E0,-3.284747362E0,-5.564508915E0,-4.504488707E-1
7.667514802E0,-3.327818155E0,-5.380261898E0,-3.786641955E-1
7.687785323E0,-3.186641455E0,-7.396214962E0,-9.385846853E-1
7.708055843E0,-2.317448616E0,-8.944969177E0,-2.073380709E0
7.728326416E0,-1.498505235E0,-7.487142086E0,-2.542972326E0
7.748596937E0,-1.778465390E0,-5.842076302E0,-2.473580360E0
7.768867458E0,-2.338984251E0,-5.842076302E0,-2.318047047E0
7.789137979E0,-4.137190342E0,-9.656235695E0,-2.011167526E0
7.809408500E0,-5.745765209E0,-1.321615791E1,-9.744769931E-1
7.829679021E0,-4.177868366E0,-1.272323608E1,5.216353536E-1
7.849949489E0,-3.067000389E0,-1.209093285E1,2.853441000E0
7.870220010E0,-4.740181446E0,-1.285005569E1,3.679563046E0
7.890490531E0,-6.643671989E0,-1.375753403E1,2.798406124E0
7.910761052E0,-5.805585861E0,-1.682692719E1,1.144367456E0
7.931031573E0,-1.383649707E0,-1.755913162E1,6.221338734E-2
7.951302041E0,3.930211067E-1,-1.262752342E1,-8.476574421E-1
7.971572562E0,-3.565305769E-1,-1.068814087E1,-1.343569875E0
7.991843031E0,-1.953739643E0,-9.795019150E0,9.571290575E-3
8.012113552E0,-3.900300980E0,-9.390632629E0,7.585247755E-1
8.032384021E0,-4.675575256E0,-9.342177391E0,8.279166222E-1
8.052784021E0,-2.717050076E0,-8.097311974E0,6.939185858E-1
8.072925010E0,-1.146760225E0,-6.811768055E0,7.106683254E-1
8.093195531E0,-4.450650215E-1,-6.414559364E0,6.269195080E-1
8.113466000E0,-4.546362907E-2,-6.347560406E0,3.924229145E-1
8.133736468E0,1.914258115E-2,-6.181857109E0,1.603191197E-1
8.154136468E0,-2.751746178E-1,-5.973681927E0,1.004985496E-1
8.174277458E0,-5.527420044E-1,-5.849255085E0,2.392822653E-1
8.194547927E0,-5.120640397E-1,-6.191428661E0,2.392822653E-1
8.214818396E0,-5.479564071E-1,-6.259026051E0,-6.041877344E-2
8.235088916E0,-1.297508121E0,-6.169893265E0,-2.949153781E-1
8.255488916E0,-3.215355396E0,-7.590033531E0,-7.567301393E-1
8.275629854E0,-6.665207386E0,-8.830113411E0,-2.877369225E-1
8.295900323E0,-9.229715347E0,-8.082955360E0,-4.001995921E-1
8.316170791E0,-8.324629784E0,-6.373881340E0,-5.557330847E-1
8.336441260E0,-6.308676720E0,-6.043073654E0,1.634896040E0
8.356841260E0,-4.675575256E0,-8.461619377E0,5.041677475E0
8.376982198E0,-2.458625317E0,-1.141316605E1,4.682754040E0
8.397252614E0,-1.522433400E0,-1.245224857E1,1.972284079E0
8.417523031E0,-3.375674486E0,-1.242832088E1,1.584646821E0
8.437793500E0,-3.820739508E0,-1.349133205E1,2.201396823E-1
8.458063968E0,-4.077369690E0,-1.406142235E1,-3.114856958E0
8.478334385E0,-3.145963669E0,-1.298644638E1,-4.855635166E0
8.498604854E0,-2.508874655E0,-9.818947792E0,-3.416950703E0
8.518875271E0,-2.776870728E0,-8.971290588E0,-6.921239495E-1
8.539145739E0,-4.421936035E0,-1.787558174E1,1.914856315E0
8.559416260E0,-6.105287075E0,-2.237648010E1,2.463410854E0
8.579686729E0,-4.144368649E0,-6.634698868E0,-2.494517565E-1
8.599957093E0,-1.965703845E0,-3.314059258E0,-2.475973129E0
8.620227510E0,-1.058225870E0,-8.504690170E0,-6.778268337E0
8.640497927E0,-1.323829174E0,-1.160758305E1,-9.797411919E0
8.660768396E0,-1.565504193E0,-9.775876999E0,-8.710473061E0
8.681038812E0,-1.646860242E0,-9.675378799E0,-4.958526611E0
8.701309229E0,-3.100499868E0,-1.078863907E1,3.661018610E-1
8.721579593E0,-4.651647091E0,-9.823733330E0,2.982653379E0
8.741850114E0,-2.137987137E0,-8.705686569E0,2.201396823E-1
8.762120531E0,-8.021938205E-1,-7.917850018E0,-1.549352646E0
8.782390948E0,-1.651645780E0,-8.008777618E0,-1.865205288E0
8.802661312E0,-3.313461065E0,-8.456833839E0,-1.233500123E0
8.822931781E0,-4.079762459E0,-8.358727455E0,-7.423732281E-1
8.843202198E0,-4.333401680E0,-6.608377934E0,-3.714857101E-1
8.863472614E0,-5.181059361E0,-6.376274109E0,2.871387079E-2
8.883743031E0,-6.569494724E0,-8.169096947E0,2.536391914E-1
8.904013448E0,-6.466603279E0,-8.008777618E0,6.173482537E-1
8.924283812E0,-4.527220249E0,-6.476772785E0,8.566305041E-1
8.944554229E0,-2.456232548E0,-6.191428661E0,-1.585244983E-1
8.964824646E0,-1.733001828E0,-7.079763889E0,-1.384247899E0
8.985056208E0,-1.721037745E0,-7.242475986E0,-2.406581402E0
9.004934750E0,-2.214557409E0,-6.924230576E0,-3.156133175E0
9.025334750E0,-2.516052961E0,-5.590830326E0,-3.055036306E0
9.045734750E0,-2.843869686E0,-4.120440483E0,-2.322832584E0
9.066152458E0,-3.550350666E0,-4.965705395E0,-1.164108157E0
9.086431521E0,-5.688337803E0,-1.023051357E1,-8.165507317E-1
9.106704958E0,-5.549553871E0,-1.339561939E1,-7.663014531E-1
9.126977875E0,-3.979264021E0,-1.464108372E1,7.202396393E-1
9.147250218E0,-3.354139090E0,-1.560598946E1,2.810370207E0
9.167522146E0,-5.317450047E0,-1.560838223E1,2.927618504E0
9.187793864E0,-5.360520840E0,-1.897687912E1,1.536790371E0
9.208065271E0,-1.811964989E0,-1.712602997E1,7.322037220E-1
9.228336468E0,-9.792626500E-1,-1.356850052E1,-8.835497499E-1
9.248607458E0,-9.314061999E-1,-1.265384388E1,-2.308475733E0
9.268878343E0,-1.826920033E0,-1.025444126E1,-1.405783296E0
9.289149125E0,-3.078964472E0,-9.208179474E0,-3.690928817E-1
9.309419854E0,-4.199403763E0,-9.668199539E0,7.178467698E-3
9.329690479E0,-4.883750916E0,-8.980861664E0,6.412764788E-1
9.349961052E0,-3.418745279E0,-8.236095428E0,8.350951076E-1
9.370231573E0,-1.359721422E0,-7.300501823E0,8.949156404E-1
9.390502093E0,-3.278166950E-1,-6.359524250E0,7.178468108E-1
9.410772562E0,2.440679073E-1,-5.660222054E0,2.512463629E-1
9.431042927E0,3.714857101E-1,-5.085346222E0,-1.034895778E-1
9.451443031E0,1.316052526E-1,-4.934598446E0,-1.585244983E-1
9.471583812E0,4.785645287E-3,-5.190630436E0,-1.728814393E-1
9.491854229E0,-2.679961324E-1,-5.461617470E0,-6.059823632E-1
9.512124593E0,-1.173081279E0,-5.193023205E0,-7.328019142E-1
9.532395010E0,-2.652443886E0,-4.750350952E0,-7.016952634E-1
9.552795010E0,-4.350151539E0,-5.291727066E0,-2.392822644E-3
9.572935739E0,-5.645267010E0,-7.640282631E0,8.207381964E-1
9.593206104E0,-6.442675114E0,-9.388239861E0,9.714859724E-1
9.613476468E0,-5.118845940E0,-9.277571678E0,1.960319996E0
9.633746833E0,-4.106083870E0,-8.980861664E0,1.953141451E0
9.654146833E0,-4.041477680E0,-1.001994514E1,1.089332461E0
9.674287510E0,-4.701896667E0,-1.432463264E1,2.488535494E-1
9.694557875E0,-4.474578381E0,-1.546660709E1,-1.178465128E0
9.714828239E0,-3.969692707E0,-1.334297752E1,-2.913859844E0
9.735098552E0,-3.150749207E0,-1.118106174E1,-1.101894855E0
9.755498552E0,-1.891526341E0,-9.881160736E0,2.559123755E0
9.775639229E0,-7.465606928E-1,-1.270648670E1,2.260020971E0
9.795909541E0,-3.842274904E0,-2.498166656E1,6.221339107E-1
9.816179854E0,-4.963312149E0,-1.476551056E1,-1.735992789E0
9.836450218E0,-4.400400639E0,-2.935395241E0,-2.330011129E0
9.856720531E0,-3.418745279E0,-3.969692707E0,-2.772683144E0
9.876990843E0,-4.469792843E0,-1.113559818E1,-6.773482800E0
9.897261208E0,-4.433900356E0,-1.142752266E1,-1.053499985E1
9.917531521E0,-1.522433400E0,-1.067139053E1,-1.021615601E1
9.937801781E0,5.503492057E-2,-1.219861031E1,-4.611567497E0
9.958072146E0,-1.431506157E0,-1.113799095E1,5.091926575E0
9.978342458E0,-3.430709362E0,-8.593224525E0,3.526422262E0
9.998612771E0,-2.709871531E0,-8.303094864E0,-2.494517565E-1
1.001888308E1,-2.877967358E0,-8.094919205E0,-2.265404940E0
1.003915340E1,-2.712264538E0,-7.700103283E0,-2.234298229E0
1.005942366E1,-2.733799934E0,-7.175477028E0,-7.878368497E-1
1.007969397E1,-3.308675528E0,-6.694519520E0,2.847459018E-1
1.009996428E1,-4.584648132E0,-7.046264648E0,7.058826685E-1
1.012023459E1,-5.673980713E0,-7.290930748E0,2.392822653E-1
1.014050491E1,-6.031109333E0,-7.180262566E0,-3.858426511E-1
1.016077517E1,-5.178666592E0,-7.295716286E0,-2.973082066E-1
1.018104548E1,-3.981656790E0,-7.288537979E0,-5.174478889E-1
1.020131569E1,-3.155534744E0,-7.137191772E0,-1.558923960E0
1.022158605E1,-2.633301258E0,-6.897909641E0,-2.392224550E0
1.024185636E1,-2.968894720E0,-6.426523209E0,-2.499901533E0
1.026212662E1,-3.224926710E0,-5.959324837E0,-1.549352646E0
1.028239694E1,-2.855833769E0,-5.858826160E0,-1.015154958E0
1.030266725E1,-4.800002098E0,-8.250452042E0,-1.144965649E0
1.032293751E1,-7.079763889E0,-1.036929703E1,-7.016952634E-1
1.034320777E1,-6.564708710E0,-1.239960670E1,8.446664214E-1
1.036347808E1,-6.440282345E0,-1.608216095E1,3.126821041E0
1.038374834E1,-6.354140759E0,-1.765005875E1,1.680359721E0
1.040401860E1,-5.650052547E0,-2.050649071E1,-1.676172256E0
1.042428892E1,-2.990430117E0,-1.971865273E1,-3.582055569E0
1.044455918E1,4.145565331E-1,-1.492343616E1,-3.905086517E0
1.046482944E1,1.232901812E0,-1.296012592E1,-4.415356159E0
1.048509970E1,-4.307080805E-1,-1.103988552E1,-3.739981890E0
1.050537001E1,-3.929014683E0,-9.241679192E0,-1.743171334E0
1.052564027E1,-7.016952515E0,-8.358727455E0,-8.093722463E-1
1.054591053E1,-5.664409637E0,-7.994420528E0,-1.405783296E0
1.056618079E1,-2.752942562E0,-7.987242222E0,-1.613958836E0
1.058645105E1,-1.220937729E0,-7.554141045E0,-1.633101463E0
1.060672131E1,-2.799602449E-1,-7.084549427E0,-1.592423439E0
1.062699162E1,3.930211067E-1,-6.495915413E0,-1.719243050E0
1.064726188E1,8.811569214E-1,-5.629115105E0,-2.001596212E0
1.066753209E1,1.151545882E0,-5.106881618E0,-2.015953064E0
1.068780230E1,1.232901812E0,-5.234299660E0,-2.049452543E0
1.070807256E1,1.673779488E0,-6.110072613E0,-2.435295343E0
1.072834282E1,1.889133453E0,-7.609176159E0,-2.916252613E0
1.074861308E1,4.815555513E-1,-9.972088814E0,-1.920240164E0
1.076888334E1,-2.712264538E0,-1.298405361E1,1.383649707E0
1.078915355E1,-9.416355133E0,-1.723370743E1,1.274656582E1
1.080942381E1,-1.448016644E1,-1.614916039E1,5.130211830E0
1.082969407E1,-9.555138588E0,-1.153579807E1,1.122832060E0
1.084996428E1,-5.891727448E0,-7.141977310E0,1.955534339E0
1.087023454E1,-3.442673683E0,-7.115656376E0,-1.814955950E0
1.089049694E1,-2.173879385E0,-1.279262829E1,-9.196215630E0
1.091069808E1,-1.591825247E0,-1.402313709E1,-6.790232658E0
1.093104652E1,-2.921038151E0,-1.193779182E1,8.877372146E-1
1.095131647E1,-1.881955028E0,-9.594022751E0,7.335795879E0
1.097158647E1,-4.426721931E-1,-7.745566845E0,1.242473125E0
1.099185657E1,3.188436031E-1,-9.644271851E0,-2.447259426E0
1.101212673E1,-8.853443712E-2,-1.029990482E1,-5.294120312E0
1.103239694E1,7.878368497E-1,-9.074181557E0,-6.969694138E0
1.105279678E1,1.240080357E0,-8.734400749E0,-7.187440872E0
1.107293720E1,1.363908947E-1,-9.400203705E0,-3.605983734E0
1.109320730E1,-4.761717021E-1,-1.091306591E1,1.838286042E0
1.111347751E1,-3.401995659E0,-9.852447510E0,2.346162558E0
1.113374777E1,-4.941776752E0,-8.590831757E0,-6.107679605E-1
1.115414777E1,-5.683551788E0,-8.935398102E0,-3.558127165E0
1.117428814E1,-4.934000492E0,-8.166703224E0,-4.996811867E0
1.119455829E1,-2.834298372E0,-7.556533813E0,-4.609174728E0
1.121482850E1,-8.356932998E-1,-7.554141045E0,-3.395415306E0
1.123509876E1,-1.172483116E-1,-8.897112846E0,-2.456830740E0
1.125549876E1,-3.421736360E-1,-9.943374634E0,-2.370688915E0
1.127563913E1,-7.878368497E-1,-9.344570160E0,-2.408974171E0
1.129590933E1,-1.980060697E0,-9.189037323E0,-2.765504837E0
1.131617954E1,-2.394019127E0,-9.443274498E0,-3.119642496E0
1.133644975E1,-1.951346874E0,-9.656235695E0,-2.526222467E0
1.135684975E1,-1.733001828E0,-9.771091461E0,-1.724028707E0
1.137699006E1,-1.855633974E0,-9.909874916E0,-2.157727718E0
1.139726027E1,-1.527219057E0,-9.732806206E0,-3.223132133E0
1.141753048E1,-1.275972724E0,-9.112466812E0,-3.156133175E0
1.143780064E1,-7.728816867E-1,-9.078967094E0,-1.219143152E0
1.145807090E1,-2.536391914E-1,-1.032144070E1,4.331009090E-1
1.147834110E1,-3.589234054E-1,-9.919445992E0,-7.184450030E-1
1.149861131E1,-2.032702923E0,-8.990432739E0,-2.507079840E0
1.151888147E1,-3.318246841E0,-9.414560318E0,-2.937788010E0
1.153915168E1,-5.070989609E0,-1.159801102E1,-2.729612350E0
1.155942188E1,-7.450651646E0,-1.177986622E1,-3.189632654E0
1.157969204E1,-8.484949112E0,-9.723235130E0,-1.740778446E0
1.159996225E1,-7.991429329E0,-1.067378330E1,1.016949654E0
1.162023246E1,-5.609374523E0,-1.126959610E1,1.709073544E0
1.164050267E1,-4.402793884E0,-1.069771194E1,4.642075896E-1
1.166077282E1,-4.314259052E0,-1.111884880E1,-9.218349457E-1
1.168104303E1,-2.245664120E0,-1.351286793E1,-2.875574589E0
1.170131319E1,-2.488535494E-1,-1.477986717E1,-4.098905087E0
1.172158340E1,1.019940615E0,-1.205264759E1,-5.866004944E0
1.174185355E1,8.476574421E-1,-1.048953629E1,-5.590830326E0
1.176212376E1,-7.393822074E-1,-9.349356651E0,-3.897907972E0
1.178239392E1,-2.930609465E0,-8.542975426E0,-2.583650351E0
1.180266413E1,-4.878965378E0,-8.216953278E0,-3.014358282E0
1.182293428E1,-5.642873764E0,-8.195417404E0,-3.354737282E0
1.184320449E1,-4.895715237E0,-8.521439552E0,-2.631506681E0
1.186347465E1,-2.516052961E0,-8.514261246E0,-2.105085611E0
1.188374480E1,-1.323829174E0,-8.015955925E0,-1.554138303E0
1.190401501E1,-9.960124493E-1,-7.795815945E0,-1.353141189E0
1.192428517E1,-8.739784956E-1,-7.408178806E0,-2.075773716E0
1.194455532E1,-5.575276613E-1,-7.281359196E0,-2.471187592E0
1.196482548E1,-3.326023519E-1,-7.719245911E0,-2.569293261E0
1.198506064E1,4.935196638E-1,-8.344370842E0,-2.629113913E0
1.200497803E1,1.405783296E0,-8.368298531E0,-2.571686029E0
1.202537803E1,1.654636860E0,-8.262416840E0,-1.903490424E0
1.204577803E1,1.280758262E0,-9.706484795E0,4.713860750E-1
1.206615959E1,-9.744769931E-1,-1.233021545E1,5.279164791E0
1.208643246E1,-8.176275253E0,-1.575673676E1,1.372343636E1
1.210670538E1,-1.131984615E1,-1.526082420E1,5.951548100E0
1.212697777E1,-8.348558426E0,-8.255238533E0,5.814558864E-1
1.214724975E1,-4.321437836E0,-5.554937840E0,1.094118118E0
1.216752136E1,-2.609373093E0,-9.117252350E0,-3.818944931E0
1.218779261E1,2.201396823E-1,-1.329512119E1,-1.118345451E1
1.220806366E1,-3.278166950E-1,-1.443231010E1,-7.074978352E0
1.222833454E1,-8.237292171E-1,-8.638688087E0,-2.239083767E0
1.224860527E1,-2.606980324E0,-6.661019802E0,9.672387123E0
1.226887590E1,-9.672985673E-1,-1.138923740E1,4.790431023E0
1.228914642E1,3.667000830E-1,-1.083170986E1,-1.532602906E0
1.230941683E1,2.047059774E0,-9.574879646E0,-6.278168201E0
1.232968725E1,1.982453585E0,-8.839685440E0,-6.601199627E0
1.234995761E1,-1.842473447E-1,-9.622735977E0,-3.993621111E0
1.237022788E1,-2.243271112E0,-1.025683403E1,-1.939382792E0
1.239049814E1,-4.900500774E0,-9.448060036E0,2.033899277E-1
1.241076840E1,-6.600601196E0,-8.361120224E0,-2.901297510E-1
1.243103860E1,-6.399604321E0,-8.161917686E0,-2.789433002E0
1.245130881E1,-4.857429981E0,-8.440083504E0,-4.982454777E0
1.247157892E1,-3.028715372E0,-8.866005898E0,-5.142774105E0
1.249184913E1,-1.096511006E0,-8.763114929E0,-3.309273720E0
1.251211928E1,-7.178468257E-2,-8.710473061E0,-8.859425783E-1
1.253238944E1,-1.110867858E0,-9.078967094E0,5.766702294E-1
1.255278944E1,-3.248854876E0,-8.724829674E0,5.575276613E-1
1.257292975E1,-4.232903481E0,-8.092526436E0,1.115653515E0
1.259319985E1,-4.994419098E0,-8.197810173E0,2.015354872E0
1.261346996E1,-5.918048382E0,-8.454441071E0,1.520040631E0
1.263374011E1,-5.171487808E0,-7.814958572E0,5.407779217E-1
1.265414011E1,-2.597409010E0,-6.259026051E0,-5.389832854E-1
1.267428038E1,-1.579262912E-1,-4.456034184E0,-1.992024899E0
1.269455053E1,1.015154958E0,-4.532604218E0,-2.320439816E0
1.271482064E1,3.978067636E-1,-7.501499176E0,-2.574079037E0
1.273509074E1,-1.584646821E0,-9.308678627E0,-2.858824968E0
1.275549074E1,-3.595814228E0,-6.045466423E0,-2.559721947E0
1.277563095E1,-4.730610371E0,-2.526222467E0,-1.704886079E0
1.279590110E1,-5.149952412E0,-2.172084808E0,-1.092323542E0
1.281617121E1,-5.970690727E0,-6.488736629E0,-7.064808607E-1
1.283644131E1,-7.376473904E0,-1.282852077E1,-2.590230405E-1
1.285671136E1,-5.274379253E0,-1.538764381E1,-3.284149170E-1
1.287698152E1,-3.193820000E0,-1.653919029E1,3.028116941E0
1.289725162E1,-6.241677761E0,-1.970190430E1,2.729014158E0
1.291752173E1,-5.190630436E0,-2.273540497E1,2.274377823E0
1.293779183E1,-1.694716692E0,-1.524646759E1,6.101697683E-1
1.295819183E1,-2.695514679E0,-1.316112232E1,-1.925025821E0
1.297833204E1,-4.926821709E0,-1.149272728E1,-5.054838061E-1
1.299860215E1,-4.975276470E0,-9.850054741E0,1.156331539E0
1.301887225E1,-3.703491211E0,-9.615557671E0,6.245267391E-1
1.303914235E1,-3.679563046E0,-1.014676476E1,2.177468538E-1
1.305941246E1,-2.427518606E0,-9.284749985E0,5.072783828E-1
1.307968256E1,-1.118046403E0,-7.676175117E0,8.853443861E-1
1.309995261E1,-2.081755698E-1,-6.570092678E0,2.727817893E-1
1.312022272E1,5.126622319E-1,-5.519045353E0,-3.212364316E-1
1.314049282E1,9.864411354E-1,-4.556532383E0,-5.796613097E-1
1.316076288E1,1.228116274E0,-4.134797573E0,-5.485545993E-1
1.318103298E1,1.441675663E0,-3.945764542E0,-3.020938635E-1
1.320130308E1,1.144367456E0,-4.098905087E0,-2.901297510E-1
1.322157319E1,-6.484549642E-1,-4.585246563E0,3.661018610E-1
1.324184324E1,-2.685943365E0,-4.798207760E0,1.649253011E0
1.326211334E1,-4.378865242E0,-6.184250355E0,3.153141975E0
1.328238340E1,-8.427521706E0,-9.244071960E0,1.086939692E0
1.330265350E1,-9.713065147E0,-8.746364594E0,-1.647458434E0
1.332292355E1,-8.109275818E0,-5.581258774E0,7.776673436E-1
1.334319366E1,-6.641279221E0,-7.106084824E0,1.321436286E0
1.336346376E1,-4.867001057E0,-1.252702427E1,-6.538388133E-1
1.338373381E1,-2.166700840E0,-1.688196182E1,-2.466402054E0
1.340400392E1,1.360319614E0,-1.659183311E1,1.055832982E0
1.342427397E1,2.566900492E0,-1.254138184E1,1.508076429E0
1.344454407E1,-2.377269268E0,-1.514357662E1,-1.530210137E0
1.346481412E1,-7.807182312E0,-2.165324974E1,-1.592423439E0
1.348508418E1,-1.036929703E1,-1.440120316E1,-1.838884234E0
1.350535428E1,-6.650850773E0,-4.841278553E0,-1.066002488E0
1.352562433E1,-2.942573547E0,-9.364311218E0,-2.442473650E0
1.354589444E1,-1.740180254E0,-1.251506042E1,-6.845267296E0
1.356616449E1,-1.077368379E0,-1.083649540E1,-1.058285618E1
1.358643454E1,-7.585247755E-1,-1.093220806E1,-1.012044334E1
1.360670459E1,-2.803191662E0,-1.133420277E1,-4.420141697E0
1.362697465E1,-7.488936901E0,-9.684949875E0,3.042474031E0
1.364724475E1,-4.491328239E0,-8.665008545E0,2.269592285E0
1.366751480E1,-2.967100143E-1,-8.877969742E0,-1.286142230E0
1.368778485E1,-9.571290761E-2,-8.030312538E0,-2.559721947E0
1.370805491E1,-1.814357758E0,-6.701697826E0,-1.793420553E0
1.372832496E1,-3.313461065E0,-6.229713917E0,-6.777670383E-1
1.374859501E1,-5.422734261E0,-7.163512707E0,-8.913264424E-2
1.376886506E1,-8.140382767E0,-8.145168304E0,5.335994363E-1
1.378913517E1,-9.677172661E0,-7.302894592E0,1.278365493E0
1.380940522E1,-8.128418922E0,-6.038288116E0,1.972284079E0
1.382967527E1,-4.723432064E0,-6.574878216E0,2.063211441E0
1.384994532E1,-2.097309113E0,-7.317251682E0,1.307079315E0
1.387021532E1,-9.409775138E-1,-6.601199627E0,-1.968096644E-1
1.389048532E1,-1.345364571E0,-5.832505226E0,-2.164906263E0
1.391075538E1,-2.480160713E0,-4.767100811E0,-3.620340586E0
1.393102543E1,-3.962514400E0,-3.917050600E0,-4.386641979E0
1.395142543E1,-5.544768333E0,-3.144168854E0,-3.653840065E0
1.397156553E1,-6.813562393E0,-4.336392879E0,-2.184048891E0
1.399183553E1,-8.039285660E0,-8.478368759E0,-5.557330847E-1
1.401210558E1,-7.881359577E0,-1.250070381E1,1.139581800E0
1.403237564E1,-6.193821430E0,-1.593619919E1,2.551945448E0
1.405277564E1,-3.976871252E0,-1.773440552E1,2.528017044E0
1.407291574E1,-2.824727058E0,-1.802393723E1,3.278166950E-1
1.409318579E1,-2.044667006E0,-2.235733795E1,-1.007976532E0
1.411345584E1,1.391426325E0,-1.764766502E1,1.435693651E-1
1.413372584E1,1.651047617E-1,-1.260120201E1,-8.165507317E-1
1.415412584E1,-1.546361685E0,-1.209811115E1,-2.085345030E0
1.417426595E1,-4.989633560E0,-1.045125103E1,-9.218349457E-1
1.419453595E1,-6.299105644E0,-9.160323143E0,4.833501875E-1
1.421480595E1,-5.980860233E0,-8.157132149E0,1.004985452E0
1.423507605E1,-4.465006828E0,-7.530212879E0,8.374879360E-1
1.425547605E1,-2.422732830E0,-6.723233223E0,2.416750938E-1
1.427561610E1,-5.814558864E-1,-6.174678802E0,6.699903309E-2
1.429588610E1,5.988038778E-1,-5.703292847E0,1.148554832E-1
1.431615616E1,1.070189953E0,-4.941776752E0,1.028913707E-1
1.433642621E1,1.249651670E0,-4.846064091E0,1.746760458E-1
1.435682621E1,1.534995675E0,-5.030311584E0,1.339980662E-1
1.437696626E1,1.310070395E0,-5.078167915E0,-4.480560422E-1
1.439723626E1,2.464607358E-1,-5.356333256E0,-7.543373108E-1
1.441750631E1,-1.407577872E0,-5.990431309E0,-8.093722463E-1
1.443777631E1,-3.550350666E0,-7.496713161E0,-1.441675574E-1
1.445804636E1,-4.859822750E0,-9.692128181E0,8.853443712E-2
1.447831636E1,-6.418746948E0,-8.267202377E0,3.828516230E-2
1.449858642E1,-6.643671989E0,-6.232106686E0,1.508076429E0
1.451885642E1,-6.885347366E0,-7.314858913E0,2.800798893E0
1.453912647E1,-6.722635269E0,-9.589237213E0,3.282354355E0
1.455939647E1,-5.480162144E0,-1.088674450E1,3.224926710E0
1.457966647E1,-4.220939159E0,-1.305823135E1,1.036690354E0
1.459993652E1,-2.767299414E0,-1.426720524E1,-3.081357241E0
1.462020652E1,-2.161915302E0,-1.275673580E1,-6.145965099E0
1.464047652E1,-2.298306227E0,-1.199522018E1,-4.329214573E0
1.466074657E1,-1.929811478E0,-1.141795158E1,-5.437689424E-1
1.468101657E1,-3.926621914E0,-1.486840153E1,2.396411896E0
1.470128657E1,-8.556734085E0,-2.596272469E1,3.547957659E0
1.472155663E1,-5.461019516E0,-1.207896900E1,-7.854440212E-1
1.474182663E1,-2.853441000E0,-3.481556892E0,-2.629113913E0
1.476209663E1,-2.829512835E0,-8.027919769E0,-5.080560684E0
1.478236668E1,-2.997608662E0,-1.168415260E1,-9.450452805E0
1.480263668E1,-2.580659151E0,-8.454441071E0,-9.582057953E0
1.482290668E1,-2.894717216E0,-7.609176159E0,-6.512664795E0
1.484317668E1,-3.141177893E0,-9.792626381E0,-1.654636860E0
1.486344673E1,-3.394817114E0,-9.976874352E0,1.986641049E0
1.488371673E1,-9.122636318E-1,-9.332606316E0,6.101697683E-1
1.490398673E1,-7.537391186E-1,-8.636295319E0,-1.017547846E0
1.492425673E1,-2.348555326E0,-8.748757362E0,-2.416152716E0
1.494452673E1,-3.837489367E0,-8.562117577E0,-2.212762833E0
1.496479673E1,-4.956133842E0,-7.422535896E0,-1.676172256E0
1.498502798E1,-5.015954494E0,-5.995217323E0,-9.888339639E-1
1.500490616E1,-4.094119549E0,-4.903491974E0,-8.673982322E-2
1.502530616E1,-4.802394867E0,-6.749554634E0,8.566305041E-1
1.504570616E1,-6.284748554E0,-1.187079334E1,3.014956415E-1
1.506612386E1,-3.509672642E0,-1.008694363E1,-6.777670383E-1
1.508640136E1,-2.224128723E0,-5.286941528E0,-7.519445419E-1
1.510667444E1,-1.881955028E0,-2.184048891E0,-6.705885530E-1
1.512694688E1,-2.298306227E0,-1.544566989E0,-6.346961856E-1
1.514721892E1,-4.151547432E0,-3.558127165E0,-1.365105271E0
1.516749043E1,-6.492924213E0,-6.433701992E0,-2.813361168E0
1.518776173E1,-6.485745907E0,-6.412166595E0,-3.467200041E0
1.520803277E1,-5.106881618E0,-6.019145489E0,-2.397010088E0
1.522830355E1,-6.057430744E0,-9.701699257E0,-1.128215909E0
1.524857423E1,-6.454638958E0,-1.322333622E1,1.319043517E0
1.526884470E1,-5.432305813E0,-1.477508163E1,3.234498024E0
1.528911511E1,-4.072584152E0,-1.579980755E1,2.169093609E0
1.530938548E1,-3.890131474E0,-1.860539246E1,4.594219327E-1
1.532965584E1,-3.026322365E0,-2.202234268E1,-9.314061999E-1
1.534992605E1,2.033899277E-1,-1.854557228E1,-1.654636860E0
1.537019621E1,-2.919243574E-1,-1.414277840E1,-3.014358282E0
1.539046621E1,-2.985644341E0,-1.242114258E1,-3.376272678E0
1.541086636E1,-5.425127029E0,-1.062592697E1,-1.276570916E0
1.543100647E1,-6.007181168E0,-9.586843491E0,9.427721500E-1
1.545127657E1,-5.480162144E0,-8.032705307E0,9.667003751E-1
1.547154662E1,-3.289532900E0,-6.297310829E0,3.302095234E-1
1.549181668E1,-1.170688510E0,-5.260620594E0,1.316052526E-1
1.551208668E1,1.818545163E-1,-4.659423828E0,1.411765367E-1
1.553235668E1,1.472782373E0,-4.183252335E0,1.387837082E-1
1.555275673E1,2.068595171E0,-3.751945972E0,3.206382394E-1
1.557289678E1,2.214557409E0,-3.852444410E0,5.503492355E-1
1.559316683E1,2.042274237E0,-4.036691666E0,2.895315289E-1
1.561343688E1,9.840483069E-1,-4.532604218E0,3.254238665E-1
1.563370688E1,-1.283151150E0,-5.732006550E0,6.747759581E-1
1.565410689E1,-3.586242914E0,-7.515855789E0,1.240080357E0
1.567424688E1,-6.648457527E0,-1.159083271E1,1.055832982E0
1.569451688E1,-1.060618591E1,-9.483952522E0,-1.762313843E0
1.571478694E1,-9.155537605E0,-4.683351994E0,6.005984545E-1
1.573505699E1,-7.204190731E0,-5.013561726E0,2.329412937E0
1.575545699E1,-6.478567123E0,-8.676973343E0,1.986641049E0
1.577559699E1,-5.705087185E0,-1.629990768E1,6.652047038E-1
1.579586699E1,-1.168295622E0,-1.951287079E1,-1.671386600E0
1.581613699E1,1.460818172E0,-1.422891998E1,-1.111466169E0
1.583640699E1,1.570888042E0,-9.419346809E0,8.470591903E-1
1.585680699E1,-2.966501951E0,-1.509811306E1,-2.087737799E0
1.587694699E1,-1.068275642E1,-2.977688408E1,-2.374876440E-1
1.589721704E1,-9.447462082E0,-1.113799095E1,1.842473447E-1
1.591748704E1,-6.055037498E0,-2.121835470E0,-8.069794178E-1
1.593775709E1,-4.378865242E0,-7.118049145E0,-4.424927235E0
1.595802709E1,-6.604190469E-1,-1.006780148E1,-1.063789082E1
1.597829709E1,2.377867460E0,-8.099704742E0,-1.223928738E1
1.599856715E1,2.483151674E0,-1.081974602E1,-7.774280548E0
1.601883715E1,-1.316650629E0,-1.291226959E1,-7.710871100E-1
1.603910715E1,-1.077129078E1,-9.924231529E0,6.452246189E0
1.605937709E1,-3.234498024E0,-8.344370842E0,1.130010486E0
1.607964715E1,1.534995675E0,-8.456833839E0,-2.207977057E0
1.609991720E1,-1.491326690E0,-8.219346046E0,-2.253440619E0
1.612018720E1,-3.579064369E0,-7.858029366E0,-1.183250785E0
1.614045725E1,-4.788038254E0,-6.821339130E0,-7.160521746E-1
1.616072725E1,-6.368497372E0,-5.789434433E0,-8.691928387E-1
1.618099725E1,-8.036892891E0,-6.136393547E0,-3.308077157E-1
1.620126725E1,-8.690732002E0,-6.907480717E0,6.293123364E-1
1.622153730E1,-7.479365349E0,-6.751947403E0,9.379864931E-1
1.624180730E1,-4.723432064E0,-5.935396671E0,8.183453679E-1
1.626207725E1,-1.668395638E0,-5.961717606E0,2.632105052E-1
1.628234735E1,-1.866401732E-1,-7.501499176E0,-3.308077157E-1
1.630261735E1,2.344966233E-1,-9.196215630E0,-1.281356573E0
1.632288730E1,-2.656033039E-1,-7.324429989E0,-2.039881229E0
1.634315741E1,-1.565504193E0,-3.550948858E0,-3.007179976E0
1.636342741E1,-4.027120590E0,-1.822134495E0,-4.074976921E0
1.638369741E1,-6.978667259E0,-3.759124279E0,-3.754338741E0
1.640396741E1,-9.847063065E0,-7.898707390E0,-2.571686029E0
1.642423746E1,-1.147777176E1,-1.092502975E1,-6.945167780E-1
1.644450746E1,-9.217751503E0,-1.592662716E1,2.017747641E0
1.646477751E1,-6.102894306E0,-2.062852478E1,3.497708559E0
1.648504751E1,-5.528018475E0,-2.287418747E1,1.666002750E0
1.650531751E1,-2.434697151E0,-2.294896317E1,5.479564071E-1
1.652558751E1,8.614161611E-2,-1.590030670E1,8.135597110E-1
1.654585756E1,-2.368894368E-1,-1.179900837E1,-5.868397355E-1
1.656612756E1,-3.792025566E0,-9.902696609E0,-3.260220885E-1
1.658639756E1,-5.898906231E0,-1.021854877E1,3.756731451E-1
1.660666761E1,-5.274379253E0,-1.056132126E1,6.340979934E-1
1.662693761E1,-4.323830605E0,-9.361918449E0,9.643075466E-1
1.664720761E1,-2.992822886E0,-7.539783955E0,5.383850932E-1
1.666747761E1,-6.077769399E-1,-6.299703598E0,-1.274178028E-1
1.668774767E1,1.015154958E0,-5.416153908E0,-6.759724021E-2
1.670801767E1,1.747956991E0,-5.099703312E0,-1.034895778E-1
1.672828767E1,2.025524378E0,-4.936991215E0,-9.152546525E-2
1.674855761E1,1.546959877E0,-4.869992256E0,1.531406492E-1
1.676882772E1,8.404789567E-1,-5.337191105E0,-2.452643216E-2
1.678909772E1,-2.608176768E-1,-6.167500496E0,-3.068794906E-1
1.680936772E1,-2.032702923E0,-7.365108013E0,-4.839483798E-1
1.682963772E1,-4.381258488E0,-8.080561638E0,-9.577272534E-1
1.684990777E1,-5.671587944E0,-8.059026718E0,-1.116251707E0
1.687017777E1,-5.097310543E0,-7.472784996E0,3.924229145E-1
1.689044777E1,-5.843871117E0,-5.911468506E0,1.096511006E0
1.691071782E1,-6.256034851E0,-5.263013363E0,1.553540111E0
1.693098782E1,-5.384449005E0,-6.768697262E0,1.852642894E0
1.695125782E1,-3.059821844E0,-9.371489525E0,2.470589399E0
1.697152782E1,-1.034297585E0,-1.081256771E1,2.731407166E0
1.699179788E1,-2.919243574E-1,-9.474381447E0,1.898106575E0
1.701206788E1,-2.679961324E-1,-1.064028454E1,4.067798555E-1
1.703233788E1,-2.297109663E-1,-1.415234947E1,-1.317248821E0
1.705273788E1,-2.035095692E0,-1.298883915E1,-2.286940336E0
1.707287788E1,-5.190630436E0,-1.177747345E1,-3.440878868E0
1.709314793E1,-5.511268616E0,-9.838089943E0,-3.002394199E0
1.711341793E1,-6.782455921E0,-1.303669643E1,-2.207977057E0
1.713368793E1,-1.598585033E1,-2.966442108E1,3.589234054E-1
1.715408793E1,-9.471389771E0,-1.126720333E1,2.190629244E0
1.717422793E1,-3.016751051E0,-2.710469961E0,7.178468257E-2
1.719449793E1,-5.814558864E-1,-6.062216282E0,-3.129213810E0
1.721476793E1,3.284149170E-1,-1.170329571E1,-1.103988552E1
1.723503793E1,1.435693540E-2,-1.073599720E1,-1.378864002E1
1.725543793E1,-1.674975827E-2,-1.106859970E1,-1.040279675E1
1.727557793E1,-1.877169371E0,-1.046560764E1,-7.280163169E-1
1.729584798E1,-9.954740524E0,-8.921041489E0,8.664410591E0
1.731611798E1,-2.949752092E0,-9.639486313E0,1.965105653E0
1.733638793E1,8.644071817E-1,-9.167501450E0,-2.044667006E0
1.735678793E1,-8.691928387E-1,-8.190631866E0,-2.344367981E0
1.737692798E1,-2.559123755E0,-7.247261524E0,-1.125823021E0
1.739719798E1,-4.264009953E0,-7.197012424E0,-3.044866920E-1
1.741746798E1,-6.485745907E0,-7.177869797E0,-5.964110494E-1
1.743773798E1,-8.874979019E0,-6.969694138E0,-9.505487680E-1
1.745800798E1,-9.763314247E0,-5.554937840E0,1.674975827E-2
1.747827798E1,-8.516056061E0,-5.020740032E0,1.721037745E0
1.749854798E1,-4.409972191E0,-6.227321148E0,1.866999865E0
1.751881798E1,-1.522433400E0,-6.694519520E0,-1.465603858E-1
1.753908798E1,-9.816554785E-1,-8.452047348E0,-1.764706731E0
1.755935798E1,-1.228116274E0,-9.402596474E0,-3.404986620E0
1.757962793E1,-1.311864972E0,-7.094120979E0,-4.386641979E0
1.759989793E1,-1.778465390E0,-3.993621111E0,-4.077369690E0
1.762016798E1,-2.717050076E0,-2.667398930E0,-2.937788010E0
1.764043397E1,-5.121238708E0,-4.434498787E0,-6.227321029E-1
1.766066939E1,-8.568697929E0,-9.919445992E0,8.279166222E-1
1.768097850E1,-7.560721397E0,-1.557428455E1,1.151545882E0
1.770124840E1,-3.909872293E0,-1.856949997E1,2.236092806E0
1.772151829E1,-1.496112347E0,-1.597209072E1,2.903690338E0
1.774178824E1,-4.776073933E0,-1.460997677E1,1.266401410E0
1.776205819E1,-6.165107727E0,-1.992264175E1,-6.999006122E-2
1.778232803E1,-1.682752490E0,-1.667857170E1,4.905286431E-1
1.780259803E1,-1.024726272E0,-1.326401424E1,-1.257428288E0
1.782286803E1,-1.290329576E0,-1.209332561E1,-2.557329178E0
1.784313798E1,-3.413959742E0,-8.992825508E0,-9.625129104E-1
1.786340798E1,-5.566303730E0,-7.802994728E0,8.901300430E-1
1.788367788E1,-5.475376606E0,-7.613961697E0,1.120439172E0
1.790394788E1,-3.272783279E0,-7.225726128E0,6.173482537E-1
1.792421788E1,-2.035095692E0,-6.869195461E0,2.057827413E-1
1.794448788E1,-1.328614831E0,-6.737590313E0,5.168496966E-1
1.796475777E1,-1.094118118E0,-6.196214199E0,7.944171429E-1
1.798498517E1,-1.077368379E0,-5.727221012E0,5.048855543E-1
1.800482433E1,-7.950153351E-1,-5.253442287E0,1.411765367E-1
1.802522433E1,-5.264209956E-2,-4.932205677E0,-1.609173268E-1
1.804562433E1,3.403790295E-1,-4.838885784E0,-6.634100676E-1
1.806602433E1,1.674975827E-2,-5.097310543E0,-1.611566067E0
1.808635511E1,-2.243271112E0,-6.100501537E0,-1.963310957E0
1.810662907E1,-5.121238708E0,-8.504690170E0,-1.757528186E0
1.812690272E1,-7.168298244E0,-1.005583763E1,-1.039083242E0
1.814717569E1,-6.488138676E0,-8.219346046E0,1.223330617E0
1.816744803E1,-5.702694416E0,-6.708876610E0,2.662015200E0
1.818771985E1,-4.941776752E0,-7.365108013E0,1.242473125E0
1.820799147E1,-3.907479286E0,-8.686544418E0,8.853443861E-1
1.822826267E1,-2.755335331E0,-9.945767403E0,1.584646821E0
1.824853360E1,-1.756929994E0,-9.694520950E0,1.752144337E0
1.826880433E1,-1.809572101E0,-8.011170387E0,6.580262184E-1
1.828907496E1,-2.207378864E0,-7.561319351E0,-8.189435601E-1
1.830934538E1,-3.263211966E0,-9.589237213E0,-2.435295343E0
1.832961574E1,-3.979264021E0,-1.254616737E1,-3.534198999E0
1.834988605E1,-3.830310822E0,-1.331426334E1,-2.234298229E0
1.837015631E1,-4.352544308E0,-1.205025482E1,1.407577872E0
1.839042652E1,-5.224130154E0,-1.213639641E1,2.721835852E0
1.841069657E1,-4.362115860E0,-1.670010757E1,1.682752490E0
1.843096657E1,-9.430712700E0,-2.342992020E1,2.392822644E-3
1.845136673E1,-8.267202377E0,-1.008694363E1,-2.124228239E0
1.847150678E1,-4.730610371E0,-4.520640373E0,-2.581257343E0
1.849177683E1,-4.407579422E0,-8.473583221E0,-7.127620220E0
1.851204688E1,-3.756133318E0,-1.029751205E1,-1.336690521E1
1.853231683E1,-5.742774606E-1,-9.622735977E0,-1.213639641E1
1.855271689E1,8.691928387E-1,-9.699306488E0,-5.959324837E0
1.857285683E1,-1.853241086E0,-1.028315544E1,6.576673031E0
1.859312683E1,-6.617351055E0,-1.007976532E1,6.258427620E0
1.861339678E1,-3.401995659E0,-8.475975990E0,3.876372576E-1
1.863366678E1,-1.889133453E0,-6.457630157E0,-1.721635938E0
1.865406683E1,-1.666002750E0,-5.507081509E0,-1.386640668E0
1.867420683E1,-2.382055044E0,-5.322834015E0,-2.709871531E-1
1.869447673E1,-3.890131474E0,-5.406582832E0,4.019941986E-1
1.871474673E1,-5.544768333E0,-4.915455818E0,2.201396823E-1
1.873501668E1,-5.963512421E0,-4.479962349E0,-9.391828626E-2
1.875541668E1,-5.556732178E0,-4.707280159E0,-3.649054468E-2
1.877555662E1,-5.324628353E0,-5.375475883E0,-2.327020019E-1
1.879582657E1,-4.795216560E0,-6.220142365E0,-6.921239495E-1
1.881609652E1,-3.543172121E0,-5.734399319E0,-1.814955950E0
1.883636647E1,-3.093321562E0,-5.356333256E0,-2.186441660E0
1.885663642E1,-4.417150497E0,-8.511868477E0,-1.585245013E0
1.887690636E1,-5.800800323E0,-1.434138298E1,-9.816554785E-1
1.889717636E1,-3.507279873E0,-1.754716682E1,-2.853440940E-1
1.891744631E1,-1.498505235E0,-1.662293816E1,4.934000492E0
1.893771626E1,-4.914857864E0,-1.581416512E1,3.461816072E0
1.895798621E1,-5.829514027E0,-1.640997696E1,4.187439680E-1
1.897825616E1,-3.605385542E0,-1.635015678E1,-1.769492388E0
1.899852610E1,-1.484148264E0,-1.711645889E1,-3.385843992E0
1.901879605E1,-3.849453449E0,-1.361874962E1,-2.648256540E0
1.903906605E1,-7.366902828E0,-8.291130066E0,-1.302891970E0
1.905933605E1,-6.849454880E0,-7.673782349E0,-4.863412082E-1
1.907960600E1,-5.504090309E0,-8.032705307E0,-1.633101404E-1
1.909987595E1,-4.031906128E0,-6.864409924E0,1.914258115E-2
1.912014590E1,-1.834098577E0,-5.803791523E0,4.067798331E-2
1.914041584E1,-2.727817893E-1,-5.023132801E0,-1.734796353E-2
1.916068579E1,7.830511928E-1,-4.570889473E0,-1.513460279E-1
1.918095574E1,1.472782373E0,-4.350749969E0,-2.279163599E-1
1.920122569E1,1.824527264E0,-3.952943087E0,-8.195417374E-2
1.922149564E1,1.386640668E0,-3.622733593E0,2.129612118E-1
1.924176558E1,1.292124242E-1,-4.216751575E0,4.522434771E-1
1.926203553E1,-9.074779749E-1,-5.533402443E0,2.440679073E-1
1.928230548E1,-1.364507079E0,-6.790232658E0,-5.084748194E-2
1.930257543E1,-1.673181176E0,-8.837292671E0,1.962114573E-1
1.932284532E1,-2.666800737E0,-1.225364494E1,8.470591903E-1
1.934311527E1,-7.436294556E0,-1.317069435E1,2.489732027E0
1.936338522E1,-1.224407387E1,-1.003430176E1,4.249652863E0
1.938365517E1,-1.078804111E1,-9.378668785E0,8.036892891E0
1.940392517E1,-1.018983555E1,-1.319940758E1,5.394020557E0
1.942419506E1,-5.303092957E0,-1.161476135E1,-1.640279889E0
1.944446501E1,4.073780477E-1,-1.221057415E1,-5.698507309E0
1.946473496E1,3.960121393E0,-1.459801292E1,-5.906682491E0
1.948500485E1,-3.302095234E-1,-2.015235138E1,-1.503889084E0
1.950527480E1,-2.504088879E0,-2.211087799E1,-8.596215248E-1
1.952554475E1,-5.468197823E0,-6.299703598E0,-3.714857101E-1
1.954581470E1,-1.049850941E1,-2.136192322E0,9.571290612E-1
1.956608465E1,-9.880562782E0,-9.373882294E0,-3.689732552E0
1.958635459E1,-3.320639610E0,-1.301755333E1,-1.279502106E1
1.960662454E1,4.065405846E0,-1.291226959E1,-1.586202145E1
1.962689444E1,4.046263218E0,-1.208136177E1,-6.838088989E0
1.964716438E1,-1.675574064E0,-1.066660500E1,5.815157413E0
1.966743433E1,-4.486542225E0,-8.380263329E0,3.035295486E0
1.968770428E1,-2.512463629E-1,-8.808578491E0,-1.245464206E0
1.970797423E1,-7.441678643E-1,-8.394619942E0,-2.308475733E0
1.972824412E1,-6.149554253E-1,-7.704888821E0,-1.587637782E0
1.974851407E1,-1.860419631E0,-6.708876610E0,-8.021938205E-1
1.976878402E1,-3.674777269E0,-6.493522644E0,-1.029511929E0
1.978905397E1,-4.878965378E0,-7.733603001E0,-1.884347796E0
1.980932386E1,-4.292723656E0,-9.412167549E0,-3.290131092E0
1.982959381E1,-3.832703590E0,-9.529416084E0,-3.761517286E0
1.984986376E1,-5.106881618E0,-9.282357216E0,-2.751147747E0
1.987013371E1,-5.678766251E0,-9.378668785E0,-1.546959877E0
1.989040366E1,-4.230510235E0,-8.937790871E0,-4.719842672E-1
1.991080366E1,-3.984049797E0,-9.043074608E0,-3.978067636E-1
1.993094350E1,-4.944169998E0,-1.061157036E1,-4.241278172E-1
1.995121340E1,-7.295117855E0,-1.435813236E1,-8.093722463E-1
1.997148334E1,-7.759325504E0,-1.386999607E1,-2.547757864E0
1.999175329E1,-7.137191772E0,-1.290748310E1,-1.781456470E0
2.001202324E1,-3.948157310E0,-1.372881985E1,2.632104978E-2
2.003229314E1,-4.048655987E0,-1.062592697E1,-9.194421172E-1
2.005269314E1,-5.671587944E0,-8.976076126E0,-2.712862730E0
2.007283303E1,-5.788836002E0,-9.491130829E0,-4.067798615E0
2.009310293E1,-4.283152580E0,-1.223928738E1,-6.198606968E0
2.011337288E1,-1.658824325E0,-1.290269756E1,-7.010372162E0
2.013364282E1,1.651047617E-1,-1.245224857E1,-5.557330608E0
2.015404282E1,2.081755698E-1,-1.035254669E1,-2.755933523E0
2.017418267E1,-1.386042476E0,-8.128418922E0,-2.248655081E0
2.019445256E1,-3.320639610E0,-7.489534855E0,-3.215953588E0
2.021472251E1,-4.924428940E0,-7.716853142E0,-4.007977962E0
2.023499235E1,-5.350949764E0,-8.104490280E0,-4.781457901E0
2.025539235E1,-3.600599766E0,-8.358727455E0,-5.011168957E0
2.027553225E1,-1.692323804E0,-8.317451477E0,-4.779065132E0
2.029580220E1,-6.317051649E-1,-8.303094864E0,-3.795016766E0
2.031607215E1,-1.507478207E-1,-8.392227173E0,-2.966501951E0
2.033634204E1,8.135596663E-2,-8.135597229E0,-2.717648268E0
2.035674204E1,1.770688742E-1,-7.958528042E0,-2.258226395E0
2.037688188E1,-1.531406492E-1,-8.061419487E0,-2.011167526E0
2.039715183E1,-5.144568682E-1,-8.094919205E0,-2.063809633E0
2.041742173E1,-2.225325108E-1,-8.399405479E0,-2.095514536E0
2.043769168E1,8.644071817E-1,-9.026325226E0,-1.712064624E0
2.045796157E1,1.475175142E0,-9.895518303E0,-5.557330847E-1
2.047823152E1,5.054838061E-1,-1.121456146E1,8.207381964E-1
2.049850142E1,-6.460621357E-1,-1.242114258E1,2.489732027E0
2.051877136E1,-3.588635683E0,-1.339561939E1,1.060140038E1
2.053904126E1,-1.101296616E1,-1.295534039E1,1.208076286E1
2.055931121E1,-1.223450184E1,-7.932207108E0,-1.393819213E0
2.057958110E1,-1.135095215E1,-6.730412006E0,-1.999203324E0
2.059985105E1,-6.581458569E0,-6.675376892E0,-1.743171334E0
2.062012095E1,-2.571087837E0,-1.190429306E1,-5.657829285E0
2.064039084E1,-1.711466432E0,-1.612283897E1,-7.386643410E0
2.066066074E1,-9.337990284E-1,-1.500957870E1,-2.832503796E0
2.068093069E1,-9.122636318E-1,-1.355892944E1,6.159723759E0
2.070120058E1,-1.771286964E0,-6.684948444E0,2.286342144E0
2.072147053E1,-6.101697683E-1,-5.669793129E0,-1.824527234E-1
2.074174043E1,6.299105883E-1,-8.918647766E0,-3.201596737E0
2.076201032E1,1.225723386E0,-1.013479996E1,-5.404190063E0
2.078228027E1,1.465603828E0,-8.870791435E0,-5.849255085E0
2.080255017E1,6.897311211E-1,-8.638688087E0,-4.563711166E0
2.082282006E1,-1.383649707E0,-9.993623734E0,-1.891526341E0
2.084309001E1,-3.385245800E0,-1.111167049E1,1.603789330E0
2.086335991E1,-6.198606968E0,-9.205786705E0,1.084546804E0
2.088362980E1,-6.638886452E0,-8.358727455E0,-7.830511928E-1
2.090389970E1,-6.792026997E0,-8.164310455E0,-3.790230989E0
2.092416965E1,-6.193821430E0,-7.357929707E0,-5.739185333E0
2.094443954E1,-4.146761417E0,-6.921837807E0,-6.335596085E0
2.096470944E1,-5.455635786E-1,-7.996813297E0,-4.996811867E0
2.098492918E1,2.619542599E0,-9.799804688E0,-1.276570916E0
2.100469032E1,4.336991012E-1,-1.017787075E1,7.657032460E-2
2.102509032E1,-1.522433400E0,-9.632308006E0,-1.561316729E0
2.104549032E1,-1.744965911E0,-9.117252350E0,-2.799004316E0
2.106589032E1,-2.449054003E0,-8.791828156E0,-3.500699520E0
2.108628204E1,-2.056631088E0,-9.009575844E0,-3.491128206E0
2.110657058E1,-1.254437327E0,-9.476774216E0,-2.736790895E0
2.112684553E1,-1.589432478E0,-9.424132347E0,-2.097907305E0
2.114712006E1,-2.355733871E0,-9.081359863E0,-1.582852125E0
2.116739366E1,-2.827120066E0,-8.897112846E0,-2.422732860E-1
2.118766647E1,-3.356531858E0,-9.172286987E0,9.236295223E-1
2.120793886E1,-4.878965378E0,-1.030229759E1,1.168295622E0
2.122821058E1,-6.545566559E0,-1.194018459E1,-1.178465128E0
2.124848204E1,-7.582256794E0,-1.092742252E1,-2.049452543E0
2.126875319E1,-6.835097790E0,-1.203589821E1,-4.719842672E-1
2.128902402E1,-5.353342533E0,-1.132463169E1,3.014956415E-1
2.130929465E1,-5.238486767E0,-9.236893654E0,-7.782655358E-1
2.132956517E1,-4.780859470E0,-1.058764172E1,-1.499103427E0
2.134983553E1,-3.098107100E0,-1.397049522E1,-3.333201885E0
2.137010584E1,-2.440679073E-1,-1.664028740E1,-3.888336897E0
2.139037605E1,2.269592285E0,-1.598644829E1,-4.661816597E0
2.141064626E1,2.535793781E0,-1.273280716E1,-3.287738323E0
2.143091631E1,2.066202402E0,-1.002712345E1,-1.534995675E0
2.145118631E1,3.499503136E-1,-8.614759445E0,-1.283749342E0
2.147145636E1,-1.972882271E0,-8.288737297E0,-1.582852125E0
2.149172636E1,-3.215355396E0,-8.540582657E0,-2.143370867E0
2.151199636E1,-3.583850145E0,-8.562117577E0,-1.884347796E0
2.153226626E1,-3.354139090E0,-7.838887215E0,-7.974081635E-1
2.155266631E1,-2.343769789E0,-7.170691490E0,-4.001995921E-1
2.157280616E1,-1.711466432E0,-6.711269379E0,-6.705885530E-1
2.159307605E1,-1.472184181E0,-6.749554634E0,-8.093722463E-1
2.161334590E1,-8.093722463E-1,-7.108478069E0,-5.078766346E-1
2.163361584E1,-5.503492057E-2,-7.237690449E0,-0.000000000E0
2.165401590E1,3.619144261E-1,-6.524629116E0,2.823530734E-1
2.167415564E1,2.440679073E-1,-5.784648895E0,2.464607358E-1
2.169442553E1,-9.092725813E-2,-5.777470112E0,4.115654826E-1
2.171469543E1,-6.891329288E-1,-5.863611698E0,9.068797827E-1
2.173496532E1,-1.546361685E0,-6.366703033E0,1.326221943E0
2.175536532E1,-2.283949137E0,-7.527820110E0,1.682752490E0
2.177550506E1,-3.177070379E0,-8.361120224E0,1.543968797E0
2.179577496E1,-4.615755081E0,-8.073383331E0,2.632105052E-1
2.181604485E1,-6.107679844E0,-7.984848976E0,-6.562315822E-1
2.183631475E1,-6.595815659E0,-8.200202942E0,-4.504488707E-1
2.185658465E1,-4.833501816E0,-8.732007980E0,3.182454109E-1
2.187685449E1,-2.887538671E0,-9.627521515E0,8.231309652E-1
2.189712433E1,-1.364507079E0,-1.002712345E1,7.058826685E-1
2.191739428E1,4.767699242E-1,-1.005105114E1,6.460621208E-2
2.193766412E1,1.007976532E0,-1.232542896E1,-8.620143533E-1
2.195793402E1,-5.024927258E-1,-1.419781303E1,-1.889133453E0
2.197820386E1,-1.414756417E0,-1.104227829E1,-6.281159073E-2
2.199847376E1,-5.640480995E0,-7.578069210E0,-2.143370867E0
2.201874360E1,-9.815957069E0,-1.201436234E1,-9.314061999E-1
2.203901345E1,-1.819083595E1,-2.711486816E1,2.863012314E0
2.205928340E1,-9.921240807E0,-1.276152134E1,1.704287887E0
2.207955324E1,-4.467400074E0,-3.187239647E0,4.307080805E-1
2.209982314E1,-2.128415823E0,-8.276773453E0,-2.858824968E0
2.212009298E1,5.820540786E-1,-1.254138184E1,-1.118584728E1
2.214035491E1,2.887538671E0,-1.093460083E1,-1.555753422E1
2.216055574E1,1.994417667E0,-1.075274658E1,-1.265145111E1
2.218090376E1,-1.522433400E0,-1.036929703E1,-6.011967063E-1
2.220117340E1,-1.193001556E1,-9.260822296E0,1.265803146E1
2.222144308E1,-6.253642082E0,-9.232108116E0,3.023331404E0
2.224171277E1,-2.173879385E0,-8.128418922E0,-1.810170293E0
2.226198246E1,-1.268794179E0,-6.732804775E0,-1.810170293E0
2.228225225E1,-1.189831018E0,-5.159523964E0,-1.034297585E0
2.230252204E1,-1.680359721E0,-3.646661758E0,-3.020938635E-1
2.232279183E1,-3.672384501E0,-4.412963390E0,3.517449200E-1
2.234306168E1,-7.381259441E0,-8.027919769E0,4.546363056E-1
2.236333147E1,-7.548757076E0,-7.027122021E0,-6.394818425E-1
2.238360126E1,-5.769693375E0,-2.523829699E0,-1.256231871E-2
2.240387110E1,-4.247260094E0,-2.964108944E0,4.881358147E-1
2.242414095E1,-2.750549555E0,-5.190630436E0,2.201396823E-1
2.244441079E1,-2.011167526E0,-7.623532772E0,-1.094716311E0
2.246468064E1,-1.575075507E0,-8.178668022E0,-3.515056372E0
2.248495043E1,-2.271985054E0,-6.488736629E0,-4.472783566E0
2.250522027E1,-4.309473515E0,-6.936194420E0,-4.262215137E0
2.252549011E1,-6.844669342E0,-1.004148006E1,-2.777468920E0
2.254575996E1,-8.855836868E0,-1.492582989E1,1.500898004E0
2.256602980E1,-8.048856735E0,-1.764287949E1,4.261617184E0
2.258629965E1,-8.468199730E0,-2.042752647E1,3.006581545E0
2.260656949E1,-4.347758770E0,-2.284308052E1,1.021735311E0
2.262683938E1,-7.322037220E-1,-1.797847366E1,-2.350948304E-1
2.264710918E1,-2.264806747E0,-1.429352570E1,-1.214357495E0
2.266737907E1,-3.770490170E0,-1.148794174E1,-7.399803996E-1
2.268764892E1,-5.003990173E0,-1.001755238E1,9.571290575E-3
2.270791871E1,-3.870988846E0,-1.023290634E1,-1.848455518E-1
2.272818855E1,-4.194618225E0,-9.653842926E0,2.464607358E-1
2.274845840E1,-4.350151539E0,-8.085348129E0,8.111668825E-1
2.276872824E1,-3.067000389E0,-6.682555676E0,8.207381964E-1
2.278899808E1,-1.216152072E0,-5.820540905E0,5.551348329E-1
2.280926793E1,8.374879509E-2,-4.877170563E0,2.033899277E-1
2.282953777E1,9.553344250E-1,-3.974478483E0,-1.776670814E-1
2.284980756E1,1.345962763E0,-3.340380430E0,-4.408775866E-1
2.287007730E1,1.206580877E0,-3.203989506E0,-3.212364316E-1
2.289034720E1,9.194421172E-1,-4.134797573E0,-2.829512656E-1
2.291061704E1,-1.770688742E-1,-5.444868088E0,-2.542374134E-1
2.293088689E1,-2.597409010E0,-6.232106686E0,-1.657029688E-1
2.295128689E1,-5.250451088E0,-6.251847267E0,-2.207378894E-1
2.297142652E1,-8.169096947E0,-7.261618614E0,-5.940182209E-1
2.299169636E1,-1.087657547E1,-8.387441635E0,-1.941775560E0
2.301196621E1,-8.891729355E0,-6.162714481E0,-5.605186820E-1
2.303223605E1,-7.527221680E0,-6.045466423E0,2.183450699E0
2.305263605E1,-5.669195175E0,-7.984848976E0,4.613361835E0
2.307277569E1,-3.583850145E0,-1.084845924E1,4.093521118E0
2.309304553E1,-2.659622431E0,-1.640040588E1,6.939185858E-1
2.311331532E1,-2.482553482E0,-1.632144356E1,-2.966501951E0
2.313358517E1,-1.975275040E0,-1.372164154E1,-2.148156643E0
2.315398517E1,-5.790630579E-1,-9.993623734E0,-1.992024779E-1
2.317412480E1,-1.869990945E0,-9.708877563E0,-1.250249863E0
2.319439465E1,-5.279164791E0,-1.523928928E1,-1.061216831E0
2.321466444E1,-1.240439224E1,-2.672902489E1,5.431707501E-1
2.323493428E1,-8.080561638E0,-7.752745152E0,-2.829512656E-1
2.325533428E1,-3.624528170E0,-2.514258385E0,-9.696913958E-1
2.327547392E1,-3.461816072E0,-8.827720642E0,-3.242274761E0
2.329574376E1,-3.026322365E0,-1.107817078E1,-9.313464165E0
2.331601355E1,-2.070987940E0,-7.580461979E0,-1.189950657E1
2.333628334E1,-1.836491346E0,-8.542975426E0,-9.043074608E0
2.335668334E1,-3.552743435E0,-1.087956619E1,-2.164906263E0
2.337682298E1,-6.930810928E0,-1.033101177E1,7.086344242E0
2.339709282E1,-3.732205153E0,-9.028717995E0,3.538386583E0
2.341736261E1,-1.462612867E0,-8.114061356E0,-2.638086975E-1
2.343763246E1,-2.195414782E0,-6.565307140E0,-9.314061999E-1
2.345790225E1,-3.533600807E0,-5.394618511E0,-2.614158690E-1
2.347817204E1,-5.480162144E0,-5.913861275E0,2.967100143E-1
2.349844189E1,-8.128418922E0,-6.739983082E0,2.225325108E-1
2.351871168E1,-8.365307808E0,-4.980062008E0,-2.542374134E-1
2.353898147E1,-6.993024349E0,-3.460021496E0,-1.561316848E-1
2.355925131E1,-5.355735302E0,-3.845266104E0,-2.566302419E-1
2.357952110E1,-4.692325115E0,-5.966503143E0,-8.285148144E-1
2.359979090E1,-4.063013077E0,-7.879564762E0,-1.817348838E0
2.362006074E1,-2.468196630E0,-7.213762283E0,-2.911466837E0
2.364033053E1,-8.285148144E-1,-5.087738991E0,-4.051048756E0
2.366060032E1,-2.081755698E-1,-4.063013077E0,-3.323630571E0
2.368087017E1,-3.346960783E0,-6.816553593E0,-2.200798512E0
2.370113996E1,-7.201797962E0,-1.310608768E1,-9.266205430E-1
2.372140975E1,-8.551948547E0,-1.797129440E1,1.847857237E0
2.374167954E1,-8.338987350E0,-1.604626846E1,5.642873764E0
2.376194933E1,-7.362117290E0,-1.368814182E1,3.710669756E0
2.378221912E1,-6.547959328E0,-1.875673866E1,-8.572286963E-1
2.380248892E1,-1.601396561E0,-2.115315056E1,-1.154536963E0
2.382275876E1,-7.298108935E-1,-1.496172142E1,-1.099501967E0
2.384302855E1,-2.937788010E0,-1.243071365E1,-1.652244091E0
2.386329834E1,-6.014359951E0,-1.036211872E1,-7.088736892E-1
2.388356814E1,-6.067001820E0,-1.016112137E1,8.374879360E-1
2.390383793E1,-5.250451088E0,-9.493523598E0,1.089332461E0
2.392410772E1,-3.327818155E0,-7.740781307E0,5.312066078E-1
2.394437751E1,-1.177866936E0,-6.172286034E0,3.948157430E-1
2.396464730E1,2.392822653E-1,-5.609972477E0,2.703889608E-1
2.398486314E1,1.561316729E0,-5.195415974E0,-6.520441920E-2
2.400458522E1,2.557329178E0,-4.410570145E0,-1.734796353E-2
2.402498522E1,2.772683144E0,-3.723232031E0,2.249253243E-1
2.404538522E1,2.665006161E0,-3.797409534E0,1.387837082E-1
2.406578522E1,1.606780410E0,-4.267001152E0,-4.001995921E-1
2.408618522E1,-2.344966233E-1,-4.747958183E0,-6.155536175E-1
2.410650553E1,-3.325425386E0,-5.358726501E0,-8.356932998E-1
2.412678079E1,-6.325426579E0,-7.757531166E0,-6.323033571E-1
2.414705553E1,-1.096510983E1,-1.042492962E1,-2.358724833E0
2.416732918E1,-1.205683517E1,-7.137191772E0,-1.209571838E0
2.418760225E1,-1.094357395E1,-5.135595798E0,3.023331404E0
2.420787459E1,-9.215357780E0,-6.364310265E0,3.813561201E0
2.422814631E1,-6.514459610E0,-8.854042053E0,3.997808456E0
2.424841777E1,-5.949155331E0,-1.545225048E1,1.764108539E0
2.426868886E1,-2.291127682E0,-1.696810341E1,-3.945764542E0
2.428895970E1,7.495517135E-1,-1.108774185E1,-5.736792088E0
2.430923027E1,1.223330617E0,-6.948158741E0,-1.858026743E0
2.432950069E1,2.081755698E-1,-8.688937187E0,4.498506486E-1
2.434977100E1,-8.953942299E0,-2.943710327E1,2.392822653E-1
2.437004121E1,-1.161416245E1,-2.194816589E1,-3.409772366E-2
2.439031095E1,-8.147561073E0,-5.308476925E0,-5.820540786E-1
2.441071131E1,-6.959524632E0,-6.967301369E0,-7.854440212E-1
2.443085116E1,-3.912265062E0,-9.334999084E0,-8.245666504E0
2.445112121E1,4.193421602E-1,-7.410571575E0,-1.685085487E1
2.447139110E1,1.879562140E0,-1.095135117E1,-1.378385448E1
2.449166100E1,6.466603279E-1,-1.157647610E1,-3.270988464E0
2.451193084E1,-6.189035892E0,-9.974481583E0,5.764907837E0
2.453220064E1,-6.636493683E0,-9.287142754E0,5.144568920E0
2.455260074E1,-4.905286431E-1,-8.971290588E0,-5.485545993E-1
2.457274038E1,-2.823530734E-1,-8.547760963E0,-4.077369690E0
2.459301017E1,-2.551945448E0,-7.927421570E0,-3.914657831E0
2.461328001E1,-4.488935471E0,-7.970492363E0,-1.855633974E0
2.463354975E1,-5.963512421E0,-7.491927624E0,-1.417747438E-1
2.465394980E1,-7.826324463E0,-6.718447685E0,9.451649189E-1
2.467408933E1,-8.255238533E0,-6.749554634E0,1.051047325E0
2.469435907E1,-6.397211552E0,-7.415357590E0,9.714859724E-1
2.471462886E1,-5.068596363E0,-7.647460938E0,5.958128572E-1
2.473489860E1,-4.412364960E0,-6.534200668E0,-1.082752272E-1
2.475529860E1,-4.244867325E0,-4.898705959E0,-8.285148144E-1
2.477543819E1,-4.027120590E0,-3.974478483E0,-9.194421172E-1
2.479570793E1,-4.065405846E0,-4.544568539E0,-6.538388133E-1
2.481597767E1,-4.204189301E0,-5.435296535E0,-1.384247899E0
2.483624741E1,-4.199403763E0,-5.566901684E0,-2.507079840E0
2.485664741E1,-4.036691666E0,-4.654638290E0,-3.414557934E0
2.487678694E1,-3.830310822E0,-3.783052683E0,-4.007977962E0
2.489705668E1,-4.354937077E0,-5.270191669E0,-4.101297855E0
2.491732642E1,-6.914061069E0,-1.110927773E1,-3.818944931E0
2.493759621E1,-7.295117855E0,-1.549053574E1,-1.774278045E0
2.495786595E1,-4.733003139E0,-1.712842178E1,3.576671600E0
2.497813569E1,-4.783252239E0,-1.566820240E1,5.937191010E0
2.499840543E1,-7.395616531E0,-1.683649826E1,2.090130568E0
2.501867522E1,-6.471388817E0,-2.146660995E1,-3.810569942E-1
2.503894501E1,-2.614158630E0,-1.826800537E1,-2.327020019E-1
2.505921475E1,-1.192223907E0,-1.284766293E1,-1.726421595E0
2.507948449E1,-2.018345833E0,-1.164826107E1,-2.219941139E0
2.509975423E1,-4.898108006E0,-1.099442196E1,-1.092323542E0
2.512002397E1,-5.602196217E0,-9.334999084E0,7.106683254E-1
2.514029371E1,-4.460221291E0,-7.676175117E0,6.245267391E-1
2.516056345E1,-2.216950178E0,-6.086144447E0,-3.116651475E-1
2.518083319E1,-6.077769399E-1,-5.145166874E0,-7.112665176E-1
2.520110293E1,4.983053207E-1,-4.972883701E0,-8.237292171E-1
2.522137267E1,1.137188911E0,-4.518247128E0,-6.203392744E-1
2.524164246E1,1.063011408E0,-3.627519131E0,-5.006981492E-1
2.526191220E1,1.015154958E0,-3.428914785E0,-5.006981492E-1
2.528218194E1,9.912267923E-1,-4.091726780E0,-5.222335458E-1
2.530245168E1,5.365904570E-1,-4.587639332E0,-6.059823632E-1
2.532272142E1,-9.840483069E-1,-5.018347263E0,-5.030909777E-1
2.534299116E1,-3.602992773E0,-6.011966705E0,-1.369891018E-1
2.536326090E1,-6.244070530E0,-1.014437199E1,8.398807645E-1
2.538353064E1,-1.164048386E1,-1.226082325E1,-1.951346874E0
2.540380038E1,-1.188455200E1,-6.059823513E0,-7.495517135E-1
2.542407011E1,-1.033819008E1,-4.235894203E0,3.748954773E0
2.544433985E1,-9.488140106E0,-8.291130066E0,4.256831646E0
2.546460959E1,-9.378069878E0,-1.563948917E1,2.779263496E0
2.548487933E1,-3.098107100E0,-1.632383537E1,-8.309076428E-1
2.550514913E1,2.225325108E-1,-1.420259857E1,-1.948953986E0
2.552541886E1,3.543770313E0,-1.100877857E1,-8.021938205E-1
2.554568860E1,1.654636860E0,-1.000558758E1,-2.588435888E0
2.556595834E1,-8.128418922E0,-2.429911423E1,-2.148156643E0
2.558622808E1,-1.146341515E1,-1.501197147E1,-2.973680258E0
2.560649782E1,-1.002891827E1,-2.003988981E0,4.067798331E-2
2.562676756E1,-6.830312252E0,-5.808577061E0,-1.680957973E-1
2.564703735E1,-5.896512985E0,-1.370010567E1,-4.039084435E0
2.566730709E1,1.702493310E0,-1.175833035E1,-1.512204075E1
2.568757683E1,5.854040623E0,-1.372164154E1,-1.448495197E1
2.570784657E1,2.648256540E0,-1.300080395E1,-2.937788010E0
2.572811631E1,-5.717051506E0,-1.085563850E1,6.696314335E0
2.574838610E1,-1.126481056E1,-8.047062874E0,5.779264927E0
2.576865584E1,-4.460221291E0,-7.561319351E0,-7.716853172E-2
2.578892558E1,-1.472184181E0,-7.958528042E0,-3.795016766E0
2.580919532E1,-1.735394597E0,-7.403393269E0,-2.586043119E0
2.582946511E1,-3.193820000E0,-6.725626469E0,-3.308077157E-1
2.584973485E1,-4.460221291E0,-7.034300327E0,2.321037948E-1
2.587000459E1,-5.769693375E0,-6.309275150E0,1.435693651E-1
2.589027433E1,-7.151548862E0,-6.031109333E0,4.091726840E-1
2.591054412E1,-7.622934818E0,-6.205785751E0,9.068797827E-1
2.593081386E1,-7.204190731E0,-6.469594002E0,1.342971683E0
2.595108360E1,-5.755336761E0,-6.191428661E0,1.541576028E0
2.597135340E1,-3.203391314E0,-6.038288116E0,2.512463629E-1
2.599162308E1,-2.111665964E0,-6.615556240E0,-1.113858938E0
2.601189293E1,-2.403590441E0,-6.818946362E0,-2.203191519E0
2.603216267E1,-3.282354355E0,-6.560521603E0,-3.132204771E0
2.605256267E1,-3.751347780E0,-4.714458942E0,-3.706482172E0
2.607270220E1,-4.326223373E0,-3.378665686E0,-3.728017569E0
2.609297199E1,-5.611767292E0,-5.070989609E0,-3.129213810E0
2.611324173E1,-8.965906143E0,-9.761520386E0,-1.475175142E0
2.613351147E1,-9.157930374E0,-1.285723400E1,1.101296663E0
2.615391147E1,-5.595017433E0,-1.532782364E1,4.138985157E0
2.617405100E1,-4.113262177E0,-1.628794289E1,3.492922783E0
2.619432079E1,-5.051846981E0,-1.667378616E1,4.163511395E-1
2.621459058E1,-5.721837044E0,-2.063809586E1,-1.865205288E0
2.623486032E1,-1.925025821E0,-1.788515282E1,-9.553344250E-1
2.625526032E1,-1.620539188E0,-1.288594818E1,-8.165507317E-1
2.627539985E1,-2.559123755E0,-1.157169056E1,-1.657029629E0
2.629566965E1,-4.029513359E0,-9.421739578E0,-1.800599098E0
2.631593944E1,-4.946562767E0,-8.492725372E0,-8.093722463E-1
2.633620918E1,-5.068596363E0,-7.254439831E0,7.178467698E-3
2.635660918E1,-3.002394199E0,-5.954539299E0,-5.084748194E-2
2.637674876E1,-1.031904817E0,-4.977669239E0,-2.111666054E-1
2.639701850E1,2.638086975E-1,-4.453640938E0,-2.781656384E-1
2.641728829E1,1.220937729E0,-4.125226021E0,-1.633101404E-1
2.643755808E1,1.489532113E0,-4.003192425E0,1.722832322E-1
2.645782788E1,1.513460279E0,-4.496711731E0,5.335994363E-1
2.647809761E1,1.336391449E0,-4.735994339E0,5.934200287E-1
2.649836741E1,2.662015259E-1,-5.234299660E0,8.518448472E-1
2.651863720E1,-1.532004714E0,-5.617151260E0,1.328614831E0
2.653890699E1,-3.504886866E0,-6.292525291E0,2.015354872E0
2.655917678E1,-7.474579811E0,-1.013719273E1,1.507478207E-1
2.657944652E1,-1.285185051E1,-1.175354481E1,-4.281357765E0
2.659971631E1,-1.177208900E1,-6.285346985E0,-1.295713425E0
2.661998610E1,-1.077607632E1,-6.143572330E0,2.836691141E0
2.664025590E1,-1.091246796E1,-1.027597713E1,1.701895118E0
2.666065590E1,-7.187440872E0,-1.494975758E1,-2.829512656E-1
2.668079548E1,-3.780659735E-1,-1.671207237E1,7.824530005E-1
2.670106527E1,7.096513748E0,-1.596969795E1,2.003390789E0
2.672133501E1,3.816552162E0,-1.264188004E1,-2.770290375E0
2.674160480E1,-3.143570662E0,-1.973300934E1,-2.562114954E0
2.676187465E1,-9.442676544E0,-2.203191376E1,-2.483151674E0
2.678214444E1,-9.311071396E0,-6.369095802E0,-2.631506681E0
2.680241418E1,-8.298309326E0,-2.636292458E0,-2.030309916E0
2.682268397E1,-8.721838951E0,-8.588438988E0,-4.831707001E0
2.684295376E1,-5.405984402E0,-1.037647533E1,-1.197368431E1
2.686322355E1,1.017547846E0,-1.010369396E1,-1.474636745E1
2.688349334E1,2.075773716E0,-1.077906799E1,-5.968895912E0
2.690376319E1,-1.187438250E0,-1.133659554E1,7.472187042E0
2.692403298E1,-5.214558601E0,-9.687342644E0,5.343770981E0
2.694430277E1,-2.633301258E0,-7.661818027E0,1.004985496E-1
2.696457256E1,-1.838884234E0,-6.038288116E0,-2.449652195E0
2.698478465E1,-1.211366415E0,-4.460819721E0,-2.035095692E0
2.700446777E1,-1.984846354E0,-3.541377544E0,-8.261220455E-1
2.702486777E1,-5.494519234E0,-7.003193855E0,7.154539824E-1
2.704526777E1,-9.760921478E0,-1.342672634E1,9.882357717E-1
2.706566777E1,-9.085547447E0,-5.535795212E0,-7.016952634E-1
2.708606777E1,-8.944371223E0,-2.258226395E0,1.378864050E0
2.710642876E1,-5.348556995E0,-3.208775282E0,2.140379906E0
2.712670438E1,-2.616551638E0,-5.770291805E0,6.915257573E-1
2.714697949E1,-1.886740685E0,-8.485547066E0,-1.434497118E0
2.716725350E1,-1.185045362E0,-8.535796165E0,-4.913063049E0
2.718752673E1,-1.505683661E0,-5.203192711E0,-6.579664230E0
2.720779923E1,-2.769692183E0,-3.088535786E0,-5.066203594E0
2.722807126E1,-5.992824078E0,-5.185844898E0,-3.548556089E0
2.724834277E1,-9.270393372E0,-9.078967094E0,-2.373081923E0
2.726861402E1,-1.011266708E1,-1.297687531E1,-8.069794178E-1
2.728888496E1,-7.177869797E0,-1.769133377E1,2.894119024E0
2.730915558E1,-3.076571703E0,-2.114597130E1,5.331807137E0
2.732942610E1,-1.455434322E0,-1.782054710E1,2.307877541E0
2.734969647E1,-3.969692707E0,-1.532782364E1,-2.997010350E-1
2.736996678E1,-5.063810825E0,-1.440598869E1,-7.974081635E-1
2.739023694E1,-5.441876888E0,-1.207657623E1,2.225325108E-1
2.741050709E1,-5.032704353E0,-1.095135117E1,6.723831892E-1
2.743077688E1,-4.338187218E0,-1.127677536E1,-6.999006122E-2
2.745117715E1,-4.467400074E0,-1.068096161E1,-1.154536903E-1
2.747131699E1,-4.070191383E0,-9.308678627E0,-1.256231871E-2
2.749158688E1,-3.258426189E0,-7.613961697E0,-6.490531564E-1
2.751185683E1,-1.103689432E0,-6.031109333E0,-1.180858016E0
2.753212662E1,2.685943544E-1,-4.637888432E0,-9.792626500E-1
2.755252673E1,9.649057388E-1,-4.216751575E0,-6.777670383E-1
2.757266647E1,1.623530149E0,-4.551746845E0,-6.562315822E-1
2.759293636E1,1.843669891E0,-5.284548759E0,-5.126622319E-1
2.761320626E1,1.199402332E0,-6.078966141E0,6.939185411E-2
2.763347605E1,-8.374879509E-2,-6.543771744E0,3.469592929E-1
2.765387610E1,-1.242473125E0,-6.285346985E0,2.440679073E-1
2.767401579E1,-2.547159672E0,-5.866004944E0,-6.520441920E-2
2.769428558E1,-5.023132801E0,-6.002395630E0,-3.164508045E-1
2.771455548E1,-7.376473904E0,-7.546962738E0,-9.152546525E-2
2.773482532E1,-9.622138023E0,-7.953742504E0,4.259224236E-1
2.775522532E1,-1.075454140E1,-6.629913330E0,2.065604210E0
2.777536496E1,-9.500103951E0,-6.625127792E0,3.861417532E0
2.779563475E1,-7.790432453E0,-7.379465103E0,2.810370207E0
2.781590465E1,-5.970690727E0,-1.140598774E1,3.493520916E-1
2.783617449E1,-3.229712248E0,-1.589073563E1,-2.827718258E0
2.785644433E1,-1.230509043E0,-1.757827377E1,-3.002394199E0
2.787671413E1,2.459223509E0,-1.485643768E1,2.494517565E0
2.789698397E1,3.124428272E0,-1.349133205E1,2.760120869E0
2.791725381E1,-6.442675114E0,-2.282872391E1,1.450648785E0
2.793751579E1,-1.058704376E1,-1.936451530E1,-1.992024899E0
2.795771657E1,-7.414759159E0,-4.936991215E0,-3.259024382E0
2.797806449E1,-6.052644730E0,-3.028715372E0,-4.582853794E0
2.799833407E1,-7.723433495E0,-6.371488571E0,-9.388239861E0
2.801860376E1,-4.859822750E0,-7.779066563E0,-1.330469227E1
2.803887345E1,-9.146564603E-1,-1.007019424E1,-1.108534908E1
2.805914319E1,7.178467698E-3,-1.191625690E1,-4.240679741E0
2.807941293E1,-8.811569214E-1,-1.286680603E1,6.142973900E0
2.809968272E1,-2.803191662E0,-1.083649540E1,5.360520840E0
2.811995246E1,-2.188236237E0,-9.421739578E0,4.618147612E-1
2.814022225E1,-3.050250769E0,-8.121239662E0,-2.490330219E0
2.816049204E1,-4.275974274E0,-6.687341213E0,-2.471187592E0
2.818076183E1,-5.671587944E0,-6.007181168E0,-1.226321578E0
2.820103168E1,-6.234499454E0,-4.877170563E0,-2.691925503E-2
2.822130147E1,-5.386841774E0,-3.187239647E0,4.211367965E-1
2.824157131E1,-5.867799282E0,-4.041477680E0,2.177468538E-1
2.826184105E1,-9.495318413E0,-1.099202919E1,-5.748756528E-1
2.828211090E1,-7.505686283E0,-1.128156090E1,-2.155334949E0
2.830238074E1,-4.141975880E0,-4.091726780E0,-1.735992789E0
2.832265058E1,-2.786442041E0,-2.686541557E0,-7.830511928E-1
2.834292043E1,-3.562314749E0,-5.183452129E0,-6.035895348E-1
2.836319027E1,-6.528816700E0,-8.574081421E0,-1.298106313E0
2.838346011E1,-7.735397339E0,-7.286144733E0,-2.985644341E0
2.840372996E1,-5.066203594E0,-6.236892223E0,-3.182454109E0
2.842399980E1,-4.364508629E0,-6.936194420E0,-2.191227436E0
2.844426965E1,-5.068596363E0,-8.954540253E0,1.197009563E0
2.846453949E1,-7.134799004E0,-1.310848045E1,4.725824833E0
2.848480933E1,-9.303893089E0,-1.296251869E1,3.117249727E0
2.850507918E1,-1.029272652E1,-1.180379391E1,-1.707278967E0
2.852534902E1,-1.225364494E1,-1.576391602E1,-4.348356724E0
2.854561886E1,-9.600603104E0,-1.793301010E1,-7.649854183E0
2.856588871E1,-3.469592929E-1,-1.795454407E1,-1.081735325E1
2.858615855E1,3.277568817E0,-1.796650887E1,-7.156334400E0
2.860642840E1,1.396211982E0,-1.241157150E1,6.029912829E-1
2.862669824E1,-3.650849104E0,-8.228917122E0,-4.456632137E-1
2.864696808E1,-5.563910961E0,-8.087740898E0,-2.748754978E0
2.866723793E1,-5.587839127E0,-8.312665939E0,-2.818146944E0
2.868750777E1,-4.438685894E0,-7.680960655E0,-7.256234884E-1
2.870777761E1,-2.300698996E0,-7.618747234E0,-4.815555513E-1
2.872804746E1,-8.620143533E-1,-7.862815380E0,-1.393819213E0
2.874831730E1,-7.345965505E-1,-7.467999458E0,-1.496710539E0
2.876858715E1,-4.307080805E-2,-6.658627033E0,-1.046261668E0
2.878885699E1,9.553344250E-1,-6.378666878E0,-9.002995491E-1
2.880912678E1,1.819741607E0,-6.536593437E0,-6.131607890E-1
2.882939662E1,2.755933523E0,-7.098906517E0,1.124626622E-1
2.884966652E1,1.261615753E0,-9.026325226E0,1.587039590E0
2.886993631E1,-3.509672642E0,-1.359242916E1,2.350948334E0
2.889020610E1,-1.195633698E1,-1.649133301E1,6.040082455E0
2.891060616E1,-1.409432316E1,-1.530389500E1,5.209773064E0
2.893074590E1,-7.821538925E0,-1.019222832E1,3.813561201E0
2.895101574E1,-5.358128071E0,-7.530212879E0,4.809573591E-1
2.897128558E1,-2.700300455E0,-6.450451851E0,-1.066002488E0
2.899155543E1,-7.657032609E-1,-7.055835724E0,-2.605185747E0
2.901182522E1,-7.010970116E-1,-1.211007500E1,-5.952146530E0
2.903209501E1,-9.457631707E-1,-1.219382381E1,-5.251049519E0
2.905249501E1,-2.690729141E0,-1.266102314E1,-3.930211067E-1
2.907263475E1,-8.532805443E0,-1.435095406E1,1.042911720E1
2.909290454E1,-6.301498413E0,-9.306285858E0,1.546361685E0
2.911317438E1,-3.892524242E0,-7.817351341E0,-2.901297510E-1
2.913344423E1,-5.718846321E-1,-8.212167740E0,-3.357130051E0
2.915384423E1,2.566900492E0,-7.700103283E0,-7.824530125E0
2.917398397E1,4.996811867E0,-7.726424217E0,-9.224929810E0
2.919425376E1,3.356531858E0,-8.437690735E0,-5.545366287E0
2.921452360E1,1.770688742E-1,-1.100399303E1,-1.097109199E0
2.923479345E1,-4.479363918E0,-1.114516926E1,1.019342422E0
2.925519345E1,-9.588638306E0,-8.571688652E0,2.896511793E0
2.927533314E1,-1.085743237E1,-7.609176159E0,-7.716853172E-2
2.929560298E1,-9.172286987E0,-6.830910206E0,-4.843671322E0
2.931587282E1,-6.014359951E0,-6.462415695E0,-7.300501823E0
2.933614267E1,-2.245664120E0,-7.609176159E0,-6.282954216E0
2.935654267E1,3.858426511E-1,-9.031110764E0,-3.280559778E0
2.937668235E1,4.504488707E-1,-9.536594391E0,-1.424925923E0
2.939695220E1,-1.768894196E0,-9.057432175E0,-2.272583246E0
2.941722204E1,-3.504886866E0,-8.897112846E0,-3.364308596E0
2.943749189E1,-3.674777269E0,-8.166703224E0,-3.816552162E0
2.945776173E1,-2.733799934E0,-7.956135273E0,-3.397808075E0
2.947803157E1,-1.089332461E0,-8.985647202E0,-2.239083767E0
2.949830142E1,-5.670989752E-1,-1.033101177E1,-4.719842672E-1
2.951857126E1,-8.045865893E-1,-1.185643578E1,1.435693651E-1
2.953884110E1,-1.244267747E-1,-1.158843994E1,-4.456632137E-1
2.955911095E1,-6.628118753E-1,-1.021376324E1,-9.649057388E-1
2.957938074E1,-2.578266382E0,-9.792626381E0,-2.253440619E0
2.959965058E1,-4.625326157E0,-1.266820145E1,-4.271786690E0
2.961992043E1,-5.714658737E0,-1.206221867E1,-6.244070530E0
2.964019027E1,-7.515257835E0,-9.500701904E0,-4.846064091E0
2.966046011E1,-8.867800713E0,-9.984052658E0,-2.464009047E0
2.968072996E1,-7.481758118E0,-1.060917759E1,2.152343988E0
2.970099980E1,-3.917050600E0,-9.785448074E0,1.287936807E0
2.972126959E1,-3.425923824E0,-8.758329391E0,-3.044866920E-1
2.974153944E1,-3.832703590E0,-1.136530972E1,-1.676172256E0
2.976180928E1,-2.604587555E0,-1.401595879E1,-3.064607620E0
2.978207907E1,-1.144367456E0,-1.261077309E1,-3.976871252E0
2.980234892E1,1.674975827E-2,-1.077428246E1,-4.484747887E0
2.982261876E1,1.986042857E-1,-9.962516785E0,-4.441677094E0
2.984288860E1,-8.835497499E-1,-9.407382011E0,-3.845266104E0
2.986315845E1,-3.701098442E0,-8.171489716E0,-3.445664644E0
2.988342824E1,-5.628517151E0,-7.523034573E0,-3.881158352E0
2.990369808E1,-6.107679844E0,-8.018348694E0,-3.577269793E0
2.992396793E1,-4.158725739E0,-9.330213547E0,-2.358724833E0
2.994423772E1,-1.922633052E0,-9.186644554E0,-1.874776483E0
2.996450756E1,-1.675574064E0,-8.097311974E0,-2.001596212E0
2.998471975E1,-1.347757339E0,-7.518248558E0,-2.143370867E0
3.000440293E1,-1.017547846E0,-7.180262566E0,-2.318047047E0
3.002480293E1,-7.974081635E-1,-7.101299286E0,-2.327618122E0
3.004520293E1,-6.532405615E-1,-7.489534855E0,-2.198405743E0
3.006560293E1,6.460621208E-2,-8.466404915E0,-2.136192322E0
3.008600293E1,6.059823632E-1,-9.303893089E0,-1.240678549E0
3.010636397E1,3.619144261E-1,-1.064507008E1,3.038884699E-1
3.012663959E1,-1.216152072E0,-1.269691563E1,2.922832966E0
3.014691475E1,-3.691527128E0,-1.347697544E1,1.171705437E1
3.016718881E1,-8.678768158E0,-1.186840057E1,9.540781975E0
3.018746209E1,-1.024726295E1,-7.182655334E0,-4.415356159E0
3.020773459E1,-9.308678627E0,-4.936991215E0,-4.618745804E0
3.022800657E1,-3.873381615E0,-4.525425911E0,-3.098107100E0
3.024827819E1,-1.077368379E0,-7.503891945E0,-2.430509567E0
3.026854944E1,-7.854440212E-1,-1.656311798E1,-1.824527264E0
3.028882032E1,-1.555932879E0,-1.923530388E1,-4.366901144E-2
3.030909105E1,-3.098107100E0,-9.830911636E0,1.076770201E-1
3.032936157E1,-5.274379253E0,-7.812565804E0,1.818545163E-1
3.034963194E1,-5.932405472E0,-9.596415520E0,7.393822074E-1
3.036990220E1,-3.820739508E0,-1.009172916E1,-1.152144074E0
3.039017235E1,4.217349887E-1,-8.540582657E0,-4.192823410E0
3.041044251E1,2.746362209E0,-8.286344528E0,-4.427320004E0
3.043071256E1,2.157129526E0,-8.767900467E0,-2.222334146E0
3.045098261E1,-4.785645306E-1,-9.026325226E0,-1.324427366E0
3.047125251E1,-3.586242914E0,-9.033503532E0,-1.776670814E0
3.049152246E1,-6.643671989E0,-8.952147484E0,-2.027917147E0
3.051179235E1,-1.061575794E1,-8.686544418E0,-2.219941139E0
3.053206215E1,-1.042193890E1,-8.056633949E0,-1.989632010E0
3.055246225E1,-5.918048382E0,-7.317251682E0,-2.085345030E0
3.057260194E1,-1.539183140E0,-7.396214962E0,-3.790230989E0
3.059287183E1,5.246263742E-1,-8.858827591E0,-3.531806231E0
3.061314168E1,-8.668000102E-1,-1.033819008E1,-9.242277741E-1
3.063341147E1,-4.134797573E0,-9.378668785E0,1.436291814E0
3.065381152E1,-5.295914650E0,-7.530212879E0,1.522433400E0
3.067395110E1,-4.898108006E0,-7.401000500E0,1.278365493E0
3.069422090E1,-4.354937077E0,-7.755138397E0,6.508477330E-1
3.071449074E1,-3.483351469E0,-7.482356548E0,-4.480560422E-1
3.073476058E1,-1.994417667E0,-6.438487530E0,-1.360319614E0
3.075516058E1,-1.091725349E0,-5.765506268E0,-1.740778446E0
3.077530017E1,-1.285543919E0,-5.887540340E0,-1.774278045E0
3.079557001E1,-2.623729944E0,-6.196214199E0,-1.408176184E0
3.081583985E1,-4.314259052E0,-6.347560406E0,-5.533402562E-1
3.083610574E1,-4.917250633E0,-6.038288116E0,-3.164508045E-1
3.085634095E1,-4.316651821E0,-5.531009674E0,-6.634100676E-1
3.087664985E1,-4.725824833E0,-6.282954216E0,-1.054038405E0
3.089691954E1,-6.040680885E0,-7.067800045E0,-6.299105883E-1
3.091718933E1,-6.301498413E0,-8.042277336E0,2.105683982E-1
3.093745912E1,-7.067800045E0,-1.078863907E1,8.327022791E-1
3.095785902E1,-7.764111042E0,-1.526321697E1,1.132403374E0
3.097799860E1,-5.958726406E0,-1.630708694E1,6.891329288E-1
3.099826834E1,-6.244070530E0,-1.717388725E1,-8.165507317E-1
3.101853808E1,-4.405186653E0,-1.761416626E1,7.250252366E-1
3.103880788E1,-1.259222865E0,-1.267059422E1,5.144568682E-1
3.105907761E1,-4.689932466E-1,-1.105184937E1,-2.313261271E0
3.107934741E1,-3.504886866E0,-1.022812080E1,-2.923431158E0
3.109961720E1,-6.244070530E0,-9.131608963E0,-8.309076428E-1
3.111988699E1,-5.135595798E0,-7.688138962E0,5.312066078E-1
3.114015678E1,-3.279961586E0,-6.579664230E0,7.034898400E-1
3.116055678E1,-1.915454507E0,-5.810969830E0,5.886343718E-1
3.118069636E1,-8.931210637E-1,-5.399404526E0,2.416750938E-1
3.120096616E1,-4.139583111E-1,-5.330012321E0,2.297109663E-1
3.122123590E1,-4.139583111E-1,-5.181059361E0,5.670989752E-1
3.124150569E1,-7.250252366E-1,-4.654638290E0,1.079761267E0
3.126177548E1,-1.917847395E0,-4.091726780E0,1.833500385E0
3.128204527E1,-3.117249727E0,-3.345165968E0,2.126022816E0
3.130231506E1,-4.024727821E0,-3.443271875E0,1.486541033E0
3.132258475E1,-5.841478348E0,-5.959324837E0,3.110669367E-2
3.134285465E1,-7.472187042E0,-9.988838196E0,-2.554936409E0
3.136312444E1,-6.576673031E0,-9.047860146E0,-2.765504837E0
3.138339423E1,-6.050251961E0,-6.491129398E0,-5.084748194E-2
3.140366402E1,-6.064609051E0,-9.536594391E0,5.551348329E-1
3.142393381E1,-7.004988194E0,-1.614676666E1,5.431707501E-1
3.144420355E1,-6.567101955E0,-1.756391716E1,-4.336991012E-1
3.146447340E1,-3.466601849E0,-1.292901897E1,3.315854073E0
3.148474314E1,1.867598057E0,-1.167218876E1,1.847857237E0
3.150501293E1,-1.048654556E0,-2.014995956E1,-4.552344978E-1
3.152528272E1,-6.126822472E0,-1.954158401E1,-2.337189436E0
3.154555251E1,-7.110870838E0,-5.966503143E0,-2.703291416E0
3.156582230E1,-6.313462734E0,-6.126822472E0,-1.668993831E0
3.158609181E1,-7.761718273E0,-1.238525009E1,-4.079762459E0
3.160636155E1,-6.710670948E0,-1.032622623E1,-9.464810371E0
3.162663134E1,-3.229712248E0,-9.112466812E0,-1.074796104E1
3.164690113E1,-2.257628202E0,-1.136770248E1,-6.248856544E0
3.166717093E1,-4.536791801E0,-1.111884880E1,3.828516230E-2
3.168744067E1,-8.118846893E0,-7.640282631E0,6.330212116E0
3.170771046E1,-4.134797573E0,-7.367500782E0,2.417947292E0
3.172798025E1,-9.337990284E-1,-8.190631866E0,-1.525424480E0
3.174825004E1,-6.101697683E-1,-7.668996811E0,-2.239083767E0
3.176851978E1,-1.450648785E0,-6.179464340E0,-1.276570916E0
3.178878957E1,-2.193022013E0,-4.848456860E0,-2.231307179E-1
3.180905936E1,-3.512065411E0,-4.110869408E0,9.810572863E-2
3.182932910E1,-6.593422890E0,-7.144370079E0,-6.759724021E-2
3.184959890E1,-8.461020470E0,-8.344370842E0,-9.984052777E-1
3.186986863E1,-7.905287743E0,-4.563711166E0,-7.280163169E-1
3.189013843E1,-5.597410202E0,-4.458426952E0,1.146760225E0
3.191040822E1,-3.459423304E0,-5.885147095E0,1.225723386E0
3.193067796E1,-2.944966555E0,-7.582854748E0,-3.260220885E-1
3.195107796E1,-3.296711445E0,-8.157132149E0,-1.901097536E0
3.197121754E1,-3.524029493E0,-5.171487808E0,-2.777468920E0
3.199148728E1,-4.445864677E0,-3.314059258E0,-2.758326292E0
3.201175707E1,-7.182655334E0,-6.680162430E0,-1.970489502E0
3.203202676E1,-8.475378036E0,-1.186122227E1,-5.150550604E-1
3.205242676E1,-5.609374523E0,-1.362114334E1,7.633104324E-1
3.207256634E1,-2.748156786E0,-1.315394402E1,3.490530014E0
3.209283613E1,-3.885345697E0,-1.183250809E1,2.846262455E0
3.211310587E1,-7.503293514E0,-1.709253120E1,4.331009090E-1
3.213337567E1,-4.811966419E0,-2.006142426E1,-1.944168359E-1
3.215377567E1,-1.417149186E0,-1.701835251E1,-1.657029629E0
3.217391520E1,-4.390829563E0,-1.432223988E1,-1.934597135E0
3.219418494E1,-6.169893265E0,-1.204546928E1,5.264209956E-2
3.221445473E1,-6.100501537E0,-9.436096191E0,6.317051649E-1
3.223472447E1,-5.726622581E0,-8.576474190E0,2.560320199E-1
3.225512447E1,-5.798407555E0,-7.963313580E0,5.096712112E-1
3.227526400E1,-4.173082829E0,-6.914659023E0,1.208973646E0
3.229553374E1,-2.085345030E0,-5.849255085E0,1.256830096E0
3.231580353E1,-5.359922647E-1,-4.771886349E0,8.614161611E-1
3.233607327E1,5.054838061E-1,-3.986442566E0,3.230310678E-1
3.235647327E1,1.273579836E0,-3.527020693E0,-9.391828626E-2
3.237661280E1,1.261615753E0,-2.901895761E0,-1.974078640E-2
3.239688254E1,8.309076428E-1,-3.208775282E0,1.962114573E-1
3.241715233E1,4.671986103E-1,-4.211966038E0,-1.974078640E-2
3.243742207E1,6.939185411E-2,-5.502295494E0,-5.054838061E-1
3.245769186E1,-5.383850932E-1,-6.376274109E0,-1.386640668E0
3.247796160E1,-3.703491211E0,-8.775078773E0,-1.195214868E0
3.249823134E1,-7.453044415E0,-1.319462204E1,2.679961324E-1
3.251850113E1,-1.059900761E1,-1.024008465E1,-3.954139352E-1
3.253877087E1,-1.204487133E1,-4.202394962E0,2.384447813E0
3.255904061E1,-1.308156109E1,-5.473581791E0,5.492125988E0
3.257931035E1,-1.295952702E1,-1.078624630E1,3.047259569E0
3.259958015E1,-7.402794838E0,-1.377189064E1,-2.650649309E0
3.261984988E1,-2.157129526E0,-1.474876022E1,-4.884349346E0
3.264011962E1,2.250449657E0,-1.255095291E1,-1.178465128E0
3.266038936E1,3.366103172E0,-9.160323143E0,-1.176072359E0
3.268065916E1,-7.223333359E0,-2.146421814E1,-6.179464459E-1
3.270092890E1,-1.311506081E1,-2.048016930E1,1.962114573E-1
3.272119863E1,-8.319844246E0,-2.265404940E0,3.302095234E-1
3.274146837E1,-4.737788677E0,-2.799004316E0,6.460621208E-2
3.276173811E1,-2.157129526E0,-1.367857075E1,-6.761518478E0
3.278200785E1,3.344567776E0,-1.336690521E1,-1.222014523E1
3.280227759E1,2.968894720E0,-1.271845055E1,-1.067139053E1
3.282254738E1,-8.135596663E-2,-1.488754463E1,-4.247858524E0
3.284281712E1,-9.349356651E0,-1.083170986E1,1.610967875E0
3.286308686E1,-1.355115318E1,-6.816553593E0,3.720241070E0
3.288335660E1,-6.672386169E0,-7.113263607E0,4.354937077E-1
3.290362634E1,-2.161915302E0,-8.447261810E0,-2.667398930E0
3.292389608E1,-9.840483069E-1,-8.123632431E0,-2.265404940E0
3.294416582E1,-2.173879385E0,-6.728019238E0,-4.839483798E-1
3.296443556E1,-2.793620348E0,-5.844469070E0,-1.058823988E-1
3.298470134E1,-3.626920938E0,-5.691328526E0,-5.198407173E-1
3.300493650E1,-4.852644444E0,-6.098108292E0,-9.768698215E-1
3.302524535E1,-5.772086620E0,-6.095715523E0,-1.322034478E0
3.304551494E1,-4.345366001E0,-4.819743156E0,-1.432104349E0
3.306578462E1,-3.270390272E0,-5.243870735E0,-3.978067636E-1
3.308605431E1,-4.855037212E0,-8.633902550E0,5.766702294E-1
3.310632400E1,-5.267200947E0,-9.694520950E0,1.220339537E-1
3.312659369E1,-4.426722050E0,-6.261418819E0,-4.336991012E-1
3.314686337E1,-4.649254322E0,-3.349951744E0,-3.116651475E-1
3.316713306E1,-4.070191383E0,-2.590828657E0,-1.441675574E-1
3.318740280E1,-5.190630436E0,-5.397011280E0,-6.873382926E-1
3.320767249E1,-8.185846329E0,-1.051107121E1,-1.810170293E0
3.322794223E1,-7.546364307E0,-1.064028454E1,-2.172084808E0
3.324821197E1,-4.649254322E0,-1.018983555E1,5.575276613E-1
3.326848166E1,-5.327021599E0,-1.234457207E1,4.692325115E0
3.328875140E1,-8.662017822E0,-1.343151188E1,3.648456335E0
3.330902113E1,-8.029714584E0,-1.577587986E1,5.982056633E-2
3.332929087E1,-5.953940868E0,-2.144028854E1,-2.044667006E0
3.334956061E1,2.297109663E-1,-1.846182251E1,-1.243071318E0
3.336983030E1,1.240080357E0,-1.516989708E1,-1.893919110E0
3.339010796E1,-1.721037745E0,-1.227517986E1,-1.066002488E0
3.341044692E1,-5.927619934E0,-8.858827591E0,4.043870270E-1
3.343063837E1,-6.904489517E0,-7.331608772E0,5.264209956E-2
3.345090837E1,-5.300700188E0,-6.483951092E0,-7.477571070E-2
3.347117822E1,-2.599801779E0,-6.208178520E0,1.363908947E-1
3.349144806E1,-1.381256819E0,-5.832505226E0,-4.785645287E-3
3.351171796E1,-2.584248483E-1,-5.164309502E0,-1.734796353E-2
3.353198770E1,5.389832854E-1,-4.408177376E0,9.810572863E-2
3.355238780E1,9.912267923E-1,-4.192823410E0,4.929214716E-1
3.357252728E1,1.317248821E0,-4.290929317E0,9.475577474E-1
3.359279707E1,1.039083242E0,-3.917050600E0,1.144367456E0
3.361306681E1,1.435693540E-2,-3.507878065E0,8.374879360E-1
3.363333655E1,-1.788036704E0,-3.574877024E0,5.910272002E-1
3.365373660E1,-4.484149456E0,-5.655436516E0,-4.606183618E-2
3.367387608E1,-8.216953278E0,-1.099442196E1,-2.157727718E0
3.369414582E1,-9.193822861E0,-1.149990559E1,-3.885943890E0
3.371441556E1,-7.029514790E0,-6.558128834E0,1.483550072E-1
3.373468525E1,-7.560721397E0,-5.681757450E0,2.772084951E0
3.375508525E1,-8.867800713E0,-8.844470978E0,2.293520451E0
3.377522473E1,-9.497711182E0,-1.561556053E1,3.500101328E0
3.379549447E1,-4.484149456E0,-1.613480377E1,-1.980060697E0
3.381576421E1,-1.079761267E0,-1.533260918E1,-1.884347796E0
3.383603384E1,1.534995675E0,-1.396810246E1,-7.716853172E-2
3.385643384E1,1.387837082E-1,-1.332144165E1,-1.391426325E0
3.387657337E1,-7.393223763E0,-2.005185318E1,-1.554138303E0
3.389684306E1,-1.116371441E1,-1.404706573E1,-2.933002472E0
3.391711280E1,-8.690732002E0,-3.572484255E0,-2.559721947E0
3.393738249E1,-7.689933777E0,-7.022336483E0,-2.971287489E0
3.395778249E1,-6.464210510E0,-1.092742252E1,-7.661818027E0
3.397792192E1,-2.353341103E0,-8.803792953E0,-1.074078274E1
3.399819166E1,-1.027119160E0,-9.546165466E0,-7.575676441E0
3.401846134E1,-1.858026743E0,-1.067856884E1,-1.475175142E0
3.403873108E1,-4.278367043E0,-9.555737495E0,4.560719967E0
3.405900077E1,-1.673181176E0,-8.346763611E0,8.183453679E-1
3.407927051E1,-6.771687865E-1,-7.286144733E0,-2.023131609E0
3.409954020E1,-2.520838737E0,-6.711269379E0,-1.786242127E0
3.411980994E1,-4.134797573E0,-7.036693096E0,-6.538388133E-1
3.414007962E1,-5.037489891E0,-6.677769661E0,2.368894368E-1
3.416034931E1,-6.727420807E0,-6.728019238E0,6.628118753E-1
3.418061905E1,-8.123632431E0,-7.776673794E0,1.866401732E-1
3.420088874E1,-6.717849731E0,-7.232904434E0,-2.925225794E-1
3.422115848E1,-4.944169998E0,-5.851647854E0,-2.685943544E-1
3.424142817E1,-3.430709362E0,-4.757529736E0,-4.839483798E-1
3.426169785E1,-2.743371248E0,-4.334000111E0,-1.128215909E0
3.428196759E1,-3.174677372E0,-6.088537216E0,-1.819741607E0
3.430223728E1,-4.060619831E0,-9.306285858E0,-2.763111830E0
3.432250697E1,-2.353341103E0,-8.842078209E0,-3.139383316E0
3.434277666E1,-1.331007600E0,-5.284548759E0,-2.930609465E0
3.436304640E1,-1.658824325E0,-3.371487141E0,-2.449652195E0
3.438331608E1,-4.091726780E0,-4.625924587E0,-1.362712502E0
3.440358582E1,-8.891729355E0,-1.011087227E1,-7.280163169E-1
3.442385551E1,-1.073779202E1,-1.345783234E1,7.178467698E-3
3.444412520E1,-8.178668022E0,-1.312283802E1,2.286342144E0
3.446439488E1,-6.105287075E0,-1.213400364E1,2.738585472E0
3.448466457E1,-6.851847649E0,-1.143470097E1,9.690931439E-1
3.450493431E1,-1.060379314E1,-1.563230991E1,-3.888336942E-2
3.452520400E1,-7.661220074E0,-2.028874397E1,-8.434699476E-2
3.454547369E1,-3.074178934E0,-1.717388725E1,-1.010967568E-1
3.456574337E1,-2.880360365E0,-1.394895935E1,-6.418746710E-1
3.458601311E1,-2.111665964E0,-1.093460083E1,-5.533402562E-1
3.460628280E1,-2.243271112E0,-8.624331474E0,-4.456632137E-1
3.462655249E1,-3.801596880E0,-8.243273735E0,3.038884699E-1
3.464682218E1,-3.703491211E0,-7.494320393E0,4.235295951E-1
3.466709186E1,-2.061416626E0,-6.445665836E0,1.268195957E-1
3.468736155E1,-6.699903607E-1,-5.265406132E0,-1.010967568E-1
3.470763124E1,4.624129832E-1,-4.712066174E0,-3.619144261E-1
3.472790098E1,1.599601984E0,-4.575675011E0,-6.562315822E-1
3.474817067E1,2.109273195E0,-4.089334011E0,-3.810569942E-1
3.476844035E1,1.965703845E0,-3.943371773E0,1.674975827E-2
3.478871004E1,1.738385677E0,-4.231108665E0,-1.609173268E-1
3.480897973E1,8.931210637E-1,-4.628317356E0,-1.561316848E-1
3.482924936E1,-1.228116274E0,-5.325226784E0,6.005984545E-1
3.484951910E1,-3.929014683E0,-6.850052834E0,1.761715651E0
3.486978879E1,-9.066405296E0,-1.107817078E1,3.339782238E0
3.489005848E1,-1.540917969E1,-1.016112137E1,-2.157727718E0
3.491032817E1,-1.409910965E1,-3.052643538E0,-1.259821177E0
3.493059785E1,-1.466202068E1,-4.731208801E0,7.082754970E-1
3.495086754E1,-1.458545017E1,-1.180618668E1,4.211367965E-1
3.497113723E1,-8.583054543E0,-1.889073563E1,-1.549352646E0
3.499140692E1,3.407379389E0,-1.852643013E1,1.579861164E0
3.501167660E1,1.006540871E1,-1.154297638E1,4.354937077E-1
3.503194629E1,3.718446493E0,-1.335015583E1,-4.576273263E-1
3.505234629E1,-7.084549427E0,-2.767718124E1,-2.779861689E0
3.507248561E1,-8.185846329E0,-1.009172916E1,-3.028715372E0
3.509275535E1,-1.050808048E1,-3.826123476E0,-6.897311211E-1
3.511302499E1,-1.086221886E1,-1.053499985E1,-3.239881754E0
3.513329468E1,-5.614160061E0,-1.102792168E1,-8.535796165E0
3.515369468E1,1.230509043E0,-1.019701385E1,-1.385085392E1
3.517383405E1,2.942573547E0,-1.218425274E1,-9.215357780E0
3.519410374E1,-3.038884699E-1,-1.047039413E1,7.226324677E-1
3.521437343E1,-7.137191772E0,-8.509475708E0,5.099104881E0
3.523464311E1,-4.898108006E0,-8.478368759E0,9.355936646E-1
3.525504311E1,-1.579861164E0,-8.039883614E0,-2.322832584E0
3.527518249E1,-1.761715651E0,-6.749554634E0,-3.237488985E0
3.529545218E1,-2.803191662E0,-4.601995945E0,-1.838884234E0
3.531572186E1,-4.256831646E0,-3.438486099E0,-5.461617708E-1
3.533599155E1,-5.384449005E0,-2.770290375E0,2.081755698E-1
3.535639155E1,-8.506484032E0,-4.465605259E0,3.004188776E0
3.537653087E1,-1.294756317E1,-9.177073479E0,4.098307133E0
3.539680056E1,-8.260024071E0,-7.132406235E0,1.338186026E0
3.541707025E1,-3.909872293E0,-5.310869694E0,8.638089895E-1
3.543733994E1,-1.249651670E0,-6.107679844E0,-3.547359705E-1
3.545760962E1,-5.120640397E-1,-7.220940590E0,-1.858026743E0
3.547787931E1,-6.819544435E-1,-6.948158741E0,-3.481556892E0
3.549814900E1,-1.963310957E0,-5.085346222E0,-4.984847546E0
3.551841863E1,-4.553541660E0,-3.345165968E0,-5.282155991E0
3.553868832E1,-7.965108395E0,-4.764708042E0,-3.917050600E0
3.555895801E1,-1.251446247E1,-9.067003250E0,1.196411345E-2
3.557922764E1,-1.119781208E1,-1.456451321E1,3.102294445E0
3.559949733E1,-6.346961975E0,-1.863889122E1,5.365306377E0
3.561976707E1,-6.011966705E0,-1.885723686E1,2.860619545E0
3.564003676E1,-6.392425537E0,-2.141157532E1,-1.513460279E-1
3.566043676E1,-2.264806747E0,-1.763091469E1,3.349951804E-1
3.568057613E1,-1.946561217E0,-1.307498074E1,4.307080805E-2
3.570084582E1,-2.293520451E0,-1.270170116E1,-9.816554785E-1
3.572111551E1,-4.084548473E0,-1.044407272E1,-8.883354068E-1
3.574138514E1,-4.958526611E0,-9.315856934E0,-7.136593461E-1
3.576165483E1,-4.785645485E0,-8.787042618E0,-2.494517565E-1
3.578192452E1,-4.895715237E0,-7.554141045E0,9.571290575E-3
3.580219421E1,-3.581457376E0,-5.899504185E0,-2.213360928E-2
3.582246390E1,-1.340578914E0,-4.963312149E0,-8.913264424E-2
3.584273358E1,9.571290575E-3,-4.343571186E0,-2.931207791E-2
3.586300322E1,7.088736892E-1,-4.171288013E0,-1.256231871E-2
3.588327291E1,1.338784218E0,-3.981656790E0,-9.391828626E-2
3.590354259E1,1.523031592E0,-4.048655987E0,8.374879509E-2
3.592381228E1,1.213759303E0,-4.716851711E0,1.339980662E-1
3.594408197E1,1.435693540E-2,-5.258227825E0,6.221338734E-2
3.596435160E1,-2.025524378E0,-5.954539299E0,1.459621787E-1
3.598461733E1,-4.460221291E0,-7.357929707E0,7.226324677E-1
3.600485244E1,-7.314260483E0,-1.026879883E1,1.084546804E0
3.602516124E1,-1.063011456E1,-8.727222443E0,-9.912267923E-1
3.604543077E1,-1.040997505E1,-4.659423828E0,7.896314561E-2
3.606570040E1,-9.660423279E0,-4.630710125E0,2.099701881E0
3.608596999E1,-9.543174744E0,-7.874779224E0,2.776870728E0
3.610623962E1,-9.256035805E0,-1.619462395E1,2.202593327E0
3.612650921E1,-2.480160713E0,-1.998006821E1,-1.369891018E-1
3.614677884E1,3.840480328E0,-1.627119446E1,2.341377020E0
3.616704853E1,3.866801500E0,-1.332383442E1,1.063011408E0
3.618731817E1,-9.242277741E-1,-1.466261864E1,-1.934597135E0
3.620758780E1,-8.970691681E0,-2.404308128E1,-2.251047850E0
3.622785744E1,-1.150170040E1,-8.925827026E0,-4.012763500E0
3.624812712E1,-8.305487633E0,-1.649851203E0,-2.734398127E0
3.626839676E1,-9.008976936E0,-5.581258774E0,-3.474378586E0
3.628866645E1,-8.805587769E0,-9.897911072E0,-8.574081421E0
3.630893608E1,-2.633301258E0,-9.529416084E0,-1.210768223E1
3.632920572E1,-5.264210105E-1,-9.895518303E0,-8.428119659E0
3.634947540E1,-1.754537225E0,-1.013240719E1,-1.106680512E0
3.636974509E1,-6.320641041E0,-9.351749420E0,5.580660820E0
3.639001473E1,-4.137190342E0,-8.708079338E0,1.945963025E0
3.641028442E1,-8.548358679E-1,-8.430512428E0,-1.166501045E0
3.643055410E1,-1.228116274E0,-6.897909641E0,-1.798206210E0
3.645095410E1,-3.198605776E0,-5.401797295E0,1.435693651E-1
3.647109337E1,-5.011168957E0,-5.834897995E0,1.658824325E0
3.649136306E1,-7.395616531E0,-6.929016113E0,1.874178290E0
3.651163275E1,-8.690732002E0,-5.854040623E0,1.132403374E0
3.653190244E1,-8.171489716E0,-3.677768469E0,-3.762713671E-1
3.655230244E1,-6.634100914E0,-3.694518089E0,-5.341976285E-1
3.657244176E1,-5.650052547E0,-4.518247128E0,-7.686942816E-1
3.659271140E1,-5.063810825E0,-5.152345181E0,-2.054238319E0
3.661298108E1,-4.402793884E0,-6.224927902E0,-3.045464993E0
3.663325072E1,-2.568695068E0,-5.203192711E0,-3.428914785E0
3.665365072E1,-1.555932879E0,-4.805386066E0,-3.095714331E0
3.667379004E1,-7.950153351E-1,-6.943373203E0,-3.132204771E0
3.669405973E1,-1.335793257E0,-1.220578861E1,-2.660220623E0
3.671432936E1,-2.420340061E0,-1.882852364E1,1.125224829E0
3.673459905E1,-5.037489891E0,-1.854317856E1,5.566303730E0
3.675499905E1,-9.201001167E0,-1.391545963E1,2.429911375E0
3.677513837E1,-1.137009525E1,-1.675275040E1,-5.509474277E-1
3.679540806E1,-7.622934818E0,-2.059741783E1,-1.333998680E0
3.681567770E1,-2.745764017E0,-1.635015678E1,-1.814955950E0
3.683594738E1,-1.661217093E0,-1.147358418E1,-1.657029629E0
3.685634738E1,-2.183450699E0,-9.224929810E0,-1.171286702E0
3.687648671E1,-3.002394199E0,-9.565308571E0,-1.048654556E0
3.689675634E1,-4.321437836E0,-9.174679756E0,-8.285148144E-1
3.691702603E1,-4.723432064E0,-7.326822758E0,-6.849454641E-1
3.693729567E1,-3.129213810E0,-5.760720730E0,-5.246263742E-1
3.695769567E1,-1.067797065E0,-5.104488850E0,-1.728814393E-1
3.697783499E1,2.560320199E-1,-4.838885784E0,5.048855543E-1
3.699810468E1,1.216152072E0,-4.798207760E0,7.274180651E-1
3.701837426E1,1.475175142E0,-4.566103935E0,7.848458290E-1
3.703864400E1,7.232306600E-1,-4.314857483E0,9.212366939E-1
3.705891363E1,-6.125625968E-1,-4.463212490E0,7.489534616E-1
3.707918332E1,-1.869990945E0,-5.128417015E0,2.081755698E-1
3.709945296E1,-2.866003275E0,-5.767899036E0,-3.786641955E-1
3.711972264E1,-3.758526087E0,-6.383452415E0,-6.849454641E-1
3.713999228E1,-4.886143684E0,-8.755936623E0,-7.591229677E-1
3.716026192E1,-5.099703312E0,-1.082453156E1,-1.575673699E0
3.718053160E1,-5.590231895E0,-1.167218876E1,-4.432703853E-1
3.720080124E1,-7.668398380E0,-9.672985077E0,3.859024763E0
3.722107093E1,-1.149930763E1,-9.725627899E0,9.025727272E0
3.724134056E1,-1.123131084E1,-9.795019150E0,8.170890808E0
3.726161025E1,-8.236095428E0,-7.948956966E0,2.889333248E0
3.728187988E1,-7.945965767E0,-1.095613670E1,-1.707278967E0
3.730214957E1,-5.274379253E0,-1.264905834E1,-6.009573936E0
3.732241921E1,-3.107678413E0,-1.586202145E1,-4.905884743E0
3.734268884E1,-1.658824325E0,-1.684128380E1,-2.990430117E0
3.736295853E1,-2.181057930E0,-1.859582138E1,-2.296511650E0
3.738322817E1,-1.010369420E0,-9.351749420E0,-1.972882271E0
3.740349785E1,-3.081357241E0,-7.127620220E0,-1.685743570E0
3.742376749E1,-6.256034851E0,-1.003190899E1,-3.792623997E0
3.744403712E1,-6.918846607E0,-1.124088287E1,-8.018348694E0
3.746430681E1,-3.449851990E0,-1.043450165E1,-1.074796104E1
3.748457645E1,-8.787640929E-1,-1.133420277E1,-9.043074608E0
3.750484608E1,-1.161117196E0,-1.228714466E1,-4.879563808E0
3.752511572E1,-3.373281717E0,-1.069531918E1,5.188237667E0
3.754538541E1,-3.660420418E0,-7.688138962E0,3.284747362E0
3.756565504E1,9.194421172E-1,-8.018348694E0,-1.704886079E0
3.758592473E1,1.185045362E0,-7.336394310E0,-2.140978098E0
3.760619436E1,-1.610967875E0,-6.854838848E0,-1.776670814E-1
3.762646400E1,-2.940180779E0,-6.926623344E0,-3.068794906E-1
3.764673369E1,-4.369294167E0,-7.362715244E0,-1.121037364E0
3.766700332E1,-5.331807137E0,-9.873982430E0,-2.196012974E0
3.768727296E1,-4.968098164E0,-1.097767162E1,-3.098107100E0
3.770754265E1,-4.934000492E0,-9.436096191E0,-2.736790895E0
3.772781228E1,-6.007181168E0,-7.987242222E0,-2.039881229E0
3.774808192E1,-7.287939548E0,-7.511070251E0,-2.325225353E0
3.776835160E1,-6.528816700E0,-7.688138962E0,-3.069393158E0
3.778862124E1,-3.748954773E0,-8.332406998E0,-3.364308596E0
3.780889087E1,-1.941775560E0,-9.320642471E0,-2.593221426E0
3.782916051E1,-1.570289850E0,-1.040578747E1,-1.171286702E0
3.784943014E1,-3.586242914E0,-1.121216869E1,-3.762713671E-1
3.786969983E1,-4.987240791E0,-1.217707443E1,-6.520441920E-2
3.788996947E1,-7.838288784E0,-1.401595879E1,-1.812563181E0
3.791023910E1,-7.713861942E0,-1.323051453E1,-4.240679741E0
3.793050874E1,-7.807182312E0,-9.560523033E0,-2.499901533E0
3.795077837E1,-5.958726406E0,-1.048714352E1,-4.600201547E-1
3.797104806E1,-3.703491211E0,-1.029751205E1,-7.926225066E-1
3.799131764E1,-2.873181820E0,-1.043450165E1,-1.159322619E0
3.801158733E1,-3.435495138E0,-1.285484123E1,-3.043072224E0
3.803185697E1,-2.822334290E0,-1.411645699E1,-5.717649937E0
3.805225697E1,-1.132403374E0,-1.282134151E1,-6.383452415E0
3.807239629E1,-8.811569214E-1,-1.028315544E1,-3.771088600E0
3.809266593E1,-1.015154958E0,-7.905886173E0,-1.714457393E0
3.811293556E1,-1.951346874E0,-6.498308182E0,-1.726421595E0
3.813320525E1,-3.313461065E0,-6.297310829E0,-2.612364054E0
3.815360525E1,-4.517649174E0,-6.993622303E0,-3.235096216E0
3.817374447E1,-4.926821709E0,-7.977670670E0,-3.345165968E0
3.819401416E1,-4.182653904E0,-8.066205025E0,-3.059821844E0
3.821428384E1,-3.265604734E0,-7.695317745E0,-2.949752092E0
3.823455348E1,-3.153141975E0,-7.429714203E0,-3.223132133E0
3.825495348E1,-2.923431158E0,-7.451249599E0,-3.196810961E0
3.827509280E1,-3.071786165E0,-7.762316704E0,-2.708076954E0
3.829536244E1,-2.913859844E0,-8.542975426E0,-2.598007202E0
3.831563207E1,-2.664407969E0,-9.448060036E0,-2.825325251E0
3.833590171E1,-2.123630047E0,-9.644271851E0,-2.791825771E0
3.835630171E1,-1.354935765E0,-9.318249702E0,-2.272583246E0
3.837644103E1,-8.907282352E-1,-9.234500885E0,-1.324427366E0
3.839671072E1,-7.513462901E-1,-9.349356651E0,-2.949153781E-1
3.841698035E1,-6.532405615E-1,-9.596415520E0,2.703889608E-1
3.843724999E1,-5.192425251E-1,-1.031426239E1,1.211366415E0
3.845751968E1,-1.374078393E0,-1.149272728E1,2.733799934E0
3.847778931E1,-2.983251572E0,-1.138445187E1,5.702694416E0
3.849805895E1,-6.686742783E0,-1.069531918E1,7.654041290E0
3.851832863E1,-8.774480820E0,-9.203393936E0,1.965105653E0
3.853859827E1,-1.028315544E1,-8.221738815E0,-1.570888042E0
3.855886790E1,-9.071190834E0,-7.177869797E0,-2.196012974E0
3.857913759E1,-6.344569206E0,-6.790232658E0,-2.464009047E0
3.859940723E1,-4.637290478E0,-8.385048866E0,-4.417748928E0
3.861967692E1,-4.019941807E0,-1.506700611E1,-6.816553593E0
3.863994655E1,-4.082155228E0,-1.977189445E1,-5.325226784E0
3.866021619E1,-2.310270309E0,-1.136052418E1,3.032902718E0
3.868048587E1,6.705885530E-1,-4.618745804E0,5.819942951E0
3.870075556E1,3.141177893E0,-8.140382767E0,8.829515576E-1
3.872102520E1,3.869194269E0,-1.127438164E1,-3.795016766E0
3.874129483E1,3.381058455E0,-1.021137047E1,-4.470390797E0
3.876156452E1,1.415354609E0,-9.656235695E0,-3.881158352E0
3.878183416E1,-1.419542074E0,-1.053499985E1,-3.132204771E0
3.880210384E1,-4.211368084E0,-1.042971611E1,-2.619542599E0
3.882237348E1,-7.460222721E0,-8.810971260E0,-2.231905222E0
3.884264317E1,-1.080479050E1,-7.232904434E0,-1.458425403E0
3.886291280E1,-1.229910851E1,-6.409773827E0,2.225325108E-1
3.888318249E1,-8.932407379E0,-7.127620220E0,-7.998009920E-1
3.890345212E1,-4.771288395E0,-7.580461979E0,-4.566103935E0
3.892372181E1,-7.274180651E-1,-8.712865829E0,-6.224927902E0
3.894399145E1,2.023131609E0,-9.546165466E0,-3.340380430E0
3.896426113E1,6.299105883E-1,-9.057432175E0,6.867401004E-1
3.898452681E1,-3.696312666E0,-8.365905762E0,3.804588020E-1
3.900476192E1,-4.800002098E0,-8.787042618E0,-8.189435601E-1
3.902507067E1,-5.181059361E0,-8.406583786E0,-9.385846853E-1
3.904534025E1,-5.372485161E0,-8.377870560E0,1.052841991E-1
3.906560983E1,-4.744967461E0,-9.462417603E0,1.507478207E-1
3.908587942E1,-3.282354355E0,-9.114859581E0,-3.212364316E-1
3.910614900E1,-1.862812400E0,-7.805387497E0,-5.748756528E-1
3.912641863E1,-1.010369420E0,-6.373881340E0,-4.241278172E-1
3.914668822E1,-2.446661234E0,-6.546164513E0,-6.131607890E-1
3.916695785E1,-3.705883980E0,-5.782256126E0,-1.432104349E0
3.918722749E1,-4.328616142E0,-5.913861275E0,-1.948953986E0
3.920749712E1,-2.921038151E0,-6.495915413E0,-2.377867460E0
3.922776681E1,-2.118844509E0,-7.051050186E0,-2.145763636E0
3.924803645E1,-2.719442844E0,-8.385048866E0,-2.006381750E0
3.926830613E1,-4.098905087E0,-8.015955925E0,-1.604387641E0
3.928857572E1,-6.205785751E0,-7.707281590E0,-1.252642632E0
3.930884540E1,-8.659625053E0,-7.771887779E0,-5.054838061E-1
3.932911504E1,-9.263215065E0,-8.464012146E0,3.924229145E-1
3.934938473E1,-7.187440872E0,-1.169133186E1,8.446664214E-1
3.936965436E1,-3.861417532E0,-1.503111362E1,1.026520967E0
3.938992405E1,-1.722832322E-1,-1.505504227E1,6.580262184E-1
3.941019369E1,-2.798406124E0,-1.950569153E1,-3.164508045E-1
3.943046337E1,-2.678765059E0,-2.051366806E1,-9.744769931E-1
3.945073306E1,-2.109273195E0,-1.517468262E1,-8.644071817E-1
3.947100270E1,-2.887538671E0,-1.387238884E1,-1.939382792E0
3.949127238E1,-4.776073933E0,-1.158604717E1,-1.570888042E0
3.951154202E1,-5.927619934E0,-8.825327873E0,5.264209956E-2
3.953181166E1,-6.028716564E0,-7.881958008E0,1.483550072E-1
3.955220020E1,-5.367699623E0,-7.307680130E0,4.067798555E-1
3.957235103E1,-3.059821844E0,-6.873981476E0,7.872386575E-1
3.959262072E1,-1.412363529E0,-6.275775433E0,4.402793646E-1
3.961289040E1,7.178467698E-3,-5.631507874E0,1.004985496E-1
3.963316004E1,1.012762189E0,-5.123631477E0,-1.872383654E-1
3.965356004E1,1.743171334E0,-4.944169998E0,-4.025924206E-1
3.967369936E1,1.965703845E0,-4.881956577E0,-3.667000830E-1
3.969396905E1,1.810170293E0,-4.999204636E0,-2.087737769E-1
3.971423869E1,1.580459356E0,-4.781457901E0,-2.709871531E-1
3.973450837E1,9.337990284E-1,-4.377070904E0,-8.434699476E-2
3.975490837E1,5.742774159E-2,-4.118047714E0,4.809573591E-1
3.977504770E1,-1.376471281E0,-4.659423828E0,1.390828133E0
3.979531738E1,-3.917050600E0,-7.051050186E0,2.329412937E0
3.981558702E1,-8.044071198E0,-1.114038372E1,2.219342947E0
3.983585671E1,-1.085743237E1,-1.108056355E1,-2.502294302E0
3.985625671E1,-1.102732277E1,-7.201797962E0,-2.552543640E0
3.987639603E1,-9.143573761E0,-6.352345943E0,9.236295223E-1
3.989666567E1,-7.472187042E0,-9.023932457E0,1.886142492E0
3.991693535E1,-5.583053589E0,-1.535414505E1,2.252842426E0
3.993720504E1,9.571290575E-3,-1.870589066E1,8.303094506E-1
3.995760504E1,4.621138573E0,-1.610369682E1,1.674975902E-1
3.997774436E1,4.182653904E0,-1.211007500E1,-9.768698215E-1
3.999801400E1,-5.475376606E0,-2.127997017E1,-3.893122435E0
4.001828369E1,-1.170030499E1,-2.422493553E1,-3.043072224E0
4.003855332E1,-1.229910851E1,-3.095714331E0,1.316650629E0
4.005882301E1,-8.365307808E0,1.483550072E-1,7.106683254E-1
4.007909264E1,-6.540780544E0,-7.654639721E0,-1.891526341E0
4.009936233E1,-4.017549038E0,-1.240199947E1,-1.062831974E1
4.011963197E1,1.063011408E0,-1.086042404E1,-1.585484314E1
4.013990166E1,1.365105271E0,-1.086281681E1,-9.761520386E0
4.016030166E1,-1.448255897E0,-9.677771568E0,1.649253011E0
4.018044098E1,-9.792028427E0,-8.660223007E0,8.456234932E0
4.020071061E1,-5.532804012E0,-8.212167740E0,2.386840582E0
4.022098030E1,-2.752942562E0,-7.855636597E0,-1.860419631E0
4.024124994E1,-3.524029493E0,-7.127620220E0,-2.310868502E0
4.026151962E1,-4.615755081E0,-6.529414654E0,-5.940182209E-1
4.028178926E1,-5.829514027E0,-6.428916454E0,-2.213360928E-2
4.030205895E1,-6.770491600E0,-6.321238995E0,-5.413761139E-1
4.032232858E1,-7.520043373E0,-5.581258774E0,-6.610172391E-1
4.034259827E1,-7.268796921E0,-4.633102894E0,8.614161611E-2
4.036286790E1,-5.951548100E0,-4.477569580E0,7.345965505E-1
4.038313754E1,-4.218546391E0,-5.849255085E0,-2.087737769E-1
4.040340723E1,-2.815155745E0,-6.979265213E0,-1.745564103E0
4.042367686E1,-2.142772675E0,-6.909873486E0,-2.468794823E0
4.044394655E1,-2.181057930E0,-5.502295494E0,-2.739183664E0
4.046421619E1,-2.935395241E0,-4.680959225E0,-2.545365095E0
4.048448587E1,-4.216153622E0,-4.635495663E0,-2.370688915E0
4.050475551E1,-7.199405193E0,-7.084549427E0,-2.265404940E0
4.052502520E1,-1.018265629E1,-9.538987160E0,-5.174478889E-1
4.054529483E1,-1.045304585E1,-1.159801102E1,2.707478762E0
4.056556447E1,-8.463413239E0,-1.427916908E1,4.527220249E0
4.058583416E1,-6.882954121E0,-1.443470287E1,1.709073544E0
4.060610379E1,-6.490531445E0,-1.906541252E1,-1.546959877E0
4.062637348E1,-2.851048231E0,-2.447139740E1,-1.029511929E0
4.064664311E1,5.629115105E-1,-1.604866219E1,-1.082752272E-1
4.066691280E1,-1.089332461E0,-1.235653591E1,-9.625129104E-1
4.068718244E1,-6.397211552E0,-9.964909554E0,-9.912267923E-1
4.070745212E1,-9.071190834E0,-8.834898949E0,-5.006981492E-1
4.072772176E1,-8.774480820E0,-8.090133667E0,-2.213360928E-2
4.074799140E1,-5.815157413E0,-8.140382767E0,8.973084688E-1
4.076826108E1,-3.320639610E0,-7.712067604E0,9.427721500E-1
4.078853072E1,-1.984846354E0,-6.976872444E0,7.082754970E-1
4.080880035E1,-8.979067206E-1,-6.352345943E0,4.354937077E-1
4.082907004E1,9.332008660E-2,-5.660222054E0,7.178467698E-3
4.084933962E1,1.118046403E0,-5.267798901E0,-1.034895778E-1
4.086960936E1,1.702493310E0,-4.860421181E0,1.890329868E-1
4.088987900E1,1.640279889E0,-4.365106583E0,3.541377485E-1
4.091014863E1,1.106082320E0,-4.158725739E0,-2.638086975E-1
4.093041832E1,6.681957245E-1,-4.243072987E0,-1.161715388E0
4.095081832E1,-2.081755698E-1,-3.974478483E0,-1.630708575E0
4.097095765E1,-2.630908489E0,-4.003192425E0,-9.696913958E-1
4.099122728E1,-5.985645771E0,-7.108478069E0,-1.992024779E-1
4.101149697E1,-8.494520187E0,-1.170329571E1,1.316052526E-1
4.103177452E1,-8.776873589E0,-9.952945709E0,1.151545882E0
4.105211337E1,-9.617352486E0,-5.263013363E0,2.616551638E0
4.107230473E1,-1.026640511E1,-4.697709084E0,2.707478762E0
4.109257468E1,-1.003131104E1,-7.491927624E0,9.810572863E-1
4.111284452E1,-8.549555779E0,-1.408295727E1,8.901300430E-1
4.113311410E1,-3.811168194E0,-1.667378616E1,-3.972085476E0
4.115351426E1,-1.321436286E0,-1.632862091E1,-3.589233875E0
