"Time (s)","Acceleration x (m/s^2)","Acceleration y (m/s^2)","Acceleration z (m/s^2)"
1.543495800E-2,-2.474694014E0,2.947905779E0,9.019762993E0
3.573422900E-2,-2.519596100E0,2.911090612E0,9.019288063E0
5.584735400E-2,-2.563695192E0,2.833061457E0,9.031700134E0
7.611771800E-2,-2.610441923E0,2.730186224E0,9.049976349E0
9.638797900E-2,-2.678249359E0,2.622154951E0,9.062100410E0
1.166583960E-1,-2.777953863E0,2.497409582E0,9.067320824E0
1.369287600E-1,-2.904274464E0,2.345844984E0,9.068218231E0
1.571991770E-1,-3.004817486E0,2.163730621E0,9.080733299E0
1.774696460E-1,-3.025812149E0,1.951241851E0,9.121815681E0
1.977400100E-1,-3.022672415E0,1.701263309E0,9.172760963E0
2.180105310E-1,-3.088064909E0,1.386464477E0,9.203908920E0
2.382810000E-1,-3.222037077E0,9.642660022E-1,9.211897850E0
2.585515210E-1,-3.325543880E0,4.971559942E-1,9.212164879E0
2.788220410E-1,-3.394546032E0,1.084598228E-1,9.199765205E0
2.990925100E-1,-3.460075378E0,-1.563607901E-1,9.174629211E0
3.193629790E-1,-3.582947254E0,-4.144507349E-1,9.119271278E0
3.396335520E-1,-3.817211628E0,-7.837337255E-1,8.999168396E0
3.599040730E-1,-4.193223476E0,-1.308019638E0,8.767915726E0
3.801745410E-1,-4.695621014E0,-1.973149657E0,8.380227089E0
4.004450620E-1,-5.266412258E0,-2.705605268E0,7.817606926E0
4.207156350E-1,-5.771733761E0,-3.371382713E0,7.175740719E0
4.411156350E-1,-6.195067406E0,-3.890654802E0,6.531029224E0
4.612566770E-1,-6.573177338E0,-4.288802624E0,5.879616737E0
4.815271980E-1,-6.957532406E0,-4.629105091E0,5.131717205E0
5.017977180E-1,-7.286164761E0,-4.878419876E0,4.391265869E0
5.220683430E-1,-7.598382950E0,-4.994201660E0,3.673267841E0
5.424683430E-1,-7.886607170E0,-4.966119289E0,3.051143169E0
5.626094370E-1,-8.167999268E0,-4.794363022E0,2.543278694E0
5.828800100E-1,-8.445602417E0,-4.524757862E0,2.090154886E0
6.031505830E-1,-8.685411453E0,-4.227879047E0,1.690878630E0
6.234211560E-1,-8.887883186E0,-3.919912815E0,1.345438480E0
6.438211560E-1,-9.068589211E0,-3.593344212E0,1.009424567E0
6.639623020E-1,-9.229161263E0,-3.239639759E0,7.054811716E-1
6.842328750E-1,-9.376890182E0,-2.838069916E0,4.355228841E-1
7.045034480E-1,-9.489825249E0,-2.459927559E0,2.497416586E-1
7.247740210E-1,-9.556924820E0,-2.196193695E0,1.109270677E-1
7.451740210E-1,-9.595925331E0,-2.021699429E0,3.666524962E-2
7.653152180E-1,-9.623142242E0,-1.888173580E0,1.770946011E-2
7.855857910E-1,-9.644519806E0,-1.775830746E0,6.329397205E-3
8.058564160E-1,-9.671821594E0,-1.619805455E0,-4.989106208E-2
8.261269890E-1,-9.696065903E0,-1.466334343E0,-8.089538664E-2
8.463976140E-1,-9.712364197E0,-1.356389523E0,-2.368909121E-2
8.666681870E-1,-9.715620041E0,-1.331906199E0,5.600229278E-2
8.869388120E-1,-9.693496704E0,-1.484413385E0,5.504642427E-2
9.072094370E-1,-9.617503166E0,-1.916694999E0,-1.752343774E-2
9.274800620E-1,-9.470924377E0,-2.543943405E0,-1.826940291E-2
9.477506870E-1,-9.242142677E0,-3.278699636E0,-5.759834871E-2
9.680213120E-1,-8.919333458E0,-4.075340271E0,-8.648779243E-2
9.882919370E-1,-8.586145401E0,-4.737742424E0,-4.777631909E-2
1.008562562E0,-8.399580956E0,-5.060797215E0,-7.586042583E-2
1.028833239E0,-8.395297050E0,-5.064142704E0,-2.093628347E-1
1.049103864E0,-8.394215584E0,-5.048525810E0,-4.689657390E-1
1.069374541E0,-8.497385979E0,-4.853127956E0,-6.418535709E-1
1.089774541E0,-8.626879692E0,-4.609005451E0,-7.102164626E-1
1.109915843E0,-8.697920799E0,-4.475013256E0,-7.005743384E-1
1.130186468E0,-8.751271248E0,-4.362593651E0,-7.439224124E-1
1.150457146E0,-8.746796608E0,-4.391658783E0,-6.142292619E-1
1.170727823E0,-8.568904877E0,-4.736485958E0,-5.567388535E-1
1.190998448E0,-8.072199821E0,-5.478627205E0,-9.973018765E-1
1.211269229E0,-7.362150669E0,-6.330565453E0,-1.375888944E0
1.231539906E0,-6.501760483E0,-7.185962677E0,-1.503141642E0
1.251810531E0,-5.599728584E0,-7.927098274E0,-1.405179620E0
1.272081312E0,-5.071417332E0,-8.298235893E0,-1.261114240E0
1.292351989E0,-4.828429222E0,-8.470486641E0,-1.052384496E0
1.312622718E0,-4.676775455E0,-8.574913025E0,-8.769403100E-1
1.332893448E0,-4.557547569E0,-8.643676758E0,-8.282568455E-1
1.353164125E0,-4.565998554E0,-8.634820938E0,-8.728724122E-1
1.373434854E0,-4.580526829E0,-8.599843979E0,-1.109879494E0
1.393705583E0,-4.620928288E0,-8.534363747E0,-1.407851696E0
1.413976312E0,-4.714254379E0,-8.474654198E0,-1.458225965E0
1.434247093E0,-4.729757309E0,-8.487238884E0,-1.329115868E0
1.454517823E0,-4.724838257E0,-8.497587204E0,-1.279569387E0
1.474788552E0,-4.494892597E0,-8.621596336E0,-1.278433800E0
1.495059333E0,-4.217086315E0,-8.760162354E0,-1.283022523E0
1.515330062E0,-3.913201332E0,-8.901748657E0,-1.271265388E0
1.535600843E0,-3.773544550E0,-8.965106964E0,-1.248039007E0
1.555871625E0,-3.820983410E0,-8.941467285E0,-1.273035049E0
1.576142406E0,-3.913824320E0,-8.890233040E0,-1.347639918E0
1.596413187E0,-3.936488390E0,-8.905541420E0,-1.168675423E0
1.616683968E0,-3.939005375E0,-8.914253235E0,-1.091199517E0
1.636954750E0,-3.933049917E0,-8.924799919E0,-1.024425864E0
1.657225531E0,-3.968054533E0,-8.915490150E0,-9.690112472E-1
1.677496312E0,-4.011878014E0,-8.892358780E0,-1.000586510E0
1.697767093E0,-3.910891056E0,-8.930138588E0,-1.062054038E0
1.718037927E0,-3.643345833E0,-9.017040253E0,-1.260712862E0
1.738308708E0,-3.444299221E0,-9.054271698E0,-1.525570393E0
1.758579541E0,-3.191739082E0,-9.116138458E0,-1.696817636E0
1.778850375E0,-2.590957403E0,-9.258682251E0,-1.932388544E0
1.799121156E0,-1.977249861E0,-9.375334740E0,-2.089011908E0
1.819391989E0,-1.507282257E0,-9.482259750E0,-1.996307969E0
1.839791989E0,-9.898411036E-1,-9.555531502E0,-1.970381856E0
1.859933656E0,-5.278608203E-1,-9.583190918E0,-2.013508081E0
1.880204489E0,-1.613920331E-1,-9.573391914E0,-2.120023727E0
1.900604489E0,2.239247710E-1,-9.557951927E0,-2.183072567E0
1.920746156E0,6.100342274E-1,-9.548232079E0,-2.151628017E0
1.941146156E0,9.312285185E-1,-9.537592888E0,-2.082671881E0
1.961287875E0,1.142283440E0,-9.516647339E0,-2.073403597E0
1.981558656E0,1.251624227E0,-9.498188972E0,-2.094811201E0
2.001829593E0,1.281312943E0,-9.482325554E0,-2.148051023E0
2.022100427E0,1.258377910E0,-9.467034340E0,-2.227581978E0
2.042500427E0,1.216127992E0,-9.449005127E0,-2.325450420E0
2.062642146E0,1.181298733E0,-9.425492287E0,-2.436186314E0
2.082913031E0,1.151645541E0,-9.422451973E0,-2.462009668E0
2.103183916E0,1.161539793E0,-9.441916466E0,-2.381476879E0
2.123454750E0,1.181979895E0,-9.465380669E0,-2.275933266E0
2.143854750E0,1.188645005E0,-9.493110657E0,-2.153684378E0
2.163996521E0,1.177860498E0,-9.525444984E0,-2.012196541E0
2.184267406E0,1.135809779E0,-9.563323021E0,-1.850178003E0
2.204538291E0,1.059470177E0,-9.601487160E0,-1.690962315E0
2.224809177E0,9.629172683E-1,-9.634900093E0,-1.553025723E0
2.245209177E0,8.187370896E-1,-9.658329964E0,-1.488861680E0
2.265350948E0,6.540532708E-1,-9.643504143E0,-1.656933904E0
2.285621833E0,5.231963992E-1,-9.637420654E0,-1.736884475E0
2.305892718E0,4.668354094E-1,-9.652536392E0,-1.667637229E0
2.326163604E0,4.589271247E-1,-9.662469864E0,-1.611353040E0
2.346563604E0,4.687600732E-1,-9.665040016E0,-1.593000174E0
2.366705427E0,4.753886461E-1,-9.666870117E0,-1.579883337E0
2.386976312E0,4.784762263E-1,-9.669914246E0,-1.560193777E0
2.407247198E0,4.737619758E-1,-9.673589706E0,-1.538702607E0
2.427518135E0,4.649987519E-1,-9.677509308E0,-1.516567945E0
2.447789021E0,4.522204697E-1,-9.680772781E0,-1.499509811E0
2.468059958E0,4.391772449E-1,-9.684342384E0,-1.480209589E0
2.488330843E0,4.296715558E-1,-9.689363480E0,-1.449821591E0
2.508601781E0,4.266987443E-1,-9.694864273E0,-1.413484573E0
2.528872666E0,4.305739701E-1,-9.700724602E0,-1.371474624E0
2.549143604E0,4.351441264E-1,-9.707978249E0,-1.317641854E0
2.569414541E0,4.288606644E-1,-9.717458725E0,-1.247974396E0
2.589685427E0,3.921154439E-1,-9.730292320E0,-1.156728506E0
2.609956364E0,3.087078333E-1,-9.747118950E0,-1.033811569E0
2.630227302E0,1.705631316E-1,-9.766266823E0,-8.725490570E-1
2.650498187E0,-3.169331700E-2,-9.783266068E0,-6.760903597E-1
2.670769073E0,-3.097791970E-1,-9.791108131E0,-4.567445517E-1
2.691040062E0,-6.520453095E-1,-9.782060623E0,-2.377050668E-1
2.711311000E0,-1.022441983E0,-9.753160477E0,-2.928461879E-2
2.731581885E0,-1.372096539E0,-9.708335876E0,1.896106303E-1
2.751852823E0,-1.633486390E0,-9.661225319E0,4.035306573E-1
2.772252823E0,-1.813025355E0,-9.619352341E0,5.927780271E-1
2.792394698E0,-1.895183444E0,-9.594004631E0,7.305852175E-1
2.812665635E0,-1.906892538E0,-9.586258888E0,7.986134887E-1
2.832936521E0,-1.890385628E0,-9.589561462E0,7.981970906E-1
2.853207458E0,-1.876033306E0,-9.596467972E0,7.474536896E-1
2.873478396E0,-1.881227732E0,-9.601806641E0,6.608141065E-1
2.893749333E0,-1.902516127E0,-9.604429245E0,5.529407263E-1
2.914020271E0,-1.930956721E0,-9.604740143E0,4.367499053E-1
2.934291208E0,-1.952710509E0,-9.604344368E0,3.374499977E-1
2.954562146E0,-1.958292127E0,-9.605654716E0,2.586280107E-1
2.974833031E0,-1.945767283E0,-9.610007286E0,1.793096066E-1
2.994595166E0,-1.917542219E0,-9.616820335E0,1.008942723E-1
3.014995166E0,-1.881239414E0,-9.624505043E0,1.547040138E-2
3.035395166E0,-1.862052202E0,-9.627821922E0,-9.053155035E-2
3.055795166E0,-1.863419414E0,-9.625717163E0,-2.088301927E-1
3.076191052E0,-1.900593758E0,-9.614481926E0,-3.462144732E-1
3.096461989E0,-1.952261090E0,-9.597132683E0,-5.040930510E-1
3.116731677E0,-1.983968854E0,-9.582739830E0,-6.366760135E-1
3.137002198E0,-1.989663959E0,-9.578474045E0,-6.815124154E-1
3.157272823E0,-1.963525057E0,-9.585563660E0,-6.572073698E-1
3.177543448E0,-1.917144656E0,-9.597771645E0,-6.146051884E-1
3.197814177E0,-1.872063756E0,-9.608869553E0,-5.791403055E-1
3.218084906E0,-1.839411974E0,-9.615522385E0,-5.733118653E-1
3.238355739E0,-1.835515261E0,-9.612564087E0,-6.323649883E-1
3.258626573E0,-1.857544422E0,-9.601361275E0,-7.306110859E-1
3.278897406E0,-1.929246426E0,-9.580874443E0,-8.094721437E-1
3.299168239E0,-2.050165892E0,-9.549426079E0,-8.807250857E-1
3.319439125E0,-2.261360407E0,-9.496714592E0,-9.322273731E-1
3.339710010E0,-2.618705273E0,-9.415906906E0,-8.083703518E-1
3.359980896E0,-2.896989107E0,-9.350729942E0,-5.845465064E-1
3.380251833E0,-2.978267670E0,-9.338994026E0,-2.889712155E-1
3.400522718E0,-2.932124615E0,-9.357431412E0,-1.072523892E-1
3.420793656E0,-2.779079199E0,-9.403654099E0,-1.356809884E-1
3.441064541E0,-2.580820322E0,-9.456661224E0,-2.851264477E-1
3.461335427E0,-2.392575741E0,-9.496392250E0,-5.143016577E-1
3.481606312E0,-2.245394707E0,-9.510178566E0,-8.277008533E-1
3.501877302E0,-2.195579529E0,-9.500216484E0,-1.046756864E0
3.522148187E0,-2.205281496E0,-9.489439011E0,-1.121453643E0
3.542548187E0,-2.179523230E0,-9.485845566E0,-1.199501753E0
3.562690062E0,-2.074863672E0,-9.492535591E0,-1.325552225E0
3.582960948E0,-1.931310892E0,-9.512262344E0,-1.399035335E0
3.603231885E0,-1.771633625E0,-9.538352966E0,-1.432309508E0
3.623502823E0,-1.629009366E0,-9.558238983E0,-1.468600154E0
3.643902823E0,-1.540279508E0,-9.565940857E0,-1.513509393E0
3.664044646E0,-1.529114723E0,-9.565335274E0,-1.528583407E0
3.684315531E0,-1.578971386E0,-9.563740730E0,-1.487317801E0
3.704586468E0,-1.658497214E0,-9.564145088E0,-1.395309687E0
3.724857354E0,-1.736139536E0,-9.569142342E0,-1.260047674E0
3.745257354E0,-1.793707967E0,-9.577542305E0,-1.106204152E0
3.765399177E0,-1.841050148E0,-9.585142136E0,-9.518351555E-1
3.785670114E0,-1.885542989E0,-9.590558052E0,-7.976999283E-1
3.805941000E0,-1.916882157E0,-9.595281601E0,-6.530746818E-1
3.826211937E0,-1.953722715E0,-9.596435547E0,-5.116337538E-1
3.846482823E0,-2.022144794E0,-9.588361740E0,-3.803109229E-1
3.866753708E0,-2.118212461E0,-9.571460724E0,-2.658847868E-1
3.887024593E0,-2.222247839E0,-9.550155640E0,-1.628801078E-1
3.907295479E0,-2.318771839E0,-9.528275490E0,-7.513469458E-2
3.927566416E0,-2.426720619E0,-9.501628876E0,2.163309604E-2
3.947837302E0,-2.554413557E0,-9.466015816E0,1.997432113E-1
3.968108187E0,-2.714723110E0,-9.411928177E0,4.650546014E-1
3.988379073E0,-2.989376783E0,-9.310013771E0,7.467565536E-1
4.008649958E0,-3.337652922E0,-9.172604561E0,9.454089403E-1
4.028920843E0,-3.597029209E0,-9.053404808E0,1.125893831E0
4.049191781E0,-3.830408812E0,-8.941101074E0,1.247027278E0
4.069462666E0,-4.029355049E0,-8.848378181E0,1.280974746E0
4.089733552E0,-4.158721447E0,-8.786754608E0,1.291653514E0
4.110004437E0,-4.224353313E0,-8.747797012E0,1.342115402E0
4.130275323E0,-4.232349396E0,-8.736346245E0,1.390629411E0
4.150506885E0,-4.196120739E0,-8.747507095E0,1.429712057E0
4.170817041E0,-4.139226437E0,-8.770150185E0,1.456596732E0
4.191087979E0,-4.067895889E0,-8.802251816E0,1.463887930E0
4.211358864E0,-3.978992462E0,-8.844970703E0,1.450689077E0
4.231629750E0,-3.864976406E0,-8.901701927E0,1.411391854E0
4.251900635E0,-3.732671499E0,-8.968114853E0,1.345538735E0
4.272171521E0,-3.579035044E0,-9.044402122E0,1.248874307E0
4.292442406E0,-3.394039869E0,-9.133037567E0,1.112886548E0
4.312713239E0,-3.171746492E0,-9.232215881E0,9.362684488E-1
4.332984125E0,-2.900251150E0,-9.338611603E0,7.411168218E-1
4.353255010E0,-2.590381861E0,-9.442038536E0,5.551618338E-1
4.373525843E0,-2.301648140E0,-9.524976730E0,3.842307031E-1
4.393796729E0,-2.100327015E0,-9.577508926E0,1.741559058E-1
4.414067614E0,-2.035233974E0,-9.592398643E0,-1.187851056E-1
4.434338448E0,-2.053608418E0,-9.579684258E0,-4.274792969E-1
4.454609333E0,-2.122403383E0,-9.550840378E0,-6.687573195E-1
4.474880166E0,-2.196455479E0,-9.519231796E0,-8.545233011E-1
4.495151052E0,-2.248973608E0,-9.497794151E0,-9.510099888E-1
4.515421885E0,-2.259959936E0,-9.489810944E0,-1.003228664E0
4.535692771E0,-2.264282227E0,-9.475640297E0,-1.120560527E0
4.555963604E0,-2.295599699E0,-9.448647499E0,-1.274231911E0
4.576234489E0,-2.360080242E0,-9.415730476E0,-1.394431949E0
4.596505323E0,-2.439275742E0,-9.386763573E0,-1.452231169E0
4.616776208E0,-2.546336889E0,-9.352628708E0,-1.488248229E0
4.637047041E0,-2.704555511E0,-9.327960968E0,-1.358272076E0
4.657317875E0,-2.804942369E0,-9.321279526E0,-1.190141201E0
4.677588708E0,-2.892517805E0,-9.317305565E0,-9.957656264E-1
4.697859541E0,-2.848721266E0,-9.344378471E0,-8.589262962E-1
4.718130375E0,-2.744436502E0,-9.369989395E0,-9.174683690E-1
4.738401208E0,-2.648000717E0,-9.384629250E0,-1.042699695E0
4.758672041E0,-2.517598152E0,-9.387495995E0,-1.306519985E0
4.778942875E0,-2.360252142E0,-9.371809006E0,-1.663969994E0
4.799213708E0,-2.224495649E0,-9.367872238E0,-1.861444950E0
4.819484541E0,-2.118161440E0,-9.389886856E0,-1.874512672E0
4.839755375E0,-1.985675097E0,-9.418064117E0,-1.878178239E0
4.860026208E0,-1.861563683E0,-9.440886497E0,-1.890667200E0
4.880296937E0,-1.773229003E0,-9.455245018E0,-1.903783441E0
4.900567823E0,-1.722896338E0,-9.463646889E0,-1.908245564E0
4.920838656E0,-1.711666465E0,-9.472452164E0,-1.874364495E0
4.941238656E0,-1.751546383E0,-9.481655121E0,-1.789046764E0
4.961380271E0,-1.842270732E0,-9.486368179E0,-1.668903470E0
4.981651104E0,-1.957628846E0,-9.489000320E0,-1.515572190E0
5.001921885E0,-2.073712826E0,-9.491806030E0,-1.332565665E0
5.022192718E0,-2.180144787E0,-9.495489120E0,-1.119397879E0
5.042592718E0,-2.266963005E0,-9.498888016E0,-8.957665563E-1
5.062734333E0,-2.343793869E0,-9.497809410E0,-6.845767498E-1
5.083005114E0,-2.403777838E0,-9.494917870E0,-4.886493385E-1
5.103275948E0,-2.449815750E0,-9.489727020E0,-3.374218047E-1
5.123546729E0,-2.504449606E0,-9.478632927E0,-2.315809280E-1
5.143946729E0,-2.587538004E0,-9.457756042E0,-1.609198153E-1
5.164088343E0,-2.705880165E0,-9.425224304E0,-1.172237694E-1
5.184359125E0,-2.853441000E0,-9.382065773E0,-7.143016160E-2
5.204629906E0,-3.014210701E0,-9.331848145E0,3.910979629E-2
5.224900687E0,-3.170661926E0,-9.277211189E0,2.250474691E-1
5.245300687E0,-3.384950161E0,-9.193762779E0,4.326766729E-1
5.265442250E0,-3.678391457E0,-9.070349693E0,6.071223021E-1
5.285713031E0,-3.933891058E0,-8.952417374E0,7.410169840E-1
5.305983812E0,-4.125526905E0,-8.857850075E0,8.300068974E-1
5.326254593E0,-4.241878986E0,-8.797607422E0,8.825785518E-1
5.346654593E0,-4.300569534E0,-8.764271736E0,9.289922714E-1
5.366796156E0,-4.311674595E0,-8.752267838E0,9.887603521E-1
5.387066885E0,-4.304267883E0,-8.748645782E0,1.051127195E0
5.407337666E0,-4.298092365E0,-8.747499466E0,1.085377455E0
5.427608448E0,-4.279238701E0,-8.756460190E0,1.087616205E0
5.447879229E0,-4.237423897E0,-8.778903961E0,1.070268273E0
5.468149958E0,-4.163188457E0,-8.819382668E0,1.027984500E0
5.488420739E0,-4.060875416E0,-8.875786781E0,9.487231970E-1
5.508691468E0,-3.941632271E0,-8.939814568E0,8.447664976E-1
5.528962250E0,-3.808063745E0,-9.007113457E0,7.355045080E-1
5.549232979E0,-3.654994249E0,-9.079374313E0,6.134943962E-1
5.569503760E0,-3.469922781E0,-9.159675598E0,4.799858630E-1
5.589774489E0,-3.245155096E0,-9.247524261E0,3.502187133E-1
5.610045218E0,-2.996209860E0,-9.334535599E0,2.440621108E-1
5.630316000E0,-2.766398668E0,-9.407177925E0,1.497725695E-1
5.650586729E0,-2.590476990E0,-9.458310127E0,1.384618320E-2
5.670857458E0,-2.512669086E0,-9.478150368E0,-1.467681825E-1
5.691128187E0,-2.527863503E0,-9.471163750E0,-2.780764401E-1
5.711398916E0,-2.556607962E0,-9.459916115E0,-3.796260655E-1
5.731669646E0,-2.572028637E0,-9.452764511E0,-4.475608170E-1
5.751940375E0,-2.569575071E0,-9.449990273E0,-5.151311159E-1
5.772211104E0,-2.571183205E0,-9.442171097E0,-6.362429261E-1
5.792481833E0,-2.627899885E0,-9.417469978E0,-7.588078976E-1
5.812752562E0,-2.774830341E0,-9.367882729E0,-8.446702957E-1
5.833023291E0,-2.963210106E0,-9.302509308E0,-9.236306548E-1
5.853294021E0,-3.214215517E0,-9.213019371E0,-9.795426726E-1
5.873564698E0,-3.498128176E0,-9.127882004E0,-7.843809724E-1
5.893835427E0,-3.623286247E0,-9.087794304E0,-6.739256978E-1
5.914106156E0,-3.727088213E0,-9.060161591E0,-4.389273822E-1
5.934376833E0,-3.804839849E0,-9.034858704E0,-2.547903955E-1
5.954647562E0,-3.740399599E0,-9.059855461E0,-3.143703043E-1
5.974918291E0,-3.570096254E0,-9.122017860E0,-4.621545076E-1
5.994797146E0,-3.390174389E0,-9.179159164E0,-6.481827497E-1
6.015197146E0,-3.176980257E0,-9.233688354E0,-9.034299254E-1
6.035597146E0,-2.925821304E0,-9.264431000E0,-1.334270358E0
6.055997146E0,-2.855157614E0,-9.254500389E0,-1.540352702E0
6.076273187E0,-2.875504255E0,-9.266482353E0,-1.426240563E0
6.096543552E0,-2.806787014E0,-9.297325134E0,-1.360910535E0
6.116814021E0,-2.648966312E0,-9.336599350E0,-1.407577991E0
6.137084541E0,-2.493953943E0,-9.370063782E0,-1.467134237E0
6.157355114E0,-2.372102737E0,-9.387660027E0,-1.554141521E0
6.177625635E0,-2.302954197E0,-9.392859459E0,-1.625110149E0
6.197896260E0,-2.299037457E0,-9.392703056E0,-1.631550193E0
6.218166833E0,-2.328909397E0,-9.389503479E0,-1.607416987E0
6.238437510E0,-2.375520229E0,-9.384107590E0,-1.570289850E0
6.258708083E0,-2.427062511E0,-9.383346558E0,-1.494172096E0
6.278978760E0,-2.487165689E0,-9.387291908E0,-1.364971519E0
6.299249385E0,-2.547075510E0,-9.393799782E0,-1.199721098E0
6.319520062E0,-2.586921453E0,-9.406064034E0,-1.002096891E0
6.339790687E0,-2.604284286E0,-9.421016693E0,-7.953199744E-1
6.360061364E0,-2.615353584E0,-9.432237625E0,-6.026790738E-1
6.380332041E0,-2.636010170E0,-9.435487747E0,-4.398150444E-1
6.400732041E0,-2.662181377E0,-9.433181763E0,-3.134834468E-1
6.420873291E0,-2.696090460E0,-9.426183701E0,-2.203121781E-1
6.441143968E0,-2.754336596E0,-9.410818100E0,-1.432576329E-1
6.461414646E0,-2.822889805E0,-9.391386986E0,-5.944249406E-2
6.481685271E0,-2.897801876E0,-9.368714333E0,1.750092581E-2
6.501955948E0,-2.977843523E0,-9.342820168E0,1.206270084E-1
6.522226573E0,-3.048026562E0,-9.318064690E0,2.314835340E-1
6.542626573E0,-3.125770807E0,-9.288367271E0,3.552241325E-1
6.562767875E0,-3.293351173E0,-9.220223427E0,5.582956076E-1
6.583038500E0,-3.590156794E0,-9.089726448E0,8.111954927E-1
6.603309177E0,-3.928225279E0,-8.925589561E0,1.035996914E0
6.623579802E0,-4.161934853E0,-8.791435242E0,1.248742938E0
6.643979802E0,-4.313289642E0,-8.700212479E0,1.368290067E0
6.664121052E0,-4.382866859E0,-8.663338661E0,1.381093740E0
6.684391677E0,-4.383760929E0,-8.663641930E0,1.376354337E0
6.704662354E0,-4.369956970E0,-8.670013428E0,1.380117893E0
6.724932927E0,-4.366568089E0,-8.673157692E0,1.371062040E0
6.745332927E0,-4.349507332E0,-8.693096161E0,1.297020078E0
6.765474229E0,-4.303499222E0,-8.729750633E0,1.200726390E0
6.785744854E0,-4.220252514E0,-8.783947945E0,1.096404910E0
6.806015479E0,-4.096764088E0,-8.854930878E0,9.884967208E-1
6.826286052E0,-3.943415403E0,-8.935335159E0,8.829780817E-1
6.846686052E0,-3.768038750E0,-9.020154953E0,7.804389596E-1
6.866827302E0,-3.575068712E0,-9.107143402E0,6.702313423E-1
6.887097875E0,-3.351952076E0,-9.200176239E0,5.399588346E-1
6.907368500E0,-3.096023083E0,-9.297261238E0,3.820544779E-1
6.927639125E0,-2.847383261E0,-9.382157326E0,1.947686523E-1
6.947909698E0,-2.652132750E0,-9.441217422E0,8.790567517E-4
6.968180323E0,-2.526716709E0,-9.473432541E0,-2.004227936E-1
6.988450896E0,-2.500794649E0,-9.472044945E0,-4.435834885E-1
7.008721468E0,-2.534369946E0,-9.448083878E0,-6.935886741E-1
7.028992093E0,-2.617550135E0,-9.407896042E0,-9.001731873E-1
7.049262718E0,-2.721945047E0,-9.362283707E0,-1.053115010E0
7.069533291E0,-2.820382357E0,-9.321084976E0,-1.154643774E0
7.089803864E0,-2.853383541E0,-9.305415154E0,-1.199102759E0
7.110074437E0,-2.791173935E0,-9.322768211E0,-1.210677266E0
7.130345062E0,-2.736472845E0,-9.336389542E0,-1.230417371E0
7.150615635E0,-2.732575893E0,-9.333953857E0,-1.257270575E0
7.170886208E0,-2.793155193E0,-9.307423592E0,-1.319289327E0
7.191156781E0,-2.879357338E0,-9.267726898E0,-1.410294890E0
7.211427302E0,-3.002370119E0,-9.222920418E0,-1.447030425E0
7.231697979E0,-3.081244469E0,-9.228443146E0,-1.229692221E0
7.251968500E0,-3.146072626E0,-9.232810974E0,-1.013813496E0
7.272239073E0,-3.183740854E0,-9.241827011E0,-7.891790867E-1
7.292509646E0,-3.144580126E0,-9.258264542E0,-7.526876330E-1
7.312780218E0,-3.078674078E0,-9.271457672E0,-8.556942940E-1
7.333050791E0,-3.022234917E0,-9.267135620E0,-1.075490952E0
7.353321364E0,-2.936426163E0,-9.243440628E0,-1.451409698E0
7.373591885E0,-2.831413507E0,-9.219628334E0,-1.775368214E0
7.393862458E0,-2.743980885E0,-9.237531662E0,-1.819053769E0
7.414133031E0,-2.634799957E0,-9.267788887E0,-1.826553702E0
7.434403604E0,-2.504843950E0,-9.293862343E0,-1.876237392E0
7.454674125E0,-2.369602442E0,-9.313768387E0,-1.951684117E0
7.474944698E0,-2.236396313E0,-9.332966805E0,-2.016095638E0
7.495215166E0,-2.126508951E0,-9.350234985E0,-2.054619551E0
7.515485791E0,-2.059111595E0,-9.364345551E0,-2.059002638E0
7.535756312E0,-2.045146465E0,-9.372612953E0,-2.035162687E0
7.556026885E0,-2.074494362E0,-9.378115654E0,-1.979344845E0
7.576297406E0,-2.129440546E0,-9.385950089E0,-1.881440163E0
7.596567927E0,-2.196423054E0,-9.397951126E0,-1.739150763E0
7.616838500E0,-2.255483866E0,-9.412491798E0,-1.577396512E0
7.637109021E0,-2.303272247E0,-9.426328659E0,-1.417616606E0
7.657379541E0,-2.359205484E0,-9.436766624E0,-1.245777249E0
7.677650062E0,-2.425844431E0,-9.445101738E0,-1.037179112E0
7.697920583E0,-2.506628036E0,-9.447249413E0,-7.979238629E-1
7.718191156E0,-2.570869923E0,-9.446814537E0,-5.645439625E-1
7.738461677E0,-2.610502005E0,-9.445737839E0,-3.656602800E-1
7.758732198E0,-2.655565977E0,-9.438075066E0,-2.027214915E-1
7.779002718E0,-2.708068132E0,-9.425107956E0,-6.411565840E-2
7.799273239E0,-2.778054953E0,-9.404874802E0,3.382131457E-2
7.819543760E0,-2.870073080E0,-9.376223564E0,1.396075189E-1
7.839814229E0,-2.994465590E0,-9.334662437E0,2.600515783E-1
7.860084750E0,-3.167666435E0,-9.271168709E0,4.262619913E-1
7.880355271E0,-3.419482231E0,-9.168311119E0,6.477672458E-1
7.900625791E0,-3.747953415E0,-9.017723083E0,8.966098428E-1
7.920896312E0,-4.067111015E0,-8.851803780E0,1.128971815E0
7.941166781E0,-4.294156075E0,-8.715537071E0,1.330424547E0
7.961437302E0,-4.448241234E0,-8.620683670E0,1.437830091E0
7.981707771E0,-4.533757210E0,-8.571821213E0,1.462638140E0
8.001978291E0,-4.534453392E0,-8.564443588E0,1.503140330E0
8.022248760E0,-4.515707493E0,-8.564823151E0,1.556458950E0
8.042648760E0,-4.496007442E0,-8.571208000E0,1.578198075E0
8.062789750E0,-4.447837830E0,-8.600629807E0,1.554445148E0
8.083060271E0,-4.377904415E0,-8.644859314E0,1.506901741E0
8.103330739E0,-4.285253525E0,-8.702229500E0,1.441595912E0
8.123601208E0,-4.173593998E0,-8.770984650E0,1.349571586E0
8.144001208E0,-4.053926945E0,-8.845379829E0,1.222836733E0
8.164142198E0,-3.935038090E0,-8.918990135E0,1.066522121E0
8.184412666E0,-3.808332682E0,-8.992931366E0,8.911668062E-1
8.204683135E0,-3.664777279E0,-9.068747520E0,7.054265141E-1
8.224953656E0,-3.490724325E0,-9.150371552E0,5.058996081E-1
8.245353656E0,-3.285864592E0,-9.235026360E0,2.962489426E-1
8.265494593E0,-3.089780569E0,-9.306874275E0,7.567729056E-2
8.285765062E0,-2.956446171E0,-9.349453926E0,-1.323723644E-1
8.306035531E0,-2.942649841E0,-9.349596024E0,-3.102413714E-1
8.326306000E0,-2.961393595E0,-9.333158493E0,-5.410032272E-1
8.346706000E0,-2.970245123E0,-9.311864853E0,-7.982425094E-1
8.366846937E0,-2.977513313E0,-9.295533180E0,-9.475577474E-1
8.387117406E0,-2.947432041E0,-9.302664757E0,-9.713212252E-1
8.407387823E0,-2.875559568E0,-9.322874069E0,-9.927654266E-1
8.427658291E0,-2.828876972E0,-9.335667610E0,-1.006559134E0
8.447928760E0,-2.806551218E0,-9.342697144E0,-1.003825307E0
8.468199177E0,-2.814797401E0,-9.338838577E0,-1.016560555E0
8.488469646E0,-2.845499516E0,-9.324622154E0,-1.060625792E0
8.508740062E0,-2.885751724E0,-9.298837662E0,-1.172368169E0
8.529010531E0,-2.931890249E0,-9.263848305E0,-1.324963689E0
8.549281000E0,-2.982876539E0,-9.233550072E0,-1.419300914E0
8.569551521E0,-3.005542755E0,-9.246015549E0,-1.283863783E0
8.589821885E0,-3.017102003E0,-9.269236565E0,-1.071789265E0
8.610092302E0,-3.015027285E0,-9.290748596E0,-8.729216456E-1
8.630362718E0,-2.946532011E0,-9.312252998E0,-8.776637912E-1
8.650633187E0,-2.835364580E0,-9.331894875E0,-1.023150682E0
8.670903604E0,-2.720450878E0,-9.345338821E0,-1.197574139E0
8.691174021E0,-2.596530914E0,-9.341447830E0,-1.471656799E0
8.711444385E0,-2.469386339E0,-9.325778961E0,-1.761353731E0
8.731714906E0,-2.373985052E0,-9.326565742E0,-1.884081125E0
8.751985323E0,-2.292428970E0,-9.338000298E0,-1.927925110E0
8.772255739E0,-2.202274799E0,-9.353995323E0,-1.955285430E0
8.792526104E0,-2.117851496E0,-9.371264458E0,-1.965829372E0
8.812796573E0,-2.050924301E0,-9.386241913E0,-1.965339541E0
8.833066989E0,-2.007415533E0,-9.400222778E0,-1.943318605E0
8.853337406E0,-1.998157740E0,-9.414146423E0,-1.884566426E0
8.873607823E0,-2.032485723E0,-9.425610542E0,-1.788084507E0
8.893878239E0,-2.117408752E0,-9.430895805E0,-1.656859756E0
8.914148604E0,-2.236261368E0,-9.432128906E0,-1.484747052E0
8.934419021E0,-2.364429235E0,-9.432480812E0,-1.268139958E0
8.954689437E0,-2.474006891E0,-9.431786537E0,-1.044552326E0
8.974959854E0,-2.549919844E0,-9.432678223E0,-8.323903680E-1
8.994838396E0,-2.588184118E0,-9.435760498E0,-6.618961096E-1
9.015238396E0,-2.621739864E0,-9.434809685E0,-5.303221941E-1
9.035638396E0,-2.662141085E0,-9.428765297E0,-4.263602793E-1
9.056038396E0,-2.718914270E0,-9.416075706E0,-3.397181928E-1
9.076313239E0,-2.795013428E0,-9.396321297E0,-2.597006559E-1
9.096583291E0,-2.906491041E0,-9.363767624E0,-2.062730789E-1
9.116853500E0,-3.021186590E0,-9.328429222E0,-1.524339318E-1
9.137123656E0,-3.154298782E0,-9.285429955E0,-3.985647112E-2
9.157393864E0,-3.327214956E0,-9.223452568E0,1.672093272E-1
9.177664229E0,-3.585667849E0,-9.117738724E0,4.245093465E-1
9.197934489E0,-3.884631634E0,-8.978193283E0,6.870706677E-1
9.218204802E0,-4.123751640E0,-8.849200249E0,9.255807400E-1
9.238475114E0,-4.331125736E0,-8.733155251E0,1.069466591E0
9.258745427E0,-4.464692116E0,-8.660120010E0,1.113215089E0
9.279015739E0,-4.519129276E0,-8.629118919E0,1.134095430E0
9.299286104E0,-4.519937515E0,-8.625713348E0,1.156552076E0
9.319556468E0,-4.485885143E0,-8.642426491E0,1.164338946E0
9.339826781E0,-4.448910713E0,-8.664097786E0,1.144985795E0
9.360097146E0,-4.406814098E0,-8.693426132E0,1.083846331E0
9.380367510E0,-4.347173214E0,-8.732497215E0,1.007947683E0
9.400637875E0,-4.259633064E0,-8.783483505E0,9.361194968E-1
9.420908239E0,-4.146978855E0,-8.844848633E0,8.611719608E-1
9.441308239E0,-4.012051582E0,-8.915076256E0,7.715232372E-1
9.461448916E0,-3.854039669E0,-8.992486000E0,6.722815037E-1
9.481719281E0,-3.661352396E0,-9.080406189E0,5.577654243E-1
9.501989593E0,-3.434504747E0,-9.176431656E0,4.094837010E-1
9.522260010E0,-3.183291674E0,-9.272648811E0,2.345615625E-1
9.542660010E0,-2.939349413E0,-9.355690002E0,4.105792940E-2
9.562800687E0,-2.754694223E0,-9.410547256E0,-1.537677646E-1
9.583071052E0,-2.632196665E0,-9.439841270E0,-3.623929620E-1
9.603341364E0,-2.577684879E0,-9.443262100E0,-5.922132730E-1
9.623611729E0,-2.562267303E0,-9.432442665E0,-7.963660955E-1
9.644011729E0,-2.555707455E0,-9.419768333E0,-9.522101283E-1
9.664152406E0,-2.543815851E0,-9.411170959E0,-1.062658191E0
9.684422718E0,-2.537352085E0,-9.405602455E0,-1.125550747E0
9.704693083E0,-2.552147865E0,-9.396262169E0,-1.169269204E0
9.724963396E0,-2.619778872E0,-9.364438057E0,-1.270607829E0
9.745363396E0,-2.737420082E0,-9.312429428E0,-1.398417354E0
9.765504073E0,-2.862943649E0,-9.265463829E0,-1.457776070E0
9.785774385E0,-2.943442106E0,-9.243890762E0,-1.434228778E0
9.806044698E0,-2.962329865E0,-9.261766434E0,-1.270692229E0
9.826315062E0,-2.968401432E0,-9.284846306E0,-1.072660565E0
9.846585375E0,-2.986586094E0,-9.300345421E0,-8.684874177E-1
9.866855687E0,-2.951819181E0,-9.325488091E0,-7.017252445E-1
9.887126052E0,-2.908737183E0,-9.338926315E0,-7.029207945E-1
9.907396364E0,-2.851430893E0,-9.346407890E0,-8.272820711E-1
9.927666625E0,-2.748847961E0,-9.346901894E0,-1.117882490E0
9.947936989E0,-2.594390392E0,-9.333076477E0,-1.527489543E0
9.968207302E0,-2.413421631E0,-9.340042114E0,-1.763352036E0
9.988477614E0,-2.266103029E0,-9.373735428E0,-1.779960513E0
1.000874793E1,-2.111275673E0,-9.411288261E0,-1.772159219E0
1.002901824E1,-1.965916634E0,-9.441745758E0,-1.777358770E0
1.004928850E1,-1.822298527E0,-9.464603424E0,-1.808562160E0
1.006955881E1,-1.683228254E0,-9.485343933E0,-1.834500551E0
1.008982913E1,-1.566084981E0,-9.508609772E0,-1.817716718E0
1.011009944E1,-1.492076397E0,-9.534522057E0,-1.742694378E0
1.013036975E1,-1.472516298E0,-9.558841705E0,-1.621921301E0
1.015064001E1,-1.498209357E0,-9.577787399E0,-1.480454683E0
1.017091032E1,-1.529712915E0,-9.597041130E0,-1.314220071E0
1.019118053E1,-1.537087560E0,-9.618190765E0,-1.139377236E0
1.021145090E1,-1.512084723E0,-9.638714790E0,-9.895204306E-1
1.023172121E1,-1.458997011E0,-9.658065796E0,-8.737689853E-1
1.025199147E1,-1.396278739E0,-9.674326897E0,-7.925864458E-1
1.027226178E1,-1.338050842E0,-9.688183784E0,-7.204900980E-1
1.029253209E1,-1.281215072E0,-9.702030182E0,-6.320558786E-1
1.031280235E1,-1.253242493E0,-9.710454941E0,-5.539284945E-1
1.033307261E1,-1.300957441E0,-9.707995415E0,-4.824122190E-1
1.035334293E1,-1.441843510E0,-9.693174362E0,-3.658458889E-1
1.037361319E1,-1.665267944E0,-9.663635254E0,-1.069259942E-1
1.039388345E1,-1.956230164E0,-9.606375694E0,2.471460551E-1
1.041415376E1,-2.280232191E0,-9.517899513E0,6.168541312E-1
1.043442402E1,-2.585735798E0,-9.413004875E0,9.379205108E-1
1.045469428E1,-2.850759029E0,-9.309180260E0,1.175891995E0
1.047496454E1,-3.068833828E0,-9.222142220E0,1.305658221E0
1.049523485E1,-3.206454992E0,-9.165719032E0,1.370631099E0
1.051550511E1,-3.334940672E0,-9.112277031E0,1.419497848E0
1.053577538E1,-3.543791533E0,-9.028447151E0,1.448820233E0
1.055604564E1,-3.752726316E0,-8.948049545E0,1.421211481E0
1.057631590E1,-3.885519028E0,-8.902556419E0,1.348198414E0
1.059658616E1,-3.964216709E0,-8.881787300E0,1.252688289E0
1.061685647E1,-3.997967720E0,-8.879148483E0,1.160763860E0
1.063712673E1,-3.991302967E0,-8.892964363E0,1.074749827E0
1.065739699E1,-3.957279921E0,-8.919170380E0,9.791486263E-1
1.067766720E1,-3.911029100E0,-8.951046944E0,8.677576780E-1
1.069793746E1,-3.848529339E0,-8.989844322E0,7.361441255E-1
1.071820772E1,-3.747000217E0,-9.045214653E0,5.607846379E-1
1.073847798E1,-3.596384287E0,-9.117920876E0,3.160954118E-1
1.075874824E1,-3.409483910E0,-9.194812775E0,3.500656411E-2
1.077901845E1,-3.247040749E0,-9.251425743E0,-1.955146790E-1
1.079928871E1,-3.237698078E0,-9.256238937E0,-9.869029373E-2
1.081955897E1,-3.398495436E0,-9.198945045E0,5.752295721E-3
1.083982918E1,-3.552109003E0,-9.140715599E0,1.518032048E-2
1.086009944E1,-3.665420055E0,-9.095726967E0,5.316405743E-2
1.088036970E1,-3.763542175E0,-9.055705070E0,1.868851483E-2
1.090056131E1,-3.755713463E0,-9.057641983E0,-1.553098857E-1
1.092091006E1,-3.686080933E0,-9.081564903E0,-3.292125165E-1
1.094118032E1,-3.630205870E0,-9.099707603E0,-4.328118861E-1
1.096145053E1,-3.561249495E0,-9.131980896E0,-3.079067171E-1
1.098172079E1,-3.490779400E0,-9.163461685E0,-1.257721335E-1
1.100199105E1,-3.367712021E0,-9.209859848E0,-8.582402021E-2
1.102226126E1,-3.175949097E0,-9.276744843E0,-1.604198068E-1
1.104266126E1,-2.923793793E0,-9.355320930E0,-3.159054518E-1
1.106280173E1,-2.622590303E0,-9.432907104E0,-5.591663718E-1
1.108307194E1,-2.340600967E0,-9.490391731E0,-7.902221084E-1
1.110334220E1,-2.102523804E0,-9.530408859E0,-9.597364664E-1
1.112361246E1,-1.901809216E0,-9.567091942E0,-1.012045860E0
1.114401246E1,-1.732984900E0,-9.597367287E0,-1.028438926E0
1.116415288E1,-1.614589930E0,-9.611766815E0,-1.085092545E0
1.118442308E1,-1.530688405E0,-9.608129501E0,-1.229319692E0
1.120469329E1,-1.440711498E0,-9.591637611E0,-1.447489619E0
1.122496355E1,-1.321805477E0,-9.569193840E0,-1.689306259E0
1.124536355E1,-1.179390192E0,-9.546962738E0,-1.906545162E0
1.126550397E1,-1.036220551E0,-9.527824402E0,-2.077787161E0
1.128577418E1,-8.960515857E-1,-9.512361526E0,-2.209629059E0
1.130604438E1,-7.616489530E-1,-9.501021385E0,-2.306700945E0
1.132631459E1,-6.429387331E-1,-9.492196083E0,-2.378072023E0
1.134671459E1,-5.459758639E-1,-9.483824730E0,-2.435032845E0
1.136685496E1,-4.707296491E-1,-9.480149269E0,-2.464864969E0
1.138712517E1,-4.093022645E-1,-9.484966278E0,-2.457287073E0
1.140739538E1,-3.528589010E-1,-9.492722511E0,-2.435997009E0
1.142766553E1,-3.008417487E-1,-9.501055717E0,-2.410356998E0
1.144793579E1,-2.570728958E-1,-9.516640663E0,-2.353264570E0
1.146820600E1,-2.261273116E-1,-9.546010017E0,-2.234492064E0
1.148847621E1,-2.212971300E-1,-9.576487541E0,-2.100545406E0
1.150874636E1,-2.347440869E-1,-9.597153664E0,-2.002481937E0
1.152901657E1,-2.497752309E-1,-9.612651825E0,-1.924817562E0
1.154928678E1,-2.697599828E-1,-9.633021355E0,-1.817284822E0
1.156955694E1,-3.313695788E-1,-9.654994011E0,-1.685729980E0
1.158982715E1,-4.634784162E-1,-9.675311089E0,-1.530995488E0
1.161009735E1,-6.655366421E-1,-9.700596809E0,-1.275091410E0
1.163036756E1,-9.213533401E-1,-9.724416733E0,-8.701850176E-1
1.165063772E1,-1.221175909E0,-9.722798347E0,-3.824986219E-1
1.167090793E1,-1.544784307E0,-9.683588982E0,1.101096496E-1
1.169117808E1,-1.823564887E0,-9.619907379E0,5.498919487E-1
1.171144829E1,-2.032457590E0,-9.548838615E0,9.269198775E-1
1.173171845E1,-2.227841377E0,-9.475326538E0,1.193852067E0
1.175198866E1,-2.436911821E0,-9.399394989E0,1.372297525E0
1.177225881E1,-2.642969847E0,-9.320506096E0,1.520943522E0
1.179252902E1,-2.855401039E0,-9.233729362E0,1.659918189E0
1.181279918E1,-3.092917204E0,-9.139346123E0,1.754025817E0
1.183306938E1,-3.332344532E0,-9.052377701E0,1.766443253E0
1.185333954E1,-3.533612490E0,-8.985945702E0,1.713692784E0
1.187360970E1,-3.664246082E0,-8.948252678E0,1.634766579E0
1.189387991E1,-3.736204386E0,-8.930847168E0,1.565608501E0
1.191415006E1,-3.750737429E0,-8.932887077E0,1.518511534E0
1.193442022E1,-3.728737831E0,-8.953026772E0,1.452658176E0
1.195469038E1,-3.686788321E0,-8.986550331E0,1.349036217E0
1.197496058E1,-3.629182577E0,-9.030576706E0,1.203375578E0
1.199487798E1,-3.544840574E0,-9.088646889E0,1.000499964E0
1.201527798E1,-3.436394215E0,-9.156858444E0,7.165949345E-1
1.203567798E1,-3.302168846E0,-9.226012230E0,3.831003010E-1
1.205604355E1,-3.131001711E0,-9.293058395E0,7.923011482E-2
1.207631261E1,-2.979348660E0,-9.342806816E0,-7.638891786E-2
1.209658251E1,-3.006543398E0,-9.334059715E0,8.015399426E-2
1.211685246E1,-3.220189095E0,-9.260648727E0,2.028320879E-1
1.213712246E1,-3.406136751E0,-9.194607735E0,1.667987257E-1
1.215739251E1,-3.534029961E0,-9.146024704E0,1.767643541E-1
1.217766251E1,-3.629346132E0,-9.109745979E0,1.037133113E-1
1.219793256E1,-3.601238251E0,-9.120419502E0,-1.393394023E-1
1.221820267E1,-3.528716326E0,-9.145924568E0,-2.657627165E-1
1.223847277E1,-3.456227541E0,-9.168749809E0,-3.986380696E-1
1.225874288E1,-3.450605392E0,-9.167227745E0,-4.750205576E-1
1.227901298E1,-3.403642654E0,-9.187514305E0,-4.185405672E-1
1.229928308E1,-3.275773048E0,-9.235165596E0,-3.891412616E-1
1.231955324E1,-3.082611084E0,-9.295113564E0,-5.184104443E-1
1.233982340E1,-2.828732729E0,-9.362751961E0,-7.124146819E-1
1.236009345E1,-2.588612318E0,-9.422314644E0,-8.303386569E-1
1.238036360E1,-2.362935305E0,-9.472640038E0,-9.252008796E-1
1.240063376E1,-2.198391199E0,-9.503891945E0,-1.006735325E0
1.242090386E1,-2.110743284E0,-9.520213127E0,-1.039563894E0
1.244117402E1,-2.082260609E0,-9.522151947E0,-1.078521013E0
1.246144407E1,-2.077283859E0,-9.511617661E0,-1.176603079E0
1.248171423E1,-2.058282852E0,-9.494157791E0,-1.339714289E0
1.250198433E1,-2.009510517E0,-9.477895737E0,-1.517145395E0
1.252225449E1,-1.935959458E0,-9.471871376E0,-1.645025611E0
1.254265449E1,-1.868888974E0,-9.479230881E0,-1.679829121E0
1.256279475E1,-1.846861362E0,-9.489240646E0,-1.647360206E0
1.258306485E1,-1.861773372E0,-9.499280930E0,-1.570940018E0
1.260333496E1,-1.914469600E0,-9.510625839E0,-1.432897091E0
1.262360511E1,-2.020391226E0,-9.517040253E0,-1.230596662E0
1.264400511E1,-2.164789915E0,-9.513564110E0,-9.880160093E-1
1.266414532E1,-2.307005882E0,-9.504423141E0,-7.169761658E-1
1.268441548E1,-2.429876804E0,-9.489044189E0,-4.734090269E-1
1.270468558E1,-2.519176245E0,-9.472964287E0,-2.950780392E-1
1.272495569E1,-2.553915262E0,-9.466788292E0,-1.667752862E-1
1.274535569E1,-2.568146944E0,-9.464199066E0,-6.291920692E-2
1.276549590E1,-2.622530222E0,-9.449470520E0,1.500523183E-2
1.278576605E1,-2.735442877E0,-9.417120934E0,7.462045550E-2
1.280603616E1,-2.878898144E0,-9.373688698E0,1.276125163E-1
1.282630626E1,-3.052904129E0,-9.317721367E0,1.738408804E-1
1.284657631E1,-3.260366201E0,-9.245396614E0,2.510975599E-1
1.286684647E1,-3.469650984E0,-9.162674904E0,4.210831523E-1
1.288711657E1,-3.723819494E0,-9.049817085E0,6.358923912E-1
1.290738668E1,-4.088280678E0,-8.877843857E0,8.001475334E-1
1.292765678E1,-4.433393955E0,-8.697338104E0,9.336539507E-1
1.294805678E1,-4.686445236E0,-8.554493904E0,1.014017701E0
1.296819699E1,-4.856501579E0,-8.461194992E0,9.964724779E-1
1.298846709E1,-4.921021938E0,-8.424244881E0,9.929817319E-1
1.300873720E1,-4.915922642E0,-8.417821884E0,1.069751143E0
1.302900730E1,-4.854257584E0,-8.445497513E0,1.131427050E0
1.304927741E1,-4.769140244E0,-8.491984367E0,1.145379305E0
1.306954751E1,-4.673626900E0,-8.546713829E0,1.131929398E0
1.308981756E1,-4.570211411E0,-8.604866028E0,1.113475323E0
1.311008767E1,-4.461606979E0,-8.666786194E0,1.072972417E0
1.313035777E1,-4.347115040E0,-8.735174179E0,9.847377539E-1
1.315062782E1,-4.216994286E0,-8.813185692E0,8.456452489E-1
1.317089793E1,-4.061602592E0,-8.901566505E0,6.602245569E-1
1.319116803E1,-3.867037296E0,-9.002216339E0,4.201233685E-1
1.321143814E1,-3.618930340E0,-9.113533020E0,1.313374490E-1
1.323170819E1,-3.347849607E0,-9.216413498E0,-1.414008588E-1
1.325197829E1,-3.097684383E0,-9.298702240E0,-3.299698234E-1
1.327224834E1,-2.881082058E0,-9.363553047E0,-4.400424063E-1
1.329251845E1,-2.801660299E0,-9.379764557E0,-5.840411186E-1
1.331278850E1,-2.836183071E0,-9.354578018E0,-7.863369584E-1
1.333305860E1,-2.919200897E0,-9.314987183E0,-9.379020929E-1
1.335332871E1,-3.039935589E0,-9.263024330E0,-1.060924649E0
1.337359876E1,-3.141202927E0,-9.215391159E0,-1.174645305E0
1.339386886E1,-3.202951908E0,-9.175261497E0,-1.313789964E0
1.341413892E1,-3.279004574E0,-9.135627747E0,-1.399580836E0
1.343440902E1,-3.341142178E0,-9.118173599E0,-1.366043806E0
1.345467907E1,-3.422627211E0,-9.095273018E0,-1.316059113E0
1.347494912E1,-3.533215523E0,-9.070413589E0,-1.189278483E0
1.349521923E1,-3.630752087E0,-9.055616379E0,-9.918952584E-1
1.351548928E1,-3.683685064E0,-9.048571587E0,-8.509982824E-1
1.353575938E1,-3.662209034E0,-9.065425873E0,-7.593780160E-1
1.355602944E1,-3.615270853E0,-9.082345963E0,-7.817981243E-1
1.357629949E1,-3.505600929E0,-9.113199234E0,-9.114599228E-1
1.359656954E1,-3.357584476E0,-9.135823250E0,-1.197386265E0
1.361683959E1,-3.175261736E0,-9.146298409E0,-1.559908509E0
1.363710970E1,-3.028924704E0,-9.147376060E0,-1.822498679E0
1.365737975E1,-2.920991421E0,-9.166239738E0,-1.902166843E0
1.367764980E1,-2.743970871E0,-9.207016945E0,-1.967701793E0
1.369791985E1,-2.523816824E0,-9.252921104E0,-2.045531750E0
1.371818991E1,-2.321490288E0,-9.290213585E0,-2.114951611E0
1.373845996E1,-2.153828382E0,-9.318087578E0,-2.169022560E0
1.375873001E1,-2.042537451E0,-9.335713387E0,-2.200657368E0
1.377900011E1,-2.017181635E0,-9.343940735E0,-2.189091444E0
1.379927017E1,-2.097756147E0,-9.343189240E0,-2.115333796E0
1.381954022E1,-2.255050898E0,-9.339159966E0,-1.966019750E0
1.383981027E1,-2.409937382E0,-9.342111588E0,-1.757141113E0
1.386008032E1,-2.529075861E0,-9.353135109E0,-1.514273167E0
1.388035032E1,-2.612390757E0,-9.368227959E0,-1.257811427E0
1.390062038E1,-2.684720516E0,-9.377310753E0,-1.014249206E0
1.392089043E1,-2.752908945E0,-9.377875328E0,-8.045669198E-1
1.394129043E1,-2.824531555E0,-9.368618011E0,-6.491757631E-1
1.396143053E1,-2.906950235E0,-9.348904610E0,-5.639257431E-1
1.398170053E1,-3.021441460E0,-9.314325333E0,-5.335039496E-1
1.400197058E1,-3.184048176E0,-9.262039185E0,-4.968374074E-1
1.402224064E1,-3.392132521E0,-9.193573952E0,-3.768641353E-1
1.404264064E1,-3.627754688E0,-9.110017776E0,-1.317695826E-1
1.406278074E1,-3.867635250E0,-9.008954048E0,2.248373628E-1
1.408305079E1,-4.127509594E0,-8.877194405E0,5.739836693E-1
1.410332084E1,-4.415615082E0,-8.717591286E0,8.223904967E-1
1.412359084E1,-4.635869503E0,-8.588685989E0,9.558045268E-1
1.414399084E1,-4.803664684E0,-8.493014336E0,9.817888737E-1
1.416413095E1,-4.875116825E0,-8.459942818E0,9.126756191E-1
1.418440095E1,-4.873590469E0,-8.463505745E0,8.874514103E-1
1.420467095E1,-4.857754707E0,-8.469683647E0,9.149027467E-1
1.422494105E1,-4.811542988E0,-8.493840218E0,9.349405169E-1
1.424534105E1,-4.731142521E0,-8.538887024E0,9.349320531E-1
1.426548110E1,-4.641029358E0,-8.592535973E0,8.941851854E-1
1.428575110E1,-4.529665470E0,-8.659545898E0,8.153461814E-1
1.430602116E1,-4.395209312E0,-8.736899376E0,7.204994559E-1
1.432629121E1,-4.244153023E0,-8.819143295E0,6.166435480E-1
1.434669121E1,-4.073425293E0,-8.906265259E0,5.059872866E-1
1.436683126E1,-3.868198395E0,-9.003316879E0,3.843528330E-1
1.438710126E1,-3.621576548E0,-9.110703468E0,2.228086442E-1
1.440737131E1,-3.341492891E0,-9.219754219E0,3.086342663E-2
1.442764131E1,-3.071121931E0,-9.311826706E0,-1.687837392E-1
1.444791136E1,-2.868570328E0,-9.371092796E0,-3.526003659E-1
1.446818136E1,-2.730116367E0,-9.403656960E0,-5.367217660E-1
1.448845142E1,-2.685833693E0,-9.403093338E0,-7.338315248E-1
1.450872142E1,-2.711685419E0,-9.380687714E0,-9.054474235E-1
1.452899147E1,-2.777917385E0,-9.348101616E0,-1.032741904E0
1.454926147E1,-2.874415398E0,-9.311153412E0,-1.100258231E0
1.456953147E1,-2.982549191E0,-9.276449203E0,-1.105564713E0
1.458980152E1,-3.082266808E0,-9.242218971E0,-1.118667483E0
1.461007152E1,-3.142727852E0,-9.210396767E0,-1.209228039E0
1.463034152E1,-3.203219891E0,-9.168770790E0,-1.357720971E0
1.465061157E1,-3.296776772E0,-9.110424995E0,-1.517171979E0
1.467088157E1,-3.394248962E0,-9.051139832E0,-1.651159644E0
1.469115157E1,-3.454043627E0,-9.010192871E0,-1.748254418E0
1.471142163E1,-3.474340200E0,-9.029865265E0,-1.600273132E0
1.473169163E1,-3.443934917E0,-9.070382118E0,-1.427539349E0
1.475196163E1,-3.402240753E0,-9.106776237E0,-1.289096713E0
1.477223168E1,-3.285968542E0,-9.155565262E0,-1.244353652E0
1.479250168E1,-3.138074160E0,-9.191838264E0,-1.353876591E0
1.481277168E1,-2.966550112E0,-9.220225334E0,-1.535388827E0
1.483304168E1,-2.816345215E0,-9.214973450E0,-1.822865129E0
1.485331173E1,-2.675664186E0,-9.189922333E0,-2.134606838E0
1.487358173E1,-2.559903622E0,-9.181612015E0,-2.305492163E0
1.489385173E1,-2.435601473E0,-9.197804451E0,-2.374577045E0
1.491412173E1,-2.303549290E0,-9.226999283E0,-2.393018246E0
1.493439173E1,-2.187968254E0,-9.254600525E0,-2.394901514E0
1.495466173E1,-2.101284266E0,-9.275409698E0,-2.392019510E0
1.497493178E1,-2.067401886E0,-9.286702156E0,-2.377686262E0
1.499480996E1,-2.098856449E0,-9.288438797E0,-2.343096256E0
1.501520996E1,-2.173688412E0,-9.286369324E0,-2.282283068E0
1.503560996E1,-2.280759096E0,-9.287212372E0,-2.171678543E0
1.505600996E1,-2.414023876E0,-9.293169975E0,-1.994961262E0
1.507628324E1,-2.496099710E0,-9.310930252E0,-1.801791906E0
1.509655293E1,-2.563024044E0,-9.326497078E0,-1.617944002E0
1.511682272E1,-2.624027252E0,-9.337411880E0,-1.448315859E0
1.513709256E1,-2.683236599E0,-9.347336769E0,-1.264091849E0
1.515736235E1,-2.756844044E0,-9.350214958E0,-1.069436550E0
1.517763225E1,-2.858193398E0,-9.335868835E0,-9.179705977E-1
1.519790220E1,-2.966584206E0,-9.311384201E0,-8.172547221E-1
1.521817209E1,-3.090674877E0,-9.276182175E0,-7.553524375E-1
1.523844204E1,-3.250925779E0,-9.226924896E0,-6.824482083E-1
1.525871199E1,-3.430072784E0,-9.171452522E0,-5.379837155E-1
1.527898194E1,-3.652649641E0,-9.096674919E0,-2.811321616E-1
1.529925194E1,-3.917094469E0,-8.990182877E0,5.806225538E-2
1.531952199E1,-4.213720798E0,-8.844705582E0,4.314372241E-1
1.533979199E1,-4.521379948E0,-8.668471336E0,7.649335265E-1
1.536006194E1,-4.777696609E0,-8.510878563E0,9.533851147E-1
1.538033194E1,-4.962703705E0,-8.403385162E0,9.618112445E-1
1.540073194E1,-5.057971954E0,-8.354891777E0,8.849231601E-1
1.542087194E1,-5.095902443E0,-8.335065842E0,8.537232280E-1
1.544114194E1,-5.100300312E0,-8.329573631E0,8.806393743E-1
1.546141194E1,-5.058797836E0,-8.350855827E0,9.176977873E-1
1.548168194E1,-4.981183052E0,-8.397676468E0,9.150074124E-1
1.550195188E1,-4.882641792E0,-8.460412025E0,8.669564128E-1
1.552222188E1,-4.757184982E0,-8.538773537E0,7.930484414E-1
1.554262188E1,-4.596474648E0,-8.634427071E0,6.996247768E-1
1.556276188E1,-4.406411171E0,-8.740953445E0,5.913237333E-1
1.558303194E1,-4.177816868E0,-8.860171318E0,4.621466696E-1
1.560330194E1,-3.901566982E0,-8.992469788E0,2.892136872E-1
1.562357194E1,-3.586940527E0,-9.126717567E0,8.530225605E-2
1.564397194E1,-3.267690420E0,-9.245719910E0,-9.614422917E-2
1.566411194E1,-2.990830898E0,-9.336828232E0,-2.212421894E-1
1.568438194E1,-2.789415359E0,-9.395422935E0,-3.399544954E-1
1.570465194E1,-2.744989395E0,-9.400238037E0,-5.205437541E-1
1.572492199E1,-2.789735794E0,-9.375973701E0,-6.920106411E-1
1.574532199E1,-2.870535135E0,-9.341448784E0,-8.171620965E-1
1.576546199E1,-2.954261303E0,-9.306168556E0,-9.154083133E-1
1.578573199E1,-3.039247274E0,-9.269873619E0,-1.001399517E0
1.580600199E1,-3.085890532E0,-9.249256134E0,-1.048287630E0
1.582627199E1,-3.174326658E0,-9.211951256E0,-1.110846281E0
1.584667199E1,-3.277205944E0,-9.171727180E0,-1.144433379E0
1.586681199E1,-3.394910574E0,-9.121346474E0,-1.202500939E0
1.588708204E1,-3.474751472E0,-9.112507820E0,-1.028934717E0
1.590735204E1,-3.420951843E0,-9.153677940E0,-8.231935501E-1
1.592762209E1,-3.359581232E0,-9.192133904E0,-6.231281757E-1
1.594789209E1,-3.325804949E0,-9.207553864E0,-5.747657418E-1
1.596816209E1,-3.271818161E0,-9.216728210E0,-7.193797827E-1
1.598843215E1,-3.123691559E0,-9.242623329E0,-9.934130311E-1
1.600870215E1,-2.998847961E0,-9.238101959E0,-1.354542494E0
1.602897215E1,-2.819031715E0,-9.240340233E0,-1.685096622E0
1.604924209E1,-2.724781275E0,-9.244282722E0,-1.813613653E0
1.606951215E1,-2.653217316E0,-9.255640030E0,-1.861170411E0
1.608978220E1,-2.480299234E0,-9.290892601E0,-1.922972560E0
1.611005220E1,-2.318353653E0,-9.324810982E0,-1.960489869E0
1.613032225E1,-2.178724766E0,-9.354249954E0,-1.980293393E0
1.615059225E1,-2.081940651E0,-9.376539230E0,-1.978994250E0
1.617086225E1,-2.047052622E0,-9.390741348E0,-1.947800756E0
1.619113225E1,-2.093990326E0,-9.394687653E0,-1.877609968E0
1.621140230E1,-2.217177629E0,-9.390817642E0,-1.751301765E0
1.623167230E1,-2.391424179E0,-9.382205009E0,-1.557468653E0
1.625194225E1,-2.576619625E0,-9.369044304E0,-1.323790908E0
1.627221235E1,-2.741033077E0,-9.352831841E0,-1.087046146E0
1.629248235E1,-2.877008438E0,-9.334257126E0,-8.745521903E-1
1.631275230E1,-2.968038321E0,-9.321756363E0,-6.826379895E-1
1.633302241E1,-3.024085522E0,-9.315031052E0,-5.054454803E-1
1.635329241E1,-3.060296297E0,-9.310449600E0,-3.471504152E-1
1.637356241E1,-3.102842093E0,-9.299974442E0,-2.307482511E-1
1.639383241E1,-3.180163860E0,-9.275121689E0,-1.704865694E-1
1.641410246E1,-3.305305243E0,-9.231394768E0,-1.633439064E-1
1.643437246E1,-3.526832342E0,-9.148408890E0,-1.960994303E-1
1.645464251E1,-3.848171711E0,-9.019430161E0,-1.088329107E-1
1.647491251E1,-4.199989319E0,-8.860799789E0,1.291875988E-1
1.649518251E1,-4.567753315E0,-8.670742035E0,3.525026441E-1
1.651545251E1,-4.879468918E0,-8.493256569E0,4.751342833E-1
1.653572256E1,-5.103121281E0,-8.357392311E0,5.315414071E-1
1.655599256E1,-5.229564667E0,-8.278677940E0,5.343540311E-1
1.657626256E1,-5.243730545E0,-8.268655777E0,5.504518747E-1
1.659653261E1,-5.203626156E0,-8.289216042E0,6.177129745E-1
1.661680261E1,-5.108219147E0,-8.340275764E0,7.185291648E-1
1.663707261E1,-4.984781742E0,-8.403047562E0,8.432861567E-1
1.665734261E1,-4.870819092E0,-8.458335876E0,9.497736692E-1
1.667761267E1,-4.760354042E0,-8.515472412E0,9.980725050E-1
1.669788267E1,-4.642525673E0,-8.581296921E0,9.892872572E-1
1.671815267E1,-4.510112762E0,-8.658342361E0,9.286329746E-1
1.673842261E1,-4.347965240E0,-8.751610756E0,8.215252161E-1
1.675869272E1,-4.150523186E0,-8.857782364E0,6.951463223E-1
1.677896272E1,-3.915531158E0,-8.974212646E0,5.500220656E-1
1.679923272E1,-3.648826599E0,-9.094125748E0,3.915803432E-1
1.681950272E1,-3.357728958E0,-9.210648537E0,2.449344248E-1
1.683977277E1,-3.103004217E0,-9.302258492E0,9.866379201E-2
1.686004277E1,-2.922320843E0,-9.360624313E0,-9.571829438E-2
1.688031277E1,-2.799282074E0,-9.393300056E0,-3.167049587E-1
1.690058282E1,-2.767876863E0,-9.394070625E0,-5.105721951E-1
1.692085282E1,-2.810848713E0,-9.371216774E0,-6.706742048E-1
1.694112282E1,-2.907572985E0,-9.330190659E0,-8.148387671E-1
1.696139282E1,-3.008530378E0,-9.287786484E0,-9.252917171E-1
1.698166288E1,-3.064548492E0,-9.263315201E0,-9.848386049E-1
1.700193288E1,-3.071395874E0,-9.256684303E0,-1.025041342E0
1.702220288E1,-3.029610872E0,-9.262274742E0,-1.096412182E0
1.704260288E1,-2.946502686E0,-9.276709557E0,-1.196317077E0
1.706274288E1,-2.898254871E0,-9.285205841E0,-1.247175813E0
1.708301293E1,-2.945630789E0,-9.266388893E0,-1.275804877E0
1.710328293E1,-3.060167313E0,-9.216088295E0,-1.367290378E0
1.712355293E1,-3.223353624E0,-9.141945839E0,-1.484995246E0
1.714395293E1,-3.509382725E0,-9.052429199E0,-1.381362915E0
1.716409293E1,-3.648829460E0,-9.013944626E0,-1.266978025E0
1.718436293E1,-3.740418196E0,-9.005157471E0,-1.042491078E0
1.720463293E1,-3.747496367E0,-9.017977715E0,-8.959614635E-1
1.722490293E1,-3.611374378E0,-9.062045097E0,-1.003845453E0
1.724530293E1,-3.424537897E0,-9.113183975E0,-1.180176020E0
1.726544293E1,-3.253571987E0,-9.126692772E0,-1.512663722E0
1.728571298E1,-3.075514793E0,-9.112380981E0,-1.917317152E0
1.730598298E1,-2.999970913E0,-9.109399796E0,-2.046800852E0
1.732625293E1,-2.947539568E0,-9.129267693E0,-2.034420252E0
1.734665293E1,-2.798163891E0,-9.174799919E0,-2.040516853E0
1.736679298E1,-2.653557062E0,-9.217346191E0,-2.041944265E0
1.738706298E1,-2.520728111E0,-9.254941940E0,-2.040191174E0
1.740733298E1,-2.418552876E0,-9.287748337E0,-2.014630556E0
1.742760298E1,-2.372203588E0,-9.310389519E0,-1.964606881E0
1.744787298E1,-2.414002657E0,-9.313038826E0,-1.900074601E0
1.746814298E1,-2.536522627E0,-9.297678947E0,-1.813730121E0
1.748841298E1,-2.697252274E0,-9.280073166E0,-1.665972114E0
1.750868298E1,-2.859376907E0,-9.272226334E0,-1.421322227E0
1.752895298E1,-2.983677626E0,-9.269827843E0,-1.156862497E0
1.754922298E1,-3.052972794E0,-9.272794724E0,-9.300671816E-1
1.756949293E1,-3.071892977E0,-9.284312248E0,-7.317205667E-1
1.758976293E1,-3.058527946E0,-9.300293922E0,-5.659680367E-1
1.761003298E1,-3.032155037E0,-9.316334724E0,-4.269868135E-1
1.763030293E1,-3.009339571E0,-9.327977180E0,-3.211145699E-1
1.765053360E1,-3.025226116E0,-9.324271202E0,-2.763398588E-1
1.767084288E1,-3.146592617E0,-9.284186363E0,-2.706197798E-1
1.769111288E1,-3.328143835E0,-9.222220421E0,-2.109656036E-1
1.771138288E1,-3.526841879E0,-9.150447845E0,-3.283928707E-2
1.773165293E1,-3.731076956E0,-9.066156387E0,2.329027802E-1
1.775192293E1,-4.006501675E0,-8.938410759E0,4.723754525E-1
1.777219282E1,-4.318127632E0,-8.780379295E0,6.550537348E-1
1.779246288E1,-4.563838482E0,-8.646495819E0,7.614901066E-1
1.781273288E1,-4.761178017E0,-8.538509369E0,7.716381550E-1
1.783300288E1,-4.867887497E0,-8.479779243E0,7.532564998E-1
1.785327288E1,-4.909860611E0,-8.450944901E0,8.032355905E-1
1.787354282E1,-4.949645042E0,-8.421190262E0,8.688764572E-1
1.789381282E1,-4.969106674E0,-8.407472610E0,8.903816342E-1
1.791408282E1,-4.937537670E0,-8.428673744E0,8.651985526E-1
1.793435282E1,-4.869979858E0,-8.472928047E0,8.143534660E-1
1.795462277E1,-4.771475315E0,-8.533864021E0,7.593302131E-1
1.797489277E1,-4.650930882E0,-8.604266167E0,7.112221718E-1
1.799473194E1,-4.525445938E0,-8.675029755E0,6.592207551E-1
1.801513194E1,-4.383714199E0,-8.752703667E0,5.861852765E-1
1.803553194E1,-4.215690613E0,-8.840702057E0,4.902330339E-1
1.805593194E1,-4.006438255E0,-8.942749977E0,3.821859062E-1
1.807624548E1,-3.748836279E0,-9.057947159E0,2.649462521E-1
1.809651433E1,-3.487006664E0,-9.164429665E0,1.561619788E-1
1.811678397E1,-3.258591890E0,-9.249357224E0,3.680804744E-2
1.813705366E1,-3.117893457E0,-9.296283722E0,-1.680759192E-1
1.815732345E1,-3.083255291E0,-9.299377441E0,-4.306816757E-1
1.817759319E1,-3.124712944E0,-9.273097038E0,-6.451480985E-1
1.819786314E1,-3.190175056E0,-9.236528397E0,-8.244417906E-1
1.821813298E1,-3.245751858E0,-9.202868462E0,-9.709329009E-1
1.823840288E1,-3.271363258E0,-9.183449745E0,-1.064341664E0
1.825867272E1,-3.257699728E0,-9.181995392E0,-1.117466092E0
1.827894267E1,-3.227470160E0,-9.185789108E0,-1.172646642E0
1.829921256E1,-3.186869621E0,-9.188313484E0,-1.260612369E0
1.831948251E1,-3.140600443E0,-9.184781075E0,-1.395285964E0
1.833975246E1,-3.097781420E0,-9.172572136E0,-1.561429381E0
1.836002246E1,-3.073620319E0,-9.153063774E0,-1.716006994E0
1.838029241E1,-3.100897074E0,-9.127573967E0,-1.800617814E0
1.840056230E1,-3.196945429E0,-9.091652870E0,-1.814322591E0
1.842083230E1,-3.289756536E0,-9.063102722E0,-1.791105866E0
1.844123230E1,-3.396827459E0,-9.058634758E0,-1.604088426E0
1.846137225E1,-3.474050999E0,-9.069402695E0,-1.359146953E0
1.848164220E1,-3.462324142E0,-9.112330437E0,-1.071503520E0
1.850191220E1,-3.373183012E0,-9.154179573E0,-9.965064526E-1
1.852218215E1,-3.260537624E0,-9.166035652E0,-1.234124541E0
1.854258215E1,-3.096567392E0,-9.173161507E0,-1.560370922E0
1.856272204E1,-2.957417488E0,-9.148831367E0,-1.929493070E0
1.858299199E1,-2.842536449E0,-9.140641212E0,-2.130505085E0
1.860326194E1,-2.759034395E0,-9.179430008E0,-2.072722197E0
1.862353194E1,-2.685053349E0,-9.219635010E0,-1.989778996E0
1.864393194E1,-2.599893570E0,-9.255784035E0,-1.934266567E0
1.866407194E1,-2.521578312E0,-9.290443420E0,-1.870749712E0
1.868434183E1,-2.462611675E0,-9.322862625E0,-1.786107659E0
1.870461178E1,-2.442829847E0,-9.348175049E0,-1.677675128E0
1.872488173E1,-2.481561661E0,-9.362544060E0,-1.534598351E0
1.874528173E1,-2.572167158E0,-9.366197586E0,-1.352283478E0
1.876542168E1,-2.679876328E0,-9.362210274E0,-1.156574368E0
1.878569163E1,-2.786506176E0,-9.352160454E0,-9.710116386E-1
1.880596157E1,-2.878243923E0,-9.338902473E0,-8.191508651E-1
1.882623152E1,-2.963966131E0,-9.322289467E0,-6.929615736E-1
1.884650147E1,-3.051594257E0,-9.301007271E0,-5.911313295E-1
1.886677142E1,-3.156430721E0,-9.271104813E0,-5.039379597E-1
1.888704142E1,-3.281800747E0,-9.233104706E0,-3.872258961E-1
1.890731136E1,-3.388653040E0,-9.200765610E0,-1.825702637E-1
1.892758131E1,-3.512711287E0,-9.153853416E0,1.954827458E-1
1.894785126E1,-3.698969364E0,-9.060657501E0,6.265043616E-1
1.896812121E1,-3.881835699E0,-8.951913834E0,9.823349714E-1
1.898839116E1,-4.107358932E0,-8.820508003E0,1.224191189E0
1.900866110E1,-4.295274734E0,-8.716411591E0,1.321053386E0
1.902893105E1,-4.375751495E0,-8.671463966E0,1.352368712E0
1.904920105E1,-4.433096409E0,-8.641692162E0,1.356176376E0
1.906947100E1,-4.467321873E0,-8.626912117E0,1.337833881E0
1.908974095E1,-4.469459534E0,-8.632628441E0,1.293073058E0
1.911001090E1,-4.447763920E0,-8.653476715E0,1.226835728E0
1.913028084E1,-4.395433903E0,-8.691896439E0,1.140825748E0
1.915055079E1,-4.315381050E0,-8.744517326E0,1.039849520E0
1.917082074E1,-4.216156006E0,-8.806035042E0,9.209622741E-1
1.919109069E1,-4.100723743E0,-8.873759270E0,7.815672159E-1
1.921136064E1,-3.960331202E0,-8.949588776E0,6.253138185E-1
1.923163058E1,-3.786303282E0,-9.034398079E0,4.625372291E-1
1.925190053E1,-3.572863340E0,-9.127805710E0,2.969793379E-1
1.927217048E1,-3.331441641E0,-9.222815514E0,1.075723395E-1
1.929244043E1,-3.078937054E0,-9.309945107E0,-1.242601648E-1
1.931271038E1,-2.835591555E0,-9.379361153E0,-3.967438042E-1
1.933298027E1,-2.613126040E0,-9.425625801E0,-7.067794204E-1
1.935325027E1,-2.476786137E0,-9.441804886E0,-9.424704313E-1
1.937352017E1,-2.572686911E0,-9.408326149E0,-1.017383814E0
1.939379017E1,-2.814993620E0,-9.350753784E0,-8.997945786E-1
1.941406011E1,-3.148113489E0,-9.258481026E0,-7.350585461E-1
1.943433001E1,-3.507603884E0,-9.132565498E0,-6.806951761E-1
1.945460001E1,-3.757292747E0,-9.025107384E0,-7.749623060E-1
1.947486991E1,-3.837563276E0,-8.963362694E0,-1.049581885E0
1.949513985E1,-3.917929173E0,-8.931126595E0,-1.027225614E0
1.951540980E1,-3.852533579E0,-8.991847992E0,-6.892309189E-1
1.953567975E1,-3.646076918E0,-9.093409538E0,-4.317449033E-1
1.955594970E1,-3.532971621E0,-9.142586708E0,-3.187378943E-1
1.957621965E1,-3.519936085E0,-9.144809723E0,-3.910153210E-1
1.959648959E1,-3.499995708E0,-9.146056175E0,-5.197010636E-1
1.961675949E1,-3.268167973E0,-9.210259438E0,-8.127666116E-1
1.963702944E1,-2.982714653E0,-9.260704994E0,-1.230095506E0
1.965729938E1,-2.714080334E0,-9.300522804E0,-1.518036008E0
1.967756933E1,-2.482032776E0,-9.343988419E0,-1.643098354E0
1.969783928E1,-2.235670090E0,-9.385913849E0,-1.754079580E0
1.971810918E1,-2.025644302E0,-9.410595894E0,-1.872918606E0
1.973837912E1,-1.805655479E0,-9.431717873E0,-1.988135576E0
1.975864907E1,-1.579813838E0,-9.451036453E0,-2.086260557E0
1.977891902E1,-1.376166701E0,-9.466050148E0,-2.161123037E0
1.979918892E1,-1.202315331E0,-9.476632118E0,-2.217718124E0
1.981945886E1,-1.033399224E0,-9.483008385E0,-2.274867773E0
1.983972881E1,-8.709108829E-1,-9.482850075E0,-2.342533112E0
1.985999876E1,-7.527527213E-1,-9.477060318E0,-2.406052828E0
1.988026871E1,-6.854903698E-1,-9.471475601E0,-2.447780609E0
1.990066871E1,-6.334475875E-1,-9.478917122E0,-2.432953596E0
1.992080855E1,-5.894264579E-1,-9.496226311E0,-2.375843287E0
1.994107845E1,-5.662920475E-1,-9.521570206E0,-2.278023958E0
1.996134840E1,-6.053315401E-1,-9.556865692E0,-2.114300728E0
1.998161834E1,-7.282855511E-1,-9.590741158E0,-1.912500024E0
2.000188829E1,-9.078949690E-1,-9.621512413E0,-1.665113211E0
2.002215819E1,-1.092260480E0,-9.665252686E0,-1.249092698E0
2.004255819E1,-1.314393163E0,-9.690979958E0,-7.263975143E-1
2.006269808E1,-1.597532749E0,-9.672659874E0,-2.406697571E-1
2.008296798E1,-1.924506664E0,-9.613880157E0,1.999006569E-1
2.010323793E1,-2.238335133E0,-9.530385971E0,5.761687756E-1
2.012350788E1,-2.517623901E0,-9.438286781E0,8.664265275E-1
2.014390788E1,-2.746926069E0,-9.351665497E0,1.082189083E0
2.016404772E1,-2.933002234E0,-9.267395020E0,1.297410846E0
2.018431761E1,-3.073756456E0,-9.184599876E0,1.538030148E0
2.020458756E1,-3.200355530E0,-9.106297493E0,1.733048081E0
2.022485741E1,-3.355329990E0,-9.027203560E0,1.849794984E0
2.024525741E1,-3.538653135E0,-8.948441505E0,1.890428662E0
2.026539730E1,-3.708428860E0,-8.884603500E0,1.865951180E0
2.028566725E1,-3.822644711E0,-8.850445747E0,1.796490550E0
2.030593720E1,-3.880871296E0,-8.841556549E0,1.713508725E0
2.032620709E1,-3.895497799E0,-8.849710464E0,1.636495113E0
2.034660709E1,-3.889471054E0,-8.868374825E0,1.547358632E0
2.036674694E1,-3.879835606E0,-8.891049385E0,1.437533021E0
2.038701688E1,-3.880676508E0,-8.911996841E0,1.298863411E0
2.040728678E1,-3.885653257E0,-8.934197426E0,1.119028687E0
2.042755673E1,-3.875343561E0,-8.963870049E0,8.950639367E-1
2.044782662E1,-3.823046923E0,-9.008348465E0,6.358901858E-1
2.046809657E1,-3.714149952E0,-9.068763733E0,3.646913767E-1
2.048836647E1,-3.549194813E0,-9.141019821E0,1.239173785E-1
2.050863642E1,-3.347164392E0,-9.217602730E0,-5.188053846E-2
2.052890631E1,-3.177014351E0,-9.277242661E0,9.869167209E-2
2.054917626E1,-3.204978943E0,-9.254106522E0,5.099144578E-1
2.056944616E1,-3.345312834E0,-9.206598282E0,4.667325914E-1
2.058971610E1,-3.521322012E0,-9.148093224E0,2.882040441E-1
2.060998600E1,-3.707195997E0,-9.077831268E0,1.416168511E-1
2.063025590E1,-3.808817863E0,-9.036349297E0,-8.765307814E-2
2.065052579E1,-3.777096510E0,-9.046862602E0,-2.412841618E-1
2.067079574E1,-3.718655109E0,-9.069315910E0,-2.991437912E-1
2.069106564E1,-3.667827606E0,-9.092782021E0,-1.968315393E-1
2.071133558E1,-3.626660585E0,-9.111237526E0,-5.535358936E-2
2.073160548E1,-3.579457283E0,-9.130027771E0,2.110283449E-2
2.075187538E1,-3.469492197E0,-9.172296524E0,-4.443674162E-2
2.077214532E1,-3.293059111E0,-9.235092163E0,-1.980454773E-1
2.079241522E1,-3.036530256E0,-9.316675186E0,-3.865800500E-1
2.081268511E1,-2.739182711E0,-9.399758339E0,-5.584023595E-1
2.083295506E1,-2.497689724E0,-9.458059311E0,-6.906947494E-1
2.085322496E1,-2.287059546E0,-9.502768517E0,-7.982029915E-1
2.087349485E1,-2.127438784E0,-9.536790848E0,-8.330714107E-1
2.089376475E1,-2.011280537E0,-9.564580917E0,-8.024539948E-1
2.091403470E1,-1.936405897E0,-9.579769135E0,-8.054359555E-1
2.093430459E1,-1.878939271E0,-9.581711769E0,-9.114728570E-1
2.095457449E1,-1.829711080E0,-9.565828323E0,-1.147820354E0
2.097484438E1,-1.758998275E0,-9.536689758E0,-1.458719373E0
2.099460553E1,-1.633008838E0,-9.522107124E0,-1.683198571E0
2.101500553E1,-1.484082580E0,-9.527161598E0,-1.789156914E0
2.103540553E1,-1.339946151E0,-9.534824371E0,-1.860660672E0
2.105580553E1,-1.182455063E0,-9.543230057E0,-1.923265457E0
2.107619725E1,-1.035036922E0,-9.547478676E0,-1.986132860E0
2.109646715E1,-9.076820016E-1,-9.545619011E0,-2.056125402E0
2.111673579E1,-7.820805311E-1,-9.541791916E0,-2.124371529E0
2.113700527E1,-6.585401893E-1,-9.537218094E0,-2.185904980E0
2.115727485E1,-5.524034500E-1,-9.531181335E0,-2.240941286E0
2.117754444E1,-4.763856828E-1,-9.529935837E0,-2.263575792E0
2.119781423E1,-4.649457932E-1,-9.537778854E0,-2.232707024E0
2.121808392E1,-5.202906728E-1,-9.562656403E0,-2.110757351E0
2.123835371E1,-6.289353371E-1,-9.594448090E0,-1.929090977E0
2.125862350E1,-8.123795986E-1,-9.619512558E0,-1.724934578E0
2.127889329E1,-1.036267638E0,-9.643723488E0,-1.447456121E0
2.129916308E1,-1.307151318E0,-9.662895203E0,-1.044118285E0
2.131943293E1,-1.662023664E0,-9.645731926E0,-6.065604091E-1
2.133970277E1,-2.070757389E0,-9.583389282E0,-2.024668455E-1
2.135997261E1,-2.480586529E0,-9.486364365E0,1.611726135E-1
2.138024251E1,-2.876805305E0,-9.360348701E0,5.274954438E-1
2.140051241E1,-3.233470917E0,-9.222876549E0,8.084598184E-1
2.142078225E1,-3.535345793E0,-9.095038414E0,9.757069945E-1
2.144105209E1,-3.765890837E0,-8.988410950E0,1.094043374E0
2.146132199E1,-3.936089039E0,-8.905438423E0,1.170786381E0
2.148159188E1,-4.097929955E0,-8.827339172E0,1.206417918E0
2.150186178E1,-4.258394718E0,-8.754165649E0,1.183658361E0
2.152213168E1,-4.410300255E0,-8.687264442E0,1.118517995E0
2.154253168E1,-4.560420990E0,-8.616770744E0,1.060283303E0
2.156267142E1,-4.670150757E0,-8.561649323E0,1.028704643E0
2.158294131E1,-4.719327450E0,-8.536895752E0,1.009822607E0
2.160321110E1,-4.709660053E0,-8.545311928E0,9.834234715E-1
2.162348105E1,-4.654340267E0,-8.580384254E0,9.404746890E-1
2.164388105E1,-4.563297272E0,-8.634672165E0,8.883299828E-1
2.166402079E1,-4.453722954E0,-8.698812485E0,8.157246709E-1
2.168429069E1,-4.326714516E0,-8.771800041E0,7.109479904E-1
2.170456053E1,-4.177551270E0,-8.852156639E0,5.981390476E-1
2.172483043E1,-4.023453236E0,-8.929598808E0,4.944462180E-1
2.174523043E1,-3.883081675E0,-8.996584892E0,3.918265700E-1
2.176537017E1,-3.759370327E0,-9.052678108E0,2.941751480E-1
2.178564006E1,-3.658600330E0,-9.096259117E0,2.076268047E-1
2.180590996E1,-3.589995861E0,-9.125355721E0,1.008810103E-1
2.182617980E1,-3.536752939E0,-9.146612167E0,-3.549371287E-2
2.184644970E1,-3.507488012E0,-9.156211853E0,-1.780534983E-1
2.186671959E1,-3.497529745E0,-9.156061172E0,-3.228117228E-1
2.188698938E1,-3.478272915E0,-9.156479836E0,-4.805056155E-1
2.190725933E1,-3.439993382E0,-9.160521507E0,-6.493734121E-1
2.192752918E1,-3.368177652E0,-9.174163818E0,-8.127105236E-1
2.194779907E1,-3.259165287E0,-9.200492859E0,-9.482301474E-1
2.196806892E1,-3.152542591E0,-9.225184441E0,-1.061995864E0
2.198833881E1,-3.085266590E0,-9.238125801E0,-1.143916011E0
2.200860866E1,-3.123422623E0,-9.210316658E0,-1.258839488E0
2.202887850E1,-3.262098551E0,-9.137954712E0,-1.423682213E0
2.204914845E1,-3.639343023E0,-9.012243271E0,-1.305769682E0
2.206941829E1,-3.825489998E0,-8.957901001E0,-1.136668086E0
2.208968819E1,-3.889249563E0,-8.951299667E0,-9.583047628E-1
2.210995803E1,-3.876360893E0,-8.972648621E0,-7.973617911E-1
2.213022788E1,-3.751749277E0,-9.021399498E0,-8.420929909E-1
2.215041918E1,-3.461812019E0,-9.109110832E0,-1.100157022E0
2.217076751E1,-3.151692867E0,-9.161093712E0,-1.520391464E0
2.219103741E1,-2.940493822E0,-9.155829430E0,-1.922150970E0
2.221130730E1,-2.835963964E0,-9.177535057E0,-1.974981666E0
2.223157715E1,-2.806936979E0,-9.199975967E0,-1.911005020E0
2.225184699E1,-2.734803438E0,-9.225269318E0,-1.893577933E0
2.227211689E1,-2.642374277E0,-9.255739212E0,-1.876044273E0
2.229238678E1,-2.550620556E0,-9.289663315E0,-1.834901571E0
2.231265663E1,-2.469261408E0,-9.322577477E0,-1.778389454E0
2.233292652E1,-2.427277803E0,-9.348615646E0,-1.697676897E0
2.235319636E1,-2.481867790E0,-9.356398582E0,-1.571153760E0
2.237346621E1,-2.611746550E0,-9.344362259E0,-1.425502777E0
2.239373605E1,-2.801963806E0,-9.312439919E0,-1.264057398E0
2.241400595E1,-3.012649298E0,-9.274446487E0,-1.038739085E0
2.243427579E1,-3.196456671E0,-9.238854408E0,-7.724131942E-1
2.245454564E1,-3.327222109E0,-9.208230972E0,-5.553847551E-1
2.247481548E1,-3.409819603E0,-9.184243202E0,-4.395191073E-1
2.249508532E1,-3.482030869E0,-9.160665512E0,-3.578331172E-1
2.251535517E1,-3.555667400E0,-9.134911537E0,-2.846049368E-1
2.253562501E1,-3.660449028E0,-9.094789505E0,-2.372642756E-1
2.255589485E1,-3.846186161E0,-9.019641876E0,-1.526263058E-1
2.257616470E1,-4.126856327E0,-8.895616531E0,8.622684330E-2
2.259643454E1,-4.453036308E0,-8.730351448E0,3.490286767E-1
2.261670444E1,-4.739240170E0,-8.565612793E0,5.833139420E-1
2.263697423E1,-4.999516964E0,-8.405052185E0,7.282280922E-1
2.265724413E1,-5.233458996E0,-8.255392075E0,7.935882211E-1
2.267751397E1,-5.367460728E0,-8.164462090E0,8.380461931E-1
2.269778376E1,-5.443845272E0,-8.107712746E0,8.943836093E-1
2.271805360E1,-5.450407982E0,-8.098773003E0,9.345150590E-1
2.273832345E1,-5.422996521E0,-8.112751961E0,9.719870090E-1
2.275859329E1,-5.403032780E0,-8.122882843E0,9.982033372E-1
2.277886314E1,-5.387936115E0,-8.133912086E0,9.899397492E-1
2.279913298E1,-5.352462769E0,-8.161654472E0,9.533783197E-1
2.281940282E1,-5.281423092E0,-8.214909554E0,8.900752068E-1
2.283967267E1,-5.167826653E0,-8.296009064E0,8.001145720E-1
2.285994241E1,-5.012112141E0,-8.400652885E0,6.914700270E-1
2.288021230E1,-4.818213940E0,-8.521552086E0,5.816795230E-1
2.290048215E1,-4.573159695E0,-8.662211418E0,4.718944728E-1
2.292075199E1,-4.280640125E0,-8.816068649E0,3.513403237E-1
2.294115199E1,-3.968606234E0,-8.964377403E0,2.459305078E-1
2.296129162E1,-3.704125643E0,-9.078969002E0,1.489041448E-1
2.298156147E1,-3.558916807E0,-9.138031006E0,-2.942760289E-2
2.300183131E1,-3.539526463E0,-9.139485359E0,-3.345889151E-1
2.302210116E1,-3.527881861E0,-9.126594543E0,-6.555228233E-1
2.304250116E1,-3.568426609E0,-9.088156700E0,-9.176765084E-1
2.306264079E1,-3.611650229E0,-9.055803299E0,-1.057729244E0
2.308291064E1,-3.621160269E0,-9.045848846E0,-1.109141827E0
2.310318043E1,-3.570335865E0,-9.061488152E0,-1.145654559E0
2.312345027E1,-3.518553257E0,-9.069311142E0,-1.240068197E0
2.314385027E1,-3.521215916E0,-9.050046921E0,-1.366781592E0
2.316398991E1,-3.555375576E0,-9.025716782E0,-1.437403560E0
2.318425975E1,-3.603260279E0,-9.002459526E0,-1.463771939E0
2.320452954E1,-3.628989697E0,-8.986087799E0,-1.500350237E0
2.322479938E1,-3.677731514E0,-8.998007774E0,-1.296357870E0
2.324519939E1,-3.694866419E0,-9.010178566E0,-1.155433178E0
2.326533902E1,-3.695876360E0,-9.025650024E0,-1.023975968E0
2.328560886E1,-3.645178080E0,-9.056834221E0,-9.256319404E-1
2.330587866E1,-3.568916559E0,-9.083258629E0,-9.631381631E-1
2.332614845E1,-3.456025124E0,-9.110198021E0,-1.109307528E0
2.334654845E1,-3.333071709E0,-9.113306999E0,-1.417266965E0
2.336668808E1,-3.191382408E0,-9.092722893E0,-1.818748832E0
2.338695793E1,-3.101327419E0,-9.087263107E0,-1.993444085E0
2.340722772E1,-3.041457891E0,-9.115447998E0,-1.956665277E0
2.342749756E1,-2.943769217E0,-9.158894539E0,-1.902432084E0
2.344776735E1,-2.839884281E0,-9.204896927E0,-1.837202072E0
2.346803715E1,-2.750890255E0,-9.248048782E0,-1.754019141E0
2.348830699E1,-2.698014021E0,-9.280488014E0,-1.662419677E0
2.350857678E1,-2.712802649E0,-9.294831276E0,-1.554738283E0
2.352884657E1,-2.807673454E0,-9.288700104E0,-1.416833997E0
2.354911642E1,-2.950855494E0,-9.268959045E0,-1.244687676E0
2.356938621E1,-3.102384090E0,-9.243762970E0,-1.048073173E0
2.358965600E1,-3.238990307E0,-9.216675758E0,-8.557075262E-1
2.360992584E1,-3.353809357E0,-9.189594269E0,-6.882663965E-1
2.363019564E1,-3.477167130E0,-9.152591705E0,-5.565631390E-1
2.365046543E1,-3.596176863E0,-9.110570908E0,-4.851850271E-1
2.367073527E1,-3.677226543E0,-9.079831123E0,-4.528243840E-1
2.369100506E1,-3.764640570E0,-9.045717239E0,-4.157479703E-1
2.371127485E1,-3.904423475E0,-8.989336014E0,-3.430564702E-1
2.373154465E1,-4.116576672E0,-8.898200989E0,-2.149243057E-1
2.375181444E1,-4.438481808E0,-8.744724274E0,7.904909551E-3
2.377208423E1,-4.798684597E0,-8.548458099E0,2.586169541E-1
2.379235402E1,-5.086668968E0,-8.372699738E0,4.405369759E-1
2.381262386E1,-5.304022789E0,-8.229856491E0,5.542386770E-1
2.383289366E1,-5.460625648E0,-8.124562263E0,5.860441327E-1
2.385316345E1,-5.542010784E0,-8.069901466E0,5.772325397E-1
2.387343324E1,-5.568680286E0,-8.051080704E0,5.833249092E-1
2.389370303E1,-5.563663483E0,-8.051567078E0,6.231413484E-1
2.391397282E1,-5.528461933E0,-8.070517540E0,6.879174113E-1
2.393424261E1,-5.480381012E0,-8.100949287E0,7.144383788E-1
2.395451241E1,-5.421833992E0,-8.141595840E0,6.989488006E-1
2.397478220E1,-5.337797165E0,-8.201057434E0,6.488128304E-1
2.399450428E1,-5.218214989E0,-8.284757614E0,5.508395433E-1
2.401490428E1,-5.056263447E0,-8.392723083E0,4.083943665E-1
2.403530428E1,-4.864887238E0,-8.511478424E0,2.408301085E-1
2.405570428E1,-4.614632130E0,-8.652909279E0,5.208128691E-2
2.407610428E1,-4.309172630E0,-8.807756424E0,-1.576626450E-1
2.409640449E1,-3.969642401E0,-8.960536957E0,-3.479937017E-1
2.411667298E1,-3.661559820E0,-9.084100723E0,-4.924300909E-1
2.413694230E1,-3.424719095E0,-9.167764664E0,-6.275144219E-1
2.415721163E1,-3.291499853E0,-9.199070930E0,-8.446996212E-1
2.417748121E1,-3.251966715E0,-9.186655998E0,-1.095646024E0
2.419775079E1,-3.297871590E0,-9.145700455E0,-1.284745932E0
2.421802032E1,-3.406303644E0,-9.089452744E0,-1.396178246E0
2.423828996E1,-3.523289442E0,-9.040980339E0,-1.420390487E0
2.425855965E1,-3.627461910E0,-8.998967171E0,-1.424959302E0
2.427882933E1,-3.708532810E0,-8.948160172E0,-1.532187223E0
2.429909902E1,-3.804032803E0,-8.876121521E0,-1.707098722E0
2.431936871E1,-3.935993433E0,-8.795160294E0,-1.823044896E0
2.433963845E1,-4.081868649E0,-8.728560448E0,-1.822349906E0
2.435990819E1,-4.188382626E0,-8.742083549E0,-1.484526634E0
2.438017793E1,-4.170752048E0,-8.788265228E0,-1.241618395E0
2.440057793E1,-4.134948730E0,-8.819943428E0,-1.131890893E0
2.442071746E1,-4.093040943E0,-8.859728813E0,-9.605314732E-1
2.444098725E1,-4.043476582E0,-8.888998985E0,-8.979929686E-1
2.446125699E1,-3.905058622E0,-8.917525291E0,-1.182644248E0
2.448152673E1,-3.717432499E0,-8.927847862E0,-1.626229286E0
2.450179647E1,-3.545775652E0,-8.915513992E0,-2.027681589E0
2.452206626E1,-3.377208948E0,-8.913783073E0,-2.304194927E0
2.454246626E1,-3.266019821E0,-8.940443993E0,-2.360499620E0
2.456260579E1,-3.075246572E0,-9.005387306E0,-2.369863749E0
2.458287553E1,-2.834829807E0,-9.072443008E0,-2.413483381E0
2.460314532E1,-2.624611616E0,-9.118563652E0,-2.476611614E0
2.462341506E1,-2.459405899E0,-9.152456284E0,-2.520767927E0
2.464381506E1,-2.349501371E0,-9.181931496E0,-2.518401623E0
2.466395459E1,-2.314216614E0,-9.207579613E0,-2.456680298E0
2.468422428E1,-2.352678061E0,-9.228584290E0,-2.338484764E0
2.470449407E1,-2.419090748E0,-9.250257492E0,-2.179709673E0
2.472476381E1,-2.490828753E0,-9.271898270E0,-1.999515295E0
2.474516381E1,-2.568303585E0,-9.287590027E0,-1.820677876E0
2.476530334E1,-2.665361643E0,-9.293766975E0,-1.640775323E0
2.478557308E1,-2.776645899E0,-9.292325020E0,-1.453728080E0
2.480584282E1,-2.907192945E0,-9.283567429E0,-1.238540292E0
2.482611256E1,-3.058155775E0,-9.263203621E0,-1.005546927E0
2.484651256E1,-3.219198227E0,-9.228803635E0,-7.977018356E-1
2.486665209E1,-3.390025139E0,-9.180156708E0,-6.347043514E-1
2.488692183E1,-3.554244041E0,-9.124310493E0,-5.335625410E-1
2.490719157E1,-3.703499317E0,-9.066070557E0,-5.107252598E-1
2.492746136E1,-3.874742270E0,-8.992119789E0,-5.463889837E-1
2.494773110E1,-4.045270920E0,-8.913670540E0,-5.938404202E-1
2.496800084E1,-4.225158215E0,-8.833189964E0,-5.414534211E-1
2.498827058E1,-4.488596916E0,-8.713772774E0,-3.050603867E-1
2.500854032E1,-4.814981461E0,-8.542928696E0,-6.863161176E-2
2.502881011E1,-5.108249187E0,-8.369217873E0,1.798866242E-1
2.504907985E1,-5.329698086E0,-8.223216057E0,3.787121475E-1
2.506934959E1,-5.485027313E0,-8.115623474E0,4.706557393E-1
2.508961933E1,-5.556502342E0,-8.065565109E0,4.922670722E-1
2.510988907E1,-5.582945824E0,-8.046148300E0,5.104892850E-1
2.513015881E1,-5.590280533E0,-8.034154892E0,6.095080376E-1
2.515042855E1,-5.573877811E0,-8.036087036E0,7.235977650E-1
2.517069829E1,-5.535350323E0,-8.057785034E0,7.761352062E-1
2.519096803E1,-5.470938206E0,-8.101216316E0,7.807197571E-1
2.521123777E1,-5.358979225E0,-8.178606987E0,7.497309446E-1
2.523150756E1,-5.198932171E0,-8.285540581E0,7.009281516E-1
2.525177730E1,-5.007616043E0,-8.408042908E0,6.316595078E-1
2.527204704E1,-4.785060406E0,-8.544408798E0,5.163844228E-1
2.529231678E1,-4.516974449E0,-8.697759628E0,3.410273492E-1
2.531258652E1,-4.193140507E0,-8.864296913E0,1.103630438E-1
2.533285626E1,-3.836825609E0,-9.024021149E0,-1.272618622E-1
2.535312600E1,-3.506445408E0,-9.152884483E0,-3.161488175E-1
2.537339574E1,-3.239809275E0,-9.244075775E0,-4.701909721E-1
2.539366548E1,-3.091152906E0,-9.279975891E0,-7.051278353E-1
2.541393522E1,-3.090323210E0,-9.251208305E0,-1.017563820E0
2.543420496E1,-3.203533411E0,-9.185700417E0,-1.237207651E0
2.545447470E1,-3.373986006E0,-9.109140396E0,-1.345421314E0
2.547474444E1,-3.583774805E0,-9.026524544E0,-1.359707713E0
2.549501423E1,-3.724943876E0,-8.969356537E0,-1.358613491E0
2.551528397E1,-3.841167688E0,-8.910881996E0,-1.418450713E0
2.553555371E1,-3.921721935E0,-8.869773865E0,-1.455190778E0
2.555582345E1,-3.984624147E0,-8.839770317E0,-1.466836452E0
2.557609319E1,-4.086390018E0,-8.836594582E0,-1.177456617E0
2.559636293E1,-4.134224892E0,-8.851122856E0,-8.580133319E-1
2.561663267E1,-4.220892906E0,-8.816877365E0,-7.855796218E-1
2.563690246E1,-4.263456345E0,-8.789526939E0,-8.587914705E-1
2.565717220E1,-4.375688076E0,-8.740718842E0,-7.896651030E-1
2.567744194E1,-4.349908352E0,-8.735839844E0,-9.663203359E-1
2.569771168E1,-4.040986061E0,-8.810532570E0,-1.488396049E0
2.571798142E1,-3.790532112E0,-8.848088264E0,-1.874461412E0
2.573825121E1,-3.557941675E0,-8.905450821E0,-2.050458908E0
2.575852095E1,-3.440286160E0,-8.949948311E0,-2.057485104E0
2.577879069E1,-3.331830740E0,-8.997021675E0,-2.030488253E0
2.579906043E1,-3.179103374E0,-9.038449287E0,-2.090481520E0
2.581933022E1,-3.005604506E0,-9.075777054E0,-2.183348179E0
2.583959996E1,-2.853019238E0,-9.110284805E0,-2.243520975E0
2.585986970E1,-2.741482496E0,-9.144560814E0,-2.243141651E0
2.588013944E1,-2.693448305E0,-9.171525955E0,-2.190623999E0
2.590040923E1,-2.719849348E0,-9.185967445E0,-2.095429182E0
2.592067897E1,-2.810227156E0,-9.186850548E0,-1.968450069E0
2.594094871E1,-2.948624849E0,-9.175795555E0,-1.811292768E0
2.596121850E1,-3.108780622E0,-9.160556793E0,-1.609371305E0
2.598148819E1,-3.250336409E0,-9.149311066E0,-1.376883030E0
2.600175803E1,-3.357232094E0,-9.141807556E0,-1.151839495E0
2.602202777E1,-3.427693605E0,-9.136538506E0,-9.720917344E-1
2.604242777E1,-3.483799458E0,-9.130115509E0,-8.212797046E-1
2.606256730E1,-3.539099455E0,-9.120134354E0,-6.843292117E-1
2.608283709E1,-3.601960897E0,-9.104874611E0,-5.454581976E-1
2.610310683E1,-3.656082153E0,-9.088706970E0,-4.459510148E-1
2.612337657E1,-3.765914917E0,-9.045159340E0,-4.163630307E-1
2.614377657E1,-3.934595346E0,-8.975440025E0,-3.616864085E-1
2.616391610E1,-4.125272751E0,-8.895328522E0,-1.601383388E-1
2.618418590E1,-4.343698978E0,-8.790408134E0,1.771700680E-1
2.620445569E1,-4.601278782E0,-8.646715164E0,4.826585352E-1
2.622472543E1,-4.894696236E0,-8.471876144E0,6.630665064E-1
2.624512543E1,-5.147013187E0,-8.316294670E0,7.196474671E-1
2.626526496E1,-5.315640450E0,-8.209825516E0,7.163192034E-1
2.628553475E1,-5.374214172E0,-8.170657158E0,7.270262837E-1
2.630580454E1,-5.361386776E0,-8.175526619E0,7.659527063E-1
2.632607428E1,-5.319659710E0,-8.199883461E0,7.959386110E-1
2.634647428E1,-5.267662525E0,-8.232584953E0,8.041538000E-1
2.636661386E1,-5.205869198E0,-8.275629997E0,7.637110353E-1
2.638688360E1,-5.125095844E0,-8.333710670E0,6.731022000E-1
2.640715340E1,-5.020541191E0,-8.406998634E0,5.356517434E-1
2.642742319E1,-4.884834766E0,-8.495288849E0,3.726241589E-1
2.644769298E1,-4.716916561E0,-8.595319748E0,2.038639188E-1
2.646796272E1,-4.502327442E0,-8.711949348E0,3.708385676E-2
2.648823251E1,-4.236039162E0,-8.843306541E0,-1.493254155E-1
2.650850230E1,-3.917823315E0,-8.983648300E0,-3.392929137E-1
2.652877209E1,-3.579847336E0,-9.116836548E0,-4.882285595E-1
2.654904188E1,-3.273094893E0,-9.225985527E0,-5.817385912E-1
2.656931162E1,-3.049757481E0,-9.292683601E0,-7.179052234E-1
2.658958142E1,-2.986728191E0,-9.291208267E0,-9.608860016E-1
2.660985121E1,-3.053461552E0,-9.237128258E0,-1.233780265E0
2.663012100E1,-3.233235121E0,-9.152114868E0,-1.398352623E0
2.665052100E1,-3.503501415E0,-9.039289474E0,-1.478887677E0
2.667066058E1,-3.784084320E0,-8.909919739E0,-1.569847107E0
2.669093038E1,-3.974315643E0,-8.804446220E0,-1.690247774E0
2.671120011E1,-4.013898849E0,-8.787798882E0,-1.683328748E0
2.673146991E1,-4.024363518E0,-8.792412758E0,-1.633509636E0
2.675173975E1,-4.011888027E0,-8.817623138E0,-1.524687409E0
2.677200954E1,-3.949059725E0,-8.898358345E0,-1.180905581E0
2.679227928E1,-3.855032444E0,-8.959726334E0,-1.016076088E0
2.681254907E1,-3.778312445E0,-8.999803543E0,-9.477804303E-1
2.683281886E1,-3.755530357E0,-9.008662224E0,-9.541413188E-1
2.685308866E1,-3.739600182E0,-8.998367310E0,-1.102351308E0
2.687335845E1,-3.568509579E0,-9.005935669E0,-1.526183963E0
2.689362829E1,-3.383128166E0,-8.983725548E0,-2.004367113E0
2.691389808E1,-3.258586645E0,-8.985422134E0,-2.194122791E0
2.693416788E1,-3.147257566E0,-9.032165527E0,-2.164517641E0
2.695443767E1,-3.035773039E0,-9.088110924E0,-2.088233232E0
2.697470746E1,-2.919711113E0,-9.134858131E0,-2.049399137E0
2.699439058E1,-2.788964510E0,-9.175415039E0,-2.050325871E0
2.701479058E1,-2.660509586E0,-9.209984779E0,-2.065977097E0
2.703519058E1,-2.591037989E0,-9.232041359E0,-2.055801153E0
2.705559058E1,-2.635004759E0,-9.240649223E0,-1.958964705E0
2.707599058E1,-2.755489826E0,-9.234177589E0,-1.818685889E0
2.709633006E1,-2.961001635E0,-9.206659317E0,-1.624895215E0
2.711659845E1,-3.169231892E0,-9.183303833E0,-1.339143276E0
2.713686777E1,-3.368988514E0,-9.151733398E0,-1.032510400E0
2.715713715E1,-3.503796816E0,-9.125421524E0,-7.877056003E-1
2.717740668E1,-3.584287167E0,-9.105792046E0,-6.386014819E-1
2.719767621E1,-3.621400118E0,-9.095895767E0,-5.661569238E-1
2.721794584E1,-3.628938437E0,-9.096677780E0,-5.016453266E-1
2.723821548E1,-3.656634808E0,-9.087622643E0,-4.631736577E-1
2.725848517E1,-3.722784758E0,-9.060338974E0,-4.706563950E-1
2.727875491E1,-3.867980480E0,-8.997120857E0,-5.108187795E-1
2.729902459E1,-4.098092079E0,-8.895756721E0,-4.914889932E-1
2.731929433E1,-4.378409863E0,-8.770936012E0,-2.657150924E-1
2.733956407E1,-4.667551994E0,-8.624611855E0,-2.041183040E-2
2.735983386E1,-4.970199108E0,-8.453215599E0,1.031677201E-1
2.738010360E1,-5.220648766E0,-8.300526619E0,1.283130795E-1
2.740037345E1,-5.383592606E0,-8.195721626E0,1.321191937E-1
2.742064324E1,-5.464671135E0,-8.140478134E0,2.009176016E-1
2.744104324E1,-5.460923672E0,-8.139510155E0,3.115901649E-1
2.746118288E1,-5.401239395E0,-8.171883583E0,4.661785662E-1
2.748145261E1,-5.313493729E0,-8.217739105E0,6.371388435E-1
2.750172246E1,-5.233076572E0,-8.259750366E0,7.495380044E-1
2.752199225E1,-5.149844170E0,-8.308509827E0,7.862257957E-1
2.754239225E1,-5.048111439E0,-8.371214867E0,7.808496952E-1
2.756253189E1,-4.923691750E0,-8.447112083E0,7.576090097E-1
2.758280173E1,-4.762772560E0,-8.543985367E0,6.976421475E-1
2.760307157E1,-4.563198566E0,-8.660255432E0,5.895775557E-1
2.762334136E1,-4.330308437E0,-8.787271500E0,4.501964450E-1
2.764374136E1,-4.064802647E0,-8.920207024E0,2.787085772E-1
2.766388100E1,-3.770074606E0,-9.052655220E0,7.973192632E-2
2.768415079E1,-3.459919930E0,-9.175014496E0,-1.358376592E-1
2.770442064E1,-3.198498726E0,-9.263392448E0,-3.599500656E-1
2.772469048E1,-3.016520977E0,-9.313357353E0,-5.765244961E-1
2.774509048E1,-2.950015068E0,-9.321555138E0,-7.592222691E-1
2.776523011E1,-3.039652586E0,-9.278412819E0,-9.175871611E-1
2.778549991E1,-3.202979088E0,-9.212920189E0,-1.016560316E0
2.780576975E1,-3.410546541E0,-9.131559372E0,-1.073867440E0
2.782603959E1,-3.607263088E0,-9.042313576E0,-1.180939436E0
2.784630944E1,-3.722771406E0,-8.966696739E0,-1.381923199E0
2.786657923E1,-3.794388294E0,-8.897425652E0,-1.615185499E0
2.788684907E1,-3.860511780E0,-8.847898483E0,-1.726713777E0
2.790711892E1,-3.873335838E0,-8.862360001E0,-1.620571971E0
2.792738876E1,-3.886785269E0,-8.899782181E0,-1.362780094E0
2.794758001E1,-3.817285538E0,-8.982357979E0,-9.570558071E-1
2.796792829E1,-3.741678953E0,-9.039179802E0,-6.807752848E-1
2.798819814E1,-3.669351578E0,-9.076164246E0,-5.740183592E-1
2.800846803E1,-3.640539408E0,-9.081552505E0,-6.650239229E-1
2.802873788E1,-3.623007774E0,-9.066233635E0,-9.206519723E-1
2.804900772E1,-3.531834841E0,-9.054796219E0,-1.306594253E0
2.806927756E1,-3.415245295E0,-9.025992393E0,-1.742969394E0
2.808954746E1,-3.267624378E0,-9.023321152E0,-2.018093109E0
2.810981725E1,-3.117314100E0,-9.072231293E0,-2.036508083E0
2.813008709E1,-2.976535320E0,-9.130718231E0,-1.985098124E0
2.815035694E1,-2.851002216E0,-9.179104805E0,-1.945816875E0
2.817062678E1,-2.739237547E0,-9.215801239E0,-1.932865858E0
2.819089662E1,-2.650724649E0,-9.243867874E0,-1.922226667E0
2.821116647E1,-2.597236633E0,-9.269317627E0,-1.872036219E0
2.823143631E1,-2.573518276E0,-9.295456886E0,-1.772537708E0
2.825170610E1,-2.569637537E0,-9.320349693E0,-1.642695904E0
2.827197595E1,-2.614312887E0,-9.336227417E0,-1.473297238E0
2.829224579E1,-2.631241798E0,-9.357416153E0,-1.298351526E0
2.831251564E1,-2.631584406E0,-9.377168655E0,-1.146238208E0
2.833278548E1,-2.604643345E0,-9.404626846E0,-9.691312909E-1
2.835305532E1,-2.547052383E0,-9.435875893E0,-8.044577241E-1
2.837332517E1,-2.485094786E0,-9.463234901E0,-6.647489071E-1
2.839359501E1,-2.491190910E0,-9.469545364E0,-5.404255390E-1
2.841386485E1,-2.514111280E0,-9.468595505E0,-4.419654012E-1
2.843413470E1,-2.538666010E0,-9.465449333E0,-3.616959751E-1
2.845440454E1,-2.580230236E0,-9.457845688E0,-2.489078194E-1
2.847467438E1,-2.679934025E0,-9.433135033E0,6.563978642E-2
2.849494423E1,-2.855568886E0,-9.365592003E0,5.493583083E-1
2.851521407E1,-3.104826927E0,-9.242574692E0,1.051303864E0
2.853548392E1,-3.399299145E0,-9.071200371E0,1.525937915E0
2.855575376E1,-3.758088827E0,-8.869978905E0,1.835928917E0
2.857602360E1,-4.176498413E0,-8.698985100E0,1.747830510E0
2.859629345E1,-4.488184929E0,-8.600562096E0,1.434191942E0
2.861656329E1,-4.700469017E0,-8.504883766E0,1.320201755E0
2.863683314E1,-4.850398064E0,-8.418783188E0,1.329706907E0
2.865710298E1,-4.940959454E0,-8.370891571E0,1.298256874E0
2.867737282E1,-4.998489380E0,-8.352300644E0,1.193547368E0
2.869764267E1,-5.012082100E0,-8.356282234E0,1.105428934E0
2.871791251E1,-4.978432178E0,-8.383907318E0,1.046759725E0
2.873818235E1,-4.906104565E0,-8.436256409E0,9.644223452E-1
2.875845220E1,-4.817538261E0,-8.496292114E0,8.801888227E-1
2.877872204E1,-4.711151600E0,-8.560659409E0,8.309909701E-1
2.879899189E1,-4.572338104E0,-8.640316963E0,7.804113626E-1
2.881926168E1,-4.404208660E0,-8.736495018E0,6.685718298E-1
2.883953157E1,-4.211086750E0,-8.842577934E0,4.959162474E-1
2.885980142E1,-3.972517252E0,-8.959194183E0,3.497772217E-1
2.888007121E1,-3.742743492E0,-9.059612274E0,2.927123606E-1
2.890047121E1,-3.712609053E0,-9.068781853E0,3.796301782E-1
2.892061095E1,-3.828382730E0,-9.014682770E0,4.993634522E-1
2.894088079E1,-3.910776138E0,-8.970039368E0,6.439082623E-1
2.896115064E1,-4.022632599E0,-8.917619705E0,6.818324924E-1
2.898142048E1,-4.162973881E0,-8.860825539E0,5.707805157E-1
2.900169032E1,-4.285478115E0,-8.814772606E0,3.238056898E-1
2.902196011E1,-4.297383785E0,-8.814817429E0,4.319663346E-2
2.904236011E1,-4.195237160E0,-8.862578392E0,-1.583668739E-1
2.906249985E1,-4.041620255E0,-8.930475235E0,-2.868551612E-1
2.908276965E1,-3.965167522E0,-8.967494965E0,-1.784723252E-1
2.910303949E1,-3.931354761E0,-8.984112740E0,-2.348464541E-2
2.912330933E1,-3.908366203E0,-8.993864059E0,7.397899032E-2
2.914370933E1,-3.845128536E0,-9.021290779E0,4.107424244E-2
2.916384907E1,-3.721195936E0,-9.072222710E0,-1.336189061E-1
2.918411886E1,-3.457540512E0,-9.167073250E0,-4.249252975E-1
2.920438871E1,-3.129425526E0,-9.271200180E0,-6.495706439E-1
2.922465855E1,-2.823556662E0,-9.357519150E0,-7.967098951E-1
2.924505855E1,-2.520335674E0,-9.429249763E0,-9.526562691E-1
2.926519824E1,-2.304326296E0,-9.478789330E0,-1.006484866E0
2.928546808E1,-2.195775509E0,-9.510030746E0,-9.530283809E-1
2.930573793E1,-2.179569006E0,-9.511461258E0,-9.756866097E-1
2.932600777E1,-2.177550077E0,-9.489772797E0,-1.171697140E0
2.934640777E1,-2.126467943E0,-9.460881233E0,-1.462954044E0
2.936654746E1,-2.000081778E0,-9.447277069E0,-1.708512425E0
2.938681730E1,-1.817093253E0,-9.457197189E0,-1.852022767E0
2.940708715E1,-1.604305387E0,-9.474272728E0,-1.958253503E0
2.942735699E1,-1.380445004E0,-9.485758781E0,-2.070059299E0
2.944762683E1,-1.169924617E0,-9.484119415E0,-2.202985525E0
2.946789668E1,-9.972357750E-1,-9.465662003E0,-2.361598969E0
2.948816652E1,-8.523195982E-1,-9.437973976E0,-2.523606062E0
2.950843636E1,-7.273933887E-1,-9.415776253E0,-2.642812729E0
2.952870621E1,-6.204237938E-1,-9.414459229E0,-2.674587965E0
2.954897605E1,-5.246588588E-1,-9.431038857E0,-2.636405230E0
2.956924584E1,-4.610916078E-1,-9.456023216E0,-2.557615757E0
2.958951569E1,-4.320097268E-1,-9.485854149E0,-2.449962139E0
2.960978553E1,-4.268758893E-1,-9.521059990E0,-2.310320616E0
2.963005538E1,-4.661421180E-1,-9.553307533E0,-2.165041685E0
2.965032522E1,-6.164269447E-1,-9.573174477E0,-2.035862923E0
2.967059506E1,-8.633748889E-1,-9.586604118E0,-1.876694798E0
2.969086491E1,-1.159521341E0,-9.617538452E0,-1.526059628E0
2.971113470E1,-1.479642034E0,-9.638434410E0,-1.040010571E0
2.973140454E1,-1.821416497E0,-9.619488716E0,-5.641570091E-1
2.975167438E1,-2.164358377E0,-9.563676834E0,-1.483880579E-1
2.977194418E1,-2.468172312E0,-9.488245010E0,2.274092436E-1
2.979221402E1,-2.744828224E0,-9.398017883E0,5.599713326E-1
2.981248386E1,-3.005527973E0,-9.297446251E0,8.334805965E-1
2.983275371E1,-3.265195370E0,-9.187026024E0,1.052350283E0
2.985302355E1,-3.487731695E0,-9.081697464E0,1.236482024E0
2.987329334E1,-3.713947296E0,-8.968114853E0,1.396393418E0
2.989356319E1,-3.961024761E0,-8.844105721E0,1.504149199E0
2.991383303E1,-4.222698689E0,-8.717421532E0,1.531589866E0
2.993410282E1,-4.446418285E0,-8.607814789E0,1.518318534E0
2.995437267E1,-4.578317642E0,-8.541862488E0,1.498656750E0
2.997464251E1,-4.642171383E0,-8.514700890E0,1.456194520E0
2.999432569E1,-4.651224136E0,-8.521556854E0,1.385487556E0
3.001472569E1,-4.627257824E0,-8.551568985E0,1.276542306E0
3.003512569E1,-4.576636791E0,-8.599141121E0,1.131175876E0
3.005552569E1,-4.494486332E0,-8.664511681E0,9.466865659E-1
3.007592569E1,-4.373540878E0,-8.749204636E0,7.028073668E-1
3.009626527E1,-4.224906921E0,-8.840405464E0,4.096027315E-1
3.011653366E1,-4.044236660E0,-8.932884216E0,1.346594095E-1
3.013680303E1,-3.870695591E0,-9.010358810E0,-3.935197368E-2
3.015707246E1,-3.780903101E0,-9.047704697E0,1.191620082E-1
3.017734199E1,-3.905683994E0,-8.989021301E0,3.369276822E-1
3.019761157E1,-4.087365150E0,-8.913622856E0,1.056621447E-1
3.021788116E1,-4.274958134E0,-8.824640274E0,-1.443591863E-1
3.023815084E1,-4.452991962E0,-8.731592178E0,-3.170776963E-1
3.025842058E1,-4.506052971E0,-8.690418243E0,-5.852335095E-1
3.027869027E1,-4.421699047E0,-8.721481323E0,-7.448000312E-1
3.029896001E1,-4.292371273E0,-8.794919014E0,-6.287530661E-1
3.031922975E1,-4.195793152E0,-8.846926689E0,-5.455259681E-1
3.033949954E1,-4.143568993E0,-8.871303558E0,-5.488209724E-1
3.035976928E1,-4.132044315E0,-8.873588562E0,-5.966724753E-1
3.038003902E1,-4.117715359E0,-8.875063896E0,-6.693605185E-1
3.040030886E1,-4.058781147E0,-8.893179893E0,-7.797638178E-1
3.042057866E1,-3.917665482E0,-8.944852829E0,-9.010444880E-1
3.044084850E1,-3.736531973E0,-9.017401695E0,-9.461404681E-1
3.046111824E1,-3.535045624E0,-9.099493980E0,-9.343684912E-1
3.048138808E1,-3.355751753E0,-9.168298721E0,-9.228345156E-1
3.050165788E1,-3.213166952E0,-9.217940331E0,-9.356970787E-1
3.052192767E1,-3.168041229E0,-9.228035927E0,-9.885556698E-1
3.054232767E1,-3.188702583E0,-9.209753036E0,-1.087664485E0
3.056246730E1,-3.251335144E0,-9.177177429E0,-1.174150705E0
3.058273715E1,-3.275155544E0,-9.151284218E0,-1.302973986E0
3.060300694E1,-3.216235876E0,-9.146998405E0,-1.469226241E0
3.062327673E1,-3.131703854E0,-9.160681725E0,-1.563557148E0
3.064367673E1,-3.083911180E0,-9.180769920E0,-1.540563941E0
3.066381631E1,-3.082665920E0,-9.195205688E0,-1.454562664E0
3.068408610E1,-3.115375996E0,-9.204102516E0,-1.322611332E0
3.070435590E1,-3.171401024E0,-9.208655357E0,-1.145983100E0
3.072462574E1,-3.243677616E0,-9.206073761E0,-9.471800327E-1
3.074502574E1,-3.321296215E0,-9.196108818E0,-7.556242347E-1
3.076516532E1,-3.384988546E0,-9.184793472E0,-5.931184888E-1
3.078543517E1,-3.433501959E0,-9.174340248E0,-4.614421129E-1
3.080570496E1,-3.485057831E0,-9.159523964E0,-3.576196730E-1
3.082597480E1,-3.555896521E0,-9.135605812E0,-2.582693100E-1
3.084620527E1,-3.642706394E0,-9.103837013E0,-1.457290500E-1
3.086651433E1,-3.716997147E0,-9.074871063E0,-3.216285631E-2
3.088678413E1,-3.778098345E0,-9.049408913E0,6.757345051E-2
3.090705402E1,-3.855950594E0,-9.014739037E0,1.910874546E-1
3.092732381E1,-3.983498096E0,-8.953564644E0,3.685414791E-1
3.094772381E1,-4.187559605E0,-8.848837852E0,5.768836141E-1
3.096786345E1,-4.442860126E0,-8.706162453E0,7.963191271E-1
3.098813324E1,-4.710988522E0,-8.543310165E0,9.944039583E-1
3.100840303E1,-4.966544628E0,-8.386323929E0,1.083238721E0
3.102867282E1,-5.179725647E0,-8.248631477E0,1.140577078E0
3.104894261E1,-5.353496552E0,-8.130836487E0,1.183191538E0
3.106921241E1,-5.455819130E0,-8.070364952E0,1.128555894E0
3.108948225E1,-5.479595184E0,-8.072072029E0,9.930119514E-1
3.110975204E1,-5.478529930E0,-8.086256981E0,8.766710162E-1
3.113002183E1,-5.444602013E0,-8.118804932E0,7.821270227E-1
3.115042183E1,-5.361500740E0,-8.182144165E0,6.908041239E-1
3.117056142E1,-5.241438866E0,-8.266772270E0,5.984834433E-1
3.119083121E1,-5.082615376E0,-8.372897148E0,4.816692173E-1
3.121110100E1,-4.888223171E0,-8.494907379E0,3.349770904E-1
3.123137079E1,-4.661144733E0,-8.626666069E0,1.573570967E-1
3.125164058E1,-4.415285587E0,-8.756336212E0,-4.719497636E-2
3.127191038E1,-4.174931526E0,-8.870471954E0,-2.346069068E-1
3.129218017E1,-3.955792189E0,-8.965726852E0,-3.712756932E-1
3.131244985E1,-3.770772219E0,-9.040221214E0,-4.754489958E-1
3.133271975E1,-3.632525682E0,-9.089593887E0,-5.953581929E-1
3.135298954E1,-3.550816059E0,-9.109117508E0,-7.655448914E-1
3.137325933E1,-3.495014906E0,-9.113807678E0,-9.453954697E-1
3.139352912E1,-3.491516352E0,-9.095861435E0,-1.115799069E0
3.141379892E1,-3.548229218E0,-9.054927826E0,-1.260445118E0
3.143406866E1,-3.655821800E0,-8.998232841E0,-1.355412722E0
3.145433850E1,-3.863035202E0,-8.907925606E0,-1.377031326E0
3.147460824E1,-4.137001514E0,-8.788844109E0,-1.346038580E0
3.149487803E1,-4.327901363E0,-8.708099365E0,-1.268335462E0
3.151514782E1,-4.408664703E0,-8.676280022E0,-1.206736803E0
3.153541761E1,-4.429561138E0,-8.684535980E0,-1.062176347E0
3.155568741E1,-4.419494152E0,-8.705969810E0,-9.189891219E-1
3.157595692E1,-4.360101223E0,-8.748456001E0,-7.901971340E-1
3.159622666E1,-4.322676659E0,-8.773447037E0,-7.151817083E-1
3.161649645E1,-4.263333321E0,-8.797317505E0,-7.756162286E-1
3.163676624E1,-4.158442974E0,-8.820693970E0,-1.035897732E0
3.165703603E1,-3.994184256E0,-8.849508286E0,-1.379528284E0
3.167730577E1,-3.800808191E0,-8.867789268E0,-1.756861091E0
3.169757556E1,-3.703037262E0,-8.880719185E0,-1.894918919E0
3.171784535E1,-3.664894581E0,-8.902685165E0,-1.865778804E0
3.173811515E1,-3.590820789E0,-8.935404778E0,-1.853352785E0
3.175838488E1,-3.488493919E0,-8.973918915E0,-1.862683415E0
3.177865468E1,-3.374128580E0,-9.017024994E0,-1.865184426E0
3.179892447E1,-3.266936541E0,-9.057568550E0,-1.859561086E0
3.181919421E1,-3.189788342E0,-9.091073990E0,-1.829760551E0
3.183946400E1,-3.181056976E0,-9.108633995E0,-1.756139278E0
3.185973374E1,-3.244667530E0,-9.102540970E0,-1.669210792E0
3.188000353E1,-3.366744280E0,-9.074748039E0,-1.576186895E0
3.190027332E1,-3.507697582E0,-9.045507431E0,-1.430120230E0
3.192054306E1,-3.634682894E0,-9.024161339E0,-1.234495163E0
3.194094306E1,-3.720584631E0,-9.012340546E0,-1.051356554E0
3.196108264E1,-3.760636330E0,-9.012945175E0,-8.915303349E-1
3.198135238E1,-3.786415577E0,-9.017555237E0,-7.191222906E-1
3.200162218E1,-3.819923878E0,-9.014619827E0,-5.614342093E-1
3.202189186E1,-3.897203684E0,-8.989021301E0,-4.238788486E-1
3.204229186E1,-4.031402111E0,-8.936079025E0,-2.543165982E-1
3.206243145E1,-4.174572945E0,-8.873499870E0,-6.582312286E-2
3.208270124E1,-4.333930016E0,-8.795006752E0,1.878753752E-1
3.210297098E1,-4.557718754E0,-8.670313835E0,4.725061059E-1
3.212324077E1,-4.841554165E0,-8.499670982E0,6.966623664E-1
3.214364077E1,-5.153294086E0,-8.296898842E0,8.805772662E-1
3.216378030E1,-5.450393200E0,-8.103806496E0,8.899052739E-1
3.218405004E1,-5.677641392E0,-7.958966732E0,7.678694129E-1
3.220431983E1,-5.797103882E0,-7.880208492E0,6.828433275E-1
3.222458957E1,-5.838932991E0,-7.850405216E0,6.696240902E-1
3.224498957E1,-5.818939686E0,-7.866257191E0,6.575230360E-1
3.226512910E1,-5.774378777E0,-7.900727272E0,6.367577910E-1
3.228539884E1,-5.702998161E0,-7.952627182E0,6.339766383E-1
3.230566863E1,-5.600996971E0,-8.024383545E0,6.391403675E-1
3.232593837E1,-5.476289749E0,-8.111101151E0,6.250434518E-1
3.234633837E1,-5.320018768E0,-8.218216896E0,5.733135939E-1
3.236647790E1,-5.131174564E0,-8.342911720E0,4.870877266E-1
3.238674764E1,-4.918611526E0,-8.474896431E0,3.921540976E-1
3.240701744E1,-4.683559895E0,-8.610916138E0,2.945912480E-1
3.242728718E1,-4.421798706E0,-8.751986504E0,1.442908496E-1
3.244755697E1,-4.130139828E0,-8.894184113E0,-7.630857080E-2
3.246782671E1,-3.819142342E0,-9.025918961E0,-3.425574899E-1
3.248809645E1,-3.557607651E0,-9.120365143E0,-5.768507719E-1
3.250836624E1,-3.336023331E0,-9.192527771E0,-7.340064049E-1
3.252863598E1,-3.217134237E0,-9.216308594E0,-9.381325245E-1
3.254890572E1,-3.235707760E0,-9.184847832E0,-1.157215595E0
3.256917546E1,-3.355241776E0,-9.127849579E0,-1.262977004E0
3.258944525E1,-3.560232639E0,-9.049134254E0,-1.268193364E0
3.260971499E1,-3.780161858E0,-8.954672813E0,-1.301771641E0
3.262998473E1,-3.952478170E0,-8.858201981E0,-1.442417622E0
3.265025447E1,-4.102027416E0,-8.770387650E0,-1.556942582E0
3.267052426E1,-4.221600056E0,-8.716297150E0,-1.540984988E0
3.269079400E1,-4.351539135E0,-8.686524391E0,-1.333714485E0
3.271106374E1,-4.415796280E0,-8.691527367E0,-1.062302470E0
3.273133348E1,-4.502397537E0,-8.657476425E0,-9.730960131E-1
3.275160322E1,-4.600280762E0,-8.615692139E0,-8.818507791E-1
3.277187296E1,-4.638132572E0,-8.589877129E0,-9.338789582E-1
3.279214270E1,-4.515489101E0,-8.630878448E0,-1.135194421E0
3.281241249E1,-4.318500519E0,-8.692981720E0,-1.397503376E0
3.283268223E1,-4.074614048E0,-8.766908646E0,-1.645970106E0
3.285295197E1,-3.807872295E0,-8.840719223E0,-1.874080896E0
3.287322171E1,-3.725400925E0,-8.861465454E0,-1.940668583E0
3.289349145E1,-3.671257257E0,-8.885528564E0,-1.933809996E0
3.291376119E1,-3.578453064E0,-8.918419838E0,-1.956232309E0
3.293403093E1,-3.459701538E0,-8.959182739E0,-1.983410358E0
3.295430067E1,-3.355292320E0,-9.002171516E0,-1.968072772E0
3.297457040E1,-3.261153698E0,-9.047387123E0,-1.918340683E0
3.299480082E1,-3.184012175E0,-9.089934349E0,-1.845413089E0
3.301510983E1,-3.136870623E0,-9.123059273E0,-1.760747313E0
3.303537957E1,-3.128596544E0,-9.143088341E0,-1.669191837E0
3.305564936E1,-3.133941174E0,-9.155291557E0,-1.590420008E0
3.307591910E1,-3.135520220E0,-9.165878296E0,-1.524982691E0
3.309618884E1,-3.151349068E0,-9.176967621E0,-1.422205210E0
3.311645858E1,-3.198366880E0,-9.181469917E0,-1.281193018E0
3.313672832E1,-3.256083727E0,-9.182091713E0,-1.121385932E0
3.315699806E1,-3.338403702E0,-9.174110413E0,-9.279838800E-1
3.317726780E1,-3.414586067E0,-9.166474342E0,-6.976680756E-1
3.319753754E1,-3.480357647E0,-9.155879974E0,-4.768245518E-1
3.321780728E1,-3.566258669E0,-9.130084991E0,-3.061347306E-1
3.323807702E1,-3.685582876E0,-9.086544037E0,-1.469035000E-1
3.325834676E1,-3.845926523E0,-9.020933151E0,4.476398975E-2
3.327861650E1,-4.114637375E0,-8.895042419E0,3.440578580E-1
3.329888624E1,-4.524188519E0,-8.673544884E0,6.868175268E-1
3.331915598E1,-4.903076172E0,-8.436198235E0,9.801954627E-1
3.333942572E1,-5.240375996E0,-8.206683159E0,1.165849805E0
3.335969541E1,-5.502308846E0,-8.031202316E0,1.181008101E0
3.337996514E1,-5.645821095E0,-7.942918301E0,1.097788334E0
3.340031358E1,-5.660449028E0,-7.933874607E0,1.087819815E0
3.342050473E1,-5.639332771E0,-7.935291290E0,1.182991028E0
3.344077447E1,-5.585908890E0,-7.964841366E0,1.236657023E0
3.346104416E1,-5.486220360E0,-8.038973808E0,1.202776313E0
3.348131384E1,-5.341313362E0,-8.146729469E0,1.127628803E0
3.350158358E1,-5.177115440E0,-8.267719269E0,1.006321907E0
3.352185332E1,-5.002336025E0,-8.391969681E0,8.496324420E-1
3.354225332E1,-4.825952530E0,-8.511734962E0,6.564596891E-1
3.356239275E1,-4.657019615E0,-8.619477272E0,4.326173961E-1
3.358266249E1,-4.473629475E0,-8.724850655E0,1.843777150E-1
3.360293218E1,-4.258182526E0,-8.833709717E0,-6.192568690E-2
3.362320192E1,-4.018068314E0,-8.941407204E0,-2.770458758E-1
3.364360192E1,-3.797594786E0,-9.031063080E0,-4.342213571E-1
3.366374134E1,-3.628356695E0,-9.093683243E0,-5.570936799E-1
3.368401108E1,-3.512676001E0,-9.127670288E0,-7.191151977E-1
3.370428077E1,-3.460695505E0,-9.125144958E0,-9.621276259E-1
3.372455046E1,-3.446123838E0,-9.098058701E0,-1.232857108E0
3.374495046E1,-3.501540899E0,-9.051514626E0,-1.407008410E0
3.376508994E1,-3.620696068E0,-8.986351013E0,-1.518698692E0
3.378535962E1,-3.797595024E0,-8.911128044E0,-1.529850841E0
3.380562936E1,-3.965530396E0,-8.830060959E0,-1.573208094E0
3.382589900E1,-4.114203453E0,-8.742159843E0,-1.678794026E0
3.384629900E1,-4.257351398E0,-8.669775963E0,-1.697149277E0
3.386643853E1,-4.328783035E0,-8.640538216E0,-1.665270805E0
3.388670822E1,-4.351084709E0,-8.661208153E0,-1.490614533E0
3.390697796E1,-4.300806999E0,-8.723871231E0,-1.252009749E0
3.392724764E1,-4.229748726E0,-8.767671585E0,-1.186406016E0
3.394764764E1,-4.177286625E0,-8.790219307E0,-1.205287457E0
3.396778707E1,-4.143495083E0,-8.798974037E0,-1.256935239E0
3.398805681E1,-4.043709755E0,-8.813698769E0,-1.462024927E0
3.400832650E1,-3.895594835E0,-8.822240829E0,-1.778420687E0
3.402859624E1,-3.715008736E0,-8.822938919E0,-2.127170563E0
3.404886593E1,-3.555180073E0,-8.847620010E0,-2.291438341E0
3.406913567E1,-3.427531242E0,-8.891584396E0,-2.315632105E0
3.408940535E1,-3.275336742E0,-8.939765930E0,-2.350136280E0
3.410967509E1,-3.140710354E0,-8.979610443E0,-2.381787300E0
3.412994478E1,-3.034298420E0,-9.015761375E0,-2.383164644E0
3.415021447E1,-2.965769768E0,-9.047485352E0,-2.348959684E0
3.417048421E1,-2.963619232E0,-9.070066452E0,-2.263015509E0
3.419075390E1,-3.040774822E0,-9.077548027E0,-2.126544952E0
3.421102363E1,-3.154600143E0,-9.074826241E0,-1.966318488E0
3.423129332E1,-3.281766176E0,-9.067995071E0,-1.780974030E0
3.425156301E1,-3.413803339E0,-9.057067871E0,-1.576660037E0
3.427183275E1,-3.547155857E0,-9.040060997E0,-1.365785480E0
3.429210244E1,-3.677282095E0,-9.016184807E0,-1.164639592E0
3.431237212E1,-3.804020405E0,-8.982816696E0,-1.004402995E0
3.433264181E1,-3.884715557E0,-8.961119652E0,-8.818835616E-1
3.435291155E1,-3.944975615E0,-8.943074226E0,-7.930728793E-1
3.437318124E1,-3.983089447E0,-8.931848526E0,-7.262650728E-1
3.439345098E1,-4.007323742E0,-8.926268578E0,-6.583966613E-1
3.441372067E1,-4.083287239E0,-8.896018982E0,-5.983233452E-1
3.443399035E1,-4.197873592E0,-8.848421097E0,-5.036744475E-1
3.445426004E1,-4.329515457E0,-8.792122841E0,-3.524771035E-1
3.447452973E1,-4.496897221E0,-8.714250565E0,-1.007203981E-1
3.449479947E1,-4.710967064E0,-8.599545479E0,1.580514461E-1
3.451506916E1,-5.019430161E0,-8.418685913E0,3.185124695E-1
3.453533884E1,-5.340418816E0,-8.214285851E0,4.192916751E-1
3.455560853E1,-5.593830109E0,-8.043728828E0,4.217649996E-1
3.457587827E1,-5.751771450E0,-7.932149410E0,4.105122089E-1
3.459614796E1,-5.775027275E0,-7.910035610E0,5.007807612E-1
3.461641765E1,-5.712570190E0,-7.947794437E0,6.078640819E-1
3.463668733E1,-5.624496460E0,-8.003296852E0,6.947543621E-1
3.465695702E1,-5.539685249E0,-8.057192802E0,7.509433031E-1
3.467722671E1,-5.449359417E0,-8.117121696E0,7.663064599E-1
3.469749640E1,-5.351674557E0,-8.184329987E0,7.393932939E-1
3.471776613E1,-5.240280151E0,-8.262310028E0,6.664020419E-1
3.473803582E1,-5.104778767E0,-8.355294228E0,5.483457446E-1
3.475830551E1,-4.949536324E0,-8.456749916E0,3.947608471E-1
3.477857520E1,-4.769924164E0,-8.565957069E0,2.064278275E-1
3.479884488E1,-4.545333385E0,-8.689587593E0,-3.754452243E-2
3.481911452E1,-4.267207146E0,-8.823843002E0,-3.180049062E-1
3.483938426E1,-3.968309402E0,-8.950673103E0,-5.552825332E-1
3.485965395E1,-3.679447889E0,-9.063991547E0,-6.900093555E-1
3.487992363E1,-3.462432384E0,-9.146685600E0,-7.211674452E-1
3.490019332E1,-3.443494081E0,-9.145550728E0,-8.195335269E-1
3.492046301E1,-3.526053190E0,-9.096604347E0,-9.945386052E-1
3.494073270E1,-3.724224329E0,-8.995258331E0,-1.177222848E0
3.496100238E1,-4.027443886E0,-8.845431328E0,-1.307067990E0
3.498127207E1,-4.313321114E0,-8.687532425E0,-1.446524739E0
3.500154176E1,-4.470320225E0,-8.587594032E0,-1.562004328E0
3.502181145E1,-4.403308868E0,-8.621496201E0,-1.565587521E0
3.504221145E1,-4.377271652E0,-8.644036293E0,-1.513449550E0
3.506235077E1,-4.354670525E0,-8.714055061E0,-1.128043413E0
3.508262051E1,-4.252589703E0,-8.795899391E0,-8.473637104E-1
3.510289014E1,-4.172291279E0,-8.840911865E0,-7.750182152E-1
3.512315983E1,-4.135577679E0,-8.856575012E0,-7.927588820E-1
3.514355983E1,-4.138384342E0,-8.852177620E0,-8.265008926E-1
3.516369921E1,-4.006136417E0,-8.878128052E0,-1.140223026E0
3.518396890E1,-3.760470152E0,-8.916559219E0,-1.588778496E0
3.520423858E1,-3.575407505E0,-8.935315132E0,-1.883349776E0
3.522450827E1,-3.430487871E0,-8.969317436E0,-1.988340139E0
3.524490827E1,-3.300093651E0,-9.013110161E0,-2.010878563E0
3.526504764E1,-3.120789766E0,-9.069746971E0,-2.042244196E0
3.528531733E1,-2.918089628E0,-9.123255730E0,-2.102702379E0
3.530558702E1,-2.741666794E0,-9.165365219E0,-2.156323671E0
3.532585671E1,-2.630086184E0,-9.195372581E0,-2.167525291E0
3.534625671E1,-2.596683502E0,-9.210767746E0,-2.142283440E0
3.536639603E1,-2.668039083E0,-9.218165398E0,-2.019251347E0
3.538666572E1,-2.900637627E0,-9.200525284E0,-1.762672305E0
3.540693540E1,-3.170356274E0,-9.160652161E0,-1.483803988E0
3.542720509E1,-3.428624868E0,-9.108257294E0,-1.206057191E0
3.544747478E1,-3.633794546E0,-9.059790611E0,-9.413347840E-1
3.546774447E1,-3.750656843E0,-9.031512260E0,-7.312579751E-1
3.548801416E1,-3.803504467E0,-9.018905640E0,-6.025588512E-1
3.550828379E1,-3.839036465E0,-9.010326385E0,-4.961918592E-1
3.552855348E1,-3.888085842E0,-8.995759964E0,-3.598315716E-1
3.554882317E1,-3.966692448E0,-8.963678360E0,-2.970035970E-1
3.556909280E1,-4.116207600E0,-8.891871452E0,-4.022924006E-1
3.558936249E1,-4.361938000E0,-8.775276184E0,-3.720419705E-1
3.560963223E1,-4.593213081E0,-8.664244652E0,-6.046002358E-2
3.562990192E1,-4.858424187E0,-8.513190269E0,3.028073013E-1
3.565030192E1,-5.165369511E0,-8.317473412E0,5.558635592E-1
3.567044129E1,-5.456171989E0,-8.123047829E0,6.454885006E-1
3.569071098E1,-5.689864635E0,-7.961951733E0,6.349390149E-1
3.571098067E1,-5.812580585E0,-7.874986172E0,6.073668599E-1
3.573125030E1,-5.810403824E0,-7.872192383E0,6.619568467E-1
3.575151999E1,-5.753427505E0,-7.906090260E0,7.498019934E-1
3.577178968E1,-5.644617558E0,-7.975088596E0,8.406166434E-1
3.579205936E1,-5.521390438E0,-8.053541183E0,9.083573818E-1
3.581232905E1,-5.404482841E0,-8.132154465E0,9.110525250E-1
3.583259874E1,-5.287022591E0,-8.216617584E0,8.396326900E-1
3.585286837E1,-5.158265591E0,-8.309441566E0,7.182252407E-1
3.587313806E1,-5.010277271E0,-8.410284042E0,5.784688592E-1
3.589340775E1,-4.837516308E0,-8.519649506E0,4.294226170E-1
3.591367744E1,-4.628482819E0,-8.641059875E0,2.821545899E-1
3.593394712E1,-4.371647358E0,-8.777438164E0,1.251249611E-1
3.595421676E1,-4.073925018E0,-8.920144081E0,-6.744157523E-2
3.597448645E1,-3.764057398E0,-9.050714493E0,-2.946754396E-1
3.599471681E1,-3.489441872E0,-9.150342941E0,-5.151740909E-1
3.601502577E1,-3.286861658E0,-9.212645531E0,-7.029090524E-1
3.603529540E1,-3.222359896E0,-9.219621658E0,-8.862096071E-1
3.605556514E1,-3.272901773E0,-9.183004379E0,-1.063452005E0
3.607583483E1,-3.407110929E0,-9.115616798E0,-1.211405158E0
3.609610452E1,-3.609484673E0,-9.021879196E0,-1.322011113E0
3.611637416E1,-3.845259190E0,-8.915421486E0,-1.378272057E0
3.613664384E1,-4.009257317E0,-8.834163666E0,-1.433101892E0
3.615691353E1,-4.113484383E0,-8.783946991E0,-1.446344733E0
3.617718322E1,-4.165441990E0,-8.776835442E0,-1.336654305E0
3.619745285E1,-4.227624416E0,-8.761533737E0,-1.238182664E0
3.621772254E1,-4.209651947E0,-8.802988052E0,-9.780689478E-1
3.623799223E1,-4.144557476E0,-8.859548569E0,-7.081181407E-1
3.625826186E1,-4.077873707E0,-8.897285461E0,-6.161392331E-1
3.627853155E1,-4.017211437E0,-8.922506332E0,-6.490563750E-1
3.629880124E1,-4.003813744E0,-8.923036575E0,-7.206022739E-1
3.631907087E1,-3.906781912E0,-8.945190430E0,-9.439392090E-1
3.633934056E1,-3.728628874E0,-8.977238655E0,-1.294953227E0
3.635961025E1,-3.563440561E0,-8.987483025E0,-1.642383933E0
3.637987988E1,-3.433190584E0,-9.007544518E0,-1.802144527E0
3.640014957E1,-3.344754219E0,-9.035507202E0,-1.828279018E0
3.642041926E1,-3.217758894E0,-9.079266548E0,-1.839380860E0
3.644081926E1,-3.068691969E0,-9.125829697E0,-1.863533616E0
3.646095853E1,-2.937940836E0,-9.167667389E0,-1.868890405E0
3.648122822E1,-2.821503162E0,-9.214798927E0,-1.815763235E0
3.650149790E1,-2.742161274E0,-9.261064529E0,-1.698125362E0
3.652176759E1,-2.727857351E0,-9.296550751E0,-1.517672300E0
3.654216759E1,-2.767693996E0,-9.319054604E0,-1.290525913E0
3.656230692E1,-2.815718174E0,-9.335125923E0,-1.047642827E0
3.658257655E1,-2.862008095E0,-9.345215797E0,-8.039036393E-1
3.660284624E1,-2.902069569E0,-9.346748352E0,-6.218289137E-1
3.662311587E1,-2.946669579E0,-9.339029312E0,-5.196729898E-1
3.664351587E1,-3.014223337E0,-9.320329666E0,-4.650747180E-1
3.666365520E1,-3.116330624E0,-9.287947655E0,-4.391964972E-1
3.668392488E1,-3.226012468E0,-9.249841690E0,-4.512958527E-1
3.670419452E1,-3.346495867E0,-9.205692291E0,-4.760141373E-1
3.672446421E1,-3.478514433E0,-9.162310600E0,-3.498472273E-1
3.674486421E1,-3.677669764E0,-9.090848923E0,-3.995661810E-2
3.676500353E1,-3.996902466E0,-8.950460434E0,2.905441523E-1
3.678527322E1,-4.359620094E0,-8.766276360E0,5.626026988E-1
3.680554285E1,-4.654891968E0,-8.600387573E0,7.319140434E-1
3.682581254E1,-4.816154957E0,-8.505441666E0,7.952983975E-1
3.684621254E1,-4.899967194E0,-8.455494881E0,8.156704307E-1
3.686635186E1,-4.896233559E0,-8.452451706E0,8.679511547E-1
3.688662150E1,-4.819276333E0,-8.487520218E0,9.523438811E-1
3.690689119E1,-4.735589981E0,-8.526929855E0,1.017857909E0
3.692716082E1,-4.678279400E0,-8.557511330E0,1.026206374E0
3.694756082E1,-4.624128342E0,-8.593929291E0,9.655034542E-1
3.696770014E1,-4.568696976E0,-8.636989594E0,8.365355134E-1
3.698796983E1,-4.509750843E0,-8.682149887E0,6.729176641E-1
3.700823942E1,-4.434703827E0,-8.732145309E0,5.034071207E-1
3.702850916E1,-4.328602791E0,-8.792644501E0,3.506795466E-1
3.704877879E1,-4.190218925E0,-8.863175392E0,2.378588021E-1
3.706904848E1,-4.023917675E0,-8.941674232E0,1.579139382E-1
3.708931811E1,-3.839276791E0,-9.023550034E0,7.675225288E-2
3.710958780E1,-3.651314735E0,-9.101467133E0,-3.987875208E-2
3.712985744E1,-3.489234686E0,-9.162535667E0,-2.087346762E-1
3.715012707E1,-3.375349522E0,-9.198195457E0,-4.130540192E-1
3.717039676E1,-3.314970493E0,-9.204135895E0,-6.820988655E-1
3.719066640E1,-3.293339729E0,-9.187366486E0,-9.574009180E-1
3.721093608E1,-3.364059925E0,-9.149239540E0,-1.070011139E0
3.723120572E1,-3.623932123E0,-9.063890457E0,-9.398940802E-1
3.725147540E1,-3.951014757E0,-8.950448990E0,-6.703180075E-1
3.727174504E1,-4.201681614E0,-8.845258713E0,-5.269178152E-1
3.729201473E1,-4.440714836E0,-8.725626945E0,-5.602357984E-1
3.731228436E1,-4.636978626E0,-8.620684624E0,-5.938016772E-1
3.733255400E1,-4.777315140E0,-8.542744637E0,-6.075836420E-1
3.735282369E1,-4.862999439E0,-8.499077797E0,-5.360104442E-1
3.737309332E1,-4.834902763E0,-8.528167725E0,-2.538787723E-1
3.739336301E1,-4.712913990E0,-8.599729538E0,-5.898186192E-2
3.741363264E1,-4.537922382E0,-8.692883492E0,1.069270745E-1
3.743390228E1,-4.413317204E0,-8.755602837E0,1.801265627E-1
3.745417197E1,-4.322061062E0,-8.802254677E0,1.023660302E-1
3.747444160E1,-4.171966553E0,-8.874658585E0,-7.430294901E-2
3.749471124E1,-3.920264959E0,-8.979052544E0,-4.225081205E-1
3.751498087E1,-3.647617817E0,-9.058400154E0,-9.003619552E-1
3.753525056E1,-3.386576414E0,-9.117792130E0,-1.251944065E0
3.755552020E1,-3.215319157E0,-9.161970139E0,-1.374929428E0
3.757578988E1,-2.999244928E0,-9.211179733E0,-1.526129127E0
3.759605952E1,-2.743503094E0,-9.262437820E0,-1.688434839E0
3.761632916E1,-2.505956650E0,-9.308288574E0,-1.801760435E0
3.763659884E1,-2.273750782E0,-9.349036217E0,-1.896302104E0
3.765686848E1,-2.055829048E0,-9.381365776E0,-1.983411551E0
3.767713811E1,-1.840184093E0,-9.407433510E0,-2.069856644E0
3.769740780E1,-1.616952300E0,-9.431290627E0,-2.146302700E0
3.771767744E1,-1.407071948E0,-9.449512482E0,-2.212971449E0
3.773794707E1,-1.241628289E0,-9.457775116E0,-2.275793552E0
3.775821676E1,-1.130436659E0,-9.454830170E0,-2.344927549E0
3.777848640E1,-1.069772482E0,-9.441598892E0,-2.425318956E0
3.779875603E1,-1.029992104E0,-9.426372528E0,-2.500600815E0
3.781902567E1,-9.962743521E-1,-9.418131828E0,-2.544918776E0
3.783929530E1,-9.757215381E-1,-9.425478935E0,-2.525612831E0
3.785956499E1,-9.810255766E-1,-9.447191238E0,-2.441017151E0
3.787983462E1,-9.897367358E-1,-9.487392426E0,-2.276003838E0
3.790010426E1,-1.006114721E0,-9.540714264E0,-2.032952309E0
3.792037390E1,-1.082135916E0,-9.585688591E0,-1.764635324E0
3.794064353E1,-1.249812245E0,-9.616014481E0,-1.463085532E0
3.796091322E1,-1.495658278E0,-9.639200211E0,-1.009563565E0
3.798118280E1,-1.807542682E0,-9.627854347E0,-4.556327164E-1
3.800145249E1,-2.136322021E0,-9.570689201E0,9.176851064E-2
3.802172212E1,-2.433881044E0,-9.481588364E0,5.882959366E-1
3.804212212E1,-2.741898060E0,-9.361480713E0,1.007494926E0
3.806226145E1,-3.044182777E0,-9.231224060E0,1.299170732E0
3.808253108E1,-3.306526661E0,-9.108691216E0,1.506325006E0
3.810280072E1,-3.508860826E0,-9.001942635E0,1.680269718E0
3.812307040E1,-3.672738314E0,-8.908587456E0,1.821658731E0
3.814347040E1,-3.821282387E0,-8.827569962E0,1.908454180E0
3.816360962E1,-3.967113256E0,-8.756948471E0,1.936040640E0
3.818387931E1,-4.116423607E0,-8.690790176E0,1.922397852E0
3.820414900E1,-4.237020016E0,-8.637414932E0,1.900816798E0
3.822441863E1,-4.314701080E0,-8.604793549E0,1.873840451E0
3.824481863E1,-4.367282391E0,-8.591916084E0,1.810026646E0
3.826495796E1,-4.384698868E0,-8.603755951E0,1.708856225E0
3.828522759E1,-4.382044315E0,-8.626633644E0,1.596641064E0
3.830549723E1,-4.380266666E0,-8.650110245E0,1.469440818E0
3.832576686E1,-4.386158466E0,-8.672984123E0,1.308187366E0
3.834616686E1,-4.397003651E0,-8.694342613E0,1.115865588E0
3.836630619E1,-4.392922878E0,-8.720198631E0,9.114632010E-1
3.838657587E1,-4.353666306E0,-8.759222984E0,7.014353275E-1
3.840684551E1,-4.277598858E0,-8.810836792E0,4.916066229E-1
3.842711514E1,-4.173868179E0,-8.869400978E0,2.879917622E-1
3.844738483E1,-4.041986942E0,-8.934131622E0,1.185055003E-1
3.846765447E1,-3.893255711E0,-9.000677109E0,2.745147794E-2
3.848792410E1,-3.761470795E0,-9.056043625E0,9.901300073E-2
3.850819379E1,-3.719329357E0,-9.067198753E0,3.505479991E-1
3.852846343E1,-3.795197964E0,-9.030877113E0,4.583870173E-1
3.854873306E1,-3.949298382E0,-8.967559814E0,3.953497112E-1
3.856900275E1,-4.148389816E0,-8.881585121E0,2.805154026E-1
3.858927238E1,-4.342918396E0,-8.791016579E0,1.658200026E-1
3.860954207E1,-4.498731136E0,-8.713686943E0,5.887941271E-2
3.862981171E1,-4.561405659E0,-8.681215286E0,-2.156237140E-2
3.865008134E1,-4.545671463E0,-8.689122200E0,-8.006555587E-2
3.867035103E1,-4.569983482E0,-8.675949097E0,-1.163843498E-1
3.869062072E1,-4.608569145E0,-8.656103134E0,-5.790919065E-2
3.871089035E1,-4.599104881E0,-8.661284447E0,-2.762755752E-2
3.873115999E1,-4.512637138E0,-8.705742836E0,-1.285242438E-1
3.875142968E1,-4.309486389E0,-8.804729462E0,-2.746804655E-1
3.877169931E1,-4.048115730E0,-8.924603462E0,-3.668763638E-1
3.879196900E1,-3.785270452E0,-9.038224220E0,-3.906479180E-1
3.881223863E1,-3.514877319E0,-9.146021843E0,-4.078090489E-1
3.883250832E1,-3.273403883E0,-9.229860306E0,-5.146788955E-1
3.885277796E1,-3.116463423E0,-9.270641327E0,-7.164131403E-1
3.887304764E1,-3.085334539E0,-9.269715309E0,-8.505727649E-1
3.889331728E1,-3.127902508E0,-9.253145218E0,-8.751541972E-1
3.891358697E1,-3.185492277E0,-9.224257469E0,-9.675230980E-1
3.893385660E1,-3.162001371E0,-9.205088615E0,-1.199360490E0
3.895412629E1,-3.051314354E0,-9.211403847E0,-1.417714834E0
3.897439593E1,-2.925322056E0,-9.240946770E0,-1.489217520E0
3.899462629E1,-2.844232559E0,-9.267186165E0,-1.483234406E0
3.901493520E1,-2.784337759E0,-9.287061691E0,-1.472524881E0
3.903520488E1,-2.750606298E0,-9.296092987E0,-1.478919268E0
3.905547457E1,-2.750235081E0,-9.296977043E0,-1.474043250E0
3.907574426E1,-2.767407894E0,-9.296366692E0,-1.445484281E0
3.909601390E1,-2.777519226E0,-9.298270226E0,-1.413488030E0
3.911628358E1,-2.773183346E0,-9.304935455E0,-1.377687573E0
3.913655322E1,-2.751287699E0,-9.319157600E0,-1.324426770E0
3.915682291E1,-2.734691858E0,-9.338011742E0,-1.222041845E0
3.917709254E1,-2.731331348E0,-9.355038643E0,-1.092457652E0
3.919736223E1,-2.755094528E0,-9.363524437E0,-9.509124160E-1
3.921763192E1,-2.770958185E0,-9.371094704E0,-8.214327097E-1
3.923790155E1,-2.746074438E0,-9.387016296E0,-7.165144086E-1
3.925817124E1,-2.688574314E0,-9.410076141E0,-6.264407039E-1
3.927844087E1,-2.634176493E0,-9.432025909E0,-5.180612206E-1
3.929871056E1,-2.624905825E0,-9.441127777E0,-3.812791109E-1
3.931898020E1,-2.695040226E0,-9.426245689E0,-2.302726507E-1
3.933924988E1,-2.875463724E0,-9.375499725E0,-4.572711885E-2
3.935951952E1,-3.118171453E0,-9.295992851E0,1.786658168E-1
3.937978921E1,-3.359283447E0,-9.202363014E0,4.495863914E-1
3.940005884E1,-3.579222679E0,-9.099305153E0,7.498062849E-1
3.942032853E1,-3.855541468E0,-8.954601288E0,1.058442950E0
3.944059822E1,-4.166208744E0,-8.782115936E0,1.299047828E0
3.946086785E1,-4.461678982E0,-8.612017632E0,1.448092341E0
3.948113754E1,-4.682750702E0,-8.483146667E0,1.509459019E0
3.950140718E1,-4.822830200E0,-8.401619911E0,1.524296761E0
3.952167681E1,-4.938508987E0,-8.329198837E0,1.551119328E0
3.954206535E1,-5.040030479E0,-8.265336990E0,1.566106319E0
3.956221619E1,-5.130178452E0,-8.211938858E0,1.554262877E0
3.958248587E1,-5.186722755E0,-8.180727959E0,1.531009078E0
3.960275556E1,-5.203218937E0,-8.176209450E0,1.498836160E0
3.962302520E1,-5.178750515E0,-8.199811935E0,1.453961253E0
3.964342520E1,-5.125125408E0,-8.245433807E0,1.384309053E0
3.966356452E1,-5.061392784E0,-8.302675247E0,1.272112250E0
3.968383421E1,-4.998175621E0,-8.364888191E0,1.103293777E0
3.970410384E1,-4.915891171E0,-8.439367294E0,8.840081692E-1
3.972437353E1,-4.794970989E0,-8.532466888E0,6.128933430E-1
3.974477353E1,-4.619083881E0,-8.645244598E0,3.069386482E-1
3.976491285E1,-4.391717434E0,-8.768297195E0,1.338821743E-2
3.978518254E1,-4.120735645E0,-8.896596909E0,-2.012290955E-1
3.980545218E1,-3.826765299E0,-9.024916649E0,-2.777056992E-1
3.982572186E1,-3.592724085E0,-9.121450424E0,-2.487239540E-1
3.984612186E1,-3.500594616E0,-9.153352737E0,-3.637882471E-1
3.986626119E1,-3.510541677E0,-9.133280754E0,-6.554899812E-1
3.988653082E1,-3.623132706E0,-9.065869331E0,-9.237401485E-1
3.990680051E1,-3.790504694E0,-8.975731850E0,-1.112974644E0
3.992707020E1,-3.942557573E0,-8.894297600E0,-1.232112646E0
3.994747020E1,-4.025749683E0,-8.837985992E0,-1.361515760E0
3.996760952E1,-4.040698528E0,-8.818804741E0,-1.439381242E0
3.998787916E1,-4.018974781E0,-8.828904152E0,-1.438293815E0
4.000814884E1,-4.075687408E0,-8.808437347E0,-1.403772831E0
4.002841848E1,-4.090626240E0,-8.836637497E0,-1.162327647E0
4.004868817E1,-4.136222363E0,-8.819963455E0,-1.127067804E0
4.006895780E1,-4.234241009E0,-8.785495758E0,-1.027944803E0
4.008922749E1,-4.251513481E0,-8.790266037E0,-9.089797139E-1
4.010949712E1,-4.266561508E0,-8.790570259E0,-8.323031664E-1
4.012976681E1,-4.110703468E0,-8.835038185E0,-1.102087021E0
4.015016681E1,-3.862150431E0,-8.872429848E0,-1.591906428E0
4.017030613E1,-3.671628475E0,-8.875424385E0,-1.978986263E0
4.019057577E1,-3.557991505E0,-8.903494835E0,-2.058849812E0
4.021084546E1,-3.490842104E0,-8.937862396E0,-2.024604559E0
4.023111509E1,-3.398554564E0,-8.979441643E0,-1.997459292E0
4.025138478E1,-3.300806284E0,-9.016859055E0,-1.992818713E0
4.027165442E1,-3.218204975E0,-9.052084923E0,-1.968073964E0
4.029192410E1,-3.170262337E0,-9.080932617E0,-1.912197113E0
4.031219374E1,-3.170305729E0,-9.098539352E0,-1.826508045E0
4.033246343E1,-3.229975700E0,-9.099235535E0,-1.715096951E0
4.035273306E1,-3.337864161E0,-9.084460258E0,-1.581653237E0
4.037300270E1,-3.486115694E0,-9.056023598E0,-1.416269422E0
4.039327238E1,-3.650887489E0,-9.017740250E0,-1.233600020E0
4.041354202E1,-3.789157391E0,-8.978668213E0,-1.093695045E0
4.043381171E1,-3.890366077E0,-8.946892738E0,-9.942551851E-1
4.045408134E1,-3.969170332E0,-8.921380997E0,-9.083141685E-1
4.047435103E1,-4.023212910E0,-8.905777931E0,-8.193113804E-1
4.049462067E1,-4.069130421E0,-8.893135071E0,-7.243736386E-1
4.051489035E1,-4.144216061E0,-8.864032745E0,-6.517529488E-1
4.053515999E1,-4.287086964E0,-8.801291466E0,-5.731927156E-1
4.055542962E1,-4.540805340E0,-8.680294991E0,-4.516094327E-1
4.057569931E1,-4.886379719E0,-8.500630379E0,-1.815443635E-1
4.059596895E1,-5.266756535E0,-8.271595955E0,1.111689880E-1
4.061623863E1,-5.616854668E0,-8.032852173E0,3.075807691E-1
4.063650827E1,-5.864265442E0,-7.844213963E0,4.990921617E-1
4.065677796E1,-5.992704868E0,-7.739006519E0,6.046919823E-1
4.067704759E1,-5.997172832E0,-7.732802391E0,6.388074160E-1
4.069731728E1,-5.946057796E0,-7.768184662E0,6.856399179E-1
4.071758692E1,-5.910447598E0,-7.789564610E0,7.481237054E-1
4.073785655E1,-5.870329857E0,-7.817851067E0,7.686504126E-1
4.075812624E1,-5.793242931E0,-7.873566628E0,7.846395373E-1
4.077839587E1,-5.697784901E0,-7.943150520E0,7.823090553E-1
4.079866551E1,-5.582932472E0,-8.026638985E0,7.578403950E-1
4.081893520E1,-5.457344055E0,-8.116947174E0,7.091932893E-1
4.083920478E1,-5.328174114E0,-8.209879875E0,6.154860258E-1
4.085947452E1,-5.188401699E0,-8.307147026E0,4.921128154E-1
4.087974416E1,-5.031426907E0,-8.409293175E0,3.727184236E-1
4.090001379E1,-4.847620487E0,-8.520648003E0,2.636932433E-1
4.092028348E1,-4.625662327E0,-8.646188736E0,1.305437982E-1
4.094068348E1,-4.353424549E0,-8.787245750E0,-4.897833243E-2
4.096082280E1,-4.038470268E0,-8.932776451E0,-2.581342161E-1
4.098109244E1,-3.741313219E0,-9.053157806E0,-4.618250132E-1
4.100136212E1,-3.506822348E0,-9.135985374E0,-6.374768615E-1
4.102163176E1,-3.334892511E0,-9.185125351E0,-8.260441422E-1
