"Time (s)","Acceleration x (m/s^2)","Acceleration y (m/s^2)","Acceleration z (m/s^2)"
4.601585000E-2,-4.977070987E-1,4.594219327E-1,9.665208817E0
6.613100600E-2,-4.378865361E-1,2.967100143E-1,9.200403214E0
8.640324600E-2,-3.972085714E-1,4.378865361E-1,9.243474007E0
1.066756420E-1,-3.038884699E-1,5.335994363E-1,9.030512810E0
1.269480380E-1,-5.718846321E-1,3.349951804E-1,9.145368576E0
1.472203810E-1,-1.295115232E0,5.647061467E-1,9.322437286E0
1.674927770E-1,-1.658824325E0,4.809573591E-1,9.059226990E0
1.877651210E-1,-1.187438250E0,2.440679073E-1,9.102297783E0
2.080376210E-1,-1.197009563E0,1.387837082E-1,9.324830055E0
2.283100690E-1,-2.267199516E0,2.536391914E-1,9.068798065E0
2.485825170E-1,-2.355733871E0,2.177468538E-1,8.628518105E0
2.688549130E-1,-2.202593327E0,1.914258152E-1,8.740981102E0
2.891274130E-1,-2.635694027E0,5.335994363E-1,9.195617676E0
3.093998610E-1,-3.236890793E0,5.575276613E-1,9.825528145E0
3.296722560E-1,-3.236890793E0,3.469592929E-1,1.038066292E1
3.499447040E-1,-3.047857761E0,1.028913707E-1,1.010548782E1
3.702171520E-1,-2.767299414E0,9.571290575E-3,9.200403214E0
3.906171520E-1,-3.110071182E0,1.986042857E-1,8.719446182E0
4.107620480E-1,-3.339782238E0,9.810572863E-2,9.004191399E0
4.310344960E-1,-4.039084435E0,-2.374876440E-1,9.490532875E0
4.513069440E-1,-4.532006264E0,-6.873382926E-1,1.005284595E1
4.715793920E-1,-4.290330887E0,-1.082752228E0,1.021555805E1
4.918518400E-1,-3.986442566E0,-1.362712502E0,9.686744690E0
5.121242880E-1,-3.972085476E0,-1.322034478E0,8.585447311E0
5.323967360E-1,-4.084548473E0,-1.324427366E0,8.115856171E0
5.526691310E-1,-4.594219685E0,-1.570888042E0,8.429914474E0
5.729415790E-1,-4.536791801E0,-1.884347796E0,9.083154678E0
5.932139750E-1,-4.369294167E0,-1.980060697E0,8.951549530E0
6.134864230E-1,-3.617349625E0,-2.109871387E0,7.436294556E0
6.337588710E-1,-4.177868366E0,-1.757528186E0,7.627720356E0
6.540313190E-1,-3.684348583E0,-1.441675663E0,8.101499557E0
6.743037150E-1,-3.948157310E0,-1.941775560E0,7.979465485E0
6.947037150E-1,-4.948955536E0,-2.193620205E0,8.444271088E0
7.148485590E-1,-5.262415409E0,-2.356332064E0,9.339186668E0
7.351210060E-1,-5.370092392E0,-3.035893679E0,9.641280174E0
7.553934020E-1,-5.255236626E0,-3.004786968E0,8.377271652E0
7.756658500E-1,-5.645267010E0,-2.892324448E0,7.737790108E0
7.960658500E-1,-5.051846981E0,-2.669791937E0,7.996214867E0
8.162106940E-1,-5.123631477E0,-2.420938253E0,8.599804878E0
8.364830900E-1,-5.678766251E0,-2.715255499E0,8.848658562E0
8.567554860E-1,-6.555137634E0,-2.818146944E0,8.475378036E0
8.770279340E-1,-7.070192814E0,-2.667398930E0,8.065607071E0
8.974279340E-1,-6.153143406E0,-2.418545485E0,8.709874153E0
9.175727250E-1,-4.455435753E0,-3.047857761E0,9.162117958E0
9.378451210E-1,-3.236890793E0,-3.436093330E0,9.176474571E0
9.581175170E-1,-2.971287489E0,-3.321237803E0,8.903693199E0
9.783899130E-1,-3.198605776E0,-3.589233875E0,8.927620888E0
9.987899130E-1,-3.145963669E0,-3.574877024E0,9.049654961E0
1.018934704E0,-2.805584431E0,-3.335594654E0,8.934800148E0
1.039207256E0,-2.870789051E0,-3.225524902E0,8.535198212E0
1.059479496E0,-3.200998545E0,-3.323630571E0,7.864609718E0
1.079751892E0,-2.966501951E0,-3.369094372E0,7.162914753E0
1.100024288E0,-2.465803623E0,-3.105285645E0,6.739385128E0
1.120296684E0,-2.216950178E0,-2.858824968E0,6.930810928E0
1.140569079E0,-2.087737799E0,-2.303689957E0,6.993024349E0
1.160841423E0,-1.579861164E0,-2.044667006E0,6.677171707E0
1.181113819E0,-1.005583763E0,-2.157727718E0,6.401997089E0
1.201513819E0,-5.312066078E-1,-2.227119684E0,5.985047817E0
1.221658559E0,-2.608176768E-1,-2.310868502E0,5.721837044E0
1.241930954E0,-5.264209956E-2,-2.020738840E0,5.511268616E0
1.262203350E0,-3.158525825E-1,-1.556531072E0,5.331807137E0
1.282475694E0,-1.634896040E0,-1.432104349E0,4.991427898E0
1.302748090E0,-2.729014158E0,-1.389033556E0,4.603790760E0
1.323020434E0,-3.330210924E0,-1.271785259E0,4.314259052E0
1.343292829E0,-3.991228104E0,-1.094716311E0,4.503292084E0
1.363565173E0,-4.441078663E0,-1.264606714E0,5.276772022E0
1.383837517E0,-5.255236626E0,-1.408176184E0,6.241677761E0
1.404109913E0,-7.012166977E0,-8.476574421E-1,6.528816700E0
1.424382256E0,-8.707481384E0,-2.398804724E-1,6.521637917E0
1.444654600E0,-8.843872070E0,-1.776670814E-1,6.904489517E0
1.464926944E0,-8.659625053E0,-6.825526357E-1,7.725826263E0
1.485199340E0,-9.150752068E0,-1.523031592E0,8.206783295E0
1.505471684E0,-1.001216793E1,-1.936989903E0,7.972286701E0
1.525744027E0,-1.147777176E1,-1.274178028E0,7.307082176E0
1.546016371E0,-1.272742367E1,-5.940182209E-1,7.148557663E0
1.566288715E0,-1.202094269E1,-6.993024349E-1,7.855038643E0
1.586561059E0,-9.265607834E0,-1.812563181E0,8.657232285E0
1.606833402E0,-8.506484032E0,-2.968894720E0,8.307282448E0
1.627105694E0,-1.086461163E1,-2.736790895E0,7.331010342E0
1.647378038E0,-1.270588779E1,-1.087537885E0,7.278368473E0
1.667650381E0,-1.170987606E1,-8.165507317E-1,7.740182877E0
1.687922725E0,-1.062532902E1,-1.585245013E0,8.386843681E0
1.708195017E0,-1.102253723E1,-1.946561217E0,8.489734650E0
1.728467361E0,-1.041954613E1,-2.090728760E0,7.804789066E0
1.748739704E0,-8.578269005E0,-1.903490424E0,7.285546780E0
1.769139704E0,-7.883752346E0,-9.074779749E-1,7.004988194E0
1.789284340E0,-7.845467091E0,-8.333004713E-1,6.555137634E0
1.809684340E0,-8.027321815E0,-1.762313843E0,5.245665550E0
1.829828975E0,-7.364510059E0,-2.162513494E0,4.364508629E0
1.850101319E0,-8.195417404E0,-1.817348838E0,3.614956856E0
1.870373559E0,-1.070429230E1,-4.360919297E-1,2.327019930E0
1.890645902E0,-1.164766216E1,3.349951804E-1,1.072582722E0
1.910918246E0,-1.086700439E1,2.967100143E-1,1.307079315E0
1.931190538E0,-1.046500969E1,-3.882354796E-1,1.680359721E0
1.951462881E0,-8.048856735E0,-6.281159073E-2,3.229712248E0
1.971735173E0,-1.072343445E1,1.252044439E0,4.438685894E0
1.992007465E0,-1.207597733E1,2.848655462E0,3.490530014E0
2.012279756E0,-8.750552177E0,3.404388428E0,2.324627161E0
2.032552048E0,-5.346164227E0,2.267199516E0,9.523434043E-1
2.052824340E0,-7.316653252E0,4.689932466E-1,3.900300860E-1
2.073096684E0,-9.916455269E0,2.465803623E0,2.087737799E0
2.093368975E0,-8.417949677E0,4.974678040E0,3.306282759E0
2.113641267E0,-6.222535133E0,3.863810301E0,3.801596880E0
2.133913506E0,-3.244069338E0,2.005783558E0,2.690729141E0
2.154185798E0,-7.259225845E0,-1.396211982E0,-1.850848317E0
2.174458090E0,-1.043629551E1,-1.824527234E-1,-3.232703447E0
2.194730381E0,-1.394836140E1,1.165902853E0,1.931606054E0
2.215130381E0,-1.098903847E1,3.181855917E0,3.866203070E0
2.235274965E0,-1.230389404E1,1.058225870E0,5.721837044E0
2.255547256E0,-1.279442310E1,8.853443712E-2,3.258426189E0
2.275819496E0,-1.067797089E1,2.197807550E0,3.182454109E-1
2.296091788E0,-1.175773239E1,1.500898004E0,2.597409010E0
2.316364079E0,-1.100100231E1,2.338984251E0,2.053640127E0
2.336636371E0,-1.075214863E1,7.082754970E-1,3.068794966E0
2.356908663E0,-9.543174744E0,-2.251047850E0,2.355733871E0
2.377180954E0,-9.059226990E0,-3.095714331E0,1.484148264E0
2.397453194E0,-9.641280174E0,-1.635494232E0,1.907677889E0
2.417725486E0,-1.158305645E1,-5.802594870E-2,7.178468108E-1
2.437997777E0,-1.204965687E1,3.165106058E0,8.877372146E-1
2.458270017E0,-9.268000603E0,6.679564476E0,5.151747227E0
2.478542309E0,-9.459425926E0,6.205187321E0,3.813561201E0
2.498814600E0,-9.521639824E0,5.096712112E0,1.077368379E0
2.519086892E0,-5.740979671E0,3.428316593E0,1.165902853E0
2.539359131E0,-5.874977589E0,2.365305185E0,1.039083242E0
2.559631423E0,-8.583054543E0,2.867797852E0,1.539183140E0
2.579903715E0,-8.910871506E0,3.299104214E0,2.731407166E0
2.600176006E0,-8.300702095E0,1.634896040E0,1.823929071E0
2.620448246E0,-7.780860901E0,5.024927258E-1,2.416750938E-1
2.640720538E0,-8.798408508E0,4.881358147E-1,3.637090325E-1
2.660992829E0,-1.013180923E1,1.055832982E0,1.125224829E0
2.681265069E0,-8.812766075E0,8.614161611E-1,3.248854876E0
2.701537361E0,-6.942774773E0,3.206382394E-1,4.129413605E0
2.721809652E0,-1.419482231E1,-2.418545485E0,1.079761267E0
2.742081892E0,-1.058225822E1,-2.056631088E0,1.127617717E0
2.762354184E0,-8.896514893E0,-2.992822886E0,4.122235298E0
2.782626475E0,-1.019940662E1,-2.464009047E0,4.596612453E0
2.802898819E0,-1.176730347E1,-7.734799385E-1,2.293520451E0
2.823171527E0,-1.109671497E1,6.221338734E-2,2.228914261E0
2.843443350E0,-8.573483467E0,-3.403790295E-1,2.798406124E0
2.863715590E0,-8.085348129E0,-1.544566989E0,3.241676569E0
2.883987881E0,-1.140120125E1,-2.008774519E0,3.044866800E0
2.904387881E0,-1.472423458E1,-1.051645517E0,1.185045362E0
2.924532465E0,-1.268913841E1,-6.514459848E-1,1.132403374E0
2.944804756E0,-8.365307808E0,-1.793420553E0,1.503290772E0
2.965077048E0,-6.325426579E0,-2.526222467E0,-8.691928387E-1
2.985349288E0,-6.820741177E0,-3.249453068E0,1.339980662E-1
3.005749288E0,-6.265605927E0,-5.507081509E0,-9.625129104E-1
3.025893871E0,-5.872584820E0,-5.128417015E0,-1.295713425E0
3.046166163E0,-5.530411243E0,-4.666602135E0,4.785645381E-2
3.066438402E0,-7.192226887E0,-3.768695593E0,1.204187989E0
3.086710694E0,-7.773682594E0,-3.802195072E0,8.733802438E-1
3.107118663E0,-7.754539967E0,-4.951348305E0,4.761717021E-1
3.127403871E0,-8.927620888E0,-4.700101852E0,1.698904037E-1
3.147528715E0,-1.067557812E1,-5.880361557E0,6.149554253E-1
3.167887413E0,-1.144187927E1,-5.961717606E0,1.016949654E0
3.188236788E0,-9.725028992E0,-5.099703312E0,7.657032460E-2
3.208507829E0,-8.717052460E0,-4.525425911E0,8.614161611E-1
3.228780173E0,-8.176275253E0,-5.111667156E0,3.059223652E0
3.248889444E0,-6.287141323E0,-5.748756409E0,2.729014158E0
3.269161684E0,-4.883750916E0,-3.766302824E0,3.184248686E0
3.289433871E0,-5.604588985E0,-5.157131195E0,2.496910334E0
3.309706111E0,-6.033502102E0,-5.356333256E0,3.445664644E-1
3.329978402E0,-7.259225845E0,-6.076572895E0,-3.020938635E-1
3.350250642E0,-8.382058144E0,-6.254240036E0,1.124626622E-1
3.370522934E0,-7.570292473E0,-6.203392506E0,1.443470240E0
3.390795173E0,-5.453841209E0,-6.304489613E0,2.350948334E0
3.411067465E0,-4.455435753E0,-5.700900078E0,2.398804665E0
3.431339756E0,-4.194618225E0,-5.217549801E0,1.747358680E0
3.451611996E0,-3.160320520E0,-4.982454777E0,9.116654396E-1
3.471884288E0,-2.202593327E0,-4.621138573E0,6.915257573E-1
3.492156579E0,-2.365305185E0,-5.509474277E0,6.340979934E-1
3.512428871E0,-3.567100286E0,-1.177029419E1,9.140582681E-1
3.532701163E0,-3.370888948E0,-2.461975288E1,9.571290612E-1
3.552973454E0,-2.202593327E0,-2.625046158E1,9.786644578E-1
3.573245746E0,-4.354937077E0,-1.211246777E1,2.848655462E0
3.593518038E0,-3.736990690E0,-7.060621262E0,2.717050076E0
3.613790329E0,-2.817548752E0,-5.456831932E0,1.646860242E0
3.634062621E0,-1.968096614E0,-7.213762283E0,9.786644578E-1
3.654334913E0,-1.345364571E0,-1.052542877E1,8.303094506E-1
3.674607204E0,-1.548754454E0,-1.047039413E1,3.302095234E-1
3.695007204E0,-2.207378864E0,-9.349356651E0,8.159525394E-1
3.715151840E0,-2.606980324E0,-9.404989243E0,2.094916344E0
3.735487934E0,-3.263211966E0,-9.400203705E0,2.121237278E0
3.755887934E0,-3.588635683E0,-9.737591743E0,1.007378340E0
3.775968663E0,-3.332603693E0,-9.677771568E0,9.786644578E-1
3.796241006E0,-2.944966555E0,-9.577272415E0,1.225723386E0
3.816513298E0,-2.283949137E0,-9.739984512E0,1.338186026E0
3.836785590E0,-1.723430514E0,-9.339784622E0,1.333400369E0
3.857057881E0,-1.280758262E0,-8.923434258E0,1.067797065E0
3.877330173E0,-7.513462901E-1,-9.035896301E0,7.944171429E-1
3.897602465E0,-1.007976532E0,-8.990432739E0,6.556333899E-1
3.917874756E0,-2.097309113E0,-8.315058708E0,4.498506486E-1
3.938146996E0,-1.642074585E0,-9.665806770E0,3.373879790E-1
3.958419288E0,-1.254437327E0,-1.022333431E1,3.924229145E-1
3.978691631E0,-4.139583111E-1,-1.230867958E1,6.125625968E-1
3.998963923E0,-1.314257860E0,-1.014915752E1,9.738788009E-1
4.019236215E0,-2.324627161E0,-8.722436905E0,9.978070259E-1
4.039508506E0,-3.227319479E0,-8.672187805E0,5.240281820E-1
4.059780798E0,-3.758526087E0,-9.570094109E0,-4.845465720E-2
4.080053090E0,-4.199403763E0,-9.799804688E0,-6.999006122E-2
4.100325381E0,-4.268795490E0,-9.184251785E0,-6.041877344E-2
4.120597673E0,-3.370888948E0,-9.339784622E0,-1.824527234E-1
4.140869965E0,-2.892324448E0,-9.716055870E0,-1.585244983E-1
4.161142256E0,-3.081357241E0,-9.644271851E0,7.178467698E-3
4.181414548E0,-2.286342144E0,-9.471988678E0,4.522434771E-1
4.201686840E0,-1.407577872E0,-9.644271851E0,7.130611539E-1
4.221959184E0,-1.130010486E0,-9.895518303E0,5.694918036E-1
4.242359184E0,-1.165902853E0,-9.888339996E0,2.225325108E-1
4.262503767E0,-1.608574986E0,-9.739984512E0,1.052841991E-1
4.282776059E0,-1.776072621E0,-9.723235130E0,8.135596663E-2
4.303048350E0,-1.649253011E0,-9.747162819E0,-2.392822644E-3
4.323320642E0,-1.402792215E0,-9.828518867E0,-1.154536903E-1
4.343592986E0,-1.235294700E0,-9.773484230E0,-1.489532143E-1
4.363865277E0,-1.158724308E0,-9.627521515E0,-1.704886109E-1
4.384137569E0,-1.371685624E0,-9.622735977E0,-1.274178028E-1
4.404537569E0,-1.785643935E0,-9.687342644E0,-1.495514158E-2
4.424682204E0,-2.008774519E0,-9.704092026E0,5.024927482E-2
4.444954496E0,-1.850848317E0,-9.761520386E0,1.124626622E-1
4.465226840E0,-1.465005636E0,-9.783055305E0,9.810572863E-2
4.485499131E0,-1.338186026E0,-9.759127617E0,4.785645287E-3
4.505899131E0,-1.666002750E0,-9.737591743E0,-1.226321608E-1
4.526043767E0,-2.032702923E0,-9.634700775E0,-1.920240223E-1
4.546316059E0,-2.149951220E0,-9.548559189E0,-1.609173268E-1
4.566588402E0,-2.044667006E0,-9.646664619E0,-3.170489892E-2
4.586860694E0,-1.982453585E0,-9.708877563E0,2.632104978E-2
4.607260694E0,-2.106880426E0,-9.649057388E0,1.674975827E-2
4.627405381E0,-2.185843468E0,-9.543772697E0,2.153540403E-2
4.647677621E0,-2.118844509E0,-9.529416084E0,2.632104978E-2
4.668085590E0,-1.867598057E0,-9.577272415E0,-5.084748194E-2
4.688386684E0,-1.651645780E0,-9.663414001E0,-1.537388563E-1
4.708642100E0,-1.543968797E0,-9.749555588E0,-2.255235314E-1
4.728757048E0,-1.567897081E0,-9.826126099E0,-2.255235314E-1
4.749039965E0,-1.524826288E0,-9.826126099E0,-8.195417374E-2
4.769312152E0,-1.340578914E0,-9.761520386E0,1.292124242E-1
4.789584392E0,-1.110867858E0,-9.797411919E0,3.756731451E-1
4.809856684E0,-1.022333503E0,-9.888339996E0,4.546363056E-1
4.830128923E0,-1.101296663E0,-9.821340561E0,2.464607358E-1
4.850401267E0,-1.433898926E0,-9.684949875E0,-1.734796353E-2
4.870673611E0,-1.860419631E0,-9.594022751E0,-2.159522474E-1
4.890945902E0,-2.121237278E0,-9.517452240E0,-3.140579760E-1
4.911218194E0,-1.989632010E0,-9.622735977E0,-1.585244983E-1
4.931618194E0,-1.565504193E0,-9.749555588E0,2.632104978E-2
4.951762881E0,-1.185045362E0,-9.816555023E0,1.076770201E-1
4.972035225E0,-1.048654556E0,-9.826126099E0,1.316052526E-1
4.992307569E0,-1.079761267E0,-9.756733894E0,7.896314561E-2
5.012579913E0,-1.213759303E0,-9.711270332E0,-1.495514158E-2
5.032852256E0,-1.321436286E0,-9.711270332E0,-6.759724021E-2
5.053124652E0,-1.259222865E0,-9.696913719E0,-1.034895778E-1
5.073396996E0,-1.165902853E0,-9.785448074E0,-1.106680483E-1
5.093669288E0,-1.041476011E0,-9.871589661E0,-1.393819153E-1
5.113941736E0,-9.792626500E-1,-9.833304405E0,-9.870393574E-2
5.134341736E0,-9.050851464E-1,-9.771091461E0,-5.084748194E-2
5.154486475E0,-9.194421172E-1,-9.723235130E0,-4.366901144E-2
5.174758819E0,-1.053440213E0,-9.706484795E0,-1.178465188E-1
5.195158819E0,-1.206580877E0,-9.720842361E0,-2.111666054E-1
5.215303506E0,-1.304686546E0,-9.833304405E0,-2.685943544E-1
5.235575642E0,-1.283151150E0,-9.866804123E0,-2.398804724E-1
5.255848298E0,-1.211366415E0,-9.771091461E0,-2.327020019E-1
5.276120642E0,-1.170688510E0,-9.682557106E0,-2.662015259E-1
5.296393038E0,-1.192223907E0,-9.620343208E0,-2.638086975E-1
5.316665381E0,-1.230509043E0,-9.651450157E0,-2.279163599E-1
5.336937725E0,-1.273579836E0,-9.699306488E0,-2.159522474E-1
5.357210121E0,-1.302293777E0,-9.713663101E0,-2.183450609E-1
5.377482569E0,-1.333400369E0,-9.759127617E0,-2.374876440E-1
5.397754965E0,-1.290329576E0,-9.787840843E0,-2.327020019E-1
5.418027361E0,-1.211366415E0,-9.821340561E0,-1.752742529E-1
5.438299756E0,-1.165902853E0,-9.802198410E0,-1.680957973E-1
5.458580017E0,-1.125224829E0,-9.716055870E0,-2.159522474E-1
5.478921684E0,-1.120439172E0,-9.687342644E0,-2.925225794E-1
5.499115798E0,-1.185045362E0,-9.728020668E0,-3.523431420E-1
5.519388402E0,-1.405185103E0,-9.756733894E0,-4.025924206E-1
5.539661006E0,-1.476969719E0,-9.694520950E0,-4.313062727E-1
5.559933559E0,-1.412363529E0,-9.644271851E0,-3.667000830E-1
5.580206006E0,-1.283151150E0,-9.713663101E0,-3.355933726E-1
5.600478506E0,-1.149153113E0,-9.785448074E0,-3.260220885E-1
5.620751006E0,-1.070189953E0,-9.763913155E0,-3.595215976E-1
5.641023506E0,-1.074975610E0,-9.696913719E0,-4.265206456E-1
5.661295954E0,-1.106082320E0,-9.732806206E0,-4.648058116E-1
5.681568402E0,-1.144367456E0,-9.816555023E0,-4.887340367E-1
5.701840850E0,-1.165902853E0,-9.756733894E0,-5.365904570E-1
5.722113246E0,-1.151545882E0,-9.639486313E0,-5.653043389E-1
5.742385694E0,-1.153938770E0,-9.550951958E0,-5.964110494E-1
5.762658142E0,-1.012762189E0,-9.483952522E0,-6.538388133E-1
5.782930538E0,-8.285148144E-1,-9.684949875E0,-6.107679605E-1
5.803202881E0,-7.537391186E-1,-9.902696609E0,-6.753742099E-1
5.823475277E0,-8.955138922E-1,-9.830911636E0,-8.596215248E-1
5.843747725E0,-1.120439172E0,-9.744770050E0,-1.000798106E0
5.864147777E0,-1.381256819E0,-9.725627899E0,-9.768698215E-1
5.884292569E0,-1.658824325E0,-9.850054741E0,-8.739784956E-1
5.904692569E0,-1.776072621E0,-9.972088814E0,-7.447660565E-1
5.924837413E0,-1.778465390E0,-9.806983948E0,-7.399803996E-1
5.945109809E0,-1.601396561E0,-9.661021233E0,-9.050851464E-1
5.965382256E0,-1.551147223E0,-9.792626381E0,-1.015154958E0
5.985654652E0,-1.591825247E0,-9.976874352E0,-1.003190875E0
6.006054652E0,-1.594218135E0,-9.873982430E0,-8.572286963E-1
6.026199496E0,-1.484148264E0,-9.656235695E0,-7.304090858E-1
6.046599496E0,-1.362114310E0,-9.649057388E0,-7.016952634E-1
6.066744340E0,-1.280758262E0,-9.713663101E0,-6.705885530E-1
6.087016788E0,-1.249651670E0,-9.723235130E0,-5.892325640E-1
6.107416788E0,-1.252044439E0,-9.739984512E0,-5.174478889E-1
6.127561631E0,-1.287936807E0,-9.775876999E0,-4.432703853E-1
6.147960850E0,-1.340578914E0,-9.749555588E0,-4.097708762E-1
6.168270798E0,-1.386042476E0,-9.665806770E0,-4.384847581E-1
6.188542100E0,-1.419542074E0,-9.716055870E0,-5.174478889E-1
6.208797881E0,-1.436291814E0,-9.897911072E0,-6.442674994E-1
6.228912934E0,-1.524826288E0,-9.955338478E0,-7.639086246E-1
6.249196892E0,-1.622931957E0,-9.869196892E0,-8.261220455E-1
6.269469184E0,-1.649253011E0,-9.773484230E0,-7.998009920E-1
6.289741527E0,-1.498505235E0,-9.773484230E0,-7.232306600E-1
6.310013871E0,-1.299900889E0,-9.749555588E0,-7.280163169E-1
6.330286215E0,-1.122832060E0,-9.701699257E0,-7.304090858E-1
6.350558611E0,-9.481559992E-1,-9.696913719E0,-7.686942816E-1
6.370831059E0,-7.609176040E-1,-9.689735413E0,-7.854440212E-1
6.391103454E0,-6.460621357E-1,-9.668199539E0,-7.663014531E-1
6.411375902E0,-5.862415433E-1,-9.711270332E0,-7.208378315E-1
6.431648298E0,-5.838487148E-1,-9.907482147E0,-6.083751321E-1
6.451920694E0,-5.599204898E-1,-1.004865837E1,-5.222335458E-1
6.472193142E0,-5.168496966E-1,-1.006062317E1,-3.978067636E-1
6.492465538E0,-4.761717021E-1,-9.979267120E0,-2.781656384E-1
6.512737986E0,-4.235295951E-1,-9.888339996E0,-1.489532143E-1
6.533010434E0,-4.211367965E-1,-9.988838196E0,-1.082752272E-1
6.553282881E0,-4.713860750E-1,-9.986445427E0,-1.226321608E-1
6.573555277E0,-6.077769399E-1,-9.677771568E0,-6.759724021E-2
6.593955277E0,-7.926225066E-1,-9.529416084E0,3.349951655E-2
6.614100173E0,-1.007976532E0,-9.572486877E0,-2.213360928E-2
6.634372621E0,-1.299900889E0,-9.766305923E0,5.264209956E-2
6.654645069E0,-1.591825247E0,-9.969695091E0,6.484549642E-1
6.674917517E0,-1.575075507E0,-1.008215809E1,1.070189953E0
6.695317517E0,-1.419542074E0,-1.007737255E1,1.009771109E0
6.715462361E0,-1.266401410E0,-9.811769485E0,7.585247755E-1
6.735734652E0,-1.175474167E0,-9.677771568E0,4.929214716E-1
6.756007152E0,-8.237292171E-1,-9.675378799E0,3.254238665E-1
6.776279652E0,-7.058826685E-1,-9.608379364E0,1.004985496E-1
6.796552048E0,-7.752745152E-1,-9.393025398E0,8.135596663E-2
6.816824496E0,-7.776673436E-1,-9.184251785E0,8.374879509E-2
6.837096944E0,-8.093722463E-1,-9.241679192E0,1.531406492E-1
6.857369392E0,-8.668000102E-1,-9.471988678E0,4.426721931E-1
6.877641840E0,-8.500502706E-1,-9.670592308E0,9.355936646E-1
6.897914288E0,-8.141579032E-1,-9.998409271E0,1.541576028E0
6.918186736E0,-1.244866014E0,-1.030947590E1,1.766501307E0
6.938459184E0,-1.768894196E0,-9.924231529E0,1.328614831E0
6.958731631E0,-1.560718536E0,-9.567701340E0,4.331009090E-1
6.979004079E0,-1.163509965E0,-9.615557671E0,-1.776670814E-1
6.999276475E0,-6.604190469E-1,-9.771091461E0,-5.724828243E-1
7.019548975E0,-4.618147612E-1,-9.778269768E0,-1.154536903E-1
7.039821423E0,-6.939185858E-1,-9.902696609E0,7.465606928E-1
7.060093819E0,-1.304686546E0,-9.897911072E0,1.031904817E0
7.080366267E0,-1.484148264E0,-9.538987160E0,7.776673436E-1
7.100638715E0,-1.110867858E0,-9.524630547E0,5.838487148E-1
7.120911163E0,-6.221339107E-1,-9.967302322E0,6.747759581E-1
7.141183611E0,-1.435693651E-1,-1.013001442E1,5.551348329E-1
7.161456059E0,1.004985496E-1,-1.006062317E1,1.483550072E-1
7.181728506E0,-4.307080805E-2,-9.964909554E0,7.178467698E-3
7.202000954E0,-1.292124242E-1,-9.897911072E0,1.100698411E-1
7.222273402E0,-5.144568682E-1,-9.725627899E0,9.332008660E-2
7.242545850E0,-9.625129104E-1,-9.751948357E0,2.871387079E-2
7.262818298E0,-1.247258782E0,-9.775876999E0,4.785645381E-2
7.283090642E0,-1.297508121E0,-9.696913719E0,9.810572863E-2
7.303363142E0,-1.098903775E0,-9.639486313E0,1.148554832E-1
7.323635590E0,-7.034898400E-1,-9.744770050E0,8.614161611E-2
7.343908038E0,-4.666004181E-1,-9.795019150E0,4.067798331E-2
7.364180486E0,-3.278166950E-1,-9.804591179E0,2.871387079E-2
7.384452934E0,-3.397808075E-1,-9.818947792E0,3.349951655E-2
7.404852934E0,-4.833501875E-1,-9.763913155E0,7.657032460E-2
7.424997777E0,-7.322037220E-1,-9.768698692E0,1.124626622E-1
7.445270225E0,-9.242277741E-1,-9.785448074E0,1.555334777E-1
7.465542673E0,-9.744769931E-1,-9.751948357E0,1.028913707E-1
7.485815121E0,-9.242277741E-1,-9.790233612E0,-5.563312769E-2
7.506215121E0,-7.926225066E-1,-9.816555023E0,-1.872383654E-1
7.526359965E0,-6.747759581E-1,-9.873982430E0,-1.848455518E-1
7.546632413E0,-6.269195080E-1,-9.905089378E0,-6.041877344E-2
7.566904861E0,-6.053841114E-1,-9.845269203E0,2.632104978E-2
7.587177256E0,-6.125625968E-1,-9.773484230E0,4.067798331E-2
7.607577256E0,-6.269195080E-1,-9.763913155E0,6.460621208E-2
7.627722204E0,-6.484549642E-1,-9.775876999E0,8.135596663E-2
7.648130173E0,-6.747759581E-1,-9.809376717E0,7.417750359E-2
7.668415642E0,-7.178468108E-1,-9.811769485E0,-0.000000000E0
7.688532621E0,-7.489534616E-1,-9.845269203E0,-5.802594870E-2
7.708798506E0,-6.963114142E-1,-9.864411354E0,-1.034895778E-1
7.728992309E0,-6.508477330E-1,-9.814162254E0,-1.034895778E-1
7.749357152E0,-6.412764788E-1,-9.792626381E0,-5.802594870E-2
7.769629444E0,-6.532405615E-1,-9.787840843E0,-0.000000000E0
7.789901788E0,-7.322037220E-1,-9.842875481E0,4.307080805E-2
7.810174184E0,-7.680960894E-1,-9.835697174E0,1.196411345E-2
7.830446579E0,-7.513462901E-1,-9.830911636E0,-2.452643216E-2
7.850718975E0,-7.154539824E-1,-9.816555023E0,-7.956135273E-2
7.870991319E0,-6.460621357E-1,-9.818947792E0,-8.434699476E-2
7.891263767E0,-6.005984545E-1,-9.821340561E0,-6.759724021E-2
7.911536163E0,-6.340979934E-1,-9.830911636E0,-5.084748194E-2
7.931808611E0,-7.393822074E-1,-9.835697174E0,-2.931207791E-2
7.952080954E0,-7.974081635E-1,-9.828518867E0,-5.084748194E-2
7.972353350E0,-8.045865893E-1,-9.775876999E0,-9.391828626E-2
7.992625798E0,-7.537391186E-1,-9.771091461E0,-1.489532143E-1
8.012898194E0,-6.867401004E-1,-9.814162254E0,-1.250249892E-1
8.033170590E0,-6.843472719E-1,-9.821340561E0,-5.324030295E-2
8.053443038E0,-6.843472719E-1,-9.826126099E0,-2.392822644E-3
8.073715434E0,-6.699903607E-1,-9.840482712E0,-1.734796353E-2
8.094115434E0,-6.628118753E-1,-9.814162254E0,-3.170489892E-2
8.114260277E0,-6.771687865E-1,-9.797411919E0,-6.281159073E-2
8.134532673E0,-7.274180651E-1,-9.830911636E0,-7.716853172E-2
8.154805069E0,-7.998009920E-1,-9.804591179E0,-5.802594870E-2
8.175077465E0,-8.069794178E-1,-9.783055305E0,-4.127619043E-2
8.195477465E0,-8.117650747E-1,-9.790233612E0,-6.041877344E-2
8.215622256E0,-7.854440212E-1,-9.790233612E0,-4.127619043E-2
8.235894548E0,-7.585247755E-1,-9.797411919E0,-4.845465720E-2
8.256166996E0,-7.417750359E-1,-9.847661972E0,-4.785645287E-3
8.276439444E0,-7.130611539E-1,-9.802198410E0,-2.392822644E-3
8.296711892E0,-6.604190469E-1,-9.787840843E0,-3.170489892E-2
8.316984288E0,-6.412764788E-1,-9.799804688E0,-5.084748194E-2
8.337256684E0,-6.795616150E-1,-9.830911636E0,-5.802594870E-2
8.357529079E0,-7.226324677E-1,-9.811769485E0,-6.520441920E-2
8.377801475E0,-7.417750359E-1,-9.826126099E0,-5.084748194E-2
8.398073871E0,-7.226324677E-1,-9.840482712E0,-4.785645287E-3
8.418346267E0,-6.987041831E-1,-9.816555023E0,1.674975827E-2
8.438618663E0,-6.652047038E-1,-9.795019150E0,1.674975827E-2
8.458891059E0,-6.556333899E-1,-9.797411919E0,9.571290575E-3
8.479163454E0,-6.795616150E-1,-9.804591179E0,-1.256231871E-2
8.499435850E0,-7.202396393E-1,-9.830911636E0,-6.520441920E-2
8.519708246E0,-7.489534616E-1,-9.778269768E0,-8.673982322E-2
8.539980642E0,-7.178468108E-1,-9.775876999E0,-7.238288224E-2
8.560253038E0,-6.652047038E-1,-9.802198410E0,-2.691925503E-2
8.580525434E0,-6.269195080E-1,-9.816555023E0,-9.571290575E-3
8.600797829E0,-6.364908218E-1,-9.826126099E0,1.674975827E-2
8.621070173E0,-6.699903607E-1,-9.840482712E0,5.503492057E-2
8.641342569E0,-7.010970116E-1,-9.821340561E0,2.871387079E-2
8.661614965E0,-6.939185858E-1,-9.823733330E0,-1.495514158E-2
8.681887361E0,-6.795616150E-1,-9.804591179E0,-7.716853172E-2
8.702159704E0,-6.460621357E-1,-9.792626381E0,-1.250249892E-1
8.722432100E0,-6.149554253E-1,-9.799804688E0,-1.178465188E-1
8.742832100E0,-6.077769399E-1,-9.818947792E0,-5.563312769E-2
8.762976840E0,-6.245267391E-1,-9.826126099E0,2.392822644E-3
8.783249236E0,-6.843472719E-1,-9.830911636E0,1.435693540E-2
8.803521631E0,-6.987041831E-1,-9.804591179E0,2.392822644E-3
8.823793975E0,-7.034898400E-1,-9.778269768E0,-6.281159073E-2
8.844066371E0,-6.939185858E-1,-9.785448074E0,-8.673982322E-2
8.864338715E0,-6.580262184E-1,-9.787840843E0,-9.870393574E-2
8.884611111E0,-6.245267391E-1,-9.826126099E0,-6.999006122E-2
8.905011111E0,-6.436693072E-1,-9.854840279E0,-2.452643216E-2
8.925155850E0,-6.460621357E-1,-9.838089943E0,-0.000000000E0
8.945428194E0,-6.412764788E-1,-9.850054741E0,2.392822644E-3
8.965700590E0,-6.819544435E-1,-9.833304405E0,-3.649054468E-2
8.985972934E0,-6.628118753E-1,-9.787840843E0,-4.845465720E-2
9.006372934E0,-6.101697683E-1,-9.795019150E0,-1.058823988E-1
9.026517673E0,-5.718846321E-1,-9.828518867E0,-1.178465188E-1
9.046790017E0,-5.886343718E-1,-9.826126099E0,-8.913264424E-2
9.067062361E0,-6.508477330E-1,-9.826126099E0,-4.845465720E-2
9.087334756E0,-7.106683254E-1,-9.823733330E0,-2.392822644E-3
9.107742673E0,-7.417750359E-1,-9.826126099E0,1.914258115E-2
9.128043767E0,-7.441678643E-1,-9.802198410E0,-2.213360928E-2
9.148314913E0,-7.393822074E-1,-9.804591179E0,-7.956135273E-2
9.168586371E0,-6.939185858E-1,-9.787840843E0,-1.130608693E-1
9.188857934E0,-6.771687865E-1,-9.799804688E0,-1.034895778E-1
9.209113975E0,-6.340979934E-1,-9.814162254E0,-1.010967568E-1
9.229228975E0,-6.388836503E-1,-9.818947792E0,-7.238288224E-2
9.249514184E0,-6.317051649E-1,-9.850054741E0,-2.452643216E-2
9.269786423E0,-6.149554253E-1,-9.828518867E0,2.392822644E-3
9.290058663E0,-6.221339107E-1,-9.818947792E0,-1.495514158E-2
9.310330902E0,-6.484549642E-1,-9.816555023E0,-7.716853172E-2
9.330603194E0,-6.915257573E-1,-9.797411919E0,-9.391828626E-2
9.350875434E0,-6.843472719E-1,-9.826126099E0,-1.154536903E-1
9.371147777E0,-6.723831892E-1,-9.811769485E0,-1.130608693E-1
9.391420069E0,-6.340979934E-1,-9.802198410E0,-7.477571070E-2
9.411692361E0,-6.149554253E-1,-9.818947792E0,-7.238288224E-2
9.431964652E0,-6.101697683E-1,-9.842875481E0,-4.845465720E-2
9.452236996E0,-6.245267391E-1,-9.809376717E0,-5.084748194E-2
9.472509288E0,-6.317051649E-1,-9.806983948E0,-7.238288224E-2
9.492781579E0,-6.364908218E-1,-9.809376717E0,-9.391828626E-2
9.513053871E0,-6.388836503E-1,-9.809376717E0,-7.238288224E-2
9.533326215E0,-6.340979934E-1,-9.823733330E0,-6.041877344E-2
9.553598559E0,-6.364908218E-1,-9.823733330E0,-6.759724021E-2
9.573870850E0,-6.077769399E-1,-9.816555023E0,-5.802594870E-2
9.594270850E0,-6.149554253E-1,-9.821340561E0,-3.170489892E-2
9.614415486E0,-6.604190469E-1,-9.830911636E0,-4.366901144E-2
9.634815486E0,-6.747759581E-1,-9.811769485E0,-4.366901144E-2
9.654960121E0,-6.508477330E-1,-9.821340561E0,-3.888336942E-2
9.675232413E0,-6.101697683E-1,-9.795019150E0,-8.195417374E-2
9.695632413E0,-5.838487148E-1,-9.840482712E0,-1.034895778E-1
9.715777048E0,-6.053841114E-1,-9.826126099E0,-6.759724021E-2
9.736049131E0,-6.484549642E-1,-9.804591179E0,-4.845465720E-2
9.756321579E0,-6.675975323E-1,-9.811769485E0,-5.563312769E-2
9.776593871E0,-6.508477330E-1,-9.821340561E0,-6.281159073E-2
9.796866163E0,-5.958128572E-1,-9.828518867E0,-5.084748194E-2
9.817138454E0,-6.053841114E-1,-9.804591179E0,-7.238288224E-2
9.837410850E0,-5.958128572E-1,-9.838089943E0,-5.802594870E-2
9.857683142E0,-5.886343718E-1,-9.814162254E0,-3.649054468E-2
9.877955381E0,-6.269195080E-1,-9.821340561E0,-4.366901144E-2
1.006553372E1,-6.652047038E-1,-9.811769485E0,-8.434699476E-2
1.008567825E1,-6.747759581E-1,-9.835697174E0,-7.477571070E-2
1.010595054E1,-6.747759581E-1,-9.802198410E0,-7.477571070E-2
1.012622278E1,-6.652047038E-1,-9.797411919E0,-6.520441920E-2
1.014649507E1,-6.221339107E-1,-9.821340561E0,-5.563312769E-2
1.016676731E1,-6.221339107E-1,-9.826126099E0,-7.477571070E-2
1.018703960E1,-6.364908218E-1,-9.826126099E0,-8.434699476E-2
1.020731184E1,-6.652047038E-1,-9.797411919E0,-9.870393574E-2
1.022758413E1,-6.795616150E-1,-9.797411919E0,-1.178465188E-1
1.024785642E1,-6.508477330E-1,-9.792626381E0,-7.956135273E-2
1.026812866E1,-6.556333899E-1,-9.806983948E0,-6.999006122E-2
1.028840090E1,-6.747759581E-1,-9.835697174E0,-3.649054468E-2
1.030867319E1,-6.843472719E-1,-9.835697174E0,-3.649054468E-2
1.032894538E1,-6.652047038E-1,-9.830911636E0,-5.084748194E-2
1.034921767E1,-6.508477330E-1,-9.854840279E0,-5.563312769E-2
1.036948991E1,-6.125625968E-1,-9.811769485E0,-6.999006122E-2
1.038976220E1,-5.934200287E-1,-9.787840843E0,-1.082752272E-1
1.041003444E1,-5.982056856E-1,-9.811769485E0,-1.226321608E-1
1.043030668E1,-6.652047038E-1,-9.835697174E0,-1.082752272E-1
1.045057892E1,-7.561319470E-1,-9.821340561E0,-6.999006122E-2
1.047085116E1,-7.950153351E-1,-9.802198410E0,-2.392822644E-3
1.049112340E1,-7.806583643E-1,-9.797411919E0,1.674975827E-2
1.051139564E1,-7.226324677E-1,-9.811769485E0,-1.734796353E-2
1.053166788E1,-6.364908218E-1,-9.816555023E0,-8.913264424E-2
1.055194007E1,-5.982056856E-1,-9.806983948E0,-1.369891018E-1
1.057221236E1,-6.652047038E-1,-9.840482712E0,-1.226321608E-1
1.059261236E1,-7.369893789E-1,-9.826126099E0,-6.041877344E-2
1.061275684E1,-7.609176040E-1,-9.792626381E0,-1.256231871E-2
1.063302903E1,-7.082754970E-1,-9.811769485E0,2.392822644E-3
1.065330122E1,-6.556333899E-1,-9.792626381E0,-2.691925503E-2
1.067357351E1,-6.412764788E-1,-9.811769485E0,-6.520441920E-2
1.069384564E1,-6.987041831E-1,-9.835697174E0,-5.084748194E-2
1.071411793E1,-7.417750359E-1,-9.830911636E0,-5.563312769E-2
1.073439012E1,-7.609176040E-1,-9.830911636E0,-6.999006122E-2
1.075466236E1,-7.274180651E-1,-9.802198410E0,-7.477571070E-2
1.077493455E1,-6.508477330E-1,-9.787840843E0,-5.563312769E-2
1.079520679E1,-5.886343718E-1,-9.802198410E0,-4.606183618E-2
1.081547898E1,-5.886343718E-1,-9.826126099E0,-3.649054468E-2
1.083575116E1,-6.412764788E-1,-9.835697174E0,-2.392822644E-3
1.085602340E1,-7.082754970E-1,-9.816555023E0,1.196411345E-2
1.087629559E1,-7.752745152E-1,-9.816555023E0,7.178467698E-3
1.089656778E1,-7.902296782E-1,-9.797411919E0,-3.649054468E-2
1.091683997E1,-7.417750359E-1,-9.783055305E0,-7.956135273E-2
1.093711220E1,-6.987041831E-1,-9.783055305E0,-9.391828626E-2
1.095738439E1,-6.843472719E-1,-9.835697174E0,-6.041877344E-2
1.097765658E1,-7.082754970E-1,-9.816555023E0,-2.691925503E-2
1.099792877E1,-6.987041831E-1,-9.778269768E0,1.196411345E-2
1.101820095E1,-6.795616150E-1,-9.830911636E0,-2.213360928E-2
1.103847314E1,-6.269195080E-1,-9.830911636E0,-8.434699476E-2
1.105874533E1,-5.886343718E-1,-9.806983948E0,-1.513460279E-1
1.107901752E1,-6.412764788E-1,-9.826126099E0,-1.609173268E-1
1.109941752E1,-7.226324677E-1,-9.826126099E0,-1.130608693E-1
1.111971981E1,-7.902296782E-1,-9.792626381E0,-6.041877344E-2
1.113983465E1,-8.237292171E-1,-9.783055305E0,-2.691925503E-2
1.116010674E1,-7.806583643E-1,-9.835697174E0,1.196411345E-2
1.118037882E1,-6.747759581E-1,-9.830911636E0,2.153540403E-2
1.120077882E1,-5.934200287E-1,-9.816555023E0,-7.178467698E-3
1.122092304E1,-5.934200287E-1,-9.821340561E0,-3.649054468E-2
1.124132304E1,-6.508477330E-1,-9.845269203E0,-4.606183618E-2
1.126146736E1,-7.902296782E-1,-9.835697174E0,2.392822644E-3
1.128173944E1,-9.098708034E-1,-9.811769485E0,5.503492057E-2
1.130213944E1,-9.768698215E-1,-9.749555588E0,9.332008660E-2
1.132224434E1,-9.912267923E-1,-9.768698692E0,1.028913707E-1
1.134255575E1,-9.002995491E-1,-9.797411919E0,7.896314561E-2
1.136295575E1,-7.806583643E-1,-9.792626381E0,5.024927482E-2
1.146932476E1,-5.599204898E-1,-9.775876999E0,-2.691925503E-2
1.148959700E1,-6.077769399E-1,-9.830911636E0,1.914258115E-2
1.150986918E1,-7.441678643E-1,-9.854840279E0,7.417750359E-2
1.153014137E1,-9.337990284E-1,-9.799804688E0,1.244267747E-1
1.155041351E1,-1.031904817E0,-9.754341125E0,9.810572863E-2
1.157068564E1,-9.218349457E-1,-9.661021233E0,1.674975827E-2
1.159095783E1,-8.093722463E-1,-9.821340561E0,-7.956135273E-2
1.161122997E1,-8.285148144E-1,-9.840482712E0,-1.345962733E-1
1.163150210E1,-9.625129104E-1,-9.842875481E0,-8.195417374E-2
1.165177424E1,-1.084546804E0,-9.783055305E0,-2.392822644E-3
1.167204642E1,-1.125224829E0,-9.708877563E0,2.392822644E-3
1.169231856E1,-1.072582722E0,-9.771091461E0,2.392822690E-2
1.171259069E1,-1.024726272E0,-9.790233612E0,2.632104978E-2
1.173286278E1,-1.003190875E0,-9.749555588E0,1.674975827E-2
1.175313497E1,-9.864411354E-1,-9.775876999E0,2.392822644E-3
1.177340710E1,-9.266205430E-1,-9.759127617E0,-3.409772366E-2
1.179371856E1,-8.117650747E-1,-9.706484795E0,-1.345962733E-1
1.181395142E1,-6.891329288E-1,-9.792626381E0,-1.513460279E-1
1.183422351E1,-6.245267391E-1,-9.814162254E0,-9.152546525E-2
1.185449564E1,-6.340979934E-1,-9.833304405E0,-9.571290575E-3
1.187476778E1,-7.202396393E-1,-9.876375198E0,5.264209956E-2
1.189516778E1,-7.752745152E-1,-9.869196892E0,9.092725813E-2
1.191531205E1,-7.950153351E-1,-9.809376717E0,1.172483116E-1
1.193558418E1,-8.285148144E-1,-9.763913155E0,9.810572863E-2
1.195585632E1,-8.261220455E-1,-9.802198410E0,1.914258115E-2
1.197612845E1,-7.657032609E-1,-9.852447510E0,-5.802594870E-2
1.199652845E1,-7.322037220E-1,-9.823733330E0,-1.226321608E-1
1.201667273E1,-7.704889178E-1,-9.830911636E0,-9.152546525E-2
1.203694486E1,-8.213363886E-1,-9.806983948E0,-4.366901144E-2
1.205721700E1,-8.237292171E-1,-9.747162819E0,1.196411345E-2
1.207748913E1,-8.165507317E-1,-9.682557106E0,5.264209956E-2
1.209788913E1,-8.045865893E-1,-9.897911072E0,7.657032460E-2
1.211819132E1,-8.644071817E-1,-9.852447510E0,4.067798331E-2
1.213822757E1,-8.572286963E-1,-9.720842361E0,5.024927482E-2
1.215862757E1,-7.633104324E-1,-9.795019150E0,4.785645381E-2
1.217885038E1,-6.628118753E-1,-9.871589661E0,4.307080805E-2
1.219925038E1,-6.269195080E-1,-9.862018585E0,2.392822690E-2
1.221939455E1,-6.388836503E-1,-9.840482712E0,7.178467698E-3
1.223965257E1,-7.561319470E-1,-9.895518303E0,3.110669367E-2
1.225993366E1,-8.165507317E-1,-9.814162254E0,1.435693540E-2
1.228020674E1,-8.117650747E-1,-9.761520386E0,-2.392822644E-3
1.230047950E1,-8.691928387E-1,-9.773484230E0,-2.691925503E-2
1.232075220E1,-9.385846853E-1,-9.806983948E0,-1.974078640E-2
1.234102486E1,-1.036690354E0,-9.756733894E0,2.392822644E-3
1.236129736E1,-1.067797065E0,-9.751948357E0,1.914258115E-2
1.238156944E1,-1.041476011E0,-9.768698692E0,-2.691925503E-2
1.240196976E1,-9.505487680E-1,-9.775876999E0,-8.195417374E-2
1.242211418E1,-8.165507317E-1,-9.804591179E0,-1.010967568E-1
1.244238653E1,-7.854440212E-1,-9.797411919E0,-9.870393574E-2
1.246265882E1,-8.763712645E-1,-9.773484230E0,-6.999006122E-2
1.248293106E1,-9.792626500E-1,-9.761520386E0,-3.170489892E-2
1.250320325E1,-1.022333503E0,-9.797411919E0,-1.256231871E-2
1.252347543E1,-1.000798106E0,-9.838089943E0,7.178467698E-3
1.254374757E1,-9.768698215E-1,-9.785448074E0,1.435693540E-2
1.256401981E1,-1.005583763E0,-9.759127617E0,7.178467698E-3
1.258429189E1,-1.086939692E0,-9.761520386E0,-0.000000000E0
1.260469991E1,-1.130010486E0,-9.728020668E0,-5.802594870E-2
1.262498481E1,-1.098903775E0,-9.749555588E0,-1.058823988E-1
1.264510142E1,-9.433703423E-1,-9.783055305E0,-1.393819153E-1
1.266537497E1,-7.609176040E-1,-9.787840843E0,-1.082752272E-1
1.268564700E1,-5.862415433E-1,-9.804591179E0,-1.010967568E-1
1.270604819E1,-5.192425251E-1,-9.907482147E0,-7.716853172E-2
1.272619236E1,-5.192425251E-1,-9.857233047E0,-5.324030295E-2
1.274646918E1,-5.766702294E-1,-9.833304405E0,-9.571290575E-3
1.276674127E1,-7.058826685E-1,-9.847661972E0,9.571290575E-3
1.278701335E1,-8.021938205E-1,-9.876375198E0,-0.000000000E0
1.280728543E1,-8.955138922E-1,-9.804591179E0,2.392822690E-2
1.282755752E1,-9.744769931E-1,-9.711270332E0,-9.571290575E-3
1.284782960E1,-9.074779749E-1,-9.766305923E0,-2.931207791E-2
1.286810163E1,-9.050851464E-1,-9.830911636E0,-4.366901144E-2
1.288837377E1,-8.859425783E-1,-9.888339996E0,-7.178467698E-3
1.290864590E1,-8.979067206E-1,-9.883553505E0,2.392822690E-2
1.292891793E1,-9.074779749E-1,-9.778269768E0,9.571290575E-3
1.294919002E1,-8.883354068E-1,-9.763913155E0,-6.520441920E-2
1.296946215E1,-8.333004713E-1,-9.737591743E0,-1.585244983E-1
1.298973424E1,-7.950153351E-1,-9.806983948E0,-1.872383654E-1
1.301000637E1,-8.428717852E-1,-9.857233047E0,-1.154536903E-1
1.303027845E1,-9.122636318E-1,-9.792626381E0,2.392822644E-3
1.305055054E1,-9.170492887E-1,-9.783055305E0,7.657032460E-2
1.307082267E1,-9.026923180E-1,-9.835697174E0,8.853443712E-2
1.309109476E1,-9.266205430E-1,-9.787840843E0,5.982056633E-2
1.311136684E1,-8.668000102E-1,-9.761520386E0,-0.000000000E0
1.313163892E1,-8.428717852E-1,-9.778269768E0,-1.256231871E-2
1.315191106E1,-8.356932998E-1,-9.785448074E0,-2.452643216E-2
1.317218314E1,-8.572286963E-1,-9.809376717E0,-1.974078640E-2
1.319245523E1,-8.476574421E-1,-9.838089943E0,4.785645287E-3
1.321272731E1,-8.309076428E-1,-9.806983948E0,1.914258115E-2
1.323299939E1,-8.596215248E-1,-9.775876999E0,5.503492057E-2
1.325327153E1,-9.194421172E-1,-9.742377281E0,3.828516230E-2
1.327354361E1,-9.888339639E-1,-9.785448074E0,4.785645287E-3
1.329394361E1,-1.010369420E0,-9.816555023E0,-1.734796353E-2
1.331408778E1,-8.907282352E-1,-9.723235130E0,-2.931207791E-2
1.333435986E1,-7.250252366E-1,-9.785448074E0,-3.649054468E-2
1.335463194E1,-6.245267391E-1,-9.878767967E0,-1.734796353E-2
1.337490403E1,-5.910272002E-1,-9.881160736E0,5.982056633E-2
1.339530403E1,-6.388836503E-1,-9.883553505E0,1.076770201E-1
1.341544819E1,-7.322037220E-1,-9.826126099E0,1.148554832E-1
1.343572028E1,-8.309076428E-1,-9.840482712E0,8.853443712E-2
1.345599236E1,-9.529415965E-1,-9.821340561E0,4.546362907E-2
1.347626450E1,-1.005583763E0,-9.728020668E0,-1.495514158E-2
1.349666450E1,-9.744769931E-1,-9.684949875E0,-1.226321608E-1
1.351696663E1,-8.476574421E-1,-9.747162819E0,-1.322034448E-1
1.353708132E1,-8.069794178E-1,-9.830911636E0,-8.673982322E-2
1.355735330E1,-7.878368497E-1,-9.835697174E0,-2.213360928E-2
1.357766465E1,-7.950153351E-1,-9.799804688E0,5.503492057E-2
1.359805543E1,-8.476574421E-1,-9.806983948E0,1.172483116E-1
1.361832715E1,-8.668000102E-1,-9.814162254E0,1.052841991E-1
1.363844189E1,-8.572286963E-1,-9.816555023E0,8.374879509E-2
1.365871382E1,-9.146564603E-1,-9.816555023E0,9.571290575E-3
1.367898580E1,-9.361918569E-1,-9.826126099E0,-7.477571070E-2
1.369925778E1,-9.696913958E-1,-9.787840843E0,-1.226321608E-1
1.371952976E1,-9.457631707E-1,-9.763913155E0,-1.298106313E-1
1.373979283E1,-8.691928387E-1,-9.728020668E0,-9.391828626E-2
1.376007059E1,-8.333004713E-1,-9.773484230E0,-1.256231871E-2
1.378034325E1,-8.165507317E-1,-9.823733330E0,5.982056633E-2
1.380061590E1,-7.902296782E-1,-9.871589661E0,1.052841991E-1
1.382088835E1,-7.752745152E-1,-9.838089943E0,1.172483116E-1
1.384116075E1,-7.728816867E-1,-9.785448074E0,6.699903309E-2
1.386143309E1,-7.441678643E-1,-9.783055305E0,-3.409772366E-2
1.388170533E1,-7.034898400E-1,-9.809376717E0,-1.154536903E-1
1.390197757E1,-7.537391186E-1,-9.826126099E0,-9.152546525E-2
1.392224981E1,-8.189435601E-1,-9.842875481E0,-4.366901144E-2
1.394252194E1,-8.644071817E-1,-9.809376717E0,4.546362907E-2
1.396279403E1,-8.237292171E-1,-9.790233612E0,5.982056633E-2
1.398306622E1,-7.752745152E-1,-9.835697174E0,5.024927482E-2
1.400333835E1,-7.974081635E-1,-9.842875481E0,6.699903309E-2
1.402361043E1,-8.907282352E-1,-9.814162254E0,4.307080805E-2
1.404388252E1,-9.912267923E-1,-9.771091461E0,-1.974078640E-2
1.406415470E1,-9.984052777E-1,-9.742377281E0,-1.010967568E-1
1.408442679E1,-8.572286963E-1,-9.842875481E0,-1.561316848E-1
1.410482679E1,-6.867401004E-1,-9.881160736E0,-1.369891018E-1
1.412497095E1,-5.742774606E-1,-9.854840279E0,-3.888336942E-2
1.414524304E1,-6.484549642E-1,-9.862018585E0,5.742774159E-2
1.416551512E1,-8.572286963E-1,-9.818947792E0,6.939185411E-2
1.418578720E1,-9.792626500E-1,-9.749555588E0,4.307080805E-2
1.420618720E1,-1.053440213E0,-9.730413437E0,-2.452643216E-2
1.422633137E1,-1.091725349E0,-9.720842361E0,-7.716853172E-2
1.424660351E1,-1.084546804E0,-9.783055305E0,-1.274178028E-1
1.426687554E1,-1.036690354E0,-9.804591179E0,-1.130608693E-1
1.428714762E1,-9.577272534E-1,-9.790233612E0,-1.393819153E-1
1.430741970E1,-8.452646136E-1,-9.771091461E0,-1.680957973E-1
1.432769179E1,-7.202396393E-1,-9.771091461E0,-1.537388563E-1
1.434796382E1,-6.963114142E-1,-9.785448074E0,-1.082752272E-1
1.436823585E1,-7.561319470E-1,-9.847661972E0,-6.281159073E-2
1.438850799E1,-7.926225066E-1,-9.799804688E0,1.196411345E-2
1.440878007E1,-8.165507317E-1,-9.806983948E0,7.657032460E-2
1.442905210E1,-7.854440212E-1,-9.802198410E0,7.417750359E-2
1.444932418E1,-7.680960894E-1,-9.821340561E0,4.546362907E-2
1.446959627E1,-8.261220455E-1,-9.854840279E0,-1.256231871E-2
1.448986830E1,-8.548358679E-1,-9.838089943E0,-6.759724021E-2
1.451014038E1,-7.776673436E-1,-9.804591179E0,-8.913264424E-2
1.453041247E1,-7.298108935E-1,-9.751948357E0,-9.152546525E-2
1.455068450E1,-7.776673436E-1,-9.814162254E0,-4.845465720E-2
1.457095658E1,-8.715856671E-1,-9.821340561E0,4.785645287E-3
1.459122866E1,-9.481559992E-1,-9.778269768E0,3.110669367E-2
1.461150069E1,-9.744769931E-1,-9.725627899E0,1.674975827E-2
1.463177278E1,-9.457631707E-1,-9.761520386E0,-4.127619043E-2
1.465204486E1,-9.194421172E-1,-9.783055305E0,-6.999006122E-2
1.467231689E1,-9.170492887E-1,-9.869196892E0,-7.716853172E-2
1.469258898E1,-8.309076428E-1,-9.912267685E0,-1.130608693E-1
1.471286101E1,-6.939185858E-1,-9.821340561E0,-1.513460279E-1
1.473309372E1,-5.503492355E-1,-9.809376717E0,-1.082752272E-1
1.475340507E1,-5.551348329E-1,-9.830911636E0,-5.802594870E-2
1.477367715E1,-6.987041831E-1,-9.818947792E0,9.571290575E-3
1.479407715E1,-9.936196208E-1,-9.797411919E0,4.785645381E-2
1.481422127E1,-1.268794179E0,-9.737591743E0,-0.000000000E0
1.483449330E1,-1.390828133E0,-9.672985077E0,-1.058823988E-1
1.485476538E1,-1.275972724E0,-9.706484795E0,-1.776670814E-1
1.487503741E1,-1.003190875E0,-9.742377281E0,-1.824527234E-1
1.489543741E1,-7.441678643E-1,-9.866804123E0,-1.465603858E-1
1.491558153E1,-5.814558864E-1,-9.948160172E0,-4.845465720E-2
1.493585361E1,-4.929214716E-1,-9.830911636E0,6.221338734E-2
1.495612564E1,-4.737788737E-1,-9.818947792E0,1.076770201E-1
1.497652564E1,-5.144568682E-1,-9.864411354E0,1.363908947E-1
1.499682773E1,-5.982056856E-1,-9.900303841E0,1.531406492E-1
1.501694247E1,-7.441678643E-1,-9.912267685E0,1.244267747E-1
1.503721439E1,-8.883354068E-1,-9.857233047E0,1.196411327E-1
1.505748632E1,-9.840483069E-1,-9.761520386E0,9.332008660E-2
1.507788632E1,-9.936196208E-1,-9.742377281E0,9.571290575E-3
1.509818825E1,-9.146564603E-1,-9.680164337E0,-1.274178028E-1
1.511822444E1,-8.691928387E-1,-9.728020668E0,-2.159522474E-1
1.513857470E1,-9.002995491E-1,-9.850054741E0,-1.657029688E-1
1.515884663E1,-9.912267923E-1,-9.919445992E0,-1.495514158E-2
1.517911861E1,-1.084546804E0,-9.816555023E0,1.339980662E-1
1.519951861E1,-1.070189953E0,-9.775876999E0,1.579262912E-1
1.521966257E1,-1.156331539E0,-9.816555023E0,3.349951655E-2
1.523992658E1,-1.149153113E0,-9.723235130E0,-1.226321608E-1
1.526020372E1,-1.103689432E0,-9.634700775E0,-2.757728100E-1
1.528047627E1,-9.912267923E-1,-9.637093544E0,-3.595215976E-1
1.530074877E1,-7.974081635E-1,-9.744770050E0,-3.236292601E-1
1.532102111E1,-6.891329288E-1,-9.816555023E0,-1.824527234E-1
1.534129345E1,-6.436693072E-1,-9.885947227E0,4.307080805E-2
1.536156575E1,-6.364908218E-1,-9.857233047E0,1.986042857E-1
1.538183793E1,-6.077769399E-1,-9.905089378E0,2.679961324E-1
1.540211012E1,-5.647061467E-1,-9.957731247E0,1.770688742E-1
1.542238226E1,-5.862415433E-1,-9.862018585E0,3.349951655E-2
1.544265434E1,-6.460621357E-1,-9.823733330E0,-8.913264424E-2
1.546292648E1,-7.369893789E-1,-9.768698692E0,-1.345962733E-1
1.548319856E1,-9.242277741E-1,-9.792626381E0,-7.956135273E-2
1.550347064E1,-1.043868899E0,-9.797411919E0,-2.392822644E-3
1.552374267E1,-1.079761267E0,-9.749555588E0,5.024927482E-2
1.554401476E1,-9.625129104E-1,-9.692128181E0,6.460621208E-2
1.556428684E1,-7.854440212E-1,-9.751948357E0,-2.213360928E-2
1.558455887E1,-6.723831892E-1,-9.842875481E0,-1.226321608E-1
1.560495887E1,-7.130611539E-1,-9.816555023E0,-1.489532143E-1
1.562510293E1,-7.585247755E-1,-9.773484230E0,-1.322034448E-1
1.564537496E1,-8.596215248E-1,-9.785448074E0,-5.084748194E-2
1.566564705E1,-9.433703423E-1,-9.823733330E0,4.307080805E-2
1.568591903E1,-9.625129104E-1,-9.864411354E0,9.092725813E-2
1.570631903E1,-8.620143533E-1,-9.771091461E0,8.853443712E-2
1.572646304E1,-7.393822074E-1,-9.725627899E0,7.178468257E-2
1.574673512E1,-7.178468108E-1,-9.826126099E0,-7.178467698E-3
1.576700715E1,-7.902296782E-1,-9.888339996E0,-2.392822644E-3
1.578727918E1,-9.649057388E-1,-9.842875481E0,5.742774159E-2
1.580755116E1,-1.041476011E0,-9.744770050E0,9.571290761E-2
1.582782319E1,-9.888339639E-1,-9.720842361E0,6.939185411E-2
1.584809523E1,-9.266205430E-1,-9.763913155E0,4.785645287E-3
1.586836720E1,-7.950153351E-1,-9.826126099E0,-1.465603858E-1
1.588863924E1,-7.010970116E-1,-9.773484230E0,-2.279163599E-1
1.590891127E1,-5.766702294E-1,-9.761520386E0,-2.039881349E-1
1.592918325E1,-5.216353536E-1,-9.859625816E0,-9.870393574E-2
1.594945528E1,-5.359922647E-1,-9.991230965E0,6.699903309E-2
1.596972731E1,-5.838487148E-1,-9.897911072E0,2.321037948E-1
1.599012731E1,-7.058826685E-1,-9.766305923E0,3.062812984E-1
1.601027132E1,-8.883354068E-1,-9.773484230E0,2.560320199E-1
1.603054330E1,-1.074975610E0,-9.783055305E0,1.172483116E-1
1.605081533E1,-1.134796143E0,-9.854840279E0,-4.366901144E-2
1.607108731E1,-1.063011408E0,-9.682557106E0,-1.034895778E-1
1.609135934E1,-9.672985673E-1,-9.783055305E0,-1.274178028E-1
1.611163132E1,-7.465606928E-1,-9.725627899E0,-7.956135273E-2
1.613190335E1,-6.843472719E-1,-9.852447510E0,-0.000000000E0
1.615217533E1,-6.556333899E-1,-9.869196892E0,4.307080805E-2
1.617244736E1,-7.058826685E-1,-9.795019150E0,8.374879509E-2
1.619271934E1,-7.417750359E-1,-9.833304405E0,6.939185411E-2
1.621311934E1,-7.154539824E-1,-9.854840279E0,4.307080805E-2
1.623330278E1,-6.699903607E-1,-9.792626381E0,4.546362907E-2
1.625353549E1,-7.609176040E-1,-9.785448074E0,5.024927482E-2
1.627380741E1,-8.356932998E-1,-9.869196892E0,4.546362907E-2
1.629420741E1,-8.883354068E-1,-9.835697174E0,7.896314561E-2
1.631435142E1,-9.649057388E-1,-9.828518867E0,8.853443712E-2
1.633462335E1,-9.577272534E-1,-9.795019150E0,4.067798331E-2
1.635489533E1,-9.481559992E-1,-9.775876999E0,-9.571290575E-3
1.637516731E1,-9.218349457E-1,-9.778269768E0,-1.256231871E-2
1.639556731E1,-8.811569214E-1,-9.730413437E0,-2.213360928E-2
1.641571132E1,-9.026923180E-1,-9.713663101E0,-3.170489892E-2
1.643598319E1,-8.763712645E-1,-9.845269203E0,-1.974078640E-2
1.645625522E1,-7.322037220E-1,-9.830911636E0,-5.324030295E-2
1.647652720E1,-6.556333899E-1,-9.828518867E0,-3.409772366E-2
1.649692720E1,-7.010970116E-1,-9.754341125E0,4.785645381E-2
1.651707116E1,-8.476574421E-1,-9.854840279E0,5.742774159E-2
1.653734314E1,-8.213363886E-1,-9.878767967E0,3.589234129E-2
1.655765444E1,-8.787640929E-1,-9.594022751E0,5.264209956E-2
1.657804528E1,-9.888339639E-1,-9.728020668E0,3.828516230E-2
1.659831694E1,-8.739784956E-1,-9.847661972E0,2.153540403E-2
1.661843163E1,-8.572286963E-1,-9.823733330E0,5.264209956E-2
1.663870345E1,-8.596215248E-1,-9.960124016E0,9.571290575E-3
1.665910345E1,-6.412764788E-1,-9.732806206E0,-6.520441920E-2
1.667924726E1,-5.862415433E-1,-9.670592308E0,-6.281159073E-2
1.669951918E1,-5.742774606E-1,-9.905089378E0,-4.366901144E-2
1.671979111E1,-6.077769399E-1,-1.009172916E1,6.221338734E-2
1.674005679E1,-6.652047038E-1,-9.929018021E0,1.818545163E-1
1.676033278E1,-8.979067206E-1,-9.694520950E0,2.679961324E-1
1.678060517E1,-1.247258782E0,-9.555737495E0,1.986042857E-1
1.680087747E1,-1.342971683E0,-9.558130264E0,3.589234129E-2
1.682114970E1,-1.182652593E0,-9.658628464E0,-7.477571070E-2
1.684142184E1,-8.979067206E-1,-9.818947792E0,-1.154536903E-1
1.686169398E1,-5.670989752E-1,-1.004865837E1,-1.202393398E-1
1.688196590E1,-3.732803464E-1,-1.000080204E1,-5.563312769E-2
1.690236606E1,-3.110669553E-1,-9.888339996E0,-2.392822644E-3
1.692251012E1,-3.996013701E-1,-9.914660454E0,7.417750359E-2
1.694278215E1,-5.431707501E-1,-9.876375198E0,1.435693651E-1
1.696305418E1,-6.293123364E-1,-9.713663101E0,1.818545163E-1
1.698332616E1,-6.652047038E-1,-9.601201057E0,1.100698411E-1
1.700359819E1,-5.455635786E-1,-9.586843491E0,-1.734796353E-2
1.702387017E1,-4.857429862E-1,-9.723235130E0,-7.238288224E-2
1.704414215E1,-4.881358147E-1,-9.955338478E0,5.503492057E-2
1.706441413E1,-5.982056856E-1,-1.006780148E1,2.775674164E-1
1.708468611E1,-6.125625968E-1,-9.988838196E0,5.718846321E-1
1.710509408E1,-5.335994363E-1,-1.000558758E1,7.800601721E-1
1.712537866E1,-5.503492355E-1,-9.943374634E0,7.800601721E-1
1.714549507E1,-6.843472719E-1,-9.830911636E0,4.881358147E-1
1.716576840E1,-8.309076428E-1,-9.730413437E0,7.178468257E-2
1.718604028E1,-9.002995491E-1,-9.625128746E0,-2.063809484E-1
1.720644148E1,-9.553344250E-1,-9.608379364E0,-3.690928817E-1
1.722658528E1,-9.170492887E-1,-9.711270332E0,-4.049852192E-1
1.724686200E1,-7.202396393E-1,-9.869196892E0,-2.327020019E-1
1.726713387E1,-4.689932466E-1,-9.878767967E0,8.853443712E-2
1.728740580E1,-3.206382394E-1,-9.914660454E0,3.373879790E-1
1.730767778E1,-2.751746178E-1,-9.957731247E0,3.924229145E-1
1.732794965E1,-5.072783828E-1,-9.921838760E0,2.703889608E-1
1.734822158E1,-8.117650747E-1,-9.780662537E0,1.651047617E-1
1.736849345E1,-1.137188911E0,-9.708877563E0,5.982056633E-2
1.738876538E1,-1.304686546E0,-9.682557106E0,-3.170489892E-2
1.740903731E1,-1.299900889E0,-9.672985077E0,-4.366901144E-2
1.742930924E1,-1.067797065E0,-9.735198975E0,5.264209956E-2
1.744958208E1,-8.548358679E-1,-9.792626381E0,1.292124242E-1
1.746985338E1,-7.298108935E-1,-9.885947227E0,2.057827413E-1
1.749012531E1,-6.556333899E-1,-9.900303841E0,1.938186288E-1
1.751039723E1,-6.077769399E-1,-9.818947792E0,1.292124242E-1
1.753066916E1,-6.317051649E-1,-9.811769485E0,5.742774159E-2
1.755094109E1,-6.436693072E-1,-9.761520386E0,-9.571290575E-3
1.757121301E1,-6.939185858E-1,-9.720842361E0,-4.127619043E-2
1.759148494E1,-7.154539824E-1,-9.835697174E0,3.110669367E-2
1.761175687E1,-7.585247755E-1,-9.878767967E0,1.172483116E-1
1.763202880E1,-7.878368497E-1,-9.814162254E0,1.579262912E-1
1.765230072E1,-8.691928387E-1,-9.672985077E0,1.076770201E-1
1.767257265E1,-9.242277741E-1,-9.732806206E0,-4.785645287E-3
1.769284458E1,-8.691928387E-1,-9.778269768E0,-1.130608693E-1
1.771311650E1,-7.878368497E-1,-9.802198410E0,-1.226321608E-1
1.773351650E1,-7.633104324E-1,-9.885947227E0,-4.785645287E-3
1.775366031E1,-7.298108935E-1,-9.845269203E0,1.962114573E-1
1.777393223E1,-7.441678643E-1,-9.912267685E0,3.661018610E-1
1.779433223E1,-7.830511928E-1,-9.864411354E0,2.321037948E-1
1.781447604E1,-6.604190469E-1,-9.847661972E0,1.196411345E-2
1.783474801E1,-5.000999570E-1,-9.761520386E0,-6.759724021E-2
1.785501994E1,-4.450650215E-1,-9.838089943E0,-1.734796353E-2
1.787529187E1,-5.312066078E-1,-9.780662537E0,1.339980662E-1
1.789569187E1,-7.878368497E-1,-9.823733330E0,2.392822653E-1
1.791583567E1,-1.034297585E0,-9.924231529E0,2.392822653E-1
1.793610760E1,-1.197009563E0,-9.876375198E0,7.178468257E-2
1.795637953E1,-1.115653515E0,-9.675378799E0,-9.631111473E-2
1.797665145E1,-9.002995491E-1,-9.558130264E0,-1.776670814E-1
1.799705145E1,-7.130611539E-1,-9.859625816E0,-1.704886109E-1
1.801735322E1,-4.881358147E-1,-9.984052658E0,-1.034895778E-1
1.803746775E1,-3.661018610E-1,-9.835697174E0,4.307080805E-2
1.805786775E1,-3.732803464E-1,-9.783055305E0,2.177468538E-1
1.807816932E1,-5.958128572E-1,-9.689735413E0,3.445664644E-1
1.809844124E1,-9.625129104E-1,-9.775876999E0,3.900300860E-1
1.811855583E1,-1.285543919E0,-9.842875481E0,3.972085714E-1
1.813882749E1,-1.622931957E0,-1.014676476E1,3.613162339E-1
1.815909916E1,-1.247258782E0,-9.732806206E0,1.507478207E-1
1.817937104E1,-1.130010486E0,-9.596415520E0,6.221338734E-2
1.819977104E1,-1.065404296E0,-9.744770050E0,-1.058823988E-1
1.821991473E1,-8.213363886E-1,-9.716055870E0,-2.709871531E-1
1.824017525E1,-6.723831892E-1,-9.792626381E0,-3.355933726E-1
1.826045437E1,-5.383850932E-1,-9.806983948E0,-3.308077157E-1
1.828072702E1,-5.240281820E-1,-9.728020668E0,-1.776670814E-1
1.830099947E1,-5.670989752E-1,-9.771091461E0,-1.226321608E-1
1.832127192E1,-5.790630579E-1,-9.864411354E0,-1.872383654E-1
1.834154421E1,-5.838487148E-1,-9.818947792E0,-6.520441920E-2
1.836181640E1,-6.532405615E-1,-9.778269768E0,9.092725813E-2
1.838208854E1,-7.369893789E-1,-9.792626381E0,2.512463629E-1
1.840236057E1,-8.189435601E-1,-9.773484230E0,4.259224236E-1
1.842263265E1,-9.146564603E-1,-9.816555023E0,4.666004181E-1
1.844290468E1,-8.979067206E-1,-9.893125534E0,3.469592929E-1
1.846317666E1,-7.998009920E-1,-9.998409271E0,1.531406492E-1
1.848344859E1,-7.250252366E-1,-9.981659889E0,9.571290575E-3
1.850372057E1,-6.412764788E-1,-9.732806206E0,-1.010967568E-1
1.852399249E1,-5.790630579E-1,-9.610772133E0,-1.345962733E-1
1.854426442E1,-7.082754970E-1,-9.759127617E0,-1.202393398E-1
1.856453630E1,-8.069794178E-1,-9.852447510E0,-3.649054468E-2
1.858480822E1,-8.644071817E-1,-9.804591179E0,7.657032460E-2
1.860520828E1,-9.409775138E-1,-9.795019150E0,2.105683982E-1
1.862535197E1,-9.840483069E-1,-9.713663101E0,3.206382394E-1
1.864562395E1,-9.984052777E-1,-9.759127617E0,3.565305769E-1
1.866589583E1,-1.022333503E0,-9.914660454E0,3.062812984E-1
1.868616770E1,-9.529415965E-1,-9.940981865E0,2.536391914E-1
1.870656770E1,-7.633104324E-1,-9.771091461E0,2.440679073E-1
1.872671150E1,-6.987041831E-1,-9.787840843E0,2.009970993E-1
1.874698343E1,-8.021938205E-1,-9.787840843E0,1.292124242E-1
1.876725531E1,-1.010369420E0,-9.739984512E0,6.221338734E-2
1.878752718E1,-1.115653515E0,-9.816555023E0,-2.213360928E-2
1.880779906E1,-1.055832982E0,-9.921838760E0,-1.034895778E-1
1.882807093E1,-8.356932998E-1,-9.773484230E0,-1.465603858E-1
1.884834281E1,-6.340979934E-1,-9.663414001E0,-1.178465188E-1
1.886861463E1,-5.120640397E-1,-9.704092026E0,-7.716853172E-2
1.888888650E1,-5.335994363E-1,-9.809376717E0,7.178468257E-2
1.890915838E1,-7.417750359E-1,-9.948160172E0,2.608176768E-1
1.892943025E1,-1.051047325E0,-9.943374634E0,4.043870270E-1
1.894970213E1,-1.199402332E0,-9.694520950E0,3.182454109E-1
1.896997400E1,-1.125224829E0,-9.723235130E0,7.896314561E-2
1.899024588E1,-9.529415965E-1,-9.866804123E0,-8.913264424E-2
1.901051775E1,-7.830511928E-1,-9.737591743E0,-1.250249892E-1
1.903078963E1,-7.441678643E-1,-9.718449593E0,-4.606183618E-2
1.905106150E1,-7.974081635E-1,-9.816555023E0,8.614161611E-2
1.907133338E1,-8.979067206E-1,-9.845269203E0,2.512463629E-1
1.909160520E1,-9.385846853E-1,-9.787840843E0,2.775674164E-1
1.911187708E1,-9.481559992E-1,-9.780662537E0,1.292124242E-1
1.913214895E1,-8.787640929E-1,-9.842875481E0,3.349951655E-2
1.915242078E1,-8.596215248E-1,-9.785448074E0,-5.084748194E-2
1.917269265E1,-7.902296782E-1,-9.749555588E0,-1.345962733E-1
1.919296452E1,-7.806583643E-1,-9.806983948E0,-1.872383654E-1
1.921323635E1,-8.476574421E-1,-9.850054741E0,-1.202393398E-1
1.923362702E1,-8.859425783E-1,-9.780662537E0,1.674975827E-2
1.925378010E1,-9.122636318E-1,-9.773484230E0,1.268195957E-1
1.927405192E1,-8.811569214E-1,-9.694520950E0,1.746760458E-1
1.929445192E1,-9.505487680E-1,-9.821340561E0,1.483550072E-1
1.931459567E1,-9.457631707E-1,-9.854840279E0,3.349951655E-2
1.933486749E1,-9.290133715E-1,-9.675378799E0,-3.409772366E-2
1.935513937E1,-9.266205430E-1,-9.845269203E0,-1.974078640E-2
1.937541119E1,-8.404789567E-1,-9.912267685E0,3.349951655E-2
1.939581119E1,-6.197410822E-1,-9.850054741E0,1.076770201E-1
1.941595489E1,-4.929214716E-1,-9.785448074E0,1.387837082E-1
1.943622676E1,-4.905286431E-1,-9.835697174E0,1.148554832E-1
1.945649859E1,-6.125625968E-1,-9.845269203E0,9.092725813E-2
1.947689859E1,-9.314061999E-1,-9.823733330E0,7.417750359E-2
1.949720020E1,-1.170688510E0,-9.735198975E0,2.153540403E-2
1.951731468E1,-1.345364571E0,-9.651450157E0,1.914258115E-2
1.953758645E1,-1.381256819E0,-9.706484795E0,1.196411345E-2
1.955798645E1,-1.134796143E0,-9.751948357E0,-0.000000000E0
1.957828791E1,-8.428717852E-1,-9.761520386E0,4.785645287E-3
1.959855979E1,-6.747759581E-1,-9.821340561E0,2.153540403E-2
1.961867426E1,-5.455635786E-1,-9.895518303E0,5.982056633E-2
1.963894593E1,-5.168496966E-1,-9.924231529E0,7.178468257E-2
1.965921765E1,-5.000999570E-1,-9.878767967E0,7.417750359E-2
1.967948932E1,-5.862415433E-1,-9.826126099E0,8.374879509E-2
1.969988932E1,-7.704889178E-1,-9.823733330E0,1.076770201E-1
1.972003291E1,-9.912267923E-1,-9.737591743E0,1.435693651E-1
1.974029411E1,-1.168295622E0,-9.718449593E0,1.220339537E-1
1.976057270E1,-1.194616675E0,-9.730413437E0,6.460621208E-2
1.978084515E1,-1.070189953E0,-9.804591179E0,8.374879509E-2
1.980111749E1,-9.649057388E-1,-9.890732765E0,1.292124242E-1
1.982138989E1,-8.763712645E-1,-9.842875481E0,1.339980662E-1
1.984166213E1,-8.093722463E-1,-9.785448074E0,1.435693651E-1
1.986193421E1,-7.441678643E-1,-9.799804688E0,1.148554832E-1
1.988220630E1,-7.369893789E-1,-9.785448074E0,7.657032460E-2
1.990247822E1,-9.074779749E-1,-9.754341125E0,1.028913707E-1
1.992275020E1,-1.067797065E0,-9.723235130E0,1.148554832E-1
1.994302218E1,-1.177866936E0,-9.821340561E0,1.387837082E-1
1.996329411E1,-1.077368379E0,-9.950552940E0,7.417750359E-2
1.998356989E1,-6.987041831E-1,-9.783055305E0,5.264209956E-2
2.000387645E1,-5.264210105E-1,-9.780662537E0,6.939185411E-2
2.002410916E1,-4.881358147E-1,-9.876375198E0,3.110669367E-2
2.004438114E1,-5.240281820E-1,-9.871589661E0,5.264209956E-2
2.006465307E1,-6.173482537E-1,-9.811769485E0,8.614161611E-2
2.008492484E1,-7.728816867E-1,-9.785448074E0,1.028913707E-1
2.010532494E1,-9.840483069E-1,-9.771091461E0,1.124626622E-1
2.012546864E1,-1.141974568E0,-9.768698692E0,1.052841991E-1
2.014574051E1,-1.141974568E0,-9.728020668E0,6.221338734E-2
2.016601239E1,-9.170492887E-1,-9.718449593E0,4.067798331E-2
2.018628421E1,-7.513462901E-1,-9.759127617E0,6.460621208E-2
2.020668426E1,-6.987041831E-1,-9.871589661E0,7.896314561E-2
2.022682781E1,-7.034898400E-1,-9.823733330E0,6.699903309E-2
2.024709984E1,-7.926225066E-1,-9.720842361E0,9.571290761E-2
2.026737166E1,-9.050851464E-1,-9.754341125E0,1.052841991E-1
2.028764348E1,-1.003190875E0,-9.823733330E0,6.699903309E-2
2.030791525E1,-9.433703423E-1,-9.919445992E0,1.028913707E-1
2.032818703E1,-8.691928387E-1,-9.850054741E0,1.220339537E-1
2.034845890E1,-7.998009920E-1,-9.773484230E0,1.531406492E-1
2.036873067E1,-7.878368497E-1,-9.795019150E0,1.292124242E-1
2.038900249E1,-7.680960894E-1,-9.797411919E0,6.939185411E-2
2.040927426E1,-8.093722463E-1,-9.864411354E0,-0.000000000E0
2.042954609E1,-8.237292171E-1,-9.730413437E0,-3.409772366E-2
2.044981791E1,-8.668000102E-1,-9.730413437E0,9.571290575E-3
2.047008968E1,-8.715856671E-1,-9.847661972E0,5.742774159E-2
2.049048968E1,-8.021938205E-1,-9.840482712E0,1.746760458E-1
2.051063328E1,-8.907282352E-1,-9.809376717E0,3.397808075E-1
2.053090504E1,-8.811569214E-1,-9.739984512E0,2.967100143E-1
2.055117687E1,-8.165507317E-1,-9.806983948E0,2.608176768E-1
2.057144864E1,-8.739784956E-1,-9.823733330E0,1.004985496E-1
2.059172046E1,-9.505487680E-1,-9.754341125E0,1.196411345E-2
2.061199223E1,-1.029511929E0,-9.797411919E0,-3.170489892E-2
2.063226400E1,-1.007976532E0,-9.771091461E0,1.196411345E-2
2.065253583E1,-9.170492887E-1,-9.732806206E0,4.067798331E-2
2.067280760E1,-7.830511928E-1,-9.747162819E0,5.264209956E-2
2.069307937E1,-7.010970116E-1,-9.802198410E0,5.264209956E-2
2.071347937E1,-6.867401004E-1,-9.883553505E0,1.028913707E-1
2.073374140E1,-7.393822074E-1,-9.926624298E0,1.842473447E-1
2.075389520E1,-7.878368497E-1,-9.823733330E0,1.603191197E-1
2.077416687E1,-9.194421172E-1,-9.737591743E0,1.292124242E-1
2.079456687E1,-9.744769931E-1,-9.716055870E0,1.674975827E-2
2.081471036E1,-9.385846853E-1,-9.749555588E0,-4.606183618E-2
2.083498208E1,-9.553344250E-1,-9.811769485E0,-2.452643216E-2
2.085525380E1,-9.194421172E-1,-9.838089943E0,6.221338734E-2
2.087552557E1,-8.237292171E-1,-9.797411919E0,1.387837082E-1
2.089592557E1,-7.950153351E-1,-9.799804688E0,1.890329868E-1
2.091606906E1,-7.998009920E-1,-9.806983948E0,1.555334777E-1
2.093634083E1,-8.500502706E-1,-9.766305923E0,1.004985496E-1
2.095661260E1,-9.385846853E-1,-9.761520386E0,5.742774159E-2
2.097688432E1,-1.027119160E0,-9.795019150E0,6.221338734E-2
2.099728432E1,-1.041476011E0,-9.816555023E0,9.092725813E-2
2.101742786E1,-9.672985673E-1,-9.775876999E0,1.292124242E-1
2.103781843E1,-8.428717852E-1,-9.737591743E0,1.268195957E-1
2.105812932E1,-6.723831892E-1,-9.783055305E0,1.220339537E-1
2.107840124E1,-6.077769399E-1,-9.840482712E0,1.148554832E-1
2.109851562E1,-6.556333899E-1,-9.919445992E0,7.178468257E-2
2.111878723E1,-7.465606928E-1,-9.842875481E0,4.785645381E-2
2.113905890E1,-8.213363886E-1,-9.754341125E0,5.982056633E-2
2.115945890E1,-8.452646136E-1,-9.775876999E0,1.196411345E-2
2.117960234E1,-8.739784956E-1,-9.792626381E0,-1.974078640E-2
2.119987395E1,-8.452646136E-1,-9.838089943E0,9.571290575E-3
2.122014567E1,-8.045865893E-1,-9.830911636E0,6.939185411E-2
2.124041098E1,-8.021938205E-1,-9.665806770E0,1.172483116E-1
2.126068687E1,-8.309076428E-1,-9.790233612E0,8.374879509E-2
2.128095906E1,-7.274180651E-1,-9.792626381E0,7.657032460E-2
2.130123119E1,-7.298108935E-1,-9.943374634E0,8.135596663E-2
2.132150322E1,-7.393822074E-1,-9.895518303E0,1.387837082E-1
2.134177520E1,-7.806583643E-1,-9.842875481E0,2.201396823E-1
2.136204708E1,-8.596215248E-1,-9.775876999E0,1.603191197E-1
2.138231885E1,-9.218349457E-1,-9.706484795E0,1.363908947E-1
2.140271900E1,-1.015154958E0,-9.773484230E0,1.124626622E-1
2.142286265E1,-1.024726272E0,-9.821340561E0,8.374879509E-2
2.144313447E1,-1.005583763E0,-9.795019150E0,7.896314561E-2
2.146340630E1,-9.529415965E-1,-9.775876999E0,7.657032460E-2
2.148367801E1,-8.596215248E-1,-9.716055870E0,7.896314561E-2
2.150407807E1,-7.322037220E-1,-9.768698692E0,1.028913707E-1
2.152422166E1,-6.604190469E-1,-9.816555023E0,1.435693651E-1
2.154449343E1,-7.154539824E-1,-9.878767967E0,1.555334777E-1
2.156476520E1,-8.261220455E-1,-9.823733330E0,1.411765367E-1
2.158503697E1,-9.433703423E-1,-9.778269768E0,1.387837082E-1
2.160544499E1,-1.003190875E0,-9.747162819E0,6.939185411E-2
2.162572916E1,-1.007976532E0,-9.723235130E0,3.349951655E-2
2.164584536E1,-9.409775138E-1,-9.775876999E0,2.632104978E-2
2.166611708E1,-8.787640929E-1,-9.787840843E0,6.939185411E-2
2.168652656E1,-8.141579032E-1,-9.811769485E0,1.124626622E-1
2.170681166E1,-8.141579032E-1,-9.787840843E0,1.698904037E-1
2.172692604E1,-8.189435601E-1,-9.804591179E0,1.746760458E-1
2.174721182E1,-7.680960894E-1,-9.828518867E0,1.818545163E-1
2.176748343E1,-7.322037220E-1,-9.806983948E0,1.794617027E-1
2.178775504E1,-7.226324677E-1,-9.804591179E0,1.292124242E-1
2.180815505E1,-7.537391186E-1,-9.818947792E0,8.614161611E-2
2.182829843E1,-8.380861282E-1,-9.814162254E0,9.092725813E-2
2.184857010E1,-8.644071817E-1,-9.763913155E0,8.374879509E-2
2.186884176E1,-7.854440212E-1,-9.766305923E0,1.148554832E-1
2.188911343E1,-6.508477330E-1,-9.835697174E0,1.459621787E-1
2.190938520E1,-6.795616150E-1,-9.811769485E0,1.986042857E-1
2.192965697E1,-8.811569214E-1,-9.871589661E0,2.105683982E-1
2.194992864E1,-9.385846853E-1,-9.816555023E0,1.316052526E-1
2.197020041E1,-9.026923180E-1,-9.668199539E0,8.614161611E-2
2.199047208E1,-8.931210637E-1,-9.728020668E0,2.632104978E-2
2.201074385E1,-7.830511928E-1,-9.833304405E0,-1.734796353E-2
2.203101562E1,-6.891329288E-1,-9.847661972E0,6.699903309E-2
2.205128734E1,-6.867401004E-1,-9.850054741E0,1.746760458E-1
2.207155900E1,-8.189435601E-1,-9.852447510E0,2.392822653E-1
2.209183078E1,-8.835497499E-1,-9.761520386E0,1.842473447E-1
2.211210255E1,-7.902296782E-1,-9.670592308E0,8.374879509E-2
2.213237426E1,-6.843472719E-1,-9.797411919E0,-4.785645287E-3
2.215264604E1,-6.891329288E-1,-9.905089378E0,1.674975827E-2
2.217291775E1,-8.069794178E-1,-9.912267685E0,1.244267747E-1
2.219318952E1,-9.170492887E-1,-9.818947792E0,2.823530734E-1
2.221346124E1,-9.122636318E-1,-9.814162254E0,2.871387303E-1
2.223385182E1,-9.720842242E-1,-9.672985077E0,1.627119333E-1
2.225400473E1,-9.266205430E-1,-9.629914284E0,7.178467698E-3
2.227427650E1,-8.524430394E-1,-9.701699257E0,-1.034895778E-1
2.229467650E1,-7.704889178E-1,-9.802198410E0,-7.716853172E-2
2.231481999E1,-7.369893789E-1,-9.909874916E0,4.307080805E-2
2.233509176E1,-6.795616150E-1,-1.000798035E1,1.938186288E-1
2.235536348E1,-6.412764788E-1,-9.905089378E0,3.780659735E-1
2.237563525E1,-6.293123364E-1,-9.818947792E0,4.067798555E-1
2.239603525E1,-7.537391186E-1,-9.797411919E0,2.703889608E-1
2.241617874E1,-9.601200819E-1,-9.759127617E0,8.614161611E-2
2.243645041E1,-1.106082320E0,-9.696913719E0,-2.691925503E-2
2.245672223E1,-1.206580877E0,-9.730413437E0,-2.931207791E-2
2.247699400E1,-1.086939692E0,-9.826126099E0,9.092725813E-2
2.249739400E1,-9.314061999E-1,-9.897911072E0,2.943171859E-1
2.251769546E1,-6.843472719E-1,-9.840482712E0,4.522434771E-1
2.253796728E1,-5.814558864E-1,-9.802198410E0,4.163511395E-1
2.255823911E1,-6.604190469E-1,-9.869196892E0,2.919243574E-1
2.257827499E1,-8.356932998E-1,-9.921838760E0,1.794617027E-1
2.259867499E1,-9.577272534E-1,-9.828518867E0,1.124626622E-1
2.261889703E1,-1.022333503E0,-9.684949875E0,3.110669367E-2
2.263916859E1,-9.601200819E-1,-9.550951958E0,-3.170489892E-2
2.265944025E1,-8.763712645E-1,-9.565308571E0,-5.084748194E-2
2.267971192E1,-8.596215248E-1,-9.909874916E0,-5.563312769E-2
2.269998364E1,-7.465606928E-1,-9.979267120E0,-3.409772366E-2
2.272025525E1,-5.910272002E-1,-9.809376717E0,6.939185411E-2
2.274052020E1,-4.426721931E-1,-9.665806770E0,1.148554832E-1
2.276079630E1,-4.067798555E-1,-9.682557106E0,1.292124242E-1
2.278106859E1,-5.742774606E-1,-9.706484795E0,8.135596663E-2
2.280134072E1,-7.034898400E-1,-9.830911636E0,5.982056633E-2
2.282161270E1,-8.476574421E-1,-9.850054741E0,6.699903309E-2
2.284188478E1,-1.000798106E0,-9.818947792E0,8.135596663E-2
2.286215666E1,-1.141974568E0,-9.696913719E0,1.986042857E-1
2.288242859E1,-1.247258782E0,-9.629914284E0,3.254238665E-1
2.290270046E1,-1.366899967E0,-9.773484230E0,3.637090325E-1
2.292297234E1,-1.323829174E0,-1.000080204E1,2.943171859E-1
2.294324416E1,-1.034297585E0,-9.955338478E0,2.009970993E-1
2.296351598E1,-6.867401004E-1,-9.744770050E0,1.698904037E-1
2.298378775E1,-4.474578202E-1,-9.811769485E0,8.374879509E-2
2.300418781E1,-2.153540403E-1,-9.895518303E0,5.982056633E-2
2.302433135E1,-1.244267747E-1,-9.981659889E0,1.387837082E-1
2.304460312E1,-4.043870270E-1,-9.866804123E0,3.086741269E-1
2.306487494E1,-8.572286963E-1,-9.682557106E0,4.019941986E-1
2.308514671E1,-1.261615753E0,-9.706484795E0,3.445664644E-1
2.310554671E1,-1.450648785E0,-9.797411919E0,2.225325108E-1
2.312569031E1,-1.342971683E0,-9.873982430E0,1.339980662E-1
2.314596208E1,-7.950153351E-1,-9.912267685E0,1.220339537E-1
2.316623385E1,-4.977070987E-1,-9.818947792E0,1.148554832E-1
2.318650562E1,-4.809573591E-1,-9.749555588E0,1.100698411E-1
2.320690562E1,-7.513462901E-1,-9.763913155E0,1.004985496E-1
2.322704916E1,-9.242277741E-1,-9.737591743E0,1.100698411E-1
2.324732098E1,-8.763712645E-1,-9.785448074E0,1.627119333E-1
2.326759275E1,-6.819544435E-1,-9.852447510E0,1.483550072E-1
2.328786447E1,-5.886343718E-1,-9.914660454E0,1.603191197E-1
2.330813624E1,-6.053841114E-1,-9.852447510E0,2.536391914E-1
2.332840801E1,-6.867401004E-1,-9.792626381E0,2.775674164E-1
2.334867978E1,-8.404789567E-1,-9.763913155E0,1.914258152E-1
2.336895156E1,-8.835497499E-1,-9.735198975E0,9.092725813E-2
2.338922333E1,-1.010369420E0,-9.787840843E0,6.699903309E-2
2.340949515E1,-1.170688510E0,-1.000080204E1,5.982056633E-2
2.342976692E1,-1.208973646E0,-9.742377281E0,9.571290761E-2
2.345003869E1,-1.027119160E0,-9.653842926E0,1.627119333E-1
2.347031046E1,-8.596215248E-1,-9.694520950E0,1.651047617E-1
2.349058223E1,-7.633104324E-1,-9.826126099E0,1.411765367E-1
2.351085400E1,-8.165507317E-1,-9.900303841E0,1.483550072E-1
2.353112578E1,-9.649057388E-1,-9.818947792E0,1.339980662E-1
2.355139749E1,-1.067797065E0,-9.771091461E0,1.124626622E-1
2.357166932E1,-1.249651670E0,-9.785448074E0,1.292124242E-1
2.359194109E1,-1.280758262E0,-9.625128746E0,1.124626622E-1
2.361221286E1,-1.096511006E0,-9.720842361E0,1.387837082E-1
2.363248463E1,-9.577272534E-1,-9.811769485E0,1.459621787E-1
2.365275640E1,-9.218349457E-1,-9.885947227E0,1.124626622E-1
2.367302817E1,-8.380861282E-1,-9.838089943E0,9.571290761E-2
2.369329994E1,-7.154539824E-1,-9.785448074E0,6.699903309E-2
2.371357171E1,-6.723831892E-1,-9.838089943E0,2.392822690E-2
2.373397171E1,-7.998009920E-1,-9.699306488E0,1.435693540E-2
2.375411525E1,-1.043868899E0,-9.744770050E0,3.349951655E-2
2.377438703E1,-1.156331539E0,-9.869196892E0,4.307080805E-2
2.379478702E1,-1.086939692E0,-9.718449593E0,6.939185411E-2
2.381493057E1,-9.290133715E-1,-9.689735413E0,1.196411327E-1
2.383520234E1,-7.322037220E-1,-9.902696609E0,1.244267747E-1
2.385547411E1,-6.628118753E-1,-9.950552940E0,1.651047617E-1
2.387574588E1,-7.806583643E-1,-9.840482712E0,2.129612118E-1
2.389614588E1,-9.385846853E-1,-9.811769485E0,1.387837082E-1
2.391628942E1,-8.787640929E-1,-9.716055870E0,4.307080805E-2
2.393656119E1,-7.926225066E-1,-9.728020668E0,-7.178467698E-3
2.395683296E1,-7.465606928E-1,-9.811769485E0,3.110669367E-2
2.397723296E1,-7.806583643E-1,-9.797411919E0,8.135596663E-2
2.399753447E1,-7.513462901E-1,-9.881160736E0,1.842473447E-1
2.401772755E1,-7.393822074E-1,-9.840482712E0,2.727817893E-1
2.403807807E1,-8.045865893E-1,-9.838089943E0,2.368894368E-1
2.405834989E1,-8.596215248E-1,-9.713663101E0,1.076770201E-1
2.407846432E1,-8.021938205E-1,-9.720842361E0,9.571290575E-3
2.409873598E1,-7.226324677E-1,-9.814162254E0,3.110669367E-2
2.411900760E1,-7.202396393E-1,-9.845269203E0,6.939185411E-2
2.413927926E1,-7.274180651E-1,-9.835697174E0,1.292124242E-1
2.415955098E1,-7.513462901E-1,-9.873982430E0,2.033899277E-1
2.417982265E1,-7.058826685E-1,-9.845269203E0,2.608176768E-1
2.420022265E1,-7.465606928E-1,-9.751948357E0,2.584248483E-1
2.422036614E1,-8.476574421E-1,-9.701699257E0,1.555334777E-1
2.424063254E1,-9.314061999E-1,-9.739984512E0,7.417750359E-2
2.426090775E1,-8.739784956E-1,-9.761520386E0,6.699903309E-2
2.428117994E1,-8.117650747E-1,-9.816555023E0,1.411765367E-1
2.430145192E1,-7.704889178E-1,-9.873982430E0,2.560320199E-1
2.432172395E1,-7.633104324E-1,-9.917053223E0,3.708875179E-1
2.434199588E1,-6.484549642E-1,-9.866804123E0,3.565305769E-1
2.436226781E1,-6.221339107E-1,-9.725627899E0,3.397808075E-1
2.438253968E1,-7.226324677E-1,-9.747162819E0,3.206382394E-1
2.440281156E1,-7.345965505E-1,-9.926624298E0,2.153540403E-1
2.442308333E1,-5.790630579E-1,-9.869196892E0,2.201396823E-1
2.444335520E1,-5.766702294E-1,-9.783055305E0,1.244267747E-1
2.446362697E1,-7.513462901E-1,-9.735198975E0,-0.000000000E0
2.448389880E1,-9.314061999E-1,-9.735198975E0,-1.974078640E-2
2.450429885E1,-1.019940615E0,-9.802198410E0,5.742774159E-2
2.452444239E1,-8.715856671E-1,-9.785448074E0,1.866401732E-1
2.454471416E1,-7.513462901E-1,-9.749555588E0,2.656033039E-1
2.456498598E1,-7.082754970E-1,-9.816555023E0,3.038884699E-1
2.458525770E1,-7.441678643E-1,-9.850054741E0,3.469592929E-1
2.460565775E1,-7.974081635E-1,-9.821340561E0,3.828516304E-1
2.462580130E1,-8.668000102E-1,-9.847661972E0,3.589234054E-1
2.464607307E1,-9.074779749E-1,-9.802198410E0,2.440679073E-1
2.466634484E1,-8.620143533E-1,-9.804591179E0,1.627119333E-1
2.468661661E1,-7.154539824E-1,-9.845269203E0,9.810572863E-2
2.470701661E1,-5.455635786E-1,-9.780662537E0,9.571290761E-2
2.472716015E1,-6.173482537E-1,-9.701699257E0,1.962114573E-1
2.474743192E1,-9.337990284E-1,-9.852447510E0,2.560320199E-1
2.476770369E1,-9.768698215E-1,-9.885947227E0,2.225325108E-1
2.478797546E1,-8.093722463E-1,-9.737591743E0,2.440679073E-1
2.480824723E1,-6.963114142E-1,-9.778269768E0,1.627119333E-1
2.482851900E1,-6.604190469E-1,-9.780662537E0,7.657032460E-2
2.484879078E1,-7.465606928E-1,-9.799804688E0,1.124626622E-1
2.486906249E1,-8.668000102E-1,-9.804591179E0,2.440679073E-1
2.488933426E1,-8.811569214E-1,-9.842875481E0,3.661018610E-1
2.490960604E1,-8.691928387E-1,-9.854840279E0,3.924229145E-1
2.492987781E1,-7.998009920E-1,-9.854840279E0,2.560320199E-1
2.495014958E1,-6.843472719E-1,-9.783055305E0,1.028913707E-1
2.497042130E1,-5.383850932E-1,-9.775876999E0,2.871387079E-2
2.499082130E1,-4.163511395E-1,-9.828518867E0,-6.281159073E-2
2.501096484E1,-3.804588020E-1,-9.859625816E0,-4.366901144E-2
2.503123661E1,-4.642075896E-1,-9.833304405E0,1.411765367E-1
2.505150838E1,-6.891329288E-1,-9.792626381E0,3.613162339E-1
2.507178010E1,-8.883354068E-1,-9.809376717E0,5.120640397E-1
2.509205187E1,-1.051047325E0,-9.732806206E0,5.431707501E-1
2.511232364E1,-1.146760225E0,-9.713663101E0,4.067798555E-1
2.513259536E1,-1.165902853E0,-9.725627899E0,1.986042857E-1
2.515286713E1,-9.768698215E-1,-9.806983948E0,2.632104978E-2
2.517313890E1,-6.508477330E-1,-9.816555023E0,-5.563312769E-2
2.519341062E1,-3.972085714E-1,-9.850054741E0,-5.802594870E-2
2.521381062E1,-2.297109663E-1,-9.902696609E0,7.178467698E-3
2.523407260E1,-1.962114573E-1,-9.814162254E0,1.148554832E-1
2.525422635E1,-4.498506486E-1,-9.895518303E0,2.249253243E-1
2.527449801E1,-7.082754970E-1,-9.900303841E0,2.392822653E-1
2.529489801E1,-9.242277741E-1,-9.756733894E0,2.344966233E-1
2.531504140E1,-1.144367456E0,-9.651450157E0,2.703889608E-1
2.533531307E1,-1.290329576E0,-9.730413437E0,3.326023519E-1
2.535558478E1,-1.295115232E0,-9.912267685E0,3.613162339E-1
2.537585645E1,-1.144367456E0,-9.850054741E0,3.493520916E-1
2.539625645E1,-1.003190875E0,-9.644271851E0,2.440679073E-1
2.541639999E1,-9.074779749E-1,-9.653842926E0,1.028913707E-1
2.543667171E1,-8.763712645E-1,-9.864411354E0,2.871387079E-2
2.545694343E1,-8.380861282E-1,-9.921838760E0,3.349951655E-2
2.547721515E1,-7.609176040E-1,-9.778269768E0,1.004985496E-1
2.549761515E1,-7.082754970E-1,-9.694520950E0,2.297109663E-1
2.551791656E1,-7.902296782E-1,-9.749555588E0,3.182454109E-1
2.553818838E1,-9.529415965E-1,-9.821340561E0,2.225325108E-1
2.555818499E1,-9.840483069E-1,-9.826126099E0,4.067798331E-2
2.557857520E1,-9.074779749E-1,-9.876375198E0,-3.170489892E-2
2.559897520E1,-7.633104324E-1,-9.797411919E0,1.196411345E-2
2.561911817E1,-5.958128572E-1,-9.751948357E0,8.614161611E-2
2.563938968E1,-5.575276613E-1,-9.775876999E0,2.225325108E-1
2.565978968E1,-7.609176040E-1,-9.847661972E0,2.895315289E-1
2.567993307E1,-9.816554785E-1,-9.802198410E0,2.488535494E-1
2.570020463E1,-1.125224829E0,-9.725627899E0,2.009970993E-1
2.572047630E1,-1.070189953E0,-9.761520386E0,9.571290761E-2
2.574073754E1,-7.950153351E-1,-9.878767967E0,6.699903309E-2
2.576101598E1,-6.508477330E-1,-9.883553505E0,9.571290761E-2
2.578128833E1,-6.221339107E-1,-9.797411919E0,1.531406492E-1
2.580156062E1,-7.130611539E-1,-9.701699257E0,1.890329868E-1
2.582183281E1,-9.026923180E-1,-9.833304405E0,1.746760458E-1
2.584210489E1,-9.960124493E-1,-9.833304405E0,9.332008660E-2
2.586237692E1,-9.672985673E-1,-9.742377281E0,6.699903309E-2
2.588264864E1,-8.572286963E-1,-9.783055305E0,5.264209956E-2
2.590304890E1,-7.274180651E-1,-9.783055305E0,7.178468257E-2
2.592319249E1,-6.221339107E-1,-9.823733330E0,1.196411327E-1
2.594346437E1,-6.029912829E-1,-9.881160736E0,1.220339537E-1
2.596373619E1,-6.843472719E-1,-9.833304405E0,1.268195957E-1
2.598400791E1,-8.333004713E-1,-9.802198410E0,1.220339537E-1
2.600440801E1,-9.098708034E-1,-9.790233612E0,7.178468257E-2
2.602455150E1,-8.931210637E-1,-9.773484230E0,6.221338734E-2
2.604482333E1,-8.524430394E-1,-9.775876999E0,7.896314561E-2
2.606509510E1,-7.926225066E-1,-9.830911636E0,1.196411327E-1
2.608536682E1,-7.776673436E-1,-9.804591179E0,1.770688742E-1
2.610577478E1,-7.854440212E-1,-9.835697174E0,1.627119333E-1
2.612605890E1,-8.572286963E-1,-9.821340561E0,1.220339537E-1
2.614617510E1,-9.098708034E-1,-9.785448074E0,1.914258115E-2
2.616644828E1,-9.002995491E-1,-9.723235130E0,-2.691925503E-2
2.618671989E1,-8.380861282E-1,-9.728020668E0,-4.785645287E-3
2.620712109E1,-7.950153351E-1,-9.790233612E0,1.914258115E-2
2.622726442E1,-7.680960894E-1,-9.838089943E0,3.589234129E-2
2.624754088E1,-6.963114142E-1,-9.869196892E0,5.264209956E-2
2.626781254E1,-6.077769399E-1,-9.854840279E0,1.052841991E-1
2.628808426E1,-6.221339107E-1,-9.845269203E0,1.674975902E-1
2.630835598E1,-7.130611539E-1,-9.854840279E0,1.603191197E-1
2.632862765E1,-8.069794178E-1,-9.751948357E0,1.459621787E-1
2.634889932E1,-9.242277741E-1,-9.699306488E0,1.316052526E-1
2.636917098E1,-1.151545882E0,-9.735198975E0,1.028913707E-1
2.638944270E1,-1.180259824E0,-9.785448074E0,6.939185411E-2
2.640971437E1,-1.063011408E0,-9.842875481E0,5.503492057E-2
2.642998609E1,-8.093722463E-1,-9.818947792E0,1.914258115E-2
2.645038609E1,-6.867401004E-1,-9.818947792E0,4.307080805E-2
2.647052947E1,-7.561319470E-1,-9.775876999E0,1.196411327E-1
2.649080114E1,-7.298108935E-1,-9.814162254E0,1.435693651E-1
2.651107286E1,-7.728816867E-1,-9.768698692E0,1.746760458E-1
2.653134452E1,-9.625129104E-1,-9.818947792E0,1.579262912E-1
2.655161624E1,-1.137188911E0,-9.773484230E0,1.196411327E-1
2.657188791E1,-1.070189953E0,-9.754341125E0,1.076770201E-1
2.659215963E1,-8.572286963E-1,-9.785448074E0,1.028913707E-1
2.661243130E1,-7.106683254E-1,-9.761520386E0,5.742774159E-2
2.663270301E1,-6.005984545E-1,-9.802198410E0,4.785645287E-3
2.665297468E1,-5.407779217E-1,-9.840482712E0,-3.649054468E-2
2.667324635E1,-5.383850932E-1,-9.883553505E0,-2.931207791E-2
2.669351807E1,-5.527420044E-1,-9.881160736E0,5.264209956E-2
2.671378973E1,-6.197410822E-1,-9.864411354E0,1.363908947E-1
2.673418973E1,-6.819544435E-1,-9.792626381E0,1.842473447E-1
2.675433312E1,-7.633104324E-1,-9.783055305E0,1.651047617E-1
2.677460478E1,-8.572286963E-1,-9.833304405E0,8.614161611E-2
2.679500479E1,-8.500502706E-1,-9.850054741E0,5.982056633E-2
2.681514817E1,-7.926225066E-1,-9.873982430E0,5.742774159E-2
2.683541984E1,-6.795616150E-1,-9.826126099E0,6.221338734E-2
2.685569156E1,-5.240281820E-1,-9.806983948E0,8.853443712E-2
2.687596322E1,-4.450650215E-1,-9.795019150E0,9.571290761E-2
2.689636322E1,-5.000999570E-1,-9.821340561E0,1.220339537E-1
2.691650656E1,-6.771687865E-1,-9.850054741E0,1.028913707E-1
2.693677822E1,-8.955138922E-1,-9.773484230E0,7.417750359E-2
2.695704994E1,-1.027119160E0,-9.699306488E0,6.460621208E-2
2.697732161E1,-1.019940615E0,-9.761520386E0,6.460621208E-2
2.699772161E1,-8.452646136E-1,-9.816555023E0,9.571290761E-2
2.701802291E1,-7.633104324E-1,-9.792626381E0,1.387837082E-1
2.703829463E1,-7.274180651E-1,-9.751948357E0,1.842473447E-1
2.705840900E1,-7.657032609E-1,-9.732806206E0,1.507478207E-1
2.707868051E1,-8.668000102E-1,-9.768698692E0,9.571290761E-2
2.709895213E1,-8.979067206E-1,-9.818947792E0,4.067798331E-2
2.711922369E1,-8.380861282E-1,-9.835697174E0,2.871387079E-2
2.713949525E1,-7.154539824E-1,-9.787840843E0,3.110669367E-2
2.715976687E1,-5.383850932E-1,-9.816555023E0,3.589234129E-2
2.718003848E1,-3.948157430E-1,-9.888339996E0,5.503492057E-2
2.720031015E1,-3.900300860E-1,-9.876375198E0,1.531406492E-1
2.722058176E1,-4.905286431E-1,-9.852447510E0,2.416750938E-1
2.724085025E1,-5.599204898E-1,-9.850054741E0,2.392822653E-1
2.726112395E1,-5.910272002E-1,-9.802198410E0,2.560320199E-1
2.728139583E1,-6.891329288E-1,-9.783055305E0,2.081755698E-1
2.730166765E1,-7.513462901E-1,-9.806983948E0,1.292124242E-1
2.732193947E1,-8.141579032E-1,-9.847661972E0,7.417750359E-2
2.734221119E1,-8.715856671E-1,-9.823733330E0,5.503492057E-2
2.736248296E1,-7.345965505E-1,-9.756733894E0,4.307080805E-2
2.738275463E1,-5.790630579E-1,-9.823733330E0,7.417750359E-2
2.740302635E1,-4.402793646E-1,-9.862018585E0,1.100698411E-1
2.742329807E1,-3.924229145E-1,-9.866804123E0,1.627119333E-1
2.744356978E1,-4.211367965E-1,-9.878767967E0,1.914258152E-1
2.746384145E1,-5.024927258E-1,-9.873982430E0,1.866401732E-1
2.748411312E1,-6.245267391E-1,-9.830911636E0,1.483550072E-1
2.750451312E1,-7.830511928E-1,-9.804591179E0,1.028913707E-1
2.752465645E1,-8.763712645E-1,-9.780662537E0,4.546362907E-2
2.754492812E1,-8.356932998E-1,-9.754341125E0,1.196411345E-2
2.756519978E1,-7.806583643E-1,-9.744770050E0,6.939185411E-2
2.758560775E1,-7.393822074E-1,-9.795019150E0,1.196411327E-1
2.760589171E1,-7.298108935E-1,-9.828518867E0,1.770688742E-1
2.762600786E1,-7.202396393E-1,-9.785448074E0,2.440679073E-1
2.764628093E1,-6.484549642E-1,-9.787840843E0,1.962114573E-1
2.766655364E1,-5.575276613E-1,-9.826126099E0,1.363908947E-1
2.768682515E1,-5.479564071E-1,-9.864411354E0,1.292124242E-1
2.770722614E1,-6.101697683E-1,-9.835697174E0,1.292124242E-1
2.772736937E1,-7.633104324E-1,-9.864411354E0,1.459621787E-1
2.774764479E1,-8.907282352E-1,-9.826126099E0,1.316052526E-1
2.776791645E1,-9.170492887E-1,-9.754341125E0,1.507478207E-1
2.778818807E1,-9.385846853E-1,-9.759127617E0,1.387837082E-1
2.780845968E1,-8.859425783E-1,-9.720842361E0,1.172483116E-1
2.782873130E1,-8.309076428E-1,-9.766305923E0,6.460621208E-2
2.784900291E1,-6.843472719E-1,-9.773484230E0,6.460621208E-2
2.786927452E1,-5.694918036E-1,-9.802198410E0,9.332008660E-2
2.788954619E1,-5.383850932E-1,-9.881160736E0,1.220339537E-1
2.790981781E1,-5.479564071E-1,-9.850054741E0,1.531406492E-1
2.793008942E1,-6.005984545E-1,-9.852447510E0,1.818545163E-1
2.795036104E1,-7.226324677E-1,-9.797411919E0,1.674975902E-1
2.797063265E1,-8.309076428E-1,-9.768698692E0,1.674975902E-1
2.799090426E1,-8.572286963E-1,-9.823733330E0,1.698904037E-1
2.801117588E1,-7.704889178E-1,-9.799804688E0,2.057827413E-1
2.803144755E1,-7.058826685E-1,-9.835697174E0,1.938186288E-1
2.805171916E1,-6.723831892E-1,-9.766305923E0,1.674975902E-1
2.807199078E1,-6.652047038E-1,-9.775876999E0,1.196411327E-1
2.809226239E1,-6.819544435E-1,-9.840482712E0,7.178468257E-2
2.811253406E1,-7.130611539E-1,-9.842875481E0,6.460621208E-2
2.813280567E1,-7.465606928E-1,-9.814162254E0,8.853443712E-2
2.815307729E1,-7.154539824E-1,-9.756733894E0,1.076770201E-1
2.817334890E1,-6.891329288E-1,-9.778269768E0,1.172483116E-1
2.819362046E1,-6.149554253E-1,-9.842875481E0,1.507478207E-1
2.821389213E1,-6.149554253E-1,-9.881160736E0,1.555334777E-1
2.823429213E1,-7.058826685E-1,-9.830911636E0,1.100698411E-1
2.825443536E1,-7.513462901E-1,-9.795019150E0,7.417750359E-2
2.827470697E1,-6.460621357E-1,-9.749555588E0,5.982056633E-2
2.829510697E1,-5.096712112E-1,-9.797411919E0,1.004985496E-1
2.831525020E1,-5.144568682E-1,-9.914660454E0,1.531406492E-1
2.833552182E1,-7.106683254E-1,-9.854840279E0,1.818545163E-1
2.835579348E1,-8.141579032E-1,-9.725627899E0,1.387837082E-1
2.837606504E1,-8.548358679E-1,-9.735198975E0,6.221338734E-2
2.839646505E1,-8.237292171E-1,-9.775876999E0,-1.974078640E-2
2.841660828E1,-8.165507317E-1,-9.821340561E0,1.435693540E-2
2.843687989E1,-7.776673436E-1,-9.826126099E0,1.076770201E-1
2.845715150E1,-6.987041831E-1,-9.787840843E0,2.009970993E-1
2.847755150E1,-6.604190469E-1,-9.804591179E0,2.321037948E-1
2.849785270E1,-7.034898400E-1,-9.809376717E0,1.770688742E-1
2.851812432E1,-7.854440212E-1,-9.823733330E0,1.172483116E-1
2.853839604E1,-8.117650747E-1,-9.799804688E0,8.853443712E-2
2.855851031E1,-7.854440212E-1,-9.768698692E0,1.028913707E-1
2.857878171E1,-7.154539824E-1,-9.799804688E0,1.124626622E-1
2.859918171E1,-7.202396393E-1,-9.826126099E0,1.292124242E-1
2.861932489E1,-7.585247755E-1,-9.850054741E0,1.363908947E-1
2.863959630E1,-7.728816867E-1,-9.821340561E0,1.196411327E-1
2.865986786E1,-7.369893789E-1,-9.790233612E0,6.939185411E-2
2.868013937E1,-6.795616150E-1,-9.751948357E0,2.392822644E-3
2.870037161E1,-6.675975323E-1,-9.804591179E0,9.571290575E-3
2.872068244E1,-6.580262184E-1,-9.878767967E0,4.785645381E-2
2.874095109E1,-6.077769399E-1,-9.826126099E0,1.268195957E-1
2.876122458E1,-6.580262184E-1,-9.773484230E0,1.794617027E-1
2.878149635E1,-7.202396393E-1,-9.828518867E0,1.435693651E-1
2.880176812E1,-8.045865893E-1,-9.806983948E0,1.292124242E-1
2.882203984E1,-8.141579032E-1,-9.792626381E0,1.316052526E-1
2.884231150E1,-8.045865893E-1,-9.797411919E0,1.148554832E-1
2.886258322E1,-7.830511928E-1,-9.806983948E0,9.810572863E-2
2.888285484E1,-7.106683254E-1,-9.783055305E0,7.657032460E-2
2.890312645E1,-5.814558864E-1,-9.792626381E0,7.178468257E-2
2.892339812E1,-5.192425251E-1,-9.881160736E0,9.332008660E-2
2.894366973E1,-5.479564071E-1,-9.869196892E0,1.459621787E-1
2.896394130E1,-6.675975323E-1,-9.804591179E0,2.177468538E-1
2.898421291E1,-7.902296782E-1,-9.783055305E0,1.794617027E-1
2.900461296E1,-8.261220455E-1,-9.735198975E0,1.363908947E-1
2.902475614E1,-7.926225066E-1,-9.804591179E0,1.220339537E-1
2.904502765E1,-6.891329288E-1,-9.842875481E0,7.896314561E-2
2.906529932E1,-5.503492355E-1,-9.833304405E0,9.332008660E-2
2.908557088E1,-4.666004181E-1,-9.780662537E0,1.004985496E-1
2.910597093E1,-5.000999570E-1,-9.838089943E0,1.316052526E-1
2.912611411E1,-6.221339107E-1,-9.888339996E0,1.339980662E-1
2.914638567E1,-7.633104324E-1,-9.902696609E0,1.483550072E-1
2.916665723E1,-8.644071817E-1,-9.759127617E0,1.363908947E-1
2.918692880E1,-8.428717852E-1,-9.696913719E0,7.178468257E-2
2.920732880E1,-7.609176040E-1,-9.771091461E0,2.153540403E-2
2.922747197E1,-6.197410822E-1,-9.828518867E0,1.435693540E-2
2.924774354E1,-6.101697683E-1,-9.792626381E0,9.571290761E-2
2.926801510E1,-6.484549642E-1,-9.818947792E0,1.579262912E-1
2.928828666E1,-5.934200287E-1,-9.804591179E0,1.316052526E-1
2.930855822E1,-5.096712112E-1,-9.850054741E0,1.148554832E-1
2.932882984E1,-4.833501875E-1,-9.847661972E0,9.332008660E-2
2.934910140E1,-5.527420044E-1,-9.811769485E0,5.503492057E-2
2.936937296E1,-6.652047038E-1,-9.818947792E0,5.264209956E-2
2.938964452E1,-6.652047038E-1,-9.840482712E0,4.546362907E-2
2.940991609E1,-6.675975323E-1,-9.809376717E0,1.052841991E-1
2.943018765E1,-6.317051649E-1,-9.862018585E0,1.411765367E-1
2.945045921E1,-6.795616150E-1,-9.799804688E0,2.177468538E-1
2.947073078E1,-7.776673436E-1,-9.761520386E0,2.416750938E-1
2.949113078E1,-8.715856671E-1,-9.771091461E0,1.555334777E-1
2.951127390E1,-8.045865893E-1,-9.842875481E0,8.374879509E-2
2.953154546E1,-7.633104324E-1,-9.766305923E0,9.810572863E-2
2.955181703E1,-7.154539824E-1,-9.811769485E0,1.124626622E-1
2.957208854E1,-7.058826685E-1,-9.864411354E0,1.555334777E-1
2.959236010E1,-6.915257573E-1,-9.797411919E0,1.962114573E-1
2.961263166E1,-6.987041831E-1,-9.799804688E0,1.722832322E-1
2.963290322E1,-6.532405615E-1,-9.775876999E0,8.135596663E-2
2.965317478E1,-6.101697683E-1,-9.780662537E0,5.982056633E-2
2.967344635E1,-6.675975323E-1,-9.804591179E0,3.110669367E-2
2.969379656E1,-7.926225066E-1,-9.783055305E0,4.546362907E-2
2.971414708E1,-8.596215248E-1,-9.773484230E0,7.657032460E-2
2.973446494E1,-8.141579032E-1,-9.799804688E0,1.339980662E-1
2.975453301E1,-7.058826685E-1,-9.857233047E0,1.794617027E-1
2.977480442E1,-6.484549642E-1,-9.895518303E0,1.986042857E-1
2.979520442E1,-6.652047038E-1,-9.802198410E0,1.555334777E-1
2.981534749E1,-7.010970116E-1,-9.737591743E0,8.135596663E-2
2.983561890E1,-7.178468108E-1,-9.787840843E0,6.460621208E-2
2.985589041E1,-7.465606928E-1,-9.866804123E0,9.571290761E-2
2.987616192E1,-7.728816867E-1,-9.818947792E0,1.627119333E-1
2.989656192E1,-7.752745152E-1,-9.763913155E0,1.651047617E-1
2.991670504E1,-7.561319470E-1,-9.759127617E0,1.339980662E-1
2.993697650E1,-7.250252366E-1,-9.838089943E0,9.571290761E-2
2.995724807E1,-7.393822074E-1,-9.869196892E0,9.571290761E-2
2.997751952E1,-7.298108935E-1,-9.840482712E0,1.004985496E-1
2.999791952E1,-7.154539824E-1,-9.802198410E0,1.028913707E-1
3.001822051E1,-6.795616150E-1,-9.773484230E0,8.853443712E-2
3.003825619E1,-6.747759581E-1,-9.783055305E0,1.268195957E-1
3.005860604E1,-7.537391186E-1,-9.835697174E0,1.339980662E-1
3.007887749E1,-8.668000102E-1,-9.804591179E0,1.770688742E-1
3.009914895E1,-9.361918569E-1,-9.756733894E0,1.531406492E-1
3.011942041E1,-8.811569214E-1,-9.747162819E0,1.004985496E-1
3.013969192E1,-7.633104324E-1,-9.778269768E0,4.546362907E-2
3.016009192E1,-6.723831892E-1,-9.821340561E0,3.349951655E-2
3.018023499E1,-6.125625968E-1,-9.814162254E0,7.896314561E-2
3.020050645E1,-6.652047038E-1,-9.830911636E0,1.435693651E-1
3.022077796E1,-6.652047038E-1,-9.840482712E0,1.674975902E-1
3.024104713E1,-6.340979934E-1,-9.828518867E0,1.890329868E-1
3.026132020E1,-6.771687865E-1,-9.847661972E0,1.579262912E-1
3.028159187E1,-7.950153351E-1,-9.828518867E0,1.292124242E-1
3.030186348E1,-8.620143533E-1,-9.744770050E0,5.503492057E-2
3.032213510E1,-8.596215248E-1,-9.802198410E0,-9.571290575E-3
3.034240671E1,-7.950153351E-1,-9.783055305E0,-7.178467698E-3
3.036267828E1,-6.963114142E-1,-9.783055305E0,7.417750359E-2
3.038294978E1,-6.580262184E-1,-9.814162254E0,1.316052526E-1
3.040334984E1,-6.891329288E-1,-9.811769485E0,1.986042857E-1
3.042349291E1,-7.878368497E-1,-9.847661972E0,2.033899277E-1
3.044376447E1,-8.524430394E-1,-9.833304405E0,1.794617027E-1
3.046403604E1,-8.955138922E-1,-9.799804688E0,1.196411327E-1
3.048430760E1,-8.979067206E-1,-9.751948357E0,1.004985496E-1
3.050470760E1,-8.452646136E-1,-9.802198410E0,8.614161611E-2
3.052485062E1,-8.141579032E-1,-9.792626381E0,7.657032460E-2
3.054512213E1,-7.704889178E-1,-9.792626381E0,8.614161611E-2
3.056539369E1,-7.657032609E-1,-9.826126099E0,1.172483116E-1
3.058566520E1,-7.776673436E-1,-9.785448074E0,1.555334777E-1
3.060607312E1,-7.902296782E-1,-9.773484230E0,1.579262912E-1
3.062635682E1,-7.902296782E-1,-9.811769485E0,1.196411327E-1
3.064647281E1,-7.806583643E-1,-9.809376717E0,1.052841991E-1
3.066674578E1,-7.878368497E-1,-9.811769485E0,9.092725813E-2
3.068701718E1,-7.950153351E-1,-9.826126099E0,9.092725813E-2
3.070741838E1,-7.728816867E-1,-9.775876999E0,9.332008660E-2
3.072756130E1,-7.926225066E-1,-9.783055305E0,1.052841991E-1
3.074783760E1,-8.261220455E-1,-9.787840843E0,1.220339537E-1
3.076810900E1,-9.170492887E-1,-9.787840843E0,1.483550072E-1
3.078838051E1,-9.266205430E-1,-9.790233612E0,1.316052526E-1
3.080865202E1,-8.213363886E-1,-9.804591179E0,1.244267747E-1
3.082892343E1,-7.178468108E-1,-9.828518867E0,1.004985496E-1
3.084919494E1,-6.460621357E-1,-9.823733330E0,8.614161611E-2
3.086946635E1,-6.556333899E-1,-9.823733330E0,9.332008660E-2
3.088973791E1,-7.226324677E-1,-9.795019150E0,8.853443712E-2
3.091000942E1,-7.974081635E-1,-9.828518867E0,9.571290761E-2
3.093028093E1,-7.854440212E-1,-9.816555023E0,8.614161611E-2
3.095051301E1,-7.926225066E-1,-9.814162254E0,1.100698411E-1
3.097082380E1,-8.021938205E-1,-9.802198410E0,1.148554832E-1
3.099109536E1,-8.237292171E-1,-9.785448074E0,9.092725813E-2
3.101136687E1,-8.237292171E-1,-9.768698692E0,7.417750359E-2
3.103163833E1,-7.926225066E-1,-9.787840843E0,9.092725813E-2
3.105190984E1,-8.237292171E-1,-9.823733330E0,7.657032460E-2
3.107218135E1,-8.955138922E-1,-9.799804688E0,9.810572863E-2
3.109245281E1,-9.074779749E-1,-9.792626381E0,1.220339537E-1
3.111272432E1,-8.452646136E-1,-9.785448074E0,9.332008660E-2
3.113299583E1,-7.680960894E-1,-9.787840843E0,6.221338734E-2
3.115326729E1,-7.585247755E-1,-9.830911636E0,7.417750359E-2
3.117353880E1,-7.854440212E-1,-9.787840843E0,9.571290761E-2
3.119392906E1,-8.309076428E-1,-9.826126099E0,7.417750359E-2
3.121408176E1,-8.237292171E-1,-9.799804688E0,9.332008660E-2
3.123435322E1,-7.752745152E-1,-9.775876999E0,1.004985496E-1
3.125462473E1,-7.274180651E-1,-9.797411919E0,7.178468257E-2
3.127489619E1,-6.699903607E-1,-9.866804123E0,6.699903309E-2
3.129529619E1,-6.652047038E-1,-9.826126099E0,9.092725813E-2
3.131543916E1,-6.723831892E-1,-9.811769485E0,8.374879509E-2
3.133571067E1,-7.082754970E-1,-9.806983948E0,8.853443712E-2
3.135598213E1,-7.489534616E-1,-9.795019150E0,8.614161611E-2
3.137625359E1,-8.165507317E-1,-9.804591179E0,1.220339537E-1
3.139665359E1,-8.883354068E-1,-9.783055305E0,1.483550072E-1
3.141679656E1,-9.266205430E-1,-9.747162819E0,1.674975902E-1
3.143706807E1,-9.098708034E-1,-9.744770050E0,1.244267747E-1
3.145733953E1,-7.998009920E-1,-9.821340561E0,6.460621208E-2
3.147765036E1,-6.556333899E-1,-9.852447510E0,1.914258115E-2
3.149804067E1,-5.742774606E-1,-9.852447510E0,3.828516230E-2
3.151831187E1,-5.958128572E-1,-9.847661972E0,7.896314561E-2
3.153842604E1,-7.298108935E-1,-9.775876999E0,1.244267747E-1
3.155869739E1,-8.739784956E-1,-9.771091461E0,1.459621787E-1
3.157896874E1,-9.481559992E-1,-9.797411919E0,1.339980662E-1
3.159936874E1,-9.242277741E-1,-9.785448074E0,1.411765367E-1
3.161966031E1,-8.500502706E-1,-9.823733330E0,1.411765367E-1
3.163977963E1,-7.878368497E-1,-9.823733330E0,1.220339537E-1
3.166005171E1,-7.178468108E-1,-9.811769485E0,1.172483116E-1
3.168032369E1,-7.106683254E-1,-9.787840843E0,1.004985496E-1
3.170059557E1,-7.322037220E-1,-9.795019150E0,7.657032460E-2
3.172086744E1,-7.830511928E-1,-9.795019150E0,2.632104978E-2
3.174113911E1,-7.926225066E-1,-9.802198410E0,5.264209956E-2
3.176141083E1,-7.830511928E-1,-9.778269768E0,9.332008660E-2
3.178168239E1,-7.998009920E-1,-9.802198410E0,1.316052526E-1
3.180195400E1,-7.704889178E-1,-9.814162254E0,1.244267747E-1
3.182222557E1,-7.680960894E-1,-9.818947792E0,1.316052526E-1
3.184249713E1,-7.609176040E-1,-9.818947792E0,1.363908947E-1
3.186276864E1,-7.561319470E-1,-9.821340561E0,1.244267747E-1
3.188304020E1,-7.178468108E-1,-9.792626381E0,1.124626622E-1
3.190331161E1,-7.609176040E-1,-9.799804688E0,1.244267747E-1
3.192358312E1,-7.998009920E-1,-9.792626381E0,1.004985496E-1
3.194385458E1,-8.428717852E-1,-9.811769485E0,9.810572863E-2
3.196425463E1,-8.285148144E-1,-9.804591179E0,1.052841991E-1
3.198439755E1,-7.752745152E-1,-9.775876999E0,1.244267747E-1
3.200479754E1,-7.058826685E-1,-9.799804688E0,1.076770201E-1
3.202494051E1,-6.963114142E-1,-9.797411919E0,1.052841991E-1
3.204521197E1,-7.752745152E-1,-9.811769485E0,1.100698411E-1
3.206548343E1,-8.045865893E-1,-9.823733330E0,1.292124242E-1
3.208589140E1,-7.926225066E-1,-9.804591179E0,1.052841991E-1
3.210617890E1,-7.250252366E-1,-9.795019150E0,6.221338734E-2
3.212632937E1,-6.484549642E-1,-9.816555023E0,5.024927482E-2
3.214656317E1,-6.819544435E-1,-9.787840843E0,6.699903309E-2
3.216683583E1,-7.806583643E-1,-9.799804688E0,1.148554832E-1
3.218710718E1,-8.548358679E-1,-9.811769485E0,1.316052526E-1
3.220750828E1,-8.356932998E-1,-9.804591179E0,1.363908947E-1
3.222765109E1,-7.633104324E-1,-9.795019150E0,1.028913707E-1
3.224805989E1,-6.747759581E-1,-9.792626381E0,5.982056633E-2
3.226833624E1,-6.580262184E-1,-9.795019150E0,4.307080805E-2
3.228837187E1,-7.130611539E-1,-9.826126099E0,4.785645381E-2
3.230877187E1,-7.854440212E-1,-9.823733330E0,1.004985496E-1
3.232915848E1,-8.261220455E-1,-9.842875481E0,1.579262912E-1
3.234927406E1,-8.165507317E-1,-9.835697174E0,1.483550072E-1
3.236954739E1,-7.657032609E-1,-9.797411919E0,1.172483116E-1
3.238982046E1,-7.274180651E-1,-9.797411919E0,1.052841991E-1
3.241009317E1,-7.058826685E-1,-9.783055305E0,8.135596663E-2
3.243036557E1,-7.058826685E-1,-9.814162254E0,5.503492057E-2
3.245063775E1,-7.274180651E-1,-9.797411919E0,7.417750359E-2
3.247090989E1,-7.776673436E-1,-9.799804688E0,1.100698411E-1
3.249118176E1,-8.117650747E-1,-9.799804688E0,1.292124242E-1
3.251145369E1,-8.500502706E-1,-9.833304405E0,1.244267747E-1
3.253172546E1,-8.596215248E-1,-9.818947792E0,1.124626622E-1
3.255199713E1,-8.213363886E-1,-9.811769485E0,1.004985496E-1
3.257226880E1,-7.513462901E-1,-9.790233612E0,9.810572863E-2
3.259254036E1,-6.819544435E-1,-9.814162254E0,1.052841991E-1
3.261281182E1,-6.699903607E-1,-9.785448074E0,1.148554832E-1
3.263308390E1,-7.322037220E-1,-9.795019150E0,1.196411327E-1
3.265335531E1,-8.093722463E-1,-9.816555023E0,9.332008660E-2
3.267362676E1,-8.069794178E-1,-9.811769485E0,6.939185411E-2
3.269402676E1,-7.806583643E-1,-9.773484230E0,7.657032460E-2
3.271416968E1,-7.633104324E-1,-9.797411919E0,9.332008660E-2
3.273444109E1,-7.561319470E-1,-9.814162254E0,1.196411327E-1
3.275471249E1,-7.830511928E-1,-9.804591179E0,1.268195957E-1
3.277498390E1,-7.902296782E-1,-9.806983948E0,1.076770201E-1
3.279538390E1,-7.704889178E-1,-9.811769485E0,7.417750359E-2
3.281552676E1,-7.226324677E-1,-9.811769485E0,2.871387079E-2
3.283579822E1,-6.723831892E-1,-9.818947792E0,4.785645381E-2
3.285606963E1,-7.106683254E-1,-9.826126099E0,1.076770201E-1
3.287634109E1,-7.322037220E-1,-9.804591179E0,1.435693651E-1
3.289674109E1,-7.806583643E-1,-9.790233612E0,1.722832322E-1
3.291688390E1,-8.261220455E-1,-9.787840843E0,1.196411327E-1
3.293715536E1,-8.021938205E-1,-9.790233612E0,4.785645381E-2
3.295742676E1,-7.830511928E-1,-9.792626381E0,5.024927482E-2
3.297782676E1,-7.680960894E-1,-9.816555023E0,9.332008660E-2
3.299812760E1,-7.806583643E-1,-9.802198410E0,1.268195957E-1
3.301839906E1,-8.165507317E-1,-9.799804688E0,1.651047617E-1
3.303851312E1,-8.333004713E-1,-9.806983948E0,1.698904037E-1
3.305878447E1,-8.285148144E-1,-9.811769485E0,1.363908947E-1
3.307905578E1,-8.093722463E-1,-9.818947792E0,1.004985496E-1
3.309932708E1,-8.309076428E-1,-9.790233612E0,8.135596663E-2
3.311958869E1,-8.237292171E-1,-9.742377281E0,6.939185411E-2
3.313986635E1,-8.141579032E-1,-9.787840843E0,6.221338734E-2
3.316013838E1,-8.021938205E-1,-9.806983948E0,1.172483116E-1
3.318041036E1,-7.806583643E-1,-9.806983948E0,1.722832322E-1
3.320068218E1,-7.926225066E-1,-9.778269768E0,1.818545163E-1
3.322095395E1,-7.950153351E-1,-9.797411919E0,1.555334777E-1
3.324122562E1,-8.285148144E-1,-9.826126099E0,1.076770201E-1
3.326149723E1,-8.787640929E-1,-9.821340561E0,9.092725813E-2
3.328176880E1,-8.835497499E-1,-9.783055305E0,8.135596663E-2
3.330204036E1,-8.428717852E-1,-9.778269768E0,8.614161611E-2
3.332231192E1,-7.728816867E-1,-9.787840843E0,7.417750359E-2
3.334258338E1,-7.369893789E-1,-9.799804688E0,1.052841991E-1
3.336285489E1,-7.106683254E-1,-9.814162254E0,1.339980662E-1
3.338312635E1,-7.369893789E-1,-9.816555023E0,1.483550072E-1
3.340339775E1,-8.189435601E-1,-9.809376717E0,1.411765367E-1
3.342366921E1,-9.098708034E-1,-9.778269768E0,1.196411327E-1
3.344394062E1,-9.385846853E-1,-9.787840843E0,9.810572863E-2
3.346421213E1,-8.835497499E-1,-9.814162254E0,7.657032460E-2
3.348448354E1,-8.069794178E-1,-9.773484230E0,9.571290761E-2
3.350488354E1,-7.752745152E-1,-9.809376717E0,1.004985496E-1
3.352502635E1,-7.680960894E-1,-9.814162254E0,1.244267747E-1
3.354529781E1,-7.830511928E-1,-9.816555023E0,1.746760458E-1
3.356556921E1,-8.380861282E-1,-9.809376717E0,2.057827413E-1
3.358584062E1,-8.644071817E-1,-9.814162254E0,1.627119333E-1
3.360624859E1,-8.237292171E-1,-9.780662537E0,1.052841991E-1
3.362653202E1,-7.806583643E-1,-9.759127617E0,5.024927482E-2
3.364664791E1,-7.489534616E-1,-9.790233612E0,2.153540403E-2
3.366692078E1,-7.417750359E-1,-9.806983948E0,2.632104978E-2
3.368719208E1,-7.830511928E-1,-9.833304405E0,8.614161611E-2
3.370759525E1,-7.728816867E-1,-9.823733330E0,9.810572863E-2
3.372777739E1,-7.226324677E-1,-9.771091461E0,1.268195957E-1
3.374817411E1,-7.274180651E-1,-9.783055305E0,1.435693651E-1
3.376842869E1,-7.609176040E-1,-9.840482712E0,1.028913707E-1
3.378854265E1,-8.069794178E-1,-9.845269203E0,1.004985496E-1
3.380894525E1,-8.213363886E-1,-9.802198410E0,8.135596663E-2
3.382908999E1,-8.333004713E-1,-9.728020668E0,7.896314561E-2
3.384936291E1,-8.404789567E-1,-9.773484230E0,6.460621208E-2
3.386963546E1,-8.141579032E-1,-9.783055305E0,8.374879509E-2
3.388990786E1,-8.141579032E-1,-9.835697174E0,1.363908947E-1
3.391017999E1,-8.045865893E-1,-9.816555023E0,1.411765367E-1
3.393045197E1,-7.728816867E-1,-9.806983948E0,1.244267747E-1
3.395072385E1,-7.513462901E-1,-9.795019150E0,1.124626622E-1
3.397099572E1,-7.776673436E-1,-9.818947792E0,9.810572863E-2
3.399126744E1,-7.513462901E-1,-9.816555023E0,1.052841991E-1
3.401153900E1,-7.489534616E-1,-9.802198410E0,1.172483116E-1
3.403181072E1,-7.806583643E-1,-9.802198410E0,1.100698411E-1
3.405208218E1,-8.309076428E-1,-9.787840843E0,1.124626622E-1
3.407235374E1,-8.237292171E-1,-9.792626381E0,9.332008660E-2
3.409262525E1,-7.752745152E-1,-9.799804688E0,9.810572863E-2
3.411289666E1,-7.106683254E-1,-9.799804688E0,1.268195957E-1
3.413316848E1,-6.867401004E-1,-9.830911636E0,1.244267747E-1
3.415343984E1,-7.154539824E-1,-9.811769485E0,1.244267747E-1
3.417371119E1,-7.489534616E-1,-9.797411919E0,1.220339537E-1
3.419411119E1,-7.537391186E-1,-9.783055305E0,1.124626622E-1
3.421441197E1,-7.902296782E-1,-9.790233612E0,9.810572863E-2
3.423452598E1,-7.657032609E-1,-9.850054741E0,1.052841991E-1
3.425479728E1,-6.819544435E-1,-9.771091461E0,1.100698411E-1
3.427506859E1,-6.915257573E-1,-9.828518867E0,1.507478207E-1
3.429546859E1,-7.680960894E-1,-9.864411354E0,1.411765367E-1
3.431561124E1,-7.680960894E-1,-9.756733894E0,1.196411327E-1
3.433588260E1,-7.776673436E-1,-9.766305923E0,1.004985496E-1
3.435615390E1,-8.285148144E-1,-9.751948357E0,5.024927482E-2
3.437642525E1,-8.644071817E-1,-9.766305923E0,3.828516230E-2
3.439682525E1,-7.878368497E-1,-9.830911636E0,7.896314561E-2
3.441696801E1,-6.580262184E-1,-9.811769485E0,1.603191197E-1
3.443723937E1,-5.718846321E-1,-9.842875481E0,1.746760458E-1
3.445751072E1,-5.766702294E-1,-9.864411354E0,1.316052526E-1
3.447791072E1,-6.364908218E-1,-9.835697174E0,7.896314561E-2
3.449821140E1,-7.633104324E-1,-9.795019150E0,9.571290761E-2
3.451824692E1,-8.309076428E-1,-9.739984512E0,5.503492057E-2
3.453859656E1,-8.859425783E-1,-9.799804688E0,2.392822690E-2
3.455886786E1,-8.524430394E-1,-9.816555023E0,6.699903309E-2
3.457913916E1,-7.752745152E-1,-9.821340561E0,1.746760458E-1
3.459953916E1,-7.369893789E-1,-9.790233612E0,2.081755698E-1
3.461983291E1,-7.345965505E-1,-9.775876999E0,1.866401732E-1
3.463995067E1,-8.189435601E-1,-9.802198410E0,1.411765367E-1
3.466022249E1,-8.739784956E-1,-9.804591179E0,1.076770201E-1
3.468049432E1,-8.811569214E-1,-9.811769485E0,1.052841991E-1
3.470076604E1,-8.093722463E-1,-9.821340561E0,9.810572863E-2
3.472103765E1,-7.202396393E-1,-9.787840843E0,1.028913707E-1
3.474130921E1,-6.652047038E-1,-9.811769485E0,1.076770201E-1
3.476158067E1,-6.747759581E-1,-9.809376717E0,1.196411327E-1
3.478185223E1,-7.250252366E-1,-9.830911636E0,1.268195957E-1
3.480212369E1,-7.854440212E-1,-9.783055305E0,1.363908947E-1
3.482239510E1,-8.356932998E-1,-9.759127617E0,1.244267747E-1
3.484266661E1,-8.141579032E-1,-9.797411919E0,7.417750359E-2
3.486293801E1,-7.345965505E-1,-9.826126099E0,5.024927482E-2
3.488320932E1,-6.843472719E-1,-9.828518867E0,8.614161611E-2
3.490360937E1,-7.226324677E-1,-9.809376717E0,1.292124242E-1
3.492375213E1,-7.633104324E-1,-9.811769485E0,1.866401732E-1
3.494402354E1,-7.776673436E-1,-9.797411919E0,2.105683982E-1
3.496429489E1,-7.345965505E-1,-9.840482712E0,2.057827413E-1
3.498456624E1,-7.250252366E-1,-9.828518867E0,1.842473447E-1
3.500496630E1,-7.178468108E-1,-9.790233612E0,1.363908947E-1
3.502510906E1,-7.345965505E-1,-9.773484230E0,9.571290761E-2
3.504538041E1,-7.322037220E-1,-9.778269768E0,6.221338734E-2
3.506565176E1,-7.178468108E-1,-9.797411919E0,4.307080805E-2
3.508592312E1,-6.915257573E-1,-9.823733330E0,4.067798331E-2
3.510632911E1,-6.795616150E-1,-9.814162254E0,8.614161611E-2
3.512657728E1,-7.154539824E-1,-9.787840843E0,1.316052526E-1
3.514673072E1,-7.752745152E-1,-9.780662537E0,1.698904037E-1
3.516713072E1,-8.285148144E-1,-9.766305923E0,1.674975902E-1
3.518728036E1,-8.883354068E-1,-9.785448074E0,1.746760458E-1
3.520755166E1,-8.835497499E-1,-9.799804688E0,1.339980662E-1
3.522782286E1,-8.763712645E-1,-9.761520386E0,1.268195957E-1
3.524809421E1,-8.117650747E-1,-9.850054741E0,1.387837082E-1
3.526836557E1,-7.537391186E-1,-9.857233047E0,1.962114573E-1
3.528863692E1,-7.680960894E-1,-9.773484230E0,2.201396823E-1
3.530890822E1,-8.500502706E-1,-9.756733894E0,2.177468538E-1
3.532917958E1,-8.237292171E-1,-9.739984512E0,1.387837082E-1
3.534945093E1,-7.202396393E-1,-9.763913155E0,7.896314561E-2
3.536972223E1,-6.269195080E-1,-9.902696609E0,5.264209956E-2
3.538999359E1,-5.886343718E-1,-9.873982430E0,9.332008660E-2
3.541026494E1,-6.364908218E-1,-9.859625816E0,1.196411327E-1
3.543053630E1,-7.226324677E-1,-9.838089943E0,1.268195957E-1
3.545080765E1,-8.356932998E-1,-9.838089943E0,9.571290761E-2
3.547107900E1,-8.476574421E-1,-9.816555023E0,5.024927482E-2
3.549147900E1,-8.380861282E-1,-9.785448074E0,7.657032460E-2
3.551162161E1,-7.950153351E-1,-9.787840843E0,1.124626622E-1
3.553189296E1,-8.165507317E-1,-9.799804688E0,1.387837082E-1
3.555216432E1,-9.074779749E-1,-9.802198410E0,1.651047617E-1
3.557243567E1,-1.091725349E0,-9.771091461E0,1.914258152E-1
3.559270702E1,-1.235294700E0,-9.728020668E0,1.818545163E-1
3.561297838E1,-1.314257860E0,-9.711270332E0,1.579262912E-1
3.563324968E1,-1.285543919E0,-9.692128181E0,8.374879509E-2
3.565352104E1,-1.192223907E0,-9.728020668E0,6.699903309E-2
3.567379239E1,-1.098903775E0,-9.754341125E0,8.853443712E-2
3.569419239E1,-1.029511929E0,-9.754341125E0,1.100698411E-1
3.571433510E1,-9.577272534E-1,-9.751948357E0,1.387837082E-1
3.573460640E1,-8.668000102E-1,-9.754341125E0,1.220339537E-1
3.575487775E1,-7.752745152E-1,-9.811769485E0,1.052841991E-1
3.577514911E1,-7.752745152E-1,-9.845269203E0,9.092725813E-2
3.579554911E1,-7.926225066E-1,-9.804591179E0,9.092725813E-2
3.581569176E1,-7.830511928E-1,-9.804591179E0,9.571290761E-2
3.583596312E1,-7.830511928E-1,-9.847661972E0,1.004985496E-1
3.585623442E1,-7.728816867E-1,-9.787840843E0,1.052841991E-1
3.587650578E1,-7.322037220E-1,-9.795019150E0,1.028913707E-1
3.589690578E1,-7.130611539E-1,-9.838089943E0,1.076770201E-1
3.591704843E1,-7.226324677E-1,-9.821340561E0,1.052841991E-1
3.593731978E1,-7.998009920E-1,-9.792626381E0,7.178468257E-2
3.595759109E1,-8.309076428E-1,-9.787840843E0,9.332008660E-2
3.597786244E1,-9.266205430E-1,-9.804591179E0,1.244267747E-1
3.599826244E1,-9.960124493E-1,-9.804591179E0,1.483550072E-1
3.601840510E1,-9.672985673E-1,-9.787840843E0,1.459621787E-1
3.603867645E1,-9.002995491E-1,-9.749555588E0,1.387837082E-1
3.605894775E1,-8.093722463E-1,-9.795019150E0,9.332008660E-2
3.607921911E1,-7.926225066E-1,-9.823733330E0,1.028913707E-1
3.609949041E1,-8.452646136E-1,-9.792626381E0,1.172483116E-1
3.611976176E1,-9.074779749E-1,-9.804591179E0,1.004985496E-1
3.614003307E1,-9.433703423E-1,-9.785448074E0,8.135596663E-2
3.616030442E1,-8.907282352E-1,-9.766305923E0,6.221338734E-2
3.618057572E1,-8.141579032E-1,-9.780662537E0,8.374879509E-2
3.620084708E1,-8.021938205E-1,-9.806983948E0,1.435693651E-1
3.622111838E1,-8.333004713E-1,-9.797411919E0,1.866401732E-1
3.624138973E1,-9.002995491E-1,-9.797411919E0,1.770688742E-1
3.626166104E1,-9.409775138E-1,-9.785448074E0,1.148554832E-1
3.628193239E1,-9.098708034E-1,-9.768698692E0,6.699903309E-2
3.630220369E1,-8.285148144E-1,-9.778269768E0,4.546362907E-2
3.632247499E1,-7.830511928E-1,-9.806983948E0,4.307080805E-2
3.634274635E1,-7.154539824E-1,-9.823733330E0,6.221338734E-2
3.636301765E1,-6.604190469E-1,-9.816555023E0,9.571290761E-2
3.638328900E1,-6.795616150E-1,-9.811769485E0,1.052841991E-1
3.640356031E1,-7.202396393E-1,-9.804591179E0,1.028913707E-1
3.642383161E1,-7.657032609E-1,-9.806983948E0,8.374879509E-2
3.644410296E1,-8.093722463E-1,-9.795019150E0,8.614161611E-2
3.646437426E1,-8.189435601E-1,-9.811769485E0,5.024927482E-2
3.648464562E1,-7.680960894E-1,-9.778269768E0,6.699903309E-2
3.650491692E1,-7.513462901E-1,-9.797411919E0,1.268195957E-1
3.652518822E1,-7.704889178E-1,-9.850054741E0,1.746760458E-1
3.654545958E1,-7.830511928E-1,-9.854840279E0,1.603191197E-1
3.656573088E1,-8.213363886E-1,-9.797411919E0,1.507478207E-1
3.658600218E1,-8.213363886E-1,-9.763913155E0,5.503492057E-2
3.660627348E1,-7.417750359E-1,-9.754341125E0,-1.734796353E-2
3.662654484E1,-6.987041831E-1,-9.785448074E0,1.435693540E-2
3.664681614E1,-6.771687865E-1,-9.802198410E0,9.092725813E-2
3.666708744E1,-7.441678643E-1,-9.806983948E0,1.627119333E-1
3.668735880E1,-7.926225066E-1,-9.818947792E0,2.416750938E-1
3.670763010E1,-7.657032609E-1,-9.854840279E0,2.273181528E-1
3.672790140E1,-6.915257573E-1,-9.806983948E0,1.674975902E-1
3.674817270E1,-6.723831892E-1,-9.795019150E0,7.896314561E-2
3.676844406E1,-6.699903607E-1,-9.799804688E0,5.264209956E-2
3.678871536E1,-7.130611539E-1,-9.821340561E0,3.589234129E-2
3.680898666E1,-7.034898400E-1,-9.811769485E0,6.699903309E-2
3.682925796E1,-7.058826685E-1,-9.795019150E0,1.196411327E-1
3.684952932E1,-6.843472719E-1,-9.833304405E0,1.603191197E-1
3.686980062E1,-7.250252366E-1,-9.806983948E0,2.057827413E-1
3.689007192E1,-8.021938205E-1,-9.804591179E0,1.890329868E-1
3.691034322E1,-8.476574421E-1,-9.804591179E0,1.172483116E-1
3.693061452E1,-8.548358679E-1,-9.785448074E0,6.460621208E-2
3.695088583E1,-7.657032609E-1,-9.771091461E0,5.982056633E-2
3.697115713E1,-7.513462901E-1,-9.775876999E0,6.221338734E-2
3.699142843E1,-7.489534616E-1,-9.797411919E0,9.571290761E-2
3.701169973E1,-8.093722463E-1,-9.854840279E0,1.339980662E-1
3.703197109E1,-7.226324677E-1,-9.804591179E0,1.507478207E-1
3.705224239E1,-6.723831892E-1,-9.790233612E0,1.292124242E-1
3.707251364E1,-6.293123364E-1,-9.816555023E0,1.244267747E-1
3.709278494E1,-6.532405615E-1,-9.847661972E0,1.411765367E-1
3.711305630E1,-7.178468108E-1,-9.833304405E0,1.698904037E-1
3.713332754E1,-7.950153351E-1,-9.818947792E0,1.842473447E-1
3.715359890E1,-8.165507317E-1,-9.826126099E0,1.483550072E-1
3.717387015E1,-7.878368497E-1,-9.818947792E0,1.148554832E-1
3.719427015E1,-7.082754970E-1,-9.818947792E0,6.939185411E-2
3.721441275E1,-5.790630579E-1,-9.809376717E0,4.067798331E-2
3.723468406E1,-6.795616150E-1,-9.672985077E0,1.339980662E-1
3.725495536E1,-8.165507317E-1,-9.775876999E0,1.292124242E-1
3.727522666E1,-9.026923180E-1,-9.881160736E0,1.483550072E-1
3.729562666E1,-9.457631707E-1,-9.869196892E0,1.507478207E-1
3.731576921E1,-8.069794178E-1,-9.783055305E0,1.220339537E-1
3.733604051E1,-7.178468108E-1,-9.763913155E0,5.982056633E-2
3.735631182E1,-6.293123364E-1,-9.799804688E0,2.632104978E-2
3.737658312E1,-6.221339107E-1,-9.847661972E0,3.828516230E-2
3.739698312E1,-7.058826685E-1,-9.802198410E0,1.028913707E-1
3.741712567E1,-8.141579032E-1,-9.783055305E0,1.363908947E-1
3.743739697E1,-9.194421172E-1,-9.780662537E0,1.363908947E-1
3.745766828E1,-9.553344250E-1,-9.778269768E0,1.100698411E-1
3.747793958E1,-9.314061999E-1,-9.787840843E0,9.092725813E-2
3.749821083E1,-8.596215248E-1,-9.795019150E0,7.896314561E-2
3.751848213E1,-7.878368497E-1,-9.826126099E0,9.571290761E-2
3.753875343E1,-7.441678643E-1,-9.797411919E0,1.292124242E-1
3.755902468E1,-7.465606928E-1,-9.814162254E0,1.507478207E-1
3.757929598E1,-8.093722463E-1,-9.804591179E0,1.339980662E-1
3.759952796E1,-8.428717852E-1,-9.785448074E0,1.411765367E-1
3.761983848E1,-8.715856671E-1,-9.811769485E0,1.387837082E-1
3.764010978E1,-8.452646136E-1,-9.823733330E0,1.124626622E-1
3.766038109E1,-7.878368497E-1,-9.799804688E0,9.332008660E-2
3.768065239E1,-7.417750359E-1,-9.771091461E0,7.657032460E-2
3.770092369E1,-7.585247755E-1,-9.787840843E0,6.699903309E-2
3.772119499E1,-7.830511928E-1,-9.790233612E0,5.264209956E-2
3.774146630E1,-8.165507317E-1,-9.795019150E0,9.810572863E-2
3.776173754E1,-8.021938205E-1,-9.797411919E0,1.244267747E-1
3.778200885E1,-8.333004713E-1,-9.828518867E0,1.674975902E-1
3.780228015E1,-8.021938205E-1,-9.802198410E0,1.914258152E-1
3.782255140E1,-8.404789567E-1,-9.802198410E0,1.387837082E-1
3.784282270E1,-8.715856671E-1,-9.783055305E0,9.571290761E-2
3.786309400E1,-8.261220455E-1,-9.761520386E0,8.135596663E-2
3.788336525E1,-7.704889178E-1,-9.814162254E0,1.004985496E-1
3.790363656E1,-7.393822074E-1,-9.809376717E0,9.810572863E-2
3.792390781E1,-7.513462901E-1,-9.792626381E0,1.076770201E-1
3.794417911E1,-7.728816867E-1,-9.792626381E0,9.092725813E-2
3.796445036E1,-8.524430394E-1,-9.778269768E0,7.657032460E-2
3.798472166E1,-8.715856671E-1,-9.795019150E0,4.307080805E-2
3.800499296E1,-7.926225066E-1,-9.814162254E0,2.871387079E-2
3.802526421E1,-7.010970116E-1,-9.862018585E0,6.939185411E-2
3.804553551E1,-6.604190469E-1,-9.835697174E0,1.172483116E-1
3.806580676E1,-7.010970116E-1,-9.828518867E0,1.483550072E-1
3.808607807E1,-7.950153351E-1,-9.802198410E0,1.483550072E-1
3.810634932E1,-9.194421172E-1,-9.728020668E0,1.028913707E-1
3.812662062E1,-9.505487680E-1,-9.732806206E0,4.067798331E-2
3.814689187E1,-8.979067206E-1,-9.775876999E0,3.828516230E-2
3.816716307E1,-8.189435601E-1,-9.821340561E0,7.417750359E-2
3.818743442E1,-7.393822074E-1,-9.802198410E0,1.435693651E-1
3.820770567E1,-7.202396393E-1,-9.778269768E0,2.033899277E-1
3.822797692E1,-7.633104324E-1,-9.811769485E0,1.746760458E-1
3.824824822E1,-8.093722463E-1,-9.792626381E0,1.244267747E-1
3.826851947E1,-8.333004713E-1,-9.814162254E0,6.460621208E-2
3.828879078E1,-8.093722463E-1,-9.809376717E0,4.307080805E-2
3.830906202E1,-7.585247755E-1,-9.783055305E0,2.632104978E-2
3.832933328E1,-6.699903607E-1,-9.787840843E0,4.307080805E-2
3.834960458E1,-5.766702294E-1,-9.833304405E0,8.853443712E-2
3.836987583E1,-5.958128572E-1,-9.847661972E0,1.411765367E-1
3.839014708E1,-6.604190469E-1,-9.833304405E0,1.507478207E-1
3.841041833E1,-7.513462901E-1,-9.787840843E0,1.268195957E-1
3.843068963E1,-8.213363886E-1,-9.766305923E0,1.052841991E-1
3.845096088E1,-9.002995491E-1,-9.766305923E0,8.135596663E-2
3.847123213E1,-9.290133715E-1,-9.787840843E0,1.196411327E-1
3.849163213E1,-8.691928387E-1,-9.806983948E0,1.722832322E-1
3.851177468E1,-7.441678643E-1,-9.830911636E0,1.651047617E-1
3.853204593E1,-6.340979934E-1,-9.850054741E0,1.387837082E-1
3.855231718E1,-5.479564071E-1,-9.821340561E0,7.896314561E-2
3.857258843E1,-5.623133183E-1,-9.751948357E0,4.785645287E-3
3.859285968E1,-6.436693072E-1,-9.823733330E0,2.153540403E-2
3.861313098E1,-7.369893789E-1,-9.842875481E0,7.178468257E-2
3.863340223E1,-8.165507317E-1,-9.797411919E0,1.292124242E-1
3.865367348E1,-8.045865893E-1,-9.778269768E0,1.722832322E-1
3.867394473E1,-7.609176040E-1,-9.833304405E0,1.244267747E-1
3.869434473E1,-6.747759581E-1,-9.802198410E0,9.332008660E-2
3.871448729E1,-6.556333899E-1,-9.842875481E0,6.460621208E-2
3.873475848E1,-6.675975323E-1,-9.888339996E0,3.110669367E-2
3.875502979E1,-6.699903607E-1,-9.742377281E0,6.460621208E-2
3.877530104E1,-7.680960894E-1,-9.763913155E0,8.853443712E-2
3.879570104E1,-7.974081635E-1,-9.775876999E0,1.244267747E-1
3.881584354E1,-8.428717852E-1,-9.833304405E0,1.890329868E-1
3.883611478E1,-8.715856671E-1,-9.814162254E0,1.794617027E-1
3.885638604E1,-9.194421172E-1,-9.802198410E0,1.148554832E-1
3.887665734E1,-8.620143533E-1,-9.763913155E0,4.307080805E-2
3.889705734E1,-7.728816867E-1,-9.751948357E0,9.571290575E-3
3.891719978E1,-6.915257573E-1,-9.814162254E0,1.674975827E-2
3.893747104E1,-6.245267391E-1,-9.852447510E0,2.632104978E-2
3.895774228E1,-5.503492355E-1,-9.821340561E0,4.785645381E-2
3.897801359E1,-5.072783828E-1,-9.857233047E0,1.004985496E-1
3.899841359E1,-5.766702294E-1,-9.845269203E0,1.435693651E-1
3.901855604E1,-7.106683254E-1,-9.818947792E0,1.387837082E-1
3.903882728E1,-8.165507317E-1,-9.739984512E0,6.460621208E-2
3.905909854E1,-8.811569214E-1,-9.787840843E0,-0.000000000E0
3.907936979E1,-8.500502706E-1,-9.809376717E0,-1.495514158E-2
3.909964104E1,-7.926225066E-1,-9.859625816E0,9.092725813E-2
3.911991229E1,-6.987041831E-1,-9.854840279E0,1.627119333E-1
3.914018354E1,-6.532405615E-1,-9.773484230E0,1.890329868E-1
3.916045479E1,-7.058826685E-1,-9.749555588E0,1.339980662E-1
3.918072604E1,-7.657032609E-1,-9.852447510E0,7.417750359E-2
3.920099728E1,-8.596215248E-1,-9.766305923E0,5.982056633E-2
3.922126848E1,-9.026923180E-1,-9.785448074E0,3.349951655E-2
3.924153973E1,-9.074779749E-1,-9.828518867E0,3.349951655E-2
3.926181098E1,-8.763712645E-1,-9.802198410E0,7.178467698E-3
3.928208223E1,-7.974081635E-1,-9.747162819E0,-2.213360928E-2
3.930235348E1,-6.843472719E-1,-9.751948357E0,7.178467698E-3
3.932262468E1,-5.742774606E-1,-9.857233047E0,6.221338734E-2
3.934289593E1,-4.905286431E-1,-9.917053223E0,1.148554832E-1
3.936316718E1,-5.359922647E-1,-9.873982430E0,1.292124242E-1
3.938343843E1,-6.508477330E-1,-9.773484230E0,8.614161611E-2
3.940370968E1,-6.963114142E-1,-9.756733894E0,-1.495514158E-2
3.942398088E1,-7.393822074E-1,-9.799804688E0,-6.999006122E-2
3.944425208E1,-7.752745152E-1,-9.799804688E0,-3.649054468E-2
3.946452338E1,-7.950153351E-1,-9.838089943E0,5.982056633E-2
3.948479458E1,-7.417750359E-1,-9.845269203E0,1.674975902E-1
3.950506583E1,-7.393822074E-1,-9.804591179E0,2.129612118E-1
3.952533708E1,-7.130611539E-1,-9.811769485E0,1.651047617E-1
3.954560828E1,-6.532405615E-1,-9.751948357E0,8.374879509E-2
3.956587952E1,-6.436693072E-1,-9.792626381E0,8.374879509E-2
3.958615072E1,-7.561319470E-1,-9.890732765E0,3.589234129E-2
3.960642197E1,-7.878368497E-1,-9.795019150E0,4.785645287E-3
3.962669322E1,-8.069794178E-1,-9.787840843E0,8.614161611E-2
3.964696442E1,-9.098708034E-1,-9.795019150E0,1.555334777E-1
3.966723567E1,-9.888339639E-1,-9.802198410E0,1.435693651E-1
3.968750687E1,-8.261220455E-1,-9.763913155E0,1.172483116E-1
3.970777812E1,-6.436693072E-1,-9.818947792E0,6.460621208E-2
3.972804937E1,-5.910272002E-1,-9.809376717E0,4.785645287E-3
3.974832057E1,-6.173482537E-1,-9.835697174E0,-5.324030295E-2
3.976859182E1,-6.484549642E-1,-9.833304405E0,1.914258115E-2
3.978886301E1,-6.747759581E-1,-9.833304405E0,5.503492057E-2
3.980913426E1,-6.987041831E-1,-9.809376717E0,1.052841991E-1
3.982940546E1,-7.776673436E-1,-9.804591179E0,1.172483116E-1
3.984967671E1,-8.309076428E-1,-9.811769485E0,1.148554832E-1
3.986994791E1,-8.117650747E-1,-9.754341125E0,1.244267747E-1
3.989021916E1,-7.878368497E-1,-9.821340561E0,1.244267747E-1
3.991049036E1,-8.069794178E-1,-9.785448074E0,1.220339537E-1
3.993076161E1,-8.835497499E-1,-9.804591179E0,1.459621787E-1
3.995103281E1,-8.979067206E-1,-9.797411919E0,1.004985496E-1
3.997130406E1,-8.596215248E-1,-9.804591179E0,6.221338734E-2
3.999157525E1,-8.069794178E-1,-9.747162819E0,7.657032460E-2
4.001184650E1,-7.369893789E-1,-9.795019150E0,6.699903309E-2
4.003211770E1,-6.053841114E-1,-9.830911636E0,5.742774159E-2
4.005238890E1,-5.862415433E-1,-9.797411919E0,1.028913707E-1
4.007266015E1,-7.202396393E-1,-9.806983948E0,1.411765367E-1
4.009293135E1,-8.644071817E-1,-9.828518867E0,1.674975902E-1
4.011320260E1,-9.290133715E-1,-9.826126099E0,2.057827413E-1
4.013347380E1,-8.763712645E-1,-9.766305923E0,2.105683982E-1
4.015374504E1,-8.524430394E-1,-9.761520386E0,1.100698411E-1
4.017401624E1,-8.093722463E-1,-9.787840843E0,7.178467698E-3
4.019441624E1,-8.333004713E-1,-9.775876999E0,-4.606183618E-2
4.021455869E1,-8.189435601E-1,-9.754341125E0,-4.845465720E-2
4.023482989E1,-7.202396393E-1,-9.795019150E0,-2.452643216E-2
4.025510109E1,-6.149554253E-1,-9.869196892E0,1.435693540E-2
4.027537234E1,-4.905286431E-1,-9.790233612E0,1.076770201E-1
4.029577234E1,-6.675975323E-1,-9.859625816E0,2.608176768E-1
4.031591473E1,-7.561319470E-1,-9.847661972E0,2.321037948E-1
4.033618598E1,-7.902296782E-1,-9.756733894E0,2.344966233E-1
4.035645718E1,-1.012762189E0,-9.818947792E0,2.081755698E-1
4.037672838E1,-1.113260746E0,-9.692128181E0,8.853443712E-2
4.039712838E1,-9.696913958E-1,-9.754341125E0,5.024927482E-2
4.041727083E1,-8.931210637E-1,-9.816555023E0,7.417750359E-2
4.043754202E1,-8.117650747E-1,-9.799804688E0,7.657032460E-2
4.045781322E1,-7.633104324E-1,-9.864411354E0,1.244267747E-1
4.047808442E1,-6.149554253E-1,-9.845269203E0,1.483550072E-1
4.049835562E1,-5.599204898E-1,-9.773484230E0,1.244267747E-1
4.051862687E1,-6.508477330E-1,-9.823733330E0,9.332008660E-2
4.053889807E1,-8.356932998E-1,-9.852447510E0,5.024927482E-2
4.055916926E1,-9.050851464E-1,-9.785448074E0,5.264209956E-2
4.057944051E1,-8.835497499E-1,-9.728020668E0,7.896314561E-2
4.059971171E1,-7.776673436E-1,-9.761520386E0,8.853443712E-2
4.061998291E1,-6.939185858E-1,-9.823733330E0,9.810572863E-2
4.064025411E1,-6.675975323E-1,-9.850054741E0,1.531406492E-1
4.066052531E1,-7.034898400E-1,-9.797411919E0,1.818545163E-1
4.068079650E1,-7.585247755E-1,-9.785448074E0,1.292124242E-1
4.070106770E1,-8.021938205E-1,-9.842875481E0,7.657032460E-2
4.072133890E1,-8.117650747E-1,-9.811769485E0,5.264209956E-2
4.074161015E1,-7.878368497E-1,-9.790233612E0,4.546362907E-2
4.076188135E1,-7.369893789E-1,-9.811769485E0,7.417750359E-2
4.078215254E1,-7.322037220E-1,-9.766305923E0,9.810572863E-2
4.080242374E1,-7.609176040E-1,-9.799804688E0,7.657032460E-2
4.082269494E1,-8.021938205E-1,-9.821340561E0,1.028913707E-1
