"Time (s)","Gyroscope x (rad/s)","Gyroscope y (rad/s)","Gyroscope z (rad/s)"
3.610771700E-2,-1.010668874E-1,-3.538006842E-1,6.258423906E-3
5.638110300E-2,-2.862896025E-2,2.956106514E-2,-4.913528636E-2
7.649709200E-2,1.342232227E-1,2.314285189E-1,-6.671213359E-2
9.677021700E-2,1.304948032E-1,1.563274413E-1,-6.724476814E-2
1.170433940E-1,-4.460791498E-2,-2.636527456E-2,-5.925529078E-2
1.374433940E-1,-1.143826842E-1,-1.737711281E-1,-5.605949834E-2
1.575899570E-1,-9.147951752E-2,-5.299686641E-2,-6.564687192E-2
1.778631860E-1,-6.271740049E-2,6.791055948E-2,-1.327584833E-1
1.981364150E-1,-7.550056279E-2,1.238368973E-1,-2.094574571E-1
2.184096970E-1,-1.431448013E-1,2.031990439E-1,-2.728406489E-1
2.386829780E-1,-1.495363861E-1,2.649843395E-1,-3.703122735E-1
2.589562590E-1,-1.761679798E-1,2.458095849E-1,-4.271707237E-1
2.792295920E-1,-4.281028211E-1,2.367548496E-1,-5.118591785E-1
2.995028220E-1,-5.968139768E-1,4.113249183E-1,-6.908234954E-1
3.197761550E-1,-7.198519111E-1,8.832367063E-1,-9.314398766E-1
3.400494360E-1,-8.103992939E-1,1.308143735E0,-1.124785304E0
3.603227690E-1,-8.396940827E-1,1.538640141E0,-1.205745339E0
3.805960510E-1,-8.684561849E-1,1.464071751E0,-1.427320123E0
4.008693840E-1,-1.014796734E0,1.056208849E0,-1.535311222E0
4.211415720E-1,-1.405748487E0,1.435442805E0,-1.466202259E0
4.415480300E-1,-1.521862268E0,1.047154188E0,-1.584846020E0
4.618363630E-1,-1.285906315E0,-2.382195890E-1,-1.366067410E0
4.819544360E-1,-1.218262076E0,-7.174550891E-1,-9.863009453E-1
5.022293840E-1,-9.084035754E-1,-3.490070105E-1,-5.683181286E-1
5.225026130E-1,-5.057339072E-1,3.107906580E-1,-4.458128214E-1
5.429040190E-1,-2.470080107E-1,7.016092539E-1,-4.404865205E-1
5.630515720E-1,-1.207742617E-1,1.141430020E0,-5.235770941E-1
5.833256860E-1,-3.231743574E-1,1.160072088E0,-5.779055357E-1
6.035996440E-1,-7.363634706E-1,5.854955316E-1,-4.932170510E-1
6.238729260E-1,-6.900244951E-1,8.815056831E-2,-1.860216707E-1
6.442734990E-1,-6.841655970E-1,-2.387522161E-1,2.852243483E-1
6.644204780E-1,-8.902940750E-1,-6.897582114E-2,4.609928429E-1
6.846941240E-1,-1.037699938E0,2.601906359E-1,6.538055837E-2
7.049677170E-1,-1.023318887E0,3.081275225E-1,-1.231711060E-1
7.252409470E-1,-1.017459989E0,-1.616537571E-1,2.916159295E-2
7.456412070E-1,-1.006807327E0,-5.514070988E-1,2.633864284E-1
7.657879260E-1,-9.934915304E-1,-5.109270811E-1,2.165148407E-1
7.860613630E-1,-9.950894117E-1,2.263685316E-2,-1.824264042E-2
8.063347490E-1,-9.265130758E-1,1.398158520E-1,-1.173121557E-1
8.266079780E-1,-6.298371553E-1,2.849580161E-2,-4.926844500E-3
8.470080820E-1,-4.392880797E-1,-1.387505829E-1,1.893506050E-1
8.671546970E-1,-5.744433999E-1,-3.000048697E-1,2.436790615E-1
8.874280300E-1,-6.095971465E-1,-8.788425475E-3,1.632516533E-1
9.077013630E-1,-6.095971465E-1,3.542001545E-2,1.095889956E-1
9.279746440E-1,-7.720498443E-1,-1.860216707E-1,1.165132076E-1
9.483746970E-1,-9.100014567E-1,-1.876195520E-1,1.000016257E-1
9.685213630E-1,-9.089362025E-1,-3.074617088E-1,1.973400861E-1
9.887944880E-1,-6.479465961E-1,-4.656533599E-1,3.395527899E-1
1.009067822E0,-3.561975360E-1,-3.852259517E-1,2.484727502E-1
1.029341103E0,-2.117211558E-2,-1.091895252E-2,-1.611211337E-2
1.049614384E0,2.013348341E-1,2.106558830E-1,-1.679121852E-1
1.069887613E0,4.229096770E-1,5.263733864E-1,-2.339585274E-1
1.090160947E0,7.391598225E-1,9.709877968E-1,-3.564638495E-1
1.110434228E0,9.341030717E-1,1.347558498E0,-4.681833684E-1
1.130707509E0,1.012399912E0,1.474724412E0,-6.892255545E-1
1.150980738E0,1.146623135E0,1.253815293E0,-7.627287507E-1
1.171254019E0,1.138633728E0,9.880320430E-1,-7.803056240E-1
1.191527301E0,9.069388509E-1,8.683230281E-1,-9.171919823E-1
1.211800530E0,6.837661266E-1,1.025316238E0,-9.527451396E-1
1.232073811E0,6.656566262E-1,1.337438464E0,-1.109338880E0
1.252347092E0,6.912229657E-1,1.461941242E0,-1.191896915E0
1.272620374E0,4.234423041E-1,1.246358514E0,-8.330361843E-1
1.292893655E0,5.126581341E-2,1.084438443E0,-4.916191697E-1
1.313166884E0,-3.221091032E-1,9.337036014E-1,-3.527354300E-1
1.333440165E0,-4.641886353E-1,4.028028250E-1,-2.280995846E-1
1.353713447E0,-5.829655528E-1,2.916159332E-1,-2.824280262E-1
1.373986728E0,-6.719150543E-1,4.901544452E-1,-3.761712313E-1
1.394259957E0,-5.323655009E-1,6.344976425E-1,-3.814975321E-1
1.414533238E0,-3.338269889E-1,6.861629486E-1,-1.801627129E-1
1.434806519E0,-3.556649089E-1,6.291713119E-1,-1.717737690E-2
1.455079801E0,-2.374206334E-1,3.772364855E-1,3.235738352E-2
1.475479801E0,8.002793044E-2,4.074633494E-2,9.361004084E-2
1.495626363E0,3.557980657E-1,2.069274634E-1,1.175784767E-1
1.515899644E0,5.640571117E-1,4.986765385E-1,2.916159295E-2
1.536172978E0,5.283707380E-1,7.133271694E-1,-3.635212034E-2
1.556446207E0,1.826927215E-1,5.759081841E-1,-7.363634557E-2
1.576719488E0,-9.733846784E-2,3.783017397E-1,-1.025316212E-2
1.596992822E0,-1.415469050E-1,2.420811653E-1,1.138500497E-1
1.617266103E0,-6.804371625E-2,2.910832763E-1,2.053295672E-1
1.637539332E0,1.629853398E-1,4.853607416E-1,6.804371625E-2
1.657812561E0,9.693899006E-2,7.527419329E-1,-1.924132407E-1
1.678212561E0,-2.170474641E-2,8.395609260E-1,-3.783017397E-1
1.698359176E0,-6.791055668E-3,6.462155581E-1,-2.893522382E-1
1.718632457E0,1.640505940E-1,5.615270734E-1,-1.567269117E-1
1.738905790E0,3.845601678E-1,6.195839643E-1,-1.822932363E-1
1.759179072E0,6.720482111E-1,7.154576778E-1,-2.078595608E-1
1.779452353E0,6.672545075E-1,8.113313913E-1,-2.451438010E-1
1.799725634E0,3.051980436E-1,7.394261360E-1,-1.753690243E-1
1.820125634E0,-1.250353158E-1,5.279712677E-1,-3.848264739E-2
1.840436519E0,-2.486059070E-1,5.583313107E-1,-1.557948068E-2
1.860692874E0,-2.470080107E-1,5.253081322E-1,4.087949172E-2
1.880810947E0,-2.017343044E-1,3.422159553E-1,2.900180221E-1
1.901085842E0,1.877527125E-2,2.894853950E-1,6.309024096E-1
1.921358967E0,1.123853177E-1,3.549990952E-1,4.684496820E-1
1.941760322E0,7.310371846E-2,3.942807019E-1,1.191763729E-1
1.961906832E0,4.167843983E-2,3.091927767E-1,-7.736477256E-2
1.982185478E0,1.411474347E-1,-4.287686199E-2,1.021321490E-1
2.002458759E0,2.817622423E-1,-2.909501195E-1,2.186453640E-1
2.022732040E0,3.483411968E-1,-3.000048697E-1,2.053295672E-1
2.043005269E0,3.456780612E-1,-1.833585054E-1,1.669800729E-1
2.063278551E0,3.249054253E-1,-7.004108280E-2,1.340900660E-1
2.083551832E0,1.107874215E-1,1.091895252E-2,2.687127590E-1
2.103825061E0,3.049317189E-2,-2.462090552E-1,2.820285559E-1
2.124098394E0,-3.994738800E-4,-3.585943878E-1,9.520793706E-2
2.144371676E0,-2.043974549E-1,-7.323687524E-2,-4.327633604E-2
2.164644957E0,-5.355613232E-1,3.145190775E-1,-1.295626909E-1
2.184918238E0,-5.627255440E-1,3.422159553E-1,-1.721732318E-1
2.205191519E0,-4.004059732E-1,-7.989477599E-4,1.021321490E-1
2.225464853E0,-3.759049177E-1,-4.997417927E-1,4.748412669E-1
2.245738134E0,-4.323638678E-1,-7.824361324E-1,5.456812978E-1
2.266011467E0,-2.651174963E-1,-6.424871087E-1,2.367548496E-1
2.286284749E0,-1.090563685E-1,-4.581965208E-1,1.308942735E-1
2.306558030E0,-8.295740932E-2,-5.322323442E-1,2.079927325E-1
2.326831363E0,-1.687111259E-1,-6.153228879E-1,1.447426975E-1
2.347104644E0,-1.905490309E-1,-5.215796828E-1,-7.203845680E-2
2.367377978E0,-1.191763729E-1,-4.278365076E-1,-2.259690464E-1
2.387651259E0,-6.431528926E-2,-5.258407593E-1,-1.785648167E-1
2.407924592E0,7.590003312E-3,-5.519397259E-1,-7.843003422E-2
2.428197926E0,1.406148076E-1,-4.864259958E-1,-7.629951090E-2
2.448471207E0,1.768337637E-1,-5.684512854E-1,-1.524658650E-1
2.468744436E0,1.214400530E-1,-7.765771747E-1,-2.589922249E-1
2.489017822E0,1.725727171E-1,-9.438235760E-1,-3.404848874E-1
2.509291155E0,3.787012100E-1,-1.010402560E0,-2.989396155E-1
2.529564488E0,4.340949357E-1,-5.402218103E-1,-2.728406489E-1
2.549837769E0,3.387538493E-1,-3.021354079E-1,-2.701774836E-1
2.570111103E0,1.917474568E-1,-3.275685757E-2,-1.439437568E-1
2.590384436E0,9.214530140E-2,1.888179779E-1,-1.897500902E-1
2.610657717E0,2.090579830E-2,1.696432382E-1,-2.046637833E-1
2.630931051E0,9.480846673E-2,7.962846011E-2,-4.114580899E-2
2.651204384E0,3.795001656E-2,-7.643266767E-2,1.818937659E-1
2.671477665E0,-1.532648057E-1,5.033370852E-2,8.242477477E-2
2.691750999E0,-3.226417303E-1,2.543317080E-1,-2.569948509E-2
2.712024332E0,-4.105259776E-1,4.340949282E-2,3.994738800E-4
2.732297613E0,-2.129195631E-1,-1.716406047E-1,2.053295672E-1
2.752570947E0,1.033305749E-1,-1.360874325E-1,3.768370152E-1
2.772844228E0,2.231727391E-1,-7.110634446E-2,4.615254700E-1
2.793117561E0,3.009369671E-1,-1.201084778E-1,4.721781015E-1
2.813390842E0,3.563306928E-1,-1.664474458E-1,3.193127811E-1
2.833664176E0,2.434127480E-1,-2.462090552E-1,1.776327193E-1
2.853937509E0,1.581916511E-1,-3.921501637E-1,1.234374270E-1
2.874210842E0,2.343579978E-1,-4.928175807E-1,2.916159332E-1
2.894484124E0,4.261054695E-1,-4.555333555E-1,4.807002246E-1
2.914757457E0,3.376885653E-1,-6.558029056E-1,5.201149583E-1
2.935030738E0,4.380896688E-2,-9.736509919E-1,4.157191217E-1
2.955304072E0,-2.390185297E-1,-9.326383471E-1,3.677822649E-1
2.975577353E0,-6.868287325E-1,-1.074851036E0,4.215780795E-1
2.995850686E0,-1.044624209E0,-1.149419427E0,4.530033767E-1
3.016123967E0,-1.098952651E0,-1.087101579E0,6.793718934E-1
3.036397301E0,-8.716519475E-1,-7.515435219E-1,7.298387289E-1
3.056670634E0,-3.913512230E-1,6.524740160E-2,3.368896246E-1
3.076943915E0,8.788424730E-2,7.111966610E-1,1.340900660E-1
3.097217249E0,6.784397960E-1,1.099884748E0,2.990727723E-1
3.117490530E0,8.323704004E-1,1.038632035E0,1.712411344E-1
3.137890530E0,7.641934752E-1,8.938893676E-1,-2.676474862E-2
3.158037144E0,5.581981540E-1,1.265000582E0,7.550056279E-2
3.178310374E0,3.611243665E-1,1.971137166E0,-7.344992757E-1
3.198583759E0,4.913528636E-2,2.730936527E0,-2.170607805E0
3.218857040E0,-4.403533638E-1,3.574492216E0,-2.702573776E0
3.239130374E0,-7.779088020E-1,3.485009909E0,-2.574742317E0
3.259403655E0,-2.752375007E-1,3.593533754E0,-2.429999590E0
3.279680947E0,1.196557403E0,3.936548710E0,-2.911898136E0
3.299993551E0,2.463954687E0,3.992475033E0,-3.596196890E0
3.320390842E0,1.576856494E0,3.812978029E0,-3.400721073E0
3.340662040E0,6.997450590E-1,3.865708590E0,-4.013647079E0
3.360918290E0,9.783114791E-1,4.128295898E0,-3.850661755E0
3.381036259E0,9.948230982E-1,3.893938065E0,-2.162085772E0
3.401310947E0,1.211471081E0,3.555850029E0,-8.596677780E-1
3.421584124E0,1.337172151E0,2.648911238E0,-4.756402075E-1
3.441993342E0,1.183241606E0,2.295909405E0,-6.412886977E-1
3.462297822E0,8.451535702E-1,1.438638568E0,-7.238466144E-1
3.482410478E0,5.390233994E-1,1.941442937E-1,-8.591351509E-1
3.502683655E0,3.179811835E-1,-7.217161357E-2,-1.118393660E0
3.522956884E0,-9.201214463E-2,1.936116666E-1,-9.458209276E-1
3.543230113E0,1.171789989E-1,9.827057272E-2,-1.049684167E0
3.563503342E0,7.130608559E-1,-7.392929792E-1,-2.356496334E0
3.583776624E0,1.097621083E0,-2.063682079E0,-3.000314951E0
3.604049853E0,1.213068962E0,-2.839593410E0,-2.679137945E0
3.624323134E0,8.797746301E-1,-3.412971497E0,-2.478469133E0
3.644596415E0,3.422159329E-2,-3.057306767E0,-2.069940329E0
3.664869644E0,-5.424855351E-1,-2.187252522E0,-5.150549412E-1
3.685142926E0,-5.744433999E-1,-1.022653103E0,2.645848513E0
3.705416207E0,-3.354249001E-1,5.455481410E-1,2.554235935E0
3.725689488E0,1.209074259E-1,1.205345869E0,5.067991614E-1
3.745962717E0,4.937497079E-1,1.072720528E0,-2.952111959E-1
3.766235999E0,5.459476113E-1,6.765755415E-1,-2.989396155E-1
3.786509332E0,2.269011587E-1,1.158474237E-1,-7.590003312E-3
3.806782613E0,-9.361004084E-2,-2.627206445E-1,1.504684836E-1
3.827055894E0,-2.145174593E-1,-3.063964546E-1,1.000016257E-1
3.847329176E0,-1.346226931E-1,-2.243711501E-1,-5.179844424E-2
3.867602457E0,-1.371526904E-2,-9.880319983E-2,-2.568616867E-1
3.887875738E0,5.872265995E-2,5.033370852E-2,-2.850911915E-1
3.908149019E0,1.603221744E-1,3.219759464E-1,-3.581948951E-2
3.928422301E0,4.591286182E-1,6.526071429E-1,5.643234253E-1
3.948695582E0,8.888293505E-1,8.992156982E-1,1.171390533E0
3.968968759E0,8.595346212E-1,1.264467955E0,1.470063806E0
3.989242092E0,3.083938360E-1,1.718669772E0,1.448758602E0
4.009515374E0,-1.298290044E-1,2.052496672E0,1.283642650E0
4.029788655E0,3.102580272E-2,1.816141367E0,1.323590040E0
4.050061936E0,1.113200486E-1,5.998765826E-1,1.373657465E0
4.070335165E0,-1.042626798E-1,-7.174550891E-1,1.342232227E0
4.090608447E0,-2.560627460E-1,-1.331979036E0,1.332644820E0
4.110881728E0,-1.820269227E-1,-9.752488732E-1,1.545164943E0
4.131155009E0,-1.090563685E-1,-2.904174924E-1,1.847033978E0
4.151428238E0,-1.878858805E-1,4.873581231E-2,2.012682438E0
4.171701519E0,-2.853575051E-1,-9.321057238E-3,2.007356167E0
4.191974801E0,-2.917490900E-1,-1.753690243E-1,1.916808724E0
4.212248030E0,-1.937448233E-1,-1.876195520E-1,1.850762367E0
4.232521311E0,-4.993423447E-2,-6.151897460E-2,1.790042400E0
4.252794540E0,-1.904158667E-2,-3.275685757E-2,1.667670250E0
4.273067822E0,-9.627319872E-2,-2.744385600E-1,1.472194314E0
4.293341051E0,-9.840372950E-2,-5.487439036E-1,1.277251124E0
4.313614332E0,-8.881635964E-2,-8.532761931E-1,1.206544280E0
4.333887561E0,-1.266332120E-1,-9.986846447E-1,1.153813720E0
4.354160842E0,-1.426121742E-1,-9.406278133E-1,9.892304540E-1
4.374560842E0,-1.591237634E-1,-8.016108871E-1,7.202513814E-1
4.394707353E0,-1.953427196E-1,-7.850993276E-1,4.087949097E-1
4.414980582E0,-1.442100704E-1,-9.187898636E-1,1.765674502E-1
4.435253811E0,-1.378184855E-1,-8.479498625E-1,2.809632942E-2
4.455527092E0,-2.012016773E-1,-5.311670899E-1,-6.511423737E-2
4.475800322E0,-3.332943618E-1,-1.712411344E-1,-1.364869028E-1
4.496073551E0,-4.494080842E-1,7.163897902E-2,-2.339585274E-1
4.516346832E0,-5.430181623E-1,-5.779055133E-2,-2.536658943E-1
4.536620061E0,-6.271739602E-1,-3.767038584E-1,-2.813627720E-1
4.556893290E0,-5.866939425E-1,-4.374238849E-1,-4.703139067E-1
4.577166519E0,-2.789659202E-1,-3.868238628E-1,-6.460824013E-1
4.597439749E0,3.057306707E-1,-8.921582997E-2,-2.510027587E-1
4.617712978E0,1.885516644E-1,-8.122635633E-2,3.219759464E-1
4.637986207E0,-3.205111921E-1,-1.057274193E-1,-2.717753947E-1
4.658259436E0,-2.075932473E-1,1.653821766E-1,-9.038761854E-1
4.678532665E0,-6.878939867E-1,2.916159332E-1,-1.393764257E0
4.698805894E0,-9.147951603E-1,1.240499496E0,-1.659414411E0
4.719079124E0,-1.139965296E0,6.185187101E-1,-1.586976528E0
4.739352353E0,-1.007339954E0,2.902843431E-2,-1.231844187E0
4.759625582E0,-7.720498443E-1,-3.154512048E-1,-9.155941010E-1
4.779898759E0,-7.800393105E-1,-6.494113207E-1,-9.506146312E-1
4.800306728E0,-6.575340033E-1,-2.312953621E-1,-1.150351524E0
4.820609592E0,-5.062665343E-1,2.900180221E-1,-1.262204289E0
4.840865947E0,-4.398207366E-1,3.581948876E-1,-1.271258950E0
4.860983863E0,-3.524691164E-1,5.459476262E-2,-1.286705375E0
4.881258655E0,-2.315616906E-1,-2.930806577E-1,-1.296825290E0
4.901533134E0,-2.038648278E-1,-5.066660047E-1,-1.247823238E0
4.921806207E0,-2.954775095E-1,-5.258407593E-1,-1.239833713E0
4.942207301E0,-4.195807278E-1,-4.107922912E-1,-1.278715849E0
4.962353655E0,-4.403533638E-1,-2.680469751E-1,-1.311738968E0
4.982631155E0,-3.428817391E-1,-2.605901062E-1,-1.267530560E0
5.002904384E0,-1.862879843E-1,-3.873564899E-1,-1.165265322E0
5.023177509E0,-5.739107728E-2,-5.562008023E-1,-1.090164185E0
5.043450686E0,-4.247738793E-2,-7.094655633E-1,-1.028378844E0
5.063723915E0,-7.869634777E-2,-7.872298360E-1,-9.267793894E-1
5.083997040E0,-1.085237339E-1,-7.419561148E-1,-8.186551332E-1
5.104270217E0,-2.150501013E-1,-4.635228515E-1,-7.765771747E-1
5.124543447E0,-4.227765203E-1,5.992107838E-2,-7.669898272E-1
5.144816624E0,-5.712476373E-1,4.949481189E-1,-7.850993276E-1
5.165089801E0,-6.703171730E-1,8.821714520E-1,-7.888277173E-1
5.185362978E0,-7.459508777E-1,1.245825887E0,-7.472824454E-1
5.205636155E0,-7.502118945E-1,1.352884769E0,-6.519413590E-1
5.225909332E0,-6.149234176E-1,1.069524646E0,-5.496760607E-1
5.246182509E0,-3.237069845E-1,5.146554708E-1,-4.703139067E-1
5.266582509E0,2.090579830E-2,-4.820318148E-2,-4.053328037E-1
5.286728863E0,6.404897571E-2,-1.083905771E-1,-3.830954432E-1
5.307002040E0,-6.378266215E-2,5.992107838E-2,-3.681817353E-1
5.327275269E0,-2.182458937E-1,1.270326823E-1,-2.941459119E-1
5.347548447E0,-4.446144104E-1,2.362222075E-1,-2.195774615E-1
5.367821624E0,-6.426202655E-1,4.693817794E-1,-1.109205782E-1
5.388094801E0,-6.229129434E-1,6.339650154E-1,-1.131842658E-2
5.408367978E0,-3.492733240E-1,5.838976502E-1,-4.926844500E-3
5.428641155E0,9.001477808E-2,3.118559420E-1,-9.387636185E-2
5.448914280E0,5.672528744E-1,-2.046637833E-1,4.407528415E-2
5.469187405E0,9.181240797E-1,-4.145207107E-1,4.370244145E-1
5.489460634E0,1.364868999E0,-1.249021590E-1,7.660577297E-1
5.509733811E0,1.618934393E0,6.009418368E-1,1.117594719E0
5.530006936E0,1.479917526E0,1.595631719E0,1.282044768E0
5.550280113E0,1.281778455E0,1.876861334E0,1.211870551E0
5.570553290E0,1.313736439E0,1.172855258E0,1.160737872E0
5.590826415E0,1.232776403E0,4.225101769E-1,1.266065836E0
5.611099592E0,7.705850601E-1,1.712411344E-1,1.280446887E0
5.631372769E0,1.304948032E-1,3.703122735E-1,1.309208989E0
5.651645947E0,-3.657849133E-1,1.317198515E0,1.594166994E0
5.671919072E0,2.237053663E-1,3.570231199E0,2.178330898E0
5.692192249E0,1.667137593E-1,3.078611851E0,2.466884375E0
5.712465374E0,-2.102564126E-1,7.468829751E-1,2.400837898E0
5.732738551E0,7.044056058E-2,-5.631250143E-1,2.309757948E0
5.753011676E0,4.372907281E-1,-8.703203797E-1,2.145307779E0
5.773284853E0,5.289034247E-1,-3.308975101E-1,1.950364590E0
5.793557978E0,3.600591123E-1,2.655169666E-1,1.795901299E0
5.813831103E0,1.241032109E-1,7.110634446E-2,1.630385995E0
5.834104228E0,1.230379492E-1,-4.246407151E-1,1.312404752E0
5.854377405E0,2.663159072E-1,-7.259771824E-1,8.582029939E-1
5.874650530E0,3.126548827E-1,-9.464867711E-1,4.455465078E-1
5.894923603E0,2.514022291E-1,-1.109472036E0,1.318263728E-2
5.915196780E0,5.126581341E-2,-8.948214650E-1,-3.617901504E-1
5.935469957E0,-2.123869359E-1,-4.864259958E-1,-6.119939685E-1
5.955743082E0,-4.440817833E-1,3.488738462E-2,-7.744466662E-1
5.976135009E0,-7.203845382E-1,1.685779691E-1,-1.040096760E0
5.996289332E0,-1.004144192E0,-1.870869249E-1,-1.210006356E0
6.016562457E0,-7.257108688E-1,1.041827798E0,-8.191877604E-1
6.036835582E0,-6.676539779E-1,5.988113284E-1,-5.613939166E-1
6.057108707E0,-4.625907242E-1,-4.443480968E-1,-7.068024278E-1
6.077381832E0,-5.318328738E-1,-1.548760176E0,-7.430213690E-1
6.097654957E0,-1.032373667E0,-1.007206798E0,-1.235572696E0
6.117928082E0,-1.155944228E0,3.692470193E-1,-1.583248138E0
6.138201207E0,-8.034750819E-1,2.575274706E-1,-1.342099071E0
6.158474332E0,-2.603237927E-1,-7.898929715E-1,-9.937578440E-1
6.178874332E0,5.872265995E-2,-1.414004326E0,-8.676572442E-1
6.199020582E0,1.326253265E-1,-1.517867565E0,-9.399620295E-1
6.219293707E0,9.427583218E-2,-1.345827460E0,-9.847030640E-1
6.239566780E0,-6.378266215E-2,-1.076448917E0,-1.008671522E0
6.259839905E0,-3.082606792E-1,-7.016092539E-1,-1.130644202E0
6.280247874E0,-5.307676196E-1,-2.994722426E-1,-1.230246305E0
6.300530894E0,-6.543381810E-1,-1.041295230E-1,-1.237703204E0
6.320607353E0,-7.358308434E-1,-9.400951862E-2,-1.230246305E0
6.341011988E0,-8.024098277E-1,-1.611211300E-1,-1.241964221E0
6.361199176E0,-7.608645558E-1,-3.122554123E-1,-1.252084255E0
6.381473499E0,-5.936181545E-1,-3.591270149E-1,-1.214267373E0
6.401747613E0,-3.588607013E-1,-3.655185997E-1,-1.021454692E0
6.422020582E0,-1.596563905E-1,-4.203796685E-1,-7.611308694E-1
6.442429436E0,-8.349003643E-2,-4.193144143E-1,-5.944170952E-1
6.462733551E0,-1.894837767E-1,-2.408827394E-1,-5.864276290E-1
6.482844488E0,-3.732417524E-1,8.335687965E-2,-6.428865790E-1
6.503117509E0,-5.201149583E-1,3.182475269E-1,-6.988129616E-1
6.523390478E0,-6.628602743E-1,5.748428702E-1,-6.812360883E-1
6.543663499E0,-7.747129798E-1,8.555398583E-1,-5.747097135E-1
6.563936624E0,-6.900244951E-1,8.464851379E-1,-4.324970245E-1
6.584209644E0,-4.036017656E-1,6.073334217E-1,-3.069290817E-1
6.604482717E0,-1.287637353E-1,4.304996729E-1,-2.451438010E-1
6.624755738E0,-4.673844203E-2,4.219775498E-1,-2.435459048E-1
6.645028863E0,-1.031974182E-1,4.645881057E-1,-2.547311783E-1
6.665301884E0,-2.102564126E-1,5.828323960E-1,-1.679121852E-1
6.685574957E0,-3.018690944E-1,7.282408476E-1,-4.380896688E-2
6.705848030E0,-2.613890767E-1,6.952176690E-1,-8.655266836E-3
6.726121103E0,-8.934898674E-2,2.623211741E-1,-6.884266436E-2
6.746394124E0,2.623211779E-2,-2.137185186E-1,-1.508679688E-1
6.766667197E0,-4.886896908E-2,-4.432828426E-1,1.105211023E-2
6.786940269E0,-3.661843762E-2,-4.720449448E-1,5.717802644E-1
6.807213342E0,7.428882122E-1,-4.464786351E-1,8.869651556E-1
6.827486415E0,1.537441730E0,-1.790974438E-1,8.976177573E-1
6.847759488E0,1.910150886E0,3.597927988E-1,1.120790482E0
6.868032561E0,1.968207717E0,9.768467546E-1,1.230379462E0
6.888305634E0,1.774329782E0,1.587109685E0,1.089897871E0
6.908578707E0,1.379782677E0,1.803890824E0,1.082973599E0
6.928851780E0,1.115730524E0,1.622796059E0,1.466868043E0
6.949124853E0,9.602020383E-1,1.075916290E0,1.720933437E0
6.969397874E0,6.581997871E-1,7.884282470E-1,1.727857590E0
6.989670947E0,1.757684946E-1,1.222390056E0,1.764476061E0
7.009944019E0,6.831002980E-2,3.738409519E0,2.040911913E0
7.030217092E0,4.729770422E-1,4.100599289E0,2.316149473E0
7.050490165E0,1.784316599E-1,9.427583218E-1,2.198570967E0
7.070763238E0,3.536675274E-1,-1.062600493E0,2.054760456E0
7.091036259E0,5.459476113E-1,-9.379646182E-1,1.955690861E0
7.111309332E0,5.736444592E-1,-1.147821546E-1,1.940244555E0
7.131582405E0,4.383559823E-1,4.853607416E-1,2.012682438E0
7.151855478E0,2.535327375E-1,5.567334294E-1,1.943440318E0
7.172128499E0,1.880190372E-1,-5.406212807E-2,1.605352283E0
7.192401572E0,2.178464085E-1,-8.554067016E-1,1.123986244E0
7.212674644E0,2.055958807E-1,-1.330913782E0,6.197171211E-1
7.232947665E0,8.002793044E-2,-1.304282188E0,2.394180000E-1
7.253220738E0,-2.225069404E-1,-9.459540844E-1,7.230477035E-2
7.273493759E0,-6.527402997E-1,-4.294344187E-1,-1.450090110E-1
7.293766832E0,-9.115993381E-1,1.376853287E-1,-4.591286182E-1
7.314039853E0,-9.345025420E-1,7.590003312E-2,-7.376950979E-1
7.334312926E0,-9.259804487E-1,-6.350302696E-1,-9.155941010E-1
7.354585947E0,-8.503466845E-1,-7.408908606E-1,-7.174550891E-1
7.374858967E0,-6.399571300E-1,4.049333334E-1,-1.817606091E-1
7.395132040E0,-8.652604222E-1,4.021370411E-2,-3.484743834E-1
7.415405061E0,-7.763108611E-1,9.986846894E-2,-1.021454692E0
7.435678082E0,-7.640603185E-1,-7.478150725E-1,-1.116263151E0
7.455951155E0,-7.411571741E-1,-8.117309213E-1,-1.286705375E0
7.476342978E0,-7.230476737E-1,1.430116445E-1,-1.520930171E0
7.496497197E0,-6.777740121E-1,-1.126516312E-1,-1.521995425E0
7.516770217E0,-5.930855274E-1,-9.821730852E-1,-1.265400052E0
7.537043238E0,-4.344944060E-1,-1.273922205E0,-1.149818897E0
7.557316259E0,-2.640522122E-1,-1.072187901E0,-1.191896915E0
7.577589280E0,-8.934898674E-2,-8.058719635E-1,-1.154080033E0
7.597862353E0,-6.964161247E-2,-4.992091656E-1,-1.116263151E0
7.618135374E0,-2.715090811E-1,-2.158490419E-1,-1.211071610E0
7.638535374E0,-5.307676196E-1,-1.153147891E-1,-1.372459054E0
7.658681363E0,-6.772413850E-1,-2.190448344E-1,-1.492168069E0
7.678954436E0,-6.910898089E-1,-2.696448565E-1,-1.593900681E0
7.699227457E0,-5.632581711E-1,-2.286322117E-1,-1.636511326E0
7.719500478E0,-3.205111921E-1,-2.020006180E-1,-1.541170120E0
7.739773499E0,-1.101216301E-1,-2.824280262E-1,-1.349555850E0
7.760181467E0,-5.046686530E-2,-5.194491744E-1,-1.186037898E0
7.780483863E0,-1.846900880E-1,-5.295692086E-1,-1.061402082E0
7.800739957E0,-4.546012580E-1,-1.790974438E-1,-8.729835749E-1
7.820855582E0,-6.570013762E-1,3.948133290E-1,-7.542066574E-1
7.841265634E0,-7.070687413E-1,1.130244732E0,-6.348971128E-1
7.861553863E0,-5.526055098E-1,1.468332767E0,-4.362254739E-1
7.881672769E0,-3.354249001E-1,1.206943750E0,-2.952111959E-1
7.901948082E0,-1.527321786E-1,5.535376072E-1,-3.085269928E-1
7.922220947E0,-1.015995219E-1,-2.689790726E-2,-4.005391300E-1
7.942623030E0,-1.303616315E-1,-2.675143182E-1,-4.484759867E-1
7.962768967E0,-1.990711391E-1,-1.844237745E-1,-4.761728346E-1
7.983050061E0,-3.332943618E-1,3.914843872E-2,-4.234423041E-1
8.003323030E0,-4.297007322E-1,7.430213690E-2,-2.771016955E-1
8.023595947E0,-2.752375007E-1,-4.123901725E-1,-1.966743022E-1
8.043868863E0,-8.881635964E-2,-9.608678222E-1,-7.416898012E-2
8.064141884E0,1.294295341E-1,-7.249119282E-1,3.747064769E-1
8.084414853E0,8.195872307E-1,8.495477587E-2,9.194557071E-1
8.104687769E0,1.597629189E0,7.213166356E-1,1.126649499E0
8.124960790E0,1.897900343E0,1.367265940E0,1.336905837E0
8.145233811E0,1.449557543E0,2.209090471E0,1.692703962E0
8.165506728E0,1.076848388E0,2.470612764E0,1.829457164E0
8.185779749E0,1.247690082E0,1.780454993E0,2.019073963E0
8.206052717E0,1.366466880E0,9.310404062E-1,2.190581560E0
8.226325738E0,9.506146312E-1,4.411523044E-1,2.044107676E0
8.246598707E0,1.171789989E-1,5.593965650E-1,1.941309810E0
8.266871676E0,-7.443529963E-1,2.439187527E0,2.224137306E0
8.287144697E0,3.291664720E-1,3.222955227E0,2.499907494E0
8.307417665E0,4.186486006E-1,4.400870502E-1,2.396044254E0
8.327690686E0,3.557980657E-1,-1.115331054E0,2.068076134E0
8.347963655E0,3.765707016E-1,-5.737776160E-1,1.935450912E0
8.368236624E0,3.829622865E-1,2.846917212E-1,2.036650896E0
8.388509644E0,4.410191476E-1,4.635228515E-1,1.997768760E0
8.408782613E0,5.060002208E-1,-3.648528084E-2,1.580851197E0
8.429055634E0,5.384907722E-1,-8.554067016E-1,9.423588514E-1
8.449328603E0,5.187833905E-1,-1.355414867E0,3.901528120E-1
8.469601519E0,3.323622644E-1,-1.380981207E0,1.154479459E-1
8.489874540E0,-6.857634336E-2,-1.131842613E0,-5.446160212E-2
8.510147561E0,-3.679154217E-1,-5.386239290E-1,-3.852259517E-1
8.530420530E0,-4.940160215E-1,1.717737615E-1,-6.860297918E-1
8.550693551E0,-7.321024537E-1,3.358243704E-1,-8.639287949E-1
8.570966572E0,-1.112268448E0,-3.117227852E-1,-9.314398766E-1
8.591239540E0,-1.257676840E0,-5.008070469E-1,-8.090677261E-1
8.611512509E0,-8.263782859E-1,1.154213190E0,-2.744385600E-1
8.631785478E0,-1.062733650E0,-6.151897460E-2,-5.603286624E-1
8.652058499E0,-7.107971907E-1,-4.518049359E-1,-9.092025161E-1
8.672331467E0,-6.697844863E-1,-1.372991681E0,-8.138614297E-1
8.692604436E0,-8.013445735E-1,-5.860281587E-1,-1.258475780E0
8.712877405E0,-5.419528484E-1,-5.832318589E-2,-1.550757527E0
8.733150374E0,-3.551322520E-1,-8.111982346E-1,-1.404949546E0
8.753423394E0,-1.996037811E-1,-1.390568495E0,-1.164199948E0
8.773696363E0,-4.141212255E-2,-1.417732716E0,-1.163134694E0
8.793969332E0,6.524739787E-3,-1.193095326E0,-1.212136865E0
8.814242301E0,-3.555317223E-2,-9.624657035E-1,-1.157808423E0
8.834515269E0,-2.411490530E-1,-7.005439997E-1,-1.141296864E0
8.854788290E0,-5.669865608E-1,-3.564638495E-1,-1.227050543E0
8.875188290E0,-7.917572260E-1,-3.462106921E-3,-1.316532731E0
8.895334228E0,-7.720498443E-1,1.723063886E-1,-1.371393800E0
8.915607144E0,-6.511424184E-1,1.797632426E-1,-1.397492766E0
8.935880113E0,-5.526055098E-1,-2.583264373E-2,-1.344762206E0
8.956153134E0,-4.796349406E-1,-3.308975101E-1,-1.214800000E0
8.976553134E0,-3.636543751E-1,-4.837628603E-1,-1.106143117E0
8.996699019E0,-2.054627240E-1,-5.647228956E-1,-1.094425201E0
9.016971988E0,-1.751027107E-1,-4.470112622E-1,-1.125850558E0
9.037244957E0,-3.604585826E-1,-5.139897019E-2,-1.025715709E0
9.057517926E0,-6.032055616E-1,5.167860389E-1,-8.213182688E-1
9.077790894E0,-7.321024537E-1,1.079644680E0,-6.077328920E-1
9.098063863E0,-7.640603185E-1,1.409343839E0,-3.814975321E-1
9.118336832E0,-7.241129875E-1,1.327851176E0,-2.515353858E-1
9.138609749E0,-4.499407411E-1,6.946850419E-1,-2.446111590E-1
9.158882665E0,-8.242477477E-2,2.050632425E-2,-2.723080218E-1
9.179155634E0,-4.087949172E-2,4.500738904E-2,-3.303648829E-1
9.199428603E0,-1.367532164E-1,2.846917212E-1,-3.841606975E-1
9.219709540E0,-1.980058849E-1,3.273022473E-1,-4.085285962E-1
9.240067509E0,-3.482080400E-1,3.129211962E-1,-3.426154256E-1
9.260416572E0,-4.822981060E-1,1.728390306E-1,-2.020006180E-1
9.280671728E0,-3.258375227E-1,-4.235754609E-1,-1.615206003E-1
9.300787301E0,-9.467530251E-2,-1.137701511E0,-1.764342934E-1
9.321196519E0,-1.122521535E-1,-1.177116275E0,1.271658540E-1
9.341483967E0,4.037349224E-1,-4.166512489E-1,8.070703745E-1
9.361602249E0,1.603488088E0,3.161169887E-1,1.245293140E0
9.381877197E0,2.408028364E0,9.747162461E-1,1.461541772E0
9.402151780E0,2.316948414E0,1.698429704E0,1.774063468E0
9.422424592E0,1.782319188E0,2.322540998E0,1.796433926E0
9.442833915E0,1.420795441E0,2.220808268E0,1.673529148E0
9.463137613E0,1.372858524E0,1.365667939E0,1.826261401E0
9.483250478E0,1.027313590E0,5.615270734E-1,1.831587672E0
9.503523342E0,3.483411968E-1,3.294327855E-1,1.799097180E0
9.523796155E0,-4.318312407E-1,9.965541363E-1,1.922135115E0
9.544068967E0,-4.142543972E-1,3.575557470E0,2.173537254E0
9.564341884E0,3.275685608E-1,3.468498468E0,2.336922169E0
9.584614801E0,1.560611278E-1,-1.908153445E-1,2.092044592E0
9.604887665E0,3.387538493E-1,-1.919871449E0,1.893373013E0
9.625160582E0,4.809665382E-1,-1.174453139E0,1.870469809E0
9.645433499E0,4.042675495E-1,-1.876195520E-1,1.920537233E0
9.665706415E0,2.870885432E-1,2.527337968E-1,1.788444519E0
9.685979332E0,1.853558719E-1,4.127896577E-2,1.309208989E0
9.706252249E0,2.178464085E-1,-5.780386925E-1,6.340981722E-1
9.726525165E0,2.727074921E-1,-8.708530068E-1,1.691105962E-1
9.746798082E0,9.906952083E-2,-8.793751597E-1,7.017423958E-2
9.767198082E0,-1.980058849E-1,-7.211834788E-1,-5.339634046E-2
9.787343967E0,-2.864227593E-1,-2.994722426E-1,-3.287670016E-1
9.807616832E0,-2.683132887E-1,-8.655267209E-2,-6.508761048E-1
9.827889697E0,-4.515386224E-1,-1.972069293E-1,-8.799077868E-1
9.848162665E0,-7.731150985E-1,-1.881521940E-1,-8.532761931E-1
9.868435582E0,-1.062733650E0,5.316997170E-1,-4.154528081E-1
9.888708499E0,-1.309342146E0,1.077514172E0,-2.265016884E-1
9.908981415E0,-9.924262166E-1,7.037398219E-1,-8.069372177E-1
9.929254332E0,-4.323638678E-1,-9.757815003E-1,-9.246488214E-1
9.949527249E0,-3.215764761E-1,-1.500290632E0,-1.041694641E0
9.969800061E0,-5.824328661E-1,-1.573926955E-1,-1.380981207E0
9.990073030E0,-6.143907905E-1,-4.980107397E-2,-1.345827460E0
1.001034595E1,-2.976080179E-1,-4.731102288E-1,-1.271258950E0
1.003061881E1,2.125200927E-1,-8.096003532E-1,-1.292031646E0
1.005089178E1,4.554001987E-1,-1.000815153E0,-1.378317952E0
1.007116470E1,3.153180480E-1,-9.944236279E-1,-1.416667461E0
1.009143761E1,-6.591318548E-2,-8.410256505E-1,-1.331446409E0
1.011171053E1,-4.870918095E-1,-6.707166433E-1,-1.292031646E0
1.013198339E1,-8.119972348E-1,-5.024049878E-1,-1.342099071E0
1.015225631E1,-9.685909748E-1,-1.892174482E-1,-1.441168547E0
1.017252918E1,-9.451551437E-1,1.723063886E-1,-1.521462798E0
1.019280209E1,-7.555382252E-1,4.033354521E-1,-1.443299055E0
1.021307501E1,-4.865591824E-1,3.661843836E-1,-1.203614712E0
1.023334793E1,-2.395511568E-1,-3.222422674E-2,-1.007606268E0
1.025362084E1,-1.079910994E-1,-3.633880615E-1,-1.006541014E0
1.027389371E1,-1.229047924E-1,-3.777691126E-1,-1.101349473E0
1.029416662E1,-3.514038324E-1,4.340949282E-2,-9.964209795E-1
1.031443949E1,-6.064013243E-1,6.962829232E-1,-8.170571923E-1
1.033471241E1,-7.400919199E-1,1.376320601E0,-6.679202914E-1
1.035498527E1,-7.214497924E-1,1.660080194E0,-4.884233773E-1
1.037525819E1,-6.042708158E-1,1.282044768E0,-3.239732981E-1
1.039553105E1,-2.965427637E-1,3.390201628E-1,-2.589922249E-1
1.041580392E1,-4.727107286E-2,-2.957438231E-1,-2.557964325E-1
1.043607683E1,-8.029424399E-2,-3.186469972E-1,-2.541985512E-1
1.045634970E1,-1.996037811E-1,-1.131842583E-1,-2.430132627E-1
1.047674970E1,-3.753722608E-1,1.339569092E-1,-1.993374527E-1
1.049689548E1,-5.371592045E-1,2.724411786E-1,-5.126581341E-2
1.051716834E1,-3.913512230E-1,-1.137168929E-1,6.058686972E-2
1.053744121E1,-1.495363861E-1,-7.344992757E-1,1.250353158E-1
1.055771412E1,1.097221524E-1,-7.053377032E-1,4.663191736E-1
1.057798699E1,1.115730524E0,3.009369783E-2,1.068059921E0
1.059825985E1,2.151965618E0,9.821730852E-1,1.462607026E0
1.061853272E1,2.262619972E0,2.287919998E0,1.783650756E0
1.063880563E1,1.640239716E0,3.138799429E0,1.863545537E0
1.065907850E1,1.321725845E0,2.638258457E0,1.882187724E0
1.067947850E1,1.411208034E0,1.317731142E0,2.009486675E0
1.069962423E1,1.129046321E0,4.448807240E-1,1.876328707E0
1.071989709E1,3.925496638E-1,4.837628603E-1,1.733183980E0
1.074030501E1,-5.238434076E-1,1.629720211E0,1.930657148E0
1.076060714E1,-2.596580051E-2,3.791140079E0,2.314018965E0
1.078086308E1,2.471411675E-1,2.263951540E0,2.373141050E0
1.080098063E1,1.933453530E-1,-4.400870502E-1,2.101632118E0
1.082125339E1,3.904191256E-1,-1.431581140E0,1.863012910E0
1.084165511E1,5.411539078E-1,-9.374319911E-1,1.824130774E0
1.086180209E1,4.910865426E-1,-2.515353858E-1,1.840109825E0
1.088207589E1,4.303665161E-1,4.074633494E-2,1.559545994E0
1.090234954E1,4.197138846E-1,-2.616553903E-1,9.221188426E-1
1.092262235E1,3.829622865E-1,-6.552702785E-1,1.680453420E-1
1.094302303E1,1.161137372E-1,-4.091944098E-1,-2.403501123E-1
1.096316866E1,-1.596563905E-1,1.211737394E-1,-2.861564457E-1
1.098344428E1,-3.988080621E-1,5.093291998E-1,-3.474090993E-1
1.100371709E1,-5.973466039E-1,8.049398661E-1,-6.412886977E-1
1.102398990E1,-7.443529963E-1,5.141228437E-1,-9.937578440E-1
1.104426272E1,-7.912245989E-1,-1.158474237E-1,-1.192429543E0
1.106453553E1,-5.973466039E-1,3.139864504E-1,-8.868319988E-1
1.108480834E1,-5.147886276E-1,7.990809083E-1,-3.735080659E-1
1.110508116E1,-5.137233734E-1,5.406212807E-2,-6.487455368E-1
1.112535402E1,-4.551338851E-1,-1.515337527E-1,-7.339666486E-1
1.114562683E1,-4.025365114E-1,-1.051947832E0,-1.107208371E0
1.116589964E1,-2.800311744E-1,-3.159838319E-1,-1.573660731E0
1.118617246E1,-2.752375007E-1,-1.764342934E-1,-1.435842276E0
1.120644527E1,-4.153196514E-1,-6.712492704E-1,-1.069391489E0
1.122683688E1,-5.163865685E-1,-7.968171835E-1,-9.516798854E-1
1.124699089E1,-4.227765203E-1,-4.661859870E-1,-1.130111575E0
1.126726371E1,-1.735048145E-1,-1.520663798E-1,-1.277117968E0
1.128753652E1,-8.295740932E-2,7.323687524E-2,-1.335174799E0
1.130780933E1,-2.731069624E-1,1.701758653E-1,-1.353816986E0
1.132808214E1,-4.499407411E-1,2.423474751E-2,-1.288303256E0
1.134835496E1,-4.924181104E-1,-1.966743022E-1,-1.230778933E0
1.136862777E1,-5.270391703E-1,-3.133206666E-1,-1.284574747E0
1.138890053E1,-5.387570858E-1,-3.889544010E-1,-1.336772680E0
1.140917339E1,-5.020055175E-1,-3.793670237E-1,-1.262204289E0
1.142944616E1,-3.998733461E-1,-2.691122293E-1,-1.089631557E0
1.144971897E1,-2.906838059E-1,-1.145158429E-2,-9.076046348E-1
1.146999178E1,-3.290333152E-1,4.166512489E-1,-7.467498183E-1
1.149026459E1,-5.174518228E-1,9.374319911E-1,-6.338318586E-1
1.151053735E1,-7.107971907E-1,1.433844805E0,-6.141244769E-1
1.153081016E1,-7.257108688E-1,1.706951857E0,-5.842971206E-1
1.155108298E1,-5.941507816E-1,1.666471839E0,-5.251749754E-1
1.157135579E1,-4.408859909E-1,1.249554276E0,-4.143875539E-1
1.159162855E1,-3.055975139E-1,5.460807681E-1,-3.287670016E-1
1.161190131E1,-1.628521830E-1,-1.251684781E-2,-3.383543491E-1
1.163217412E1,-8.562056720E-2,-1.323590130E-1,-3.191796243E-1
1.165244694E1,-8.508793265E-2,8.921582997E-2,-1.940111369E-1
1.167271970E1,-1.410142779E-1,4.320975542E-1,-8.641951531E-2
1.169299251E1,-2.193111479E-1,8.683230281E-1,-9.387636185E-2
1.171326527E1,-1.958753467E-1,1.001880407E0,-5.073318258E-2
1.173353803E1,-6.857634336E-2,8.805735707E-1,2.809632942E-2
1.175381084E1,8.122635074E-3,9.406278133E-1,1.531316526E-2
1.177408355E1,3.954791278E-2,9.507477880E-1,-3.741738573E-2
1.179435636E1,1.033305749E-1,5.301018357E-1,2.862896025E-2
1.181462918E1,1.278316379E-1,-1.344895363E-1,1.250353158E-1
1.183490194E1,1.938779801E-1,-5.210470557E-1,7.443529367E-2
1.185517470E1,5.320991874E-1,-4.432828426E-1,1.818937659E-1
1.187544746E1,8.845682740E-1,3.310306668E-1,4.125233591E-1
1.189572022E1,1.213601589E0,1.380048990E0,7.261103392E-1
1.191599298E1,1.489504933E0,1.907221437E0,8.970851302E-1
1.193626579E1,1.561942816E0,1.428518534E0,8.816388249E-1
1.195653855E1,1.363271117E0,4.065312445E-1,9.407609701E-1
1.197693855E1,8.313050866E-1,-3.585943878E-1,1.073386312E0
1.199708407E1,2.332927436E-1,-3.687143922E-1,1.192163229E0
1.201735678E1,-1.383511126E-1,5.034702420E-1,1.324655294E0
1.203762954E1,1.225053221E-1,2.401903152E0,1.479651213E0
1.205790230E1,4.857602119E-1,3.575024843E0,1.538240671E0
1.207817506E1,3.430148959E-1,2.979142904E0,1.423724890E0
1.209844777E1,1.704421788E-1,8.853672147E-1,1.184706330E0
1.211872048E1,2.002695650E-1,-7.685877085E-1,9.940241575E-1
1.213912048E1,1.992042959E-1,-1.121189952E0,8.352998495E-1
1.215926600E1,1.619200706E-1,-4.709796906E-1,7.490134835E-1
1.217953876E1,5.126581341E-2,7.218492627E-1,6.788392663E-1
1.219981152E1,-1.394163817E-1,1.507214904E0,5.126581192E-1
1.222021949E1,-3.375554085E-1,1.470995903E0,2.985401452E-1
1.224049787E1,-3.338269889E-1,1.078046799E0,1.314269006E-1
1.226054610E1,-8.562056720E-2,7.330345511E-1,-9.920267761E-2
1.228089819E1,1.794969290E-1,5.769734383E-1,-3.708449006E-1
1.230117188E1,2.396843135E-1,4.246407151E-1,-5.411539078E-1
1.232144449E1,1.432779580E-1,2.814959288E-1,-7.712509036E-1
1.234185313E1,-3.994738800E-4,3.214432895E-1,-1.086968422E0
1.236213980E1,-7.550056279E-2,4.001396596E-1,-1.240898967E0
1.238225751E1,-1.527321786E-1,3.555317521E-1,-1.256345272E0
1.240253204E1,-4.382228255E-1,4.075964987E-1,-1.321859002E0
1.242280459E1,-9.669930935E-1,9.171919823E-1,-1.383111715E0
1.244320548E1,-1.059005260E0,1.815076113E0,-1.240366340E0
1.246351725E1,-3.210438192E-1,2.186719894E0,-8.287751079E-1
1.248363037E1,3.142527640E-1,2.243711472E0,-6.029392481E-1
1.250390293E1,1.832253486E-1,1.506149650E0,-4.639223218E-1
1.252417553E1,7.150582224E-2,2.663159103E-4,3.661843836E-1
1.254444819E1,3.451454341E-1,3.985417485E-1,1.397625923E0
1.256472079E1,7.769766450E-1,1.112667918E0,1.459411144E0
1.258499350E1,1.008138895E0,5.615270734E-1,1.090430498E0
1.260526621E1,8.851009011E-1,1.331579522E-3,6.101297736E-1
1.262553886E1,5.885581374E-1,-3.362238407E-1,4.151864946E-1
1.264581152E1,1.427453309E-1,-3.868238628E-1,6.271739602E-1
1.266608423E1,-6.745781898E-1,-4.059986174E-1,9.849693775E-1
1.268635694E1,-1.424390674E0,-3.388870060E-1,9.578051567E-1
1.270662959E1,-1.478186488E0,2.218411565E-1,4.716454744E-1
1.272690230E1,-1.047287345E0,8.044071794E-1,2.530001104E-3
1.274717496E1,-4.711128473E-1,1.055676222E0,-2.573943138E-1
1.276744766E1,-1.958753467E-1,9.651288390E-1,-4.314317703E-1
1.278772037E1,-2.059953511E-1,7.511440516E-1,-5.890907645E-1
1.280799303E1,-2.565953732E-1,5.737776160E-1,-5.938844681E-1
1.282826569E1,-3.210438192E-1,5.514070988E-1,-5.171855092E-1
1.284853839E1,-4.014712274E-1,7.676556110E-1,-4.506065249E-1
1.286881105E1,-4.838960171E-1,1.286305904E0,-4.053328037E-1
1.288908376E1,-5.446160436E-1,1.915743470E0,-3.841606975E-1
1.290935647E1,-5.131907463E-1,2.442383289E0,-3.793670237E-1
1.292962912E1,-3.535343707E-1,2.713359594E0,-3.660512269E-1
1.295002912E1,-1.601890177E-1,2.645182848E0,-3.463438451E-1
1.297033282E1,-6.857634336E-2,2.385391712E0,-3.335606754E-1
1.299044714E1,-8.988162130E-2,2.004027128E0,-2.994722426E-1
1.301071980E1,-1.575258672E-1,1.471528530E0,-2.323606312E-1
1.303099251E1,-1.846900880E-1,1.103613138E0,-1.647163928E-1
1.305126516E1,-1.053279415E-1,1.056741476E0,-1.247690022E-1
1.307153782E1,1.025316212E-2,8.901609182E-1,-4.860265180E-2
1.309181053E1,7.416898012E-2,6.605966091E-1,5.579318479E-2
1.311208319E1,1.613874435E-1,5.311670899E-1,7.017423958E-2
1.313248319E1,2.679138184E-1,4.688491523E-1,-1.025316212E-2
1.315262855E1,3.291664720E-1,3.665838540E-1,-8.056056499E-2
1.317290126E1,4.063980877E-1,3.304980397E-1,-6.617950648E-2
1.319317392E1,5.693834424E-1,5.487439036E-1,5.898897350E-2
1.321344657E1,6.928208470E-1,1.064731002E0,3.214432895E-1
1.323371923E1,7.194524407E-1,1.644633889E0,7.458177209E-1
1.325399188E1,8.451535702E-1,2.785264969E0,1.185771585E0
1.327426454E1,1.447959661E0,5.161868095E0,1.782585502E0
1.329453720E1,2.820152283E0,6.598509312E0,2.391250610E0
1.331480985E1,2.428801060E0,4.404066086E0,2.185787916E0
1.333508246E1,1.164599419E0,1.972202420E0,1.700160742E0
1.335535506E1,1.532648087E0,1.813478231E0,1.875796080E0
1.337575506E1,1.769003391E0,2.170741081E0,2.089914083E0
1.339590037E1,1.367532253E0,1.926396132E0,1.850229740E0
1.341617303E1,1.072587371E0,1.673395991E0,1.424257517E0
1.343644569E1,1.296692133E0,1.753290772E0,1.291099548E0
1.345671829E1,1.419197440E0,2.224004269E0,1.498293281E0
1.347711829E1,1.130644202E0,2.194709301E0,1.702291250E0
1.349726360E1,9.639304280E-1,1.819337130E0,1.908286691E0
1.351753621E1,1.035835743E0,1.401354313E0,2.057423592E0
1.353780886E1,1.148221016E0,7.101313472E-1,2.109621525E0
1.355808152E1,1.293496370E0,2.681801319E-1,1.848099232E0
1.357835412E1,1.388304830E0,-6.684529036E-2,1.222390056E0
1.359862673E1,1.326519608E0,-2.701774836E-1,5.707150102E-1
1.361889938E1,1.032639980E0,-2.057290375E-1,1.797632426E-1
1.363917199E1,6.336987019E-1,3.648528084E-2,3.608580679E-2
1.365944464E1,3.323622644E-1,4.273038805E-1,-1.167795286E-1
1.367972522E1,2.135853618E-1,6.914892793E-1,-2.797648609E-1
1.370008287E1,1.017326787E-1,6.978808641E-1,-3.458112180E-1
1.372043162E1,-4.194475710E-2,5.844302773E-1,-3.878891170E-1
1.374068636E1,-1.074584723E-1,5.103944540E-1,-4.671181142E-1
1.376080293E1,-1.266332120E-1,4.933502376E-1,-5.784381628E-1
1.378107652E1,-1.404816359E-1,3.974764943E-1,-6.913561225E-1
1.380134902E1,-7.976161689E-2,2.484727502E-1,-6.370276809E-1
1.382175777E1,8.162582666E-2,5.114597082E-1,-1.860216707E-1
1.384204433E1,-6.484792382E-2,2.516685426E-1,1.426121742E-1
1.386216194E1,-1.197090000E-1,2.261022031E-1,-4.937497079E-1
1.388243636E1,-2.864227593E-1,5.210470557E-1,-1.089631557E0
1.390271037E1,-6.010749936E-1,3.836280704E-1,-1.635445952E0
1.392298287E1,-6.564686894E-1,1.374190092E0,-1.927328229E0
1.394338407E1,-6.692518592E-1,1.074851036E0,-1.637576580E0
1.396352923E1,-4.297007322E-1,-2.057290375E-1,-1.301619053E0
1.398380668E1,-1.170458421E-1,-4.992091656E-1,-1.135970473E0
1.400407923E1,2.197106183E-2,-2.494048476E-1,-1.093892574E0
1.402435183E1,1.102547869E-1,-2.270343155E-1,-1.047021031E0
1.404462438E1,1.081242561E-1,-2.211753577E-1,-1.040629387E0
1.406489694E1,-1.580584943E-1,-1.403484792E-1,-1.055010438E0
1.408516949E1,-5.616602302E-1,3.275685757E-2,-1.088033676E0
1.410544209E1,-7.400919199E-1,5.406212807E-2,-1.124785304E0
1.412571464E1,-7.054708600E-1,-2.796317078E-2,-1.125317931E0
1.414598725E1,-6.223802567E-1,1.014663652E-1,-1.150884151E0
1.416625985E1,-4.366249442E-1,1.808284968E-1,-1.126915812E0
1.418653241E1,-1.884185076E-1,-4.021370411E-2,-1.063532591E0
1.420680501E1,-3.448791057E-2,-4.049333334E-1,-1.010802031E0
1.422707761E1,8.655266836E-3,-6.819018722E-1,-8.884298801E-1
1.424735022E1,-4.620581120E-2,-6.238450408E-1,-8.042740226E-1
1.426775022E1,-1.687111259E-1,-3.218427896E-1,-8.229161501E-1
1.428789537E1,-3.045322299E-1,-6.125265732E-3,-8.591351509E-1
1.430816793E1,-5.041360259E-1,5.780386925E-1,-8.277098536E-1
1.432844048E1,-5.707150102E-1,1.179246902E0,-7.691203356E-1
1.434871308E1,-4.679170549E-1,1.711212873E0,-6.226465702E-1
1.436898563E1,-3.189133108E-1,2.073269367E0,-4.277033508E-1
1.438925824E1,-2.059953511E-1,1.963680387E0,-3.415501416E-1
1.440953084E1,-4.460791498E-2,1.234107971E0,-4.554001987E-1
1.442984277E1,1.238369010E-2,5.961481929E-1,-6.530066133E-1
1.445023418E1,-1.271658540E-1,3.342264593E-1,-8.234487772E-1
1.447051230E1,-2.656501234E-1,1.291632205E-1,-8.873646259E-1
1.449062230E1,-3.348922431E-1,-2.057290375E-1,-8.500803709E-1
1.451089470E1,-4.769718051E-1,-4.576638937E-1,-7.110635042E-1
1.453116704E1,-6.585992575E-1,-4.118575454E-1,-4.372907281E-1
1.455143949E1,-5.105276108E-1,2.660495937E-1,-1.545963883E-1
1.457171194E1,3.078611791E-1,9.582046270E-1,2.074600905E-1
1.459198053E1,6.869618893E-1,1.164865732E0,5.653886795E-1
1.461221839E1,8.206524849E-1,1.153680563E0,3.539338410E-1
1.463253006E1,1.086435795E0,5.593965650E-1,3.166496158E-1
1.465280246E1,1.358477473E0,1.536642760E-1,6.877608299E-1
1.467307491E1,1.433578491E0,4.768386483E-1,1.198022127E0
1.469334735E1,1.381380677E0,8.816388249E-1,1.473259568E0
1.471361991E1,1.043825269E0,9.171919823E-1,1.573927045E0
1.473389235E1,6.960166097E-1,6.962829232E-1,1.750760794E0
1.475416491E1,4.367581010E-1,9.129309654E-1,1.937048793E0
1.477443740E1,6.298371404E-2,1.886448741E0,1.954625607E0
1.479470996E1,8.215846121E-2,4.365716934E0,2.136785746E0
1.481498251E1,4.580633640E-1,3.548393250E0,2.289118290E0
1.483525506E1,2.269011587E-1,3.001380265E-1,1.959419250E0
1.485552761E1,3.137201369E-1,-8.649940491E-1,1.565404892E0
1.487580017E1,4.889560044E-1,-4.980107397E-2,1.410409093E0
1.489607277E1,4.585959911E-1,7.692534924E-1,1.453552246E0
1.491634527E1,2.306295782E-1,1.164333105E0,1.633581758E0
1.493661782E1,1.113200486E-1,9.347688556E-1,1.815076113E0
1.495689043E1,2.402169555E-1,3.166496158E-1,1.859817147E0
1.497729043E1,4.527370334E-1,-2.280995846E-1,1.694834471E0
1.499743558E1,5.475454926E-1,-5.546028614E-1,1.324122667E0
1.501770813E1,5.305013061E-1,-6.328997612E-1,8.890956640E-1
1.503798069E1,4.356928170E-1,-5.892239809E-1,5.020055175E-1
1.505825324E1,3.802991211E-1,-6.707166433E-1,1.637842804E-1
1.507852584E1,2.593916953E-1,-8.436887860E-1,-9.973530471E-2
1.509879839E1,2.410159074E-2,-7.813708782E-1,-3.830954432E-1
1.511907095E1,-1.761679798E-1,-4.773712754E-1,-7.440866828E-1
1.513934355E1,-3.221091032E-1,8.442214131E-2,-1.112002134E0
1.515961610E1,-4.009386003E-1,1.057806849E0,-9.932252169E-1
1.518001537E1,-8.130624890E-1,6.914892793E-1,-6.002760530E-1
1.520032553E1,-1.247024298E0,-5.604618192E-1,-9.017456770E-1
1.522059688E1,-1.237969518E0,1.924265623E0,-1.099218965E0
1.524085282E1,-7.709845304E-1,-8.175898194E-1,-7.552719116E-1
1.526096803E1,-5.600623488E-1,-8.996151686E-1,-1.112002134E0
1.528137037E1,-3.775027990E-1,-4.842954874E-1,-1.284042120E0
1.530151725E1,-2.986733019E-1,-6.222470999E-1,-1.253149509E0
1.532178970E1,-1.889511347E-1,-8.942888379E-1,-1.107208371E0
1.534219116E1,-7.763108611E-2,-9.587372541E-1,-1.018258929E0
1.536233735E1,-4.247738793E-2,-7.211834788E-1,-1.103479981E0
1.538261074E1,-7.603318989E-2,-4.842954874E-1,-1.151416779E0
1.540288402E1,-2.113216817E-1,-3.356912136E-1,-1.209473729E0
1.542315652E1,-3.711112142E-1,-2.126532495E-1,-1.311206341E0
1.544356506E1,-4.865591824E-1,-1.004010960E-1,-1.432646394E0
1.546386808E1,-4.956139028E-1,-3.542001545E-2,-1.511342764E0
1.548397746E1,-4.334291518E-1,-6.151897460E-2,-1.538506985E0
1.550424991E1,-3.636543751E-1,-1.163800508E-1,-1.521995425E0
1.552452240E1,-2.629869580E-1,-1.966743022E-1,-1.461408615E0
1.554479485E1,-1.506016403E-1,-3.713775277E-1,-1.334109545E0
1.556506746E1,-1.133174226E-1,-6.286386847E-1,-1.172722101E0
1.558533996E1,-2.603237927E-1,-5.934849977E-1,-9.985514879E-1
1.560561251E1,-4.652538896E-1,-1.860216707E-1,-7.680550814E-1
1.562588501E1,-5.685844421E-1,2.506032586E-1,-5.145223141E-1
1.564615756E1,-5.834981799E-1,7.032071352E-1,-3.388870060E-1
1.566643006E1,-5.360939503E-1,1.037566781E0,-1.673795432E-1
1.568670261E1,-3.700459599E-1,8.805735707E-1,-6.671213359E-2
1.570697511E1,-1.079910994E-1,2.756369710E-1,-1.316932142E-1
1.572737511E1,-3.502054140E-2,-1.062600464E-1,-2.856238186E-1
1.574752022E1,-1.617869139E-1,-1.099884734E-1,-3.783017397E-1
1.576779277E1,-2.885532975E-1,6.258423626E-2,-4.522044063E-1
1.578806532E1,-3.391533196E-1,2.532664239E-1,-5.161202550E-1
1.580833787E1,-3.519364893E-1,3.661843836E-1,-5.544697046E-1
1.582861043E1,-3.647196293E-1,2.772348523E-1,-5.177181363E-1
1.584888293E1,-3.604585826E-1,-4.287686199E-2,-4.085285962E-1
1.586915543E1,-3.002711833E-1,-6.323671341E-1,-2.824280262E-1
1.588942798E1,-2.768353820E-1,-1.055143595E0,-1.450090110E-1
1.590970048E1,-2.789659202E-1,-8.261119723E-1,1.143826842E-1
1.593010048E1,1.661811322E-1,-1.435442716E-1,5.542033911E-1
1.595040355E1,9.564735889E-1,4.150533378E-1,9.285104275E-1
1.597067980E1,1.607749104E0,1.127048969E0,9.918935895E-1
1.599078756E1,1.862746596E0,1.890709758E0,1.317198515E0
1.601106074E1,1.699361801E0,2.124934673E0,1.470596433E0
1.603133376E1,1.379782677E0,1.566336989E0,1.361939549E0
1.605160668E1,1.242896318E0,8.432893157E-1,1.516402841E0
1.607187959E1,9.761809707E-1,4.848281145E-1,1.637842894E0
1.609215230E1,5.150549412E-1,4.491417706E-1,1.569133401E0
1.611242506E1,-1.713742912E-1,1.045556307E0,1.686844945E0
1.613269777E1,-6.143907905E-1,2.317747355E0,1.996703506E0
1.615297037E1,2.647180259E-1,2.776742935E0,2.315084219E0
1.617324303E1,4.223770201E-1,3.635212183E-1,2.160754204E0
1.619351558E1,3.557980657E-1,-1.575924397E0,1.905623555E0
1.621378824E1,2.886864543E-1,-1.383644342E0,1.796433926E0
1.623406079E1,2.396843135E-1,-1.035968885E-1,1.912015080E0
1.625433339E1,1.837579757E-1,6.046702862E-1,2.183124781E0
1.627460589E1,1.225053221E-1,1.920137703E-1,2.273672104E0
1.629487845E1,1.778990328E-1,-7.925561666E-1,1.849697113E0
1.631515095E1,2.812296152E-1,-1.433179021E0,1.049950480E0
1.633542350E1,2.183790505E-1,-1.519465446E0,2.708432674E-1
1.635569600E1,-8.242477477E-2,-1.117461562E0,-1.231711060E-1
1.637596850E1,-3.636543751E-1,-5.434176326E-1,-3.500722647E-1
1.639624105E1,-5.797697306E-1,-9.507478029E-2,-6.748445034E-1
1.641651360E1,-7.432876825E-1,3.320959508E-1,-1.097088337E0
1.643678610E1,-1.010535717E0,3.001380265E-1,-1.280846357E0
1.645712240E1,-1.085636854E0,3.910849094E-1,-8.506129980E-1
1.647752241E1,-1.032373667E0,2.319611609E-1,-4.868254960E-1
1.649760366E1,-8.508793116E-1,8.363651037E-1,-8.314382434E-1
1.651787616E1,-5.078644156E-1,-8.532761931E-1,-5.379581451E-1
1.653827616E1,-6.942855716E-1,-1.447027445E0,-9.708546400E-1
1.655842116E1,-6.894918680E-1,-3.213101327E-1,-1.434244394E0
1.657869366E1,-3.950796425E-1,1.499358565E-1,-1.368730664E0
1.659896616E1,-1.186437383E-1,-6.020070910E-1,-1.106143117E0
1.661923866E1,1.033305749E-1,-1.284574747E0,-1.036368370E0
1.663951116E1,1.816274524E-1,-1.469930649E0,-1.269128442E0
1.665978366E1,5.446160212E-2,-1.413471699E0,-1.427320123E0
1.668005616E1,-2.853575051E-1,-1.317065358E0,-1.352218986E0
1.670032866E1,-6.740455627E-1,-1.097754240E0,-1.223322153E0
1.672060116E1,-8.902940750E-1,-6.099966168E-1,-1.222256899E0
1.674087366E1,-8.945551515E-1,6.205160543E-2,-1.260073781E0
1.676114610E1,-7.672561407E-1,6.068007946E-1,-1.167395830E0
1.678141866E1,-6.016076207E-1,8.443545699E-1,-9.825725555E-1
1.680169110E1,-4.062649310E-1,6.387587190E-1,-9.703220129E-1
1.682196360E1,-2.081258893E-1,2.138516754E-1,-1.178048372E0
1.684223610E1,-1.671132296E-1,5.725792050E-2,-1.325054765E0
1.686250860E1,-3.631217480E-1,4.257059693E-1,-1.199886322E0
1.688278110E1,-5.616602302E-1,8.949546218E-1,-9.054740667E-1
1.690305355E1,-6.229129434E-1,1.202149987E0,-7.041392922E-1
1.692332605E1,-5.616602302E-1,1.381646991E0,-6.657897830E-1
1.694359855E1,-4.615254700E-1,1.260739565E0,-5.166528821E-1
1.696387105E1,-2.725743353E-1,6.137250066E-1,-3.090596199E-1
1.698414350E1,-1.095889956E-1,-6.684529036E-2,-3.649859428E-1
1.700441600E1,-1.894837767E-1,-3.697796464E-1,-5.113265514E-1
1.702468845E1,-3.785680532E-1,-5.119923353E-1,-4.585959911E-1
1.704496095E1,-5.115928650E-1,-6.275734305E-1,-2.563290596E-1
1.706523339E1,-4.339617789E-1,-7.776424289E-1,-9.494162351E-2
1.708550589E1,-2.358227372E-1,-9.582046270E-1,-3.422159329E-2
1.710577839E1,-2.459427416E-1,-1.026381493E0,3.193127811E-1
1.712605084E1,3.041327596E-1,-6.364950538E-2,8.853672147E-1
1.714632334E1,1.527854323E0,9.715204239E-1,1.092028379E0
1.716659579E1,2.161553144E0,1.891242385E0,1.275120616E0
1.718686824E1,1.915477157E0,2.525340557E0,1.543034434E0
1.720714074E1,1.324921608E0,2.464221001E0,1.533447027E0
1.722741319E1,1.240233183E0,1.402952194E0,1.564339638E0
1.724768563E1,1.320660591E0,1.573926955E-1,1.686844945E0
1.726795808E1,1.080576777E0,-5.087965727E-1,1.716139674E0
1.728823058E1,4.804339111E-1,-6.045371294E-2,1.849164486E0
1.730850303E1,-2.917490900E-1,1.916276097E0,2.225735188E0
1.732877548E1,1.826927215E-1,3.818304300E0,2.535061121E0
1.734904793E1,4.516717792E-1,1.492833853E0,2.455166340E0
1.736932037E1,4.122570157E-1,-1.256345272E0,2.129328966E0
1.738955355E1,3.850927949E-1,-1.445962191E0,1.941842437E0
1.740995355E1,3.584612012E-1,-3.894870281E-1,2.007356167E0
1.743029636E1,2.503369451E-1,3.363569975E-1,2.082457304E0
1.745056845E1,1.374190152E-1,2.383527458E-1,1.874198198E0
1.747083662E1,1.390169114E-1,-6.147902608E-1,1.293762684E0
1.749094944E1,1.981390417E-1,-1.298955798E0,6.149234176E-1
1.751122298E1,6.937529147E-2,-1.261671662E0,1.563274413E-1
1.753149631E1,-2.022669315E-1,-9.422256947E-1,-1.253016293E-1
1.755176954E1,-4.099933505E-1,-5.817670822E-1,-4.324970245E-1
1.757204256E1,-5.259739161E-1,-9.294424951E-2,-8.538088202E-1
1.759231553E1,-7.246456146E-1,3.555317521E-1,-1.232909560E0
1.761258829E1,-1.113333702E0,3.852259517E-1,-1.210006356E0
1.763286110E1,-1.215066314E0,7.735145688E-1,-6.306360960E-1
1.765313371E1,-1.078179955E0,1.009869933E0,-2.898848653E-1
1.767340631E1,-6.809697747E-1,2.500706315E-1,-8.452867270E-1
1.769367897E1,-1.442100704E-1,-1.194693208E0,-8.841688037E-1
1.771395147E1,-3.929491341E-1,-1.220792174E0,-1.207875848E0
1.773422402E1,-5.840308070E-1,-1.716406047E-1,-1.453951716E0
1.775449652E1,-3.918838501E-1,-1.483379602E-1,-1.355947495E0
1.777476902E1,-8.988162130E-2,-6.984134912E-1,-1.146623135E0
1.779504152E1,9.587372839E-2,-9.155941010E-1,-1.145557880E0
1.781531397E1,1.880190372E-1,-8.325035572E-1,-1.231844187E0
1.783558647E1,6.511423737E-2,-5.705818534E-1,-1.292031646E0
1.785585886E1,-2.416816950E-1,-3.788343966E-1,-1.347957969E0
1.787625886E1,-5.440834165E-1,-3.399522603E-1,-1.438505411E0
1.789640381E1,-7.049382329E-1,-3.559312224E-1,-1.539039612E0
1.791667621E1,-7.699192762E-1,-2.680469751E-1,-1.618401766E0
1.793694860E1,-7.645930052E-1,-1.206411049E-1,-1.601357579E0
1.795728485E1,-6.767086983E-1,-1.126516312E-1,-1.416667461E0
1.797768485E1,-5.313002467E-1,-3.111901283E-1,-1.131176829E0
1.799776589E1,-3.860249221E-1,-5.801692009E-1,-9.044088125E-1
1.801803834E1,-2.715090811E-1,-6.637924314E-1,-7.898929715E-1
1.803831074E1,-2.432795912E-1,-4.182491302E-1,-6.375603080E-1
1.805858313E1,-3.423491120E-1,7.590003312E-2,-3.862912357E-1
1.807885558E1,-4.089280665E-1,5.205144286E-1,-1.679121852E-1
1.809912798E1,-3.471427858E-1,7.005439997E-1,-9.227846563E-2
1.811940032E1,-2.432795912E-1,5.332975984E-1,-1.167795286E-1
1.813967277E1,-1.996037811E-1,2.202432603E-1,-2.584595978E-1
1.815994516E1,-1.937448233E-1,-8.548741043E-2,-4.085285962E-1
1.818021761E1,-2.352901101E-1,-1.886848211E-1,-5.028044581E-1
1.820049001E1,-3.189133108E-1,-1.890842989E-2,-5.326318145E-1
1.822076241E1,-3.567301631E-1,2.245043069E-1,-5.118591785E-1
1.824103480E1,-3.354249001E-1,3.406180441E-1,-4.601939023E-1
1.826130720E1,-3.162501454E-1,3.235738277E-1,-4.372907281E-1
1.828157954E1,-2.912164330E-1,1.483379602E-1,-4.793686271E-1
1.830185199E1,-2.145174593E-1,-3.894870281E-1,-4.852275848E-1
1.832212438E1,-2.757701278E-1,-9.656614661E-1,-3.069290817E-1
1.834239678E1,-4.743086398E-1,-9.033435583E-1,2.553969622E-1
1.836266918E1,2.700443268E-1,-7.536740601E-2,8.145272136E-1
1.838294157E1,1.481515408E0,7.649924755E-1,1.086169481E0
1.840321397E1,2.269544125E0,1.345427990E0,1.447160602E0
1.842348636E1,2.385125399E0,1.926396132E0,1.721998692E0
1.844375876E1,1.680187106E0,2.320943117E0,1.540903807E0
1.846415876E1,1.058206320E0,1.949299335E0,1.505750179E0
1.848430350E1,8.904272318E-1,1.249554276E0,1.873132944E0
1.850457589E1,6.789724231E-1,9.008135796E-1,1.962615132E0
1.852484829E1,2.183790505E-1,1.255945802E0,1.969539285E0
1.854512069E1,-4.190480709E-1,2.023201942E0,2.208691120E0
1.856539303E1,1.629853398E-1,2.149968386E0,2.441318035E0
1.858566543E1,5.113265514E-1,6.930871606E-1,2.317747355E0
1.860593782E1,5.091960430E-1,-9.896299243E-1,2.042509794E0
1.862621016E1,3.664506972E-1,-1.352751613E0,1.826261401E0
1.864648256E1,2.247706354E-1,-4.310323000E-1,1.847566605E0
1.866675496E1,1.858884990E-1,2.495380044E-1,2.010551929E0
1.868702730E1,2.615222335E-1,1.643169224E-1,1.883785605E0
1.870729970E1,3.302317262E-1,-5.274386406E-1,1.279381633E0
1.872757204E1,3.265033066E-1,-1.077514172E0,5.254412889E-1
1.874784444E1,1.129179448E-1,-9.805752039E-1,6.165213138E-2
1.876824444E1,-1.617869139E-1,-6.834998131E-1,-1.071921512E-1
1.878838918E1,-3.972101808E-1,-4.933502376E-1,-3.117227852E-1
1.880866152E1,-5.451486707E-1,-3.761712313E-1,-7.142592669E-1
1.882893392E1,-6.793718934E-1,-2.861564457E-1,-1.153547406E0
1.884920626E1,-8.428898454E-1,-2.808301151E-1,-1.358078003E0
1.886947866E1,-1.059537888E0,2.873548567E-1,-9.889641404E-1
1.888975100E1,-1.410009623E0,1.428518534E0,-3.543333113E-1
1.891015100E1,-1.434510708E0,1.103613138E0,-6.780403256E-1
1.893045371E1,-6.506097913E-1,-7.957519293E-1,-6.317013502E-1
1.895052944E1,-4.387554526E-1,-1.867673516E0,-1.005475760E0
1.897078063E1,-5.094623566E-1,-8.628635406E-1,-1.519332290E0
1.899110699E1,-4.972118139E-1,-2.307627350E-1,-1.387905359E0
1.901138053E1,-3.514038324E-1,-6.222470999E-1,-1.037966251E0
1.903165376E1,4.860265180E-2,-8.271772265E-1,-9.671262503E-1
1.905192683E1,3.968107104E-1,-8.761793375E-1,-1.107208371E0
1.907219980E1,4.713791609E-1,-1.009337306E0,-1.292031646E0
1.909247267E1,1.736379713E-1,-1.181910038E0,-1.386840105E0
1.911274543E1,-3.540669978E-1,-1.412406445E0,-1.310673714E0
1.913301808E1,-8.061382771E-1,-1.504019141E0,-1.268595815E0
1.915329063E1,-1.052613616E0,-1.129712105E0,-1.336772680E0
1.917356319E1,-1.088299990E0,-2.249037921E-1,-1.356480122E0
1.919383563E1,-8.615319729E-1,7.207840085E-1,-1.123719931E0
1.921410808E1,-5.286371112E-1,1.055143595E0,-7.653919458E-1
1.923438053E1,-3.077280223E-1,6.984134912E-1,-6.317013502E-1
1.925465298E1,-1.511342824E-1,3.994738683E-3,-7.989477515E-1
1.927492537E1,-1.138500497E-1,-2.712427676E-1,-9.404946566E-1
1.929519772E1,-2.347574681E-1,-2.370211668E-2,-8.692551255E-1
1.931547016E1,-3.609912097E-1,4.502070546E-1,-7.052045465E-1
1.933574251E1,-4.684496820E-1,9.944236279E-1,-5.411539078E-1
1.935601485E1,-5.062665343E-1,1.233575344E0,-4.101265073E-1
1.937628725E1,-4.259723127E-1,8.981503844E-1,-2.968090773E-1
1.939655959E1,-3.050648868E-1,4.507396817E-1,-2.557964325E-1
1.941683188E1,-2.022669315E-1,2.580601275E-1,-3.122554123E-1
1.943710428E1,-1.191763729E-1,2.170474678E-1,-3.994738758E-1
1.945744048E1,-1.532648057E-1,3.065296113E-1,-4.591286182E-1
1.947784048E1,-2.209090441E-1,2.932138145E-1,-4.277033508E-1
1.949792126E1,-2.454101145E-1,7.110634446E-2,-3.191796243E-1
1.951819355E1,-1.969406158E-1,-4.044007063E-1,-2.051964104E-1
1.953859355E1,-1.873532385E-1,-8.937562108E-1,-5.073318258E-2
1.955873819E1,-3.258375227E-1,-8.719182611E-1,4.178496599E-1
1.957901048E1,3.185138404E-1,-2.467416972E-1,9.684578180E-1
1.959928277E1,1.279647946E0,5.034702420E-1,1.220392704E0
1.961955506E1,1.863279223E0,1.290034294E0,1.310806870E0
1.963982741E1,1.862746596E0,2.149435759E0,1.489238620E0
1.966009970E1,1.547561765E0,2.909368277E0,1.574459672E0
1.968037199E1,1.311605811E0,2.677140713E0,1.526522756E0
1.970064433E1,1.278582692E0,1.802825570E0,1.577655435E0
1.972091662E1,9.106672406E-1,1.242630005E0,1.530251265E0
1.974118892E1,8.681898564E-2,1.372592211E0,1.448758602E0
1.976146126E1,-8.045403361E-1,2.210155725E0,1.789509773E0
1.978173355E1,1.496695429E-1,3.098319292E0,2.414153814E0
1.980200584E1,5.550023317E-1,1.515737057E0,2.369412661E0
1.982227813E1,3.765707016E-1,-6.014744639E-1,1.880589843E0
1.984255043E1,4.484759867E-1,-9.624657035E-1,1.599493384E0
1.986282277E1,6.273071170E-1,4.980107397E-2,1.685247064E0
1.988309506E1,5.480781198E-1,4.044007063E-1,1.874198198E0
1.990336735E1,3.659180701E-1,1.286305785E-1,1.817206621E0
1.992363964E1,2.993390858E-1,-2.446111590E-1,1.426920652E0
1.994391194E1,3.669833243E-1,-4.608596861E-1,8.523440957E-1
1.996418423E1,4.415517747E-1,-5.993439555E-1,3.427485824E-1
1.998445652E1,4.143875539E-1,-6.430197358E-1,-3.422159329E-2
2.000472876E1,3.350254297E-1,-6.238450408E-1,-2.914827764E-1
2.002500105E1,2.348906398E-1,-3.767038584E-1,-4.548675716E-1
2.004527334E1,5.446160212E-2,7.696529478E-2,-5.917539597E-1
2.006554563E1,-2.603237927E-1,4.171838760E-1,-6.492781639E-1
2.008581793E1,-5.440834165E-1,2.942790687E-1,-7.712509036E-1
2.010609022E1,-8.082687855E-1,3.676491082E-1,-1.030509472E0
2.012636251E1,-8.450203538E-1,1.801227689E0,-6.615287066E-1
2.014663480E1,-7.352982163E-1,-7.243793011E-1,-5.699160695E-1
2.016690709E1,-7.587340474E-1,2.157158963E-2,-7.488803267E-1
2.018717933E1,-1.054211497E0,-1.579253376E-1,-7.009434700E-1
2.020745162E1,-8.008119464E-1,-3.223754168E-1,-1.070456743E0
2.022785162E1,-3.545996249E-1,1.251684781E-2,-1.529984951E0
2.024799616E1,-4.243744016E-1,-8.388951421E-1,-1.336240053E0
2.026826845E1,-4.865591824E-1,-1.225585818E0,-1.080044150E0
2.028854074E1,-4.636560082E-1,-7.542066574E-1,-1.026248336E0
2.030881303E1,-3.854922652E-1,-2.984069884E-1,-9.804420471E-1
2.032908527E1,-3.055975139E-1,-2.041311413E-1,-1.024650455E0
2.034935756E1,-3.300985694E-1,-2.259690464E-1,-1.252084255E0
2.036962985E1,-5.653886795E-1,-2.765690684E-1,-1.482048035E0
2.039002985E1,-8.679235578E-1,-1.323590130E-1,-1.544366002E0
2.041033230E1,-9.787109494E-1,2.617885470E-1,-1.496961713E0
2.043060464E1,-8.823046088E-1,7.362303138E-1,-1.458745360E0
2.045087704E1,-6.058686972E-1,1.079644680E0,-1.392166376E0
2.047114793E1,-2.491385341E-1,8.422240615E-1,-1.228648424E0
2.049125871E1,-1.047953144E-1,1.930790395E-1,-1.108806252E0
2.051153188E1,-1.218395308E-1,-2.499374747E-1,-1.084837914E0
2.053180485E1,-1.729721874E-1,-2.994722426E-1,-1.002279878E0
2.055207772E1,-2.938795984E-1,8.229161799E-2,-7.621961236E-1
2.057235048E1,-4.115912318E-1,6.739124060E-1,-5.187833905E-1
2.059262313E1,-4.721781015E-1,1.263935328E0,-3.607248962E-1
2.061289574E1,-4.302333593E-1,1.547694921E0,-2.765690684E-1
2.063316819E1,-3.737743795E-1,1.456082225E0,-2.691122293E-1
2.065344063E1,-3.364901543E-1,1.022120476E0,-2.930806577E-1
2.067371303E1,-2.784332931E-1,4.576638937E-1,-3.362238407E-1
2.069398543E1,-2.358227372E-1,1.914811432E-1,-3.941475451E-1
2.071425772E1,-1.916143000E-1,2.484727502E-1,-3.788343966E-1
2.073453006E1,-1.484711170E-1,4.555333555E-1,-2.589922249E-1
2.075480241E1,-1.511342824E-1,7.026745081E-1,-1.498026997E-1
2.077507470E1,-1.767006069E-1,9.076046348E-1,-1.018658355E-1
2.079534699E1,-1.143826842E-1,1.031175256E0,-5.126581341E-2
2.081561928E1,-2.596580051E-2,1.196823716E0,-4.114580899E-2
2.083589142E1,5.073318258E-2,1.236771107E0,-3.848264739E-2
2.085616376E1,6.298371404E-2,7.554050684E-1,-7.470161468E-2
2.087643600E1,8.681898564E-2,-9.986846894E-2,-2.563290596E-1
2.089670824E1,1.209074259E-1,-7.366297841E-1,-3.271690905E-1
2.091698053E1,2.375537902E-1,-5.902892351E-1,-1.311605871E-1
2.093725277E1,5.283707380E-1,3.347590864E-1,2.644517124E-1
2.095758892E1,1.021987319E0,1.129712105E0,6.751108170E-1
2.097798892E1,1.461808085E0,1.531715989E0,1.061135769E0
2.099806949E1,1.530517578E0,1.637709737E0,1.337438464E0
2.101834173E1,1.268995285E0,1.452353835E0,1.507348061E0
2.103861397E1,9.394294024E-1,1.087101579E0,1.634114385E0
2.105888616E1,6.141244769E-1,6.808366179E-1,1.784183383E0
2.107915839E1,2.237053663E-1,8.097335100E-1,1.908819318E0
2.109943063E1,-2.703106403E-2,2.735730171E0,1.976463556E0
2.111970282E1,4.671181142E-1,4.136152267E0,2.018541336E0
2.113997506E1,4.873581231E-1,2.225602150E0,1.836913943E0
2.116024730E1,1.619200706E-1,4.864259958E-1,1.497760653E0
2.118051954E1,-9.414267540E-2,-1.950764060E-1,1.024384141E0
2.120079173E1,8.655266836E-3,8.815056831E-2,7.655251026E-1
2.122106397E1,2.295643091E-1,1.135571003E0,7.335671782E-1
2.124133621E1,1.283642650E-1,1.907221437E0,6.404897571E-1
2.126160839E1,-6.751108170E-2,1.713343382E0,4.258391261E-1
2.128188063E1,-2.010685205E-2,1.082307816E0,1.675127149E-1
2.130215282E1,1.869537681E-1,7.825692892E-1,3.062632866E-3
2.132242506E1,3.126548827E-1,6.440850496E-1,-1.572595388E-1
2.134269725E1,3.520696461E-1,4.182491302E-1,-4.138549268E-1
2.136296949E1,3.621896505E-1,2.484727502E-1,-6.705834866E-1
2.138324168E1,2.418148518E-1,3.219759464E-1,-9.484841228E-1
2.140351392E1,2.143843099E-2,5.061333776E-1,-1.227050543E0
2.142378610E1,-1.889511347E-1,4.725775719E-1,-1.476189137E0
2.144405829E1,-4.323638678E-1,2.985401452E-1,-1.671132326E0
2.146445829E1,-6.506097913E-1,3.454117477E-1,-1.680719733E0
2.148460266E1,-7.028076649E-1,9.922930598E-1,-1.352218986E0
2.150487496E1,-4.078628123E-1,1.815076113E0,-8.985498548E-1
2.152514714E1,-1.478053257E-2,2.316682100E0,-6.274402738E-1
2.154541933E1,1.826927215E-1,1.785248756E0,-3.575291038E-1
2.156569152E1,1.624527127E-1,7.873629928E-1,5.760413408E-1
2.158596376E1,4.175833464E-1,5.444828868E-1,1.672463894E0
2.160623595E1,7.375619411E-1,-7.270424068E-2,1.559545994E0
2.162650813E1,7.130608559E-1,-4.693817794E-1,1.051015735E0
2.164678032E1,4.340949357E-1,-3.378217220E-1,6.761760712E-1
2.166705251E1,2.178464085E-1,-1.254348010E-1,6.713824272E-1
2.168732470E1,2.996053919E-2,1.025316268E-1,8.747146130E-1
2.170759688E1,-4.195807278E-1,2.527337968E-1,9.988178015E-1
2.172786907E1,-9.616667628E-1,4.475438893E-1,7.143924236E-1
2.174814126E1,-1.180977941E0,7.942872047E-1,2.612559199E-1
2.176841345E1,-1.216664195E0,8.001461625E-1,9.041424841E-2
2.178868563E1,-1.140497923E0,3.560643792E-1,-1.545963883E-1
2.180895782E1,-7.619298100E-1,1.211737394E-1,-6.487455368E-1
2.182923048E1,-1.820269227E-1,2.628538013E-1,-9.506146312E-1
2.184950220E1,1.310274303E-1,4.890891612E-1,-1.031042099E0
2.186977438E1,-3.981423005E-2,6.030724049E-1,-1.066728354E0
2.189017438E1,-4.530033767E-1,6.755102873E-1,-1.042759895E0
2.191047668E1,-8.237150908E-1,1.118526816E0,-1.069924116E0
2.193074892E1,-8.876309395E-1,2.224004269E0,-1.084837914E0
2.195086376E1,-4.828307331E-1,2.942924023E0,-9.102677703E-1
2.197111678E1,-2.756369673E-2,2.632399559E0,-6.679202914E-1
2.199140121E1,-3.062632866E-3,1.918406606E0,-4.974781275E-1
2.201167459E1,-2.528669536E-1,1.469398022E0,-2.749711871E-1
2.203194772E1,-2.704437971E-1,1.316133261E0,5.472791940E-2
2.205222074E1,4.966791719E-2,9.406278133E-1,2.916159332E-1
2.207249355E1,2.039979845E-1,6.297039986E-1,2.623211741E-1
2.209276626E1,2.226400971E-1,4.741754830E-1,1.378184855E-1
2.211303886E1,2.109221965E-1,3.129211962E-1,3.595264861E-3
2.213331136E1,2.002695650E-1,2.479401082E-1,-1.008005738E-1
2.215358381E1,3.403517306E-1,3.155843616E-1,9.321057005E-4
2.217385610E1,6.502103209E-1,5.487439036E-1,3.518033028E-1
2.219412850E1,9.729851484E-1,1.112667918E0,7.266429663E-1
2.221440079E1,1.239167929E0,2.006157637E0,1.131443143E0
2.223467303E1,1.351020575E0,3.438138485E0,1.682051301E0
2.225494527E1,1.435176492E0,5.211802483E0,2.027596235E0
2.227521751E1,2.298306227E0,6.397706985E0,2.173537254E0
2.229548970E1,2.237053633E0,3.749062300E0,1.636245012E0
2.231576188E1,1.470330119E0,1.881655097E0,1.171390533E0
2.233603407E1,1.687111259E0,1.579652786E0,1.435975432E0
2.235630626E1,1.730121255E0,1.357678533E0,1.560611248E0
2.237670626E1,1.256744742E0,1.151017308E0,1.274055362E0
2.239685063E1,7.641934752E-1,1.630785465E0,1.049950480E0
2.241712277E1,8.824377656E-1,2.858235598E0,1.249021649E0
2.243739496E1,1.158873677E0,3.273022652E0,1.576057553E0
2.245773110E1,1.099218965E0,2.623344898E0,1.762345552E0
2.247813110E1,9.857683182E-1,1.589240193E0,1.845436096E0
2.249821147E1,1.048086286E0,9.486172795E-1,1.828924537E0
2.251848360E1,1.227450013E0,8.821714520E-1,1.797499180E0
2.253875574E1,1.235972166E0,1.034903646E0,1.745434523E0
2.255902787E1,1.027313590E0,8.571377397E-1,1.554752231E0
2.257930006E1,1.015063047E0,3.384875357E-1,1.146889448E0
2.259957220E1,1.175252080E0,-2.126532495E-1,6.490118504E-1
2.261984433E1,1.173654199E0,-2.808301151E-1,2.452769578E-1
2.264011647E1,8.696545959E-1,3.861580789E-2,6.751108170E-2
2.266038860E1,5.214465261E-1,4.960133731E-1,-4.860265180E-2
2.268066074E1,3.520696461E-1,7.404913902E-1,-1.780321896E-1
2.270093287E1,3.696464896E-1,6.318345070E-1,-3.623228073E-1
2.272120501E1,4.032022953E-1,4.358259737E-1,-4.724444151E-1
2.274147714E1,3.296990991E-1,3.059969842E-1,-5.049349666E-1
2.276174928E1,2.061285079E-1,3.336938322E-1,-5.475454926E-1
2.278202142E1,3.036001325E-1,6.131923795E-1,-5.294360518E-1
2.280229350E1,6.459492445E-1,9.034767151E-1,-2.563290596E-1
2.282256563E1,7.338334918E-1,2.239716798E-1,4.514054582E-2
2.284283777E1,6.837661266E-1,-3.117227852E-1,-2.685796022E-1
2.286310990E1,6.784397960E-1,5.934849977E-1,-8.452867270E-1
2.288338204E1,7.523424178E-2,-1.721732318E-1,-1.311738968E0
2.290365412E1,-6.564686894E-1,6.408892274E-1,-1.783517599E0
2.292392626E1,-9.760478139E-1,1.741572857E0,-1.830389261E0
2.294419839E1,-1.177249432E0,1.308676362E0,-1.671664953E0
2.296447053E1,-1.052080989E0,6.265081763E-1,-1.485776424E0
2.298474261E1,-5.387570858E-1,-1.677790284E-2,-1.371393800E0
2.300501475E1,-1.697763950E-1,-6.408892274E-1,-1.318130612E0
2.302528688E1,-1.298290044E-1,-9.422256947E-1,-1.304282188E0
2.304555902E1,-3.316964805E-1,-9.113330245E-1,-1.254214764E0
2.306583110E1,-6.239781976E-1,-7.936214209E-1,-1.126383185E0
2.308610324E1,-8.961530328E-1,-6.648576856E-1,-1.044890523E0
2.310637537E1,-1.047819972E0,-3.937480748E-1,-1.070989490E0
2.312664746E1,-1.071255803E0,3.488738462E-2,-1.018258929E0
2.314691959E1,-1.051015735E0,2.314285189E-1,-8.628635406E-1
2.316719168E1,-9.467530847E-1,3.656517565E-1,-7.558045387E-1
2.318746381E1,-6.585992575E-1,1.605884880E-1,-7.669898272E-1
2.320773589E1,-3.982754350E-1,-2.946785688E-1,-8.793751597E-1
2.322800803E1,-2.603237927E-1,-7.302381992E-1,-9.516798854E-1
2.324828011E1,-1.154479459E-1,-9.241161942E-1,-8.745814562E-1
2.326868011E1,-2.330264263E-2,-7.531414032E-1,-7.904255986E-1
2.328882433E1,-2.436790615E-2,-3.580617309E-1,-7.819035053E-1
2.330909647E1,-5.632581562E-2,2.929474926E-3,-8.037413955E-1
2.332936855E1,-1.580584943E-1,2.942790687E-1,-8.271772265E-1
2.334964063E1,-3.791007102E-1,6.813692451E-1,-7.669898272E-1
2.337004063E1,-5.568665862E-1,9.539436102E-1,-6.641919017E-1
2.339034277E1,-5.797697306E-1,1.081242561E0,-5.241097212E-1
2.341061496E1,-5.067991614E-1,1.232510090E0,-3.973433375E-1
2.343088720E1,-3.285006881E-1,1.237303734E0,-3.127880394E-1
2.345115933E1,-1.127847880E-1,9.896299243E-1,-2.675143182E-1
2.347142824E1,-6.005423889E-2,7.969503403E-1,-3.271690905E-1
2.349154001E1,-8.562056720E-2,6.675208211E-1,-4.713791609E-1
2.351181313E1,-8.402267098E-2,5.087965727E-1,-5.693834424E-1
2.353208610E1,-1.047953144E-1,3.534012139E-1,-5.608612895E-1
2.355235886E1,-1.745700836E-1,2.697780132E-1,-5.075981021E-1
2.357263152E1,-2.081258893E-1,1.760348231E-1,-4.953475893E-1
2.359290407E1,-1.777658761E-1,-1.318263710E-1,-5.028044581E-1
2.361317647E1,-1.537974328E-1,-4.470112622E-1,-4.660528302E-1
2.363344886E1,-1.484711170E-1,-4.038680792E-1,-3.516701460E-1
2.365372110E1,-7.869634777E-2,-5.352949724E-2,3.342264518E-2
2.367399339E1,1.677790284E-1,3.486075401E-1,4.966791868E-1
2.369426563E1,5.384907722E-1,5.737776160E-1,5.712476373E-1
2.371453782E1,9.633978009E-1,5.066660047E-1,6.287718415E-1
2.373480996E1,1.484711170E0,5.045354962E-1,9.514135718E-1
2.375508214E1,1.931988716E0,8.203861713E-1,1.366200566E0
2.377535428E1,2.009220362E0,1.115863681E0,1.518000722E0
2.379562642E1,1.626923919E0,1.435975432E0,1.514272213E0
2.381589850E1,1.119458914E0,1.215465784E0,1.733716607E0
2.383617058E1,7.466166615E-1,1.188301563E0,1.979659319E0
2.385644272E1,2.700443268E-1,1.685113907E0,1.894438267E0
2.387671480E1,-4.339617789E-1,3.298056126E0,1.924265623E0
2.389698694E1,1.310274303E-1,4.609662056E0,2.341183186E0
2.391725897E1,7.487471700E-1,1.717071891E0,2.361423254E0
2.393753105E1,3.270359337E-1,-9.619330764E-1,1.949299335E0
2.395786714E1,3.185138404E-1,-1.072720528E0,1.718270302E0
2.397826714E1,5.363602638E-1,2.319611609E-1,1.692703962E0
2.399834730E1,5.060002208E-1,1.049284697E0,1.795901299E0
2.401861938E1,2.828274965E-1,8.321040869E-1,1.934918284E0
2.403889142E1,2.135853618E-1,-4.127896577E-2,1.809217095E0
2.405916350E1,3.797664940E-1,-6.376934648E-1,1.357145905E0
2.407943558E1,4.287686050E-1,-8.090677261E-1,7.756450772E-1
2.409970761E1,3.089264631E-1,-7.835013866E-1,2.324937880E-1
2.411997970E1,1.661811322E-1,-6.201165915E-1,-1.551290154E-1
2.414025173E1,-1.797632314E-2,-2.893522382E-1,-3.905522823E-1
2.416052381E1,-2.486059070E-1,2.713759243E-1,-6.247771382E-1
2.418079584E1,-5.291697383E-1,6.739124060E-1,-8.692551255E-1
2.420106793E1,-7.070687413E-1,2.522011697E-1,-9.996167421E-1
2.422133996E1,-4.297007322E-1,-2.435459048E-1,-8.101329803E-1
2.424161199E1,-3.029343486E-1,-5.370260477E-1,-2.265016884E-1
2.426188407E1,-5.206475854E-1,-9.725856781E-1,-3.319627941E-1
2.428215616E1,-7.470161319E-1,3.193127811E-1,-7.696529627E-1
2.430242819E1,-1.197489500E0,3.443464637E-1,-9.283772707E-1
2.432270022E1,-1.114931583E0,-1.648495495E-1,-1.277650595E0
2.434297230E1,-6.506097913E-1,-1.701758653E-1,-1.436907530E0
2.436324428E1,-3.918838501E-1,-7.350319028E-1,-1.209473729E0
2.438351636E1,-2.432795912E-1,-1.227716327E0,-1.131176829E0
2.440378845E1,-1.346226931E-1,-1.218661547E0,-1.261671662E0
2.442406048E1,-3.768370301E-2,-1.096688867E0,-1.304282188E0
2.444433251E1,-6.325002760E-2,-1.054078341E0,-1.263802171E0
2.446460454E1,-2.038648278E-1,-1.106276274E0,-1.189766288E0
2.448487657E1,-3.854922652E-1,-1.049817324E0,-1.155145288E0
2.450514866E1,-5.446160436E-1,-7.249119282E-1,-1.197223186E0
2.452542069E1,-6.202497482E-1,-2.824280262E-1,-1.232376933E0
2.454569272E1,-5.898897648E-1,2.396843163E-3,-1.216397882E0
2.456596475E1,-5.174518228E-1,3.488738462E-2,-1.146623135E0
2.458623678E1,-4.530033767E-1,-1.062600464E-1,-1.021454692E0
2.460650881E1,-3.316964805E-1,-3.926828206E-1,-8.767119646E-1
2.462678084E1,-2.081258893E-1,-5.514070988E-1,-8.026761413E-1
2.464705287E1,-1.671132296E-1,-5.572660565E-1,-7.435539961E-1
2.466732490E1,-2.443448454E-1,-3.623228073E-1,-6.423539519E-1
2.468759694E1,-3.929491341E-1,3.994738683E-3,-5.624592304E-1
2.470786902E1,-5.403549671E-1,4.289017618E-1,-5.118591785E-1
2.472826902E1,-6.234455705E-1,7.687208652E-1,-4.575307369E-1
2.474841303E1,-6.404897571E-1,9.768467546E-1,-3.703122735E-1
2.476868511E1,-5.669865608E-1,9.715204239E-1,-2.781669796E-1
2.478895709E1,-3.764375448E-1,7.037398219E-1,-2.765690684E-1
2.480922912E1,-1.468732208E-1,2.687127590E-1,-2.898848653E-1
2.482950116E1,-6.804371625E-2,1.312937438E-1,-2.888196111E-1
2.484977319E1,-1.292963773E-1,3.294327855E-1,-2.856238186E-1
2.487017319E1,-2.043974549E-1,4.912196994E-1,-2.589922249E-1
2.489047516E1,-2.576606572E-1,5.370260477E-1,-2.494048476E-1
2.491058985E1,-2.864227593E-1,4.736428559E-1,-2.371543199E-1
2.493098985E1,-3.103911877E-1,3.624559641E-1,-1.711079776E-1
2.495129162E1,-2.731069624E-1,1.888179779E-1,-1.407479644E-1
2.497155402E1,-1.687111259E-1,-1.251684781E-2,-1.849564016E-1
2.499166985E1,-6.218476593E-2,-2.536658943E-1,-2.121206224E-1
2.501194339E1,-1.825595498E-1,-3.900196552E-1,1.122521535E-1
2.503221662E1,-2.543316968E-2,-2.227732539E-1,6.649908423E-1
2.505248959E1,9.586040974E-1,1.882853508E-1,7.101313472E-1
2.507276235E1,1.742904425E0,8.054724932E-1,8.491482735E-1
2.509303491E1,1.992708802E0,1.540238023E0,1.198554754E0
2.511330746E1,1.788178205E0,2.243711472E0,1.352352142E0
2.513357990E1,1.462340713E0,2.274071455E0,1.395495415E0
2.515385214E1,1.366466880E0,1.360874295E0,1.589373350E0
2.517412444E1,1.256744742E0,4.486091435E-1,1.705487132E0
2.519439668E1,8.201198578E-1,2.058621943E-1,1.643701792E0
2.521466881E1,8.482161909E-2,1.128646851E0,1.759682417E0
2.523494100E1,-1.969406158E-1,3.200584650E0,2.230528831E0
2.525521303E1,3.163833022E-1,3.008437634E0,2.548377037E0
2.527548511E1,3.142527640E-1,3.889544010E-1,2.293912172E0
2.529575720E1,2.966759205E-1,-1.402819037E0,1.902960300E0
2.531602928E1,2.849580348E-1,-1.361806393E0,1.749162912E0
2.533630131E1,3.265033066E-1,-1.918806136E-1,1.916808724E0
2.535657329E1,2.801643312E-1,4.278365076E-1,2.122937202E0
2.537684537E1,1.901495606E-1,6.844318658E-2,2.023335218E0
2.539711735E1,1.555284858E-1,-7.206508517E-1,1.520131230E0
2.541738944E1,2.199769467E-1,-1.236771107E0,8.640619516E-1
2.543766142E1,2.503369451E-1,-1.215998411E0,3.289001584E-1
2.545793339E1,9.161267430E-2,-9.922930598E-1,8.349003643E-2
2.547820548E1,-2.944122255E-1,-6.430197358E-1,-1.332911104E-1
2.549847746E1,-6.564686894E-1,-2.504701018E-1,-3.793670237E-1
2.551874944E1,-7.821698189E-1,1.989379823E-1,-7.073350549E-1
2.553902136E1,-8.077361584E-1,5.406212807E-2,-9.857683182E-1
2.555929345E1,-8.247803450E-1,-4.054659605E-1,-1.128513694E0
2.557956543E1,-8.119972348E-1,-4.065312445E-1,-1.017726302E0
2.559983741E1,-6.218476295E-1,9.747162461E-1,-2.744385600E-1
2.562010938E1,-7.917572260E-1,6.089313030E-1,2.149169445E-1
2.564038142E1,-6.751108170E-1,1.997369342E-2,-6.082655191E-1
2.566065339E1,-5.153213143E-1,-3.648528084E-2,-8.745814562E-1
2.568092537E1,-3.460775316E-1,-7.227813601E-1,-1.199353695E0
2.570119735E1,-2.960101366E-1,2.431464195E-1,-1.634913325E0
2.572146933E1,-3.002711833E-1,-4.299670458E-1,-1.435842276E0
2.574174131E1,-1.996037811E-1,-1.018924713E0,-1.207875848E0
2.576201334E1,7.203845680E-2,-1.099352121E0,-1.254214764E0
2.578228532E1,2.135853618E-1,-1.099352121E0,-1.317065358E0
2.580255730E1,1.954758763E-1,-1.215998411E0,-1.187103152E0
2.582282923E1,-1.850895584E-2,-1.187236309E0,-1.015063047E0
2.584310126E1,-3.817638457E-1,-8.271772265E-1,-1.085370541E0
2.586337319E1,-6.351634264E-1,-5.295692086E-1,-1.217463136E0
2.588364516E1,-7.038729787E-1,-3.282343447E-1,-1.283509493E0
2.590391714E1,-7.150582075E-1,-1.323590130E-1,-1.285640001E0
2.592418912E1,-6.772413850E-1,-1.913479865E-1,-1.151416779E0
2.594446110E1,-5.728455186E-1,-4.177165031E-1,-9.857683182E-1
2.596486110E1,-3.812312186E-1,-6.430197358E-1,-9.394294024E-1
2.598500506E1,-1.926795542E-1,-7.989477515E-1,-9.948230982E-1
2.600527704E1,-1.319595277E-1,-8.042740226E-1,-1.039031506E0
2.602554902E1,-3.221091032E-1,-4.038680792E-1,-9.506146312E-1
2.604582095E1,-5.861613154E-1,2.543317080E-1,-7.227813601E-1
2.606609293E1,-7.150582075E-1,1.008272052E0,-4.756402075E-1
2.608636490E1,-6.122602820E-1,1.613208652E0,-2.941459119E-1
2.610663688E1,-4.328965247E-1,1.627589703E0,-1.796300858E-1
2.612690886E1,-2.422143221E-1,8.081356287E-1,-1.460742801E-1
2.614718079E1,2.303632535E-2,-4.340949282E-2,-2.201101035E-1
2.616745277E1,-3.289001435E-2,2.370211668E-2,-3.186469972E-1
2.618772475E1,-2.001364082E-1,4.262386262E-1,-3.916175365E-1
2.620799668E1,-2.869553864E-1,6.281060576E-1,-5.379581451E-1
2.622826866E1,-3.572627902E-1,5.418196917E-1,-7.099981904E-1
2.624854063E1,-4.318312407E-1,1.824263930E-1,-7.584677339E-1
2.626881256E1,-4.833633900E-1,-3.175817132E-1,-6.567350626E-1
2.628908454E1,-4.195807278E-1,-9.922930598E-1,-5.273054838E-1
2.630935647E1,-3.833617568E-1,-1.637177110E0,-2.872217000E-1
2.632962845E1,-4.844286442E-1,-1.249421120E0,1.255679578E-1
2.635001918E1,1.134505793E-1,2.330264151E-1,5.755086541E-1
2.637033027E1,1.122122049E0,1.082307816E0,1.177782059E0
2.639060230E1,1.713077068E0,1.551955938E0,1.390169024E0
2.641087438E1,1.954359293E0,1.542368650E0,1.325720549E0
2.643114642E1,1.999632955E0,1.392299533E0,1.323057413E0
2.645141834E1,1.709881306E0,1.365667939E0,1.266065836E0
2.647168569E1,1.274321675E0,9.044088125E-1,1.361939549E0
2.649179824E1,8.478167057E-1,2.372874767E-1,1.707085013E0
2.651207142E1,4.181159735E-1,1.392832249E-1,1.857154012E0
2.653234423E1,-2.490053698E-2,1.099884748E0,1.953560352E0
2.655261688E1,-2.555301189E-1,3.873697996E0,2.328399897E0
2.657288944E1,4.340949357E-1,5.312469959E0,2.729471684E0
2.659316188E1,6.777740270E-2,1.115331054E0,2.425338984E0
2.661343423E1,5.233107507E-2,-1.742105484E0,2.018008709E0
2.663370647E1,3.494064808E-1,-1.049284697E0,1.996170878E0
2.665397866E1,3.984085917E-1,5.246423557E-2,2.106958389E0
2.667425074E1,1.981390417E-1,1.781653464E-1,2.178330898E0
2.669452287E1,1.432779580E-1,-1.004010960E-1,1.986583591E0
2.671479490E1,2.316948473E-1,-5.721797347E-1,1.432779551E0
2.673506699E1,3.169159293E-1,-8.815056682E-1,7.452850938E-1
2.675533897E1,2.029327303E-1,-9.331709743E-1,2.255695760E-1
2.677561095E1,4.221107066E-2,-8.692551255E-1,-8.695214242E-2
2.679588293E1,-1.591237634E-1,-6.829671264E-1,-2.142511457E-1
2.681615490E1,-4.110586047E-1,-4.299670458E-1,-3.978759646E-1
2.683642688E1,-5.552686453E-1,1.504684836E-1,-7.360971570E-1
2.685669886E1,-6.692518592E-1,2.170474678E-1,-1.001214623E0
2.687709886E1,-7.699192762E-1,-3.410175145E-1,-1.148753643E0
2.689724277E1,-7.645930052E-1,-4.928175807E-1,-1.061402082E0
2.691751470E1,-6.761760712E-1,8.480830193E-1,-3.388870060E-1
2.693778662E1,-8.716519475E-1,-1.611211300E-1,-1.354216337E-1
2.695805855E1,-8.189214468E-1,2.761695981E-1,-9.538104534E-1
2.697833053E1,-4.519380927E-1,-4.704470634E-1,-8.969519734E-1
2.699860246E1,-2.017343044E-1,-6.866955757E-1,-1.154612660E0
2.701887438E1,-1.410142779E-1,-8.122635633E-2,-1.566203833E0
2.703914631E1,-2.496711612E-1,-7.835013866E-1,-1.405482173E0
2.705941824E1,-1.255679578E-1,-1.188834190E0,-1.270193696E0
2.707969017E1,5.552686751E-2,-1.097221494E0,-1.323989511E0
2.709996209E1,8.162582666E-2,-1.016261458E0,-1.251019001E0
2.712023402E1,-4.194475710E-2,-1.021587849E0,-1.051814675E0
2.714050595E1,-3.045322299E-1,-8.021435142E-1,-1.044890523E0
2.716077787E1,-5.499423742E-1,-5.167860389E-1,-1.210006356E0
2.718104980E1,-6.474139690E-1,-3.671164811E-1,-1.294694781E0
2.720132173E1,-6.719150543E-1,-2.398174703E-1,-1.330381155E0
2.722159360E1,-7.012097836E-1,-1.579253376E-1,-1.277650595E0
2.724186553E1,-7.091992497E-1,-2.041311413E-1,-1.151949525E0
2.726213746E1,-6.362286806E-1,-3.660512269E-1,-1.052879930E0
2.728240938E1,-4.593949318E-1,-5.908218622E-1,-1.052347302E0
2.730268126E1,-2.709764242E-1,-6.834998131E-1,-1.108273625E0
2.732295319E1,-1.980058849E-1,-4.534028471E-1,-1.064065218E0
2.734322511E1,-2.864227593E-1,-3.462106921E-3,-8.804404140E-1
2.736349704E1,-4.775044322E-1,5.386239290E-1,-6.423539519E-1
2.738376897E1,-5.632581711E-1,7.969503403E-1,-4.900212884E-1
2.740404084E1,-4.838960171E-1,6.222470999E-1,-4.426170290E-1
2.742431277E1,-4.004059732E-1,3.203780353E-1,-3.452785909E-1
2.744458470E1,-1.942774504E-1,-1.211737394E-1,-1.865542978E-1
2.746498470E1,3.368896246E-2,-3.197122514E-1,-1.801627129E-1
2.748512850E1,3.102580272E-2,-1.764342934E-1,-2.739059031E-1
2.750540043E1,-1.399490088E-1,7.430213690E-2,-3.719101548E-1
2.752567230E1,-2.677806616E-1,1.344895363E-1,-4.340949357E-1
2.754594423E1,-3.418164849E-1,6.578002870E-2,-4.665854871E-1
2.756621610E1,-3.487406969E-1,-1.934785098E-1,-4.255728126E-1
2.758648803E1,-2.645848691E-1,-7.094655633E-1,-3.852259517E-1
2.760675996E1,-1.777658761E-1,-1.254747391E0,-3.250385821E-1
2.762703183E1,-2.906838059E-1,-1.309608459E0,-2.569948509E-2
2.764730376E1,-2.223737910E-2,-6.930871606E-1,6.665887237E-1
2.766757563E1,1.129578948E0,4.394212365E-2,1.023318887E0
2.768784756E1,1.895769835E0,1.021055222E0,1.031841040E0
2.770811944E1,1.965544581E0,1.911482453E0,1.236238480E0
2.772839136E1,1.780188680E0,2.522677422E0,1.362472177E0
2.774866324E1,1.570464969E0,2.294844151E0,1.289501667E0
2.776906324E1,1.469264865E0,1.413604856E0,1.494564891E0
2.778920704E1,1.115197897E0,6.691187024E-1,1.725727081E0
2.780947892E1,4.916191697E-1,5.519397259E-1,1.710813403E0
2.782975084E1,-2.139848322E-1,1.088166833E0,1.907754064E0
2.785015084E1,-6.484792233E-1,2.310823202E0,2.217745781E0
2.787045251E1,1.150484756E-1,3.836413860E0,2.453035831E0
2.789056699E1,2.082590461E-1,1.652623415E0,2.267813206E0
2.791083886E1,1.342232227E-1,-1.000815153E0,2.017476082E0
2.793123886E1,2.679138184E-1,-1.574859142E0,1.873132944E0
2.795138251E1,3.344927728E-1,-5.343628526E-1,1.845968723E0
2.797164360E1,2.588590682E-1,5.146554708E-1,1.912547708E0
2.799192246E1,1.358211190E-1,6.781734824E-1,1.879524589E0
2.801219496E1,9.374319762E-2,1.518000662E-2,1.573927045E0
2.803246741E1,1.992042959E-1,-7.973498106E-1,1.045689464E0
2.805273970E1,2.759032845E-1,-1.118526816E0,4.386222959E-1
2.807301209E1,1.118526831E-1,-8.250467181E-1,6.538055837E-2
2.809328423E1,-2.475406379E-1,-3.655185997E-1,-1.306279600E-1
2.811355636E1,-5.930855274E-1,1.137168929E-1,-4.213117659E-1
2.813382839E1,-7.613971829E-1,4.810996950E-1,-7.760445476E-1
2.815410043E1,-7.731150985E-1,2.932138145E-1,-1.102947354E0
2.817437241E1,-7.848330140E-1,-3.266364634E-1,-1.249421120E0
2.819464438E1,-6.127929091E-1,-2.504701018E-1,-9.283772707E-1
2.821491631E1,-5.355613232E-1,7.506113648E-1,-2.110553533E-1
2.823518824E1,-8.024098277E-1,-3.755054250E-2,-4.362254739E-1
2.825546017E1,-8.359656334E-1,7.490134835E-1,-8.064045906E-1
2.827573209E1,-4.998749495E-1,-5.503418446E-1,-8.096003532E-1
2.829600397E1,-1.974732429E-1,-6.158555150E-1,-1.399623275E0
2.831627589E1,-3.103911877E-1,-2.797648609E-1,-1.621064901E0
2.833654777E1,-3.423491120E-1,-5.956155062E-1,-1.321326375E0
2.835681970E1,-5.952160433E-2,-7.787077427E-1,-1.163667321E0
2.837709157E1,1.299621612E-1,-6.451503038E-1,-1.234507442E0
2.839736345E1,2.274337858E-1,-7.026745081E-1,-1.205745339E0
2.841763532E1,1.901495606E-1,-7.595329881E-1,-1.194027424E0
2.843790720E1,-4.127896391E-3,-8.117309213E-1,-1.306412697E0
2.845817907E1,-3.034669757E-1,-9.102677703E-1,-1.433711648E0
2.847845100E1,-6.079992056E-1,-8.735162020E-1,-1.460875869E0
2.849872287E1,-8.072035313E-1,-5.119923353E-1,-1.401753783E0
2.851899470E1,-8.162582517E-1,-6.125265732E-3,-1.255280018E0
2.853926657E1,-6.463487148E-1,3.028011918E-1,-1.084837914E0
2.855953845E1,-4.142543972E-1,2.767022252E-1,-9.559409618E-1
2.857981032E1,-2.438122183E-1,-2.849580161E-2,-9.113330245E-1
2.860008214E1,-1.271658540E-1,-3.378217220E-1,-9.703220129E-1
2.862035402E1,-1.458079666E-1,-2.930806577E-1,-9.804420471E-1
2.864062589E1,-3.103911877E-1,1.834916621E-1,-8.197203875E-1
2.866089777E1,-4.791023135E-1,6.861629486E-1,-6.572676897E-1
2.868116959E1,-5.536707640E-1,1.016261458E0,-5.320991874E-1
2.870144147E1,-5.126581192E-1,1.141962647E0,-4.026696682E-1
2.872171329E1,-3.700459599E-1,9.024114609E-1,-2.510027587E-1
2.874198517E1,-1.149153188E-1,2.202432603E-1,-2.078595608E-1
2.876225704E1,-2.809632942E-2,-1.685779691E-1,-2.712427676E-1
2.878252886E1,-1.474058628E-1,-1.179779470E-1,-3.287670016E-1
2.880280074E1,-2.624543309E-1,5.725792050E-2,-3.479417264E-1
2.882307261E1,-3.061301410E-1,9.560741484E-2,-3.362238407E-1
2.884334444E1,-2.901511788E-1,4.527370445E-3,-3.255712092E-1
2.886361631E1,-1.905490309E-1,-3.106575012E-1,-3.335606754E-1
2.888388813E1,-1.735048145E-1,-7.005439997E-1,-2.824280262E-1
2.890416001E1,-4.615254700E-1,-8.229161501E-1,7.070687413E-2
2.892443183E1,-1.362205893E-1,-5.812344551E-1,5.659213066E-1
2.894470371E1,8.408924937E-1,-1.784316637E-2,8.544746041E-1
2.896497553E1,1.501222730E0,8.475503922E-1,1.024384141E0
2.898524741E1,1.789243460E0,1.523726463E0,1.207609534E0
2.900551923E1,1.816407681E0,1.919471979E0,1.326785922E0
2.902579105E1,1.603488088E0,1.923200369E0,1.316133261E0
2.904606293E1,1.186437368E0,1.488040090E0,1.348623753E0
2.906633475E1,7.418229580E-1,9.949562550E-1,1.614407063E0
2.908660662E1,3.797664940E-1,9.134635925E-1,1.776193976E0
2.910687845E1,-4.141212255E-2,1.415202737E0,1.858219266E0
2.912715027E1,-2.731069624E-1,3.197388887E0,2.147438288E0
2.914742209E1,2.865559161E-1,3.539338350E0,2.425871611E0
2.916769397E1,2.886864543E-1,1.285773158E0,2.235322475E0
2.918796574E1,4.442149401E-1,-4.853607416E-1,2.003095150E0
2.920823761E1,6.816355586E-1,-9.906951785E-1,1.802825570E0
2.922863761E1,7.476819158E-1,-2.781669796E-1,1.725727081E0
2.924878131E1,6.832334399E-1,6.696513295E-1,1.833185554E0
2.926905313E1,5.454149842E-1,6.275734305E-1,1.865143418E0
2.928932496E1,5.299686790E-1,-3.435475379E-2,1.587242842E0
2.930955741E1,6.651239991E-1,-5.503418446E-1,1.034504175E0
2.932995741E1,7.311703563E-1,-7.195855975E-1,4.924181104E-1
2.935029902E1,5.960150361E-1,-5.476786494E-1,5.845634267E-2
2.937057048E1,3.147853911E-1,-2.131858915E-1,-2.723080218E-1
2.939068496E1,5.392897129E-2,2.016011477E-1,-4.926844239E-1
2.941095662E1,-1.372858584E-1,7.596661448E-1,-6.998782158E-1
2.943135662E1,-4.067975581E-1,1.046621561E0,-8.649940491E-1
2.945165798E1,-5.877591968E-1,5.689839721E-1,-9.123983383E-1
2.947191866E1,-5.398223400E-1,-4.447475821E-2,-9.171919823E-1
2.949203527E1,-4.094607234E-1,4.287686199E-2,-9.278446436E-1
2.951230871E1,-2.368880063E-1,7.506113648E-1,-4.223770201E-1
2.953258188E1,-4.769718051E-1,-2.765690684E-1,-1.135837361E-1
2.955285470E1,-4.631233811E-1,3.862912357E-1,-6.796382070E-1
2.957312725E1,-7.555382252E-1,9.416930676E-1,-9.214530587E-1
2.959339970E1,-7.060034871E-1,-3.767038584E-1,-1.255812645E0
2.961367204E1,-4.865591824E-1,7.962846011E-2,-1.576856494E0
2.963394433E1,-3.194459379E-1,3.542001545E-2,-1.320793748E0
2.965421647E1,6.511423737E-2,-6.526071429E-1,-1.069924116E0
2.967448855E1,3.424822688E-1,-8.282424808E-1,-1.034770489E0
2.969476058E1,3.739075363E-1,-8.111982346E-1,-9.873662591E-1
2.971503256E1,2.492716908E-1,-7.920235395E-1,-8.916256428E-1
2.973530454E1,7.310371846E-2,-5.593965650E-1,-1.051282048E0
2.975557647E1,-2.470080107E-1,-3.362238407E-1,-1.343164325E0
2.977584834E1,-5.584644675E-1,-1.387505829E-1,-1.475656509E0
2.979612022E1,-6.729803085E-1,2.133190483E-1,-1.456614852E0
2.981639209E1,-7.187866569E-1,5.838976502E-1,-1.423059106E0
2.983666397E1,-7.321024537E-1,5.870934129E-1,-1.364469528E0
2.985693579E1,-6.788392663E-1,1.829590350E-1,-1.265400052E0
2.987720766E1,-5.787044764E-1,-2.616553903E-1,-1.175385237E0
2.989747944E1,-4.067975581E-1,-5.301018357E-1,-1.029444098E0
2.991775131E1,-2.299637944E-1,-5.466133952E-1,-7.478150725E-1
2.993802313E1,-1.681784987E-1,-3.905522823E-1,-4.362254739E-1
2.995829496E1,-3.253048956E-1,6.578002870E-2,-2.499374747E-1
2.997856683E1,-5.094623566E-1,7.170555592E-1,-2.233058959E-1
2.999883860E1,-6.202497482E-1,1.193095326E0,-2.099900991E-1
3.001911043E1,-6.532729268E-1,1.475257039E0,-2.643185556E-1
3.003938225E1,-6.181192398E-1,1.595631719E0,-3.617901504E-1
3.005965402E1,-5.227781534E-1,1.478452802E0,-4.303665161E-1
3.007992584E1,-2.992059290E-1,9.992172718E-1,-4.767054915E-1
3.010019767E1,-1.239700541E-1,4.938828647E-1,-4.575307369E-1
3.012046949E1,-1.335574239E-1,3.443464637E-1,-3.925496638E-1
3.014074126E1,-1.639174372E-1,4.917523265E-1,-3.490070105E-1
3.016101308E1,-1.261005849E-1,7.442198396E-1,-3.516701460E-1
3.018128485E1,-6.005423889E-2,8.278430104E-1,-3.884217441E-1
3.020155668E1,-1.410142779E-1,8.070703745E-1,-4.149201810E-1
3.022182845E1,-2.629869580E-1,6.600639820E-1,-4.026696682E-1
3.024210027E1,-2.486059070E-1,3.374222517E-1,-3.952127993E-1
3.026237204E1,-9.840372950E-2,-8.602003753E-2,-4.250401855E-1
3.028264386E1,-3.994738800E-4,-3.814975321E-1,-3.410175145E-1
3.030291563E1,4.593949392E-2,-2.089248300E-1,-4.274370521E-2
3.032318746E1,3.579285741E-1,1.872200817E-1,3.795001805E-1
3.034345923E1,7.705850601E-1,7.655251026E-1,6.101297736E-1
3.036373105E1,1.152482152E0,1.329449058E0,6.048034430E-1
3.038400282E1,1.463938594E0,1.541835904E0,8.550072312E-1
3.040427464E1,1.574725986E0,1.468865395E0,1.159139991E0
3.042454642E1,1.446361661E0,1.135038376E0,1.190565228E0
3.044481824E1,1.097621083E0,7.484808564E-1,1.192695856E0
3.046521824E1,5.747097135E-1,5.119923353E-1,1.352352142E0
3.048536183E1,4.008054361E-2,7.069355845E-1,1.568068027E0
3.050563360E1,-2.779006660E-1,1.494431734E0,1.732118726E0
3.052590537E1,-1.601890177E-1,3.122820377E0,1.924798250E0
3.054617720E1,2.769685388E-1,3.871034861E0,2.063282490E0
3.056644897E1,2.609896064E-1,1.994439840E0,1.791107655E0
3.058672079E1,8.428898454E-2,2.106558830E-1,1.300154328E0
3.060699256E1,2.250369452E-2,-3.958786130E-1,7.937545776E-1
3.062726433E1,8.588688076E-2,-6.631266326E-2,5.169191957E-1
3.064753616E1,1.331579536E-1,8.901609182E-1,4.194475710E-1
3.066780793E1,-1.318263728E-2,1.611078143E0,2.410158962E-1
3.068807970E1,-1.937448233E-1,1.303882718E0,3.129211813E-2
3.070835152E1,-1.814942956E-1,6.914892793E-1,-1.023984700E-1
3.072862329E1,-1.997369342E-3,4.699144363E-1,-3.010701239E-1
3.074889506E1,1.715074480E-1,5.322323442E-1,-4.964128435E-1
3.076916688E1,1.837579757E-1,5.737776160E-1,-5.731118321E-1
3.078943866E1,9.587372839E-2,5.466133952E-1,-6.322339773E-1
3.080967105E1,2.996053919E-2,5.029376149E-1,-7.941540480E-1
3.083007105E1,-8.921583183E-3,4.683165252E-1,-9.362335801E-1
3.085041251E1,-5.739107728E-2,4.241080880E-1,-1.044357896E0
3.087044688E1,-1.543300748E-1,4.294344187E-1,-1.172722101E0
3.089079730E1,-3.173153996E-1,4.763059914E-1,-1.271791577E0
3.091119730E1,-4.408859909E-1,6.179860830E-1,-1.202016830E0
3.093149892E1,-3.066627681E-1,8.518114686E-1,-9.028109312E-1
3.095161329E1,7.057371549E-3,1.106808901E0,-5.922865868E-1
3.097187324E1,1.171789989E-1,1.689907551E0,-4.932170510E-1
3.099215256E1,1.331579536E-1,2.017343044E0,-3.671164811E-1
3.101242517E1,2.886864543E-1,1.228248954E0,-6.564687192E-2
3.103269751E1,4.703139067E-1,-1.748363972E-1,4.301002026E-1
3.105296980E1,5.715139508E-1,-6.643250585E-1,1.169792652E0
3.107324199E1,6.310355663E-1,-3.639206886E-1,1.340101719E0
3.109351412E1,8.291745782E-1,-6.536723971E-1,1.107474685E0
3.111378610E1,8.840356469E-1,-3.111901283E-1,8.086682558E-1
3.113405808E1,3.265033066E-1,2.420811653E-1,6.941524148E-1
3.115433006E1,-6.612623930E-1,5.221123695E-1,7.719166875E-1
3.117460194E1,-1.106942058E0,8.582029939E-1,7.676556110E-1
3.119487381E1,-9.819067717E-1,1.001880407E0,6.420876384E-1
3.121514569E1,-6.239781976E-1,8.843019605E-1,3.315632939E-1
3.123541751E1,-2.629869580E-1,6.760429144E-1,-6.617950648E-2
3.125568933E1,-2.443448454E-1,3.400854170E-1,-3.767038584E-1
3.127596110E1,-4.254396558E-1,2.133190483E-1,-7.153245211E-1
3.129623293E1,-5.680518150E-1,3.862912357E-1,-9.777788520E-1
3.131650475E1,-5.504750013E-1,5.183839202E-1,-9.900293946E-1
3.133677652E1,-4.546012580E-1,5.567334294E-1,-8.873646259E-1
3.135704829E1,-4.791023135E-1,6.456829309E-1,-8.159919381E-1
3.137744834E1,-6.048034430E-1,9.853688478E-1,-7.046719193E-1
3.139759188E1,-6.681866050E-1,1.735713959E0,-5.203812718E-1
3.141786366E1,-5.243760347E-1,2.628671169E0,-2.936132848E-1
3.143813537E1,-1.697763950E-1,3.128679276E0,-5.819002539E-2
3.145840714E1,1.427453309E-1,3.029210329E0,1.531316526E-2
3.147867897E1,1.906821877E-1,2.372075796E0,-1.045289934E-1
3.149895074E1,9.321057051E-2,1.327318549E0,-1.652490199E-1
3.151922251E1,-6.484792382E-2,4.720449448E-1,-1.268995255E-1
3.153949428E1,-1.202416345E-1,1.233042628E-1,-6.191844866E-2
3.155976600E1,-6.644582003E-2,1.270326823E-1,5.725792143E-3
3.158003777E1,-3.289001435E-2,4.976112843E-1,7.763108611E-2
3.160030954E1,4.008054361E-2,1.215998411E0,1.653821766E-1
3.162058131E1,2.300969511E-1,1.619600177E0,1.760348231E-1
3.164085303E1,3.701791167E-1,1.293230057E0,2.916159295E-2
3.166112480E1,3.025348783E-1,6.259755492E-1,-1.854890287E-1
3.168139657E1,1.667137593E-1,1.233042628E-1,-3.697796464E-1
3.170174704E1,1.470063776E-1,3.542001545E-2,-4.298338890E-1
3.172194017E1,3.451454341E-1,2.862896025E-1,-2.973417044E-1
3.174221194E1,4.021370113E-1,6.962829232E-1,-8.215846121E-2
3.176248366E1,2.705769539E-1,1.198421597E0,5.632581562E-2
3.178275537E1,3.611243665E-1,1.951429844E0,3.816306889E-1
3.180302714E1,8.462188244E-1,3.086601496E0,9.673925638E-1
3.182329886E1,1.427186966E0,3.801792860E0,1.497228026E0
3.184357058E1,1.634913325E0,4.357727051E0,1.897634029E0
3.186384235E1,1.680719733E0,4.753339291E0,2.352900982E0
3.188411407E1,1.104545236E0,2.686728001E0,2.414153814E0
3.190438584E1,7.572692633E-1,1.288969040E0,2.130394220E0
3.192465761E1,9.628651738E-1,1.257543683E0,2.070739269E0
3.194492933E1,9.213199019E-1,1.742638111E0,1.884850860E0
3.196520105E1,7.711177468E-1,1.713876009E0,1.569133401E0
3.198547282E1,8.781766891E-1,1.059404731E0,1.462607026E0
3.200574459E1,1.048618913E0,4.597944319E-1,1.518000722E0
3.202601631E1,1.051282048E0,7.282408476E-1,1.475922823E0
3.204628803E1,8.382292986E-1,1.116396308E0,1.416267991E0
3.206655980E1,6.167876720E-1,1.357145905E0,1.468465924E0
3.208683152E1,6.114613414E-1,1.323590040E0,1.570731282E0
3.210710329E1,7.657914162E-1,9.629983306E-1,1.597895503E0
3.212737501E1,9.708546400E-1,6.589987278E-1,1.510543823E0
3.214764673E1,1.091762066E0,5.828323960E-1,1.303350091E0
3.216791850E1,1.092294693E0,2.836264372E-1,9.221188426E-1
3.218819022E1,1.050216794E0,-9.347688407E-2,6.287718415E-1
3.220846199E1,9.436904192E-1,-7.430213690E-2,4.705802202E-1
3.222873371E1,7.950861454E-1,2.159821987E-1,3.331612051E-1
3.224900543E1,6.427534223E-1,5.844302773E-1,1.669800729E-1
3.226940543E1,4.053328037E-1,6.909566522E-1,4.780370742E-2
3.228954892E1,2.242379934E-1,4.134554565E-1,1.997369342E-3
3.230986001E1,9.693899006E-2,5.299686641E-2,-1.039963663E-1
3.233025058E1,2.676474862E-2,5.060002208E-3,-2.723080218E-1
3.235052199E1,6.404897571E-2,3.379548788E-1,-4.383559823E-1
3.237079381E1,1.400821656E-1,6.510092616E-1,-5.198486447E-1
3.239090824E1,2.151832581E-1,5.567334294E-1,-5.597960353E-1
3.241117985E1,3.414169848E-1,1.749695539E-1,-4.362254739E-1
3.243157985E1,6.061350107E-1,-1.051947847E-1,-1.178447902E-1
3.245188110E1,6.608629227E-1,-6.962829232E-1,7.323687430E-3
3.247214527E1,5.555350184E-1,-7.163897902E-2,-2.584595978E-1
3.249225949E1,3.302317262E-1,7.692534924E-1,-8.266445994E-1
3.251253261E1,2.037316747E-2,8.044071794E-1,-1.211071610E0
3.253280537E1,-2.278332561E-1,5.040028691E-1,-1.529984951E0
3.255307798E1,-3.434143662E-1,1.706951857E0,-1.794170260E0
3.257335037E1,-3.934817612E-1,9.747162461E-1,-1.644500732E0
3.259362267E1,-2.161153555E-1,-4.287686199E-2,-1.655686021E0
3.261389490E1,3.635212034E-2,-8.655267209E-2,-1.493233323E0
3.263416699E1,-5.259739235E-2,-3.292996287E-1,-1.309608459E0
3.265443897E1,-3.066627681E-1,-3.058638275E-1,-1.302684307E0
3.267471100E1,-4.435491562E-1,-2.765690684E-1,-1.394829631E0
3.269498282E1,-5.547360182E-1,-3.207775056E-1,-1.424656987E0
3.271525470E1,-7.390266657E-1,-2.126532495E-1,-1.366067410E0
3.273552657E1,-8.812393546E-1,1.195758432E-1,-1.231844187E0
3.275579839E1,-8.700540662E-1,3.703122735E-1,-1.059271574E0
3.277607016E1,-7.582014203E-1,4.624575675E-1,-9.193225503E-1
3.279634194E1,-6.175866127E-1,4.113249183E-1,-8.580698371E-1
3.281661371E1,-4.217112362E-1,1.739042848E-1,-8.767119646E-1
3.283701376E1,-2.257027328E-1,-1.488705873E-1,-9.335704446E-1
3.285715720E1,-6.964161247E-2,-3.143859208E-1,-1.012399912E0
3.287742897E1,-2.010685205E-2,-3.202448785E-1,-1.076848388E0
3.289770074E1,-1.021321490E-1,-2.211753577E-1,-1.101882100E0
3.291797246E1,-2.198437899E-1,5.299686641E-2,-1.074717879E0
3.293824418E1,-3.929491341E-1,5.913544893E-1,-9.868336320E-1
3.295851589E1,-5.797697306E-1,1.154745817E0,-8.431561589E-1
3.297878766E1,-6.740455627E-1,1.515204430E0,-7.733814120E-1
3.299905933E1,-6.282392144E-1,1.597762346E0,-7.179877162E-1
3.301933110E1,-4.355596602E-1,1.302817464E0,-5.054675937E-1
3.303960282E1,-1.069258377E-1,6.558029056E-1,-1.876195520E-1
3.305987454E1,8.109319210E-2,2.862896025E-1,-8.162582666E-2
3.308014626E1,3.528685868E-2,3.038664460E-1,-1.817606091E-1
3.310041793E1,-5.685844645E-2,3.081275225E-1,-2.685796022E-1
3.312068970E1,-1.447426975E-1,2.665822208E-1,-3.292996287E-1
3.314096142E1,-2.587259114E-1,2.277000993E-1,-3.287670016E-1
3.316123308E1,-2.981406748E-1,5.512739345E-2,-3.431480527E-1
3.318150480E1,-2.086585164E-1,-4.230428338E-1,-3.692470193E-1
3.320177652E1,-1.932121962E-1,-7.835013866E-1,-3.053312004E-1
3.322204824E1,-1.958753467E-1,-5.785713196E-1,2.234390527E-1
3.324231996E1,7.519429922E-1,1.083905771E-1,8.512787819E-1
3.326259168E1,1.824397087E0,1.124385715E0,1.008405209E0
3.328286334E1,2.175934076E0,2.393381119E0,1.257543683E0
3.330313506E1,1.933054090E0,3.224553108E0,1.435975432E0
3.332340678E1,1.480450153E0,3.008437634E0,1.333177447E0
3.334367845E1,1.107740998E0,1.689374924E0,1.407213211E0
3.336395016E1,8.488819599E-1,4.986765385E-1,1.425322771E0
3.338422188E1,2.998717129E-1,4.480765164E-1,1.359276414E0
3.340449360E1,-3.849596381E-1,2.123869419E0,1.594699621E0
3.342476527E1,9.108003974E-2,4.096870899E0,2.295510054E0
3.344503699E1,3.062632978E-1,2.363021135E0,2.561160088E0
3.346543699E1,3.552654386E-1,-2.978743315E-1,2.261421442E0
3.348558043E1,4.649875760E-1,-1.415069580E0,1.945570827E0
3.350585209E1,4.601939023E-1,-6.834998131E-1,1.840109825E0
3.352612381E1,3.984085917E-1,6.941524148E-1,1.972735047E0
3.354639548E1,2.498043180E-1,8.922914863E-1,2.108023643E0
3.356666720E1,2.141179889E-1,5.139897019E-2,1.871535063E0
3.358693892E1,3.456780612E-1,-7.238466144E-1,1.306545854E0
3.360733892E1,4.388886094E-1,-9.193225503E-1,6.617950201E-1
3.362748230E1,3.600591123E-1,-6.952176690E-1,1.973400861E-1
3.364775397E1,2.322274745E-1,-5.343628526E-1,3.062632866E-3
3.366802569E1,-4.354264960E-2,-4.438154697E-1,-1.572595388E-1
3.368829740E1,-3.316964805E-1,-2.701774836E-1,-4.133222997E-1
3.370856902E1,-4.732433856E-1,2.103895694E-2,-7.339666486E-1
3.372896902E1,-5.787044764E-1,2.042642981E-1,-1.004410505E0
3.374911246E1,-7.928224802E-1,1.142495275E-1,-1.156743169E0
3.376938418E1,-9.361004233E-1,1.744369268E-1,-9.335704446E-1
3.378965584E1,-8.870983124E-1,1.065796256E0,-1.721732318E-1
3.381004636E1,-8.823046088E-1,7.190529723E-3,-7.257108390E-2
3.383035720E1,-8.311719298E-1,1.701758653E-1,-8.271772265E-1
3.385062902E1,-7.789740562E-1,-5.199818015E-1,-8.974846005E-1
3.387074329E1,-4.456796646E-1,-1.147288918E0,-1.239301085E0
3.389101490E1,-4.705802202E-1,-4.406196773E-1,-1.486841679E0
3.391128647E1,-5.179844499E-1,-9.123983383E-1,-1.277117968E0
3.393168647E1,-2.182458937E-1,-1.144093156E0,-1.187103152E0
3.395198761E1,1.651158631E-1,-9.853688478E-1,-1.134905219E0
3.397225334E1,3.744401634E-1,-9.416930676E-1,-9.415599108E-1
3.399236657E1,3.488738537E-1,-8.474172354E-1,-8.394277692E-1
3.401263949E1,1.438105851E-1,-5.807018280E-1,-1.045955777E0
3.403291214E1,-1.213068962E-1,-4.416849315E-1,-1.328250647E0
3.405318459E1,-3.876228034E-1,-4.145207107E-1,-1.521995425E0
3.407345694E1,-6.495444775E-1,-4.432828426E-1,-1.608281732E0
3.409372907E1,-8.242477179E-1,-4.001396596E-1,-1.613608122E0
3.411400126E1,-8.061382771E-1,-2.701774836E-1,-1.537974358E0
3.413427324E1,-5.888244510E-1,-1.806953400E-1,-1.386840105E0
3.415454522E1,-3.764375448E-1,-1.988048255E-1,-1.203082085E0
3.417481714E1,-3.221091032E-1,-2.312953621E-1,-1.041162014E0
3.419508892E1,-3.886880577E-1,-1.169126853E-1,-8.500803709E-1
3.421536079E1,-4.556665123E-1,2.335590571E-1,-6.189181805E-1
3.423563256E1,-4.860265255E-1,6.648576856E-1,-4.990760088E-1
3.425590433E1,-5.398223400E-1,1.062067866E0,-4.724444151E-1
3.427617600E1,-5.478118062E-1,1.223455310E0,-4.484759867E-1
3.429644782E1,-4.398207366E-1,9.502151608E-1,-4.308991432E-1
3.431671949E1,-2.528669536E-1,4.070638716E-1,-4.388886094E-1
3.433699121E1,-7.443529367E-2,-6.045371294E-2,-5.044023395E-1
3.435726293E1,-8.881635964E-2,-2.440785319E-1,-5.587307811E-1
3.437753464E1,-3.189133108E-1,-2.344911546E-1,-4.522044063E-1
3.439780636E1,-5.616602302E-1,-1.584579647E-1,-2.952111959E-1
3.441807803E1,-5.243760347E-1,-2.701774836E-1,-2.414153665E-1
3.443834970E1,-1.724395454E-1,-8.649940491E-1,-2.089248300E-1
3.445862131E1,3.315633163E-2,-1.387372732E0,-7.097318769E-2
3.447889313E1,-1.671132296E-1,-1.316000104E0,3.954791129E-1
3.449916480E1,1.539305896E-1,-7.680550814E-1,1.101083159E0
3.451943647E1,1.405881643E0,-1.579253376E-1,1.303882718E0
3.453970813E1,2.191913128E0,8.438219428E-1,1.352352142E0
3.455997980E1,2.405365229E0,1.956223488E0,1.581383824E0
3.458025147E1,2.201500416E0,2.784732342E0,1.647430182E0
3.460052313E1,1.782851815E0,2.692586899E0,1.528120637E0
3.462079480E1,1.456481695E0,1.543966532E0,1.618135452E0
3.464106647E1,8.462188244E-1,5.471460223E-1,1.654887080E0
3.466133813E1,-4.993423447E-2,5.679186583E-1,1.674061775E0
3.468160985E1,-9.824393988E-1,1.904558182E0,1.934918284E0
3.470188152E1,4.700475931E-2,4.050531864E0,2.349172592E0
3.472215319E1,6.342313290E-1,1.979126692E0,2.325204134E0
3.474242485E1,4.314317703E-1,-1.075916290E0,1.900829792E0
3.476269652E1,3.456780612E-1,-1.680852890E0,1.663941860E0
3.478296819E1,4.591286182E-1,-4.395544231E-1,1.862480283E0
3.480323985E1,5.129244328E-1,3.740406930E-1,2.110686779E0
3.482351152E1,4.143875539E-1,3.251717389E-1,1.991377234E0
3.484378319E1,3.296990991E-1,-4.363586307E-1,1.458345890E0
3.486405485E1,3.818970025E-1,-9.853688478E-1,7.894935012E-1
3.488432652E1,3.424822688E-1,-9.193225503E-1,2.990727723E-1
3.490459819E1,1.310274303E-1,-7.053377032E-1,1.404816359E-1
3.492486985E1,-2.054627240E-1,-6.068007946E-1,-4.913528636E-2
3.494514152E1,-4.062649310E-1,-4.475438893E-1,-3.777691126E-1
3.496554152E1,-4.929507375E-1,-1.265000552E-1,-7.499455810E-1
3.498568485E1,-6.820350289E-1,1.579253376E-1,-1.077913642E0
3.500595652E1,-1.007872581E0,2.090579867E-1,-1.246225357E0
3.502622819E1,-1.331712723E0,3.692470193E-1,-1.131176829E0
3.504649985E1,-1.455815911E0,1.530650735E0,-4.335623085E-1
3.506677152E1,-1.257144213E0,7.723161485E-3,-3.527354300E-1
3.508704319E1,-8.215845823E-1,1.664474458E-1,-9.246488214E-1
3.510731480E1,-4.721781015E-1,-1.276585340E0,-8.490151167E-1
3.512758647E1,-3.482080400E-1,-1.040762544E0,-1.284574747E0
3.514785813E1,-2.885532975E-1,-5.993439555E-1,-1.494298577E0
3.516812980E1,-2.459427416E-1,-1.002413034E0,-1.269661069E0
3.518840147E1,-4.673844203E-2,-1.102547884E0,-1.239301085E0
3.520867313E1,1.065263674E-1,-9.076046348E-1,-1.301086426E0
3.522894480E1,1.187768951E-1,-8.793751597E-1,-1.257943153E0
3.524921647E1,-8.242477477E-2,-9.251814485E-1,-1.219593763E0
3.526948808E1,-4.451470375E-1,-9.113330245E-1,-1.242496848E0
3.528975975E1,-7.619298100E-1,-8.122635484E-1,-1.305347443E0
3.531015975E1,-8.439550996E-1,-5.386239290E-1,-1.373524308E0
3.533046105E1,-7.667235136E-1,-1.195758432E-1,-1.337837934E0
3.535057532E1,-6.282392144E-1,4.500738904E-2,-1.151949525E0
3.537084694E1,-4.988096952E-1,-1.462074369E-1,-9.251814485E-1
3.539111839E1,-3.822965026E-1,-4.523375630E-1,-8.080024719E-1
3.541150876E1,-2.720417082E-1,-6.403566003E-1,-8.245140314E-1
3.543181959E1,-2.150501013E-1,-5.705818534E-1,-9.134635925E-1
3.545193392E1,-3.077280223E-1,-7.803056389E-2,-9.076046348E-1
3.547220537E1,-4.350270331E-1,5.135902166E-1,-7.643266916E-1
3.549247688E1,-5.366265774E-1,1.009337306E0,-6.498108506E-1
3.551274845E1,-6.170539856E-1,1.304947972E0,-5.693834424E-1
3.553314845E1,-5.424855351E-1,1.045023680E0,-4.335623085E-1
3.555329168E1,-2.352901101E-1,3.767038584E-1,-3.522028029E-1
3.557356319E1,2.729738131E-2,1.571263932E-2,-5.049349666E-1
3.559383480E1,5.459476262E-3,2.583264373E-2,-7.078676820E-1
3.561410642E1,-1.511342824E-1,-2.157158963E-2,-7.531414032E-1
3.563450642E1,-4.286354482E-1,-1.547295451E-1,-6.514087319E-1
3.565464970E1,-6.697844863E-1,-3.005374968E-1,-4.788360000E-1
3.567492131E1,-5.360939503E-1,-7.371624112E-1,-3.223754168E-1
3.569519298E1,-3.013364673E-1,-1.057274222E0,-1.561942846E-1
3.571546459E1,4.593949392E-2,-6.153228879E-1,2.362222075E-1
3.573586459E1,7.301050425E-1,1.163800508E-1,8.699209094E-1
3.575600782E1,1.500157475E0,7.468829751E-1,1.313470125E0
3.577627949E1,1.959152937E0,1.417865872E0,1.484977484E0
3.579655116E1,1.973534107E0,2.176599979E0,1.682583928E0
3.581682277E1,1.661012292E0,2.586060762E0,1.701758623E0
3.583722277E1,1.442100644E0,2.018940926E0,1.676725030E0
3.585736605E1,1.262071133E0,1.047154188E0,1.910417199E0
3.587763761E1,7.407577038E-1,3.374222517E-1,1.980191946E0
3.589790933E1,8.162582666E-2,8.282424510E-2,2.045172930E0
3.591818095E1,-5.542033911E-1,9.257140756E-1,2.236920595E0
3.593858095E1,1.155811027E-1,3.240531921E0,2.512157917E0
3.595872423E1,5.033370852E-1,1.851827741E0,2.495646477E0
3.597899589E1,3.968107104E-1,-1.186703682E0,2.236920595E0
3.599926746E1,2.972085476E-1,-1.922534585E0,2.043042421E0
3.601953918E1,3.531349003E-1,-6.701840162E-1,2.109088898E0
3.603981084E1,3.701791167E-1,3.006706536E-1,2.160754204E0
3.606008246E1,3.296990991E-1,3.777691126E-1,1.841707706E0
3.608035412E1,2.913496196E-1,-2.978743315E-1,1.144758940E0
3.610062574E1,2.780338228E-1,-8.399603963E-1,4.705802202E-1
3.612089740E1,2.514022291E-1,-9.283772707E-1,5.845634267E-2
3.614116902E1,7.949529588E-2,-7.201182246E-1,-1.103879437E-1
3.616144069E1,-2.523343265E-1,-2.813627720E-1,-2.813627720E-1
3.618171230E1,-5.584644675E-1,4.012049139E-1,-6.167876720E-1
3.620211230E1,-8.503466845E-1,8.171903491E-1,-9.985514879E-1
3.622225558E1,-1.088832617E0,2.889527678E-1,-1.157275796E0
3.624252720E1,-1.231577873E0,-4.528702199E-1,-1.237170577E0
3.626279886E1,-1.014264107E0,6.776408553E-1,-1.186570525E0
3.628307048E1,-7.651256323E-1,1.421061754E0,-5.161202550E-1
3.630334214E1,-6.953508258E-1,-1.373524308E0,-6.572676897E-1
3.632361376E1,-5.744433999E-1,-3.111901283E-1,-8.266445994E-1
3.634388543E1,-7.677887678E-1,-3.282343447E-1,-9.692567587E-1
3.636415704E1,-5.462139249E-1,-1.035968885E-1,-1.391633749E0
3.638442866E1,-7.869634777E-2,-6.169208288E-1,-1.468199611E0
3.640470032E1,2.008021921E-1,-1.582315922E0,-1.263269544E0
3.642497194E1,2.982738316E-1,-1.712278128E0,-1.154612660E0
3.644524355E1,2.450106442E-1,-1.312804222E0,-1.004943132E0
3.646551522E1,6.138581783E-2,-7.504782081E-1,-8.372972012E-1
3.648578683E1,-2.629869580E-1,-2.366216928E-1,-9.596694112E-1
3.650605845E1,-5.861613154E-1,-1.784316637E-2,-1.321859002E0
3.652633006E1,-7.667235136E-1,-5.299686641E-2,-1.585378647E0
3.654660173E1,-8.258456588E-1,-4.820318148E-2,-1.679121852E0
3.656687334E1,-7.827024460E-1,9.720530361E-2,-1.601890206E0
3.658714496E1,-5.930855274E-1,-5.779055133E-2,-1.333044291E0
3.660741662E1,-4.137217700E-1,-4.944154918E-1,-1.060869455E0
3.662768824E1,-3.375554085E-1,-8.655267358E-1,-9.113330245E-1
3.664795985E1,-2.603237927E-1,-9.890972972E-1,-8.335688114E-1
3.666823147E1,-2.209090441E-1,-6.121271253E-1,-6.940192580E-1
3.668850308E1,-3.002711833E-1,9.614004195E-2,-4.543349445E-1
3.670877475E1,-4.057323039E-1,7.878956199E-1,-2.621880174E-1
3.672904636E1,-4.456796646E-1,1.181377411E0,-2.078595608E-1
3.674931798E1,-4.094607234E-1,1.142495275E0,-2.888196111E-1
3.676958959E1,-2.528669536E-1,6.696513295E-1,-4.426170290E-1
3.678986121E1,-9.520793706E-2,2.181127369E-1,-5.358276367E-1
3.681013287E1,-1.202416345E-1,2.000032514E-1,-5.566002727E-1
3.683040444E1,-1.735048145E-1,2.543317080E-1,-5.571328998E-1
3.685067610E1,-1.431448013E-1,2.346243113E-1,-6.087981462E-1
3.687094772E1,-1.468732208E-1,1.637842804E-1,-6.364950538E-1
3.689121933E1,-2.502037883E-1,4.127896577E-2,-5.901560783E-1
3.691149095E1,-2.544648647E-1,-4.198470414E-1,-5.139896870E-1
3.693176251E1,-1.559279710E-1,-1.161137342E0,-4.351601899E-1
3.695203418E1,-2.933469713E-1,-1.582848668E0,-1.657816470E-1
3.697230579E1,-5.771065950E-1,-1.162735224E0,4.444812536E-1
3.699257741E1,3.328948915E-1,2.636527456E-2,8.997483253E-1
3.701284902E1,1.492700696E0,1.255413175E0,1.133573651E0
3.703324902E1,2.131725788E0,2.119608402E0,1.394430161E0
3.705339230E1,2.193511009E0,2.493515968E0,1.697497606E0
3.707366392E1,1.761013985E0,2.488189459E0,1.650626063E0
3.709393553E1,1.242896318E0,1.843838215E0,1.648495436E0
3.711420733E1,8.414251208E-1,1.255945802E0,1.940777183E0
3.713460733E1,3.818970025E-1,1.438105941E0,2.090979338E0
3.715475056E1,-1.724395454E-1,2.191513538E0,2.162884712E0
3.717502217E1,-3.822965026E-1,2.807102919E0,2.484993696E0
3.719529379E1,2.892190814E-1,1.786846638E0,2.585661173E0
3.721556540E1,3.728422821E-1,-1.185105816E-1,2.192179441E0
3.723596540E1,3.552654386E-1,-1.066328883E0,1.838511944E0
3.725610863E1,3.536675274E-1,-4.097270370E-1,1.796433926E0
3.727638025E1,3.259706795E-1,5.439502597E-1,2.012149811E0
3.729665186E1,2.290316820E-1,5.460807681E-1,2.181526661E0
3.731692348E1,1.922800839E-1,-1.950764060E-1,1.997236133E0
3.733732348E1,2.721748650E-1,-9.752488732E-1,1.421594381E0
3.735746670E1,3.664506972E-1,-1.213867903E0,7.452850938E-1
3.737773832E1,3.115896285E-1,-1.004011035E0,2.537990510E-1
3.739800994E1,2.284990549E-1,-6.526071429E-1,-5.659212917E-2
3.741828155E1,8.841688186E-2,-3.431480527E-1,-2.749711871E-1
3.743868155E1,-5.472791940E-2,-2.099900991E-1,-5.209138989E-1
3.745898275E1,-1.186437383E-1,-3.914843872E-2,-8.090677261E-1
3.747909691E1,-2.400837988E-1,-3.275685757E-2,-1.015063047E0
3.749936842E1,-4.588623047E-1,-1.243695319E-1,-1.060869455E0
3.751963999E1,-6.671213508E-1,-2.530001104E-2,-9.799094200E-1
3.753991155E1,-7.267761230E-1,3.006706536E-1,-6.716487408E-1
3.756018306E1,-6.468813419E-1,9.177246094E-1,-2.569948509E-2
3.758045462E1,-8.386288285E-1,-4.150533378E-1,-5.659212917E-2
3.760072624E1,-9.371656775E-1,1.259674281E-1,-7.137266397E-1
3.762099785E1,-9.387635589E-1,1.051947847E-1,-1.227050543E0
3.764126941E1,-6.554034352E-1,-1.007739425E0,-1.538506985E0
3.766154103E1,-6.000097394E-1,-7.994803786E-1,-1.299488425E0
3.768181259E1,-6.330329180E-1,-1.018392086E0,-9.022783041E-1
3.770208421E1,-6.889592409E-1,-8.692551255E-1,-1.065130472E0
3.772235587E1,-4.488754570E-1,-8.271772265E-1,-1.181244254E0
3.774262749E1,-9.946899116E-2,-1.077514172E0,-1.189766288E0
3.776289910E1,7.363634557E-2,-1.393764257E0,-1.194560051E0
3.778317066E1,-8.921583183E-3,-1.510410666E0,-1.174852610E0
3.780344228E1,-1.948100924E-1,-1.374056935E0,-1.145557880E0
3.782371389E1,-3.290333152E-1,-1.112667918E0,-1.130111575E0
3.784398551E1,-3.902859688E-1,-7.973498106E-1,-1.164732575E0
3.786425712E1,-4.494080842E-1,-4.363586307E-1,-1.187103152E0
3.788452874E1,-5.174518228E-1,-2.259690464E-1,-1.122122049E0
3.790480035E1,-5.531381369E-1,-1.600558609E-1,-1.033172607E0
3.792507197E1,-4.615254700E-1,-1.147821546E-1,-9.916272759E-1
3.794534358E1,-2.731069624E-1,-7.749792933E-2,-9.522125125E-1
3.796561520E1,-1.511342824E-1,-1.584579647E-1,-9.113330245E-1
3.798588676E1,-2.214416862E-1,-1.419463754E-1,-8.058719635E-1
3.800615848E1,-3.838943839E-1,1.019989923E-1,-5.773729086E-1
3.802643009E1,-4.110586047E-1,4.251733422E-1,-3.936149180E-1
3.804670171E1,-3.242396116E-1,7.985482812E-1,-3.170490861E-1
3.806697332E1,-2.304964215E-1,9.251814485E-1,-2.701774836E-1
3.808724494E1,-2.257027328E-1,7.159903049E-1,-2.616553903E-1
3.810751655E1,-2.225069404E-1,4.091944098E-1,-2.749711871E-1
3.812778822E1,-1.617869139E-1,3.454117477E-1,-3.298322558E-1
3.814805983E1,-1.218395308E-1,5.530049801E-1,-3.994738758E-1
3.816833144E1,-1.559279710E-1,7.942872047E-1,-5.129244328E-1
3.818860306E1,-1.575258672E-1,7.586008906E-1,-6.546044946E-1
3.820887467E1,-1.724395454E-1,4.826975763E-1,-7.211834788E-1
3.822927467E1,-2.288985252E-1,1.435442716E-1,-6.892255545E-1
3.824941790E1,-2.352901101E-1,-3.937480748E-1,-5.848297477E-1
3.826968952E1,-2.278332561E-1,-1.067394137E0,-3.884217441E-1
3.828996118E1,-3.530017436E-1,-1.372459054E0,-3.848264739E-2
3.831023280E1,-2.954775095E-1,-6.547376513E-1,3.874896467E-1
3.833050441E1,4.037349224E-1,5.295692086E-1,8.576703668E-1
3.835077603E1,1.076848388E0,1.503486514E0,1.103213668E0
3.837104764E1,1.490037560E0,1.826261401E0,1.149019957E0
3.839131926E1,1.676458597E0,1.716539145E0,1.264467955E0
3.841159092E1,1.581117511E0,1.809749722E0,1.530251265E0
3.843186249E1,1.333443761E0,1.725593925E0,1.690573454E0
3.845226249E1,9.287767410E-1,1.200552106E0,1.814010859E0
3.847240577E1,4.484759867E-1,9.102677703E-1,1.917341352E0
3.849267744E1,2.476737946E-1,1.720800281E0,1.890709758E0
3.851294905E1,6.880271435E-1,3.245858431E0,2.188451052E0
3.853334905E1,5.566002727E-1,2.629736423E0,2.448242188E0
3.855349228E1,3.312969804E-1,8.779103756E-1,2.357694864E0
3.857376394E1,5.874928832E-1,-3.021354079E-1,2.042509794E0
3.859403556E1,8.073366880E-1,-7.042724490E-1,1.625592351E0
3.861430717E1,7.370292544E-1,-6.737792492E-2,1.418931127E0
3.863470717E1,5.528718233E-1,1.055676222E0,1.678322911E0
3.865485046E1,3.435475230E-1,1.204813123E0,2.017476082E0
3.867512207E1,3.211769760E-1,4.118575454E-1,1.889644504E0
3.869539368E1,5.352949500E-1,-4.150533378E-1,1.285240531E0
3.871566535E1,6.661892533E-1,-5.870934129E-1,5.914876461E-1
3.873606535E1,5.550023317E-1,-3.926828206E-1,1.314269006E-1
3.875620858E1,3.190464675E-1,-2.233058959E-1,-8.588688076E-2
3.877648025E1,-2.063948289E-2,-2.263685316E-2,-2.275669426E-1
3.879675186E1,-3.348922431E-1,3.761712313E-1,-3.798996508E-1
3.881702348E1,-5.510076284E-1,1.039697289E0,-7.078676820E-1
3.883742348E1,-7.289066315E-1,1.304947972E0,-1.078446269E0
3.885756676E1,-8.684561849E-1,6.973482370E-1,-1.241964221E0
3.887783837E1,-8.817719817E-1,-1.675127149E-1,-1.227050543E0
3.889811004E1,-7.550055981E-1,-5.838976502E-1,-1.157808423E0
3.891838165E1,-5.105276108E-1,-2.712427676E-1,-8.841688037E-1
3.893878165E1,-1.744369231E-2,6.621944904E-1,5.419528857E-2
3.895892494E1,-2.310290486E-1,-4.022701681E-1,3.635212183E-1
3.897919655E1,-2.703106403E-2,2.050632425E-2,-4.079959691E-1
3.899946816E1,5.925529078E-2,1.180312157E0,-9.225183129E-1
3.901973983E1,6.657897611E-4,9.986846894E-2,-1.251019001E0
3.904001145E1,6.085318699E-2,-4.864259958E-1,-1.493765950E0
3.906028311E1,-2.649843320E-2,-1.972069293E-1,-1.455016971E0
3.908055473E1,-2.299637944E-1,-4.715123177E-1,-1.376187444E0
3.910082634E1,-5.307676196E-1,-3.255712092E-1,-1.206810594E0
3.912109801E1,-5.850960612E-1,7.217161357E-2,-1.001214623E0
3.914136962E1,-3.897533417E-1,-1.038632076E-2,-8.687224984E-1
3.916164129E1,-2.134522051E-1,-2.717753947E-1,-9.394294024E-1
3.918191290E1,-1.665806025E-1,-3.777691126E-1,-1.146090508E0
3.920218457E1,-3.641870022E-1,-4.816323221E-1,-1.245692611E0
3.922245619E1,-5.984118581E-1,-5.604618192E-1,-1.203082085E0
3.924272785E1,-7.507445216E-1,-4.177165031E-1,-1.166863203E0
3.926299947E1,-8.119972348E-1,-1.009337306E-1,-1.134372592E0
3.928327103E1,-7.954856157E-1,1.099884734E-1,-1.110404134E0
3.930354275E1,-7.448856235E-1,1.403484792E-1,-1.086968422E0
3.932381436E1,-6.655234694E-1,-1.331579522E-3,-9.958883524E-1
3.934408603E1,-5.233107805E-1,-2.403501123E-1,-8.399603963E-1
3.936435764E1,-3.364901543E-1,-2.834932804E-1,-7.036066055E-1
3.938462931E1,-2.805638015E-1,9.400951862E-2,-6.130592227E-1
3.940490092E1,-3.045322299E-1,7.090660930E-1,-5.443497300E-1
3.942517254E1,-3.386206925E-1,1.199486852E0,-4.569981098E-1
3.944544420E1,-3.913512230E-1,1.501355886E0,-3.639206886E-1
3.946571582E1,-4.089280665E-1,1.537042260E0,-3.596596420E-1
3.948598749E1,-3.396859467E-1,1.276185870E0,-4.016043842E-1
3.950625910E1,-2.230395675E-1,7.996135354E-1,-3.916175365E-1
3.952653077E1,-1.937448233E-1,5.024049878E-1,-3.580617309E-1
3.954680238E1,-1.953427196E-1,5.258407593E-1,-3.708449006E-1
3.956707405E1,-1.740374416E-1,7.378282547E-1,-3.639206886E-1
3.958734561E1,-1.314269006E-1,9.331709743E-1,-2.680469751E-1
3.960761733E1,-8.828372508E-2,1.103613138E0,-2.334259003E-1
3.962788894E1,-7.017423958E-2,1.133973122E0,-2.621880174E-1
3.964816061E1,-1.410142779E-1,1.128114223E0,-2.430132627E-1
3.966843223E1,-1.692437679E-1,9.619330764E-1,-2.275669426E-1
3.968870389E1,-7.230477035E-2,5.588639379E-1,-3.213101327E-1
3.970897551E1,6.351634115E-2,8.255792782E-3,-3.047985733E-1
3.972924717E1,1.422126889E-1,-3.356912136E-1,-4.807002097E-2
3.974951879E1,4.181159735E-1,-1.254348010E-1,2.335590571E-1
3.976979046E1,7.498124242E-1,6.190513372E-1,4.673844278E-1
3.979006207E1,1.182176352E0,1.476322293E0,7.021418810E-1
3.981033374E1,1.707750797E0,1.895503521E0,1.122920990E0
3.983060535E1,1.852094054E0,2.066345215E0,1.327851176E0
3.985087702E1,1.527321696E0,1.806553960E0,1.194826365E0
3.987114863E1,1.014530420E0,1.111070037E0,1.003611565E0
3.989142030E1,5.166528821E-1,5.881586671E-1,1.071788430E0
3.991169191E1,1.683116555E-1,1.102547884E0,1.222922683E0
3.993196353E1,1.832253486E-1,2.412023306E0,1.455150127E0
3.995223520E1,2.221074700E-1,2.461557865E0,1.666072369E0
3.997250686E1,3.368896246E-2,1.104145765E0,1.685779691E0
3.999277848E1,-5.099949613E-2,-2.664490640E-1,1.531316519E0
4.001305009E1,7.683213800E-2,-7.680550814E-1,1.314535379E0
4.003345009E1,1.763011366E-1,-4.656533599E-1,1.128247380E0
4.005359337E1,1.219726875E-1,1.456748098E-1,1.001480937E0
4.007386504E1,-7.390266657E-2,8.438219428E-1,8.805735707E-1
4.009413665E1,-3.125217259E-1,1.267131090E0,6.452834606E-1
4.011440832E1,-4.222438633E-1,1.068992019E0,3.123885691E-1
4.013480832E1,-2.832269669E-1,4.816323221E-1,4.620581120E-2
4.015495160E1,-6.005423889E-2,9.614004195E-2,-1.055942550E-1
4.017522322E1,8.428898454E-2,-5.725792050E-2,-2.387522161E-1
4.019549483E1,1.182442605E-1,-8.655267209E-2,-3.388870060E-1
4.021576650E1,1.065263674E-1,2.263685316E-2,-4.042675495E-1
4.023616650E1,8.322372288E-2,1.962748319E-1,-5.161202550E-1
4.025630978E1,3.209106624E-2,3.411506712E-1,-6.833665967E-1
4.027658139E1,-6.271740049E-2,4.842954874E-1,-8.761793375E-1
4.029685306E1,-1.841574460E-1,7.181208730E-1,-1.065663099E0
4.031712467E1,-2.848248780E-1,9.837709665E-1,-1.196157932E0
4.033752467E1,-3.791007102E-1,1.209074259E0,-1.216397882E0
4.035766796E1,-4.546012580E-1,1.267663717E0,-1.182842135E0
4.037793962E1,-5.531381369E-1,1.092960477E0,-1.085903168E0
4.039821124E1,-5.941507816E-1,6.872282028E-1,-9.426251650E-1
4.041848285E1,-4.350270331E-1,4.502070546E-1,-8.676572442E-1
4.043875452E1,-1.069258377E-1,3.502054214E-1,-7.499455810E-1
4.045915452E1,2.098569423E-1,4.981439114E-1,-2.962764502E-1
4.047929780E1,5.507413149E-1,5.727123618E-1,5.989444852E-1
4.049956941E1,7.231808305E-1,9.816404581E-1,1.337971091E0
4.051984103E1,5.278381109E-1,1.111070037E0,1.378983736E0
4.054011270E1,5.150549412E-1,6.616618633E-1,9.524788260E-1
4.056038431E1,7.114629745E-1,4.358259737E-1,3.954791129E-1
4.058065598E1,5.885581374E-1,8.495477587E-2,2.564622164E-1
4.060092759E1,3.281011879E-1,-4.155859649E-1,4.407528341E-1
4.062119920E1,-1.005342528E-1,-5.492765903E-1,8.092008829E-1
4.064147087E1,-7.981488109E-1,-3.314301372E-1,9.700556993E-1
4.066174249E1,-1.385508537E0,-5.992107838E-2,8.315714002E-1
