"Time (s)","Gyroscope x (rad/s)","Gyroscope y (rad/s)","Gyroscope z (rad/s)"
4.610902900E-2,-5.394228697E-1,1.267663687E-1,-9.241162241E-2
6.622173800E-2,-7.348987460E-1,1.656484902E-1,6.311687082E-2
8.649152900E-2,-8.456861973E-1,5.326318368E-2,1.984053552E-1
1.067613730E-1,-8.627303839E-1,-1.399490088E-1,2.388853729E-1
1.270312690E-1,-8.685893416E-1,-8.775109053E-2,2.463422120E-1
1.473012170E-1,-1.126250029E0,1.411474347E-1,2.170474678E-1
1.675711130E-1,-1.511342764E0,2.860232890E-1,2.559295893E-1
1.878411130E-1,-1.672064424E0,2.609896064E-1,3.992075622E-1
2.081110080E-1,-1.607083321E0,3.446127772E-1,4.661859870E-1
2.283810610E-1,-1.421860695E0,-2.916159295E-2,5.141228437E-1
2.486510080E-1,-1.227450013E0,-5.925529003E-1,6.142576337E-1
2.689210610E-1,-1.013465166E0,-6.303697824E-1,6.355628967E-1
2.891911130E-1,-1.079910994E0,-3.066627681E-1,5.705818534E-1
3.094611130E-1,-1.361673236E0,1.842906028E-1,5.087965727E-1
3.297311130E-1,-1.553820133E0,6.651239991E-1,6.105292439E-1
3.500011650E-1,-1.798830867E0,9.921599030E-1,8.906935453E-1
3.702711650E-1,-2.220009327E0,6.848313808E-1,1.103080511E0
3.905412170E-1,-2.327068329E0,2.886864543E-1,8.949546218E-1
4.109412170E-1,-2.107091427E0,5.278381109E-1,7.325019240E-1
4.310813210E-1,-1.953826666E0,1.209873199E0,7.277082205E-1
4.513513730E-1,-2.003361464E0,2.115214109E0,6.819018722E-1
4.716213210E-1,-2.050233126E0,2.704704285E0,5.391565561E-1
4.918913730E-1,-2.168876886E0,3.227615595E0,3.752391040E-1
5.122913730E-1,-2.330264330E0,3.616303682E0,4.034686089E-1
5.324314250E-1,-2.547578096E0,3.530017376E0,6.222470999E-1
5.527015290E-1,-2.857969284E0,3.098718882E0,9.418262243E-1
5.729715290E-1,-3.009236574E0,2.478335857E0,1.472726941E0
5.932415810E-1,-2.878209114E0,2.025199413E0,1.939711928E0
6.136415810E-1,-2.450639009E0,2.118942499E0,2.021204710E0
6.337816860E-1,-1.741839170E0,2.199236870E0,1.702690721E0
6.540517380E-1,-9.628651738E-1,2.319611549E0,1.583381295E0
6.743217900E-1,-1.869537681E-1,2.327068329E0,1.549825430E0
6.945918420E-1,2.880206704E-1,2.230662107E0,1.510410666E0
7.149918420E-1,4.675175846E-1,1.881921411E0,1.463139653E0
7.351318940E-1,7.017424107E-1,1.577921748E0,1.419463754E0
7.554019460E-1,4.861596823E-1,8.531430364E-1,1.482846975E0
7.756719980E-1,1.491369121E-2,5.889576077E-1,1.105211020E0
7.959420500E-1,-1.134505793E-1,2.727074921E-1,9.864341021E-1
8.162121020E-1,-1.241032109E-1,-3.029343486E-1,1.202682614E0
8.364821540E-1,-2.982738316E-1,-4.993423223E-1,1.013065696E0
8.567522060E-1,-3.834949136E-1,-5.030707717E-1,4.379565120E-1
8.770222580E-1,-3.930822909E-1,-8.812393546E-1,2.452769578E-1
8.972923110E-1,-3.185138404E-1,-1.294428468E0,4.500738904E-2
9.175623630E-1,-5.303681493E-1,-6.037381887E-1,-2.984069884E-1
9.378324150E-1,-7.727156281E-1,-5.179844499E-1,-6.430197358E-1
9.581024670E-1,-6.864292622E-1,-3.647196293E-1,-6.844319105E-1
9.783725190E-1,-7.269092798E-1,-3.759049177E-1,-8.367645741E-1
9.986426230E-1,-8.728504181E-1,-5.099949837E-1,-8.793751597E-1
1.018912675E0,-9.836378098E-1,-7.603319287E-1,-5.892239809E-1
1.039182727E0,-1.784982443E0,-1.208674788E0,-4.560659826E-1
1.059452779E0,-1.990578294E0,-4.616586268E-1,-1.327584833E-1
1.079722883E0,-6.193176508E-1,2.849580348E-1,-1.849564016E-1
1.099992936E0,-2.657832801E-1,6.566019058E-1,1.494032294E-1
1.120263040E0,2.716422267E-2,6.811029315E-1,5.135902166E-1
1.140533092E0,5.079975724E-1,6.459492445E-1,7.575356364E-1
1.160803196E0,9.195888638E-1,4.820317924E-1,1.228781581E0
1.181203196E0,1.167129517E0,5.070654750E-1,1.425322771E0
1.201343352E0,1.515470743E0,5.411539078E-1,1.614806533E0
1.221613456E0,1.778990269E0,5.315665603E-1,1.833185554E0
1.241883508E0,1.501622319E0,6.145239472E-1,1.555684447E0
1.262153613E0,9.121319652E-1,7.993472219E-1,6.989461184E-1
1.282423717E0,7.363634706E-1,5.166528821E-1,1.797632426E-1
1.302693821E0,7.901592851E-1,-1.085237339E-1,1.600558609E-1
1.322963925E0,8.886961937E-1,-3.966775537E-1,-2.435459048E-1
1.343233925E0,6.926876903E-1,2.705769539E-1,-9.731183648E-1
1.363504081E0,4.856270552E-1,4.596612751E-1,-1.975265145E0
1.383774186E0,2.805638015E-1,2.569948509E-2,-3.531215906E0
1.404044342E0,-2.737727463E-1,1.275386930E0,-4.648943901E0
1.424314446E0,-1.976063997E-1,1.460210085E0,-5.549890518E0
1.444714446E0,2.929474972E-2,4.442149401E-1,-5.481846809E0
1.464854654E0,-4.388886094E-1,1.244494200E0,-4.155859947E0
1.485124758E0,-2.886864543E-1,9.330378175E-1,-2.416683674E0
1.505394915E0,4.147870243E-1,5.518065691E-1,-1.486974835E0
1.525665019E0,6.724476814E-1,5.475454926E-1,-1.434777021E0
1.545935123E0,7.422224283E-1,6.038713455E-1,-1.457147479E0
1.566205279E0,5.745765567E-1,7.716503739E-1,-1.397492766E0
1.586475383E0,4.781702161E-1,5.603286624E-1,-9.017456770E-1
1.606745540E0,5.474123359E-1,1.374190152E-1,-4.970786572E-1
1.627015644E0,6.058686972E-1,-4.087949172E-2,-6.137250066E-1
1.647285800E0,3.673827946E-1,1.475390196E-1,-6.940192580E-1
1.667555904E0,6.697845459E-2,-1.623195410E-1,-1.078046799E0
1.687826061E0,-3.440801501E-1,-3.817638457E-1,-1.703223348E0
1.708096217E0,-3.408843577E-1,-9.680583328E-2,-1.462473869E0
1.728366373E0,-1.214400530E-1,-3.828291297E-1,-6.131923795E-1
1.748636425E0,-8.468846232E-2,-2.166479975E-1,-1.094558388E-1
1.768906633E0,-1.720400751E-1,-1.388837546E-1,2.956106514E-2
1.789176790E0,-1.336905807E-1,-9.680583328E-2,3.435475379E-2
1.809446946E0,1.276984811E-1,1.757684946E-1,1.131842583E-1
1.829717102E0,2.757701278E-1,2.364885211E-1,-3.994738683E-3
1.849987258E0,3.822965026E-1,-1.021321490E-1,-4.523375630E-1
1.870257415E0,-2.743053734E-1,-7.997466922E-1,-9.789772630E-1
1.890527571E0,-7.812377214E-1,-3.595264861E-3,-2.749711871E-1
1.910927571E0,-3.014696240E-1,2.093243003E-1,7.053377032E-1
1.931067883E0,-2.519348562E-1,2.641853690E-1,8.070703745E-1
1.951338040E0,-4.829638898E-1,-4.376901984E-1,7.633945346E-1
1.971608248E0,-8.376966715E-1,-2.549974918E-1,5.040028691E-1
1.991878404E0,-6.752439737E-1,-4.407528415E-2,-7.323687524E-2
2.012278404E0,1.810948178E-2,1.986716688E-1,-9.507477880E-1
2.032418717E0,-4.527370632E-2,6.028060913E-1,-1.448625445E0
2.052688925E0,-5.063996911E-1,3.131875098E-1,-1.826128244E0
2.072959081E0,-8.669914603E-1,-1.424790081E-2,-2.367148876E0
2.093229290E0,-8.904272318E-1,6.285055727E-2,-2.813494444E0
2.113629290E0,-2.135853618E-1,3.312969804E-1,-2.607898474E0
2.133769654E0,3.231743574E-1,1.003877878E0,-2.245309353E0
2.154039758E0,2.033322006E-1,8.643282652E-1,-2.406563759E0
2.174310019E0,-3.568633273E-2,5.592634156E-2,-2.783134460E0
2.194580175E0,-9.587372839E-2,-4.057323039E-1,-2.663824797E0
2.214850383E0,-1.326253265E-1,-2.576606572E-1,-2.033854723E0
2.235120592E0,-1.933453530E-1,-2.012016773E-1,-1.695233941E0
2.255390852E0,-3.323622644E-1,-8.226498365E-1,-1.445962191E0
2.275660956E0,-5.394228697E-1,-6.580666304E-1,-1.279248476E0
2.295931113E0,-8.440882564E-1,-1.942774504E-1,-1.102547884E0
2.316201321E0,-7.077345252E-1,2.327601016E-1,-8.474172354E-1
2.336471529E0,-5.346291661E-1,3.259706795E-1,-5.684512854E-1
2.356741738E0,-2.194443047E-1,-7.922898233E-2,-4.113249183E-1
2.377011894E0,-9.321057051E-2,-5.568665862E-1,-3.175817132E-1
2.397282102E0,-2.024000883E-1,-4.993423223E-1,-4.214449227E-1
2.417682102E0,-3.025348783E-1,-1.584579609E-2,-3.660512269E-1
2.437822519E0,-2.258358896E-1,-4.940159991E-2,-2.675143182E-1
2.458092727E0,-4.048001766E-2,-1.037300453E-1,-2.233058959E-1
2.478362936E0,1.394163817E-1,-2.123869359E-1,-2.265016884E-1
2.498633144E0,4.687159881E-2,-3.977428079E-1,-2.584595978E-1
2.518903352E0,-3.462106735E-2,-6.857634783E-1,-3.814975321E-1
2.539173508E0,8.668582886E-2,-7.592666745E-1,-3.735080659E-1
2.559443717E0,1.287637353E-1,-1.958753467E-1,-2.296974659E-1
2.579713925E0,1.569932252E-1,-4.940159991E-2,1.145158429E-2
2.599984133E0,1.553953290E-1,1.544632316E-1,1.510011256E-1
2.620254342E0,2.012016773E-1,6.924213469E-2,1.350221634E-1
2.640524550E0,2.773680091E-1,8.655266836E-3,1.547295451E-1
2.660794758E0,3.689807057E-1,6.977476925E-2,2.394180000E-1
2.681064967E0,3.540669978E-1,3.243727684E-1,4.342280924E-1
2.701335175E0,3.636543751E-1,5.044023395E-1,7.724493146E-1
2.721605436E0,3.300985694E-1,4.601939023E-1,1.272457361E0
2.741875644E0,-5.326318089E-3,7.700524330E-1,1.525324345E0
2.762145852E0,-1.411474347E-1,5.273054838E-1,1.075916290E0
2.782416061E0,7.816372067E-2,-3.502054140E-2,6.456829309E-1
2.802686269E0,8.828372508E-2,-1.399490088E-1,5.551354885E-1
2.822956477E0,2.130527236E-2,1.747032404E-1,6.707166433E-1
2.843226686E0,1.118526794E-2,4.271707237E-1,6.430197358E-1
2.863496894E0,1.225053146E-2,6.597976685E-1,4.677838981E-1
2.883767102E0,-5.326318089E-3,8.451535702E-1,3.384875357E-1
2.904037311E0,-6.338318437E-2,7.066692710E-1,2.745717168E-1
2.924307571E0,-1.864211410E-1,4.245075583E-1,1.211737394E-1
2.944577779E0,-1.619200706E-1,1.565937549E-1,-5.592633970E-3
2.964847988E0,-9.427583218E-2,1.131842658E-2,-8.175898343E-2
2.985118196E0,-1.310274303E-1,-1.420795321E-1,-1.275653243E-1
3.005388404E0,-1.858884990E-1,-2.528669536E-1,-1.774995476E-1
3.025658665E0,-2.460758984E-1,-2.608564198E-1,-2.185122073E-1
3.045928873E0,-2.876211703E-1,-2.342248410E-1,-2.366216928E-1
3.066199081E0,-3.302317262E-1,-1.484711170E-1,-1.828258783E-1
3.086469290E0,-3.552654386E-1,-2.330264263E-2,-8.761793375E-2
3.106739498E0,-3.717769980E-1,1.299621612E-1,1.121189967E-1
3.127009706E0,-3.387538493E-1,3.882885873E-1,2.697780132E-1
3.147279915E0,-1.715074480E-1,5.326318145E-1,2.607232630E-1
3.167550175E0,2.130527282E-3,4.745749533E-1,1.829590350E-1
3.187820383E0,4.580633715E-2,3.861580789E-1,8.016108721E-2
3.208220383E0,2.077264152E-2,3.078611791E-1,2.050632425E-2
3.228360800E0,-4.420844093E-2,1.869537681E-1,-1.864211401E-3
3.248631008E0,-1.416800618E-1,1.310274303E-1,-4.447475821E-2
3.268901269E0,-2.322274745E-1,1.933453530E-1,-1.243695319E-1
3.289171477E0,-2.812296152E-1,2.796317041E-1,-2.499374747E-1
3.309441686E0,-3.073285520E-1,2.743053734E-1,-3.820301592E-1
3.329711894E0,-3.291664720E-1,2.162485123E-1,-4.933502376E-1
3.349982102E0,-3.563306928E-1,1.406148076E-1,-5.759081841E-1
3.370252363E0,-3.845601678E-1,6.444845349E-2,-6.366282105E-1
3.390522571E0,-3.643201590E-1,1.611211337E-2,-6.563355327E-1
3.410922571E0,-3.147853911E-1,7.510108501E-2,-6.057355404E-1
3.431220904E0,-2.950780392E-1,1.619200706E-1,-5.098618269E-1
3.451333769E0,-3.126548827E-1,2.551306486E-1,-4.129228294E-1
3.471603925E0,-3.062632978E-1,4.042675495E-1,-3.639206886E-1
3.491874029E0,-2.061285079E-1,4.708465338E-1,-3.484743834E-1
3.512274029E0,-1.731053442E-1,1.717737690E-2,-2.163816839E-1
3.532414394E0,-2.039979845E-1,-2.741722167E-1,-4.926844314E-2
3.552684498E0,-5.060002208E-2,3.049317189E-2,1.696432382E-1
3.572954654E0,1.953427196E-1,3.829622865E-1,3.454117477E-1
3.593224811E0,3.657849133E-1,4.058654606E-1,3.906854391E-1
3.613624811E0,5.388902426E-1,4.037349224E-1,3.560643792E-1
3.633765279E0,8.093340397E-1,2.753706574E-1,4.368912578E-1
3.654035436E0,1.107075214E0,-5.193160381E-3,6.366282105E-1
3.674305696E0,1.432380080E0,-3.071953952E-1,8.310387731E-1
3.694575852E0,1.739042878E0,-4.526038766E-1,1.004543662E0
3.714975852E0,2.017076731E0,-4.829638898E-1,1.178714275E0
3.735116269E0,2.312554121E0,-4.712460041E-1,1.378983736E0
3.755386477E0,2.630535364E0,-2.528669536E-1,1.686179161E0
3.775656686E0,2.747181654E0,2.450106442E-1,2.119075775E0
3.795926894E0,2.434526920E0,7.290397882E-1,2.489787340E0
3.816197050E0,1.804556608E0,8.835030198E-1,2.734132290E0
3.836467311E0,1.193761110E0,3.195790946E-1,2.489787340E0
3.856737519E0,9.158604145E-1,-4.270375669E-1,2.069540977E0
3.877007727E0,9.925593734E-1,-8.514119387E-1,1.982322454E0
3.897277936E0,1.069790959E0,-1.259807467E0,2.106825113E0
3.917548144E0,9.946899414E-1,-1.430249572E0,2.382728338E0
3.937818352E0,8.604667187E-1,-1.440902233E0,2.549442291E0
3.958088561E0,7.358308434E-1,-1.588308096E0,2.261288404E0
3.978358769E0,5.878923535E-1,-1.771533489E0,1.819869757E0
3.998628977E0,4.510059953E-1,-1.684714437E0,1.548760176E0
4.018899186E0,2.832269669E-1,-1.566603303E0,1.294827938E0
4.039169394E0,3.728422802E-3,-1.314135909E0,9.912278056E-1
4.059439602E0,-2.561959028E-1,-8.961530328E-1,7.548724413E-1
4.079709811E0,-4.324970245E-1,-4.169175625E-1,5.796365738E-1
4.099980019E0,-5.026713014E-1,-1.415469050E-1,4.550007284E-1
4.120250227E0,-4.767054915E-1,5.805686861E-2,3.986749053E-1
4.140520436E0,-5.101281404E-1,3.707117438E-1,3.699128032E-1
4.160790644E0,-7.199850678E-1,6.661892533E-1,3.070622385E-1
4.181060852E0,-1.064464688E0,7.961513996E-1,1.105211005E-1
4.201331061E0,-1.388837457E0,6.486123800E-1,-2.882869840E-1
4.221601269E0,-1.493765950E0,5.400886536E-1,-6.605966091E-1
4.241871477E0,-1.177915215E0,1.695500255E0,-3.479417264E-1
4.262141633E0,-6.597976685E-1,1.802559257E0,5.352949724E-2
4.282411842E0,-2.806969583E-1,-5.387570858E-1,-9.108003974E-1
4.302682050E0,-1.720400751E-1,-1.019723654E0,-1.485376954E0
4.322952258E0,-5.255744457E-1,-1.585911214E-1,-1.407612801E0
4.343222467E0,-9.937578440E-1,6.097303033E-1,-1.206277966E0
4.363492675E0,-1.308942676E0,1.127847910E0,-1.181377411E0
4.383762831E0,-1.328117490E0,1.204014182E0,-1.136103630E0
4.404033040E0,-1.112934232E0,1.279647946E0,-1.037566781E0
4.424303248E0,-8.584693074E-1,1.423991203E0,-1.111070037E0
4.444573456E0,-6.241113544E-1,1.339835286E0,-1.305347443E0
4.464843665E0,-4.904207587E-1,1.082707286E0,-1.399090648E0
4.485113873E0,-5.117260218E-1,1.006008387E0,-1.485909581E0
4.505384029E0,-5.857618451E-1,1.002279878E0,-1.548227549E0
4.525654238E0,-6.800376773E-1,9.165261984E-1,-1.484844327E0
4.545924446E0,-6.821681857E-1,6.107955575E-1,-1.424124360E0
4.566194602E0,-6.731134653E-1,4.061317816E-2,-1.216397882E0
4.586464811E0,-7.929556370E-1,-2.342248410E-1,-1.080177307E0
4.606735019E0,-9.202546477E-1,-3.625891209E-1,-1.108939409E0
4.627005175E0,-9.420925379E-1,-3.934817612E-1,-1.194693208E0
4.647275383E0,-8.142609000E-1,-2.150501013E-1,-1.193627954E0
4.667545592E0,-6.566019058E-1,1.086568907E-1,-1.182975292E0
4.687815696E0,-6.065344810E-1,5.310339332E-1,-1.068992019E0
4.708085956E0,-7.103977203E-1,9.628651738E-1,-8.223835230E-1
4.728356113E0,-6.645913720E-1,5.704486966E-1,-5.279712677E-1
4.748626321E0,-5.458144546E-1,-2.358227372E-1,-5.082638860E-1
4.768896477E0,-4.591286182E-1,-4.834965467E-1,-7.201182246E-1
4.789166633E0,-3.771033287E-1,-1.079910994E-1,-9.576719999E-1
4.809436842E0,-4.250401855E-1,3.030675054E-1,-9.619330764E-1
4.829707050E0,-4.106591344E-1,2.588590682E-1,-8.010782599E-1
4.849977206E0,-1.395495385E-1,4.900212586E-2,-5.950828791E-1
4.870247415E0,1.191763729E-1,-2.251701057E-1,-2.914827764E-1
4.890517571E0,2.736395895E-1,-4.982770681E-1,1.190432087E-1
4.910917571E0,3.620564938E-1,-3.588607013E-1,4.693817794E-1
4.931057936E0,6.687192321E-1,-1.958753467E-1,6.882934570E-1
4.951328144E0,1.221990585E0,-8.988162130E-2,9.725856781E-1
4.971598300E0,1.702291250E0,-1.010668874E-1,1.327318549E0
4.991868456E0,2.220408916E0,-1.548627019E-1,1.629187584E0
5.012268456E0,2.752374887E0,-1.990711391E-1,1.891775012E0
5.032408821E0,3.039996147E0,-2.715090811E-1,2.247972488E0
5.052678977E0,3.104444504E0,5.326318145E-1,2.955174446E0
5.072949186E0,2.830139160E0,1.893639326E0,3.423757315E0
5.093219342E0,1.973400950E0,2.556632757E0,3.419496298E0
5.113619342E0,8.594014645E-1,1.778058171E0,2.890726089E0
5.133759706E0,2.130527236E-2,-8.455529809E-2,2.145707369E0
5.154029863E0,-9.374319762E-2,-1.750228167E0,1.561010718E0
5.174300019E0,3.029343486E-1,-3.053311825E0,1.604153872E0
5.194570227E0,9.696562290E-1,-2.898848772E0,2.343846321E0
5.214840383E0,1.446228504E0,-8.604667187E-1,2.305496931E0
5.235110540E0,9.052077532E-1,-6.687192321E-1,1.396028042E0
5.255380748E0,3.625891209E-1,-9.451551437E-1,9.880320430E-1
5.275650904E0,1.058605760E-1,-1.135171533E0,9.157272577E-1
5.295921061E0,-6.125266105E-2,-1.462207556E0,7.447524667E-1
5.316191217E0,-2.119874656E-1,-1.245426297E0,4.045338631E-1
5.336461373E0,-3.542001545E-1,-7.033402920E-1,1.440769136E-1
5.356731581E0,-3.414169848E-1,-3.274354041E-1,-1.290300637E-1
5.377001738E0,-3.504717350E-1,2.689790726E-1,-1.535311192E-1
5.397271894E0,-7.631282210E-1,9.495493770E-1,7.057371736E-2
5.417542050E0,-1.325454235E0,1.341433287E0,1.403484792E-1
5.437812206E0,-1.579919100E0,1.246624827E0,-2.398174703E-1
5.458082363E0,-1.532115459E0,7.892271876E-1,-8.314382434E-1
5.478352519E0,-9.010798931E-1,1.415469050E0,-7.281076908E-1
5.498622727E0,-2.908169627E-1,9.266462326E-1,-1.689774394E-1
5.518892883E0,-6.072002649E-2,-9.904288650E-1,-8.372972012E-1
5.539163040E0,-4.793686420E-2,-1.598960757E0,-1.084971070E0
5.559433196E0,-5.042691827E-1,-2.906838059E-1,-1.059404731E0
5.579703352E0,-1.015462518E0,1.009204149E0,-1.018392086E0
5.599973508E0,-1.106009960E0,1.573128104E0,-1.191497326E0
5.620243665E0,-9.314398766E-1,1.560344934E0,-1.259008408E0
5.640513821E0,-7.700524330E-1,1.239167929E0,-1.215865254E0
5.660783925E0,-6.182523966E-1,9.942904711E-1,-1.281911612E0
5.681183925E0,-5.607281327E-1,9.889641404E-1,-1.430515885E0
5.701324238E0,-5.953491926E-1,1.055010438E0,-1.447027445E0
5.721594394E0,-6.219807863E-1,1.166197419E0,-1.409743309E0
5.741864550E0,-6.699176431E-1,1.363271117E0,-1.401753783E0
5.762134706E0,-8.158587813E-1,1.448492289E0,-1.365002155E0
5.782404863E0,-9.942904711E-1,1.101882100E0,-1.354349613E0
5.802675019E0,-1.118793130E0,7.146587372E-1,-1.302151680E0
5.822945175E0,-1.117195249E0,4.761728346E-1,-1.130777359E0
5.843215279E0,-1.080976248E0,3.051980436E-1,-1.047154188E0
5.863485436E0,-1.052746773E0,1.432779580E-1,-1.155811071E0
5.883755592E0,-9.985514879E-1,-2.916159295E-2,-1.357012749E0
5.904025748E0,-8.387619853E-1,-2.330264263E-2,-1.517334938E0
5.924295904E0,-6.555365920E-1,4.346275628E-1,-1.383644342E0
5.944566008E0,-4.994754791E-1,7.609977126E-1,-1.123320460E0
5.964836165E0,-3.526022732E-1,5.857618451E-1,-9.539436102E-1
5.985106321E0,-2.870885432E-1,1.864211410E-1,-7.792403698E-1
6.005376373E0,-4.175833464E-1,-1.585911214E-1,-5.380913019E-1
6.025646581E0,-4.255728126E-1,-2.752375007E-1,-2.685796022E-1
6.045916738E0,-1.560611278E-1,-1.265000552E-2,-8.255792782E-3
6.066186894E0,-7.350318879E-2,-3.608580679E-2,2.410158962E-1
6.086456998E0,3.302317113E-2,-1.133174226E-1,2.804306448E-1
6.106727154E0,3.173153996E-1,-1.010668874E-1,3.214432895E-1
6.126997258E0,4.808333814E-1,-8.388951421E-3,4.061317742E-1
6.147267415E0,5.117260218E-1,-4.407528415E-2,4.949481189E-1
6.167537571E0,4.217112362E-1,-2.938795984E-1,6.904240251E-1
6.187807675E0,4.131891429E-1,-5.041360259E-1,8.619314432E-1
6.208077831E0,6.037381887E-1,-4.478102028E-1,8.582029939E-1
6.228347988E0,8.982835412E-1,-3.316964805E-1,7.271755934E-1
6.248618092E0,1.289634824E0,-2.933469713E-1,5.886912942E-1
6.268888248E0,1.684714437E0,-3.998733461E-1,5.535376072E-1
6.289158404E0,1.932920933E0,-6.479465961E-1,7.186535001E-1
6.309428508E0,2.109754562E0,-8.551403880E-1,9.082704186E-1
6.329698665E0,2.397242785E0,-8.349003792E-1,1.196291089E0
6.349968769E0,2.842389822E0,-1.211737376E-2,1.829457164E0
6.370238925E0,3.064497232E0,1.161936283E0,2.578603745E0
6.390509029E0,2.477669954E0,1.733849764E0,2.932271242E0
6.410909029E0,1.387639046E0,1.107208371E0,2.720816612E0
6.431049290E0,3.625891209E-1,2.109221965E-1,2.358227491E0
6.451319394E0,-3.621896505E-1,-4.925512671E-1,2.048235655E0
6.471589550E0,-3.499391079E-1,-1.158074737E0,2.014812946E0
6.491859654E0,5.293028951E-1,-2.186853170E0,2.330530643E0
6.512259654E0,1.155411601E0,-2.024000883E0,2.424273729E0
6.532399915E0,9.046751261E-1,-1.445163250E0,1.839577198E0
6.552670019E0,3.732417524E-1,-1.553820133E0,1.364070058E0
6.572940175E0,1.846900880E-1,-1.471262217E0,1.054610968E0
6.593210279E0,4.953476042E-2,-1.364735842E0,8.166577220E-1
6.613610279E0,-1.145158410E-1,-1.265666366E0,5.189165473E-1
6.633750540E0,-2.897517085E-1,-7.645930052E-1,2.415485233E-1
6.654020644E0,-4.740423262E-1,-2.763027549E-1,5.566002429E-2
6.674290696E0,-5.271723270E-1,2.641853690E-1,-1.348890066E-1
6.694560852E0,-6.502103209E-1,1.121456265E0,-1.153147891E-1
6.714960852E0,-1.019723654E0,1.560877562E0,1.350221634E-1
6.735101113E0,-1.260473251E0,1.188567877E0,1.398158520E-1
6.755371217E0,-1.123586774E0,-1.159805804E-1,-2.259690464E-1
6.775641321E0,-1.066595197E0,-9.760478139E-1,-6.705834866E-1
6.795911477E0,-9.016125202E-1,-2.784332931E-1,-9.368993640E-1
6.816181581E0,-6.331660748E-1,9.048082829E-1,-6.956171393E-1
6.836451686E0,-1.315600574E-1,1.033705235E0,-7.227813601E-1
6.856721790E0,6.804371625E-2,1.448758543E-1,-9.912278056E-1
6.876991894E0,-9.960214794E-2,3.688475490E-2,-1.040762544E0
6.897261998E0,-2.540653646E-1,6.550039649E-1,-1.113200545E0
6.917661998E0,-4.569981098E-1,1.519332290E0,-1.122787833E0
6.937802206E0,-4.882902205E-1,1.826527715E0,-1.174453139E0
6.958072311E0,-4.468781054E-1,1.605618596E0,-1.196823716E0
6.978342415E0,-4.543349445E-1,1.282843709E0,-1.188834190E0
6.998612519E0,-4.978775978E-1,1.009736776E0,-1.195758462E0
7.018882623E0,-5.580649972E-1,8.121303916E-1,-1.237170577E0
7.039152727E0,-6.139913201E-1,7.402250767E-1,-1.396427512E0
7.059422831E0,-6.901576519E-1,7.295724154E-1,-1.508812785E0
7.079692936E0,-7.247787714E-1,8.084019423E-1,-1.567402244E0
7.099963040E0,-7.242461443E-1,9.085367322E-1,-1.582315922E0
7.120233144E0,-7.487471700E-1,8.291745782E-1,-1.600425482E0
7.140503248E0,-8.084019423E-1,4.532696903E-1,-1.583381295E0
7.160773352E0,-8.419577479E-1,1.283642650E-1,-1.482181191E0
7.181043456E0,-8.728504181E-1,1.984053478E-2,-1.259541154E0
7.201313561E0,-9.191893935E-1,-8.295740932E-2,-1.137168884E0
7.221583613E0,-9.303746223E-1,-8.934898674E-2,-1.082307816E0
7.241853717E0,-9.218525290E-1,2.410159074E-2,-1.129712105E0
7.262123821E0,-7.823029757E-1,2.743053734E-1,-1.235572696E0
7.282393925E0,-5.745765567E-1,5.091960430E-1,-1.311206341E0
7.302664029E0,-4.090612531E-1,5.225118399E-1,-1.378850579E0
7.322934133E0,-4.612591565E-1,2.769685388E-1,-1.426787496E0
7.343204186E0,-6.853640079E-1,-9.467530251E-2,-1.245159984E0
7.363474290E0,-5.127912760E-1,-5.701823831E-1,-7.914909124E-1
7.383744394E0,-6.391582079E-3,-1.239700541E-1,-2.994722426E-1
7.404014446E0,1.544632297E-2,6.551371515E-2,2.085253596E-1
7.424284550E0,-0.000000000E0,-2.603237927E-1,3.235738277E-1
7.444554602E0,2.022669315E-1,-5.153213143E-1,3.853591084E-1
7.464824706E0,2.858901322E-1,-5.254412889E-1,4.118575454E-1
7.485094811E0,3.876228034E-1,-3.274354041E-1,3.640538454E-1
7.505364863E0,6.362286806E-1,-7.070687413E-2,3.885549009E-1
7.525634967E0,8.476835489E-1,-6.697845459E-2,5.796365738E-1
7.545905019E0,9.920267463E-1,-2.315616906E-1,6.515418887E-1
7.566175123E0,1.225186348E0,-4.083954394E-1,7.639271617E-1
7.586445175E0,1.486708522E0,-7.432876825E-1,9.651288390E-1
7.606715227E0,1.832253456E0,-1.200152636E0,1.121722579E0
7.626985331E0,2.295510054E0,-1.579785943E0,1.447160602E0
7.647255436E0,2.628404856E0,-1.202283144E0,2.147837877E0
7.667525488E0,2.459560633E0,5.912213027E-2,2.847050190E0
7.687795592E0,1.969139814E0,8.877640963E-1,3.140929937E0
7.708195592E0,1.477121234E0,1.447426915E0,2.931205988E0
7.728335748E0,7.954856157E-1,1.173121572E0,2.450905323E0
7.748605800E0,2.038648278E-1,4.900212586E-2,1.956756115E0
7.768875852E0,2.049300969E-1,-1.188434720E0,1.532781243E0
7.789145956E0,4.467449486E-1,-2.388720512E0,1.438638568E0
7.809416008E0,5.830987096E-1,-2.716688633E0,1.997236133E0
7.829686061E0,8.636624813E-1,-1.330114841E0,2.626008034E0
7.849956165E0,1.005875230E0,3.328948980E-3,2.052496672E0
7.870226217E0,5.111933947E-1,-2.704437971E-1,1.433312178E0
7.890496269E0,4.154528305E-2,-3.865575492E-1,1.277251124E0
7.910896269E0,-2.748380303E-1,-8.546077609E-1,1.117994189E0
7.931194342E0,-3.914843798E-1,-1.149552584E0,6.898913383E-1
7.951307050E0,-3.440801501E-1,-8.599340916E-1,2.623211741E-1
7.971577050E0,-3.020022511E-1,-3.721764982E-1,-7.696529478E-2
7.991847050E0,-3.797664940E-1,2.364885211E-1,-9.400951862E-2
8.012247050E0,-6.944187284E-1,7.705850601E-1,2.210422046E-2
8.032387050E0,-1.085237384E0,9.325051308E-1,-1.784316637E-2
8.052657050E0,-1.066062570E0,4.111917615E-1,-1.759016514E-1
8.072926998E0,-6.906903386E-1,1.491369158E-1,-1.407479644E-1
8.093197050E0,-5.229113102E-1,8.494145870E-1,-2.520680130E-1
8.113597050E0,-1.970737725E-1,3.744401634E-1,-6.908234954E-1
8.133737102E0,2.209090441E-1,-2.912164330E-1,-9.981520176E-1
8.154007154E0,-6.498108059E-2,-5.025381446E-1,-1.108939409E0
8.174277206E0,-4.010717571E-1,2.822948694E-1,-1.207875848E0
8.194547258E0,-5.410207510E-1,1.178980589E0,-1.182975292E0
8.214817311E0,-6.251766086E-1,1.682184458E0,-1.073785782E0
8.235087363E0,-7.205176950E-1,1.804157138E0,-9.603351951E-1
8.255357415E0,-7.327682376E-1,1.654620767E0,-9.795098901E-1
8.275627467E0,-6.257092357E-1,1.228515267E0,-1.131842613E0
8.295897467E0,-5.202481151E-1,7.130608559E-1,-1.255812645E0
8.316167467E0,-4.442149401E-1,5.969471335E-1,-1.362339020E0
8.336437519E0,-4.122570157E-1,9.602020383E-1,-1.470995903E0
8.356707571E0,-3.797664940E-1,1.526789069E0,-1.548227549E0
8.376977623E0,-3.882885873E-1,1.402685881E0,-1.531715989E0
8.397247675E0,-4.761728346E-1,8.227829933E-1,-1.470463276E0
8.417517727E0,-6.491450071E-1,5.459476113E-1,-1.430515885E0
8.437787779E0,-7.823029757E-1,4.900212884E-1,-1.389503241E0
8.458057779E0,-7.982819676E-1,6.166545153E-1,-1.253682137E0
8.478327831E0,-7.956187725E-1,5.166528821E-1,-1.107341528E0
8.498597883E0,-7.823029757E-1,2.913496196E-1,-1.053013086E0
8.518867883E0,-7.338334918E-1,2.037316747E-2,-1.072720528E0
8.539137936E0,-6.720482111E-1,-6.644582003E-2,-1.035436273E0
8.559407988E0,-5.324986577E-1,1.065263674E-1,-8.857667446E-1
8.579678040E0,-3.440801501E-1,3.238401413E-1,-7.131940126E-1
8.599948040E0,-1.613874435E-1,3.504717350E-1,-5.221123695E-1
8.620218092E0,-3.249054030E-2,3.914843798E-1,-4.432828426E-1
8.640488144E0,-5.326318089E-3,4.990760088E-1,-3.809649050E-1
8.660758144E0,-1.054610983E-1,4.751075804E-1,-2.893522382E-1
8.681028196E0,-2.711096108E-1,1.896169335E-1,-2.930806577E-1
8.701298248E0,-3.195790946E-1,-2.383527346E-2,-4.230428338E-1
8.721568248E0,-2.599243224E-1,-4.087949172E-2,-5.205144286E-1
8.741838300E0,-1.741705984E-1,-9.041424841E-2,-5.338302255E-1
8.762108352E0,-1.278316379E-1,-4.542017877E-1,-4.970786572E-1
8.782378352E0,-1.241032109E-1,-1.226251602E0,-4.241080880E-1
8.802648404E0,-1.597895520E-3,-1.604819655E0,-2.552638054E-1
8.822918404E0,2.805638015E-1,-1.046754718E0,-5.060002208E-3
8.843188456E0,6.484792233E-1,-5.739107728E-1,1.696432382E-1
8.863458508E0,1.126250029E0,-5.542033911E-1,4.970786572E-1
8.883728456E0,1.527721167E0,-7.123950720E-1,8.278430104E-1
8.903998561E0,1.797099710E0,-6.660560966E-1,1.152615309E0
8.924268561E0,2.002162933E0,-4.877575934E-1,1.508812785E0
8.944538613E0,2.198171616E0,-2.310290486E-1,1.959419250E0
8.964808613E0,2.649177551E0,5.752423406E-1,2.520147562E0
8.985078665E0,2.797116041E0,1.743969679E0,2.981273413E0
9.005348665E0,2.069274664E0,1.670999169E0,3.154778242E0
9.025618717E0,1.050616264E0,8.036082387E-1,2.818288088E0
9.045888717E0,4.419512451E-1,-8.082687855E-1,2.144109488E0
9.066158717E0,3.482080400E-1,-2.046904087E0,1.377918482E0
9.086428769E0,2.624543309E-1,-2.684198141E0,1.135571003E0
9.106698769E0,5.378249884E-1,-2.165547848E0,1.567934871E0
9.126968821E0,1.280047417E0,-4.536691606E-1,2.180328369E0
9.147238821E0,1.235839009E0,-1.378184855E-1,1.753290772E0
9.167508821E0,6.644582152E-1,-3.913512230E-1,1.307611108E0
9.187778873E0,1.798963994E-1,-6.506097913E-1,1.089764714E0
9.208048873E0,-1.187768951E-1,-9.041424990E-1,9.853688478E-1
9.228318873E0,-1.938779801E-1,-1.084038854E0,6.414218545E-1
9.248588873E0,-2.412822098E-1,-7.171887755E-1,3.896201849E-1
9.268858925E0,-2.876211703E-1,-2.187785208E-1,1.589905918E-1
9.289128925E0,-2.711096108E-1,3.430148959E-1,-1.731053367E-2
9.309398925E0,-4.463454783E-1,8.355661631E-1,-2.370211668E-2
9.329668925E0,-8.712524772E-1,1.102414727E0,-6.524740160E-2
9.349938977E0,-1.166197419E0,1.016128302E0,-2.222406268E-1
9.370208977E0,-9.617999196E-1,8.149266988E-2,-4.230428338E-1
9.390478977E0,-8.206524849E-1,-1.681784987E-1,-5.162534118E-1
9.410878977E0,-7.189198136E-1,2.913496196E-1,-4.331628382E-1
9.431019029E0,-2.572611570E-1,-3.572627902E-1,-6.600639820E-1
9.451289029E0,9.041424841E-2,-6.293044686E-1,-8.511456251E-1
9.471559029E0,-1.784316599E-1,-5.877591968E-1,-9.438235760E-1
9.491829029E0,-5.197154880E-1,4.394212663E-1,-9.645962119E-1
9.512229029E0,-7.950861454E-1,1.340368032E0,-9.624657035E-1
9.532369029E0,-8.478167057E-1,1.555551291E0,-9.161267281E-1
9.552639081E0,-8.041408658E-1,1.355814338E0,-8.719182611E-1
9.572909081E0,-6.672545075E-1,1.216797352E0,-9.848362207E-1
9.593179081E0,-5.314334035E-1,1.097088337E0,-1.198954225E0
9.613579081E0,-5.122586489E-1,7.386271954E-1,-1.190964699E0
9.633719081E0,-5.745765567E-1,5.816339254E-1,-1.103613138E0
9.653989081E0,-6.619281769E-1,9.889641404E-1,-1.120657325E0
9.674259081E0,-7.253113985E-1,1.333976388E0,-1.185105801E0
9.694529081E0,-7.929556370E-1,1.159273148E0,-1.212136865E0
9.714929081E0,-8.499472141E-1,7.620629668E-1,-1.169126868E0
9.735069081E0,-8.313050866E-1,5.784381628E-1,-1.117994189E0
9.755339081E0,-7.881619334E-1,7.849661708E-1,-1.075383663E0
9.775609081E0,-7.769766450E-1,8.680567145E-1,-1.021055222E0
9.795879081E0,-7.508777380E-1,7.796398401E-1,-1.019989967E0
9.816149081E0,-6.890923977E-1,6.523408294E-1,-1.021055222E0
9.836419081E0,-6.081323624E-1,5.209138989E-1,-1.037034154E0
9.856689081E0,-5.330312848E-1,4.356928170E-1,-1.038099408E0
9.876959029E0,-4.745749533E-1,5.129244328E-1,-8.687224984E-1
9.897229029E0,-3.621896505E-1,5.438171029E-1,-6.414218545E-1
9.917499029E0,-2.439453751E-1,3.494064808E-1,-4.336954653E-1
9.937769029E0,-1.635179669E-1,1.960085034E-1,-3.063964546E-1
9.958039029E0,-1.315600574E-1,2.173137814E-1,-2.440785319E-1
9.978309029E0,-1.134505793E-1,2.221074700E-1,-2.254364192E-1
9.998578977E0,-1.203747913E-1,7.084003091E-2,-2.147837877E-1
1.001884898E1,-1.555284858E-1,-1.229047924E-1,-2.025332451E-1
1.003911898E1,-1.384842694E-1,-1.585911214E-1,-2.249037921E-1
1.005938898E1,-1.331579536E-1,-5.366265774E-2,-3.037332892E-1
1.007965892E1,-1.763011366E-1,-3.235738352E-2,-4.352933466E-1
1.009992892E1,-1.736379713E-1,-2.134522051E-1,-4.965460002E-1
1.012019892E1,-1.656484902E-1,-4.456796646E-1,-3.862912357E-1
1.014046887E1,-1.768337637E-1,-6.958834529E-1,-1.950764060E-1
1.016073887E1,-9.906952083E-2,-7.107971907E-1,-3.462106921E-3
1.018113887E1,1.985385120E-1,-3.439469934E-1,1.488705873E-1
1.020127882E1,6.319676638E-1,-1.265000552E-2,2.111885101E-1
1.022154882E1,1.066595197E0,2.199769467E-1,2.724411786E-1
1.024181877E1,1.479251742E0,2.327601016E-1,4.077296555E-1
1.026208877E1,1.816807151E0,-9.254477918E-2,5.695165992E-1
1.028235877E1,2.017076731E0,-5.733781457E-1,8.145272136E-1
1.030262872E1,2.080459833E0,-1.001081467E0,1.137701511E0
1.032289872E1,2.278998375E0,-7.347655892E-1,1.629720211E0
1.034316866E1,2.596446991E0,2.098569423E-1,2.247972488E0
1.036343866E1,2.376470089E0,7.167892456E-1,2.781536579E0
1.038370861E1,1.833318710E0,7.721830010E-1,2.967957735E0
1.040397861E1,1.163933635E0,7.391598225E-1,2.791656494E0
1.042424856E1,3.370227814E-1,1.091895252E-1,2.419480085E0
1.044451851E1,5.326318089E-3,-1.009603620E0,2.025332451E0
1.046478851E1,5.761744976E-1,-2.660229683E0,1.926396132E0
1.048505851E1,1.187902093E0,-2.972884417E0,2.155294657E0
1.050532846E1,1.556483388E0,-1.411607504E0,2.350237846E0
1.052559840E1,1.210805297E0,-5.739107728E-1,1.940244555E0
1.054586840E1,6.761760712E-1,-5.408875942E-1,1.360874295E0
1.056613835E1,4.579302073E-1,-6.165213585E-1,1.176583648E0
1.058640830E1,3.173153996E-1,-9.185235500E-1,9.359672666E-1
1.060667825E1,2.267680019E-1,-9.595362544E-1,5.332975984E-1
1.062694825E1,1.031974182E-1,-4.387554526E-1,1.882853508E-1
1.064721820E1,-8.149266988E-2,2.199769467E-1,-1.179779470E-1
1.066748814E1,-1.102547869E-1,6.427534223E-1,-2.360890508E-1
1.068775809E1,-1.150484756E-1,1.181643724E0,-1.790974438E-1
1.070802809E1,-3.536675274E-1,1.712011814E0,-3.968106955E-2
1.072829804E1,-6.885597706E-1,1.818005562E0,-7.803056389E-2
1.074856799E1,-7.668566704E-1,1.437839627E0,-3.900196552E-1
1.076883794E1,-6.496776342E-1,5.326318145E-1,-8.037413955E-1
1.078910788E1,-7.934882641E-1,1.512674391E-1,-7.419561148E-1
1.080937788E1,-7.455514073E-1,1.604553342E0,-4.873581231E-2
1.082964783E1,-3.542001545E-1,1.430915356E0,-3.740406930E-1
1.084991778E1,8.455529809E-2,-1.862879843E-1,-8.873646259E-1
1.087018773E1,1.553953290E-1,-1.639174372E-1,-1.089764714E0
1.089045762E1,-2.402169555E-1,4.191812575E-1,-9.496825337E-1
1.091085762E1,-7.135934830E-1,1.182176352E0,-9.337036014E-1
1.093099757E1,-1.138500571E0,1.577921748E0,-1.065796256E0
1.095126752E1,-1.196024776E0,1.436774373E0,-1.033305764E0
1.097153752E1,-9.783114791E-1,1.395229101E0,-1.024783611E0
1.099180747E1,-8.099998236E-1,1.368064880E0,-1.068459392E0
1.101220747E1,-6.784397960E-1,1.181643724E0,-1.011467814E0
1.103234736E1,-5.783050060E-1,1.403751135E0,-1.013598323E0
1.105261731E1,-5.665870905E-1,2.344645262E0,-1.095090985E0
1.107288726E1,-5.601955056E-1,2.813228130E0,-1.083373070E0
1.109315721E1,-4.426170290E-1,2.233325243E0,-9.092025161E-1
1.111355721E1,-3.584612012E-1,1.738643408E0,-7.520761490E-1
1.113369710E1,-4.803007543E-1,1.641837597E0,-7.249119282E-1
1.115396705E1,-5.495429039E-1,1.697630763E0,-7.515435219E-1
1.117423700E1,-4.356928170E-1,1.906422496E0,-7.360971570E-1
1.119450695E1,-2.913496196E-1,1.682717085E0,-6.966823936E-1
1.121477689E1,-2.103895694E-1,1.332378507E0,-6.956171393E-1
1.123504684E1,-1.981390417E-1,1.130511045E0,-6.913561225E-1
1.125531679E1,-1.555284858E-1,1.001214623E0,-6.584661007E-1
1.127558674E1,-4.793686327E-3,1.030509472E0,-5.748428702E-1
1.129585669E1,1.351553202E-1,1.174186826E0,-4.869586527E-1
1.131612658E1,1.857553422E-1,1.378184795E0,-4.358259737E-1
1.133639658E1,1.788311303E-1,1.518267035E0,-4.443480968E-1
1.135666648E1,2.118543088E-1,1.515071273E0,-5.199818015E-1
1.137693642E1,2.763027549E-1,1.472993255E0,-4.757733643E-1
1.139720637E1,3.109238148E-1,1.344629049E0,-3.553985953E-1
1.141760637E1,2.901511788E-1,1.202948928E0,-3.245059252E-1
1.143774627E1,2.358227372E-1,1.153946877E0,-3.575291038E-1
1.145801622E1,1.090563685E-1,1.057140946E0,-3.990744054E-1
1.147828611E1,-1.219726875E-1,9.937578440E-1,-3.548659384E-1
1.149855606E1,-2.556632757E-1,8.723177910E-1,-2.925480306E-1
1.151882601E1,-2.508696020E-1,6.475471258E-1,-3.383543491E-1
1.153909596E1,-2.743053734E-1,4.799012840E-1,-3.655185997E-1
1.155936590E1,-4.223770201E-1,3.169159293E-1,-2.579269707E-1
1.157963580E1,-5.820333958E-1,1.938779801E-1,-2.663159103E-4
1.159990575E1,-5.596628785E-1,2.141179889E-1,2.921485603E-1
1.162017570E1,-1.949432492E-1,5.416865349E-1,5.604618192E-1
1.164044559E1,4.249070287E-1,1.077381015E0,9.944236279E-1
1.166071554E1,9.558078051E-1,1.224254251E0,1.412006974E0
1.168098549E1,1.342898011E0,1.312671065E0,1.554086447E0
1.170125544E1,1.630519152E0,1.142761588E0,1.612143397E0
1.172152538E1,1.855156660E0,8.366314173E-1,1.711745501E0
1.174179528E1,1.895636678E0,7.375619411E-1,1.981257200E0
1.176206523E1,1.752358675E0,8.680567145E-1,2.247439861E0
1.178233512E1,1.641704440E0,8.510124683E-1,2.258625269E0
1.180260507E1,1.819470286E0,9.852356911E-1,1.961549878E0
1.182287497E1,1.981922984E0,9.319725037E-1,1.692038178E0
1.184314492E1,1.953160882E0,8.803072572E-1,1.459943771E0
1.186341486E1,1.864211321E0,1.100816846E0,1.201617360E0
1.188368476E1,1.730520844E0,1.268462658E0,1.097754240E0
1.190395471E1,1.527721167E0,1.543300748E0,1.129712105E0
1.192422465E1,1.196424246E0,1.865409851E0,1.154213190E0
1.194449455E1,8.013445735E-1,2.000165701E0,1.037566781E0
1.196476450E1,4.478102028E-1,2.017209768E0,8.587356806E-1
1.198503439E1,1.687111259E-1,1.964479327E0,6.520745158E-1
1.200530434E1,1.012000442E-2,1.856887698E0,3.299654126E-1
1.202557429E1,5.060002208E-2,1.582182765E0,-6.524740160E-2
1.204584419E1,1.292963773E-1,1.280713201E0,-3.601922691E-1
1.206611413E1,9.361004084E-2,1.112002134E0,-5.796365738E-1
1.208638403E1,-1.001347825E-1,9.735178351E-1,-6.201165915E-1
1.210665393E1,-3.275685608E-1,8.483493328E-1,-5.077312589E-1
1.212692387E1,-4.703139067E-1,1.010802031E0,-1.743037701E-1
1.214719372E1,-7.258440256E-1,1.697630763E0,2.814959288E-1
1.216746372E1,-1.176317334E0,2.768486977E0,9.151946306E-1
1.218773361E1,-5.431513190E-1,3.630684853E0,2.190448284E0
1.220813406E1,2.374206334E-1,4.271707237E-1,1.825728774E0
1.222827322E1,7.209171653E-1,-3.266764164E0,1.035968900E0
1.224854312E1,3.615238369E-1,-1.462740183E0,2.564622164E-1
1.226881307E1,-2.620548606E-1,1.984719276E0,-6.419544816E-1
1.228908296E1,-6.178529188E-2,4.353732586E0,-1.097221494E0
1.230935291E1,7.283740491E-2,3.377684593E0,-7.829687595E-1
1.232962281E1,-1.411474347E-1,2.300969511E-1,-6.616618633E-1
1.234989270E1,2.113216817E-1,-1.607216448E-1,-1.276052713E0
1.237016265E1,4.771049619E-1,-5.099949613E-2,-1.081242561E0
1.239043255E1,1.729721874E-1,3.344927728E-1,-4.842954874E-1
1.241083255E1,-1.597895473E-2,6.326334476E-1,3.542001545E-2
1.243113036E1,-5.699160323E-2,1.561410189E0,8.815056831E-2
1.245124291E1,-3.350254297E-1,2.534262180E0,2.537990510E-1
1.247151270E1,-5.388902426E-1,2.565687418E0,4.512723088E-1
1.249178250E1,-4.511391521E-1,2.336123228E0,3.763043880E-1
1.251218250E1,-6.231792271E-2,1.983654022E0,-8.069372177E-2
1.253232224E1,3.615238369E-1,1.776460290E0,-5.258407593E-1
1.255259208E1,5.245091915E-1,1.993774056E0,-5.924197435E-1
1.257286192E1,5.053344369E-1,2.188717365E0,-5.641902685E-1
1.259313177E1,4.206459820E-1,2.369678974E0,-5.146554708E-1
1.261353177E1,2.938795984E-1,2.409093618E0,-4.842954874E-1
1.263367156E1,1.367532164E-1,2.190847874E0,-4.773712754E-1
1.265394145E1,6.538055837E-2,1.714142323E0,-4.917523265E-1
1.267421135E1,1.639174372E-1,1.427186966E0,-4.880239069E-1
1.269448124E1,2.960101366E-1,1.336639524E0,-4.139880836E-1
1.271488124E1,2.022669315E-1,1.129978418E0,-2.675143182E-1
1.273502104E1,1.015995219E-1,8.488819599E-1,-3.994738683E-3
1.275529093E1,1.836248189E-1,7.540735006E-1,2.655169666E-1
1.277556083E1,2.651174963E-1,7.609977126E-1,4.683165252E-1
1.279583072E1,2.779006660E-1,7.647261620E-1,5.886912942E-1
1.281610062E1,2.906838059E-1,7.269092798E-1,6.488786936E-1
1.283637052E1,3.279680312E-1,7.540735006E-1,8.097335100E-1
1.285664036E1,5.362271070E-1,6.358292103E-1,9.550088644E-1
1.287691026E1,8.130624890E-1,4.814991653E-1,1.155811071E0
1.289718015E1,1.137302041E0,6.012081504E-1,1.567934871E0
1.291745005E1,1.604952812E0,5.486107469E-1,1.812412977E0
1.293771994E1,2.088982105E0,2.008021921E-1,2.067943096E0
1.295798984E1,2.471811056E0,-1.265000552E-2,2.471678019E0
1.297825974E1,2.651840687E0,1.997369379E-1,2.835332394E0
1.299852963E1,2.705636501E0,6.507429481E-1,2.855039835E0
1.301879947E1,2.590055466E0,1.271125793E0,2.638258457E0
1.303906937E1,2.322141647E0,1.942108750E0,2.340650558E0
1.305933927E1,2.075133562E0,2.043841362E0,2.187252522E0
1.307960916E1,1.746499777E0,1.783384442E0,1.878991961E0
1.309987906E1,1.370062232E0,1.629587054E0,1.718137145E0
1.312014895E1,1.037300467E0,9.628651738E-1,1.916808724E0
1.314041885E1,7.523424625E-1,-4.344944060E-1,2.017476082E0
1.316068869E1,7.145255804E-1,-8.338351250E-1,1.889111876E0
1.318095859E1,7.363634706E-1,-6.186518669E-1,1.100417376E0
1.320122849E1,6.330329180E-1,-6.149234176E-1,6.462155581E-1
1.322149833E1,4.829638898E-1,-9.009467363E-1,3.656517565E-1
1.324176822E1,3.311638236E-1,-1.120257854E0,1.451421678E-1
1.326203812E1,1.069258377E-1,-1.048885226E0,-4.980107397E-2
1.328230796E1,-8.735162020E-2,-7.166560888E-1,-2.989396155E-1
1.330257786E1,-1.938779801E-1,-1.223721579E-1,-4.874912798E-1
1.332284776E1,-3.813643754E-1,8.787093163E-1,-5.716471076E-1
1.334311760E1,-6.661892533E-1,1.828125596E0,-5.269060135E-1
1.336338750E1,-8.435556293E-1,1.987382531E0,-5.822997093E-1
1.338365739E1,-8.611325026E-1,1.468732238E0,-7.233139873E-1
1.340392724E1,-7.199850678E-1,5.948165655E-1,-6.339650154E-1
1.342419713E1,-2.615222335E-1,-5.259739161E-1,-9.933583438E-2
1.344446697E1,1.314269006E-1,-6.415550113E-1,-5.865607858E-1
1.346473687E1,4.953476042E-2,-1.025582552E0,-8.202530146E-1
1.348500671E1,-2.599243224E-1,-2.001364082E-1,-8.633961678E-1
1.350527661E1,-7.098650336E-1,9.053409100E-1,-9.518130422E-1
1.352554645E1,-8.941556811E-1,1.331313252E0,-1.026914120E0
1.354581635E1,-8.185219765E-1,1.123586774E0,-1.022653103E0
1.356608619E1,-6.028060913E-1,1.096023083E0,-1.095623612E0
1.358635609E1,-2.727074921E-1,1.224254251E0,-1.308543205E0
1.360662593E1,-9.374319762E-2,7.705850601E-1,-1.277650595E0
1.362689583E1,-1.794969290E-1,4.383559823E-1,-1.233974814E0
1.364716567E1,-3.227748871E-1,8.829703927E-1,-1.261139035E0
1.366743557E1,-3.616569936E-1,1.437307000E0,-1.316532731E0
1.368770541E1,-3.648527861E-1,1.451688051E0,-1.247290611E0
1.370797531E1,-5.122586489E-1,1.020922065E0,-1.054610968E0
1.372824515E1,-6.374271512E-1,8.824377656E-1,-8.681898713E-1
1.374851500E1,-6.241113544E-1,1.028911471E0,-7.334340215E-1
1.376878489E1,-6.161218882E-1,1.145957351E0,-6.078660488E-1
1.378905474E1,-5.458144546E-1,1.241298437E0,-6.217144728E-1
1.380932463E1,-4.458128214E-1,1.121988893E0,-7.382277250E-1
1.382959447E1,-3.845601678E-1,6.326334476E-1,-9.816404581E-1
1.384986432E1,-3.669833243E-1,3.153180480E-1,-1.229713678E0
1.387013421E1,-3.552654386E-1,1.954758763E-1,-1.279248476E0
1.389040406E1,-2.604569495E-1,2.151832581E-1,-1.222256899E0
1.391080406E1,-1.304948032E-1,2.407495826E-1,-1.019989967E0
1.393094374E1,-6.657897681E-2,2.364885211E-1,-8.500803709E-1
1.395121359E1,-1.523326933E-1,6.604634225E-2,-7.084003091E-1
1.397148348E1,-4.069307148E-1,-3.342264518E-2,-5.956155062E-1
1.399175333E1,-7.343661189E-1,-1.756353378E-1,-5.396891832E-1
1.401215333E1,-9.032104015E-1,-4.419512451E-1,-6.414218545E-1
1.403229302E1,-5.857618451E-1,-5.313002467E-1,-5.764408112E-1
1.405256286E1,-6.977476925E-2,-3.269027770E-1,-2.744385600E-1
1.407283276E1,1.607216448E-1,-3.865575492E-1,2.663159103E-4
1.409310260E1,1.410142779E-1,-7.566034794E-1,2.820285559E-1
1.411350260E1,8.668582886E-2,-9.946899414E-1,5.040028691E-1
1.413364229E1,1.388837546E-1,-9.361004233E-1,5.263733864E-1
1.415391213E1,3.561975360E-1,-6.713824272E-1,3.832286000E-1
1.417418197E1,7.699192762E-1,-4.982770681E-1,2.069274634E-1
1.419445182E1,1.245426297E0,-4.243744016E-1,2.324937880E-1
1.421472166E1,1.699628115E0,-3.711112142E-1,4.454133511E-1
1.423499151E1,2.099634647E0,-6.703171730E-1,7.101313472E-1
1.425526135E1,2.252899408E0,-1.425988555E0,9.359672666E-1
1.427553119E1,2.222539425E0,-1.897767186E0,1.212270021E0
1.429580104E1,2.544249058E0,-1.123453617E0,1.750095010E0
1.431607088E1,2.722148180E0,1.235705838E-1,2.432795763E0
1.433634072E1,2.200834751E0,8.829703927E-1,2.769285917E0
1.435661057E1,1.284308434E0,7.103977203E-1,2.576473236E0
1.437688041E1,3.631217480E-1,1.344895363E-2,2.268212557E0
1.439715026E1,-1.629853398E-1,-1.075516820E0,1.946103573E0
1.441742010E1,-1.342232227E-1,-2.075133562E0,1.627589703E0
1.443768994E1,3.226417303E-1,-1.851428151E0,1.844370842E0
1.445795979E1,8.418245912E-1,-1.085636854E0,2.380065203E0
1.447822963E1,8.620646000E-1,-6.186518669E-1,2.399240017E0
1.449849947E1,2.390185297E-1,-5.073317885E-1,1.712278128E0
1.451876932E1,-1.858884990E-1,-5.126581192E-1,1.373657465E0
1.453903916E1,-3.936149180E-1,-8.556730151E-1,1.179779530E0
1.455930895E1,-5.703155398E-1,-1.145291567E0,6.552702785E-1
1.457957880E1,-6.832334399E-1,-9.584709406E-1,1.494032294E-1
1.459984864E1,-6.645913720E-1,-7.688540220E-1,-3.356912136E-1
1.462011848E1,-4.697812796E-1,-2.464753687E-1,-5.865607858E-1
1.464038828E1,-4.197138846E-1,1.071522117E0,-4.496744275E-1
1.466065812E1,-8.313050866E-1,2.288186312E0,-2.781669796E-1
1.468104677E1,-1.551290154E0,2.355297804E0,-6.849645376E-1
1.470119781E1,-1.169393182E0,1.739708662E0,-1.050882578E0
1.472146760E1,-6.338318437E-2,-1.655153334E-1,-1.631184965E-1
1.474173744E1,2.400837988E-1,-6.175866127E-1,-6.673876643E-1
1.476200729E1,9.627319872E-2,-6.426202655E-1,-9.193225503E-1
1.478227713E1,-1.560611278E-1,1.992042959E-1,-8.724509478E-1
1.480254692E1,-6.182523966E-1,1.012932539E0,-8.010782599E-1
1.482281677E1,-8.004124761E-1,1.510277510E0,-8.889625072E-1
1.484308661E1,-5.596628785E-1,1.326519608E0,-8.974846005E-1
1.486335640E1,-3.115896285E-1,1.032107353E0,-9.108003974E-1
1.488362624E1,-2.956106663E-1,9.942904711E-1,-1.070589900E0
1.490389609E1,-3.850927949E-1,1.071522117E0,-1.121189952E0
1.492416588E1,-3.930822909E-1,9.900293946E-1,-1.004011035E0
1.494443572E1,-3.776359558E-1,1.208807945E0,-1.041295171E0
1.496470552E1,-3.882885873E-1,1.342498541E0,-1.164333105E0
1.498497536E1,-3.989412189E-1,9.037430286E-1,-1.297890544E0
1.500524515E1,-4.202465117E-1,4.990760088E-1,-1.425189614E0
1.502551500E1,-4.671181142E-1,4.820317924E-1,-1.416134834E0
1.504578479E1,-5.186502337E-1,5.603286624E-1,-1.301086426E0
1.506605463E1,-5.458144546E-1,5.868270993E-1,-1.209473729E0
1.508632442E1,-5.649892092E-1,6.171871424E-1,-1.172322631E0
1.510659421E1,-5.783050060E-1,5.507413149E-1,-1.212136865E0
1.512686406E1,-5.351617932E-1,5.422192216E-1,-1.221191645E0
1.514713385E1,-4.824312627E-1,5.937513113E-1,-1.197888970E0
1.516740369E1,-4.351601899E-1,6.209155321E-1,-1.136103630E0
1.518767343E1,-3.771033287E-1,5.305013061E-1,-1.054078341E0
1.520794328E1,-3.078611791E-1,4.426170290E-1,-9.821730852E-1
1.522821312E1,-2.769685388E-1,2.663159072E-1,-8.580698371E-1
1.524848291E1,-3.286338449E-1,7.989477366E-2,-7.313035131E-1
1.526875276E1,-3.739075363E-1,-2.862896025E-2,-6.179860830E-1
1.528902255E1,-3.600591123E-1,-1.474058628E-1,-5.476786494E-1
1.530929234E1,-2.466085255E-1,-2.294311523E-1,-4.576638937E-1
1.532956208E1,-6.711161137E-2,-3.407512009E-1,-2.323606312E-1
1.534983197E1,5.645897239E-2,-5.360939503E-1,1.004010960E-1
1.537010177E1,1.814942956E-1,-6.788392663E-1,4.656533599E-1
1.539037156E1,4.073301852E-1,-7.688540220E-1,7.570029497E-1
1.541077156E1,5.873597264E-1,-6.681866050E-1,8.219840527E-1
1.543091119E1,7.890940309E-1,-4.893554747E-1,6.760429144E-1
1.545118098E1,1.046887875E0,-5.637907982E-1,6.190513372E-1
1.547145078E1,1.367399096E0,-8.183888197E-1,7.277082205E-1
1.549172057E1,1.737444997E0,-9.797762632E-1,9.592698812E-1
1.551212057E1,1.986716747E0,-1.062201023E0,1.335840583E0
1.553226020E1,2.104960918E0,-9.552751780E-1,1.788977146E0
1.555253000E1,2.194975615E0,-6.340981722E-1,2.268745184E0
1.557279979E1,2.198171616E0,8.202529699E-2,2.611626863E0
1.559306963E1,1.835449219E0,7.295724154E-1,2.739991188E0
1.561346963E1,9.632646441E-1,9.341030717E-1,2.537724257E0
1.563360921E1,6.910897791E-2,4.820317924E-1,2.005225658E0
1.565387901E1,-3.515369892E-1,-8.103992939E-1,1.567934871E0
1.567414880E1,-1.113200486E-1,-2.199103594E0,1.386973262E0
1.569441859E1,2.912164330E-1,-2.522411108E0,1.531715989E0
1.571481859E1,4.323638678E-1,-1.442500114E0,2.077530384E0
1.573495817E1,3.077280223E-1,-3.689807057E-1,2.089781046E0
1.575522802E1,4.527370632E-2,-4.595280886E-1,1.324655294E0
1.577549781E1,-1.470063776E-1,-7.672561407E-1,9.066725373E-1
1.579576760E1,-2.636527419E-1,-1.219860077E0,7.378282547E-1
1.581603739E1,-3.866907060E-1,-1.371660113E0,5.295692086E-1
1.583630718E1,-4.351601899E-1,-1.090963125E0,3.336938322E-1
1.585657697E1,-4.085285962E-1,-6.463487148E-1,2.681801319E-1
1.587684677E1,-3.376885653E-1,6.072002649E-2,2.447443157E-1
1.589711656E1,-2.892190814E-1,7.721830010E-1,2.197106332E-1
1.591751656E1,-3.451454341E-1,1.149685740E0,1.456748098E-1
1.593765614E1,-5.207807422E-1,1.177915215E0,-5.992107838E-2
1.595792593E1,-6.699176431E-1,9.633978009E-1,-3.553985953E-1
1.597819572E1,-6.677871346E-1,5.395560265E-1,-5.103944540E-1
1.599846552E1,-5.655218363E-1,3.797664940E-1,-4.773712754E-1
1.601873531E1,-2.396843135E-1,7.737808824E-1,-4.273038805E-1
1.603900510E1,1.926795542E-1,3.669833243E-1,-4.837628603E-1
1.605927489E1,3.503385782E-1,-2.097237855E-1,-9.198551774E-1
1.607954463E1,1.660479754E-1,2.327601016E-1,-1.102015257E0
1.609981442E1,-3.083938360E-1,6.811029315E-1,-1.008272052E0
1.612008421E1,-6.118608117E-1,1.110404134E0,-9.464867711E-1
1.614035401E1,-6.491450071E-1,1.286572218E0,-1.022120476E0
1.616062380E1,-5.314334035E-1,9.964209795E-1,-9.757815003E-1
1.618089359E1,-4.787028432E-1,8.147935271E-1,-1.055676222E0
1.620116333E1,-6.102629304E-1,9.090693593E-1,-1.065263629E0
1.622143312E1,-6.134586930E-1,7.530082464E-1,-9.779120088E-1
1.624170291E1,-5.591302514E-1,7.103977203E-1,-9.981520176E-1
1.626197270E1,-5.910881758E-1,1.068326235E0,-1.084971070E0
1.628224250E1,-5.266396999E-1,1.648761749E0,-1.229713678E0
1.630251224E1,-3.510043621E-1,1.422925949E0,-1.361806393E0
1.632278203E1,-3.930822909E-1,5.305013061E-1,-1.424124360E0
1.634305182E1,-5.788376331E-1,1.880190372E-1,-1.360208511E0
1.636332156E1,-6.550039649E-1,5.001412630E-1,-1.253682137E0
1.638359135E1,-5.953491926E-1,7.801724672E-1,-1.030642629E0
1.640386114E1,-4.813660085E-1,6.709829569E-1,-8.404930234E-1
1.642413093E1,-4.197138846E-1,4.873581231E-1,-8.559393287E-1
1.644440067E1,-4.250401855E-1,2.444780022E-1,-9.262467623E-1
1.646467046E1,-4.016043842E-1,4.793686420E-2,-9.608678222E-1
1.648494026E1,-2.945453823E-1,2.870885432E-1,-8.719182611E-1
1.650521000E1,-9.267793596E-2,6.438187361E-1,-6.711161137E-1
1.652547979E1,1.735048145E-1,8.073366880E-1,-4.853607416E-1
1.654574958E1,4.083954394E-1,8.265114427E-1,-3.649859428E-1
1.656601932E1,3.066627681E-1,6.155892015E-1,-2.499374747E-1
1.658628911E1,-3.462106735E-2,3.201117218E-1,-2.004027218E-1
1.660655890E1,-2.231727391E-1,1.033305749E-1,-2.472743243E-1
1.662682864E1,-1.874863952E-1,-2.001364082E-1,-2.717753947E-1
1.664709843E1,-1.246358454E-1,-4.993423223E-1,-2.989396155E-1
1.666736817E1,-8.202529699E-2,-6.005423665E-1,-3.783017397E-1
1.668763796E1,-1.597895473E-1,-6.873613596E-1,-3.644533157E-1
1.670803796E1,-3.249054253E-1,-1.121323109E0,-3.085269928E-1
1.672817750E1,-3.121222556E-1,-1.477653861E0,-2.653838098E-1
1.674844729E1,8.508793265E-2,-1.115996838E0,-9.773793817E-2
1.676871703E1,5.340965390E-1,-8.061382771E-1,7.270424068E-2
1.678898682E1,9.440898895E-1,-6.958834529E-1,2.894853950E-1
1.680925656E1,1.354083300E0,-7.821698189E-1,5.636576414E-1
1.682952635E1,1.615605474E0,-1.059005260E0,8.081356287E-1
1.684979609E1,1.701225996E0,-1.387639046E0,1.003478408E0
1.687006588E1,1.837047100E0,-1.227316856E0,1.333710074E0
1.689033562E1,2.096438885E0,-6.111950055E-2,1.735713959E0
1.691073562E1,2.078861952E0,9.996167421E-1,1.957288742E0
1.693095411E1,1.813078761E0,1.397892237E0,2.180328369E0
1.695114520E1,1.484045386E0,1.509212255E0,2.268212557E0
1.697141494E1,1.041028857E0,9.777788520E-1,2.034387350E0
1.699168463E1,5.245091915E-1,-4.659196734E-1,1.652090788E0
1.701208463E1,6.072002649E-2,-2.444646835E0,1.378451109E0
1.703222411E1,4.740423337E-2,-3.475023270E0,1.531715989E0
1.705249380E1,6.234455705E-1,-2.145840406E0,1.990844607E0
1.707276359E1,1.158607364E0,-8.388951421E-3,2.020139456E0
1.709303328E1,7.672561407E-1,-2.443448454E-1,1.423192263E0
1.711343328E1,3.609912097E-1,-4.312986135E-1,1.140364766E0
1.713357281E1,1.575258672E-1,-7.091992497E-1,1.027446747E0
1.715384250E1,-9.587372653E-3,-1.122388363E0,9.237167239E-1
1.717411229E1,-1.763011366E-1,-1.337038994E0,6.574008465E-1
1.719438203E1,-2.460758984E-1,-1.135171533E0,3.363569975E-1
1.721465177E1,-3.201117218E-1,-5.089297295E-1,-2.103895694E-2
1.723492156E1,-3.563306928E-1,3.643201590E-1,-2.813627720E-1
1.725519130E1,-4.218443930E-1,1.291898489E0,-2.893522382E-1
1.727546104E1,-6.432861090E-1,1.929858208E0,-2.568616867E-1
1.729573078E1,-9.314398766E-1,2.096039295E0,-3.575291038E-1
1.731600052E1,-9.884315133E-1,1.485243797E0,-5.279712677E-1
1.733627026E1,-9.761809707E-1,4.303665161E-1,-5.194491744E-1
1.735654000E1,-5.862944722E-1,1.757684946E-1,-1.179779470E-1
1.737680974E1,-5.752423778E-2,9.587372839E-2,-1.561942846E-1
1.739707947E1,1.559279710E-1,-9.584709406E-1,-6.451503038E-1
1.741734921E1,1.575258672E-1,-7.363634706E-1,-8.884298801E-1
1.743761895E1,-2.343579978E-1,1.006674170E-1,-7.472824454E-1
1.745788874E1,-4.708465338E-1,1.402685881E0,-7.877624631E-1
1.747815848E1,-4.239749312E-1,2.054494143E0,-9.928256869E-1
1.749842822E1,-2.588590682E-1,1.944239259E0,-1.028512001E0
1.751869796E1,-1.214400530E-1,1.735447645E0,-9.667267799E-1
1.753896770E1,-9.800425172E-2,1.786580324E0,-9.757815003E-1
1.755923744E1,-1.134505793E-1,1.673662305E0,-1.008804679E0
1.757950718E1,-1.768337637E-1,1.322791100E0,-1.029577255E0
1.759977692E1,-3.046653867E-1,1.041694641E0,-1.061535239E0
1.762004671E1,-3.275685608E-1,9.431577921E-1,-1.089232087E0
1.764031645E1,-2.732401192E-1,9.591367245E-1,-1.089232087E0
1.766058619E1,-3.360906839E-1,9.085367322E-1,-1.044491053E0
1.768085593E1,-4.797681272E-1,5.315665603E-1,-9.885646701E-1
1.770112567E1,-5.948165655E-1,-1.105211023E-2,-9.800425768E-1
1.772139541E1,-6.464818716E-1,-3.008038104E-1,-8.681898713E-1
1.774166515E1,-6.587324142E-1,-2.262353599E-1,-8.149266839E-1
1.776193489E1,-6.539387107E-1,-1.245026886E-1,-8.570045829E-1
1.778220463E1,-7.013429403E-1,-1.857553422E-1,-9.608678222E-1
1.780247437E1,-7.934882641E-1,-2.709764242E-1,-1.024250984E0
1.782274406E1,-8.350335360E-1,-2.320943177E-1,-9.917604327E-1
1.784301380E1,-7.524756193E-1,-4.247738793E-2,-8.820382953E-1
1.786328354E1,-5.740439296E-1,4.527370632E-2,-7.302381992E-1
1.788355328E1,-3.318296373E-1,6.231792271E-2,-6.179860830E-1
1.790382302E1,-1.219726875E-1,7.350318879E-2,-5.114597082E-1
1.792409276E1,-5.060002208E-2,1.368863732E-1,-4.352933466E-1
1.794436250E1,-0.000000000E0,1.395495385E-1,-4.331628382E-1
1.796463224E1,4.527370632E-2,1.198421568E-1,-4.171838760E-1
1.798490197E1,5.273054913E-2,9.800425172E-2,-3.873564899E-1
1.800517171E1,1.438105945E-2,-1.031974182E-1,-3.681817353E-1
1.802544145E1,-1.182442605E-1,-6.223802567E-1,-3.346259296E-1
1.804571119E1,-6.551371515E-2,-8.823046088E-1,-2.744385600E-1
1.806598083E1,3.444796205E-1,-5.206475854E-1,-1.785648167E-1
1.808625062E1,7.273087502E-1,-1.745700836E-1,1.944106072E-2
1.810652036E1,9.749825597E-1,-3.221091032E-1,1.478053331E-1
1.812679010E1,1.259274840E0,-6.495444775E-1,3.549990952E-1
1.814705984E1,1.504285455E0,-1.009603620E0,6.611292362E-1
1.816732947E1,1.560744405E0,-1.215598941E0,1.059404731E0
1.818759927E1,1.707085013E0,-9.366330504E-1,1.493366480E0
1.820786901E1,2.026664019E0,-1.889511347E-1,2.031723976E0
1.822813875E1,2.019739866E0,5.926860571E-1,2.450905323E0
1.824840849E1,1.650226593E0,6.880271435E-1,2.616420746E0
1.826867817E1,1.226251602E0,7.391598225E-1,2.637725830E0
1.828894791E1,8.093340397E-1,7.844334841E-1,2.375804186E0
1.830921765E1,4.776375890E-1,5.459476262E-3,1.916276097E0
1.832948734E1,2.826943398E-1,-1.479784369E0,1.523193836E0
1.834975708E1,1.404816359E-1,-2.737461329E0,1.556217074E0
1.837002682E1,4.568649530E-1,-2.003228188E0,2.048768282E0
1.839029651E1,9.552751780E-1,-2.656501234E-1,2.118543148E0
1.841069651E1,7.640603185E-1,-1.985385120E-1,1.491235971E0
1.843083598E1,3.434143662E-1,-4.057323039E-1,1.238901615E0
1.845110567E1,4.154528305E-2,-7.997466922E-1,1.112135291E0
1.847137541E1,-1.784316599E-1,-1.202283144E0,9.194557071E-1
1.849164515E1,-3.275685608E-1,-1.160205245E0,6.387587190E-1
1.851204515E1,-3.563306928E-1,-8.801741004E-1,3.203780353E-1
1.853218458E1,-2.258358896E-1,-6.048034430E-1,-2.796317078E-2
1.855245427E1,-8.468846232E-2,4.926844500E-3,-1.460742801E-1
1.857272401E1,-3.440801501E-1,1.104012609E0,-5.246423557E-2
1.859299369E1,-7.679219246E-1,1.786047697E0,-7.430213690E-2
1.861339369E1,-8.851009011E-1,1.951696157E0,-1.721732318E-1
1.863353312E1,-9.495493770E-1,1.440502763E0,-6.206492186E-1
1.865380286E1,-7.066692710E-1,1.535311222E0,-7.478150725E-1
1.867407255E1,-1.267663687E-1,1.056075692E0,-3.841606975E-1
1.869434224E1,7.763108611E-2,-1.287637353E-1,-6.801708341E-1
1.871474224E1,6.165213138E-2,-6.649908423E-1,-9.981520176E-1
1.873488171E1,-1.432779580E-1,-3.348922431E-1,-1.097221494E0
1.875515145E1,-4.914860129E-1,6.214481592E-1,-1.094558358E0
1.877542114E1,-6.544713378E-1,1.598161817E0,-1.052480459E0
1.879569088E1,-5.889576077E-1,1.773797154E0,-1.045023680E0
1.881596057E1,-4.872249663E-1,1.484711170E0,-1.123853087E0
1.883623031E1,-3.888212144E-1,1.235439539E0,-1.292031646E0
1.885650000E1,-3.227748871E-1,1.059271574E0,-1.362339020E0
1.887676974E1,-3.206443489E-1,9.591367245E-1,-1.387372732E0
1.889703942E1,-3.834949136E-1,1.231178403E0,-1.434777021E0
1.891730916E1,-4.681833684E-1,1.556083918E0,-1.461408615E0
1.893757885E1,-5.815007687E-1,1.530517578E0,-1.367665410E0
1.895784854E1,-6.709829569E-1,1.068858862E0,-1.266465306E0
1.897811828E1,-6.805703044E-1,6.890923977E-1,-1.254214764E0
1.899838791E1,-6.981471777E-1,4.697812796E-1,-1.154745817E0
1.901865770E1,-7.375619411E-1,2.759032845E-1,-9.901625514E-1
1.903892739E1,-7.226482034E-1,2.194443047E-1,-9.539436102E-1
1.905919708E1,-6.603302956E-1,1.123853177E-1,-1.086568952E0
1.907946682E1,-5.495429039E-1,2.836264484E-2,-1.176051021E0
1.909973651E1,-4.229096770E-1,4.487423226E-2,-1.164865732E0
1.912000625E1,-3.605917394E-1,1.081242561E-1,-1.012000442E0
1.914027593E1,-2.950780392E-1,6.498108059E-2,-7.856319547E-1
1.916054562E1,-1.858884990E-1,-1.069258377E-1,-6.153228879E-1
1.918081536E1,-1.283642650E-1,-2.177132517E-1,-4.864259958E-1
1.920108505E1,-1.512674391E-1,-3.768370301E-2,-3.761712313E-1
1.922135474E1,-1.821600795E-1,1.395495385E-1,-3.548659384E-1
1.924162447E1,-2.098569423E-1,-1.478053257E-2,-3.996070325E-1
1.926189416E1,-1.800295562E-1,-3.450122476E-1,-4.102596641E-1
1.928216385E1,-1.342232227E-1,-4.637891650E-1,-2.739059031E-1
1.930243354E1,-1.539305896E-1,-3.269027770E-1,-1.391500682E-1
1.932270328E1,-1.906821877E-1,-9.254477918E-2,-9.853689000E-3
1.934297296E1,-1.017326787E-1,-5.685844645E-2,1.046621501E-1
1.936324265E1,1.479384899E-1,-3.993407190E-1,1.888179779E-1
1.938351234E1,4.360923171E-1,-6.506097913E-1,2.729738057E-1
1.940378208E1,7.060034871E-1,-7.379614115E-1,3.906854391E-1
1.942405177E1,1.049551010E0,-8.327698708E-1,5.354281664E-1
1.944432145E1,1.452087522E0,-9.217193723E-1,7.117292881E-1
1.946459114E1,1.824796677E0,-1.055276752E0,8.725841045E-1
1.948486083E1,2.149702072E0,-1.152215838E0,1.089764714E0
1.950513057E1,2.482463837E0,-7.358308434E-1,1.449823856E0
1.952540026E1,2.788061380E0,1.709748209E-1,1.924265623E0
1.954566994E1,2.647047043E0,8.046735525E-1,2.452503204E0
1.956593963E1,2.005891323E0,1.308410048E0,2.795917511E0
1.958620932E1,1.013864636E0,1.451155424E0,2.736795425E0
1.960647901E1,-6.870950758E-2,6.496776342E-1,2.326802015E0
1.962674869E1,-6.315681934E-1,-8.189214468E-1,1.971137166E0
1.964701843E1,-3.909517527E-1,-2.346642733E0,1.899231911E0
1.966728812E1,1.996037811E-1,-2.566087008E0,2.162218809E0
1.968755781E1,6.644582152E-1,-1.379116893E0,2.604702711E0
1.970782750E1,5.767071247E-1,-6.074665785E-1,2.202698946E0
1.972809718E1,1.676458716E-1,-5.110602379E-1,1.475390196E0
1.974836687E1,-6.817687303E-2,-8.434224725E-1,1.172855258E0
1.976863656E1,-1.885516644E-1,-1.429716945E0,9.098683000E-1
1.978890624E1,-1.922800839E-1,-1.432380080E0,4.629902244E-1
1.980917593E1,-2.322274745E-1,-9.307740927E-1,1.185105816E-1
1.982944562E1,-2.135853618E-1,-2.533995807E-1,-1.716406047E-1
1.984971531E1,-1.241032109E-1,6.816355586E-1,-2.595248520E-1
1.986998500E1,-2.561959028E-1,1.471928000E0,-2.195774615E-1
1.989025468E1,-6.022734046E-1,1.606683850E0,-3.047985733E-1
1.991065468E1,-7.673892975E-1,1.044357896E0,-6.334323883E-1
1.993079406E1,-7.652587891E-1,3.632549047E-1,-7.115961313E-1
1.995106369E1,-4.639223218E-1,8.068040609E-1,-4.603270590E-1
1.997133343E1,-2.221074700E-1,2.141179889E-1,-5.679186583E-1
1.999160312E1,-5.699160323E-2,-6.415550113E-1,-9.108003974E-1
2.001200312E1,-5.432844535E-2,-2.933469713E-1,-1.099352121E0
2.003214250E1,-4.026696682E-1,5.779055357E-1,-1.007739425E0
2.005241218E1,-6.683197618E-1,1.688043356E0,-1.004011035E0
2.007268187E1,-7.231808305E-1,2.125866652E0,-1.136103630E0
2.009295151E1,-6.273071170E-1,1.979925632E0,-1.135571003E0
2.011335151E1,-5.271723270E-1,1.745567679E0,-1.174453139E0
2.013349088E1,-4.803007543E-1,1.524658561E0,-1.322924256E0
2.015376057E1,-4.649875760E-1,1.284974217E0,-1.323456883E0
2.017403026E1,-4.962796867E-1,1.247690082E0,-1.277117968E0
2.019429989E1,-5.261070728E-1,1.590704918E0,-1.329315901E0
2.021456958E1,-5.383576155E-1,1.658881783E0,-1.414536953E0
2.023483927E1,-5.186502337E-1,1.284441590E0,-1.439570665E0
2.025510895E1,-4.692486227E-1,1.032639980E0,-1.407612801E0
2.027537864E1,-5.239765644E-1,8.030756116E-1,-1.335174799E0
2.029564828E1,-6.512755752E-1,6.773745418E-1,-1.151550055E0
2.031591796E1,-7.162566185E-1,6.986798048E-1,-9.629983306E-1
2.033618765E1,-6.518082023E-1,7.157239914E-1,-8.745814562E-1
2.035645729E1,-5.069323182E-1,6.033387184E-1,-8.671246171E-1
2.037672697E1,-4.474107325E-1,3.424822688E-1,-9.800425768E-1
2.039699666E1,-3.829622865E-1,2.647180259E-1,-9.843035936E-1
2.041739666E1,-1.725727171E-1,4.825644195E-1,-8.133288026E-1
2.043753598E1,5.645897239E-2,6.443513632E-1,-5.807018280E-1
2.045780567E1,1.223721579E-1,6.566019058E-1,-3.697796464E-1
2.047807531E1,-1.012000442E-2,6.305029392E-1,-1.625858694E-1
2.049834500E1,-1.454084814E-1,7.194524407E-1,-7.376950979E-2
2.051861468E1,-1.336905807E-1,7.210503221E-1,-1.270326823E-1
2.053888432E1,-1.342232227E-1,5.310339332E-1,-1.753690243E-1
2.055915401E1,-1.027979404E-1,4.809665382E-1,-2.137185186E-1
2.057942364E1,-1.278316416E-2,5.299686790E-1,-2.589922249E-1
2.059969333E1,3.355580568E-2,4.303665161E-1,-2.707101107E-1
2.061996302E1,4.154528305E-2,3.472759426E-1,-2.387522161E-1
2.064023265E1,6.591318548E-2,2.668485343E-1,-2.217079997E-1
2.066050234E1,6.644582003E-2,2.561959028E-1,-1.300953180E-1
2.068077197E1,6.857634336E-2,3.643201590E-1,-4.181159660E-2
2.070104166E1,3.221091032E-1,6.587324142E-1,1.621863842E-1
2.072131130E1,6.697844863E-1,6.672545075E-1,2.932138145E-1
2.074158099E1,8.988161683E-1,4.308991432E-1,3.917506933E-1
2.076185062E1,1.146356821E0,1.278316379E-1,5.535376072E-1
2.078212031E1,1.371660113E0,-9.627319872E-2,8.070703745E-1
2.080238994E1,1.453685403E0,-2.763027549E-1,1.057274222E0
2.082265963E1,1.443032742E0,-3.620564938E-1,1.316665888E0
2.084292927E1,1.479784369E0,-1.745700836E-1,1.606817007E0
2.086319890E1,1.487241149E0,3.046653867E-1,1.819869757E0
2.088346859E1,1.455283284E0,7.109303474E-1,1.938646674E0
2.090373822E1,1.431314826E0,9.026777744E-1,1.915743470E0
2.092400791E1,1.409476995E0,8.206524849E-1,1.645166516E0
2.094427755E1,1.429716945E0,7.663240433E-1,1.210139513E0
2.096454724E1,1.457946420E0,4.836297035E-1,9.837709665E-1
2.098481687E1,1.302950621E0,-9.946899116E-2,8.262451291E-1
2.100508656E1,1.051148891E0,-2.969422378E-2,7.985482812E-1
2.102535619E1,8.902940750E-1,8.174566627E-1,1.034371018E0
2.104562578E1,8.562056422E-1,1.546496511E0,1.239434242E0
2.106589552E1,7.853656411E-1,1.617869139E0,1.143027902E0
2.108616515E1,6.053360701E-1,1.168327928E0,9.247819781E-1
2.110643484E1,4.446144104E-1,9.420925379E-1,7.958850861E-1
2.112670447E1,3.300985694E-1,9.889641404E-1,6.190513372E-1
2.114697411E1,3.151848912E-1,1.200285792E0,4.013380706E-1
2.116724380E1,4.137217700E-1,1.453285933E0,1.323590130E-1
2.118751343E1,4.323638678E-1,1.588574409E0,-1.396826953E-1
2.120791343E1,3.146522343E-1,1.645565987E0,-4.081291258E-1
2.122805270E1,7.763108611E-2,1.720001340E0,-6.456829309E-1
2.124832239E1,-2.189116776E-1,1.794037104E0,-7.962845564E-1
2.126859203E1,-4.239749312E-1,1.879258275E0,-7.664572001E-1
2.128886166E1,-4.106591344E-1,2.086452007E0,-4.102596641E-1
2.130913135E1,-4.303665161E-1,2.651441097E0,7.962846011E-2
2.132940099E1,-6.246439815E-1,2.656767607E0,2.133190483E-1
2.134967062E1,-3.589938581E-1,1.973534107E0,3.715106845E-1
2.136994031E1,6.538055837E-2,6.129260659E-1,1.103080511E0
2.139020994E1,3.865575492E-1,-5.355613232E-1,1.109472036E0
2.141060994E1,2.768353820E-1,-1.163933635E0,8.667251468E-1
2.143074921E1,-3.036001325E-2,-9.547425508E-1,5.657881498E-1
2.145101885E1,-5.569997430E-1,9.207872748E-1,-2.238385230E-1
2.147128854E1,-5.463470817E-1,2.910167217E0,-5.386239290E-1
2.149155817E1,-4.282359779E-1,2.505500078E0,-4.432828426E-1
2.151195817E1,-1.081242561E-1,1.487906933E0,-9.528783560E-1
2.153209744E1,3.657849133E-1,1.619999647E0,-1.325054765E0
2.155236708E1,5.708481669E-1,1.605618596E0,-9.235835671E-1
2.157263671E1,2.917490900E-1,1.561942816E0,-4.901544452E-1
2.159290640E1,-7.030740380E-2,1.158207893E0,-2.089248300E-1
2.161330640E1,-1.912148297E-1,8.062714338E-1,-1.206411049E-1
2.163344567E1,-2.130527347E-1,1.206144810E0,-1.677790284E-2
2.165371531E1,-3.510043621E-1,2.055559397E0,1.579253376E-1
2.167398494E1,-5.207807422E-1,2.757834435E0,2.921485603E-1
2.169425458E1,-4.468781054E-1,2.810032368E0,4.241080880E-1
2.171465458E1,-4.367581010E-2,2.262087345E0,2.266348451E-1
2.173479385E1,4.089280665E-1,1.999100327E0,-7.536740601E-2
2.175506354E1,5.500755310E-1,2.233325243E0,-1.364869028E-1
2.177533312E1,5.921534300E-1,2.478868484E0,-1.476721764E-1
2.179560281E1,6.282392144E-1,2.633864403E0,-1.508679688E-1
2.181587244E1,6.261087060E-1,2.622678995E0,-1.460742801E-1
2.183614208E1,5.756418109E-1,2.427203178E0,-1.062600464E-1
2.185641166E1,4.824312627E-1,2.125334024E0,-5.139897019E-2
2.187668130E1,3.812312186E-1,1.890443444E0,6.125265732E-3
2.189695093E1,2.821617126E-1,1.748763442E0,5.033370852E-2
2.191735093E1,2.310290486E-1,1.537441730E0,3.275685757E-2
2.193749020E1,2.539322078E-1,1.276452184E0,-5.592633970E-3
2.195775984E1,2.645848691E-1,1.237570047E0,2.103895694E-2
2.197802947E1,2.565953732E-1,1.167795300E0,6.950845569E-2
2.199829911E1,3.167827725E-1,1.078446269E0,8.016108721E-2
2.201856874E1,3.860249221E-1,9.958883524E-1,7.270424068E-2
2.203883838E1,3.918838501E-1,9.266462326E-1,6.418213248E-2
2.205910796E1,4.265049398E-1,9.127978086E-1,1.978727281E-1
2.207937760E1,5.032039285E-1,9.756483436E-1,4.336954653E-1
2.209964724E1,5.543365479E-1,8.153261542E-1,7.724493146E-1
2.211991687E1,7.166560888E-1,4.591286182E-1,1.190964699E0
2.214018651E1,9.978857040E-1,4.287686050E-1,1.787379265E0
2.216045609E1,1.644367576E0,5.448823571E-1,2.209090471E0
2.218072578E1,2.579402685E0,6.022734046E-1,2.535593748E0
2.220099541E1,2.877010822E0,5.283707380E-1,2.764492273E0
2.222126500E1,2.607099533E0,2.684464455E-1,2.816157579E0
2.224153463E1,2.468615294E0,3.845601678E-1,2.791123867E0
2.226180427E1,2.361556292E0,1.328117490E0,2.646780729E0
2.228207390E1,2.013880968E0,1.898965597E0,2.500440121E0
2.230234348E1,1.825861931E0,1.594965935E0,2.326269388E0
2.232261312E1,1.786979795E0,1.000149369E0,1.985518217E0
2.234288276E1,1.635845423E0,8.696545959E-1,1.900829792E0
2.236315239E1,1.387639046E0,9.010798931E-1,2.162751436E0
2.238342203E1,1.017593145E0,6.747113466E-1,2.408827305E0
2.240369166E1,5.932186842E-1,-2.502037883E-1,2.097770452E0
2.242396124E1,5.410207510E-1,-1.062201023E0,1.686179161E0
2.244423088E1,8.024098277E-1,-1.211870551E0,1.424257517E0
2.246450052E1,8.865656853E-1,-1.429184318E0,1.126516342E0
2.248477010E1,5.836313367E-1,-1.394563317E0,8.523440957E-1
2.250503974E1,2.342248410E-1,-9.872331023E-1,6.579334736E-1
2.252530937E1,1.810948178E-2,-5.563339591E-1,4.725775719E-1
2.254557895E1,-4.474107176E-2,-1.884185076E-1,2.479401082E-1
2.256584859E1,-3.941475600E-2,2.556632757E-1,4.340949282E-2
2.258611822E1,-1.491369121E-2,6.933534741E-1,-8.602003753E-2
2.260638781E1,-6.391582079E-3,9.847030640E-1,-1.423458606E-1
2.262665744E1,-3.142527863E-2,8.733830452E-1,-1.540637612E-1
2.264692708E1,-6.604634225E-2,5.406212807E-1,-1.540637612E-1
2.266719666E1,-1.496695429E-1,1.901495606E-1,-2.318280041E-1
2.268746630E1,-2.705769539E-1,1.555284858E-1,-4.257059693E-1
2.270773593E1,-3.973433375E-1,3.360906839E-1,-6.982803345E-1
2.272800552E1,-4.266380966E-1,3.062632978E-1,-1.107341528E0
2.274827515E1,-4.500738978E-1,4.149201810E-1,-1.353284240E0
2.276854479E1,-5.234439373E-1,1.390967965E0,-6.972150803E-1
2.278881437E1,-1.438105851E-1,2.532131672E0,-2.914827764E-1
2.280908401E1,3.844270110E-1,9.010798931E-1,-4.885565341E-1
2.282935359E1,4.499407411E-1,2.889527567E-2,-7.760445476E-1
2.284962322E1,1.250353158E-1,2.247706354E-1,-9.512804151E-1
2.286989281E1,-2.226400971E-1,6.965492368E-1,-1.157408953E0
2.289016244E1,-4.888228476E-1,1.380315304E0,-1.239301085E0
2.291056244E1,-5.005407333E-1,1.616271257E0,-1.368198037E0
2.293070166E1,-2.775011659E-1,1.463405967E0,-1.389503241E0
2.295097130E1,-1.315600574E-1,1.469264865E0,-1.288303256E0
2.297124088E1,-1.992042959E-1,1.502288103E0,-1.207875848E0
2.299151052E1,-2.327601016E-1,1.391500592E0,-1.157408953E0
2.301191052E1,-2.066611499E-1,1.360607982E0,-1.098286867E0
2.303204974E1,-2.258358896E-1,1.654620767E0,-1.076448917E0
2.305231932E1,-2.673811615E-1,1.751426578E0,-1.108406782E0
2.307258895E1,-3.115896285E-1,1.651957631E0,-1.157941580E0
2.309285854E1,-3.882885873E-1,1.419197440E0,-1.146756291E0
2.311325854E1,-4.394212663E-1,1.218395233E0,-1.118526816E0
2.313339776E1,-4.005391300E-1,1.110404134E0,-1.112667918E0
2.315366734E1,-3.408843577E-1,9.681915045E-1,-1.005076289E0
2.317393697E1,-2.732401192E-1,7.689871788E-1,-8.697877526E-1
2.319420656E1,-1.880190372E-1,6.134586930E-1,-8.330361843E-1
2.321447619E1,-1.342232227E-1,5.964145064E-1,-7.909582257E-1
2.323474578E1,-1.139832065E-1,7.072018981E-1,-6.679202914E-1
2.325501541E1,-6.551371515E-2,8.898946047E-1,-5.162534118E-1
2.327528500E1,2.769685537E-2,9.250482917E-1,-4.155859649E-1
2.329555463E1,6.111950055E-2,7.753787637E-1,-3.932154477E-1
2.331595463E1,3.249054030E-2,7.285071611E-1,-3.479417264E-1
2.333609375E1,3.781685978E-2,7.817703485E-1,-3.948133290E-1
2.335636343E1,5.752423778E-2,7.700524330E-1,-4.938828647E-1
2.337663302E1,4.367581010E-2,5.942839384E-1,-5.689839721E-1
2.339690260E1,2.663159184E-2,3.190464675E-1,-6.126597524E-1
2.341717224E1,3.568633273E-2,-3.595264861E-3,-6.275734305E-1
2.343744182E1,3.728422802E-3,-4.174501896E-1,-5.711144805E-1
2.345771140E1,-1.864211410E-1,-8.855004311E-1,-4.454133511E-1
2.347798104E1,-3.739075363E-1,-1.200152636E0,-3.292996287E-1
2.349825062E1,-3.392864764E-1,-9.824393988E-1,-2.259690464E-1
2.351852020E1,-2.822948620E-2,-3.364901543E-1,-1.487374306E-1
2.353878984E1,5.799028873E-1,-3.711112142E-1,3.222422674E-2
2.355905942E1,1.047953129E0,-6.255760789E-1,5.359607935E-1
2.357932901E1,1.466468573E0,-8.450203538E-1,9.869667888E-1
2.359959864E1,1.855689287E0,-1.047287345E0,1.306013227E0
2.361986817E1,2.026664019E0,-1.164999008E0,1.522128582E0
2.364013781E1,2.027196646E0,-1.082973599E0,1.724528670E0
2.366040744E1,2.237985849E0,-2.938795984E-1,2.001497269E0
2.368067703E1,2.495246887E0,8.137282729E-1,2.329998016E0
2.370094661E1,2.290183783E0,1.374456406E0,2.580734253E0
2.372121619E1,1.536243320E0,1.561942816E0,2.545181036E0
2.374148583E1,6.372939944E-1,1.100816846E0,2.296974659E0
2.376175541E1,3.355580568E-2,-8.082687855E-2,1.848631859E0
2.378202500E1,-2.929474972E-2,-1.335973740E0,1.453552246E0
2.380229463E1,2.603237927E-1,-2.221474171E0,1.530650735E0
2.382256421E1,7.155908346E-1,-1.348224282E0,2.214949369E0
2.384283380E1,9.020119905E-1,-4.307659864E-1,2.142511606E0
2.386310338E1,5.271723270E-1,-6.777740121E-1,1.398158550E0
2.388337302E1,1.292963773E-1,-8.966856599E-1,1.144625783E0
2.390364260E1,-1.645832360E-1,-1.272057891E0,9.024114609E-1
2.392391218E1,-3.281011879E-1,-1.334908485E0,5.727123618E-1
2.394418177E1,-3.281011879E-1,-9.856351614E-1,3.235738277E-1
2.396445135E1,-2.135853618E-1,-4.584628344E-1,6.684529036E-2
2.398472093E1,-1.422126889E-1,2.189116776E-1,-7.323687524E-2
2.400499052E1,-2.881538272E-1,9.037430286E-1,-2.423474751E-2
2.402526015E1,-6.235787272E-1,1.257809997E0,-5.406212807E-2
2.404552974E1,-9.511472583E-1,1.131043673E0,-2.882869840E-1
2.406576000E1,-1.071921587E0,5.219792128E-1,-5.237102509E-1
2.408606885E1,-1.030908942E0,1.874863952E-1,-4.976112843E-1
2.410633849E1,-7.540735006E-1,5.953491926E-1,-3.303648829E-1
2.412660812E1,-2.956106663E-1,2.711096108E-1,-4.470112622E-1
2.414687770E1,-1.810948253E-1,-9.382309318E-1,-8.037413955E-1
2.416714729E1,-3.382211924E-1,-1.136236787E0,-9.491499066E-1
2.418741687E1,-6.241113544E-1,-2.390185297E-1,-9.395625591E-1
2.420768645E1,-8.057388067E-1,8.275766969E-1,-9.731183648E-1
2.422795604E1,-7.727156281E-1,1.223188996E0,-1.052480459E0
2.424822567E1,-6.709829569E-1,1.288170099E0,-1.048752069E0
2.426849526E1,-6.161218882E-1,1.313736439E0,-1.106276274E0
2.428876484E1,-5.175849795E-1,1.235439539E0,-1.221191645E0
2.430903442E1,-3.861580789E-1,1.078446269E0,-1.218528390E0
2.432930401E1,-3.547327816E-1,1.110936761E0,-1.190964699E0
2.434957359E1,-3.701791167E-1,1.507081747E0,-1.229181051E0
2.436984322E1,-3.792338669E-1,1.754622340E0,-1.246225357E0
2.439011281E1,-4.048001766E-1,1.254081607E0,-1.239833713E0
2.441051281E1,-4.962796867E-1,7.082671523E-1,-1.185638428E0
2.443065197E1,-6.129260659E-1,5.065328479E-1,-1.179779530E0
2.445092156E1,-5.793702602E-1,6.821681857E-1,-1.084438443E0
2.447119114E1,-4.468781054E-1,7.727156281E-1,-9.129309654E-1
2.449146072E1,-3.281011879E-1,6.454166174E-1,-8.191877604E-1
2.451186072E1,-2.684464455E-1,5.857618451E-1,-7.941540480E-1
2.453199989E1,-2.471411675E-1,5.075981021E-1,-8.245140314E-1
2.455226947E1,-2.737727463E-1,3.339601457E-1,-8.037413955E-1
2.457253906E1,-2.620548606E-1,3.765707016E-1,-6.414218545E-1
2.459280864E1,-1.454084814E-1,4.580633640E-1,-4.097270370E-1
2.461320864E1,-6.072002649E-2,3.137201369E-1,-2.067943066E-1
2.463334781E1,-8.948214352E-2,1.118526831E-1,-5.938844755E-2
2.465361734E1,-9.427583218E-2,8.415582776E-2,1.251684781E-2
2.467388692E1,-2.450106293E-2,1.150484756E-1,-3.701791167E-2
2.469415651E1,-1.757685095E-2,1.294295341E-1,-1.668469161E-1
2.471455651E1,-8.894951642E-2,3.368896246E-2,-2.488722205E-1
2.473469567E1,-1.502021700E-1,-1.362205893E-1,-2.392848432E-1
2.475496526E1,-1.592569202E-1,-1.820269227E-1,-1.982721984E-1
2.477523484E1,-8.948214352E-2,-5.313002318E-2,-1.636511236E-1
2.479550442E1,-1.970737800E-2,-1.548627019E-1,-5.992107838E-2
2.481577401E1,2.396843210E-2,-5.344960093E-1,1.275653243E-1
2.483604354E1,1.990711391E-1,-7.294392586E-1,3.299654126E-1
2.485631312E1,6.500771642E-1,-3.087933064E-1,4.837628603E-1
2.487658270E1,1.249154806E0,2.146506310E-1,5.034702420E-1
2.489685229E1,1.775794506E0,1.406148076E-1,6.526071429E-1
2.491725229E1,2.091645241E0,-4.589954615E-1,7.713840604E-1
2.493739145E1,2.207226276E0,-1.406281114E0,9.013462067E-1
2.495766104E1,2.456364870E0,-1.610146046E0,1.282044768E0
2.497793057E1,2.684331179E0,-6.548708081E-1,1.629187584E0
2.499820015E1,2.482996464E0,3.424822688E-1,1.961017251E0
2.501846974E1,1.928659797E0,9.436904192E-1,2.122271538E0
2.503873932E1,1.302950621E0,1.198155284E0,2.130260944E0
2.505900890E1,7.640603185E-1,8.323704004E-1,1.972735047E0
2.507927849E1,2.640522122E-1,3.581948951E-2,1.721865535E0
2.509954802E1,-1.693769246E-1,-7.060034871E-1,1.567402244E0
2.511981760E1,-3.579285741E-1,-1.049950480E0,1.689907551E0
2.514008718E1,-8.522109129E-3,-1.250752687E0,2.098835707E0
2.516035677E1,3.418164849E-1,-1.720933437E0,2.040778875E0
2.518062635E1,2.246374637E-1,-1.947834611E0,1.557282329E0
2.520089583E1,-8.841688186E-2,-1.804556608E0,1.156876326E0
2.522116546E1,-3.744401634E-1,-1.665007114E0,8.997483253E-1
2.524143505E1,-5.511407852E-1,-1.747565031E0,7.319692969E-1
2.526170463E1,-6.384924054E-1,-1.680986047E0,5.929523706E-1
2.528197416E1,-6.747113466E-1,-1.308809519E0,4.645881057E-1
2.530224375E1,-6.534060836E-1,-6.857634783E-1,3.432812095E-1
2.532251333E1,-5.692502856E-1,-3.874896467E-2,2.383527458E-1
2.534278286E1,-5.111933947E-1,4.830970466E-1,1.829590350E-1
2.536305244E1,-5.564671159E-1,8.723177910E-1,2.079927325E-1
2.538332203E1,-6.757766008E-1,9.080041051E-1,2.639190555E-1
2.540359156E1,-7.908250690E-1,7.130608559E-1,2.426137924E-1
2.542386114E1,-8.302398324E-1,4.388886094E-1,1.861548275E-1
2.544413072E1,-7.370292544E-1,-2.703106403E-2,9.294424951E-2
2.546440026E1,-5.857618451E-1,-4.137217700E-1,-3.968106955E-2
2.548466984E1,-5.042691827E-1,-5.142560005E-1,-1.732385010E-1
2.550493942E1,-4.202465117E-1,-4.004059732E-1,-2.616553903E-1
2.552520895E1,-4.394212663E-1,-2.560627460E-1,-3.245059252E-1
2.554547854E1,-5.218459964E-1,1.155811027E-1,-4.166512489E-1
2.556574812E1,-4.399538934E-1,5.443497300E-1,-5.194491744E-1
2.558601765E1,-1.832253486E-1,9.506146312E-1,-5.812344551E-1
2.560628724E1,2.982738242E-2,1.114665270E0,-6.785729527E-1
2.562655677E1,-6.285055727E-2,7.578019500E-1,-8.511456251E-1
2.564682635E1,-2.673811615E-1,4.719117880E-1,-9.139962196E-1
2.566709588E1,-3.563306928E-1,5.683181286E-1,-9.784446359E-1
2.568736546E1,-3.174485564E-1,6.880271435E-1,-1.063133121E0
2.570776546E1,-2.876211703E-1,8.632630110E-1,-1.109472036E0
2.572790458E1,-3.973433375E-1,1.146489978E0,-1.133973122E0
2.574817411E1,-5.735113025E-1,1.319062710E0,-1.149419427E0
2.576844369E1,-6.480797529E-1,1.332911134E0,-1.189899445E0
2.578871328E1,-6.182523966E-1,1.254081607E0,-1.229713678E0
2.580898281E1,-5.293028951E-1,1.172056317E0,-1.259008408E0
2.582925239E1,-3.840275407E-1,1.193361640E0,-1.296292663E0
2.584952192E1,-2.870885432E-1,1.230645776E0,-1.329315901E0
2.586979145E1,-3.739075363E-1,1.204546809E0,-1.316000104E0
2.589006104E1,-5.511407852E-1,1.072587371E0,-1.218528390E0
2.591046104E1,-6.262418628E-1,8.845682740E-1,-1.103080511E0
2.593060015E1,-5.426186919E-1,6.933534741E-1,-1.014663577E0
2.595086968E1,-4.601939023E-1,4.719117880E-1,-8.713856339E-1
2.597113927E1,-4.623244107E-1,2.769685388E-1,-7.510108948E-1
2.599140880E1,-4.834965467E-1,2.061285079E-1,-7.110635042E-1
2.601180880E1,-4.314317703E-1,2.764359117E-1,-7.531414032E-1
2.603194791E1,-3.605917394E-1,3.749727905E-1,-7.680550814E-1
2.605221750E1,-2.668485343E-1,4.639223218E-1,-7.334340215E-1
2.607248703E1,-1.539305896E-1,4.474107325E-1,-6.700508595E-1
2.609275656E1,-1.065263618E-2,3.515369892E-1,-5.556681752E-1
2.611315656E1,7.922898233E-2,2.119874656E-1,-4.347607195E-1
2.613329567E1,-8.522109129E-3,9.214530140E-2,-3.133206666E-1
2.615356520E1,-1.587242782E-1,2.090579830E-2,-2.083922029E-1
2.617383479E1,-1.848232448E-1,-1.607216448E-1,-1.854890287E-1
2.619410432E1,-1.294295341E-1,-4.323638678E-1,-1.982721984E-1
2.621433458E1,-7.936213911E-2,-5.387570858E-1,-2.483395934E-1
2.623464338E1,-9.960214794E-2,-6.223802567E-1,-3.740406930E-1
2.625491296E1,-6.338318437E-2,-7.890940309E-1,-5.141228437E-1
2.627518255E1,3.055975139E-1,-7.976161242E-1,-4.033354521E-1
2.629545208E1,7.811045647E-1,-5.366265774E-1,6.205160543E-2
2.631585208E1,1.234241128E0,-6.085318327E-1,3.954791129E-1
2.633599119E1,1.593234897E0,-9.952225685E-1,6.408892274E-1
2.635626072E1,1.746499777E0,-1.435575962E0,8.528767228E-1
2.637653026E1,1.739575505E0,-1.662343860E0,1.102015257E0
2.639679984E1,1.888712406E0,-1.288569570E0,1.521063328E0
2.641706937E1,2.157158852E0,-7.603318989E-2,1.995105624E0
2.643733890E1,2.129994631E0,9.644630551E-1,2.299105167E0
2.645760843E1,1.853558779E0,1.303083777E0,2.461557865E0
2.647787802E1,1.314668536E0,1.314801693E0,2.518549681E0
2.649814755E1,6.223802567E-1,1.204546809E0,2.285789490E0
2.651841708E1,7.070687413E-2,3.339601457E-1,1.902427673E0
2.653868666E1,-4.474107176E-2,-1.400954843E0,1.578054905E0
2.655895619E1,2.560627460E-1,-2.768353939E0,1.658482313E0
2.657922572E1,6.527402997E-1,-2.102297783E0,2.064747334E0
2.659949531E1,7.880287766E-1,-9.387635589E-1,2.026930332E0
2.661976484E1,4.387554526E-1,-8.439550996E-1,1.448225975E0
2.664003437E1,4.101264849E-2,-8.833698630E-1,1.230912089E0
2.666030395E1,-1.704421788E-1,-9.733846784E-1,1.078579426E0
2.668057348E1,-2.817622423E-1,-1.016527772E0,8.464851379E-1
2.670084302E1,-3.062632978E-1,-9.446225166E-1,5.780386925E-1
2.672111255E1,-2.663159072E-1,-6.655234694E-1,3.097254038E-1
2.674138208E1,-1.869537681E-1,-2.086585164E-1,9.028109163E-2
2.676165166E1,-1.773663908E-1,5.326318145E-1,3.914843872E-2
2.678192119E1,-3.616569936E-1,1.202416301E0,7.110634446E-2
2.680219072E1,-6.779071689E-1,1.495363832E0,1.837579720E-2
2.682246026E1,-8.877640963E-1,1.366999626E0,-1.780321896E-1
2.684272979E1,-8.760461807E-1,5.629918575E-1,-4.853607416E-1
2.686299937E1,-8.478167057E-1,-5.787044764E-1,-7.233139873E-1
2.688326890E1,-6.874945164E-1,-8.354330063E-1,-6.721813679E-1
2.690353843E1,-6.464818716E-1,2.354232669E-1,-3.063964546E-1
2.692380796E1,-3.760380745E-1,8.685893416E-1,-3.047985733E-1
2.694407750E1,-1.693769246E-1,1.102547869E-1,-6.419544816E-1
2.696434703E1,-8.522108942E-2,2.583264410E-1,-9.246488214E-1
2.698461661E1,-2.391516864E-1,9.293093681E-1,-1.006674170E0
2.700488614E1,-3.749727905E-1,1.917075038E0,-1.012000442E0
2.702515567E1,-3.840275407E-1,2.204563141E0,-9.944236279E-1
2.704542520E1,-4.968123436E-1,1.664075017E0,-9.821730852E-1
2.706582520E1,-5.633913279E-1,9.751157165E-1,-1.106276274E0
2.708596432E1,-3.893538713E-1,6.779071689E-1,-1.219593763E0
2.710623385E1,-2.130527347E-1,5.560676455E-1,-1.197356343E0
2.712650338E1,-2.253032625E-1,6.155892015E-1,-1.159006834E0
2.714677291E1,-2.822948694E-1,1.130511045E0,-1.224920034E0
2.716704244E1,-2.599243224E-1,1.629054427E0,-1.346360087E0
2.718731197E1,-4.037349224E-1,1.494298577E0,-1.405482173E0
2.720758156E1,-7.476819158E-1,9.532778263E-1,-1.351153731E0
2.722785109E1,-9.053409100E-1,7.162566185E-1,-1.297890544E0
2.724812062E1,-7.301050425E-1,9.681915045E-1,-1.233442187E0
2.726839015E1,-5.452818274E-1,8.733830452E-1,-1.125451088E0
2.728865968E1,-4.388886094E-1,6.214481592E-1,-1.029044628E0
2.730892921E1,-3.957454562E-1,3.781685829E-1,-9.603351951E-1
2.732919880E1,-3.941475451E-1,7.456845790E-2,-9.299751520E-1
2.734946833E1,-4.495412707E-1,-1.319595277E-1,-9.102677703E-1
2.736973786E1,-4.394212663E-1,-2.277000993E-2,-7.978824377E-1
2.739000739E1,-3.270359337E-1,9.853688627E-2,-6.812360883E-1
2.741040739E1,-2.082590461E-1,5.699160323E-2,-5.870934129E-1
2.743054645E1,-1.603221744E-1,4.008054361E-2,-5.625923872E-1
2.745081599E1,-1.613874435E-1,8.841688186E-2,-5.807018280E-1
2.747108552E1,-2.380864173E-1,5.592634156E-2,-5.956155062E-1
2.749135505E1,-3.643201590E-1,-1.415469050E-1,-6.254429221E-1
2.751175505E1,-4.506065249E-1,-4.771049619E-1,-6.504766345E-1
2.753189411E1,-3.771033287E-1,-5.648560524E-1,-5.673860312E-1
2.755216369E1,-1.635179669E-1,-3.998733461E-1,-3.868238628E-1
2.757243322E1,-8.042740822E-2,-5.712476373E-1,-1.833585054E-1
2.759270276E1,-6.231792271E-2,-9.014793634E-1,-4.607265070E-2
2.761310276E1,7.709845901E-2,-1.014929891E0,8.069372177E-2
2.763324182E1,3.231743574E-1,-8.945551515E-1,1.131842583E-1
2.765351135E1,5.703155398E-1,-7.518098354E-1,1.030642539E-1
2.767378088E1,8.524772525E-1,-6.165213585E-1,1.621863842E-1
2.769405041E1,1.179912686E0,-6.016076207E-1,3.299654126E-1
2.771445041E1,1.474990726E0,-6.948181987E-1,5.870934129E-1
2.773458947E1,1.747565031E0,-7.091992497E-1,9.215862155E-1
2.775485901E1,2.036784172E0,-5.776392221E-1,1.336373210E0
2.777512854E1,2.348240614E0,-3.098585606E-1,1.906156182E0
2.779539807E1,2.455299616E0,7.456845790E-2,2.474341154E0
2.781566760E1,2.177398920E0,5.006738901E-1,2.933869123E0
2.783593713E1,1.565538049E0,9.032104015E-1,2.930673361E0
2.785620666E1,6.655234694E-1,8.968188167E-1,2.561160088E0
2.787647619E1,-1.864211448E-2,-4.259723127E-1,2.060486317E0
2.789674572E1,1.798963994E-1,-2.117610931E0,1.621730685E0
2.791701526E1,6.245108247E-1,-2.326935291E0,1.646231771E0
2.793728479E1,9.414267540E-1,-1.331712723E0,2.144642115E0
2.795755432E1,9.211867452E-1,-3.993407190E-1,2.236787319E0
2.797782385E1,5.575323701E-1,-2.720417082E-1,1.640372872E0
2.799809338E1,1.468732208E-1,-4.781702161E-1,1.289501667E0
2.801836291E1,-1.299621612E-1,-9.456877708E-1,1.087634206E0
2.803863244E1,-2.748380303E-1,-1.327984333E0,7.197187543E-1
2.805890197E1,-2.652506530E-1,-1.032906294E0,4.008054435E-1
2.807917151E1,-1.502021700E-1,-3.972101808E-1,1.435442716E-1
2.809944098E1,-7.616634667E-2,2.673811615E-1,3.994738683E-3
2.811971057E1,-2.593916953E-1,9.202546477E-1,6.657897960E-3
2.813998005E1,-5.969471335E-1,1.363271117E0,-6.258423626E-2
2.816024953E1,-8.776440620E-1,1.370728016E0,-2.984069884E-1
2.818051911E1,-1.001214623E0,7.977492809E-1,-5.641902685E-1
2.820078864E1,-1.037833095E0,3.893538713E-1,-7.723161578E-1
2.822105817E1,-6.800376773E-1,7.114629745E-1,-4.896217883E-1
2.824132770E1,-2.263685167E-1,-1.490037590E-1,-3.490070105E-1
2.826159724E1,-2.716422267E-2,-1.005875230E0,-6.344976425E-1
2.828186677E1,-2.300969511E-1,-7.837677002E-1,-8.032087684E-1
2.830213625E1,-5.309007764E-1,3.579285741E-1,-8.415582776E-1
2.832240578E1,-6.779071689E-1,1.667803407E0,-8.495477438E-1
2.834267531E1,-6.326334476E-1,2.058755159E0,-8.990825415E-1
2.836294484E1,-5.298355222E-1,1.843571901E0,-8.857667446E-1
2.838321437E1,-3.472759426E-1,1.645033360E0,-9.614004493E-1
2.840348390E1,-2.391516864E-1,1.377119541E0,-1.239301085E0
2.842375343E1,-2.343579978E-1,7.711177468E-1,-1.313336968E0
2.844402291E1,-2.636527419E-1,3.440801501E-1,-1.399090648E0
2.846429244E1,-3.478085697E-1,3.984085917E-1,-1.451288581E0
2.848456197E1,-4.569981098E-1,7.199850678E-1,-1.387905359E0
2.850483151E1,-5.287702680E-1,9.740504622E-1,-1.234507442E0
2.852510104E1,-6.054692268E-1,9.921599030E-1,-1.121722579E0
2.854537052E1,-6.305029392E-1,7.972166538E-1,-1.096688867E0
2.856564005E1,-5.665870905E-1,5.379581451E-1,-1.052480459E0
2.858590958E1,-4.813660085E-1,3.792338669E-1,-1.017326832E0
2.860617911E1,-4.266380966E-1,3.909517527E-1,-1.048219442E0
2.862644859E1,-3.589938581E-1,4.032022953E-1,-1.080177307E0
2.864671812E1,-2.913496196E-1,3.190464675E-1,-1.076981544E0
2.866698765E1,-3.073285520E-1,2.966759205E-1,-1.054610968E0
2.868725713E1,-3.573959470E-1,3.808317482E-1,-9.544762373E-1
2.870752666E1,-3.201117218E-1,4.985433817E-1,-8.234487772E-1
2.872779619E1,-2.002695650E-1,4.862928391E-1,-7.057371736E-1
2.874806572E1,-1.102547869E-1,3.845601678E-1,-6.637924314E-1
2.876833526E1,-1.012000442E-1,2.695116997E-1,-6.424871087E-1
2.878860474E1,-1.640505940E-1,2.119874656E-1,-5.450155139E-1
2.880887427E1,-2.242379934E-1,1.054610983E-1,-4.832302332E-1
2.882914380E1,-2.402169555E-1,-6.591318548E-2,-5.226449966E-1
2.884941328E1,-2.556632757E-1,-1.021321490E-1,-5.902892351E-1
2.886968281E1,-2.982738316E-1,-1.117195264E-1,-6.302366257E-1
2.888995234E1,-3.605917394E-1,-3.476754129E-1,-5.870934129E-1
2.891035234E1,-3.957454562E-1,-8.317046165E-1,-4.262386262E-1
2.893049135E1,-3.275685608E-1,-1.094691515E0,-2.456764281E-1
2.895076088E1,-2.018674612E-1,-8.764456511E-1,-1.444763839E-1
2.897103041E1,4.580633715E-2,-5.520728827E-1,-5.033370852E-2
2.899129989E1,3.844270110E-1,-4.387554526E-1,1.568600684E-1
2.901169989E1,7.363634706E-1,-4.808333814E-1,4.336954653E-1
2.903183895E1,1.127847910E0,-6.111950278E-1,6.925545335E-1
2.905210843E1,1.488839149E0,-7.672561407E-1,8.390282989E-1
2.907237796E1,1.764076591E0,-8.540751338E-1,9.523456693E-1
2.909264750E1,2.029859781E0,-6.793718934E-1,1.185638428E0
2.911304750E1,2.423874140E0,-2.150501013E-1,1.680852890E0
2.913318651E1,2.660895348E0,3.483411968E-1,2.291648388E0
2.915345598E1,2.323206902E0,6.491450071E-1,2.732534409E0
2.917372552E1,1.559679151E0,7.817703485E-1,2.761829138E0
2.919399505E1,6.000097394E-1,4.804339111E-1,2.447709560E0
2.921439505E1,-9.001477808E-2,-5.297023654E-1,2.087650537E0
2.923453406E1,-2.876211889E-2,-1.696432352E0,1.693636060E0
2.925480359E1,5.538039207E-1,-2.544249058E0,1.542368650E0
2.927507307E1,8.391614556E-1,-2.284857273E0,2.062616825E0
2.929534260E1,9.627320170E-1,-8.530098796E-1,2.747448206E0
2.931574260E1,7.448856235E-1,2.300969511E-1,2.279397964E0
2.933588161E1,2.677806616E-1,4.008054361E-2,1.629720211E0
2.935615109E1,-4.846949503E-2,-5.222455263E-1,1.352884769E0
2.937642062E1,-2.247706354E-1,-1.094691515E0,1.049817324E0
2.939669015E1,-3.073285520E-1,-1.174053669E0,6.307692528E-1
2.941709015E1,-2.396843135E-1,-8.077361584E-1,2.564622164E-1
2.943722911E1,-8.841688186E-2,-2.203764170E-1,-6.524740160E-2
2.945749864E1,-8.522108942E-2,4.596612751E-1,-1.259674281E-1
2.947776812E1,-4.781702161E-1,9.676588774E-1,-9.081372619E-2
2.949803765E1,-9.942904711E-1,1.152881622E0,-2.834932804E-1
2.951830718E1,-1.312671065E0,8.488819599E-1,-7.664572001E-1
2.953857666E1,-1.324388981E0,7.237134576E-1,-1.062600493E0
2.955884619E1,-7.476819158E-1,1.268995285E0,-4.645881057E-1
2.957911567E1,-3.520696461E-1,9.671262503E-1,6.151897460E-2
2.959938515E1,-1.177116334E-1,-3.448791057E-2,-5.066660047E-1
2.961965468E1,-1.118526794E-2,-2.379532605E-1,-7.978824377E-1
2.963992416E1,-3.632549047E-1,2.151832581E-1,-8.788425326E-1
2.966019369E1,-8.595346212E-1,1.208807945E0,-8.900277615E-1
2.968046317E1,-1.033572078E0,1.693902373E0,-9.683246613E-1
2.970073265E1,-6.858966351E-1,1.328117490E0,-1.007739425E0
2.972100218E1,-4.117243886E-1,1.163534164E0,-1.082307816E0
2.974127166E1,-4.122570157E-1,1.128913164E0,-1.096156240E0
2.976154119E1,-2.785664499E-1,9.463536143E-1,-1.083373070E0
2.978181067E1,-2.801643312E-1,1.171523690E0,-1.259541154E0
2.980208020E1,-3.483411968E-1,1.660346508E0,-1.421993852E0
2.982234968E1,-4.340949357E-1,1.377119541E0,-1.412939072E0
2.984261916E1,-5.133239031E-1,8.494145870E-1,-1.339435816E0
2.986288869E1,-4.415517747E-1,1.037966251E0,-1.217995763E0
2.988315817E1,-2.902843356E-1,1.426121712E0,-1.032240510E0
2.990342765E1,-2.130527347E-1,1.490570188E0,-9.155941010E-1
2.992369713E1,-1.368863732E-1,1.206677437E0,-9.544762373E-1
2.994396666E1,-8.149266988E-2,1.083239913E0,-1.004011035E0
2.996423614E1,-6.072002649E-2,1.091762066E0,-1.030109882E0
2.998450567E1,-1.033305749E-1,1.032639980E0,-1.008272052E0
3.000477515E1,-1.544632316E-1,8.771114349E-1,-9.209204316E-1
3.002504463E1,-1.315600574E-1,6.486123800E-1,-7.787077427E-1
3.004531416E1,-2.343579940E-2,4.772381186E-1,-6.185187101E-1
3.006571416E1,6.391582079E-3,3.936149180E-1,-4.619249403E-1
3.008585312E1,-4.474107176E-2,3.664506972E-1,-3.229080439E-1
3.010612265E1,-5.060002208E-2,4.261054695E-1,-2.653838098E-1
3.012639213E1,-2.237053588E-2,4.953475893E-1,-3.122554123E-1
3.014666161E1,-5.539371073E-2,4.894886315E-1,-4.182491302E-1
3.016693109E1,-1.315600574E-1,4.287686050E-1,-5.258407593E-1
3.018720062E1,-1.986716688E-1,2.854906619E-1,-5.759081841E-1
3.020760062E1,-2.428801060E-1,1.267663687E-1,-5.588639379E-1
3.022773958E1,-2.684464455E-1,2.250369452E-2,-5.583313107E-1
3.024800906E1,-2.684464455E-1,-7.323687430E-3,-5.018723607E-1
3.026827859E1,-2.961432934E-1,-6.431528926E-2,-3.687143922E-1
3.028854807E1,-3.115896285E-1,-9.414267540E-2,-3.000048697E-1
3.030881750E1,-2.407495826E-1,-1.740374416E-1,-3.207775056E-1
3.032908703E1,-8.735162020E-2,-6.697845459E-2,-3.580617309E-1
3.034935651E1,1.708416492E-1,-2.383527346E-2,-2.797648609E-1
3.036962604E1,4.328965247E-1,-1.431448013E-1,-1.073253155E-1
3.038989552E1,6.900244951E-1,-1.575258672E-1,1.222390011E-1
3.041029552E1,9.872331023E-1,-1.516669095E-1,3.858917654E-1
3.043043453E1,1.228914738E0,-1.846900880E-1,6.648576856E-1
3.045070395E1,1.405748487E0,-2.422143221E-1,9.874994159E-1
3.047097343E1,1.494698048E0,-2.928143442E-1,1.363004804E0
3.049124296E1,1.550091743E0,-2.033322006E-1,1.755953908E0
3.051164296E1,1.596963406E0,1.203747913E-1,2.129195690E0
3.053178192E1,1.512274861E0,5.576655269E-1,2.383793831E0
3.055205140E1,1.367931724E0,8.424903750E-1,2.570614338E0
3.057232088E1,1.211337924E0,9.506146312E-1,2.498842239E0
3.059259036E1,1.069258332E0,5.894902945E-1,2.054627180E0
3.061299036E1,1.115597367E0,-3.838943839E-1,1.302817464E0
3.063312937E1,1.174053669E0,-9.424920082E-1,8.406261802E-1
3.065339885E1,1.010136247E0,-1.142095804E0,5.838976502E-1
3.067366833E1,7.843003273E-1,-6.751108170E-1,8.081356287E-1
3.069393781E1,6.064013243E-1,2.924148738E-1,1.302817464E0
3.071433781E1,5.719134212E-1,1.287104845E0,1.529052854E0
3.073447677E1,5.037365556E-1,1.537441730E0,1.263402700E0
3.075474625E1,2.656501234E-1,1.160871029E0,9.528783560E-1
3.077501572E1,3.728422802E-3,9.032104015E-1,6.462155581E-1
3.079528520E1,-7.776424289E-2,8.771114349E-1,2.937464416E-1
3.081555468E1,9.307741374E-2,8.201198578E-1,-2.530001104E-2
3.083582416E1,2.454101145E-1,6.688523889E-1,-3.154512048E-1
3.085609364E1,2.592585385E-1,6.613955498E-1,-5.785713196E-1
3.087636312E1,2.262353599E-1,7.908250690E-1,-8.197203875E-1
3.089663265E1,1.905490309E-1,1.022519946E0,-9.629983306E-1
3.091690213E1,1.346226931E-1,1.188567877E0,-8.910930157E-1
3.093717161E1,-1.118526794E-2,1.309475303E0,-4.986765385E-1
3.095744109E1,-4.463454783E-1,1.650359750E0,-9.853689000E-3
3.097771057E1,-6.816355586E-1,2.145574093E0,1.552621722E-1
3.099798005E1,-5.575323701E-1,1.733317137E0,1.243695319E-1
3.101824953E1,-3.009369671E-1,8.851009011E-1,4.820318148E-2
3.103851901E1,5.912213027E-2,5.022718310E-1,-1.567269117E-1
3.105878848E1,2.443448454E-1,3.078611791E-1,-4.006722867E-1
3.107905796E1,6.532729268E-1,-1.772332340E-1,-6.456829309E-1
3.109932739E1,8.514119387E-1,9.800425172E-2,-7.270424068E-2
3.111959687E1,5.191828609E-1,7.306377292E-1,6.222470999E-1
3.113986635E1,-3.605917394E-1,1.992708802E0,6.462155581E-1
3.116013583E1,-7.796398401E-1,4.021503448E0,2.010685056E-1
3.118040531E1,-8.339682817E-1,4.648277760E0,-8.495477587E-2
3.120067479E1,-8.302398324E-1,2.151432991E0,-3.133206666E-1
3.122094427E1,6.271740049E-2,9.559409618E-1,-1.141430020E0
3.124121375E1,9.685909748E-1,1.386174321E0,-1.404416919E0
3.126148322E1,6.335655451E-1,1.191763639E0,-1.444896936E0
3.128175270E1,-3.802991211E-1,8.430230021E-1,-1.102015257E0
3.130202218E1,-5.585976243E-1,1.518799663E0,-4.917523265E-1
3.132229166E1,-3.669833243E-1,2.073668718E0,-2.808301151E-1
3.134256114E1,-8.329030275E-1,2.509761095E0,3.382211924E-2
3.136283062E1,-6.613955498E-1,2.402702093E0,5.743102431E-1
3.138310010E1,2.209090441E-1,2.008155107E0,8.613988161E-1
3.140336958E1,5.106607676E-1,2.553436995E0,9.285104275E-1
3.142363906E1,4.414186180E-1,2.879274368E0,7.655251026E-1
3.144390848E1,4.957470596E-1,2.770084858E0,5.961481929E-1
3.146417796E1,5.846965909E-1,2.630136013E0,3.523359597E-1
3.148444744E1,5.580649972E-1,2.501239061E0,2.165148407E-1
3.150471692E1,3.604585826E-1,2.270609379E0,2.500706315E-1
3.152498640E1,1.729721874E-1,1.949565649E0,2.708432674E-1
3.154525583E1,1.410142779E-1,1.676325440E0,3.038664460E-1
3.156552531E1,1.964079887E-1,1.780721307E0,3.555317521E-1
3.158579479E1,3.199785650E-1,1.871801376E0,4.448807240E-1
3.160606421E1,3.998733461E-1,1.490570188E0,3.629885912E-1
3.162633369E1,4.153196514E-1,1.190165758E0,2.250369489E-1
3.164660317E1,3.668501675E-1,1.147555232E0,1.403484792E-1
3.166687265E1,2.459427416E-1,1.148620486E0,1.158474237E-1
3.168714208E1,1.782985032E-1,1.127315283E0,1.504684836E-1
3.170741156E1,2.027995586E-1,1.143826842E0,1.632516533E-1
3.172768104E1,2.422143221E-1,1.031042099E0,1.675127149E-1
3.174795036E1,2.688459158E-1,7.551387548E-1,1.771000773E-1
3.176821994E1,2.475406379E-1,6.305029392E-1,3.134538233E-1
3.178848942E1,2.677806616E-1,5.368928909E-1,6.515418887E-1
3.180875885E1,4.600607455E-1,2.892190814E-1,1.143560529E0
3.182902833E1,9.472857118E-1,3.515369892E-1,1.663808703E0
3.184929781E1,1.681518674E0,6.699176431E-1,1.890709758E0
3.186956724E1,2.397242785E0,5.857618451E-1,2.034919977E0
3.188983671E1,2.735996485E0,5.134570599E-1,2.146239996E0
3.191023671E1,2.677407026E0,6.198502779E-1,2.272473574E0
3.193037562E1,2.524541616E0,9.607346654E-1,2.379532576E0
3.195064510E1,2.564489126E0,1.699228644E0,2.236254692E0
3.197091458E1,2.539455414E0,1.889378190E0,2.013747692E0
3.199118401E1,2.442516327E0,1.486309052E0,1.858219266E0
3.201158401E1,2.251301527E0,1.247690082E0,1.595631719E0
3.203172291E1,1.863678694E0,1.182708979E0,1.499225378E0
3.205199239E1,1.501089573E0,1.397892237E0,1.698429704E0
3.207226187E1,1.356746435E0,1.402685881E0,2.162751436E0
3.209253130E1,1.289634824E0,6.379597783E-1,2.370477915E0
3.211293130E1,9.446225166E-1,-7.763108611E-1,2.059420824E0
3.213307026E1,8.407593369E-1,-1.423325419E0,1.712278128E0
3.215333968E1,1.166064262E0,-1.142095804E0,1.356613278E0
3.217360916E1,1.129978418E0,-9.185235500E-1,1.013598323E0
3.219387859E1,8.370308876E-1,-5.504750013E-1,7.591335177E-1
3.221427859E1,5.186502337E-1,-1.404816359E-1,5.801692009E-1
3.223441750E1,3.055975139E-1,1.565937549E-1,4.235754609E-1
3.225468697E1,2.422143221E-1,3.605917394E-1,2.420811653E-1
3.227495640E1,2.731069624E-1,6.789724231E-1,7.590003312E-2
3.229522588E1,2.896185517E-1,1.033705235E0,-3.328948840E-2
3.231562588E1,1.777658761E-1,1.150750995E0,-1.030642539E-1
3.233576479E1,-2.929474972E-2,1.083772540E0,-1.684448123E-1
3.235603421E1,-2.673811615E-1,8.552735448E-1,-3.292996287E-1
3.237630369E1,-4.781702161E-1,3.808317482E-1,-6.259755492E-1
3.239657312E1,-5.633913279E-1,1.885516644E-1,-7.408908606E-1
3.241684260E1,-4.745749533E-1,8.147935271E-1,-3.058638275E-1
3.243711203E1,-4.532696903E-1,1.306279540E0,-2.035985142E-1
3.245738151E1,8.721846342E-2,1.992042959E-1,-4.273038805E-1
3.247765093E1,5.074649453E-1,-2.858901322E-1,-7.978824377E-1
3.249792036E1,6.484792382E-2,4.490086138E-1,-9.406278133E-1
3.251818984E1,-3.504717350E-1,1.435176492E0,-1.076448917E0
3.253845927E1,-4.191812575E-1,2.180195093E0,-1.185105801E0
3.255872874E1,-3.339601457E-1,2.292447329E0,-1.197888970E0
3.257899817E1,-1.645832360E-1,1.775395036E0,-1.235040069E0
3.259926760E1,2.290316857E-2,1.369130135E0,-1.207875848E0
3.261953708E1,4.900212586E-2,1.341433287E0,-1.161669970E0
3.263980651E1,-4.154528305E-2,1.316399574E0,-1.171257377E0
3.266007593E1,-1.720400751E-1,1.038498878E0,-1.103613138E0
3.268034541E1,-2.215748429E-1,9.617999196E-1,-1.028512001E0
3.270061484E1,-2.194443047E-1,1.124652147E0,-1.025316238E0
3.272088432E1,-2.263685167E-1,1.216264725E0,-1.036501527E0
3.274115375E1,-2.471411675E-1,1.331845880E0,-1.045023680E0
3.276142317E1,-3.030675054E-1,1.298822641E0,-1.082840443E0
3.278169265E1,-3.190464675E-1,1.235972166E0,-1.117994189E0
3.280196208E1,-2.460758984E-1,1.086968422E0,-1.101482630E0
3.282223151E1,-1.235705838E-1,9.106672406E-1,-1.041827798E0
3.284250098E1,-4.207791388E-2,7.727156281E-1,-9.896299243E-1
3.286277041E1,-4.527370632E-2,7.711177468E-1,-8.932235837E-1
3.288303984E1,-9.853688627E-2,9.234504104E-1,-7.350319028E-1
3.290330932E1,-1.667137593E-1,1.147022605E0,-6.121271253E-1
3.292357874E1,-1.965411454E-1,1.244494200E0,-5.391565561E-1
3.294384817E1,-1.832253486E-1,1.097621083E0,-4.922849536E-1
3.296411765E1,-1.038632020E-1,9.165261984E-1,-4.933502376E-1
3.298438708E1,2.609895915E-2,7.551387548E-1,-5.002744198E-1
3.300465651E1,8.189214021E-2,6.070671082E-1,-4.901544452E-1
3.302492598E1,3.888212144E-2,3.392864764E-1,-5.114597082E-1
3.304519541E1,-4.953476042E-2,9.187898599E-3,-5.364934206E-1
3.306546484E1,-2.231727391E-1,-6.681866050E-1,-5.993439555E-1
3.308573432E1,-2.428801060E-1,-1.250220060E0,-6.275734305E-1
3.310600374E1,2.161153555E-1,-1.025582552E0,-3.814975321E-1
3.312627317E1,8.434224725E-1,-2.374206334E-1,4.767054692E-2
3.314654260E1,1.353550673E0,-7.763108611E-2,5.924197435E-1
3.316681208E1,1.805089235E0,-3.375554085E-1,9.970867634E-1
3.318708151E1,2.145973682E0,-7.475487590E-1,1.346493244E0
3.320735093E1,2.294977427E0,-9.776456952E-1,1.736246586E0
3.322762041E1,2.275802612E0,-5.808349848E-1,2.155294657E0
3.324788984E1,2.404699564E0,5.257076025E-1,2.556899071E0
3.326815927E1,2.275802612E0,1.724262357E0,2.825212240E0
3.328842875E1,1.411074877E0,2.139715195E0,2.858768225E0
3.330869817E1,2.315616906E-1,1.923999310E0,2.599909067E0
3.332896760E1,-5.410207510E-1,9.655283093E-1,2.169675827E0
3.334923703E1,3.888212144E-2,-5.217128396E-1,1.736779213E0
3.336950645E1,6.175866127E-1,-2.004293442E0,1.630785465E0
3.338977593E1,5.713807940E-1,-2.671947479E0,1.869404554E0
3.341012401E1,5.697829127E-1,-1.191630483E0,1.984985590E0
3.343031484E1,4.994754791E-1,-4.675175846E-1,1.340101719E0
3.345058432E1,1.655153334E-1,-9.914941192E-1,1.024250984E0
3.347085374E1,-5.379581451E-2,-1.406813741E0,7.926893234E-1
3.349112317E1,-1.661811322E-1,-1.724661827E0,5.316997170E-1
3.351152317E1,-1.624527127E-1,-1.508546472E0,2.996053994E-1
3.353166197E1,-1.608548164E-1,-9.217193723E-1,8.602003753E-2
3.355193145E1,-1.651158631E-1,-3.775027990E-1,-1.476721764E-1
3.357220088E1,-2.599243224E-1,2.284990549E-1,-2.131858915E-1
3.359247031E1,-6.113281846E-1,9.159935713E-1,-2.440785319E-1
3.361287031E1,-1.019191027E0,1.584313393E0,-3.926828206E-1
3.363300921E1,-1.129445791E0,2.137052059E0,-6.387587190E-1
3.365327864E1,-9.383640885E-1,2.104028940E0,-6.366282105E-1
3.367354807E1,-5.649892092E-1,1.287637472E0,-4.555333555E-1
3.369377817E1,-7.350318879E-2,-5.723128915E-1,-4.171838760E-1
3.371417817E1,2.368880063E-1,-1.659148097E0,-7.803056240E-1
3.373435645E1,-6.924213842E-3,-1.390302181E0,-9.203878045E-1
3.375462593E1,-4.559328258E-1,-1.814942956E-1,-9.305077791E-1
3.377489536E1,-6.555365920E-1,1.233841658E0,-9.720530510E-1
3.379516474E1,-5.016059875E-1,1.971936107E0,-1.163267851E0
3.381543421E1,-3.499391079E-1,1.924531937E0,-1.152082682E0
3.383570364E1,-3.595264852E-1,1.503885984E0,-1.137701511E0
3.385597307E1,-2.604569495E-1,1.310007930E0,-1.271258950E0
3.387624250E1,-1.635179669E-1,1.223721623E0,-1.286172748E0
3.389651197E1,-2.290316820E-1,1.173654199E0,-1.168061614E0
3.391691197E1,-3.600591123E-1,1.400022745E0,-1.130777359E0
3.393705083E1,-4.127896726E-1,1.482048035E0,-1.153680563E0
3.395732026E1,-4.436823130E-1,1.213601589E0,-1.137701511E0
3.397758974E1,-5.655218363E-1,7.082671523E-1,-1.082840443E0
3.399785916E1,-6.150565743E-1,5.246423483E-1,-1.063665748E0
3.401812859E1,-5.862944722E-1,6.917555928E-1,-9.960215092E-1
3.403839807E1,-5.660544634E-1,6.571345329E-1,-8.575372100E-1
3.405866750E1,-5.117260218E-1,3.930822909E-1,-7.611308694E-1
3.407893692E1,-4.165180922E-1,2.780338228E-1,-8.016108871E-1
3.409920640E1,-3.174485564E-1,2.359558940E-1,-8.889625072E-1
3.411947583E1,-2.902843356E-1,2.466085255E-1,-9.331709743E-1
3.413974526E1,-3.020022511E-1,3.296990991E-1,-8.884298801E-1
3.416001474E1,-2.615222335E-1,3.685812056E-1,-7.723161578E-1
3.418028416E1,-1.581916511E-1,2.705769539E-1,-6.705834866E-1
3.420055359E1,-4.740423337E-2,1.166463718E-1,-5.801692009E-1
3.422082307E1,-3.302317113E-2,3.901528195E-2,-5.146554708E-1
3.424109250E1,-1.262337416E-1,9.534109384E-2,-4.592617750E-1
3.426136192E1,-2.599243224E-1,1.464737505E-1,-4.219775498E-1
3.428163140E1,-3.057306707E-1,-2.330264263E-2,-4.592617750E-1
3.430190083E1,-2.695116997E-1,-2.747048736E-1,-4.965460002E-1
3.432217026E1,-2.625874877E-1,-3.796333373E-1,-5.301018357E-1
3.434243974E1,-3.009369671E-1,-4.382228255E-1,-5.279712677E-1
3.436270916E1,-3.307643533E-1,-8.045403361E-1,-4.262386262E-1
3.438297864E1,-1.869537681E-1,-1.187369466E0,-3.394196332E-1
3.440324807E1,2.049300969E-1,-9.387635589E-1,-1.206411049E-1
3.442351750E1,6.016076207E-1,-6.633929610E-1,8.921582997E-2
3.444378692E1,1.008005738E0,-7.954856157E-1,3.507380486E-1
3.446405640E1,1.406813741E0,-1.086169481E0,6.297039986E-1
3.448432583E1,1.755554438E0,-1.456881166E0,8.400935531E-1
3.450459526E1,2.051165104E0,-1.672996521E0,1.066328883E0
3.452486474E1,2.280063629E0,-1.342898011E0,1.353950143E0
3.454513416E1,2.503768921E0,-3.242396116E-1,1.751160264E0
3.456540359E1,2.536259651E0,7.173219323E-1,2.107890368E0
3.458567302E1,2.146506310E0,1.137435198E0,2.469014883E0
3.460594250E1,1.376453757E0,1.403218508E0,2.630269051E0
3.462621192E1,6.032055616E-1,1.044890523E0,2.371010542E0
3.464648140E1,-9.587372653E-3,-1.580584943E-1,1.851827741E0
3.466675083E1,-2.625874877E-1,-1.578720689E0,1.483379602E0
3.468702026E1,-9.534109384E-2,-2.677273750E0,1.692570806E0
3.470742026E1,3.737743795E-1,-2.434526920E0,2.344378948E0
3.472755916E1,7.219824195E-1,-9.275783300E-1,2.396576881E0
3.474782859E1,3.956122994E-1,-6.958834529E-1,1.567934871E0
3.476809802E1,-8.841688186E-2,-9.568730593E-1,1.277783751E0
3.478836750E1,-2.775011659E-1,-1.276319027E0,1.098819494E0
3.480863692E1,-3.307643533E-1,-1.465403318E0,8.874977827E-1
3.482890635E1,-3.440801501E-1,-1.250752687E0,6.542050242E-1
3.484917572E1,-3.579285741E-1,-7.566034794E-1,4.448807240E-1
3.486944526E1,-4.042675495E-1,-2.438122183E-1,2.468748540E-1
3.488971468E1,-4.378233552E-1,2.551306486E-1,1.009337306E-1
3.491002338E1,-5.058670640E-1,6.528734565E-1,3.382211924E-2
3.493025364E1,-6.720482111E-1,9.878988862E-1,-1.198421605E-2
3.495052302E1,-9.090693593E-1,1.318530083E0,-1.812279820E-1
3.497079244E1,-1.092694163E0,1.279115319E0,-4.406196773E-1
3.499106187E1,-1.145424724E0,8.952209353E-1,-4.683165252E-1
3.501146187E1,-7.178545594E-1,1.076315761E0,-2.968090773E-1
3.503160078E1,-1.086568907E-1,2.077264041E-1,-3.804322779E-1
3.505187020E1,1.042626798E-1,-1.148487329E0,-9.741836190E-1
3.507213963E1,3.355580568E-2,-7.395592928E-1,-1.185105801E0
3.509240906E1,-3.936149180E-1,2.801643312E-1,-1.104145765E0
3.511280906E1,-5.660544634E-1,1.688043356E0,-1.114265800E0
3.513294796E1,-4.293012619E-1,2.069407701E0,-1.173920512E0
3.515321739E1,-2.391516864E-1,1.774862409E0,-1.123853087E0
3.517348682E1,-2.460758984E-1,1.455416441E0,-1.129712105E0
3.519375630E1,-3.036001325E-1,1.287104845E0,-1.269661069E0
3.521415630E1,-2.668485343E-1,1.134772062E0,-1.322391629E0
3.523429515E1,-2.748380303E-1,1.071522117E0,-1.269661069E0
3.525456458E1,-3.712443709E-1,1.304149032E0,-1.252616882E0
3.527483406E1,-4.330296814E-1,1.502288103E0,-1.259541154E0
3.529510349E1,-4.829638898E-1,1.454351187E0,-1.219061136E0
3.531550348E1,-5.697829127E-1,1.097621083E0,-1.108939409E0
3.533564234E1,-5.996102691E-1,6.592650414E-1,-1.080177307E0
3.535591177E1,-5.681849718E-1,4.532696903E-1,-9.944236279E-1
3.537618119E1,-5.133239031E-1,3.105243444E-1,-8.767119646E-1
3.539645062E1,-4.404865205E-1,1.656484902E-1,-8.676572442E-1
3.541672010E1,-3.408843577E-1,1.645832360E-1,-8.783098459E-1
3.543698953E1,-2.956106663E-1,1.805621833E-1,-8.996151686E-1
3.545725895E1,-3.478085697E-1,1.576590240E-1,-8.788425326E-1
3.547752838E1,-3.813643754E-1,2.029327303E-1,-7.882950902E-1
3.549779781E1,-2.945453823E-1,2.695116997E-1,-6.679202914E-1
3.551806724E1,-1.294295341E-1,2.460758984E-1,-5.881586671E-1
3.553833671E1,-1.864211448E-2,1.709748209E-1,-5.434176326E-1
3.555860614E1,-1.278316416E-2,1.203747913E-1,-4.944154918E-1
3.557887557E1,-1.043958366E-1,1.070589945E-1,-4.113249183E-1
3.559914500E1,-1.890842915E-1,5.219791830E-2,-3.143859208E-1
3.561941442E1,-1.917474568E-1,-8.775109053E-2,-2.435459048E-1
3.563968385E1,-1.912148297E-1,-3.482080400E-1,-1.902827173E-1
3.565995333E1,-2.588590682E-1,-8.823046088E-1,-1.950764060E-1
3.568022276E1,-3.302317262E-1,-1.540504336E0,-2.552638054E-1
3.570049218E1,-1.390169114E-1,-1.372192740E0,-3.383543491E-1
3.572076161E1,5.016059875E-1,-3.647196293E-1,-1.972069293E-1
3.574103104E1,1.073519468E0,-6.804371625E-2,1.648495495E-1
3.576130046E1,1.367399096E0,-6.468813419E-1,5.929523706E-1
3.578156989E1,1.682051301E0,-1.333843231E0,9.162598848E-1
3.580183932E1,1.984586120E0,-1.932388186E0,1.214933157E0
3.582210880E1,2.134788275E0,-2.104960918E0,1.636111736E0
3.584237822E1,2.172605276E0,-1.215066314E0,1.989246726E0
3.586264765E1,1.993640900E0,2.194443047E-1,2.081791401E0
3.588291708E1,1.796567082E0,1.075250506E0,2.254364252E0
3.590318651E1,1.476588607E0,1.484711170E0,2.422143221E0
3.592345593E1,8.359656334E-1,1.528919697E0,2.296974659E0
3.594385593E1,5.858949944E-2,7.902924418E-1,1.899231911E0
3.596399484E1,-3.430148959E-1,-4.787028432E-1,1.438105941E0
3.598426427E1,-1.310274303E-1,-2.053295612E0,1.336905837E0
3.600453369E1,3.668501675E-1,-3.068225622E0,1.787379265E0
3.602480312E1,6.527402997E-1,-1.975531459E0,2.230928421E0
3.604507255E1,5.703155398E-1,-7.076013684E-1,1.912547708E0
3.606547255E1,1.607216448E-1,-5.472791791E-1,1.483912230E0
3.608561140E1,-2.141179889E-1,-7.347655892E-1,1.265533209E0
3.610588083E1,-3.217096329E-1,-1.069657803E0,1.042360425E0
3.612615031E1,-2.972085476E-1,-1.120257854E0,7.522093058E-1
3.614641974E1,-2.418148518E-1,-9.483509660E-1,4.917523265E-1
3.616668916E1,-2.593916953E-1,-5.419528484E-1,2.788327634E-1
3.618695859E1,-3.573959470E-1,-1.105211023E-2,1.701758653E-1
3.620722802E1,-5.319660306E-1,5.699160695E-1,1.307611167E-1
3.622749744E1,-6.816355586E-1,8.930904269E-1,4.287686199E-2
3.624776687E1,-7.759113908E-1,8.424903750E-1,-1.163800508E-1
3.626803630E1,-8.803072572E-1,4.884233773E-1,-3.106575012E-1
3.628830572E1,-8.430230021E-1,2.410159074E-2,-5.210470557E-1
3.630857515E1,-7.018755674E-1,2.620548606E-1,-7.621961236E-1
3.632884458E1,-5.506081581E-1,1.324388981E0,-8.170571923E-1
3.634911401E1,-2.418148518E-1,1.183774233E0,-6.940192580E-1
3.636938343E1,-4.953476042E-2,-1.207742617E-1,-8.671246171E-1
3.638965286E1,4.527370632E-2,-2.794985473E-1,-1.014663577E0
3.640992229E1,-1.368863732E-1,2.700443268E-1,-1.057806849E0
3.643019171E1,-2.508696020E-1,1.189100504E0,-1.078046799E0
3.645046114E1,-3.595264852E-1,1.711479187E0,-1.067926764E0
3.647073057E1,-4.984102249E-1,1.700293899E0,-9.922930598E-1
3.649100000E1,-4.569981098E-1,1.364868999E0,-9.976193905E-1
3.651140000E1,-3.078611791E-1,1.208275318E0,-1.172855258E0
3.653153885E1,-2.812296152E-1,1.209340572E0,-1.213734746E0
3.655180828E1,-3.163833022E-1,1.151816368E0,-1.171257377E0
3.657207770E1,-3.685812056E-1,1.386174321E0,-1.223854780E0
3.659234713E1,-3.877559602E-1,1.594965935E0,-1.297890544E0
3.661274713E1,-3.861580789E-1,1.405881643E0,-1.288303256E0
3.663288598E1,-4.442149401E-1,1.055010438E0,-1.196823716E0
3.665315541E1,-5.175849795E-1,7.588672042E-1,-1.132907867E0
3.667342484E1,-5.197154880E-1,6.347639561E-1,-1.016261458E0
3.669369427E1,-5.234439373E-1,5.502086878E-1,-8.213182688E-1
3.671409427E1,-4.920186400E-1,4.878907502E-1,-6.892255545E-1
3.673423307E1,-3.584612012E-1,4.388886094E-1,-6.668550372E-1
3.675450250E1,-2.231727391E-1,2.870885432E-1,-7.084003091E-1
3.677477192E1,-1.864211410E-1,1.565937549E-1,-7.510108948E-1
3.679504135E1,-2.407495826E-1,9.640636295E-2,-6.886929274E-1
3.681531078E1,-2.263685167E-1,1.816274524E-1,-5.194491744E-1
3.683558020E1,-1.118526831E-1,2.135853618E-1,-3.399522603E-1
3.685584958E1,-2.077264152E-2,8.894951642E-2,-1.828258783E-1
3.687611901E1,-5.326318089E-3,2.889527567E-2,-9.773793817E-2
3.689638843E1,2.716422267E-2,1.262337416E-1,-6.311687082E-2
3.691665786E1,6.378266215E-2,2.205095738E-1,-2.849580161E-2
3.693692729E1,6.751108170E-2,1.571263820E-1,5.592633970E-3
3.695719671E1,1.069258377E-1,9.800425172E-2,-2.530001104E-2
3.697746614E1,1.298290044E-1,2.066611499E-1,-1.391500682E-1
3.699773557E1,1.175784767E-1,2.364885211E-1,-2.659164369E-1
3.701800494E1,1.438105945E-2,-7.177213579E-2,-3.218427896E-1
3.703827437E1,-1.283642650E-1,-5.595297217E-1,-3.085269928E-1
3.705854380E1,-1.810948178E-2,-7.986814380E-1,-3.133206666E-1
3.707881322E1,3.109238148E-1,-8.370308876E-1,-2.968090773E-1
3.709908260E1,6.330329180E-1,-8.918919563E-1,-1.961416751E-1
3.711935203E1,9.318393469E-1,-1.055276752E0,3.009369783E-2
3.713962145E1,1.123586774E0,-1.212935805E0,3.049317300E-1
3.715989088E1,1.318929553E0,-1.448891759E0,6.632598042E-1
3.718016031E1,1.580984354E0,-1.446228504E0,1.138766885E0
3.720042968E1,2.182192564E0,-7.246456146E-1,1.790042400E0
3.722069911E1,2.442516327E0,2.790990770E-1,2.317747355E0
3.724096854E1,1.899365067E0,6.725808382E-1,2.694717646E0
3.726123796E1,9.941573143E-1,8.435556293E-1,2.805505037E0
3.728150734E1,1.415469050E-1,7.013429403E-1,2.475406408E0
3.730177677E1,-5.431513190E-1,-1.660479754E-1,2.084987164E0
3.732204619E1,-7.386271954E-1,-1.827992439E0,1.826261401E0
3.734231562E1,1.171789970E-2,-2.684730768E0,1.923200369E0
3.736258500E1,7.827024460E-1,-1.914811373E0,2.177665234E0
3.738285442E1,8.956204057E-1,-9.435572624E-1,1.965278268E0
3.740312385E1,4.121238589E-1,-9.803088903E-1,1.422127008E0
3.742339322E1,3.036001325E-2,-1.135704160E0,1.166463733E0
3.744366265E1,-2.231727391E-1,-1.447826505E0,9.056072235E-1
3.746393208E1,-3.275685608E-1,-1.611211300E0,4.752407372E-1
3.748420145E1,-2.561959028E-1,-1.524525404E0,7.270424068E-2
3.750447088E1,-8.415582776E-2,-1.027180433E0,-3.559312224E-1
3.752474031E1,1.474058628E-1,-2.294311523E-1,-5.519397259E-1
3.754500974E1,1.969406158E-1,6.049365997E-1,-3.889544010E-1
3.756527911E1,-1.012000442E-1,1.486309052E0,-1.206411049E-1
3.758554854E1,-6.091976166E-1,2.053428888E0,-4.181159660E-2
3.760581796E1,-8.872314692E-1,2.130127907E0,-1.359542757E-1
3.762608734E1,-7.412903309E-1,1.546496511E0,-3.830954432E-1
3.764635677E1,-4.527370334E-1,8.052061796E-1,-5.775060654E-1
3.766662614E1,-4.367581010E-2,5.688507557E-1,-3.399522603E-1
3.768689557E1,3.036001325E-2,-8.615319431E-2,-5.056007504E-1
3.770716500E1,4.580633715E-2,-3.929491341E-1,-6.753771305E-1
3.772743437E1,-1.262337416E-1,-2.490053698E-2,-8.495477438E-1
3.774770380E1,-3.760380745E-1,8.073366880E-1,-8.777772188E-1
3.776797322E1,-5.410207510E-1,1.444231153E0,-1.009869933E0
3.778824260E1,-5.569997430E-1,1.677923441E0,-1.122255206E0
3.780851203E1,-5.522060394E-1,1.461275458E0,-1.116928935E0
3.782878140E1,-4.649875760E-1,1.094957829E0,-1.149419427E0
3.784905083E1,-3.307643533E-1,1.050216794E0,-1.150484681E0
3.786932026E1,-2.673811615E-1,1.188567877E0,-1.091895223E0
3.788958963E1,-2.801643312E-1,1.262071133E0,-1.176583648E0
3.790985906E1,-3.126548827E-1,1.270060539E0,-1.426787496E0
3.793012843E1,-3.994738758E-1,1.270060539E0,-1.588174939E0
3.795039786E1,-5.783050060E-1,1.062999964E0,-1.567402244E0
3.797066718E1,-6.954839826E-1,7.524756193E-1,-1.459277987E0
3.799093666E1,-6.464818716E-1,6.310355663E-1,-1.287770629E0
3.801133666E1,-6.161218882E-1,3.834949136E-1,-1.091362596E0
3.803147546E1,-6.102629304E-1,5.592634156E-2,-9.310404062E-1
3.805174484E1,-5.687175989E-1,-9.361004084E-2,-8.809730411E-1
3.807201427E1,-5.048018098E-1,-1.388837546E-1,-8.964193463E-1
3.809228364E1,-4.340949357E-1,-1.431448013E-1,-9.273120165E-1
3.811268364E1,-3.520696461E-1,-1.133174226E-1,-8.671246171E-1
3.813282244E1,-2.199769467E-1,1.877527125E-2,-6.828339696E-1
3.815309187E1,-1.134505793E-1,8.628635854E-2,-4.944154918E-1
3.817336124E1,-1.113200486E-1,9.960214794E-2,-3.431480527E-1
3.819376125E1,-1.486042738E-1,1.960085034E-1,-2.547311783E-1
3.821405796E1,-1.917474568E-1,3.094590902E-1,-2.195774615E-1
3.823417000E1,-2.396843135E-1,1.922800839E-1,-2.728406489E-1
3.825443932E1,-2.039979845E-1,-4.194475710E-2,-3.527354300E-1
3.827470859E1,-7.510108501E-2,2.356895804E-2,-3.857586086E-1
3.829497791E1,7.123950869E-2,1.629853398E-1,-4.081291258E-1
3.831537791E1,9.520793706E-2,-1.074584723E-1,-4.246407151E-1
3.833551661E1,-1.917474531E-2,-7.448856235E-1,-4.294344187E-1
3.835578593E1,2.663159044E-3,-1.289102197E0,-3.255712092E-1
3.837605531E1,2.139848322E-1,-1.537841201E0,-1.238368973E-1
3.839632463E1,5.458144546E-1,-1.360474825E0,4.926844314E-2
3.841672463E1,1.017060518E0,-1.261937976E0,2.362222075E-1
3.843686343E1,1.435043335E0,-1.227849483E0,4.922849536E-1
3.845713286E1,1.816274524E0,-1.237436891E0,7.735145688E-1
3.847740224E1,2.057556629E0,-1.102148414E0,1.138766885E0
3.849767161E1,2.146506310E0,-9.036098719E-1,1.573793888E0
3.851794098E1,2.330663681E0,-4.190480709E-1,2.018541336E0
3.853821036E1,2.384459496E0,4.495412707E-1,2.242113590E0
3.855847974E1,2.057024002E0,8.920251131E-1,2.441318035E0
3.857874916E1,1.426521182E0,1.343031168E0,2.498842239E0
3.859901854E1,6.442182064E-1,1.251951098E0,2.238917828E0
3.861928791E1,-7.563371956E-2,1.059937328E-1,1.837446570E0
3.863955734E1,-2.641853690E-1,-1.372192740E0,1.626524448E0
3.865982671E1,9.520793706E-2,-2.611360550E0,1.847566605E0
3.868009609E1,5.133239031E-1,-2.163949966E0,2.296442032E0
3.870036546E1,5.932186842E-1,-5.627255440E-1,2.254896879E0
3.872063484E1,2.486059070E-1,1.611211337E-2,1.567934871E0
3.874090427E1,-1.086568907E-1,-2.241048366E-1,1.315600634E0
3.876117364E1,-2.684464455E-1,-8.487488031E-1,1.093493104E0
3.878144302E1,-3.286338449E-1,-1.211337924E0,7.751124501E-1
3.880171244E1,-2.711096108E-1,-1.161270499E0,4.534028471E-1
3.882198182E1,-1.214400530E-1,-7.358308434E-1,1.962748319E-1
3.884225119E1,-1.278316416E-2,-1.633848101E-1,-1.837579720E-2
3.886252057E1,-4.367581010E-2,5.581981540E-1,-4.447475821E-2
3.888278994E1,-2.945453823E-1,1.274854302E0,4.926844314E-2
3.890305937E1,-6.262418628E-1,1.672064424E0,1.304947957E-2
3.892332874E1,-9.143956900E-1,1.588041782E0,-2.424806356E-1
3.894359812E1,-1.079378366E0,8.872314692E-1,-6.499440074E-1
3.896386750E1,-1.009736776E0,4.655202031E-1,-5.743102431E-1
3.898413687E1,-6.331660748E-1,8.376966715E-1,-2.014679909E-1
3.900440625E1,-1.097221524E-1,3.115896285E-1,-5.322323442E-1
3.902467562E1,-1.448758543E-1,-5.542033911E-1,-9.475520253E-1
3.904494505E1,-1.992042959E-1,-1.234374270E-1,-1.039697289E0
3.906534505E1,-5.122586489E-1,5.841639638E-1,-8.857667446E-1
3.908548380E1,-7.982819676E-1,1.734382391E0,-8.729835749E-1
3.910575317E1,-8.558061719E-1,1.928792953E0,-9.054740667E-1
3.912602255E1,-5.846965909E-1,1.634380698E0,-9.795098901E-1
3.914629192E1,-3.973433375E-1,1.565138578E0,-1.069524646E0
3.916656130E1,-3.701791167E-1,1.527321696E0,-1.125451088E0
3.918683067E1,-3.030675054E-1,1.396294355E0,-1.122787833E0
3.920723067E1,-2.966759205E-1,1.550224900E0,-1.211071610E0
3.922736947E1,-3.664506972E-1,1.955424547E0,-1.323989511E0
3.924763885E1,-3.771033287E-1,2.004426718E0,-1.406547427E0
3.926790822E1,-3.941475451E-1,1.284974217E0,-1.433179021E0
3.928817760E1,-5.303681493E-1,7.087997794E-1,-1.229181051E0
3.930844697E1,-5.293028951E-1,7.396924496E-1,-8.431561589E-1
3.932871635E1,-3.925496638E-1,7.476819158E-1,-6.700508595E-1
3.934898572E1,-2.247706354E-1,8.771114349E-1,-7.392929792E-1
3.936925510E1,-4.154528305E-2,8.637956381E-1,-8.325035572E-1
3.938952447E1,1.063932031E-1,8.217177391E-1,-8.889625072E-1
3.940975447E1,1.239700541E-1,8.627303839E-1,-8.703203797E-1
3.943006312E1,-3.408843651E-2,8.094671965E-1,-7.856319547E-1
3.945033255E1,-2.386190593E-1,6.683197618E-1,-6.398239732E-1
3.947060197E1,-2.657832801E-1,6.858966351E-1,-5.205144286E-1
3.949087135E1,-1.320926845E-1,7.631282210E-1,-5.002744198E-1
3.951127135E1,-1.118526794E-2,5.693834424E-1,-5.402218103E-1
3.953141005E1,7.816372067E-2,4.554001987E-1,-5.609944463E-1
3.955167942E1,1.442100704E-1,5.267728567E-1,-5.045354962E-1
3.957194880E1,1.090563685E-1,5.379581451E-1,-3.756386042E-1
3.959221817E1,-4.261054564E-3,4.633896947E-1,-2.861564457E-1
3.961261817E1,-8.788424730E-2,4.356928170E-1,-2.861564457E-1
3.963275692E1,-9.214530140E-2,3.621896505E-1,-3.074617088E-1
3.965302630E1,-1.070589945E-1,2.263685167E-1,-3.335606754E-1
3.967329567E1,-1.033305749E-1,2.221074700E-1,-3.676491082E-1
3.969356505E1,-5.752423778E-2,3.547327816E-1,-3.740406930E-1
3.971396505E1,-5.858949851E-3,5.566002727E-1,-3.649859428E-1
3.973410380E1,-2.183790505E-2,5.518065691E-1,-3.830954432E-1
3.975437317E1,-1.081242561E-1,4.250401855E-1,-3.745733202E-1
3.977464260E1,-1.331579536E-1,2.988064587E-1,-3.308975101E-1
3.979491197E1,7.763108611E-2,2.822948694E-1,-2.653838098E-1
3.981518135E1,4.451470375E-1,4.282359779E-1,-1.105211005E-1
3.983545072E1,5.953491926E-1,2.950780392E-1,2.902843431E-2
3.985572000E1,7.496792674E-1,8.948214352E-2,1.776327193E-1
3.987598947E1,1.044224739E0,-9.201214463E-2,4.672512710E-1
3.989625880E1,1.320527434E0,-2.693785429E-1,8.459525108E-1
3.991652817E1,1.477121234E0,-4.281028211E-1,1.227716327E0
3.993679755E1,1.515470743E0,-3.263701499E-1,1.599892855E0
3.995706692E1,1.466468573E0,5.379581451E-2,1.910949826E0
3.997733630E1,1.380182147E0,6.107955575E-1,2.141978979E0
3.999760567E1,1.196424246E0,9.692567587E-1,2.336922169E0
4.001787505E1,1.028245687E0,9.431577921E-1,2.549442291E0
4.003814442E1,9.696562290E-1,7.524756193E-1,2.375271559E0
4.005841380E1,1.104944706E0,1.640505940E-1,1.786846638E0
4.007868317E1,1.273655891E0,-2.304964215E-1,1.103080511E0
4.009895250E1,1.253948450E0,-3.609912097E-1,8.273103833E-1
4.011922182E1,1.104944706E0,-7.837677002E-1,6.653903127E-1
4.013949124E1,1.043691993E0,-4.195807278E-1,9.237167239E-1
4.015976062E1,1.228914738E0,9.053409100E-1,1.454617500E0
4.018003000E1,1.461142182E0,1.865942478E0,1.600425482E0
4.020029937E1,1.258742094E0,1.674727559E0,1.254880548E0
4.022056874E1,9.020119905E-1,1.396826982E0,1.004011035E0
4.024083807E1,6.101297736E-1,1.369130135E0,7.926893234E-1
4.026110744E1,4.419512451E-1,1.529452324E0,5.274386406E-1
4.028137682E1,4.190480709E-1,1.651957631E0,1.882853508E-1
4.030164619E1,4.424838722E-1,1.568334341E0,-1.929458827E-1
4.032191557E1,3.956122994E-1,1.493765950E0,-4.635228515E-1
4.034218494E1,2.182458937E-1,1.437839627E0,-7.078676820E-1
4.036245427E1,-4.314317927E-2,1.510277510E0,-8.889625072E-1
4.038272364E1,-2.391516864E-1,1.530517578E0,-8.687224984E-1
4.040299302E1,-3.600591123E-1,1.285506845E0,-5.924197435E-1
4.042326239E1,-5.452818274E-1,1.761013985E0,-1.604553312E-1
4.044366239E1,-4.548675716E-1,3.047053576E0,1.707084924E-1
4.046380114E1,6.644582003E-2,3.309507847E0,5.348954797E-1
4.048407046E1,-5.645897239E-2,1.459677458E0,8.715187907E-1
4.050433984E1,-2.977411747E-1,-8.370308876E-1,5.556681752E-1
4.052460921E1,-3.302317113E-2,-1.477121234E0,7.793735266E-1
4.054487859E1,1.596563905E-1,-9.851025343E-1,9.731183648E-1
4.056514796E1,-2.055958807E-1,6.922882199E-1,4.635228515E-1
4.058541729E1,-4.426170290E-1,2.251434803E0,-1.198421605E-2
4.060568661E1,-2.173137814E-1,2.008155107E0,-3.532680571E-1
4.062595604E1,3.119890988E-1,1.983121395E0,-9.491499066E-1
4.064622541E1,7.928224802E-1,2.227466345E0,-1.196823716E0
4.066649474E1,8.450203538E-1,1.853691936E0,-1.030642629E0
4.068676411E1,4.531365335E-1,1.134239435E0,-7.733814120E-1
4.070703343E1,3.195790946E-2,6.155892015E-1,-4.107922912E-1
4.072730281E1,1.063932031E-1,8.803072572E-1,-1.604553312E-1
4.074757218E1,1.303616315E-1,1.977262497E0,7.190529723E-3
4.076784156E1,-3.265033066E-1,3.150383949E0,6.471476704E-2
4.078811083E1,-5.085302591E-1,2.934668064E0,2.745717168E-1
