"Time (s)","Acceleration x (m/s^2)","Acceleration y (m/s^2)","Acceleration z (m/s^2)"
3.141765800E-2,-2.501696110E0,2.941975355E0,8.918049812E0
5.176672000E-2,-1.836491346E0,3.047259569E0,8.788837433E0
7.203744900E-2,-1.110867858E0,3.167499065E0,8.441878319E0
9.230817800E-2,-1.211366415E0,3.095116138E0,7.828717709E0
1.125790120E-1,-1.814357758E0,3.090330362E0,7.931608677E0
1.328498450E-1,-1.735394597E0,2.896511793E0,7.950751305E0
1.531207300E-1,-1.532004714E0,2.750549555E0,7.766504288E0
1.733916680E-1,-1.553540111E0,2.769692183E0,7.450651646E0
1.936626050E-1,-1.488933921E0,3.025724173E0,7.642077446E0
2.139335430E-1,-1.074975610E0,2.927618504E0,8.384450912E0
2.342044280E-1,-6.628118753E-1,2.650051117E0,8.872586250E0
2.544754180E-1,-4.833501875E-1,2.269592285E0,8.647661209E0
2.747464080E-1,-6.269195080E-1,2.554338217E0,8.551948547E0
2.950173450E-1,-8.452646136E-1,3.368496180E0,8.724231720E0
3.152883350E-1,-1.055832982E0,3.581457376E0,9.207581520E0
3.355593760E-1,-7.657032609E-1,2.539981127E0,1.008634567E1
3.558303140E-1,-3.014956415E-1,1.026520967E0,1.120917797E1
3.761013030E-1,5.964110494E-1,6.939185858E-1,1.107518005E1
3.963723450E-1,1.475175142E0,1.507478207E-1,1.187258816E1
4.166433350E-1,1.101296663E0,-2.111666054E-1,1.228893852E1
4.369143760E-1,1.310070395E0,-3.930211067E-1,1.243729401E1
4.573143760E-1,1.389033556E0,-6.418746710E-1,1.176969624E1
4.774564080E-1,1.592423439E0,-1.005583763E0,1.110150051E1
4.977274490E-1,1.975275040E0,-5.820540786E-1,1.040040398E1
5.179984390E-1,2.214557409E0,-2.949153781E-1,9.985847473E0
5.382694280E-1,2.059023857E0,-1.728814393E-1,1.007198906E1
5.585405220E-1,1.578066587E0,-5.324030295E-2,1.004088211E1
5.788115640E-1,1.333998680E0,8.853443712E-2,9.890133858E0
5.990826050E-1,1.551745534E0,3.828516304E-1,9.600603104E0
6.193536470E-1,1.333998680E0,6.364908218E-1,9.531210899E0
6.396246890E-1,1.165902853E0,3.828516304E-1,9.710672379E0
6.598957300E-1,8.979067206E-1,2.679961324E-1,9.818349838E0
6.801668240E-1,9.361918569E-1,2.751746178E-1,9.777671814E0
7.004378660E-1,7.112665176E-1,3.421736360E-1,9.492925644E0
7.207089080E-1,3.044866920E-1,3.445664644E-1,9.269794464E0
7.411089080E-1,4.001995921E-1,5.312066078E-1,9.356534958E0
7.612510430E-1,8.237292171E-1,5.742774606E-1,9.423533440E0
7.815221370E-1,8.165507317E-1,5.934200287E-1,8.910871506E0
8.017931780E-1,8.428717852E-1,7.298108935E-1,8.391629219E0
8.220642720E-1,1.137188911E0,9.738788009E-1,8.642875671E0
8.423353140E-1,1.120439172E0,9.595218897E-1,9.195617676E0
8.626064080E-1,8.691928387E-1,7.537391186E-1,9.425926208E0
8.828775010E-1,6.634100676E-1,7.393822074E-1,9.145368576E0
9.031485950E-1,7.998009920E-1,8.446664214E-1,8.973084450E0
9.234196370E-1,1.283151150E0,8.231309652E-1,9.298508644E0
9.436907300E-1,1.197009563E0,7.513462901E-1,9.701101303E0
9.639618240E-1,7.040880919E-1,5.910272002E-1,1.000498962E1
9.842329180E-1,-1.387837082E-1,-7.016952634E-1,1.647159195E1
1.004504012E0,4.456632137E-1,-5.102694035E-1,9.820742607E0
1.024775105E0,4.648058116E-1,7.657032460E-2,9.480961800E0
1.045046199E0,5.629115105E-1,4.235295951E-1,9.610174179E0
1.065317293E0,2.097309113E0,7.178468108E-1,9.238688469E0
1.085588387E0,2.576471806E0,8.518448472E-1,9.509675026E0
1.105859480E0,1.908276081E0,1.701895118E0,8.872586250E0
1.126130574E0,1.647458434E0,2.432304144E0,9.404391289E0
1.146401668E0,1.814955950E0,2.169093609E0,9.839884758E0
1.166672762E0,1.953739643E0,1.515254974E0,1.016052341E1
1.187072814E0,1.807777524E0,1.656431437E0,1.028973579E1
1.207215053E0,2.063809633E0,2.012962103E0,1.037348461E1
1.227486147E0,2.126022816E0,2.204986095E0,1.051765156E1
1.247757241E0,1.984846354E0,2.276770830E0,1.044347477E1
1.268028335E0,1.788634896E0,2.027318954E0,1.042433167E1
1.288428335E0,1.616351724E0,2.240878344E0,1.025862885E1
1.308570574E0,1.764706731E0,2.556730986E0,1.014855862E1
1.328841668E0,2.147558212E0,2.410768747E0,9.612566948E0
1.349112762E0,2.243271112E0,2.470589399E0,9.296115875E0
1.369383855E0,2.221735716E0,2.585444927E0,9.049654961E0
1.389783855E0,2.070987940E0,2.884547710E0,8.611768723E0
1.409926095E0,2.073380709E0,3.032902718E0,8.192426682E0
1.430197189E0,2.161915302E0,2.997010469E0,7.991429329E0
1.450468283E0,2.310270309E0,3.138785124E0,7.977072716E0
1.470731512E0,2.478366137E0,3.303889751E0,8.036892891E0
1.490933543E0,2.559721947E0,3.526422262E0,8.221140862E0
1.511282866E0,2.626721144E0,3.715455294E0,8.417949677E0
1.531553699E0,2.569293261E0,4.019343853E0,8.702695847E0
1.551824637E0,2.746362209E0,4.331008911E0,8.853444099E0
1.572091668E0,2.650649309E0,5.099104881E0,8.898907661E0
1.592328022E0,2.909074068E0,4.929214478E0,8.252246857E0
1.612638126E0,3.227319479E0,4.685146809E0,7.814360619E0
1.632909116E0,3.315854073E0,5.123033047E0,7.546364307E0
1.653180053E0,3.263211966E0,5.432305813E0,7.067201614E0
1.673451147E0,3.560520172E0,5.405984402E0,6.583851337E0
1.693850991E0,3.996013880E0,5.113461971E0,6.200401783E0
1.713993178E0,3.862015724E0,5.494519234E0,6.016154289E0
1.734264220E0,4.278367043E0,5.798407555E0,5.946762562E0
1.754535262E0,4.479962349E0,5.544768333E0,5.559125423E0
1.774806303E0,3.318246841E0,5.209773064E0,5.736194134E0
1.795077397E0,1.628315806E0,5.015356064E0,7.400402069E0
1.815348491E0,1.254437327E0,3.784847260E0,7.275975227E0
1.835619585E0,1.137188911E0,3.571886063E0,7.479365349E0
1.855890626E0,9.361918569E-1,4.038486481E0,7.498507977E0
1.876161720E0,4.767699242E-1,3.866203070E0,7.304689407E0
1.896432866E0,2.297109663E-1,3.390031576E0,7.993822098E0
1.916703960E0,-4.283152521E-1,3.090330362E0,6.574280262E0
1.936975001E0,-1.235294700E0,2.800798893E0,7.486543655E0
1.957246147E0,-3.397808075E-1,2.913261652E0,7.472187042E0
1.977517241E0,8.883354068E-1,2.152343988E0,7.783253670E0
1.997788335E0,1.017547846E0,2.695514679E0,7.472187042E0
2.018059480E0,-4.809573591E-1,2.853441000E0,7.258627415E0
2.038330574E0,-2.793620348E0,2.697907448E0,7.043273449E0
2.058601668E0,-4.431507587E0,2.518445730E0,6.085546017E0
2.078872814E0,-4.895715237E0,2.470589399E0,4.778466702E0
2.099143908E0,-4.982454777E0,2.513660192E0,3.701098442E0
2.119415001E0,-5.618945599E0,2.772084951E0,2.930011272E0
2.139686095E0,-6.464210510E0,2.353341103E0,2.439482689E0
2.159957241E0,-7.960322857E0,1.292722464E0,2.212164640E0
2.180228335E0,-1.017547798E1,1.007378340E0,1.431506157E0
2.200499428E0,-1.184865952E1,1.055832982E0,8.039883971E-1
2.220770522E0,-1.260060406E1,1.484148264E0,2.488535494E-1
2.241041616E0,-1.358225918E1,2.097309113E0,6.939185411E-2
2.261312762E0,-1.450170135E1,2.542374134E0,-1.250249892E-1
2.281583855E0,-1.461416435E1,2.257628202E0,-1.417747438E-1
2.301854949E0,-1.447059536E1,1.261615753E0,3.828516230E-2
2.322126043E0,-1.446341610E1,4.857429862E-1,2.273181528E-1
2.342397137E0,-1.415414429E1,5.647061467E-1,5.096712112E-1
2.362668230E0,-1.366840076E1,1.746760458E-1,8.877372146E-1
2.382939324E0,-1.317248821E1,-6.825526357E-1,9.260223508E-1
2.403210418E0,-1.272503090E1,-1.159322619E0,6.556333899E-1
2.423481512E0,-1.259342575E1,-8.739784956E-1,3.326023519E-1
2.443752605E0,-1.266281700E1,-3.595215976E-1,2.344966233E-1
2.464023699E0,-1.201137161E1,-4.265206456E-1,4.378865361E-1
2.484423699E0,-1.117567825E1,-6.251249313E-1,6.604190469E-1
2.504565887E0,-1.053918743E1,-7.974081635E-1,7.537391186E-1
2.524836980E0,-1.032144070E1,-5.270192027E-1,9.547362328E-1
2.545108074E0,-1.033819008E1,-3.882354796E-1,1.130010486E0
2.565379168E0,-1.029990482E1,-8.859425783E-1,1.347757339E0
2.585650262E0,-1.042672443E1,-1.735992789E0,1.407577872E0
2.605921303E0,-1.061575794E1,-2.385046005E0,1.137188911E0
2.626192397E0,-1.058943653E1,-2.662613392E0,7.537391186E-1
2.646463543E0,-1.042672443E1,-2.746362209E0,6.149554253E-1
2.666734637E0,-1.000259686E1,-2.942573547E0,6.460621357E-1
2.687130678E0,-9.758528709E0,-3.105285645E0,6.963114142E-1
2.707202658E0,-9.698708534E0,-3.021536827E0,5.982056856E-1
2.727551460E0,-9.540781975E0,-2.722434044E0,4.689932466E-1
2.747821720E0,-9.256035805E0,-2.334796667E0,5.168496966E-1
2.768092866E0,-9.071190834E0,-2.265404940E0,6.317051649E-1
2.788492293E0,-9.066405296E0,-2.172084808E0,5.192425251E-1
2.808634012E0,-9.181859016E0,-2.210369825E0,1.938186288E-1
2.828904741E0,-9.327820778E0,-2.313261271E0,2.153540403E-2
2.849175522E0,-9.559925079E0,-2.255833626E0,-7.716853172E-2
2.869446668E0,-9.703494072E0,-2.318047047E0,9.571290575E-3
2.889846408E0,-9.732208252E0,-2.432902336E0,-1.734796353E-2
2.909988387E0,-9.758528709E0,-2.499901533E0,-3.643072546E-1
2.930259324E0,-1.005763149E1,-2.758326292E0,-9.672985673E-1
2.950530262E0,-1.034058285E1,-2.949752092E0,-5.629115105E-1
2.970801408E0,-1.025204849E1,-2.514258385E0,-6.634100676E-1
2.991201303E0,-1.003848934E1,-2.224726915E0,-5.629115105E-1
3.011343387E0,-9.653244972E0,-1.862812400E0,-6.993024349E-1
3.031614428E0,-9.550353050E0,-1.843669891E0,-9.314061999E-1
3.051885470E0,-9.744172096E0,-2.193620205E0,-1.549352646E0
3.072156512E0,-1.017308521E1,-2.413759947E0,-2.392224550E0
3.092427553E0,-1.078325558E1,-2.507079840E0,-3.110071182E0
3.112698647E0,-1.138684464E1,-2.497508526E0,-3.144168854E0
3.132969689E0,-1.136052418E1,-1.757528186E0,-2.803789854E0
3.153240783E0,-1.086700439E1,-1.338784218E0,-2.444866419E0
3.173511824E0,-1.035254669E1,-1.417747378E0,-2.344367981E0
3.193782866E0,-9.945169449E0,-1.353141189E0,-2.174477577E0
3.214054012E0,-9.344570160E0,-1.259821177E0,-1.826920033E0
3.234325105E0,-8.901300430E0,-1.195214868E0,-1.207179070E0
3.254596199E0,-8.322237015E0,-1.135394335E0,-7.064808607E-1
3.274867293E0,-7.852645874E0,-9.672985673E-1,-3.810569942E-1
3.295138387E0,-7.201797962E0,-8.907282352E-1,-1.609173268E-1
3.315409533E0,-6.763313293E0,-1.111466169E0,-3.170489892E-2
3.335680574E0,-7.323832035E0,-1.427318692E0,-7.716853172E-2
3.355951720E0,-8.513663292E0,-1.633101463E0,-2.805584669E-1
3.376222814E0,-9.892526627E0,-1.800599098E0,-8.524430394E-1
3.396493960E0,-1.069950676E1,-1.616351724E0,-1.240678549E0
3.416765053E0,-1.153041458E1,-1.633101463E0,-9.002995491E-1
3.437036147E0,-1.231585789E1,-1.791027784E0,3.206382394E-1
3.457307293E0,-1.082871914E1,-1.762313843E0,3.780659735E-1
3.477578387E0,-9.799206734E0,-1.511067510E0,-6.203392744E-1
3.497849480E0,-9.210572243E0,-1.341177106E0,-1.506281853E0
3.518120626E0,-9.169894218E0,-9.218349457E-1,-1.628315806E0
3.538391772E0,-9.483354568E0,-1.010967568E-1,-1.420140266E0
3.558662918E0,-8.740981102E0,3.852444589E-1,-1.070788145E0
3.578934012E0,-8.472985268E0,5.407779217E-1,-6.993024349E-1
3.599205105E0,-8.609375954E0,3.254238665E-1,-7.998009920E-1
3.619476303E0,-8.798408508E0,-1.609173268E-1,-1.245464206E0
3.639747449E0,-9.263215065E0,-1.019940615E0,-1.721635938E0
3.660018543E0,-1.025204849E1,-1.819741607E0,-1.391426325E0
3.680289689E0,-1.052004433E1,-1.936989903E0,-7.304090858E-1
3.700560835E0,-1.030229759E1,-1.688136339E0,-2.709871531E-1
3.720831980E0,-9.947562218E0,-1.824527264E0,-1.633101404E-1
3.741231980E0,-1.027119160E1,-2.590828657E0,-5.605186820E-1
3.761374272E0,-1.049372387E1,-3.062214851E0,-1.286142230E0
3.781645418E0,-1.019462109E1,-3.151347399E0,-1.159322619E0
3.801916564E0,-9.124430656E0,-3.069393158E0,-6.418746710E-1
3.822187762E0,-7.666005611E0,-2.947359324E0,-4.606183618E-2
3.842458908E0,-5.851049423E0,-2.842075109E0,7.106683254E-1
3.862730053E0,-4.453042984E0,-2.684148788E0,4.570291340E-1
3.883001199E0,-5.877370834E0,-5.075775146E0,2.943171859E-1
3.903272397E0,-9.598209381E0,-6.828517437E0,-1.005583763E0
3.923543543E0,-1.155673504E1,-7.999206066E0,-2.157727718E0
3.943814689E0,-9.576674461E0,-7.043871880E0,-2.806182861E0
3.964085887E0,-6.468996048E0,-6.505486488E0,-2.595614433E0
3.984357033E0,-4.852644444E0,-5.025525570E0,-1.424925923E0
4.004628178E0,-3.437887907E0,-4.704887390E0,1.579262912E-1
4.024899376E0,-2.848655462E0,-3.574877024E0,3.421736360E-1
4.045170522E0,-2.212164640E0,-2.712862730E0,3.062812984E-1
4.065441668E0,-1.634896040E0,-3.182454109E0,1.074975610E0
4.085712814E0,-5.670989752E-1,-3.242274761E0,8.350951076E-1
4.105984064E0,-2.073380709E0,-5.511867046E0,-7.112665176E-1
4.126255210E0,-2.602194548E0,-1.538285828E1,-2.638685226E0
4.146526408E0,-2.918645382E0,-2.626242447E1,-3.064607620E0
4.166797553E0,-4.060619831E0,-3.277449036E1,-7.144370079E0
4.187197553E0,-8.261220455E-1,-1.533021641E1,-1.043868899E0
4.207339949E0,-2.584248483E-1,-5.200799942E0,5.425127029E0
4.227611095E0,-1.749751568E0,-4.613960266E0,3.289532900E0
4.247882293E0,-6.245267391E-1,-7.896314621E0,3.948157430E-1
4.268153491E0,-4.618147612E-1,-1.119781208E1,-1.271785259E0
4.288553491E0,-4.689932466E-1,-1.120259762E1,-2.073380709E0
4.308695887E0,-7.393822074E-1,-9.234500885E0,-1.965703845E0
4.328967033E0,-1.266401410E0,-8.935398102E0,-1.941775560E0
4.349238178E0,-1.956132531E0,-9.462417603E0,-1.709671736E0
4.369509428E0,-2.863610506E0,-9.897911072E0,-1.058823988E-1
4.389909428E0,-2.621337175E0,-9.833304405E0,1.036690354E0
4.410051824E0,-1.488933921E0,-9.668199539E0,4.091726840E-1
4.430323022E0,-9.505487680E-1,-9.792626381E0,-1.968096644E-1
4.450594220E0,-8.213363886E-1,-9.795019150E0,-5.629115105E-1
4.470865418E0,-7.417750359E-1,-9.713663101E0,-7.160521746E-1
4.491136668E0,-1.297508121E0,-9.790233612E0,-5.318048596E-1
4.511407866E0,-1.829312921E0,-9.814162254E0,-2.422732860E-1
4.531679012E0,-2.013560295E0,-9.692128181E0,-2.231307179E-1
4.551950210E0,-2.185843468E0,-9.534201622E0,-2.638086975E-1
4.572221460E0,-2.228914261E0,-9.500701904E0,-4.025924206E-1
4.592492658E0,-2.018345833E0,-9.629914284E0,-6.203392744E-1
4.612763855E0,-1.675574064E0,-9.723235130E0,-3.930211067E-1
4.633035053E0,-1.560718536E0,-9.732806206E0,2.871387079E-2
4.653306251E0,-1.675574064E0,-9.694520950E0,-4.785645287E-3
4.673577449E0,-1.699502230E0,-9.696913719E0,-3.643072546E-1
4.693848647E0,-1.816750646E0,-9.629914284E0,-7.112665176E-1
4.714119897E0,-1.992024899E0,-9.558130264E0,-7.998009920E-1
4.734391095E0,-2.013560295E0,-9.555737495E0,-7.399803996E-1
4.754662293E0,-2.097309113E0,-9.594022751E0,-6.227321029E-1
4.774933491E0,-2.219342947E0,-9.584450722E0,-4.935196638E-1
4.795204689E0,-2.276770830E0,-9.562915802E0,-4.336991012E-1
4.815475887E0,-2.322234392E0,-9.572486877E0,-4.289134443E-1
4.835747085E0,-2.350948334E0,-9.555737495E0,-5.676971674E-1
4.856018335E0,-2.341377020E0,-9.479166985E0,-7.016952634E-1
4.876289533E0,-2.185843468E0,-9.534201622E0,-7.304090858E-1
4.896560730E0,-1.987239242E0,-9.605986595E0,-7.710871100E-1
4.916831928E0,-1.891526341E0,-9.637093544E0,-8.309076428E-1
4.937103126E0,-1.764108539E0,-9.665806770E0,-1.022333503E0
4.957374324E0,-1.668395638E0,-9.814162254E0,-1.226321578E0
4.977645574E0,-1.608574986E0,-9.759127617E0,-1.372283816E0
4.997916772E0,-1.661217093E0,-9.598808289E0,-1.487139225E0
5.018188022E0,-1.754537225E0,-9.560523033E0,-1.556531072E0
5.038459220E0,-1.848455548E0,-9.546165466E0,-1.599601984E0
5.058730418E0,-1.927418590E0,-9.543772697E0,-1.625923038E0
5.079001616E0,-1.999203324E0,-9.524630547E0,-1.527817249E0
5.099272814E0,-2.097309113E0,-9.562915802E0,-1.412961721E0
5.119544064E0,-2.042274237E0,-9.558130264E0,-1.379462242E0
5.139815262E0,-1.908276081E0,-9.538987160E0,-1.408176184E0
5.160086460E0,-1.809572101E0,-9.579665184E0,-1.467996716E0
5.180357658E0,-1.704287887E0,-9.677771568E0,-1.479960799E0
5.200757658E0,-1.666002750E0,-9.797411919E0,-1.357926846E0
5.220900105E0,-1.685145378E0,-9.857233047E0,-1.243071318E0
5.241171303E0,-1.591825247E0,-9.871589661E0,-1.118644595E0
5.261442501E0,-1.570289850E0,-9.759127617E0,-9.505487680E-1
5.281713751E0,-1.627717614E0,-9.692128181E0,-9.194421172E-1
5.301984949E0,-1.807179332E0,-9.656235695E0,-9.888339639E-1
5.322256147E0,-1.768894196E0,-9.641879082E0,-1.164108157E0
5.342527345E0,-1.661217093E0,-9.644271851E0,-1.283749342E0
5.362798543E0,-1.520040631E0,-9.699306488E0,-1.231107235E0
5.383069793E0,-1.275972724E0,-9.747162819E0,-9.888339639E-1
5.403340991E0,-1.000798106E0,-9.866804123E0,-7.184450030E-1
5.423612137E0,-8.715856671E-1,-1.000080204E1,-6.370890141E-1
5.443883387E0,-1.168295622E0,-9.701699257E0,-8.979067206E-1
5.464154585E0,-1.692323804E0,-9.426525116E0,-1.259821177E0
5.484425783E0,-2.169093609E0,-9.431310654E0,-1.436890006E0
5.504696980E0,-2.523231506E0,-9.605986595E0,-1.456032634E0
5.524968178E0,-2.733799934E0,-9.680164337E0,-1.286142230E0
5.545239428E0,-2.621337175E0,-9.536594391E0,-9.361918569E-1
5.565510626E0,-2.432304144E0,-9.462417603E0,-7.208378315E-1
5.585781824E0,-2.477767944E0,-9.390632629E0,-6.466603279E-1
5.606052970E0,-2.652443886E0,-9.358927727E0,-7.399803996E-1
5.626324168E0,-2.762513638E0,-9.385847092E0,-8.763712645E-1
5.646595366E0,-2.839084148E0,-9.476774216E0,-1.051047325E0
5.666866512E0,-2.685943365E0,-9.742377281E0,-1.293320656E0
5.687266512E0,-1.879562140E0,-9.658628464E0,-1.195214868E0
5.707408908E0,-1.153938770E0,-9.692128181E0,-9.696913958E-1
5.727680158E0,-7.657032609E-1,-9.940981865E0,-7.974081635E-1
5.747951355E0,-7.154539824E-1,-9.943374634E0,-8.787640929E-1
5.768222553E0,-9.960124493E-1,-9.457631111E0,-1.118644595E0
5.788622553E0,-1.565504193E0,-9.177073479E0,-1.365105271E0
5.808764897E0,-2.171486616E0,-9.567701340E0,-1.338784218E0
5.829036043E0,-2.429911375E0,-1.004148006E1,-1.029511929E0
5.849307241E0,-2.343769789E0,-1.015394306E1,-6.490531564E-1
5.869578439E0,-2.114058733E0,-9.893125534E0,-3.355933726E-1
5.889978439E0,-1.711466432E0,-9.713663101E0,-3.547359705E-1
5.910120783E0,-9.960124493E-1,-9.751948357E0,-3.858426511E-1
5.930391980E0,-4.857429862E-1,-9.718449593E0,-2.303091735E-1
5.950663178E0,-2.009970993E-1,-9.704092026E0,-1.609173268E-1
5.970934324E0,-2.895315289E-1,-9.536594391E0,-6.083751321E-1
5.991334324E0,-8.691928387E-1,-9.318249702E0,-1.259821177E0
6.011476720E0,-1.939382792E0,-9.287142754E0,-1.518245935E0
6.031747866E0,-2.511267424E0,-9.629914284E0,-1.307677627E0
6.052019064E0,-2.499303341E0,-1.004148006E1,-8.907282352E-1
6.072290210E0,-1.886740685E0,-1.002951622E1,-6.514459848E-1
6.092561408E0,-1.228116274E0,-9.936196327E0,-5.676971674E-1
6.112832553E0,-7.878368497E-1,-9.957731247E0,-3.355933726E-1
6.133103751E0,-6.460621357E-1,-9.981659889E0,-1.178465188E-1
6.153374897E0,-1.058225870E0,-9.720842361E0,-2.398804724E-1
6.173646095E0,-1.587039590E0,-9.356534958E0,-5.102694035E-1
6.194046095E0,-1.807179332E0,-9.277571678E0,-6.418746710E-1
6.214188335E0,-1.780858278E0,-9.629914284E0,-5.700899959E-1
6.234459585E0,-1.764108539E0,-9.787840843E0,-3.810569942E-1
6.254730730E0,-1.850848317E0,-9.625128746E0,-1.561316848E-1
6.275001876E0,-2.025524378E0,-9.515059471E0,-9.391828626E-2
6.295273074E0,-2.035095692E0,-9.491130829E0,-2.518445849E-1
6.315544220E0,-1.956132531E0,-9.469595909E0,-5.318048596E-1
6.335815366E0,-1.860419631E0,-9.541379929E0,-7.758727670E-1
6.356086512E0,-1.599003673E0,-9.684949875E0,-6.203392744E-1
6.376357710E0,-1.476969719E0,-9.806983948E0,-3.188436031E-1
6.396628855E0,-1.716252089E0,-9.902696609E0,-9.631111473E-2
6.416900001E0,-1.872383714E0,-9.866804123E0,6.939185411E-2
6.437171147E0,-1.898704767E0,-9.780662537E0,8.614161611E-2
6.457442293E0,-1.685145378E0,-9.711270332E0,-9.391828626E-2
6.477713439E0,-1.474576950E0,-9.632308006E0,-4.624129832E-1
6.497984585E0,-1.321436286E0,-9.531808853E0,-6.921239495E-1
6.518255730E0,-1.199402332E0,-9.548559189E0,-7.088736892E-1
6.538526876E0,-1.153938770E0,-9.613164902E0,-6.634100676E-1
6.558798022E0,-1.194616675E0,-9.720842361E0,-5.796613097E-1
6.579069168E0,-1.192223907E0,-9.720842361E0,-4.576273263E-1
6.599340314E0,-1.268794179E0,-9.728020668E0,-4.289134443E-1
6.619611460E0,-1.252044439E0,-9.759127617E0,-5.485545993E-1
6.639882605E0,-1.189831018E0,-9.799804688E0,-5.341976285E-1
6.660153751E0,-1.247258782E0,-9.840482712E0,-4.049852192E-1
6.680424897E0,-1.417149186E0,-9.900303841E0,-2.829512656E-1
6.700695991E0,-1.488933921E0,-9.888339996E0,-2.542374134E-1
6.720967137E0,-1.388435364E0,-9.754341125E0,-3.116651475E-1
6.741367137E0,-1.340578914E0,-9.651450157E0,-4.241278172E-1
6.761509428E0,-1.445863128E0,-9.615557671E0,-5.054838061E-1
6.781780522E0,-1.622931957E0,-9.565308571E0,-4.863412082E-1
6.802051668E0,-1.814357758E0,-9.570094109E0,-4.313062727E-1
6.822322762E0,-1.761715651E0,-9.629914284E0,-4.360919297E-1
6.842593908E0,-1.639681697E0,-9.668199539E0,-4.576273263E-1
6.862865053E0,-1.543968797E0,-9.787840843E0,-5.078766346E-1
6.883136147E0,-1.522433400E0,-9.830911636E0,-5.126622319E-1
6.903407241E0,-1.500898004E0,-9.759127617E0,-5.102694035E-1
6.923678387E0,-1.400399446E0,-9.737591743E0,-4.600201547E-1
6.943949533E0,-1.278365493E0,-9.747162819E0,-3.260220885E-1
6.964220626E0,-1.254437327E0,-9.761520386E0,-2.997010350E-1
6.984620626E0,-1.462612867E0,-9.718449593E0,-4.049852192E-1
7.004762866E0,-1.721037745E0,-9.639486313E0,-4.815555513E-1
7.025033960E0,-1.759322882E0,-9.651450157E0,-4.959124923E-1
7.045305053E0,-1.733001828E0,-9.665806770E0,-4.576273263E-1
7.065576199E0,-1.622931957E0,-9.677771568E0,-4.648058116E-1
7.085847293E0,-1.498505235E0,-9.632308006E0,-4.408775866E-1
7.106118387E0,-1.491326690E0,-9.711270332E0,-4.743770957E-1
7.126389480E0,-1.548754454E0,-9.771091461E0,-5.078766346E-1
7.146660574E0,-1.575075507E0,-9.763913155E0,-5.030909777E-1
7.166931564E0,-1.503290772E0,-9.744770050E0,-4.552344978E-1
7.187331616E0,-1.441077471E0,-9.711270332E0,-4.313062727E-1
7.207473908E0,-1.460219979E0,-9.704092026E0,-4.025924206E-1
7.227745001E0,-1.405185103E0,-9.723235130E0,-3.690928817E-1
7.248016095E0,-1.431506157E0,-9.692128181E0,-4.265206456E-1
7.268287189E0,-1.541576028E0,-9.711270332E0,-5.270192027E-1
7.288687189E0,-1.551147223E0,-9.747162819E0,-5.030909777E-1
7.308829376E0,-1.431506157E0,-9.742377281E0,-4.815555513E-1
7.329100470E0,-1.335793257E0,-9.742377281E0,-4.863412082E-1
7.349371564E0,-1.283151150E0,-9.720842361E0,-4.959124923E-1
7.369642658E0,-1.290329576E0,-9.713663101E0,-4.408775866E-1
7.390042658E0,-1.316650629E0,-9.728020668E0,-3.308077157E-1
7.410184793E0,-1.445863128E0,-9.739984512E0,-2.805584669E-1
7.430455887E0,-1.637288928E0,-9.701699257E0,-3.762713671E-1
7.450726928E0,-1.728216171E0,-9.677771568E0,-4.313062727E-1
7.470997970E0,-1.639681697E0,-9.696913719E0,-4.265206456E-1
7.491269064E0,-1.555932879E0,-9.646664619E0,-4.265206456E-1
7.511540158E0,-1.579861164E0,-9.615557671E0,-4.360919297E-1
7.531811199E0,-1.654038668E0,-9.649057388E0,-4.073780477E-1
7.552082293E0,-1.634896040E0,-9.716055870E0,-3.690928817E-1
7.572353335E0,-1.536790371E0,-9.742377281E0,-3.116651475E-1
7.592624428E0,-1.414756417E0,-9.773484230E0,-3.284149170E-1
7.612895470E0,-1.457827210E0,-9.720842361E0,-4.145565331E-1
7.633166564E0,-1.620539188E0,-9.680164337E0,-5.270192027E-1
7.653437605E0,-1.709073544E0,-9.649057388E0,-5.557330847E-1
7.673708699E0,-1.666002750E0,-9.639486313E0,-5.078766346E-1
7.693979741E0,-1.548754454E0,-9.675378799E0,-4.336991012E-1
7.714250783E0,-1.409970760E0,-9.701699257E0,-3.786641955E-1
7.734521876E0,-1.347757339E0,-9.759127617E0,-3.260220885E-1
7.754792918E0,-1.371685624E0,-9.768698692E0,-3.475574851E-1
7.775063960E0,-1.476969719E0,-9.739984512E0,-4.145565331E-1
7.795335053E0,-1.610967875E0,-9.704092026E0,-4.576273263E-1
7.815606095E0,-1.642074585E0,-9.711270332E0,-4.576273263E-1
7.835877137E0,-1.563111424E0,-9.771091461E0,-4.576273263E-1
7.856148178E0,-1.460219979E0,-9.802198410E0,-4.504488707E-1
7.876419220E0,-1.407577872E0,-9.780662537E0,-4.289134443E-1
7.896690314E0,-1.374078393E0,-9.768698692E0,-4.289134443E-1
7.916961355E0,-1.407577872E0,-9.749555588E0,-4.360919297E-1
7.937232397E0,-1.448255897E0,-9.718449593E0,-4.767699242E-1
7.957503439E0,-1.467398524E0,-9.716055870E0,-4.815555513E-1
7.977774480E0,-1.505683661E0,-9.708877563E0,-5.174478889E-1
7.998045522E0,-1.551147223E0,-9.684949875E0,-5.270192027E-1
8.018316564E0,-1.613360643E0,-9.656235695E0,-4.839483798E-1
8.038587605E0,-1.625324726E0,-9.687342644E0,-4.624129832E-1
8.058858647E0,-1.584646821E0,-9.682557106E0,-4.552344978E-1
8.079129689E0,-1.515254974E0,-9.677771568E0,-4.504488707E-1
8.099400730E0,-1.512862086E0,-9.649057388E0,-4.719842672E-1
8.119671720E0,-1.560718536E0,-9.682557106E0,-4.839483798E-1
8.139942762E0,-1.591825247E0,-9.701699257E0,-4.911268353E-1
8.160213803E0,-1.599003673E0,-9.706484795E0,-5.126622319E-1
8.180484845E0,-1.481755376E0,-9.744770050E0,-4.767699242E-1
8.200755835E0,-1.345364571E0,-9.735198975E0,-4.480560422E-1
8.221026876E0,-1.247258782E0,-9.732806206E0,-4.384847581E-1
8.241297918E0,-1.297508121E0,-9.742377281E0,-4.193421602E-1
8.261568908E0,-1.374078393E0,-9.730413437E0,-4.432703853E-1
8.281839949E0,-1.476969719E0,-9.682557106E0,-4.648058116E-1
8.302110939E0,-1.563111424E0,-9.670592308E0,-4.671986103E-1
8.322381980E0,-1.591825247E0,-9.687342644E0,-4.791627228E-1
8.342653022E0,-1.601396561E0,-9.704092026E0,-4.887340367E-1
8.362924012E0,-1.486541033E0,-9.728020668E0,-4.743770957E-1
8.383195053E0,-1.364507079E0,-9.739984512E0,-4.217349887E-1
8.403466043E0,-1.309472203E0,-9.790233612E0,-3.714857101E-1
8.423737085E0,-1.319043517E0,-9.823733330E0,-3.236292601E-1
8.444008074E0,-1.328614831E0,-9.747162819E0,-2.853440940E-1
8.464279116E0,-1.357328653E0,-9.716055870E0,-3.260220885E-1
8.484550105E0,-1.436291814E0,-9.696913719E0,-3.906283081E-1
8.504821095E0,-1.488933921E0,-9.661021233E0,-4.384847581E-1
8.525092137E0,-1.558325768E0,-9.687342644E0,-4.265206456E-1
8.545363126E0,-1.534397483E0,-9.749555588E0,-3.619144261E-1
8.565634116E0,-1.486541033E0,-9.744770050E0,-3.044866920E-1
8.585905158E0,-1.398006678E0,-9.768698692E0,-2.757728100E-1
8.606176147E0,-1.409970760E0,-9.783055305E0,-3.188436031E-1
8.626447137E0,-1.450648785E0,-9.706484795E0,-3.906283081E-1
8.646718126E0,-1.455434322E0,-9.670592308E0,-4.552344978E-1
8.666989168E0,-1.409970760E0,-9.684949875E0,-4.839483798E-1
8.687389168E0,-1.323829174E0,-9.751948357E0,-4.600201547E-1
8.707531147E0,-1.213759303E0,-9.761520386E0,-3.978067636E-1
8.727802137E0,-1.187438250E0,-9.749555588E0,-3.978067636E-1
8.748073178E0,-1.252044439E0,-9.759127617E0,-4.552344978E-1
8.768344168E0,-1.295115232E0,-9.699306488E0,-5.030909777E-1
8.788744168E0,-1.299900889E0,-9.608379364E0,-4.815555513E-1
8.808886147E0,-1.417149186E0,-9.653842926E0,-4.241278172E-1
8.829157137E0,-1.522433400E0,-9.795019150E0,-3.667000830E-1
8.849428126E0,-1.534397483E0,-9.850054741E0,-3.068794906E-1
8.869699116E0,-1.455434322E0,-9.761520386E0,-2.877369225E-1
8.890099116E0,-1.419542074E0,-9.672985077E0,-3.212364316E-1
8.910241095E0,-1.522433400E0,-9.641879082E0,-3.451646566E-1
8.930512033E0,-1.673181176E0,-9.728020668E0,-3.140579760E-1
8.950782970E0,-1.639681697E0,-9.775876999E0,-3.044866920E-1
8.971053960E0,-1.515254974E0,-9.694520950E0,-3.260220885E-1
8.991453960E0,-1.460219979E0,-9.656235695E0,-3.403790295E-1
9.011595939E0,-1.398006678E0,-9.735198975E0,-3.260220885E-1
9.031866928E0,-1.244866014E0,-9.747162819E0,-3.451646566E-1
9.052137866E0,-1.146760225E0,-9.625128746E0,-3.188436031E-1
9.072408803E0,-1.223330617E0,-9.608379364E0,-3.379862010E-1
9.092679845E0,-1.405185103E0,-9.596415520E0,-2.614158690E-1
9.112950783E0,-1.493719578E0,-9.735198975E0,-1.609173268E-1
9.133221772E0,-1.354935765E0,-9.986445427E0,-1.417747438E-1
9.153492762E0,-1.120439172E0,-1.007497978E1,-2.422732860E-1
9.173763699E0,-8.811569214E-1,-1.000558758E1,-3.714857101E-1
9.194034689E0,-7.974081635E-1,-9.828518867E0,-4.360919297E-1
9.214305678E0,-1.065404296E0,-9.656235695E0,-5.006981492E-1
9.234576616E0,-1.634896040E0,-9.548559189E0,-5.341976285E-1
9.254847605E0,-2.219342947E0,-9.479166985E0,-5.318048596E-1
9.275118543E0,-2.599801779E0,-9.481559753E0,-5.150550604E-1
9.295389480E0,-2.824727058E0,-9.464810371E0,-4.432703853E-1
9.315660470E0,-2.839084148E0,-9.460023880E0,-3.475574851E-1
9.335931408E0,-2.398804665E0,-9.534201622E0,-3.667000830E-1
9.356339376E0,-1.761715651E0,-9.625128746E0,-5.509474277E-1
9.376637658E0,-1.283151150E0,-9.768698692E0,-6.586244106E-1
9.396891720E0,-8.907282352E-1,-9.838089943E0,-6.299105883E-1
9.417007501E0,-7.465606928E-1,-9.830911636E0,-6.131607890E-1
9.437280053E0,-7.704889178E-1,-9.816555023E0,-6.418746710E-1
9.457552189E0,-8.668000102E-1,-9.795019150E0,-6.418746710E-1
9.477824168E0,-1.005583763E0,-9.821340561E0,-5.653043389E-1
9.498095887E0,-1.000798106E0,-9.785448074E0,-4.241278172E-1
9.518367449E0,-8.333004713E-1,-9.713663101E0,-2.518445849E-1
9.538638855E0,-6.221339107E-1,-9.883553505E0,-1.896311939E-1
9.558910262E0,-4.354937077E-1,-1.002951622E1,-2.398804724E-1
9.579181564E0,-3.732803464E-1,-9.883553505E0,-3.116651475E-1
9.599452710E0,-5.694918036E-1,-9.804591179E0,-6.035895348E-1
9.619723908E0,-1.029511929E0,-9.926624298E0,-9.122636318E-1
9.639995053E0,-1.328614831E0,-1.002951622E1,-9.625129104E-1
9.660266095E0,-1.350150228E0,-9.902696609E0,-5.748756528E-1
9.680537137E0,-1.481755376E0,-9.732806206E0,-3.140579760E-1
9.700808126E0,-1.804786444E0,-9.555737495E0,-3.906283081E-1
9.721079064E0,-2.099701881E0,-9.364311218E0,-4.600201547E-1
9.741479116E0,-2.252842426E0,-9.346963882E0,-5.341976285E-1
9.761621043E0,-2.027917147E0,-9.517452240E0,-5.413761139E-1
9.781892033E0,-1.508076429E0,-9.723235130E0,-4.791627228E-1
9.802163022E0,-1.113260746E0,-9.816555023E0,-4.839483798E-1
9.822434012E0,-1.091725349E0,-9.799804688E0,-4.121637046E-1
9.842704949E0,-1.115653515E0,-9.806983948E0,-2.327020019E-1
9.862975835E0,-1.039083242E0,-9.919445992E0,-1.226321608E-1
9.883246824E0,-1.031904817E0,-9.960124016E0,-2.207378894E-1
9.903517762E0,-1.082154036E0,-9.866804123E0,-4.001995921E-1
9.923788647E0,-1.189831018E0,-9.763913155E0,-5.653043389E-1
9.944059585E0,-1.307079315E0,-9.708877563E0,-6.945167780E-1
9.964330522E0,-1.402792215E0,-9.672985077E0,-7.256234884E-1
9.984601408E0,-1.381256819E0,-9.701699257E0,-6.323033571E-1
1.000487229E1,-1.283151150E0,-9.761520386E0,-4.935196638E-1
1.002514323E1,-1.230509043E0,-9.737591743E0,-3.906283081E-1
1.004541417E1,-1.347757339E0,-9.706484795E0,-3.355933726E-1
1.006568510E1,-1.555932879E0,-9.711270332E0,-3.595215976E-1
1.008595599E1,-1.687538147E0,-9.747162819E0,-4.289134443E-1
1.010622688E1,-1.709073544E0,-9.754341125E0,-5.078766346E-1
1.012649781E1,-1.587039590E0,-9.689735413E0,-5.054838061E-1
1.014676870E1,-1.395613790E0,-9.665806770E0,-4.049852192E-1
1.016703959E1,-1.232901812E0,-9.718449593E0,-2.709871531E-1
1.018743958E1,-1.230509043E0,-9.763913155E0,-1.776670814E-1
1.020758141E1,-1.335793257E0,-9.761520386E0,-2.039881349E-1
1.022785229E1,-1.505683661E0,-9.744770050E0,-2.733799815E-1
1.024812318E1,-1.563111424E0,-9.701699257E0,-3.595215976E-1
1.026839412E1,-1.493719578E0,-9.641879082E0,-3.762713671E-1
1.028879412E1,-1.426720500E0,-9.708877563E0,-3.355933726E-1
1.030893589E1,-1.335793257E0,-9.792626381E0,-2.901297510E-1
1.032920677E1,-1.304686546E0,-9.766305923E0,-3.140579760E-1
1.034947766E1,-1.290329576E0,-9.718449593E0,-3.619144261E-1
1.036974854E1,-1.261615753E0,-9.706484795E0,-4.169493318E-1
1.039014854E1,-1.259222865E0,-9.723235130E0,-4.480560422E-1
1.041029031E1,-1.297508121E0,-9.723235130E0,-4.719842672E-1
1.043056120E1,-1.304686546E0,-9.704092026E0,-4.169493318E-1
1.045083208E1,-1.309472203E0,-9.723235130E0,-3.714857101E-1
1.047110297E1,-1.297508121E0,-9.756733894E0,-3.571287692E-1
1.049137386E1,-1.302293777E0,-9.768698692E0,-3.595215976E-1
1.051164469E1,-1.352542996E0,-9.797411919E0,-3.643072546E-1
1.053191552E1,-1.381256819E0,-9.783055305E0,-3.355933726E-1
1.055218641E1,-1.402792215E0,-9.778269768E0,-2.805584669E-1
1.057245729E1,-1.366899967E0,-9.725627899E0,-2.781656384E-1
1.059272818E1,-1.366899967E0,-9.692128181E0,-3.212364316E-1
1.061299906E1,-1.455434322E0,-9.701699257E0,-3.690928817E-1
1.063326995E1,-1.496112347E0,-9.716055870E0,-3.260220885E-1
1.065354084E1,-1.517647743E0,-9.735198975E0,-2.422732860E-1
1.067381167E1,-1.517647743E0,-9.737591743E0,-2.374876440E-1
1.069421167E1,-1.510469317E0,-9.728020668E0,-2.757728100E-1
1.071435344E1,-1.522433400E0,-9.711270332E0,-3.140579760E-1
1.073462427E1,-1.453041553E0,-9.687342644E0,-3.523431420E-1
1.075489516E1,-1.390828133E0,-9.694520950E0,-3.714857101E-1
1.077516599E1,-1.342971683E0,-9.739984512E0,-3.547359705E-1
1.079543688E1,-1.319043517E0,-9.739984512E0,-3.403790295E-1
1.081570771E1,-1.273579836E0,-9.716055870E0,-3.355933726E-1
1.083597860E1,-1.299900889E0,-9.708877563E0,-3.308077157E-1
1.085624943E1,-1.316650629E0,-9.763913155E0,-3.690928817E-1
1.087652026E1,-1.335793257E0,-9.759127617E0,-3.762713671E-1
1.089679115E1,-1.264008522E0,-9.749555588E0,-4.145565331E-1
1.091706198E1,-1.216152072E0,-9.732806206E0,-4.265206456E-1
1.093733281E1,-1.170688510E0,-9.718449593E0,-4.169493318E-1
1.095760370E1,-1.225723386E0,-9.735198975E0,-4.217349887E-1
1.097787453E1,-1.249651670E0,-9.766305923E0,-4.121637046E-1
1.099814537E1,-1.201795220E0,-9.771091461E0,-4.145565331E-1
1.101841620E1,-1.180259824E0,-9.756733894E0,-4.097708762E-1
1.103868703E1,-1.163509965E0,-9.759127617E0,-3.810569942E-1
1.105895787E1,-1.232901812E0,-9.759127617E0,-3.954139352E-1
1.107922875E1,-1.331007600E0,-9.742377281E0,-4.289134443E-1
1.109949958E1,-1.357328653E0,-9.735198975E0,-4.408775866E-1
1.111977042E1,-1.331007600E0,-9.759127617E0,-4.743770957E-1
1.114004125E1,-1.242473125E0,-9.766305923E0,-4.360919297E-1
1.116031209E1,-1.173081279E0,-9.771091461E0,-3.738785386E-1
1.118058292E1,-1.180259824E0,-9.751948357E0,-3.379862010E-1
1.120085375E1,-1.275972724E0,-9.751948357E0,-3.475574851E-1
1.122112458E1,-1.331007600E0,-9.747162819E0,-3.762713671E-1
1.124139542E1,-1.328614831E0,-9.730413437E0,-4.097708762E-1
1.126166625E1,-1.285543919E0,-9.723235130E0,-3.930211067E-1
1.128193703E1,-1.232901812E0,-9.728020668E0,-3.810569942E-1
1.130220787E1,-1.192223907E0,-9.744770050E0,-3.619144261E-1
1.132247870E1,-1.220937729E0,-9.771091461E0,-3.523431420E-1
1.134274953E1,-1.264008522E0,-9.783055305E0,-3.906283081E-1
1.136302037E1,-1.256830096E0,-9.747162819E0,-4.217349887E-1
1.138329115E1,-1.266401410E0,-9.720842361E0,-4.384847581E-1
1.140356198E1,-1.261615753E0,-9.763913155E0,-4.360919297E-1
1.142383281E1,-1.273579836E0,-9.780662537E0,-4.025924206E-1
1.144410365E1,-1.268794179E0,-9.739984512E0,-3.786641955E-1
1.146437443E1,-1.287936807E0,-9.718449593E0,-3.930211067E-1
1.148477443E1,-1.292722464E0,-9.718449593E0,-3.930211067E-1
1.150491604E1,-1.321436286E0,-9.761520386E0,-3.858426511E-1
1.152518688E1,-1.340578914E0,-9.744770050E0,-3.714857101E-1
1.154545766E1,-1.319043517E0,-9.739984512E0,-3.834498227E-1
1.156572849E1,-1.307079315E0,-9.768698692E0,-3.714857101E-1
1.158599927E1,-1.264008522E0,-9.754341125E0,-3.595215976E-1
1.160627010E1,-1.275972724E0,-9.768698692E0,-3.403790295E-1
1.162654089E1,-1.297508121E0,-9.754341125E0,-3.547359705E-1
1.164681167E1,-1.321436286E0,-9.737591743E0,-3.834498227E-1
1.166708250E1,-1.316650629E0,-9.756733894E0,-4.073780477E-1
1.168748250E1,-1.314257860E0,-9.739984512E0,-4.049852192E-1
1.170762412E1,-1.292722464E0,-9.704092026E0,-3.954139352E-1
1.172789490E1,-1.302293777E0,-9.737591743E0,-3.978067636E-1
1.174816568E1,-1.314257860E0,-9.739984512E0,-3.930211067E-1
1.176843646E1,-1.326221943E0,-9.735198975E0,-3.834498227E-1
1.178883646E1,-1.319043517E0,-9.720842361E0,-4.025924206E-1
1.180897807E1,-1.326221943E0,-9.737591743E0,-4.025924206E-1
1.182924886E1,-1.335793257E0,-9.735198975E0,-4.193421602E-1
1.184951959E1,-1.304686546E0,-9.761520386E0,-4.360919297E-1
1.202682125E1,-1.345364571E0,-9.739984512E0,-3.858426511E-1
1.204709203E1,-1.335793257E0,-9.716055870E0,-3.619144261E-1
1.206736281E1,-1.354935765E0,-9.730413437E0,-3.427718580E-1
1.208763360E1,-1.378864050E0,-9.749555588E0,-3.714857101E-1
1.210790438E1,-1.383649707E0,-9.754341125E0,-3.810569942E-1
1.212817516E1,-1.345364571E0,-9.716055870E0,-3.906283081E-1
1.214844594E1,-1.307079315E0,-9.696913719E0,-3.858426511E-1
1.216871667E1,-1.302293777E0,-9.701699257E0,-3.810569942E-1
1.218898745E1,-1.326221943E0,-9.730413437E0,-3.810569942E-1
1.220925823E1,-1.369292736E0,-9.744770050E0,-3.954139352E-1
1.222952901E1,-1.354935765E0,-9.730413437E0,-4.145565331E-1
1.224979974E1,-1.302293777E0,-9.711270332E0,-4.336991012E-1
1.227007052E1,-1.278365493E0,-9.720842361E0,-4.145565331E-1
1.229034130E1,-1.278365493E0,-9.735198975E0,-3.762713671E-1
1.231061203E1,-1.297508121E0,-9.730413437E0,-3.667000830E-1
1.233088276E1,-1.316650629E0,-9.744770050E0,-3.810569942E-1
1.235115354E1,-1.307079315E0,-9.754341125E0,-3.714857101E-1
1.237142432E1,-1.302293777E0,-9.735198975E0,-3.619144261E-1
1.239169505E1,-1.340578914E0,-9.725627899E0,-3.762713671E-1
1.241196584E1,-1.350150228E0,-9.754341125E0,-3.762713671E-1
1.243223656E1,-1.364507079E0,-9.754341125E0,-3.714857101E-1
1.245250729E1,-1.359721422E0,-9.716055870E0,-3.523431420E-1
1.247277807E1,-1.350150228E0,-9.720842361E0,-3.523431420E-1
1.249304880E1,-1.374078393E0,-9.744770050E0,-3.619144261E-1
1.251331959E1,-1.364507079E0,-9.720842361E0,-3.667000830E-1
1.253359031E1,-1.345364571E0,-9.716055870E0,-3.571287692E-1
1.255386104E1,-1.335793257E0,-9.787840843E0,-3.475574851E-1
1.257413177E1,-1.354935765E0,-9.783055305E0,-3.284149170E-1
1.259440255E1,-1.340578914E0,-9.730413437E0,-3.379862010E-1
1.261467328E1,-1.378864050E0,-9.692128181E0,-3.475574851E-1
1.263494401E1,-1.445863128E0,-9.696913719E0,-3.284149170E-1
1.265521474E1,-1.484148264E0,-9.716055870E0,-2.901297510E-1
1.267548547E1,-1.488933921E0,-9.725627899E0,-3.236292601E-1
1.269575620E1,-1.398006678E0,-9.706484795E0,-3.667000830E-1
1.271602693E1,-1.273579836E0,-9.735198975E0,-3.762713671E-1
1.273642693E1,-1.264008522E0,-9.759127617E0,-3.332005441E-1
1.275656839E1,-1.311864972E0,-9.763913155E0,-2.997010350E-1
1.277683917E1,-1.402792215E0,-9.773484230E0,-2.901297510E-1
1.279710985E1,-1.417149186E0,-9.735198975E0,-3.092723191E-1
1.281738057E1,-1.359721422E0,-9.706484795E0,-3.475574851E-1
1.283765130E1,-1.311864972E0,-9.711270332E0,-3.714857101E-1
1.285792203E1,-1.311864972E0,-9.720842361E0,-3.379862010E-1
1.287819276E1,-1.335793257E0,-9.739984512E0,-3.044866920E-1
1.289846349E1,-1.398006678E0,-9.730413437E0,-3.236292601E-1
1.291873417E1,-1.407577872E0,-9.735198975E0,-3.236292601E-1
1.293900490E1,-1.359721422E0,-9.759127617E0,-3.332005441E-1
1.295927557E1,-1.316650629E0,-9.783055305E0,-3.284149170E-1
1.297954630E1,-1.278365493E0,-9.768698692E0,-3.284149170E-1
1.299981703E1,-1.292722464E0,-9.768698692E0,-2.949153781E-1
1.302008776E1,-1.335793257E0,-9.778269768E0,-2.805584669E-1
1.304035844E1,-1.369292736E0,-9.744770050E0,-2.853440940E-1
1.306062917E1,-1.378864050E0,-9.739984512E0,-3.092723191E-1
1.308089985E1,-1.369292736E0,-9.754341125E0,-3.140579760E-1
1.310117057E1,-1.369292736E0,-9.706484795E0,-3.188436031E-1
1.312144125E1,-1.398006678E0,-9.711270332E0,-3.188436031E-1
1.314171198E1,-1.421934843E0,-9.759127617E0,-3.236292601E-1
1.316198266E1,-1.426720500E0,-9.730413437E0,-3.140579760E-1
1.318238266E1,-1.431506157E0,-9.692128181E0,-2.997010350E-1
1.320252406E1,-1.421934843E0,-9.663414001E0,-2.805584669E-1
1.322279474E1,-1.484148264E0,-9.672985077E0,-2.709871531E-1
1.324306542E1,-1.579861164E0,-9.682557106E0,-3.044866920E-1
1.326337542E1,-1.637288928E0,-9.682557106E0,-3.379862010E-1
1.328376495E1,-1.642074585E0,-9.677771568E0,-3.619144261E-1
1.330387740E1,-1.603789330E0,-9.672985077E0,-3.379862010E-1
1.332414807E1,-1.589432478E0,-9.668199539E0,-3.284149170E-1
1.334441880E1,-1.584646821E0,-9.687342644E0,-3.762713671E-1
1.336468953E1,-1.560718536E0,-9.744770050E0,-4.145565331E-1
1.338508953E1,-1.469791293E0,-9.763913155E0,-3.858426511E-1
1.340523089E1,-1.364507079E0,-9.802198410E0,-3.284149170E-1
1.342550156E1,-1.292722464E0,-9.850054741E0,-3.140579760E-1
1.344577224E1,-1.283151150E0,-9.850054741E0,-2.949153781E-1
1.346604292E1,-1.354935765E0,-9.845269203E0,-2.949153781E-1
1.348631365E1,-1.354935765E0,-9.749555588E0,-2.374876440E-1
1.350658432E1,-1.388435364E0,-9.716055870E0,-2.327020019E-1
1.352685500E1,-1.479362607E0,-9.735198975E0,-2.805584669E-1
1.354712568E1,-1.603789330E0,-9.701699257E0,-3.379862010E-1
1.356739636E1,-1.704287887E0,-9.644271851E0,-3.571287692E-1
1.358766703E1,-1.771286964E0,-9.605986595E0,-3.810569942E-1
1.360793766E1,-1.790429592E0,-9.615557671E0,-4.145565331E-1
1.362820834E1,-1.780858278E0,-9.634700775E0,-4.097708762E-1
1.364847901E1,-1.771286964E0,-9.634700775E0,-3.906283081E-1
1.366874969E1,-1.685145378E0,-9.682557106E0,-3.858426511E-1
1.368902031E1,-1.579861164E0,-9.701699257E0,-3.619144261E-1
1.370929099E1,-1.484148264E0,-9.754341125E0,-3.427718580E-1
1.372956162E1,-1.350150228E0,-9.821340561E0,-3.379862010E-1
1.374983229E1,-1.283151150E0,-9.869196892E0,-3.092723191E-1
1.377010297E1,-1.278365493E0,-9.864411354E0,-2.709871531E-1
1.379037360E1,-1.264008522E0,-9.806983948E0,-2.422732860E-1
1.381064427E1,-1.302293777E0,-9.754341125E0,-2.231307179E-1
1.383091490E1,-1.450648785E0,-9.672985077E0,-2.135594189E-1
1.385118557E1,-1.646860242E0,-9.663414001E0,-2.231307179E-1
1.387145620E1,-1.785643935E0,-9.706484795E0,-2.997010350E-1
1.389172688E1,-1.848455548E0,-9.687342644E0,-3.427718580E-1
1.391199750E1,-1.877169371E0,-9.649057388E0,-3.619144261E-1
1.393226807E1,-1.834098577E0,-9.582057953E0,-3.427718580E-1
1.395253880E1,-1.867598057E0,-9.582057953E0,-2.518445849E-1
1.397280943E1,-1.843669891E0,-9.663414001E0,-1.369891018E-1
1.399308005E1,-1.766501307E0,-9.787840843E0,-4.127619043E-2
1.401335068E1,-1.709073544E0,-9.802198410E0,4.546362907E-2
1.403362130E1,-1.709073544E0,-9.696913719E0,4.067798331E-2
1.405389198E1,-1.713859200E0,-9.601201057E0,-1.256231871E-2
1.407416261E1,-1.780858278E0,-9.486345291E0,2.392822644E-3
1.409443323E1,-1.800000787E0,-9.289535522E0,1.411765367E-1
1.411470386E1,-1.877169371E0,-9.381061554E0,3.421736360E-1
1.413497448E1,-2.030309916E0,-9.730413437E0,4.761717021E-1
1.415524510E1,-2.059023857E0,-9.692128181E0,6.245267391E-1
1.417551573E1,-2.015953064E0,-9.323035240E0,7.728816867E-1
1.419578636E1,-1.958525300E0,-9.174679756E0,9.547362328E-1
1.421605698E1,-1.982453585E0,-9.462417603E0,1.161117196E0
1.423632761E1,-2.226521492E0,-9.955338478E0,1.462612867E0
1.425659823E1,-2.465803623E0,-1.018026352E1,1.931606054E0
1.427686886E1,-2.676372051E0,-1.019462109E1,2.238485575E0
1.429713948E1,-2.528017044E0,-1.047757244E1,2.065604210E0
1.440362787E1,-1.682752490E0,-9.356534958E0,2.169093609E0
1.442389849E1,-1.811964989E0,-9.244071960E0,2.078166485E0
1.444416906E1,-2.068595171E0,-8.753543854E0,2.331805706E0
1.446443969E1,-2.298306227E0,-8.420941353E0,2.628515720E0
1.448471026E1,-2.370090723E0,-8.526225090E0,2.578266382E0
1.450498089E1,-2.403590441E0,-8.681758881E0,2.628515720E0
1.452525151E1,-2.319841623E0,-8.703293800E0,2.702693224E0
1.454552209E1,-2.073380709E0,-8.576474190E0,2.671586514E0
1.456579271E1,-1.936989903E0,-8.578866959E0,2.721835852E0
1.458606328E1,-1.809572101E0,-8.767900467E0,2.712264538E0
1.460633391E1,-1.754537225E0,-8.942576408E0,2.685943365E0
1.462660448E1,-1.663609982E0,-9.002396584E0,2.666800737E0
1.464687511E1,-1.673181176E0,-8.983254433E0,2.673979282E0
1.466714568E1,-1.785643935E0,-8.736793518E0,2.714657307E0
1.468754568E1,-1.996810555E0,-8.655437469E0,2.827120066E0
1.470768682E1,-2.173879385E0,-9.095717430E0,2.941975355E0
1.472795745E1,-2.145165443E0,-9.500701904E0,3.097508907E0
1.474822802E1,-2.190629244E0,-9.565308571E0,3.198605776E0
1.476849860E1,-2.367697954E0,-9.414560318E0,3.287140131E0
1.478889860E1,-2.647658348E0,-9.258428574E0,3.404388428E0
1.480903979E1,-2.956930637E0,-9.313464165E0,3.433102369E0
1.482931031E1,-3.047857761E0,-9.263215065E0,3.083152056E0
1.484958094E1,-2.868396044E0,-9.071788788E0,2.757728100E0
1.486985151E1,-2.717050076E0,-9.040681839E0,2.417947292E0
1.489025151E1,-2.614158630E0,-9.007183075E0,2.257628202E0
1.491039266E1,-2.626122952E0,-9.033503532E0,2.446661234E0
1.493066323E1,-2.650051117E0,-9.212965012E0,2.707478762E0
1.495093380E1,-2.439482689E0,-9.409774780E0,2.819941521E0
1.497120438E1,-1.996810555E0,-9.440881729E0,2.762513638E0
1.499160438E1,-1.488933921E0,-9.431310654E0,2.690729141E0
1.501174552E1,-1.331007600E0,-9.471988678E0,2.719442844E0
1.503201610E1,-1.620539188E0,-9.414560318E0,2.769692183E0
1.505228667E1,-2.154736757E0,-9.162715912E0,2.886940479E0
1.507255724E1,-2.480160713E0,-9.083752632E0,2.985046148E0
1.509282776E1,-2.260020971E0,-9.067003250E0,2.939582586E0
1.511309828E1,-1.756929994E0,-9.107681274E0,2.760120869E0
1.513336886E1,-1.424327731E0,-9.043074608E0,2.561516523E0
1.515363943E1,-1.429113269E0,-8.988039970E0,2.444268227E0
1.517391000E1,-1.555932879E0,-9.069396019E0,2.245664120E0
1.519418057E1,-1.713859200E0,-9.227322578E0,2.152343988E0
1.521445110E1,-1.958525300E0,-9.270393372E0,2.140379906E0
1.523472167E1,-2.358126640E0,-9.198608398E0,2.109273195E0
1.525499224E1,-2.774477959E0,-9.201001167E0,2.181057930E0
1.527526276E1,-2.861217737E0,-9.299106598E0,2.525624275E0
1.529553334E1,-2.530410051E0,-9.388239861E0,2.693121910E0
1.531580386E1,-2.085345030E0,-9.464810371E0,2.662015200E0
1.533607443E1,-1.848455548E0,-9.567701340E0,2.441875458E0
1.535634500E1,-1.951346874E0,-9.562915802E0,2.264806747E0
1.537661552E1,-2.362912416E0,-9.498309135E0,2.164308071E0
1.539688610E1,-2.779263496E0,-9.308678627E0,2.188236237E0
1.541715662E1,-2.904288530E0,-9.040681839E0,2.334198475E0
1.543742719E1,-2.755335331E0,-8.971290588E0,2.499303341E0
1.545769771E1,-2.571087837E0,-9.047860146E0,2.453839540E0
1.547796823E1,-2.204986095E0,-9.172286987E0,2.197807550E0
1.549823880E1,-1.826920033E0,-9.114859581E0,1.807179332E0
1.551850932E1,-1.390828133E0,-9.160323143E0,1.393221021E0
1.553877984E1,-1.488933921E0,-9.260822296E0,1.103689432E0
1.555905037E1,-1.740180254E0,-9.428917885E0,1.309472203E0
1.557932094E1,-1.970489502E0,-9.687342644E0,1.809572101E0
1.559959146E1,-2.068595171E0,-9.912267685E0,2.109273195E0
1.561986198E1,-1.958525300E0,-9.893125534E0,1.905285001E0
1.564013250E1,-1.972882271E0,-9.771091461E0,1.847857237E0
1.566040307E1,-2.027917147E0,-9.775876999E0,1.814357758E0
1.568067360E1,-2.422732830E0,-1.012522888E1,2.005783558E0
1.570094412E1,-2.554338217E0,-1.002233791E1,2.005783558E0
1.572121464E1,-2.063809633E0,-9.339784622E0,2.053640127E0
1.574161464E1,-1.429113269E0,-9.040681839E0,1.905285001E0
1.576175568E1,-1.213759303E0,-9.232108116E0,1.465005636E0
1.578202620E1,-1.541576028E0,-9.407382011E0,1.175474167E0
1.580229667E1,-2.183450699E0,-9.313464165E0,1.009771109E0
1.582256724E1,-2.616551638E0,-9.277571678E0,9.451649189E-1
1.584283776E1,-2.843869686E0,-9.412167549E0,1.096511006E0
1.586310828E1,-2.904288530E0,-9.641879082E0,1.429113269E0
1.588337880E1,-2.566302299E0,-9.787840843E0,1.548754454E0
1.590364927E1,-2.145165443E0,-9.711270332E0,1.488933921E0
1.592391979E1,-1.896311998E0,-9.677771568E0,1.601396561E0
1.594419031E1,-1.630110383E0,-9.617950439E0,1.247258782E0
1.596446084E1,-1.448255897E0,-9.577272415E0,9.810572863E-1
1.598473136E1,-1.555932879E0,-9.610772133E0,8.350951076E-1
1.600500182E1,-1.797608018E0,-9.672985077E0,1.070189953E0
1.602527234E1,-1.694716692E0,-9.658628464E0,1.213759303E0
1.604554287E1,-1.694716692E0,-9.622735977E0,1.043868899E0
1.606581334E1,-1.874776483E0,-9.725627899E0,8.422735929E-1
1.608608386E1,-1.826920033E0,-9.737591743E0,6.867401004E-1
1.610635432E1,-1.697109461E0,-9.613164902E0,7.345965505E-1
1.612662485E1,-1.632503271E0,-9.524630547E0,8.805587292E-1
1.614689537E1,-1.649253011E0,-9.548559189E0,8.805587292E-1
1.616716584E1,-1.721037745E0,-9.677771568E0,7.609176040E-1
1.618756584E1,-1.747358680E0,-9.694520950E0,6.556333899E-1
1.620770682E1,-1.704287887E0,-9.598808289E0,6.269195080E-1
1.622797734E1,-1.627717614E0,-9.558130264E0,6.604190469E-1
1.624824781E1,-1.517647743E0,-9.572486877E0,6.604190469E-1
1.626851834E1,-1.426720500E0,-9.725627899E0,6.245267391E-1
1.628891834E1,-1.407577872E0,-9.763913155E0,5.072783828E-1
1.630905927E1,-1.481755376E0,-9.634700775E0,4.187439680E-1
1.632932979E1,-1.610967875E0,-9.605986595E0,3.948157430E-1
1.634960026E1,-1.639681697E0,-9.663414001E0,4.857429862E-1
1.636987073E1,-1.522433400E0,-9.701699257E0,5.455635786E-1
1.639027073E1,-1.354935765E0,-9.708877563E0,4.905286431E-1
1.641041172E1,-1.268794179E0,-9.759127617E0,4.019941986E-1
1.643068219E1,-1.216152072E0,-9.708877563E0,3.206382394E-1
1.645095266E1,-1.378864050E0,-9.699306488E0,3.326023519E-1
1.647122318E1,-1.498505235E0,-9.728020668E0,3.565305769E-1
1.649149365E1,-1.532004714E0,-9.754341125E0,3.756731451E-1
1.651176412E1,-1.522433400E0,-9.756733894E0,3.876372576E-1
1.653203458E1,-1.412363529E0,-9.768698692E0,4.259224236E-1
1.655230505E1,-1.383649707E0,-9.718449593E0,4.354937077E-1
1.657257552E1,-1.443470240E0,-9.634700775E0,4.139583111E-1
1.659284599E1,-1.512862086E0,-9.720842361E0,3.326023519E-1
1.661311646E1,-1.563111424E0,-9.730413437E0,2.895315289E-1
1.663338693E1,-1.488933921E0,-9.723235130E0,2.703889608E-1
1.665365735E1,-1.345364571E0,-9.802198410E0,2.656033039E-1
1.667392781E1,-1.285543919E0,-9.766305923E0,2.129612118E-1
1.669419834E1,-1.366899967E0,-9.739984512E0,2.153540403E-1
1.671446880E1,-1.299900889E0,-9.814162254E0,2.225325108E-1
1.673473922E1,-1.165902853E0,-9.720842361E0,1.435693651E-1
1.675500964E1,-1.139581800E0,-9.732806206E0,9.810572863E-2
1.677528010E1,-1.189831018E0,-9.864411354E0,6.460621208E-2
1.679555057E1,-1.496112347E0,-9.907482147E0,1.674975827E-2
1.681582104E1,-1.754537225E0,-9.759127617E0,-8.195417374E-2
1.683609151E1,-1.654038668E0,-9.541379929E0,-1.465603858E-1
1.685636193E1,-1.235294700E0,-9.582057953E0,1.196411345E-2
1.687663240E1,-9.050851464E-1,-9.663414001E0,1.579262912E-1
1.689690287E1,-8.835497499E-1,-9.653842926E0,1.651047617E-1
1.691717328E1,-1.094118118E0,-9.768698692E0,1.627119333E-1
1.693744375E1,-1.319043517E0,-1.002473068E1,2.368894368E-1
1.695771422E1,-1.400399446E0,-9.931410789E0,2.201396823E-1
1.697798464E1,-1.409970760E0,-9.797411919E0,1.004985496E-1
1.699825511E1,-1.235294700E0,-9.706484795E0,-2.931207791E-2
1.701852557E1,-1.063011408E0,-9.742377281E0,-2.392822644E-3
1.703879599E1,-9.481559992E-1,-9.799804688E0,3.589234129E-2
1.705906646E1,-9.792626500E-1,-9.768698692E0,5.264209956E-2
1.707933688E1,-1.208973646E0,-9.761520386E0,6.221338734E-2
1.709960735E1,-1.433898926E0,-9.739984512E0,5.742774159E-2
1.711987781E1,-1.565504193E0,-9.672985077E0,9.571290761E-2
1.714014823E1,-1.637288928E0,-9.725627899E0,1.028913707E-1
1.716041865E1,-1.548754454E0,-9.751948357E0,8.853443712E-2
1.718068912E1,-1.345364571E0,-9.742377281E0,1.172483116E-1
1.720095958E1,-1.206580877E0,-9.696913719E0,1.268195957E-1
1.722123000E1,-1.211366415E0,-9.694520950E0,1.531406492E-1
1.724150042E1,-1.256830096E0,-9.754341125E0,1.292124242E-1
1.726177089E1,-1.244866014E0,-9.778269768E0,1.268195957E-1
1.728204130E1,-1.259222865E0,-9.780662537E0,1.076770201E-1
1.730231172E1,-1.285543919E0,-9.830911636E0,8.614161611E-2
1.732258219E1,-1.197009563E0,-9.818947792E0,9.092725813E-2
1.734285260E1,-1.074975610E0,-9.818947792E0,1.076770201E-1
1.736312302E1,-1.077368379E0,-9.804591179E0,8.853443712E-2
1.738339344E1,-1.108475089E0,-9.761520386E0,6.221338734E-2
1.740366391E1,-1.115653515E0,-9.711270332E0,5.024927482E-2
1.742393432E1,-1.170688510E0,-9.706484795E0,6.699903309E-2
1.744420474E1,-1.304686546E0,-9.716055870E0,1.004985496E-1
1.746447510E1,-1.453041553E0,-9.756733894E0,1.411765367E-1
1.748474557E1,-1.469791293E0,-9.704092026E0,1.555334777E-1
1.750501599E1,-1.436291814E0,-9.723235130E0,1.363908947E-1
1.752528641E1,-1.362114310E0,-9.778269768E0,1.124626622E-1
1.754555682E1,-1.232901812E0,-9.763913155E0,9.332008660E-2
1.756582724E1,-1.192223907E0,-9.696913719E0,9.332008660E-2
1.758622724E1,-1.240080357E0,-9.711270332E0,8.853443712E-2
1.760636813E1,-1.240080357E0,-9.771091461E0,8.853443712E-2
1.762663854E1,-1.175474167E0,-9.814162254E0,7.896314561E-2
1.764690896E1,-1.132403374E0,-9.785448074E0,5.264209956E-2
1.766717938E1,-1.141974568E0,-9.792626381E0,7.896314561E-2
1.768757938E1,-1.225723386E0,-9.771091461E0,8.614161611E-2
1.770772021E1,-1.333400369E0,-9.747162819E0,1.004985496E-1
1.772799063E1,-1.390828133E0,-9.730413437E0,1.004985496E-1
1.774826104E1,-1.419542074E0,-9.704092026E0,9.092725813E-2
1.776853141E1,-1.409970760E0,-9.699306488E0,6.939185411E-2
1.778893141E1,-1.374078393E0,-9.716055870E0,9.092725813E-2
1.780907224E1,-1.323829174E0,-9.711270332E0,1.292124242E-1
1.782934266E1,-1.331007600E0,-9.680164337E0,1.579262912E-1
1.784961307E1,-1.400399446E0,-9.711270332E0,1.435693651E-1
1.786988349E1,-1.429113269E0,-9.792626381E0,6.699903309E-2
1.789028349E1,-1.383649707E0,-9.797411919E0,6.460621208E-2
1.791042432E1,-1.302293777E0,-9.759127617E0,1.028913707E-1
1.793069474E1,-1.235294700E0,-9.845269203E0,9.092725813E-2
1.795096516E1,-1.182652593E0,-9.780662537E0,5.742774159E-2
1.797123557E1,-1.170688510E0,-9.716055870E0,7.178467698E-3
1.799163557E1,-1.189831018E0,-9.778269768E0,-7.716853172E-2
1.801177636E1,-1.173081279E0,-9.737591743E0,-1.974078640E-2
1.803204677E1,-1.232901812E0,-9.766305923E0,3.589234129E-2
1.805231719E1,-1.309472203E0,-9.802198410E0,7.178467698E-3
1.807258761E1,-1.314257860E0,-9.732806206E0,-4.845465720E-2
1.809285802E1,-1.297508121E0,-9.744770050E0,-4.845465720E-2
1.811312844E1,-1.278365493E0,-9.766305923E0,-7.178467698E-3
1.813339886E1,-1.297508121E0,-9.785448074E0,3.828516230E-2
1.815366922E1,-1.314257860E0,-9.763913155E0,-1.495514158E-2
1.817393964E1,-1.295115232E0,-9.744770050E0,-6.281159073E-2
1.819421005E1,-1.311864972E0,-9.737591743E0,-7.716853172E-2
1.821448047E1,-1.278365493E0,-9.756733894E0,-3.409772366E-2
1.823475089E1,-1.247258782E0,-9.728020668E0,5.264209956E-2
1.825502130E1,-1.201795220E0,-9.723235130E0,3.828516230E-2
1.827529167E1,-1.264008522E0,-9.735198975E0,-2.213360928E-2
1.829556208E1,-1.371685624E0,-9.749555588E0,-3.170489892E-2
1.831583250E1,-1.345364571E0,-9.778269768E0,-4.606183618E-2
1.833610292E1,-1.228116274E0,-9.756733894E0,4.785645287E-3
1.835637334E1,-1.235294700E0,-9.759127617E0,2.392822690E-2
1.837664370E1,-1.268794179E0,-9.785448074E0,2.392822690E-2
1.839691412E1,-1.287936807E0,-9.783055305E0,2.392822690E-2
1.841718453E1,-1.307079315E0,-9.773484230E0,-1.495514158E-2
1.843745495E1,-1.256830096E0,-9.747162819E0,-7.477571070E-2
1.845772531E1,-1.259222865E0,-9.737591743E0,-7.238288224E-2
1.847799573E1,-1.235294700E0,-9.754341125E0,-2.392822644E-3
1.849826615E1,-1.247258782E0,-9.775876999E0,7.657032460E-2
1.851853656E1,-1.273579836E0,-9.775876999E0,6.460621208E-2
1.853880693E1,-1.326221943E0,-9.749555588E0,1.196411345E-2
1.855907735E1,-1.328614831E0,-9.739984512E0,-3.409772366E-2
1.857934776E1,-1.333400369E0,-9.728020668E0,-2.392822644E-3
1.859961818E1,-1.283151150E0,-9.730413437E0,3.349951655E-2
1.861988860E1,-1.242473125E0,-9.756733894E0,4.785645381E-2
1.864015896E1,-1.230509043E0,-9.778269768E0,4.307080805E-2
1.866042938E1,-1.280758262E0,-9.790233612E0,2.871387079E-2
1.868069974E1,-1.309472203E0,-9.720842361E0,2.632104978E-2
1.870097016E1,-1.302293777E0,-9.723235130E0,4.067798331E-2
1.872124057E1,-1.323829174E0,-9.785448074E0,5.982056633E-2
1.874164057E1,-1.335793257E0,-9.795019150E0,3.828516230E-2
1.876178136E1,-1.266401410E0,-9.751948357E0,4.307080805E-2
1.878205177E1,-1.230509043E0,-9.749555588E0,6.460621208E-2
1.880232219E1,-1.247258782E0,-9.749555588E0,8.374879509E-2
1.882259255E1,-1.273579836E0,-9.756733894E0,8.853443712E-2
1.884286297E1,-1.304686546E0,-9.744770050E0,7.178468257E-2
1.886313339E1,-1.275972724E0,-9.744770050E0,5.503492057E-2
1.888340375E1,-1.299900889E0,-9.754341125E0,7.417750359E-2
1.890367417E1,-1.271187067E0,-9.751948357E0,9.092725813E-2
1.892394453E1,-1.264008522E0,-9.754341125E0,9.571290761E-2
1.894421495E1,-1.266401410E0,-9.720842361E0,1.076770201E-1
1.896448531E1,-1.319043517E0,-9.728020668E0,1.076770201E-1
1.898475573E1,-1.342971683E0,-9.749555588E0,8.374879509E-2
1.900502615E1,-1.304686546E0,-9.761520386E0,7.417750359E-2
1.902529651E1,-1.189831018E0,-9.742377281E0,9.571290761E-2
1.904556693E1,-1.153938770E0,-9.756733894E0,1.052841991E-1
1.906583735E1,-1.225723386E0,-9.749555588E0,9.332008660E-2
1.908610771E1,-1.309472203E0,-9.732806206E0,1.100698411E-1
1.910637813E1,-1.340578914E0,-9.699306488E0,6.699903309E-2
1.912664849E1,-1.369292736E0,-9.708877563E0,4.785645381E-2
1.914691891E1,-1.378864050E0,-9.735198975E0,5.264209956E-2
1.916718932E1,-1.419542074E0,-9.751948357E0,4.785645381E-2
1.918758932E1,-1.457827210E0,-9.759127617E0,5.264209956E-2
1.920773010E1,-1.414756417E0,-9.797411919E0,1.555334777E-1
1.922800047E1,-1.235294700E0,-9.847661972E0,3.804588020E-1
1.924840839E1,-1.182652593E0,-9.730413437E0,3.972085714E-1
1.926870552E1,-1.476969719E0,-9.656235695E0,1.172483116E-1
1.928895906E1,-1.677966833E0,-9.653842926E0,-6.281159073E-2
1.930907422E1,-1.498505235E0,-9.694520950E0,-4.127619043E-2
1.932934620E1,-1.213759303E0,-9.699306488E0,6.939185411E-2
1.934961781E1,-1.115653515E0,-9.713663101E0,1.124626622E-1
1.936988813E1,-1.189831018E0,-9.797411919E0,8.135596663E-2
1.939028922E1,-1.240080357E0,-9.773484230E0,6.221338734E-2
1.941043073E1,-1.359721422E0,-9.742377281E0,1.172483116E-1
1.943070172E1,-1.484148264E0,-9.730413437E0,1.268195957E-1
1.945097266E1,-1.503290772E0,-9.694520950E0,6.699903309E-2
1.947124302E1,-1.474576950E0,-9.687342644E0,-2.213360928E-2
1.949164349E1,-1.393221021E0,-9.706484795E0,-4.366901144E-2
1.951178458E1,-1.333400369E0,-9.739984512E0,2.392822690E-2
1.953205521E1,-1.283151150E0,-9.766305923E0,1.100698411E-1
1.955232578E1,-1.216152072E0,-9.771091461E0,1.459621787E-1
1.957259641E1,-1.230509043E0,-9.773484230E0,8.614161611E-2
1.959286688E1,-1.285543919E0,-9.804591179E0,1.435693540E-2
1.961313740E1,-1.345364571E0,-9.773484230E0,-1.256231871E-2
1.963340792E1,-1.311864972E0,-9.806983948E0,3.828516230E-2
1.965367828E1,-1.225723386E0,-9.795019150E0,7.417750359E-2
1.967394870E1,-1.211366415E0,-9.756733894E0,9.092725813E-2
1.969421917E1,-1.261615753E0,-9.778269768E0,5.024927482E-2
1.971448959E1,-1.249651670E0,-9.742377281E0,-2.213360928E-2
1.973475995E1,-1.264008522E0,-9.682557106E0,-4.606183618E-2
1.975503042E1,-1.321436286E0,-9.766305923E0,-7.477571070E-2
1.977530078E1,-1.335793257E0,-9.725627899E0,-4.845465720E-2
1.979557115E1,-1.299900889E0,-9.728020668E0,-3.888336942E-2
1.981584156E1,-1.275972724E0,-9.768698692E0,-1.734796353E-2
1.983611198E1,-1.302293777E0,-9.761520386E0,-3.409772366E-2
1.985638234E1,-1.287936807E0,-9.732806206E0,-6.999006122E-2
1.987665271E1,-1.268794179E0,-9.723235130E0,-8.195417374E-2
1.989692307E1,-1.242473125E0,-9.735198975E0,-5.084748194E-2
1.991719344E1,-1.261615753E0,-9.744770050E0,-7.178467698E-3
1.993746386E1,-1.340578914E0,-9.787840843E0,-9.571290575E-3
1.995773422E1,-1.366899967E0,-9.763913155E0,-4.127619043E-2
1.997800458E1,-1.369292736E0,-9.708877563E0,-8.913264424E-2
1.999827495E1,-1.357328653E0,-9.720842361E0,-5.563312769E-2
2.001854531E1,-1.347757339E0,-9.751948357E0,-2.691925503E-2
2.003881568E1,-1.323829174E0,-9.742377281E0,-9.571290575E-3
2.005908615E1,-1.290329576E0,-9.716055870E0,-6.041877344E-2
2.007935651E1,-1.302293777E0,-9.730413437E0,-6.520441920E-2
2.009962688E1,-1.331007600E0,-9.732806206E0,-2.691925503E-2
2.011989724E1,-1.381256819E0,-9.773484230E0,-2.452643216E-2
2.014016761E1,-1.354935765E0,-9.792626381E0,-3.409772366E-2
2.016043797E1,-1.285543919E0,-9.797411919E0,-3.170489892E-2
2.018070834E1,-1.247258782E0,-9.795019150E0,-2.691925503E-2
2.020097870E1,-1.235294700E0,-9.766305923E0,-3.649054468E-2
2.022124906E1,-1.295115232E0,-9.732806206E0,-2.931207791E-2
2.024151943E1,-1.352542996E0,-9.718449593E0,-1.734796353E-2
2.026178979E1,-1.393221021E0,-9.737591743E0,-6.520441920E-2
2.028206016E1,-1.328614831E0,-9.730413437E0,-9.152546525E-2
2.030233052E1,-1.268794179E0,-9.739984512E0,-7.238288224E-2
2.032260089E1,-1.264008522E0,-9.754341125E0,-1.974078640E-2
2.034287125E1,-1.295115232E0,-9.716055870E0,-1.495514158E-2
2.036314162E1,-1.340578914E0,-9.749555588E0,-3.409772366E-2
2.038341198E1,-1.354935765E0,-9.751948357E0,-8.195417374E-2
2.040368229E1,-1.333400369E0,-9.747162819E0,-9.631111473E-2
2.042395260E1,-1.333400369E0,-9.739984512E0,-6.041877344E-2
2.044422297E1,-1.323829174E0,-9.751948357E0,-7.178467698E-3
2.046449334E1,-1.376471281E0,-9.723235130E0,2.632104978E-2
2.048476370E1,-1.443470240E0,-9.742377281E0,4.067798331E-2
2.050503406E1,-1.488933921E0,-9.749555588E0,2.153540403E-2
2.052530443E1,-1.436291814E0,-9.744770050E0,-0.000000000E0
2.054557479E1,-1.402792215E0,-9.751948357E0,-4.785645287E-3
2.056584510E1,-1.366899967E0,-9.759127617E0,-2.392822644E-3
2.058611542E1,-1.342971683E0,-9.778269768E0,7.178467698E-3
2.060638584E1,-1.321436286E0,-9.739984512E0,2.392822690E-2
2.062665620E1,-1.359721422E0,-9.744770050E0,2.871387079E-2
2.064692651E1,-1.342971683E0,-9.783055305E0,9.571290575E-3
2.066719688E1,-1.342971683E0,-9.790233612E0,-7.178467698E-3
2.068759688E1,-1.311864972E0,-9.739984512E0,-3.649054468E-2
2.070773761E1,-1.314257860E0,-9.730413437E0,-0.000000000E0
2.072800792E1,-1.354935765E0,-9.742377281E0,2.871387079E-2
2.074827828E1,-1.386042476E0,-9.785448074E0,3.110669367E-2
2.076854865E1,-1.302293777E0,-9.785448074E0,1.674975827E-2
2.078894865E1,-1.144367456E0,-9.780662537E0,-2.213360928E-2
2.080908932E1,-1.108475089E0,-9.742377281E0,-2.931207791E-2
2.082935969E1,-1.177866936E0,-9.751948357E0,-2.691925503E-2
2.084963005E1,-1.225723386E0,-9.739984512E0,-1.495514158E-2
2.086990037E1,-1.266401410E0,-9.718449593E0,-9.571290575E-3
2.089030037E1,-1.259222865E0,-9.725627899E0,-3.170489892E-2
2.091044104E1,-1.230509043E0,-9.718449593E0,-4.606183618E-2
2.093071141E1,-1.216152072E0,-9.751948357E0,-4.845465720E-2
2.095098177E1,-1.211366415E0,-9.775876999E0,-1.495514158E-2
2.097125208E1,-1.194616675E0,-9.768698692E0,2.392822690E-2
2.099165209E1,-1.173081279E0,-9.780662537E0,9.571290575E-3
2.101179276E1,-1.173081279E0,-9.790233612E0,9.571290575E-3
2.103206313E1,-1.228116274E0,-9.775876999E0,1.674975827E-2
2.105233344E1,-1.283151150E0,-9.739984512E0,2.392822690E-2
2.107260380E1,-1.340578914E0,-9.739984512E0,9.571290575E-3
2.109287412E1,-1.342971683E0,-9.780662537E0,9.571290575E-3
2.111314448E1,-1.232901812E0,-9.677771568E0,1.435693540E-2
2.113341479E1,-1.211366415E0,-9.761520386E0,2.392822690E-2
2.115368510E1,-1.170688510E0,-9.732806206E0,-1.256231871E-2
2.117395547E1,-1.218544960E0,-9.754341125E0,-0.000000000E0
2.119422584E1,-1.268794179E0,-9.773484230E0,1.435693540E-2
2.121449615E1,-1.309472203E0,-9.768698692E0,-0.000000000E0
2.123476646E1,-1.295115232E0,-9.711270332E0,9.571290575E-3
2.125503682E1,-1.273579836E0,-9.754341125E0,5.024927482E-2
2.127530714E1,-1.331007600E0,-9.864411354E0,3.110669367E-2
2.129557745E1,-1.345364571E0,-9.663414001E0,1.674975827E-2
2.131584776E1,-1.314257860E0,-9.625128746E0,-9.571290575E-3
2.133611813E1,-1.335793257E0,-9.704092026E0,-4.785645287E-3
2.135638849E1,-1.359721422E0,-9.739984512E0,1.196411345E-2
2.137665880E1,-1.378864050E0,-9.809376717E0,4.785645287E-3
2.139692912E1,-1.354935765E0,-9.804591179E0,-2.452643216E-2
2.141719943E1,-1.271187067E0,-9.785448074E0,-7.956135273E-2
2.143746974E1,-1.208973646E0,-9.704092026E0,-7.956135273E-2
2.145774011E1,-1.206580877E0,-9.696913719E0,-5.802594870E-2
2.147801042E1,-1.302293777E0,-9.696913719E0,-1.974078640E-2
2.149828073E1,-1.395613790E0,-9.723235130E0,9.571290575E-3
2.151855104E1,-1.462612867E0,-9.766305923E0,2.632104978E-2
2.153882141E1,-1.443470240E0,-9.783055305E0,7.178467698E-3
2.155909172E1,-1.409970760E0,-9.759127617E0,-1.734796353E-2
2.157936203E1,-1.421934843E0,-9.747162819E0,2.392822690E-2
2.159963234E1,-1.429113269E0,-9.775876999E0,2.871387079E-2
2.161990266E1,-1.398006678E0,-9.773484230E0,-9.571290575E-3
2.164017297E1,-1.283151150E0,-9.754341125E0,-7.477571070E-2
2.166044334E1,-1.180259824E0,-9.732806206E0,-7.956135273E-2
2.168071360E1,-1.232901812E0,-9.701699257E0,-5.084748194E-2
2.170098391E1,-1.362114310E0,-9.675378799E0,9.571290575E-3
2.172125427E1,-1.460219979E0,-9.706484795E0,2.392822690E-2
2.174165427E1,-1.539183140E0,-9.756733894E0,1.435693540E-2
2.176179490E1,-1.529611826E0,-9.754341125E0,-3.170489892E-2
2.178206521E1,-1.431506157E0,-9.756733894E0,-3.409772366E-2
2.180233552E1,-1.278365493E0,-9.828518867E0,-1.495514158E-2
2.182260584E1,-1.151545882E0,-9.828518867E0,-1.734796353E-2
2.184287615E1,-1.113260746E0,-9.749555588E0,-1.202393398E-1
2.186314646E1,-1.115653515E0,-9.725627899E0,-1.824527234E-1
2.188341677E1,-1.153938770E0,-9.742377281E0,-2.015953064E-1
2.190368708E1,-1.177866936E0,-9.754341125E0,-1.609173268E-1
2.192395734E1,-1.141974568E0,-9.725627899E0,-8.913264424E-2
2.194422766E1,-1.110867858E0,-9.754341125E0,-8.913264424E-2
2.196449797E1,-1.122832060E0,-9.797411919E0,-1.058823988E-1
2.198476828E1,-1.086939692E0,-9.785448074E0,-1.322034448E-1
2.200503860E1,-1.103689432E0,-9.759127617E0,-1.513460279E-1
2.202530891E1,-1.158724308E0,-9.756733894E0,-1.585244983E-1
2.204557917E1,-1.220937729E0,-9.799804688E0,-2.039881349E-1
2.206584943E1,-1.266401410E0,-9.795019150E0,-1.489532143E-1
2.208624943E1,-1.292722464E0,-9.809376717E0,-8.913264424E-2
2.210639011E1,-1.268794179E0,-9.809376717E0,-5.802594870E-2
2.212666037E1,-1.261615753E0,-9.759127617E0,-1.034895778E-1
2.214693068E1,-1.297508121E0,-9.701699257E0,-1.226321608E-1
2.216720099E1,-1.350150228E0,-9.706484795E0,-9.152546525E-2
2.218760099E1,-1.369292736E0,-9.754341125E0,-3.649054468E-2
2.220774156E1,-1.311864972E0,-9.773484230E0,2.392822690E-2
2.222801188E1,-1.206580877E0,-9.773484230E0,-3.888336942E-2
2.224828214E1,-1.137188911E0,-9.754341125E0,-5.563312769E-2
2.226855245E1,-1.182652593E0,-9.725627899E0,-6.520441920E-2
2.228895245E1,-1.292722464E0,-9.749555588E0,-3.170489892E-2
2.230909302E1,-1.323829174E0,-9.699306488E0,-1.974078640E-2
2.232936334E1,-1.304686546E0,-9.747162819E0,-4.366901144E-2
2.234963354E1,-1.273579836E0,-9.823733330E0,-2.931207791E-2
2.236990391E1,-1.335793257E0,-9.809376717E0,-3.649054468E-2
2.239030391E1,-1.393221021E0,-9.759127617E0,-8.434699476E-2
2.241044448E1,-1.457827210E0,-9.725627899E0,-9.152546525E-2
2.243071474E1,-1.476969719E0,-9.670592308E0,-9.870393574E-2
2.245098500E1,-1.448255897E0,-9.641879082E0,-8.673982322E-2
2.247125531E1,-1.398006678E0,-9.725627899E0,-7.716853172E-2
2.249152563E1,-1.297508121E0,-9.749555588E0,-9.631111473E-2
2.251179589E1,-1.244866014E0,-9.716055870E0,-1.130608693E-1
2.253206615E1,-1.252044439E0,-9.761520386E0,-6.281159073E-2
2.255233646E1,-1.266401410E0,-9.744770050E0,-2.452643216E-2
2.257260672E1,-1.283151150E0,-9.759127617E0,-4.785645287E-3
2.259287698E1,-1.283151150E0,-9.761520386E0,-4.785645287E-3
2.261314729E1,-1.216152072E0,-9.747162819E0,-2.691925503E-2
2.263341755E1,-1.182652593E0,-9.723235130E0,2.392822644E-3
2.265368781E1,-1.144367456E0,-9.775876999E0,2.392822644E-3
2.267395813E1,-1.125224829E0,-9.814162254E0,-0.000000000E0
2.269422839E1,-1.161117196E0,-9.804591179E0,4.785645287E-3
2.271449865E1,-1.242473125E0,-9.759127617E0,1.435693540E-2
2.273476891E1,-1.338186026E0,-9.718449593E0,3.589234129E-2
2.275503922E1,-1.522433400E0,-9.699306488E0,4.307080805E-2
2.277530948E1,-1.663609982E0,-9.708877563E0,9.571290575E-3
2.279557974E1,-1.735394597E0,-9.716055870E0,-4.127619043E-2
2.281585000E1,-1.622931957E0,-9.718449593E0,-3.888336942E-2
2.283612026E1,-1.393221021E0,-9.684949875E0,-2.392822644E-3
2.285639057E1,-1.292722464E0,-9.730413437E0,2.632104978E-2
2.287666084E1,-1.268794179E0,-9.790233612E0,5.024927482E-2
2.289693110E1,-1.319043517E0,-9.857233047E0,1.674975827E-2
2.291720136E1,-1.386042476E0,-9.806983948E0,-6.520441920E-2
2.293747162E1,-1.433898926E0,-9.687342644E0,-1.154536903E-1
2.295774188E1,-1.488933921E0,-9.608379364E0,-1.226321608E-1
2.297801214E1,-1.520040631E0,-9.610772133E0,-6.520441920E-2
2.299828240E1,-1.491326690E0,-9.763913155E0,-1.734796353E-2
2.301855266E1,-1.409970760E0,-9.902696609E0,2.392822644E-3
2.303882292E1,-1.472184181E0,-9.778269768E0,-2.691925503E-2
2.305909318E1,-1.479362607E0,-9.653842926E0,-3.409772366E-2
2.307936344E1,-1.376471281E0,-9.713663101E0,-2.392822644E-3
2.309963370E1,-1.417149186E0,-9.663414001E0,-2.392822644E-3
2.311990396E1,-1.532004714E0,-9.728020668E0,2.153540403E-2
2.314017422E1,-1.474576950E0,-9.773484230E0,-2.452643216E-2
2.316044448E1,-1.335793257E0,-9.759127617E0,-1.130608693E-1
2.318071469E1,-1.228116274E0,-9.759127617E0,-1.082752272E-1
2.320098490E1,-1.115653515E0,-9.852447510E0,-0.000000000E0
2.322125516E1,-9.649057388E-1,-9.871589661E0,6.699903309E-2
2.324152542E1,-1.072582722E0,-9.790233612E0,3.110669367E-2
2.326179568E1,-1.309472203E0,-9.785448074E0,-2.392822644E-3
2.328206594E1,-1.438684583E0,-9.763913155E0,1.435693540E-2
2.330233620E1,-1.431506157E0,-9.723235130E0,4.307080805E-2
2.332260646E1,-1.424327731E0,-9.751948357E0,6.221338734E-2
2.334287667E1,-1.378864050E0,-9.754341125E0,6.460621208E-2
2.336314693E1,-1.342971683E0,-9.802198410E0,8.135596663E-2
2.338341714E1,-1.314257860E0,-9.730413437E0,9.092725813E-2
2.340368745E1,-1.290329576E0,-9.665806770E0,1.100698411E-1
2.342395766E1,-1.323829174E0,-9.696913719E0,1.483550072E-1
2.344422792E1,-1.441077471E0,-9.708877563E0,8.135596663E-2
2.346449818E1,-1.539183140E0,-9.708877563E0,1.674975827E-2
2.348476839E1,-1.431506157E0,-9.706484795E0,-1.495514158E-2
2.350503865E1,-1.249651670E0,-9.708877563E0,2.871387079E-2
2.352530891E1,-1.192223907E0,-9.716055870E0,6.939185411E-2
2.354557917E1,-1.134796143E0,-9.689735413E0,1.100698411E-1
2.356584938E1,-1.165902853E0,-9.704092026E0,8.614161611E-2
2.358611964E1,-1.278365493E0,-9.694520950E0,4.307080805E-2
2.360638985E1,-1.419542074E0,-9.718449593E0,2.392822690E-2
2.362666011E1,-1.441077471E0,-9.744770050E0,3.110669367E-2
2.364693031E1,-1.405185103E0,-9.663414001E0,7.657032460E-2
2.366720057E1,-1.357328653E0,-9.677771568E0,1.028913707E-1
2.368760057E1,-1.326221943E0,-9.739984512E0,1.196411327E-1
2.370774104E1,-1.323829174E0,-9.773484230E0,1.507478207E-1
2.372801130E1,-1.424327731E0,-9.833304405E0,1.124626622E-1
2.374828151E1,-1.474576950E0,-9.830911636E0,6.939185411E-2
2.376855172E1,-1.405185103E0,-9.675378799E0,7.178467698E-3
2.378895172E1,-1.335793257E0,-9.885947227E0,-2.931207791E-2
2.380909219E1,-1.153938770E0,-9.921838760E0,-7.477571070E-2
2.382936245E1,-1.115653515E0,-9.723235130E0,-5.563312769E-2
2.384963266E1,-1.347757339E0,-9.663414001E0,1.674975827E-2
2.386990292E1,-1.606182218E0,-9.687342644E0,8.614161611E-2
2.389030292E1,-1.792822361E0,-9.665806770E0,1.866401732E-1
2.391044339E1,-1.867598057E0,-9.658628464E0,2.560320199E-1
2.393071360E1,-1.804786444E0,-9.725627899E0,1.746760458E-1
2.395098380E1,-1.699502230E0,-9.737591743E0,1.196411327E-1
2.397125401E1,-1.613360643E0,-9.716055870E0,1.100698411E-1
2.399165401E1,-1.524826288E0,-9.830911636E0,1.507478207E-1
2.401179448E1,-1.328614831E0,-9.876375198E0,1.627119333E-1
2.403206474E1,-1.180259824E0,-9.706484795E0,1.172483116E-1
2.405233495E1,-1.228116274E0,-9.632308006E0,1.986042857E-1
2.407260516E1,-1.479362607E0,-9.768698692E0,2.392822653E-1
2.409287537E1,-1.599003673E0,-9.699306488E0,1.842473447E-1
2.411314557E1,-1.539183140E0,-9.617950439E0,1.100698411E-1
2.413341584E1,-1.486541033E0,-9.689735413E0,9.571290575E-3
2.415368604E1,-1.421934843E0,-9.711270332E0,-6.759724021E-2
2.417395625E1,-1.419542074E0,-9.720842361E0,-6.041877344E-2
2.419422646E1,-1.481755376E0,-9.749555588E0,4.785645287E-3
2.421449667E1,-1.536790371E0,-9.799804688E0,6.699903309E-2
2.423476688E1,-1.608574986E0,-9.751948357E0,4.546362907E-2
2.425503708E1,-1.811964989E0,-9.773484230E0,4.546362907E-2
2.427530729E1,-1.953739643E0,-9.787840843E0,8.853443712E-2
2.429557750E1,-1.972882271E0,-9.646664619E0,1.627119333E-1
2.431584771E1,-1.881955028E0,-9.589237213E0,2.560320199E-1
2.433611792E1,-1.783251047E0,-9.704092026E0,2.560320199E-1
2.435638813E1,-1.589432478E0,-9.775876999E0,2.225325108E-1
2.437665834E1,-1.259222865E0,-9.763913155E0,2.297109663E-1
2.439692854E1,-9.337990284E-1,-9.768698692E0,2.033899277E-1
2.441719875E1,-6.580262184E-1,-9.795019150E0,1.722832322E-1
2.443746896E1,-4.689932466E-1,-9.759127617E0,1.268195957E-1
2.445773917E1,-4.139583111E-1,-9.747162819E0,4.546362907E-2
2.447800938E1,-6.029912829E-1,-9.773484230E0,-2.452643216E-2
2.449827959E1,-9.936196208E-1,-9.895518303E0,9.571290575E-3
2.451854979E1,-1.266401410E0,-9.921838760E0,1.770688742E-1
2.453881995E1,-1.295115232E0,-9.838089943E0,4.211367965E-1
2.455909016E1,-1.331007600E0,-9.787840843E0,4.833501875E-1
2.457936037E1,-1.524826288E0,-9.795019150E0,2.344966233E-1
2.459963057E1,-1.673181176E0,-9.696913719E0,-1.974078640E-2
2.461990078E1,-1.701895118E0,-9.517452240E0,-3.170489892E-2
2.464017099E1,-1.747358680E0,-9.495916367E0,7.896314561E-2
2.466044120E1,-1.668395638E0,-9.574879646E0,1.220339537E-1
2.468071136E1,-1.429113269E0,-9.821340561E0,1.292124242E-1
2.470098156E1,-1.153938770E0,-9.857233047E0,1.890329868E-1
2.472125172E1,-1.084546804E0,-9.828518867E0,2.727817893E-1
2.474165172E1,-1.094118118E0,-9.835697174E0,2.081755698E-1
2.476179214E1,-1.036690354E0,-9.850054741E0,4.546362907E-2
2.478206234E1,-1.122832060E0,-9.826126099E0,-9.571290575E-3
2.480233250E1,-1.287936807E0,-9.761520386E0,-4.785645287E-3
2.482260271E1,-1.474576950E0,-9.641879082E0,6.939185411E-2
2.484287287E1,-1.546361685E0,-9.625128746E0,1.722832322E-1
2.486314307E1,-1.577468276E0,-9.661021233E0,2.943171859E-1
2.488341328E1,-1.761715651E0,-9.668199539E0,3.445664644E-1
2.490368344E1,-1.982453585E0,-9.651450157E0,3.373879790E-1
2.492395365E1,-2.011167526E0,-9.644271851E0,1.148554832E-1
2.494422380E1,-1.862812400E0,-9.677771568E0,-3.649054468E-2
2.496449401E1,-1.670788407E0,-9.790233612E0,2.129612118E-1
2.498476422E1,-1.517647743E0,-9.756733894E0,5.144568682E-1
2.500503438E1,-1.429113269E0,-9.756733894E0,5.670989752E-1
2.502530453E1,-1.503290772E0,-9.735198975E0,4.977070987E-1
2.504557474E1,-1.362114310E0,-9.730413437E0,2.057827413E-1
2.506584490E1,-1.417149186E0,-9.687342644E0,6.699903309E-2
2.508611510E1,-1.316650629E0,-9.720842361E0,9.332008660E-2
2.510638526E1,-1.261615753E0,-9.778269768E0,2.297109663E-1
2.512665547E1,-1.180259824E0,-9.823733330E0,2.703889608E-1
2.514692563E1,-1.170688510E0,-9.783055305E0,1.603191197E-1
2.516719584E1,-1.280758262E0,-9.732806206E0,5.264209956E-2
2.518759584E1,-1.273579836E0,-9.711270332E0,-1.495514158E-2
2.520773615E1,-1.213759303E0,-9.706484795E0,3.110669367E-2
2.522800636E1,-1.208973646E0,-9.701699257E0,1.339980662E-1
2.524827646E1,-1.208973646E0,-9.716055870E0,2.344966233E-1
2.526854667E1,-1.242473125E0,-9.761520386E0,2.584248483E-1
2.528894667E1,-1.342971683E0,-9.823733330E0,1.986042857E-1
2.530908703E1,-1.455434322E0,-9.787840843E0,1.746760458E-1
2.532935719E1,-1.395613790E0,-9.771091461E0,1.627119333E-1
2.534962740E1,-1.326221943E0,-9.747162819E0,1.220339537E-1
2.536989750E1,-1.254437327E0,-9.737591743E0,1.100698411E-1
2.539029750E1,-1.211366415E0,-9.732806206E0,1.938186288E-1
2.541043792E1,-1.268794179E0,-9.708877563E0,2.967100143E-1
2.543070807E1,-1.398006678E0,-9.730413437E0,2.368894368E-1
2.545097823E1,-1.524826288E0,-9.742377281E0,1.124626622E-1
2.547124839E1,-1.419542074E0,-9.775876999E0,8.614161611E-2
2.549151854E1,-1.307079315E0,-9.756733894E0,1.220339537E-1
2.551178870E1,-1.275972724E0,-9.773484230E0,1.914258152E-1
2.553205891E1,-1.218544960E0,-9.732806206E0,1.651047617E-1
2.555232906E1,-1.230509043E0,-9.720842361E0,1.196411327E-1
2.557259922E1,-1.307079315E0,-9.732806206E0,1.698904037E-1
2.559286938E1,-1.414756417E0,-9.680164337E0,1.962114573E-1
2.561313953E1,-1.462612867E0,-9.718449593E0,1.722832322E-1
2.563340969E1,-1.443470240E0,-9.768698692E0,1.507478207E-1
2.565367985E1,-1.364507079E0,-9.759127617E0,1.674975902E-1
2.567395005E1,-1.295115232E0,-9.785448074E0,2.368894368E-1
2.569422021E1,-1.273579836E0,-9.766305923E0,2.392822653E-1
2.571449037E1,-1.237687469E0,-9.735198975E0,2.009970993E-1
2.573489037E1,-1.177866936E0,-9.732806206E0,1.674975902E-1
2.575503068E1,-1.185045362E0,-9.773484230E0,1.698904037E-1
2.577530084E1,-1.244866014E0,-9.737591743E0,1.651047617E-1
2.579557099E1,-1.278365493E0,-9.725627899E0,1.818545163E-1
2.581584115E1,-1.304686546E0,-9.682557106E0,1.531406492E-1
2.583611130E1,-1.421934843E0,-9.682557106E0,1.292124242E-1
2.585638146E1,-1.467398524E0,-9.706484795E0,1.148554832E-1
2.587665162E1,-1.448255897E0,-9.739984512E0,1.651047617E-1
2.589692177E1,-1.326221943E0,-9.773484230E0,2.153540403E-1
2.591719193E1,-1.218544960E0,-9.749555588E0,2.225325108E-1
2.593746208E1,-1.199402332E0,-9.732806206E0,1.603191197E-1
2.595773224E1,-1.223330617E0,-9.735198975E0,1.794617027E-1
2.597800240E1,-1.321436286E0,-9.739984512E0,1.866401732E-1
2.599827255E1,-1.412363529E0,-9.739984512E0,1.722832322E-1
2.601854271E1,-1.398006678E0,-9.754341125E0,1.674975902E-1
2.603881281E1,-1.321436286E0,-9.725627899E0,1.842473447E-1
2.605908292E1,-1.309472203E0,-9.763913155E0,2.512463629E-1
2.607935307E1,-1.354935765E0,-9.785448074E0,2.440679073E-1
2.609962328E1,-1.429113269E0,-9.735198975E0,1.818545163E-1
2.611989339E1,-1.474576950E0,-9.711270332E0,1.387837082E-1
2.614016349E1,-1.441077471E0,-9.720842361E0,1.531406492E-1
2.616043365E1,-1.333400369E0,-9.720842361E0,1.627119333E-1
2.618070380E1,-1.357328653E0,-9.718449593E0,1.818545163E-1
2.620097396E1,-1.441077471E0,-9.723235130E0,2.177468538E-1
2.622124406E1,-1.424327731E0,-9.708877563E0,1.914258152E-1
2.624151422E1,-1.429113269E0,-9.737591743E0,1.722832322E-1
2.626178438E1,-1.481755376E0,-9.802198410E0,2.009970993E-1
2.628205448E1,-1.426720500E0,-9.795019150E0,2.321037948E-1
2.630232464E1,-1.335793257E0,-9.711270332E0,1.842473447E-1
2.632259479E1,-1.338186026E0,-9.723235130E0,1.507478207E-1
2.634286490E1,-1.419542074E0,-9.797411919E0,1.555334777E-1
2.636313505E1,-1.414756417E0,-9.809376717E0,1.842473447E-1
2.638340521E1,-1.319043517E0,-9.730413437E0,1.962114573E-1
2.640367531E1,-1.304686546E0,-9.706484795E0,1.866401732E-1
2.642394547E1,-1.364507079E0,-9.706484795E0,1.698904037E-1
2.644421557E1,-1.445863128E0,-9.739984512E0,1.651047617E-1
2.646448573E1,-1.436291814E0,-9.754341125E0,1.698904037E-1
2.648475589E1,-1.347757339E0,-9.739984512E0,1.651047617E-1
2.650502599E1,-1.275972724E0,-9.708877563E0,1.603191197E-1
2.652529615E1,-1.261615753E0,-9.732806206E0,1.746760458E-1
2.654556625E1,-1.292722464E0,-9.742377281E0,2.344966233E-1
2.656583641E1,-1.369292736E0,-9.759127617E0,2.105683982E-1
2.658623641E1,-1.424327731E0,-9.771091461E0,1.890329868E-1
2.660637667E1,-1.421934843E0,-9.735198975E0,1.411765367E-1
2.662664677E1,-1.342971683E0,-9.754341125E0,1.483550072E-1
2.664691693E1,-1.290329576E0,-9.744770050E0,1.866401732E-1
2.666718703E1,-1.321436286E0,-9.670592308E0,1.938186288E-1
2.668758703E1,-1.350150228E0,-9.713663101E0,1.746760458E-1
2.670772729E1,-1.364507079E0,-9.737591743E0,1.698904037E-1
2.672799740E1,-1.369292736E0,-9.763913155E0,1.938186288E-1
2.674826755E1,-1.340578914E0,-9.799804688E0,2.177468538E-1
2.676853766E1,-1.326221943E0,-9.744770050E0,1.746760458E-1
2.678893766E1,-1.347757339E0,-9.704092026E0,1.674975902E-1
2.680907792E1,-1.371685624E0,-9.711270332E0,1.746760458E-1
2.682934802E1,-1.319043517E0,-9.720842361E0,1.818545163E-1
2.684961813E1,-1.366899967E0,-9.754341125E0,1.507478207E-1
2.686988828E1,-1.386042476E0,-9.804591179E0,1.459621787E-1
2.689028828E1,-1.388435364E0,-9.737591743E0,1.651047617E-1
2.691042854E1,-1.407577872E0,-9.646664619E0,2.129612118E-1
2.693069865E1,-1.493719578E0,-9.699306488E0,2.249253243E-1
2.695096875E1,-1.555932879E0,-9.735198975E0,1.746760458E-1
2.697123886E1,-1.515254974E0,-9.701699257E0,1.387837082E-1
2.699163886E1,-1.491326690E0,-9.716055870E0,1.651047617E-1
2.701177912E1,-1.460219979E0,-9.761520386E0,2.273181528E-1
2.703204922E1,-1.424327731E0,-9.775876999E0,2.943171859E-1
2.705231932E1,-1.352542996E0,-9.737591743E0,2.512463629E-1
2.707258943E1,-1.338186026E0,-9.747162819E0,1.339980662E-1
2.709285959E1,-1.321436286E0,-9.756733894E0,8.614161611E-2
2.711312969E1,-1.235294700E0,-9.732806206E0,1.172483116E-1
2.713339979E1,-1.165902853E0,-9.716055870E0,1.674975902E-1
2.715366990E1,-1.192223907E0,-9.766305923E0,1.674975902E-1
2.717394005E1,-1.232901812E0,-9.766305923E0,1.459621787E-1
2.719421016E1,-1.311864972E0,-9.761520386E0,1.268195957E-1
2.721448026E1,-1.369292736E0,-9.730413437E0,1.435693651E-1
2.723475037E1,-1.438684583E0,-9.737591743E0,1.746760458E-1
2.725502047E1,-1.457827210E0,-9.766305923E0,2.009970993E-1
2.727529057E1,-1.441077471E0,-9.739984512E0,1.698904037E-1
2.729556068E1,-1.443470240E0,-9.744770050E0,1.507478207E-1
2.731583078E1,-1.383649707E0,-9.744770050E0,1.651047617E-1
2.733610089E1,-1.345364571E0,-9.704092026E0,1.411765367E-1
2.735637099E1,-1.338186026E0,-9.730413437E0,1.292124242E-1
2.737664110E1,-1.362114310E0,-9.742377281E0,9.092725813E-2
2.739691125E1,-1.398006678E0,-9.742377281E0,9.092725813E-2
2.741718130E1,-1.376471281E0,-9.742377281E0,7.657032460E-2
2.743745146E1,-1.331007600E0,-9.747162819E0,1.028913707E-1
2.745772151E1,-1.307079315E0,-9.744770050E0,1.339980662E-1
2.747799167E1,-1.326221943E0,-9.708877563E0,1.148554832E-1
2.749826177E1,-1.374078393E0,-9.706484795E0,6.221338734E-2
2.751853188E1,-1.376471281E0,-9.730413437E0,2.632104978E-2
2.753880188E1,-1.283151150E0,-9.763913155E0,7.657032460E-2
2.755907203E1,-1.235294700E0,-9.749555588E0,1.220339537E-1
2.757934214E1,-1.240080357E0,-9.787840843E0,1.794617027E-1
2.759961224E1,-1.254437327E0,-9.826126099E0,1.890329868E-1
2.761988234E1,-1.307079315E0,-9.795019150E0,1.268195957E-1
2.764015245E1,-1.350150228E0,-9.696913719E0,7.896314561E-2
2.766042255E1,-1.395613790E0,-9.701699257E0,6.460621208E-2
2.768069260E1,-1.376471281E0,-9.747162819E0,8.374879509E-2
2.770096276E1,-1.369292736E0,-9.739984512E0,1.292124242E-1
2.772123287E1,-1.321436286E0,-9.735198975E0,1.866401732E-1
2.774163287E1,-1.371685624E0,-9.809376717E0,2.153540403E-1
2.776177302E1,-1.424327731E0,-9.787840843E0,1.603191197E-1
2.778204313E1,-1.438684583E0,-9.742377281E0,1.124626622E-1
2.780231323E1,-1.354935765E0,-9.761520386E0,9.092725813E-2
2.782258334E1,-1.175474167E0,-9.739984512E0,4.067798331E-2
2.784285344E1,-1.007976532E0,-9.708877563E0,4.546362907E-2
2.786312354E1,-9.672985673E-1,-9.744770050E0,7.178468257E-2
2.788339365E1,-9.768698215E-1,-9.768698692E0,1.124626622E-1
2.790366370E1,-1.125224829E0,-9.802198410E0,1.531406492E-1
2.792393380E1,-1.328614831E0,-9.780662537E0,1.316052526E-1
2.794420391E1,-1.510469317E0,-9.723235130E0,4.307080805E-2
2.796447401E1,-1.577468276E0,-9.716055870E0,7.178467698E-3
2.798474406E1,-1.500898004E0,-9.668199539E0,7.178468257E-2
2.800501417E1,-1.443470240E0,-9.723235130E0,1.603191197E-1
2.802528427E1,-1.386042476E0,-9.763913155E0,2.488535494E-1
2.804555438E1,-1.381256819E0,-9.761520386E0,2.057827413E-1
2.806582448E1,-1.400399446E0,-9.754341125E0,1.172483116E-1
2.808609453E1,-1.436291814E0,-9.754341125E0,7.896314561E-2
2.810636464E1,-1.407577872E0,-9.768698692E0,6.939185411E-2
2.812663474E1,-1.275972724E0,-9.737591743E0,9.092725813E-2
2.814690484E1,-1.220937729E0,-9.711270332E0,1.148554832E-1
2.816717490E1,-1.311864972E0,-9.704092026E0,1.292124242E-1
2.818757490E1,-1.376471281E0,-9.711270332E0,8.614161611E-2
2.820771511E1,-1.345364571E0,-9.732806206E0,5.024927482E-2
2.822798521E1,-1.256830096E0,-9.744770050E0,5.742774159E-2
2.824825531E1,-1.240080357E0,-9.744770050E0,5.503492057E-2
2.826852542E1,-1.280758262E0,-9.751948357E0,6.221338734E-2
2.828892542E1,-1.345364571E0,-9.739984512E0,6.939185411E-2
2.830906557E1,-1.366899967E0,-9.759127617E0,1.172483116E-1
2.832933568E1,-1.354935765E0,-9.728020668E0,1.148554832E-1
2.834960578E1,-1.412363529E0,-9.720842361E0,8.135596663E-2
2.836987589E1,-1.426720500E0,-9.711270332E0,4.307080805E-2
2.839027589E1,-1.335793257E0,-9.725627899E0,4.546362907E-2
2.841041610E1,-1.302293777E0,-9.759127617E0,7.178468257E-2
2.843068620E1,-1.287936807E0,-9.804591179E0,1.196411327E-1
2.845095630E1,-1.261615753E0,-9.821340561E0,1.148554832E-1
2.847122641E1,-1.287936807E0,-9.783055305E0,6.699903309E-2
2.849162641E1,-1.321436286E0,-9.747162819E0,4.067798331E-2
2.851176662E1,-1.278365493E0,-9.723235130E0,5.742774159E-2
2.853203672E1,-1.249651670E0,-9.706484795E0,9.571290761E-2
2.855230682E1,-1.252044439E0,-9.751948357E0,1.076770201E-1
2.857257693E1,-1.359721422E0,-9.799804688E0,1.076770201E-1
2.859284703E1,-1.467398524E0,-9.775876999E0,1.435693651E-1
2.861311714E1,-1.474576950E0,-9.720842361E0,1.100698411E-1
2.863338729E1,-1.369292736E0,-9.732806206E0,6.221338734E-2
2.865365740E1,-1.240080357E0,-9.785448074E0,3.589234129E-2
2.867392750E1,-1.206580877E0,-9.766305923E0,6.221338734E-2
2.869419761E1,-1.254437327E0,-9.735198975E0,6.221338734E-2
2.871446771E1,-1.278365493E0,-9.735198975E0,8.614161611E-2
2.873473781E1,-1.316650629E0,-9.742377281E0,8.614161611E-2
2.875500792E1,-1.354935765E0,-9.754341125E0,9.571290761E-2
2.877527802E1,-1.364507079E0,-9.744770050E0,8.135596663E-2
2.879554813E1,-1.381256819E0,-9.763913155E0,8.135596663E-2
2.881581828E1,-1.438684583E0,-9.780662537E0,1.124626622E-1
2.883608839E1,-1.498505235E0,-9.747162819E0,9.810572863E-2
2.885635849E1,-1.488933921E0,-9.649057388E0,3.589234129E-2
2.887662860E1,-1.402792215E0,-9.658628464E0,-3.170489892E-2
2.889689870E1,-1.328614831E0,-9.787840843E0,-2.691925503E-2
2.891716886E1,-1.158724308E0,-9.811769485E0,6.460621208E-2
2.893743896E1,-1.089332461E0,-9.735198975E0,1.435693651E-1
2.895770906E1,-1.170688510E0,-9.761520386E0,1.507478207E-1
2.897797917E1,-1.256830096E0,-9.773484230E0,1.435693651E-1
2.899824927E1,-1.316650629E0,-9.763913155E0,1.148554832E-1
2.901851943E1,-1.376471281E0,-9.728020668E0,8.374879509E-2
2.903878953E1,-1.388435364E0,-9.718449593E0,7.896314561E-2
2.905905964E1,-1.431506157E0,-9.720842361E0,8.374879509E-2
2.907932979E1,-1.500898004E0,-9.720842361E0,7.896314561E-2
2.909959990E1,-1.582253933E0,-9.682557106E0,2.871387079E-2
2.911987000E1,-1.606182218E0,-9.627521515E0,-2.452643216E-2
2.914014016E1,-1.558325768E0,-9.663414001E0,-3.888336942E-2
2.916041026E1,-1.450648785E0,-9.723235130E0,3.110669367E-2
2.918068037E1,-1.302293777E0,-9.735198975E0,1.220339537E-1
2.920095052E1,-1.273579836E0,-9.768698692E0,1.531406492E-1
2.922122063E1,-1.304686546E0,-9.842875481E0,1.220339537E-1
2.924149073E1,-1.252044439E0,-9.833304405E0,1.148554832E-1
2.926176084E1,-1.130010486E0,-9.780662537E0,9.332008660E-2
2.928203099E1,-1.077368379E0,-9.716055870E0,1.100698411E-1
2.930230110E1,-1.079761267E0,-9.780662537E0,1.268195957E-1
2.932257120E1,-1.089332461E0,-9.842875481E0,1.531406492E-1
2.934284136E1,-1.156331539E0,-9.850054741E0,1.555334777E-1
2.936311146E1,-1.185045362E0,-9.761520386E0,1.100698411E-1
2.938338156E1,-1.194616675E0,-9.730413437E0,5.503492057E-2
2.940365172E1,-1.223330617E0,-9.625128746E0,3.828516230E-2
2.942392182E1,-1.393221021E0,-9.663414001E0,9.810572863E-2
2.944419198E1,-1.620539188E0,-9.768698692E0,1.244267747E-1
2.946446208E1,-1.792822361E0,-9.771091461E0,1.363908947E-1
2.948473219E1,-1.922633052E0,-9.682557106E0,1.818545163E-1
2.950500234E1,-2.001596212E0,-9.610772133E0,2.273181528E-1
2.952527245E1,-2.042274237E0,-9.591629982E0,1.842473447E-1
2.954554260E1,-2.087737799E0,-9.596415520E0,7.657032460E-2
2.956581271E1,-1.980060697E0,-9.649057388E0,-4.845465720E-2
2.958608281E1,-1.577468276E0,-9.783055305E0,-1.465603858E-1
2.960635297E1,-1.053440213E0,-9.866804123E0,-1.489532143E-1
2.962662307E1,-6.771687865E-1,-9.845269203E0,-9.152546525E-2
2.964689323E1,-5.790630579E-1,-9.802198410E0,-7.716853172E-2
2.966716334E1,-8.165507317E-1,-9.756733894E0,-1.896311939E-1
2.968756334E1,-1.208973646E0,-9.730413437E0,-2.590230405E-1
2.970770360E1,-1.484148264E0,-9.651450157E0,-1.920240223E-1
2.972797370E1,-1.510469317E0,-9.637093544E0,-3.888336942E-2
2.974824386E1,-1.524826288E0,-9.768698692E0,5.503492057E-2
2.976851396E1,-1.484148264E0,-9.821340561E0,1.004985496E-1
2.978891396E1,-1.412363529E0,-9.816555023E0,8.853443712E-2
2.980905422E1,-1.338186026E0,-9.797411919E0,3.589234129E-2
2.982932438E1,-1.309472203E0,-9.799804688E0,5.264209956E-2
2.984959448E1,-1.271187067E0,-9.759127617E0,9.810572863E-2
2.986986464E1,-1.275972724E0,-9.692128181E0,5.982056633E-2
2.989026464E1,-1.400399446E0,-9.677771568E0,-9.571290575E-3
2.991040485E1,-1.579861164E0,-9.728020668E0,-8.434699476E-2
2.993067500E1,-1.594218135E0,-9.756733894E0,-4.127619043E-2
2.995094511E1,-1.424327731E0,-9.780662537E0,2.153540403E-2
2.997121521E1,-1.242473125E0,-9.780662537E0,6.939185411E-2
2.999161521E1,-1.168295622E0,-9.785448074E0,2.632104978E-2
3.001175547E1,-1.177866936E0,-9.775876999E0,-4.606183618E-2
3.003202563E1,-1.225723386E0,-9.766305923E0,-6.999006122E-2
3.005229573E1,-1.297508121E0,-9.763913155E0,-4.606183618E-2
3.007256589E1,-1.338186026E0,-9.761520386E0,-2.691925503E-2
3.009283599E1,-1.352542996E0,-9.763913155E0,-1.256231871E-2
3.011310610E1,-1.314257860E0,-9.763913155E0,1.196411345E-2
3.013337625E1,-1.323829174E0,-9.725627899E0,7.178467698E-3
3.015364636E1,-1.421934843E0,-9.720842361E0,-2.691925503E-2
3.017391651E1,-1.402792215E0,-9.675378799E0,-4.127619043E-2
3.019418662E1,-1.359721422E0,-9.704092026E0,3.110669367E-2
3.021445677E1,-1.362114310E0,-9.713663101E0,7.417750359E-2
3.023472688E1,-1.383649707E0,-9.785448074E0,1.076770201E-1
3.025499703E1,-1.393221021E0,-9.835697174E0,8.853443712E-2
3.027526714E1,-1.407577872E0,-9.790233612E0,3.828516230E-2
3.029553729E1,-1.429113269E0,-9.742377281E0,1.196411345E-2
3.031580740E1,-1.417149186E0,-9.718449593E0,9.571290575E-3
3.033607750E1,-1.359721422E0,-9.725627899E0,3.589234129E-2
3.035634766E1,-1.278365493E0,-9.694520950E0,1.914258115E-2
3.037661771E1,-1.232901812E0,-9.704092026E0,4.785645287E-3
3.039688792E1,-1.266401410E0,-9.756733894E0,-2.392822644E-3
3.041715802E1,-1.364507079E0,-9.787840843E0,-1.256231871E-2
3.043742818E1,-1.405185103E0,-9.756733894E0,-2.452643216E-2
3.045769828E1,-1.352542996E0,-9.711270332E0,7.178467698E-3
3.047796844E1,-1.319043517E0,-9.725627899E0,6.221338734E-2
3.049823854E1,-1.331007600E0,-9.747162819E0,9.571290761E-2
3.051850865E1,-1.378864050E0,-9.763913155E0,1.148554832E-1
3.053877880E1,-1.342971683E0,-9.737591743E0,9.571290761E-2
3.055904896E1,-1.326221943E0,-9.718449593E0,8.614161611E-2
3.057931906E1,-1.340578914E0,-9.730413437E0,8.853443712E-2
3.059958917E1,-1.438684583E0,-9.751948357E0,8.374879509E-2
3.061985932E1,-1.496112347E0,-9.747162819E0,8.374879509E-2
3.064012948E1,-1.465005636E0,-9.711270332E0,5.742774159E-2
3.066039958E1,-1.374078393E0,-9.689735413E0,4.785645381E-2
3.068066969E1,-1.347757339E0,-9.684949875E0,4.785645381E-2
3.070093984E1,-1.340578914E0,-9.706484795E0,3.349951655E-2
3.072120995E1,-1.436291814E0,-9.718449593E0,5.982056633E-2
3.074160995E1,-1.498505235E0,-9.716055870E0,6.460621208E-2
3.076175021E1,-1.455434322E0,-9.771091461E0,6.699903309E-2
3.078202037E1,-1.362114310E0,-9.763913155E0,9.092725813E-2
3.080229047E1,-1.342971683E0,-9.732806206E0,7.657032460E-2
3.082256063E1,-1.390828133E0,-9.732806206E0,7.417750359E-2
3.084283073E1,-1.412363529E0,-9.723235130E0,8.614161611E-2
3.086310089E1,-1.395613790E0,-9.778269768E0,1.076770201E-1
3.088337104E1,-1.359721422E0,-9.711270332E0,9.332008660E-2
3.090364115E1,-1.350150228E0,-9.672985077E0,7.657032460E-2
3.092391125E1,-1.393221021E0,-9.661021233E0,8.135596663E-2
3.094418141E1,-1.441077471E0,-9.696913719E0,1.004985496E-1
3.096445151E1,-1.462612867E0,-9.761520386E0,1.100698411E-1
3.098472167E1,-1.445863128E0,-9.814162254E0,8.853443712E-2
3.100499177E1,-1.472184181E0,-9.754341125E0,3.828516230E-2
3.102526193E1,-1.529611826E0,-9.672985077E0,-0.000000000E0
3.104553214E1,-1.563111424E0,-9.742377281E0,4.785645287E-3
3.106580302E1,-1.520040631E0,-9.761520386E0,9.571290575E-3
3.108620297E1,-1.426720500E0,-9.730413437E0,-1.734796353E-2
3.110634250E1,-1.280758262E0,-9.761520386E0,-3.170489892E-2
3.112661261E1,-1.153938770E0,-9.780662537E0,-4.785645287E-3
3.114688271E1,-1.106082320E0,-9.754341125E0,2.153540403E-2
3.116715281E1,-1.108475089E0,-9.780662537E0,2.153540403E-2
3.118755281E1,-1.201795220E0,-9.754341125E0,2.392822644E-3
3.120769307E1,-1.244866014E0,-9.735198975E0,-3.888336942E-2
3.122796323E1,-1.304686546E0,-9.778269768E0,-4.127619043E-2
3.124823334E1,-1.371685624E0,-9.790233612E0,-3.170489892E-2
3.126850349E1,-1.419542074E0,-9.802198410E0,-5.802594870E-2
3.128890349E1,-1.388435364E0,-9.756733894E0,-9.391828626E-2
3.130904375E1,-1.252044439E0,-9.629914284E0,-1.202393398E-1
3.132931386E1,-1.098903775E0,-9.699306488E0,-2.452643216E-2
3.134958401E1,-1.127617717E0,-9.809376717E0,7.417750359E-2
3.136985412E1,-1.335793257E0,-9.818947792E0,8.853443712E-2
3.139025412E1,-1.527219057E0,-9.749555588E0,3.828516230E-2
3.141039443E1,-1.610967875E0,-9.684949875E0,2.392822644E-3
3.143066453E1,-1.627717614E0,-9.653842926E0,-2.452643216E-2
3.145093469E1,-1.625324726E0,-9.641879082E0,-2.452643216E-2
3.147120479E1,-1.596610904E0,-9.615557671E0,-1.495514158E-2
3.149147495E1,-1.560718536E0,-9.663414001E0,-2.691925503E-2
3.151174505E1,-1.424327731E0,-9.795019150E0,-1.974078640E-2
3.153201521E1,-1.273579836E0,-9.830911636E0,-3.409772366E-2
3.155228531E1,-1.113260746E0,-9.816555023E0,-4.127619043E-2
3.157255547E1,-1.051047325E0,-9.799804688E0,-9.152546525E-2
3.159282557E1,-1.055832982E0,-9.785448074E0,-1.202393398E-1
3.161309573E1,-1.118046403E0,-9.773484230E0,-1.298106313E-1
3.163336584E1,-1.187438250E0,-9.763913155E0,-1.369891018E-1
3.165363594E1,-1.235294700E0,-9.778269768E0,-1.393819153E-1
3.167390610E1,-1.240080357E0,-9.768698692E0,-1.489532143E-1
3.169417620E1,-1.235294700E0,-9.723235130E0,-1.322034448E-1
3.171444630E1,-1.292722464E0,-9.720842361E0,-7.477571070E-2
3.173471646E1,-1.359721422E0,-9.785448074E0,-4.845465720E-2
3.175498656E1,-1.436291814E0,-9.818947792E0,-1.734796353E-2
3.177525672E1,-1.474576950E0,-9.847661972E0,9.571290575E-3
3.179552682E1,-1.522433400E0,-9.842875481E0,3.349951655E-2
3.181579693E1,-1.529611826E0,-9.804591179E0,4.067798331E-2
3.183606709E1,-1.445863128E0,-9.766305923E0,1.196411345E-2
3.185633719E1,-1.311864972E0,-9.730413437E0,-4.845465720E-2
3.187660729E1,-1.141974568E0,-9.651450157E0,-1.250249892E-1
3.189687745E1,-1.010369420E0,-9.656235695E0,-1.633101404E-1
3.191714755E1,-9.505487680E-1,-9.747162819E0,-1.800599098E-1
3.193741766E1,-9.409775138E-1,-9.792626381E0,-1.369891018E-1
3.195768781E1,-9.768698215E-1,-9.778269768E0,-1.178465188E-1
3.197795792E1,-1.055832982E0,-9.747162819E0,-1.250249892E-1
3.199822802E1,-1.103689432E0,-9.742377281E0,-1.776670814E-1
3.201849813E1,-1.039083242E0,-9.818947792E0,-1.800599098E-1
3.203876828E1,-9.529415965E-1,-9.830911636E0,-1.082752272E-1
3.205903839E1,-9.457631707E-1,-9.747162819E0,-1.106680483E-1
3.207930849E1,-1.072582722E0,-9.732806206E0,-1.154536903E-1
3.209957860E1,-1.218544960E0,-9.742377281E0,-6.520441920E-2
3.211984870E1,-1.316650629E0,-9.725627899E0,-1.256231871E-2
3.214011886E1,-1.412363529E0,-9.718449593E0,-3.409772366E-2
3.216038896E1,-1.479362607E0,-9.742377281E0,-3.649054468E-2
3.218065906E1,-1.503290772E0,-9.751948357E0,-2.452643216E-2
3.220092917E1,-1.491326690E0,-9.759127617E0,-7.178467698E-3
3.222119932E1,-1.438684583E0,-9.725627899E0,-3.888336942E-2
3.224146943E1,-1.292722464E0,-9.744770050E0,-4.366901144E-2
3.226173953E1,-1.235294700E0,-9.799804688E0,1.196411345E-2
3.228200969E1,-1.283151150E0,-9.873982430E0,5.503492057E-2
3.230227974E1,-1.366899967E0,-9.845269203E0,6.939185411E-2
3.232254990E1,-1.441077471E0,-9.742377281E0,1.435693540E-2
3.234282000E1,-1.390828133E0,-9.701699257E0,-3.409772366E-2
3.236309011E1,-1.295115232E0,-9.687342644E0,-6.520441920E-2
3.238336021E1,-1.261615753E0,-9.694520950E0,-6.281159073E-2
3.240363037E1,-1.304686546E0,-9.696913719E0,-3.888336942E-2
3.242390047E1,-1.381256819E0,-9.735198975E0,-3.409772366E-2
3.244417057E1,-1.438684583E0,-9.756733894E0,-5.084748194E-2
3.246444068E1,-1.436291814E0,-9.732806206E0,-7.238288224E-2
3.248471078E1,-1.371685624E0,-9.713663101E0,-5.802594870E-2
3.250498094E1,-1.352542996E0,-9.747162819E0,-3.409772366E-2
3.252525104E1,-1.383649707E0,-9.797411919E0,-3.649054468E-2
3.254552115E1,-1.405185103E0,-9.751948357E0,-6.520441920E-2
3.256579125E1,-1.474576950E0,-9.701699257E0,-8.913264424E-2
3.258606136E1,-1.548754454E0,-9.632308006E0,-9.152546525E-2
3.260633146E1,-1.591825247E0,-9.622735977E0,-1.058823988E-1
3.262660156E1,-1.599003673E0,-9.732806206E0,-1.393819153E-1
3.264687172E1,-1.515254974E0,-9.792626381E0,-1.345962733E-1
3.266714182E1,-1.359721422E0,-9.821340561E0,-1.106680483E-1
3.268754182E1,-1.182652593E0,-9.795019150E0,-1.034895778E-1
3.270768203E1,-1.072582722E0,-9.763913155E0,-9.152546525E-2
3.272795214E1,-1.086939692E0,-9.728020668E0,-1.298106313E-1
3.274822224E1,-1.211366415E0,-9.708877563E0,-1.513460279E-1
3.276849234E1,-1.299900889E0,-9.713663101E0,-1.226321608E-1
3.278889234E1,-1.331007600E0,-9.732806206E0,-9.152546525E-2
3.280903260E1,-1.323829174E0,-9.780662537E0,-8.673982322E-2
3.282930271E1,-1.314257860E0,-9.809376717E0,-1.274178028E-1
3.284957281E1,-1.304686546E0,-9.816555023E0,-1.298106313E-1
3.286984292E1,-1.319043517E0,-9.802198410E0,-1.202393398E-1
3.289024292E1,-1.264008522E0,-9.723235130E0,-1.130608693E-1
3.291038313E1,-1.225723386E0,-9.694520950E0,-8.195417374E-2
3.293065323E1,-1.197009563E0,-9.692128181E0,-4.845465720E-2
3.295092334E1,-1.161117196E0,-9.744770050E0,-1.256231871E-2
3.297119344E1,-1.173081279E0,-9.833304405E0,-2.452643216E-2
3.299159344E1,-1.204187989E0,-9.864411354E0,-6.520441920E-2
3.301173360E1,-1.240080357E0,-9.785448074E0,-1.417747438E-1
3.303200370E1,-1.268794179E0,-9.708877563E0,-2.015953064E-1
3.305227386E1,-1.204187989E0,-9.728020668E0,-2.709871531E-1
3.307254391E1,-1.079761267E0,-9.783055305E0,-2.590230405E-1
3.309281401E1,-9.888339639E-1,-9.816555023E0,-2.207378894E-1
3.311308412E1,-1.027119160E0,-9.785448074E0,-1.896311939E-1
3.313335422E1,-1.127617717E0,-9.768698692E0,-1.657029688E-1
3.315362432E1,-1.204187989E0,-9.730413437E0,-1.441675574E-1
3.317389443E1,-1.228116274E0,-9.713663101E0,-1.202393398E-1
3.319416453E1,-1.261615753E0,-9.754341125E0,-8.673982322E-2
3.321443464E1,-1.266401410E0,-9.771091461E0,-1.202393398E-1
3.323470469E1,-1.256830096E0,-9.747162819E0,-1.824527234E-1
3.325497479E1,-1.261615753E0,-9.737591743E0,-2.015953064E-1
3.327524490E1,-1.240080357E0,-9.744770050E0,-1.848455518E-1
3.329551500E1,-1.220937729E0,-9.739984512E0,-1.345962733E-1
3.331578510E1,-1.187438250E0,-9.713663101E0,-1.178465188E-1
3.333605521E1,-1.170688510E0,-9.742377281E0,-1.106680483E-1
3.335632526E1,-1.165902853E0,-9.763913155E0,-9.391828626E-2
3.337659537E1,-1.161117196E0,-9.754341125E0,-1.465603858E-1
3.339686547E1,-1.235294700E0,-9.747162819E0,-1.896311939E-1
3.341713557E1,-1.283151150E0,-9.768698692E0,-1.944168359E-1
3.343740563E1,-1.240080357E0,-9.775876999E0,-1.824527234E-1
3.345767573E1,-1.173081279E0,-9.797411919E0,-1.728814393E-1
3.347794584E1,-1.139581800E0,-9.804591179E0,-1.537388563E-1
3.349821594E1,-1.168295622E0,-9.785448074E0,-1.369891018E-1
3.351848599E1,-1.259222865E0,-9.763913155E0,-1.034895778E-1
3.353875610E1,-1.340578914E0,-9.749555588E0,-9.870393574E-2
3.355902620E1,-1.405185103E0,-9.775876999E0,-8.673982322E-2
3.357929625E1,-1.357328653E0,-9.749555588E0,-1.058823988E-1
3.359956636E1,-1.321436286E0,-9.744770050E0,-1.298106313E-1
3.361983646E1,-1.299900889E0,-9.739984512E0,-1.369891018E-1
3.364010656E1,-1.342971683E0,-9.701699257E0,-1.226321608E-1
3.366037662E1,-1.371685624E0,-9.744770050E0,-8.673982322E-2
3.368064672E1,-1.354935765E0,-9.771091461E0,-1.010967568E-1
3.370091682E1,-1.259222865E0,-9.749555588E0,-1.441675574E-1
3.372118688E1,-1.185045362E0,-9.711270332E0,-1.585244983E-1
3.374158688E1,-1.208973646E0,-9.787840843E0,-1.393819153E-1
3.376172709E1,-1.249651670E0,-9.799804688E0,-1.298106313E-1
3.378199714E1,-1.261615753E0,-9.739984512E0,-1.537388563E-1
3.380226724E1,-1.230509043E0,-9.716055870E0,-1.441675574E-1
3.382253729E1,-1.199402332E0,-9.744770050E0,-1.250249892E-1
3.384280740E1,-1.197009563E0,-9.771091461E0,-1.082752272E-1
3.386307745E1,-1.225723386E0,-9.766305923E0,-1.106680483E-1
3.388334755E1,-1.240080357E0,-9.749555588E0,-1.106680483E-1
3.390361760E1,-1.208973646E0,-9.747162819E0,-1.202393398E-1
3.392388771E1,-1.170688510E0,-9.768698692E0,-1.322034448E-1
3.394415781E1,-1.161117196E0,-9.780662537E0,-1.274178028E-1
3.396442787E1,-1.206580877E0,-9.780662537E0,-1.274178028E-1
3.398469797E1,-1.206580877E0,-9.771091461E0,-1.202393398E-1
3.400496797E1,-1.223330617E0,-9.751948357E0,-1.082752272E-1
3.402523813E1,-1.228116274E0,-9.742377281E0,-1.202393398E-1
3.404550818E1,-1.232901812E0,-9.728020668E0,-1.106680483E-1
3.406577823E1,-1.273579836E0,-9.737591743E0,-1.154536903E-1
3.408604834E1,-1.287936807E0,-9.775876999E0,-1.082752272E-1
3.410631844E1,-1.285543919E0,-9.761520386E0,-1.058823988E-1
3.412658849E1,-1.280758262E0,-9.754341125E0,-7.716853172E-2
3.414685854E1,-1.244866014E0,-9.735198975E0,-9.152546525E-2
3.416712865E1,-1.256830096E0,-9.737591743E0,-1.034895778E-1
3.418752865E1,-1.268794179E0,-9.742377281E0,-1.130608693E-1
3.420766880E1,-1.295115232E0,-9.739984512E0,-1.058823988E-1
3.422793886E1,-1.304686546E0,-9.756733894E0,-8.673982322E-2
3.424820896E1,-1.273579836E0,-9.754341125E0,-7.477571070E-2
3.426847901E1,-1.237687469E0,-9.728020668E0,-8.434699476E-2
3.428887901E1,-1.237687469E0,-9.766305923E0,-1.226321608E-1
3.430901917E1,-1.261615753E0,-9.795019150E0,-9.631111473E-2
3.432928922E1,-1.254437327E0,-9.768698692E0,-7.477571070E-2
3.434955932E1,-1.264008522E0,-9.725627899E0,-6.999006122E-2
3.436982938E1,-1.275972724E0,-9.732806206E0,-7.238288224E-2
3.439022938E1,-1.316650629E0,-9.773484230E0,-7.477571070E-2
3.441036953E1,-1.350150228E0,-9.790233612E0,-6.999006122E-2
3.443063958E1,-1.364507079E0,-9.790233612E0,-3.888336942E-2
3.445090964E1,-1.357328653E0,-9.780662537E0,-4.845465720E-2
3.447117974E1,-1.319043517E0,-9.759127617E0,-6.520441920E-2
3.449144979E1,-1.333400369E0,-9.723235130E0,-7.956135273E-2
3.451171984E1,-1.323829174E0,-9.713663101E0,-1.154536903E-1
3.453198990E1,-1.292722464E0,-9.687342644E0,-1.274178028E-1
3.455225995E1,-1.232901812E0,-9.677771568E0,-1.585244983E-1
3.457253005E1,-1.223330617E0,-9.713663101E0,-1.393819153E-1
3.459280010E1,-1.254437327E0,-9.725627899E0,-1.465603858E-1
3.461307016E1,-1.264008522E0,-9.713663101E0,-1.561316848E-1
3.463334021E1,-1.292722464E0,-9.749555588E0,-1.800599098E-1
3.465361026E1,-1.247258782E0,-9.797411919E0,-1.657029688E-1
3.467388037E1,-1.199402332E0,-9.790233612E0,-1.393819153E-1
3.469415042E1,-1.156331539E0,-9.756733894E0,-1.034895778E-1
3.471442047E1,-1.161117196E0,-9.742377281E0,-1.393819153E-1
3.473469052E1,-1.192223907E0,-9.725627899E0,-1.704886109E-1
3.475496057E1,-1.235294700E0,-9.751948357E0,-1.776670814E-1
3.477523063E1,-1.295115232E0,-9.761520386E0,-1.561316848E-1
3.479563063E1,-1.326221943E0,-9.771091461E0,-1.106680483E-1
3.481577078E1,-1.319043517E0,-9.742377281E0,-9.870393574E-2
3.483604084E1,-1.316650629E0,-9.732806206E0,-1.298106313E-1
3.485631089E1,-1.316650629E0,-9.785448074E0,-1.226321608E-1
3.487658094E1,-1.278365493E0,-9.814162254E0,-1.034895778E-1
3.489685099E1,-1.261615753E0,-9.785448074E0,-8.673982322E-2
3.491712104E1,-1.189831018E0,-9.723235130E0,-1.585244983E-1
3.493739110E1,-1.208973646E0,-9.730413437E0,-1.992024779E-1
3.495766115E1,-1.319043517E0,-9.759127617E0,-2.087737769E-1
3.497793120E1,-1.299900889E0,-9.763913155E0,-9.870393574E-2
3.499820125E1,-1.158724308E0,-9.728020668E0,-7.956135273E-2
3.501847130E1,-1.139581800E0,-9.761520386E0,-1.776670814E-1
3.503874136E1,-1.192223907E0,-9.785448074E0,-2.303091735E-1
3.505901141E1,-1.304686546E0,-9.742377281E0,-1.896311939E-1
3.507928146E1,-1.441077471E0,-9.728020668E0,-1.130608693E-1
3.509955151E1,-1.436291814E0,-9.756733894E0,-9.870393574E-2
3.511982156E1,-1.335793257E0,-9.778269768E0,-1.154536903E-1
3.514009162E1,-1.275972724E0,-9.795019150E0,-1.585244983E-1
3.516036167E1,-1.280758262E0,-9.763913155E0,-1.752742529E-1
3.518063172E1,-1.295115232E0,-9.742377281E0,-2.183450609E-1
3.520090177E1,-1.311864972E0,-9.737591743E0,-2.255235314E-1
3.522117182E1,-1.304686546E0,-9.739984512E0,-2.111666054E-1
3.524144188E1,-1.309472203E0,-9.699306488E0,-1.322034448E-1
3.526171193E1,-1.388435364E0,-9.732806206E0,-1.393819153E-1
3.528198198E1,-1.421934843E0,-9.725627899E0,-2.350948304E-1
3.530225198E1,-1.359721422E0,-9.680164337E0,-3.332005441E-1
3.532252198E1,-1.302293777E0,-9.725627899E0,-3.260220885E-1
3.534279203E1,-1.206580877E0,-9.845269203E0,-1.824527234E-1
3.536306208E1,-1.101296663E0,-9.893125534E0,-6.759724021E-2
3.538333219E1,-1.065404296E0,-9.818947792E0,-6.999006122E-2
3.540360224E1,-1.211366415E0,-9.756733894E0,-1.585244983E-1
3.542387224E1,-1.340578914E0,-9.675378799E0,-2.159522474E-1
3.544414229E1,-1.462612867E0,-9.656235695E0,-2.111666054E-1
3.546441234E1,-1.534397483E0,-9.730413437E0,-1.824527234E-1
3.548468240E1,-1.539183140E0,-9.735198975E0,-1.896311939E-1
3.550495245E1,-1.488933921E0,-9.732806206E0,-1.537388563E-1
3.552522250E1,-1.474576950E0,-9.780662537E0,-1.226321608E-1
3.554549255E1,-1.450648785E0,-9.718449593E0,-1.345962733E-1
3.556576260E1,-1.374078393E0,-9.704092026E0,-2.135594189E-1
3.558616261E1,-1.199402332E0,-9.708877563E0,-2.973082066E-1
3.560630266E1,-1.058225870E0,-9.749555588E0,-2.542374134E-1
3.562657271E1,-9.984052777E-1,-9.790233612E0,-1.465603858E-1
3.564684276E1,-1.089332461E0,-9.821340561E0,-8.195417374E-2
3.566711281E1,-1.206580877E0,-9.783055305E0,-1.202393398E-1
3.568751281E1,-1.295115232E0,-9.749555588E0,-1.824527234E-1
3.570765292E1,-1.333400369E0,-9.768698692E0,-1.920240223E-1
3.572792297E1,-1.338186026E0,-9.756733894E0,-1.393819153E-1
3.574819302E1,-1.371685624E0,-9.735198975E0,-6.999006122E-2
3.576846302E1,-1.498505235E0,-9.744770050E0,-3.170489892E-2
3.578886302E1,-1.565504193E0,-9.689735413E0,-2.931207791E-2
3.580900313E1,-1.555932879E0,-9.730413437E0,-3.649054468E-2
3.582927318E1,-1.496112347E0,-9.790233612E0,-3.409772366E-2
3.584954323E1,-1.429113269E0,-9.766305923E0,-4.127619043E-2
3.586981328E1,-1.414756417E0,-9.737591743E0,-5.324030295E-2
3.589021328E1,-1.409970760E0,-9.723235130E0,-8.195417374E-2
3.591035334E1,-1.405185103E0,-9.723235130E0,-9.391828626E-2
3.593062339E1,-1.333400369E0,-9.687342644E0,-1.178465188E-1
3.595089344E1,-1.283151150E0,-9.713663101E0,-1.202393398E-1
3.597116349E1,-1.268794179E0,-9.763913155E0,-7.956135273E-2
3.599156349E1,-1.247258782E0,-9.771091461E0,-3.649054468E-2
3.601170354E1,-1.333400369E0,-9.716055870E0,-9.571290575E-3
3.603197360E1,-1.438684583E0,-9.716055870E0,-6.041877344E-2
3.605224365E1,-1.474576950E0,-9.754341125E0,-6.281159073E-2
3.607251370E1,-1.450648785E0,-9.716055870E0,-1.974078640E-2
3.609278375E1,-1.381256819E0,-9.689735413E0,-1.495514158E-2
3.611305386E1,-1.364507079E0,-9.718449593E0,2.392822644E-3
3.613332386E1,-1.378864050E0,-9.725627899E0,1.674975827E-2
3.615359386E1,-1.481755376E0,-9.718449593E0,-1.974078640E-2
3.617386386E1,-1.527219057E0,-9.723235130E0,-6.281159073E-2
3.619413396E1,-1.455434322E0,-9.737591743E0,-8.434699476E-2
3.621440401E1,-1.316650629E0,-9.732806206E0,-4.606183618E-2
3.623467406E1,-1.264008522E0,-9.716055870E0,-2.213360928E-2
3.625494412E1,-1.319043517E0,-9.761520386E0,-0.000000000E0
3.627521417E1,-1.386042476E0,-9.773484230E0,-9.571290575E-3
3.629548422E1,-1.417149186E0,-9.783055305E0,-2.452643216E-2
3.631575427E1,-1.395613790E0,-9.763913155E0,-6.999006122E-2
3.633602432E1,-1.328614831E0,-9.749555588E0,-3.649054468E-2
3.635629432E1,-1.350150228E0,-9.723235130E0,1.674975827E-2
3.637656438E1,-1.457827210E0,-9.739984512E0,3.349951655E-2
3.639683443E1,-1.529611826E0,-9.732806206E0,-2.452643216E-2
3.641710448E1,-1.529611826E0,-9.682557106E0,-9.391828626E-2
3.643737453E1,-1.467398524E0,-9.708877563E0,-1.322034448E-1
3.645764459E1,-1.407577872E0,-9.730413437E0,-1.058823988E-1
3.647791464E1,-1.331007600E0,-9.744770050E0,-6.041877344E-2
3.649818464E1,-1.275972724E0,-9.737591743E0,-1.734796353E-2
3.651845469E1,-1.254437327E0,-9.739984512E0,-4.606183618E-2
3.653872474E1,-1.256830096E0,-9.737591743E0,-7.477571070E-2
3.655899479E1,-1.249651670E0,-9.778269768E0,-1.250249892E-1
3.657926485E1,-1.220937729E0,-9.720842361E0,-1.322034448E-1
3.659953490E1,-1.228116274E0,-9.730413437E0,-8.434699476E-2
3.661980490E1,-1.264008522E0,-9.790233612E0,-5.802594870E-2
3.664007495E1,-1.264008522E0,-9.756733894E0,-6.520441920E-2
3.666034500E1,-1.297508121E0,-9.730413437E0,-8.673982322E-2
3.668061505E1,-1.316650629E0,-9.706484795E0,-1.058823988E-1
3.670088511E1,-1.383649707E0,-9.701699257E0,-6.520441920E-2
3.672115510E1,-1.398006678E0,-9.775876999E0,-3.409772366E-2
3.674155510E1,-1.438684583E0,-9.783055305E0,-4.845465720E-2
3.676169521E1,-1.412363529E0,-9.778269768E0,-7.238288224E-2
3.678196526E1,-1.407577872E0,-9.747162819E0,-8.195417374E-2
3.680223531E1,-1.421934843E0,-9.699306488E0,-7.716853172E-2
3.682250531E1,-1.436291814E0,-9.735198975E0,-7.477571070E-2
3.684277537E1,-1.455434322E0,-9.713663101E0,-7.716853172E-2
3.686304542E1,-1.402792215E0,-9.732806206E0,-9.870393574E-2
3.688331547E1,-1.347757339E0,-9.728020668E0,-1.274178028E-1
3.690358552E1,-1.345364571E0,-9.742377281E0,-9.152546525E-2
3.692385557E1,-1.369292736E0,-9.742377281E0,-7.716853172E-2
3.694412557E1,-1.378864050E0,-9.706484795E0,-7.956135273E-2
3.696439563E1,-1.450648785E0,-9.718449593E0,-9.391828626E-2
3.698466568E1,-1.443470240E0,-9.732806206E0,-8.913264424E-2
3.700493573E1,-1.412363529E0,-9.720842361E0,-6.520441920E-2
3.702520573E1,-1.419542074E0,-9.720842361E0,-7.956135273E-2
3.704547578E1,-1.402792215E0,-9.749555588E0,-9.152546525E-2
3.706574584E1,-1.405185103E0,-9.716055870E0,-1.106680483E-1
3.708601589E1,-1.390828133E0,-9.744770050E0,-8.913264424E-2
3.710628589E1,-1.393221021E0,-9.778269768E0,-8.673982322E-2
3.712655594E1,-1.359721422E0,-9.775876999E0,-6.041877344E-2
3.714682599E1,-1.335793257E0,-9.723235130E0,-1.298106313E-1
3.716709599E1,-1.369292736E0,-9.694520950E0,-1.561316848E-1
3.718749599E1,-1.448255897E0,-9.718449593E0,-1.393819153E-1
3.720763610E1,-1.465005636E0,-9.725627899E0,-1.417747438E-1
3.722790615E1,-1.398006678E0,-9.718449593E0,-1.585244983E-1
3.724817615E1,-1.309472203E0,-9.725627899E0,-1.345962733E-1
3.726844620E1,-1.287936807E0,-9.773484230E0,-1.154536903E-1
3.728884620E1,-1.345364571E0,-9.802198410E0,-8.434699476E-2
3.730898625E1,-1.424327731E0,-9.771091461E0,-1.010967568E-1
3.732925630E1,-1.476969719E0,-9.747162819E0,-1.154536903E-1
3.734952636E1,-1.460219979E0,-9.759127617E0,-9.391828626E-2
3.736979636E1,-1.424327731E0,-9.749555588E0,-7.716853172E-2
3.739019636E1,-1.400399446E0,-9.716055870E0,-8.434699476E-2
3.741033646E1,-1.436291814E0,-9.713663101E0,-8.673982322E-2
3.743060651E1,-1.436291814E0,-9.708877563E0,-1.250249892E-1
3.745087651E1,-1.445863128E0,-9.728020668E0,-1.226321608E-1
3.747114656E1,-1.445863128E0,-9.742377281E0,-8.913264424E-2
3.749154656E1,-1.398006678E0,-9.744770050E0,-7.956135273E-2
3.751168662E1,-1.362114310E0,-9.739984512E0,-1.058823988E-1
3.753195667E1,-1.297508121E0,-9.720842361E0,-1.154536903E-1
3.755222672E1,-1.333400369E0,-9.723235130E0,-1.441675574E-1
3.757249672E1,-1.347757339E0,-9.737591743E0,-1.274178028E-1
3.759276677E1,-1.335793257E0,-9.744770050E0,-1.106680483E-1
3.761303677E1,-1.345364571E0,-9.730413437E0,-9.391828626E-2
3.763330677E1,-1.383649707E0,-9.728020668E0,-1.034895778E-1
3.765357688E1,-1.378864050E0,-9.692128181E0,-1.202393398E-1
3.767384688E1,-1.407577872E0,-9.701699257E0,-1.202393398E-1
3.769411693E1,-1.426720500E0,-9.768698692E0,-9.870393574E-2
3.771438693E1,-1.424327731E0,-9.751948357E0,-5.802594870E-2
3.773465698E1,-1.474576950E0,-9.735198975E0,-5.563312769E-2
3.775492698E1,-1.510469317E0,-9.775876999E0,-5.563312769E-2
3.777519703E1,-1.491326690E0,-9.756733894E0,-8.913264424E-2
3.779546709E1,-1.431506157E0,-9.749555588E0,-8.913264424E-2
3.781573708E1,-1.359721422E0,-9.775876999E0,-6.759724021E-2
3.783600714E1,-1.316650629E0,-9.763913155E0,-2.392822644E-3
3.785627714E1,-1.338186026E0,-9.744770050E0,4.785645287E-3
3.787654719E1,-1.414756417E0,-9.747162819E0,-3.170489892E-2
3.789681719E1,-1.453041553E0,-9.716055870E0,-1.034895778E-1
3.791708724E1,-1.443470240E0,-9.682557106E0,-1.202393398E-1
3.793735724E1,-1.421934843E0,-9.716055870E0,-9.870393574E-2
3.795762729E1,-1.455434322E0,-9.725627899E0,-6.041877344E-2
3.797789724E1,-1.488933921E0,-9.713663101E0,-5.084748194E-2
3.799816734E1,-1.457827210E0,-9.713663101E0,-5.084748194E-2
3.801843740E1,-1.374078393E0,-9.737591743E0,-5.802594870E-2
3.803870740E1,-1.326221943E0,-9.742377281E0,-2.452643216E-2
3.805897745E1,-1.319043517E0,-9.756733894E0,-1.974078640E-2
3.807924745E1,-1.369292736E0,-9.739984512E0,-3.170489892E-2
3.809951750E1,-1.421934843E0,-9.735198975E0,-5.084748194E-2
3.811978750E1,-1.469791293E0,-9.718449593E0,-4.606183618E-2
3.814005755E1,-1.479362607E0,-9.749555588E0,-5.324030295E-2
3.816032755E1,-1.469791293E0,-9.732806206E0,-5.084748194E-2
3.818059760E1,-1.433898926E0,-9.720842361E0,-2.931207791E-2
3.820086760E1,-1.412363529E0,-9.699306488E0,-4.785645287E-3
3.822113766E1,-1.419542074E0,-9.706484795E0,-2.931207791E-2
3.824140766E1,-1.443470240E0,-9.749555588E0,-4.127619043E-2
3.826167771E1,-1.429113269E0,-9.778269768E0,2.392822644E-3
3.828194771E1,-1.381256819E0,-9.780662537E0,2.153540403E-2
3.830221776E1,-1.319043517E0,-9.768698692E0,3.828516230E-2
3.832248776E1,-1.326221943E0,-9.747162819E0,1.674975827E-2
3.834275776E1,-1.354935765E0,-9.720842361E0,-4.785645287E-3
3.836302781E1,-1.381256819E0,-9.694520950E0,-4.845465720E-2
3.838329781E1,-1.378864050E0,-9.701699257E0,-2.213360928E-2
3.840356787E1,-1.400399446E0,-9.742377281E0,-7.178467698E-3
3.842383787E1,-1.390828133E0,-9.773484230E0,2.871387079E-2
3.844410787E1,-1.390828133E0,-9.737591743E0,-0.000000000E0
3.846437792E1,-1.395613790E0,-9.716055870E0,-1.974078640E-2
3.848464792E1,-1.419542074E0,-9.728020668E0,-2.691925503E-2
3.850491797E1,-1.448255897E0,-9.711270332E0,-4.366901144E-2
3.852518797E1,-1.479362607E0,-9.711270332E0,4.785645287E-3
3.854545802E1,-1.465005636E0,-9.747162819E0,1.435693540E-2
3.856572802E1,-1.400399446E0,-9.735198975E0,3.110669367E-2
3.858599802E1,-1.350150228E0,-9.728020668E0,1.435693540E-2
3.860626807E1,-1.347757339E0,-9.739984512E0,3.349951655E-2
3.862653807E1,-1.378864050E0,-9.716055870E0,3.828516230E-2
3.864680807E1,-1.433898926E0,-9.680164337E0,3.110669367E-2
3.866707813E1,-1.467398524E0,-9.701699257E0,1.196411345E-2
3.868747813E1,-1.474576950E0,-9.711270332E0,1.674975827E-2
3.870761818E1,-1.508076429E0,-9.754341125E0,3.589234129E-2
3.872788818E1,-1.534397483E0,-9.780662537E0,5.264209956E-2
3.874815823E1,-1.510469317E0,-9.783055305E0,3.589234129E-2
3.876842823E1,-1.352542996E0,-9.778269768E0,-0.000000000E0
3.878882823E1,-1.187438250E0,-9.742377281E0,-9.571290575E-3
3.880896828E1,-1.161117196E0,-9.704092026E0,2.153540403E-2
3.882923828E1,-1.204187989E0,-9.716055870E0,4.785645287E-3
3.884950834E1,-1.261615753E0,-9.699306488E0,-5.563312769E-2
3.886977834E1,-1.326221943E0,-9.708877563E0,-8.195417374E-2
3.889017834E1,-1.362114310E0,-9.766305923E0,-2.452643216E-2
3.891031839E1,-1.326221943E0,-9.751948357E0,3.110669367E-2
3.893058839E1,-1.297508121E0,-9.735198975E0,4.307080805E-2
3.895085844E1,-1.345364571E0,-9.749555588E0,3.828516230E-2
3.897112844E1,-1.424327731E0,-9.778269768E0,4.546362907E-2
3.899152844E1,-1.481755376E0,-9.677771568E0,2.632104978E-2
3.901166849E1,-1.546361685E0,-9.658628464E0,9.571290575E-3
3.903193849E1,-1.582253933E0,-9.749555588E0,2.632104978E-2
3.905220854E1,-1.570289850E0,-9.739984512E0,6.939185411E-2
3.907247854E1,-1.591825247E0,-9.704092026E0,5.982056633E-2
3.909274854E1,-1.599003673E0,-9.739984512E0,3.110669367E-2
3.911301860E1,-1.572682738E0,-9.696913719E0,-4.785645287E-3
3.913328860E1,-1.522433400E0,-9.689735413E0,-2.691925503E-2
3.915355860E1,-1.433898926E0,-9.723235130E0,-6.520441920E-2
3.917382865E1,-1.290329576E0,-9.739984512E0,-5.802594870E-2
3.919409865E1,-1.213759303E0,-9.739984512E0,-1.974078640E-2
3.921436865E1,-1.278365493E0,-9.775876999E0,2.392822690E-2
3.923463870E1,-1.366899967E0,-9.766305923E0,2.153540403E-2
3.925490870E1,-1.460219979E0,-9.718449593E0,-4.845465720E-2
3.927517870E1,-1.520040631E0,-9.675378799E0,-8.673982322E-2
3.929544875E1,-1.548754454E0,-9.725627899E0,-8.434699476E-2
3.931571875E1,-1.486541033E0,-9.737591743E0,-4.366901144E-2
3.933598875E1,-1.462612867E0,-9.706484795E0,-4.785645287E-3
3.935625875E1,-1.472184181E0,-9.744770050E0,-7.178467698E-3
3.937652880E1,-1.520040631E0,-9.759127617E0,-1.495514158E-2
3.939679880E1,-1.486541033E0,-9.749555588E0,-4.127619043E-2
3.941706880E1,-1.448255897E0,-9.699306488E0,-4.606183618E-2
3.943733880E1,-1.457827210E0,-9.728020668E0,-4.845465720E-2
3.945760886E1,-1.484148264E0,-9.739984512E0,-2.213360928E-2
3.947787886E1,-1.438684583E0,-9.728020668E0,-1.974078640E-2
3.949814886E1,-1.364507079E0,-9.730413437E0,-5.324030295E-2
3.951841891E1,-1.304686546E0,-9.725627899E0,-6.281159073E-2
3.953868891E1,-1.295115232E0,-9.749555588E0,-2.691925503E-2
3.955895891E1,-1.319043517E0,-9.775876999E0,1.196411345E-2
3.957922891E1,-1.371685624E0,-9.749555588E0,7.178467698E-3
3.959949896E1,-1.443470240E0,-9.732806206E0,-1.974078640E-2
3.961976896E1,-1.450648785E0,-9.728020668E0,-4.606183618E-2
3.964003896E1,-1.469791293E0,-9.730413437E0,-6.520441920E-2
3.966030896E1,-1.465005636E0,-9.749555588E0,-7.238288224E-2
3.968057901E1,-1.438684583E0,-9.742377281E0,-6.999006122E-2
3.970084901E1,-1.445863128E0,-9.742377281E0,-4.366901144E-2
3.972111901E1,-1.429113269E0,-9.728020668E0,-3.888336942E-2
3.974151901E1,-1.441077471E0,-9.694520950E0,-4.127619043E-2
3.976165906E1,-1.467398524E0,-9.699306488E0,-5.802594870E-2
3.978192912E1,-1.441077471E0,-9.720842361E0,-8.913264424E-2
3.980219912E1,-1.400399446E0,-9.737591743E0,-8.673982322E-2
3.982246912E1,-1.381256819E0,-9.730413437E0,-4.845465720E-2
3.984273912E1,-1.407577872E0,-9.723235130E0,-4.366901144E-2
3.986300912E1,-1.476969719E0,-9.754341125E0,-4.127619043E-2
3.988327917E1,-1.460219979E0,-9.730413437E0,-7.716853172E-2
3.990354917E1,-1.462612867E0,-9.699306488E0,-1.130608693E-1
3.992381917E1,-1.412363529E0,-9.728020668E0,-1.106680483E-1
3.994408922E1,-1.388435364E0,-9.749555588E0,-1.058823988E-1
3.996435922E1,-1.386042476E0,-9.730413437E0,-1.250249892E-1
3.998462922E1,-1.386042476E0,-9.725627899E0,-1.106680483E-1
4.000489922E1,-1.386042476E0,-9.763913155E0,-1.130608693E-1
4.002516927E1,-1.374078393E0,-9.771091461E0,-1.034895778E-1
4.004543927E1,-1.338186026E0,-9.723235130E0,-1.082752272E-1
4.006570927E1,-1.328614831E0,-9.696913719E0,-5.084748194E-2
4.008610927E1,-1.412363529E0,-9.708877563E0,-1.256231871E-2
4.010624932E1,-1.508076429E0,-9.759127617E0,-0.000000000E0
4.012651932E1,-1.558325768E0,-9.759127617E0,-2.213360928E-2
4.014678932E1,-1.520040631E0,-9.732806206E0,-5.324030295E-2
4.016705932E1,-1.395613790E0,-9.732806206E0,-6.520441920E-2
4.018745932E1,-1.378864050E0,-9.739984512E0,-6.520441920E-2
4.020759938E1,-1.417149186E0,-9.780662537E0,-4.606183618E-2
4.022786938E1,-1.486541033E0,-9.761520386E0,-4.606183618E-2
4.024813938E1,-1.479362607E0,-9.704092026E0,-8.913264424E-2
4.026840938E1,-1.469791293E0,-9.677771568E0,-1.274178028E-1
4.028880938E1,-1.508076429E0,-9.672985077E0,-1.202393398E-1
4.030894938E1,-1.529611826E0,-9.720842361E0,-9.631111473E-2
4.032921943E1,-1.532004714E0,-9.749555588E0,-7.956135273E-2
4.034948943E1,-1.472184181E0,-9.732806206E0,-9.870393574E-2
4.036975943E1,-1.445863128E0,-9.723235130E0,-1.226321608E-1
4.039015943E1,-1.405185103E0,-9.687342644E0,-1.010967568E-1
4.041029943E1,-1.409970760E0,-9.682557106E0,-9.152546525E-2
4.043056943E1,-1.465005636E0,-9.713663101E0,-7.238288224E-2
4.045083948E1,-1.539183140E0,-9.735198975E0,-4.845465720E-2
4.047110943E1,-1.534397483E0,-9.775876999E0,-3.649054468E-2
4.049137948E1,-1.453041553E0,-9.790233612E0,-2.691925503E-2
4.051164948E1,-1.407577872E0,-9.730413437E0,-6.041877344E-2
4.053191948E1,-1.398006678E0,-9.701699257E0,-5.084748194E-2
4.055218948E1,-1.409970760E0,-9.749555588E0,-4.606183618E-2
4.057245943E1,-1.429113269E0,-9.795019150E0,-1.974078640E-2
4.059272948E1,-1.395613790E0,-9.804591179E0,-2.931207791E-2
4.061299948E1,-1.290329576E0,-9.783055305E0,-3.409772366E-2
4.063326948E1,-1.266401410E0,-9.751948357E0,-3.409772366E-2
4.065353948E1,-1.376471281E0,-9.725627899E0,-2.691925503E-2
4.067380948E1,-1.577468276E0,-9.625128746E0,-4.366901144E-2
4.069407948E1,-1.723430514E0,-9.601201057E0,-1.178465188E-1
4.071434948E1,-1.601396561E0,-9.675378799E0,-2.135594189E-1
4.073461948E1,-1.342971683E0,-9.665806770E0,-2.398804724E-1
4.075488948E1,-1.189831018E0,-9.704092026E0,-1.489532143E-1
4.077515948E1,-1.252044439E0,-9.780662537E0,-9.571290575E-3
4.079542948E1,-1.352542996E0,-9.814162254E0,3.110669367E-2
4.081569948E1,-1.462612867E0,-9.792626381E0,-1.256231871E-2
4.083596948E1,-1.515254974E0,-9.687342644E0,-1.130608693E-1
4.085623948E1,-1.505683661E0,-9.629914284E0,-1.609173268E-1
4.087650948E1,-1.488933921E0,-9.670592308E0,-1.417747438E-1
4.089677948E1,-1.467398524E0,-9.708877563E0,-1.010967568E-1
4.091704948E1,-1.462612867E0,-9.754341125E0,-4.845465720E-2
4.093731948E1,-1.455434322E0,-9.797411919E0,-3.409772366E-2
4.095758948E1,-1.374078393E0,-9.761520386E0,-4.845465720E-2
4.097785948E1,-1.319043517E0,-9.742377281E0,-1.250249892E-1
4.099812948E1,-1.278365493E0,-9.716055870E0,-2.015953064E-1
4.101839948E1,-1.342971683E0,-9.680164337E0,-1.920240223E-1
4.103866948E1,-1.438684583E0,-9.742377281E0,-1.345962733E-1
4.105893948E1,-1.426720500E0,-9.670592308E0,-1.154536903E-1
4.107920948E1,-1.417149186E0,-9.728020668E0,-1.250249892E-1
4.109947948E1,-1.467398524E0,-9.790233612E0,-1.752742529E-1
4.111974948E1,-1.486541033E0,-9.708877563E0,-2.374876440E-1
4.114001948E1,-1.465005636E0,-9.668199539E0,-2.470589429E-1
