"Time (s)","Gyroscope x (rad/s)","Gyroscope y (rad/s)","Gyroscope z (rad/s)"
4.162994900E-2,-1.099884734E-1,-3.757717609E-1,3.544664681E-1
6.190093900E-2,-2.743053809E-2,-4.040012360E-1,3.273022473E-1
8.217187600E-2,-6.791055948E-2,-3.826959729E-1,1.478053331E-1
1.024428660E-1,-2.308958918E-1,-4.013380706E-1,-1.331579551E-4
1.227138550E-1,-3.842938542E-1,-4.599275887E-1,-2.090579830E-2
1.429848450E-1,-4.343612492E-1,-4.572644234E-1,-1.131842658E-2
1.632558350E-1,-4.332959950E-1,-5.030707717E-1,-2.783001214E-2
1.835268240E-1,-4.647212625E-1,-8.155924678E-1,-9.494162351E-2
2.037978140E-1,-5.313002467E-1,-1.262470603E0,-2.376869470E-1
2.240687510E-1,-5.190497041E-1,-1.285906315E0,-3.942807019E-1
2.443397930E-1,-4.498075843E-1,-1.084038854E0,-5.629918575E-1
2.646107830E-1,-6.121271253E-1,-1.130910516E0,-7.297055721E-1
2.848817720E-1,-1.070723176E0,-1.368863821E0,-7.494129539E-1
3.051527620E-1,-1.430116415E0,-1.006274700E0,-5.177181363E-1
3.254238030E-1,-1.472194314E0,7.470161468E-2,-1.993374527E-1
3.456947930E-1,-1.487107992E0,2.398174703E-1,7.430213690E-2
3.659657830E-1,-1.619733334E0,-5.920202732E-1,2.287653685E-1
3.862368240E-1,-1.446095347E0,-7.411571741E-1,4.295675755E-1
4.065078140E-1,-1.037699938E0,-7.395592928E-1,5.865607858E-1
4.267788550E-1,-5.371592045E-1,-6.729803085E-1,6.898913383E-1
4.471788550E-1,-3.275685757E-2,-5.392897129E-1,7.388935089E-1
4.673208870E-1,3.974764943E-1,-3.150517344E-1,7.277082205E-1
4.875919280E-1,5.470128655E-1,-3.518033028E-1,5.291697383E-1
5.078629180E-1,5.013396740E-1,-4.886896908E-1,2.442116886E-1
5.281339080E-1,4.390217662E-1,-4.141212404E-1,7.004108280E-2
5.484050010E-1,4.059986174E-1,-2.543317080E-1,-2.623211779E-2
5.686760430E-1,3.665838540E-1,-1.404816359E-1,-1.087900475E-1
5.889470850E-1,2.717753947E-1,-6.538055837E-2,-1.647163928E-1
6.092181260E-1,5.552686751E-2,7.044056058E-2,-2.744385600E-1
6.294891680E-1,-1.446095407E-1,3.712443709E-1,-2.280995846E-1
6.497602100E-1,-2.388853729E-1,5.299686790E-1,-1.684448123E-1
6.700313030E-1,-1.829590350E-1,5.166528821E-1,-1.231711060E-1
6.903023450E-1,-8.761793375E-2,3.648527861E-1,-1.284974217E-1
7.105733870E-1,-3.115896136E-2,2.605901062E-1,-8.855003864E-2
7.309733870E-1,-9.321057238E-3,1.529984921E-1,9.986846708E-3
7.511155220E-1,2.410159074E-2,-3.595264861E-3,6.844318658E-2
7.713866160E-1,8.961530030E-2,-2.170474641E-2,4.141212255E-2
7.916576580E-1,1.103879437E-1,5.765739456E-2,4.447475821E-2
8.119287510E-1,1.984053478E-2,-6.964161247E-2,2.436790615E-2
8.321997930E-1,-1.371526867E-1,-2.537990510E-1,-6.191844866E-2
8.524708870E-1,-2.324937880E-1,-1.932121962E-1,-1.247690022E-1
8.727419800E-1,-2.798980176E-1,-2.277000993E-2,-1.556616426E-1
8.930130740E-1,-3.565970063E-1,7.736477256E-2,-1.876195520E-1
9.132841160E-1,-5.121254921E-1,8.535424620E-2,-2.280995846E-1
9.335552100E-1,-6.723145247E-1,1.173121557E-1,-2.637858987E-1
9.538263030E-1,-7.442198396E-1,1.993374527E-1,-3.063964546E-1
9.740973970E-1,-6.115944982E-1,-2.530001104E-3,-3.426154256E-1
9.943684910E-1,1.037034154E0,-1.468465924E0,-5.182507634E-1
1.014639585E0,1.689241767E0,-9.434241056E-1,-5.091960430E-1
1.034910678E0,1.192429543E0,-1.443964839E0,-3.394196332E-1
1.055181772E0,1.102947354E0,-1.493499637E0,-3.665838540E-1
1.075452866E0,8.708530068E-1,-1.266198993E0,-5.534044504E-1
1.095723960E0,5.050681233E-1,-8.118640780E-1,-8.064045906E-1
1.115995053E0,1.620532274E-1,-3.773696423E-1,-7.259771824E-1
1.136266147E0,7.949529588E-2,-7.550056279E-2,-5.411539078E-1
1.156537241E0,1.721732318E-1,3.102580272E-2,-3.617901504E-1
1.176937241E0,2.765690684E-1,-2.063948289E-2,-2.930806577E-1
1.197079480E0,3.218427896E-1,3.328948980E-3,-2.366216928E-1
1.217350574E0,3.143859208E-1,7.470161468E-2,-2.494048476E-1
1.237621668E0,3.282343447E-1,1.151816323E-1,-2.893522382E-1
1.257892762E0,4.166512489E-1,9.121319652E-2,-3.000048697E-1
1.278292762E0,6.215813160E-1,-8.135951310E-2,-2.568616867E-1
1.298435001E0,8.388951421E-1,-2.772348523E-1,-2.254364192E-1
1.318706095E0,1.006141543E0,-5.153213143E-1,-2.158490419E-1
1.338977189E0,1.045023680E0,-6.042708158E-1,-2.392848432E-1
1.359248283E0,1.063665748E0,-5.297023654E-1,-2.243711501E-1
1.379648283E0,1.164732575E0,-6.777740121E-1,-1.753690243E-1
1.399790522E0,1.171124220E0,-7.486140132E-1,-1.130511016E-1
1.420061616E0,1.040229917E0,-6.287718415E-1,1.691105962E-2
1.440332710E0,9.321056604E-1,-5.158539414E-1,1.275653243E-1
1.460603855E0,9.502151608E-1,-5.275717974E-1,2.181127369E-1
1.480796355E0,9.928256869E-1,-5.664539337E-1,2.314285189E-1
1.501145991E0,1.008804679E0,-4.711128473E-1,1.584579647E-1
1.521417085E0,1.197223186E0,-3.416832983E-1,2.862896025E-2
1.541688230E0,1.426254869E0,-3.059969842E-1,-3.155843541E-2
1.561959376E0,1.420395851E0,-3.278348744E-1,1.584579609E-2
1.582191147E0,1.328783274E0,-4.929507375E-1,-8.122635074E-3
1.602501512E0,1.323989511E0,-4.114580750E-1,-2.430132627E-1
1.622772710E0,1.364469528E0,-2.378201038E-1,-5.028044581E-1
1.643043803E0,1.419863224E0,-7.976161689E-2,-6.269076467E-1
1.663314897E0,1.418797970E0,-7.763108611E-2,-6.583329439E-1
1.683714897E0,1.310141087E0,-3.182475269E-2,-7.211834788E-1
1.703857189E0,1.094425201E0,1.141163707E-1,-8.388951421E-1
1.724128335E0,8.026761413E-1,2.755038142E-1,-8.937562108E-1
1.744399428E0,5.374255180E-1,3.099917173E-1,-7.611308694E-1
1.764670522E0,3.900196552E-1,4.404865205E-1,-4.645881057E-1
1.784941668E0,2.265016884E-1,5.592634082E-1,-5.773729086E-1
1.805212762E0,-5.512739345E-2,2.270343155E-1,-1.023718357E0
1.825483908E0,-3.635212183E-1,1.343563795E-1,-1.452353835E0
1.845755001E0,-5.668534040E-1,4.487423226E-2,-1.759549260E0
1.866026095E0,-7.719166875E-1,-3.129211813E-2,-1.825595617E0
1.886297241E0,-7.681882381E-1,-7.230477035E-2,-1.787778735E0
1.906568335E0,-5.641902685E-1,-2.330264151E-1,-1.543433905E0
1.926839428E0,-5.998765826E-1,7.949529588E-2,-1.274987459E0
1.947110574E0,-5.360939503E-1,5.539370775E-1,-1.134372592E0
1.967381668E0,3.795001656E-2,1.296292663E0,-1.441168547E0
1.987652762E0,4.560659826E-1,1.459144831E0,-2.423607826E0
2.007923908E0,8.735162020E-1,1.517734408E0,-3.696331739E0
2.028195001E0,1.206810594E0,1.759549260E0,-4.568516254E0
2.048466095E0,1.648229122E0,1.843172431E0,-5.038697243E0
2.068737241E0,1.999233484E0,1.830389261E0,-5.190496922E0
2.089008335E0,2.131858826E0,1.747831345E0,-5.230977058E0
2.109279428E0,2.062616825E0,1.387772202E0,-5.302349567E0
2.129550522E0,1.918273449E0,8.483493328E-1,-5.337370396E0
2.149821668E0,1.865010262E0,5.017392039E-1,-5.336305141E0
2.170092762E0,1.954492450E0,3.824296594E-1,-5.399688244E0
2.190363855E0,2.022136688E0,4.063980877E-1,-5.326318264E0
2.210634949E0,1.968340874E0,3.845601678E-1,-5.040827751E0
2.230906043E0,1.891109228E0,5.012065172E-1,-4.621779442E0
2.251177189E0,1.797366023E0,1.535311192E-1,-4.219243050E0
2.271448283E0,1.564206481E0,-4.316980839E-1,-3.754255295E0
2.291719376E0,1.182309508E0,-5.637907982E-1,-3.331478834E0
2.311990470E0,7.637940049E-1,3.760380745E-1,-3.003510952E0
2.332261564E0,4.709796906E-1,1.233442187E0,-2.788327694E0
2.352532658E0,3.783017397E-1,1.446894288E0,-2.579668999E0
2.372803751E0,4.150533378E-1,1.488439679E0,-2.326136351E0
2.393074845E0,5.581981540E-1,1.527854323E0,-2.109887838E0
2.413345939E0,7.094655633E-1,1.597629189E0,-1.916142941E0
2.433617033E0,7.771098018E-1,1.592835426E0,-1.638641834E0
2.453888126E0,7.446193099E-1,1.647163868E0,-1.169526339E0
2.474288126E0,6.578003168E-1,1.691372395E0,-7.898929715E-1
2.494430314E0,5.619265437E-1,1.780854464E0,-6.375603080E-1
2.514701408E0,4.901544452E-1,1.767538667E0,-6.578003168E-1
2.534972501E0,4.464786351E-1,1.599759698E0,-6.274402738E-1
2.555243595E0,4.390217662E-1,1.339435816E0,-4.704470634E-1
2.575514689E0,5.018723607E-1,1.165797949E0,-3.340933025E-1
2.595785783E0,6.567350626E-1,9.255809188E-1,-3.085269928E-1
2.616056824E0,8.096003532E-1,7.313035131E-1,-3.032006621E-1
2.636327970E0,8.197203875E-1,6.050697565E-1,-1.998700947E-1
2.656599064E0,6.705834866E-1,3.845601678E-1,1.051947847E-2
2.676999064E0,4.491417706E-1,1.231711060E-1,1.909485012E-1
2.697062293E0,2.174469382E-1,-1.213068962E-1,2.798980176E-1
2.717412085E0,8.655266836E-3,-2.262353599E-1,2.788327634E-1
2.737683126E0,-1.744369268E-1,-1.830921918E-1,2.266348451E-1
2.757954272E0,-3.336938322E-1,-1.415469050E-1,1.744369268E-1
2.778354272E0,-4.279696643E-1,-1.740374416E-1,1.078579426E-1
2.798496512E0,-4.833633900E-1,-2.564622164E-1,3.448791057E-2
2.818767605E0,-5.424855351E-1,-2.522011697E-1,-2.143843099E-2
2.839038699E0,-6.195839643E-1,-1.900164038E-1,-7.843003422E-2
2.859309845E0,-6.536723971E-1,-2.916159295E-2,-9.760478139E-2
2.879709845E0,-6.142576337E-1,1.131842658E-2,-7.150582224E-2
2.899852033E0,-5.440834165E-1,-1.601890177E-1,2.596580051E-2
2.920123126E0,-4.833633900E-1,-2.506032586E-1,1.888179779E-1
2.940394220E0,-4.348938763E-1,8.269108832E-2,2.484727502E-1
2.960665366E0,-3.901528120E-1,3.190464675E-1,1.403484792E-1
2.981065366E0,-3.736412227E-1,5.320991874E-1,1.302284747E-1
3.001207501E0,-4.055991173E-1,4.841623306E-1,2.500706315E-1
3.021478595E0,-5.057339072E-1,4.063980877E-1,4.210454524E-1
3.041749689E0,-6.909566522E-1,2.962764502E-1,5.520728827E-1
3.062020783E0,-9.141293764E-1,1.439437568E-1,5.765739679E-1
3.082291876E0,-1.180844784E0,1.913479865E-1,4.631233811E-1
3.102562970E0,-1.501489043E0,4.181159735E-1,2.431464195E-1
3.122834064E0,-1.847566605E0,4.846949577E-1,1.531316489E-1
3.143105158E0,-2.209623098E0,3.281011879E-1,3.699128032E-1
3.163376251E0,-2.521745443E0,9.867004305E-2,6.787061095E-1
3.183647293E0,-2.733599663E0,1.877527125E-2,8.092008829E-1
3.203918439E0,-2.905639648E0,-1.691105962E-2,8.123967052E-1
3.224189533E0,-3.004709244E0,-5.526055023E-2,7.841671705E-1
3.244460626E0,-2.957304955E0,-8.402267098E-2,7.095987201E-1
3.264731720E0,-2.811896563E0,-1.074584723E-1,5.616602302E-1
3.285002814E0,-2.658099174E0,-1.005342528E-1,3.571296334E-1
3.305273960E0,-2.522278070E0,-1.261005849E-1,5.352949724E-2
3.325545001E0,-2.363553762E0,-1.767006069E-1,-4.320975542E-1
3.345816147E0,-2.201633692E0,-1.223721579E-1,-9.688572884E-1
3.366087241E0,-2.025998354E0,-4.727107286E-2,-1.276052713E0
3.386358387E0,-1.864078164E0,-5.845634267E-2,-1.241431594E0
3.406629480E0,-1.790575027E0,-2.273006290E-1,-9.491499066E-1
3.426900574E0,-1.720800281E0,-4.572644234E-1,-5.022718310E-1
3.447171720E0,-1.263402700E0,-6.932203174E-1,3.395527974E-2
3.467442814E0,-6.941524148E-1,-6.085318327E-1,1.893506050E-1
3.487713908E0,-5.716471076E-1,-2.708432674E-1,-5.459476262E-3
3.507985053E0,-6.920219064E-1,-1.797632314E-2,-3.047985733E-1
3.528256199E0,-7.207840085E-1,1.860216707E-1,-4.470112622E-1
3.548527345E0,-7.026745081E-1,1.984053478E-2,-2.552638054E-1
3.568798439E0,-6.840324402E-1,-2.468748540E-1,-1.242363751E-1
3.589069533E0,-4.508728385E-1,-3.906854391E-1,-1.583248079E-1
3.609340730E0,-1.195758432E-1,-4.876244366E-1,-3.937480748E-1
3.629611876E0,9.014793485E-2,-4.705802202E-1,-8.090677261E-1
3.649882970E0,6.564687192E-2,-3.784348965E-1,-1.215865254E0
3.670154116E0,-4.340949282E-2,-4.301002026E-1,-1.351153731E0
3.690425262E0,-1.680453420E-1,-5.542033911E-1,-1.277117968E0
3.710696408E0,-3.683148921E-1,-6.532729268E-1,-1.145557880E0
3.731096408E0,-5.492765903E-1,-5.765739679E-1,-1.156743169E0
3.751238699E0,-5.716471076E-1,-3.518033028E-1,-1.240366340E0
3.771509845E0,-5.982787013E-1,-2.836264372E-1,-1.209473729E0
3.791780991E0,-6.589987278E-1,-3.352917433E-1,-1.072587371E0
3.812052189E0,-7.026745081E-1,-4.263717830E-1,-9.837709665E-1
3.832323335E0,-6.611292362E-1,-4.918854833E-1,-1.157275796E0
3.852594480E0,-3.635212183E-1,-3.720433414E-1,-1.845835567E0
3.872865626E0,-4.660528526E-2,3.328948915E-1,-3.109504461E0
3.893136824E0,1.972069293E-1,1.021454692E0,-4.228830338E0
3.913407970E0,4.848281145E-1,1.126383185E0,-4.440152168E0
3.933679116E0,6.966823936E-1,1.016128302E0,-3.928958654E0
3.953950314E0,6.668550372E-1,6.785729527E-1,-3.489137888E0
3.974221460E0,6.700508595E-1,1.727058738E-1,-3.531748533E0
3.994492605E0,7.840340137E-1,-2.596580088E-1,-3.728156328E0
4.014763803E0,6.737792492E-1,-1.267264247E0,-3.854922771E0
4.035034949E0,3.324954212E-1,-1.651158690E0,-3.763310194E0
4.055306095E0,-2.804306448E-1,-3.347590864E-1,-2.735597134E0
4.075577241E0,-9.807083607E-1,6.162550449E-1,-1.724395514E0
4.095848491E0,-1.117461562E0,-3.480748832E-1,-1.749429226E0
4.116119637E0,-1.270859480E0,-1.358743787E0,-1.488040090E0
4.136390835E0,-1.496162772E0,-1.315068007E0,-2.022669315E0
4.156661980E0,-6.520745158E-1,-3.790740728E0,-2.683931828E0
4.177061980E0,1.189100519E-1,-7.121021271E0,-1.986983061E0
4.197204376E0,-2.122537792E-1,-3.093658686E0,-1.834650278E0
4.217475522E0,7.233139873E-1,2.930540323E0,-9.779120088E-1
4.237746720E0,1.233442187E0,4.032289028E0,6.190513372E-1
4.258017918E0,7.265098095E-1,2.920420170E0,1.141430020E0
4.278417918E0,-1.126516312E-1,1.068326235E0,7.426218987E-1
4.298560314E0,-5.211802125E-1,-5.909550190E-1,2.788327634E-1
4.318831460E0,-6.701840162E-1,-1.562741756E0,-7.363634557E-2
4.339102605E0,-7.404913902E-1,-1.783783913E0,-3.266364634E-1
4.359373855E0,-7.191861272E-1,-1.415735364E0,-4.550007284E-1
4.379773855E0,-3.970770240E-1,-1.809616536E-1,-2.659164369E-1
4.399916251E0,1.870869249E-1,1.215332627E0,1.621863842E-1
4.420187449E0,4.842954874E-1,1.622662783E0,2.974748611E-1
4.440458647E0,4.496744275E-1,1.192429543E0,1.504684836E-1
4.460729845E0,2.062616795E-1,3.339601457E-1,-2.796316985E-3
4.481001043E0,-1.217063740E-1,-3.613906801E-1,-9.867004305E-2
4.501272241E0,-3.097254038E-1,-5.318328738E-1,-9.494162351E-2
4.521543439E0,-2.335590571E-1,-2.553969622E-1,-3.795001656E-2
4.541814585E0,-3.914843872E-2,1.822932363E-1,5.725792143E-3
4.562085835E0,1.087900475E-1,4.974781275E-1,3.289001435E-2
4.582357033E0,1.263668984E-1,5.246423483E-1,7.270424068E-2
4.602628230E0,2.676474862E-2,2.520680130E-1,6.524740160E-2
4.622899428E0,-9.187898785E-2,-5.206476152E-2,1.744369231E-2
4.643170626E0,-8.229161799E-2,-2.166479975E-1,1.464737463E-3
4.663441824E0,-2.210422046E-2,-2.171806246E-1,1.464737463E-3
4.683713022E0,3.861580743E-3,-2.006690353E-1,8.388951421E-3
4.703984272E0,-2.370211668E-2,-2.022669315E-1,6.791055668E-3
4.724255470E0,-6.737792492E-2,-2.420811653E-1,4.127896391E-3
4.744526668E0,-9.134636074E-2,-2.463422120E-1,-2.796316985E-3
4.764797866E0,-9.134636074E-2,-1.900164038E-1,2.063948289E-2
4.785069064E0,-8.442214131E-2,-1.250353158E-1,5.033370852E-2
4.805340262E0,-7.163897902E-2,-1.133174226E-1,6.631266326E-2
4.825611460E0,-5.992107838E-2,-1.953427196E-1,6.205160543E-2
4.845882710E0,-7.590003312E-2,-3.459443748E-1,4.660528526E-2
4.866153908E0,-1.227716357E-1,-5.169191957E-1,4.447475821E-2
4.886425105E0,-1.515337527E-1,-6.362286806E-1,4.247738793E-2
4.906696303E0,-1.478053331E-1,-6.783066392E-1,3.555317223E-2
4.926967501E0,-1.190432087E-1,-6.633929610E-1,4.087949172E-2
4.947238699E0,-9.986846894E-2,-6.202497482E-1,4.873581231E-2
4.967509949E0,-9.986846894E-2,-5.898897648E-1,4.141212255E-2
4.987781147E0,-1.153147891E-1,-5.808349848E-1,1.797632314E-2
5.008052397E0,-1.398158520E-1,-5.829655528E-1,-2.263685223E-3
5.028323595E0,-1.701758653E-1,-5.898897648E-1,-1.664474420E-2
5.048594793E0,-2.042642981E-1,-6.026729345E-1,-1.824264042E-2
5.068865991E0,-2.399506420E-1,-5.962813497E-1,-2.197106183E-2
5.089137189E0,-2.537990510E-1,-5.941507816E-1,-2.889527567E-2
5.109408439E0,-2.484727502E-1,-6.010749936E-1,-2.889527567E-2
5.129679637E0,-2.378201038E-1,-6.037381887E-1,-2.143843099E-2
5.149950835E0,-2.303632647E-1,-6.053360701E-1,-1.185105834E-2
5.170222033E0,-2.335590571E-1,-5.973466039E-1,1.997369342E-3
5.190622033E0,-2.474074811E-1,-5.861613154E-1,8.388951421E-3
5.210764480E0,-2.410158962E-1,-6.010749936E-1,3.994738800E-4
5.231035678E0,-2.031990439E-1,-6.090644598E-1,-1.611211337E-2
5.251306876E0,-1.446095407E-1,-5.962813497E-1,-4.647212476E-2
5.271578126E0,-7.909582555E-2,-5.861613154E-1,-6.937529147E-2
5.291849324E0,-3.275685757E-2,-5.627255440E-1,-6.032055244E-2
5.312120522E0,-1.624527015E-2,-5.169191957E-1,-3.049317189E-2
5.332391720E0,-1.784316637E-2,-4.902876019E-1,-2.303632535E-2
5.352662918E0,-3.701791167E-2,-4.689823091E-1,-3.741738573E-2
5.372934168E0,-5.459476262E-2,-3.704454303E-1,-4.061317816E-2
5.393205366E0,-2.583264373E-2,-2.193111479E-1,-3.262370080E-2
5.413476512E0,3.635212034E-2,-6.484792382E-2,-2.250369452E-2
5.433747762E0,8.641951531E-2,5.499423668E-2,-3.102580272E-2
5.454018960E0,8.482161909E-2,1.077247858E-1,-3.901528195E-2
5.474290158E0,5.073318258E-2,1.439437568E-1,-4.167843983E-2
5.494561355E0,2.143843099E-2,1.780321896E-1,-3.209106624E-2
5.514832553E0,4.926844500E-3,2.419480085E-1,-1.984053478E-2
5.535103803E0,1.185105834E-2,3.515369892E-1,-2.569948509E-2
5.555375001E0,6.458161026E-2,4.490086138E-1,-5.872265995E-2
5.575646199E0,1.189100519E-1,4.431496859E-1,-9.600688517E-2
5.595917397E0,1.284974217E-1,3.542001545E-1,-1.125184745E-1
5.616188543E0,9.014793485E-2,2.275669426E-1,-1.231711060E-1
5.636459793E0,2.623211779E-2,4.966791719E-2,-1.263668984E-1
5.656730939E0,-5.086633936E-2,-2.287653685E-1,-1.039963663E-1
5.677130939E0,-1.579253376E-1,-4.881570637E-1,-5.925529078E-2
5.697273335E0,-2.287653685E-1,-5.803023577E-1,-1.771000773E-2
5.717544533E0,-1.978727281E-1,-5.403549671E-1,1.531316526E-2
5.737815730E0,-1.147821546E-1,-4.178496599E-1,1.850895584E-2
5.758086928E0,-5.459476262E-2,-3.070622385E-1,-3.848264739E-2
5.778486928E0,1.731053460E-3,-2.506032586E-1,-1.093226820E-1
5.798629324E0,4.860265180E-2,-1.868206114E-1,-1.444763839E-1
5.818900470E0,4.167843983E-2,-1.474058628E-1,-1.029310971E-1
5.839171668E0,2.623211779E-2,-1.223721579E-1,-4.274370521E-2
5.859442866E0,5.233107507E-2,-4.301001877E-2,-2.090579830E-2
5.879842866E0,1.545963883E-1,1.268995255E-1,2.756369673E-2
5.899985210E0,2.217079997E-1,1.870869249E-1,7.696529478E-2
5.920256408E0,1.860216707E-1,1.886848211E-1,6.684529036E-2
5.940527605E0,1.593900770E-1,1.966743022E-1,3.821633384E-2
5.960798751E0,1.806953400E-1,1.599227041E-1,1.424790081E-2
5.981198751E0,1.556616426E-1,1.103879437E-1,-1.504684892E-2
6.001341147E0,5.925529078E-2,7.470161468E-2,-1.103879437E-1
6.021612293E0,2.263685223E-3,5.233107507E-2,-1.727058738E-1
6.041883491E0,2.836264484E-2,2.254364192E-1,-1.466069072E-1
6.062154637E0,1.018658355E-1,3.941475451E-1,-7.470161468E-2
6.082425835E0,1.514005959E-1,3.898864985E-1,-6.524739787E-3
6.102696980E0,1.498026997E-1,3.462106884E-1,1.904158667E-2
6.122968178E0,1.439437568E-1,2.552638054E-1,-2.796316985E-3
6.143239324E0,1.290300637E-1,1.146489978E-1,-4.114580899E-2
6.163510522E0,9.760478139E-2,3.368896246E-2,-4.860265180E-2
6.183910522E0,8.428898454E-2,2.356895804E-2,-2.143843099E-2
6.204052762E0,8.641951531E-2,9.600688517E-2,1.371526904E-2
6.224324012E0,1.034637317E-1,2.307627350E-1,2.916159295E-2
6.244595158E0,1.322258562E-1,3.520696461E-1,2.063948289E-2
6.264866303E0,1.609879732E-1,3.893538713E-1,5.725792143E-3
6.285137501E0,1.545963883E-1,2.978743315E-1,-7.590003312E-3
6.305408647E0,9.867004305E-2,8.428898454E-2,-2.356895804E-2
6.325679793E0,1.877527125E-2,-1.229047924E-1,-3.528685868E-2
6.345950939E0,-5.299686641E-2,-1.729721874E-1,-2.836264484E-2
6.366222137E0,-6.950845569E-2,-6.325002760E-2,-2.250369452E-2
6.386493283E0,-3.435475379E-2,1.185105834E-2,-2.783001214E-2
6.406764428E0,-1.304947957E-2,-2.277000993E-2,-2.676474862E-2
6.427035574E0,-4.660528619E-3,-1.319595277E-1,-1.331579551E-4
6.447306720E0,1.451421715E-2,-2.607232630E-1,2.436790615E-2
6.467577866E0,3.315633163E-2,-3.635212183E-1,2.596580051E-2
6.487849012E0,2.410159074E-2,-3.917506933E-1,1.105211023E-2
6.508120158E0,-3.595264861E-3,-3.214432895E-1,1.464737463E-3
6.528391303E0,-1.411474310E-2,-2.113216817E-1,-1.185105834E-2
6.548662449E0,-2.370211668E-2,-1.372858584E-1,-2.143843099E-2
6.568933595E0,-4.820318148E-2,-1.175784767E-1,-2.676474862E-2
6.589204741E0,-5.193160102E-2,-1.202416345E-1,-2.676474862E-2
6.609475887E0,-3.169159219E-2,-1.143826842E-1,-1.131842658E-2
6.629747033E0,-2.370211668E-2,-7.123950869E-2,4.660528619E-3
6.650018178E0,-2.796317078E-2,-1.904158667E-2,8.921583183E-3
6.670289324E0,-2.210422046E-2,2.037316747E-2,1.584579609E-2
6.690560418E0,-2.530001104E-3,3.315633163E-2,1.691105962E-2
6.710831564E0,1.344895363E-2,9.187898599E-3,3.595264861E-3
6.731231564E0,1.664474420E-2,-5.046686530E-2,-1.877527125E-2
6.751373855E0,4.394212738E-3,-9.041424841E-2,-3.741738573E-2
6.771644949E0,-9.853689000E-3,-7.816372067E-2,-4.380896688E-2
6.791916095E0,-1.145158429E-2,-2.117211558E-2,-2.996053919E-2
6.812187189E0,2.263685223E-3,3.155843541E-2,-1.398158539E-2
6.832458335E0,1.185105834E-2,3.209106624E-2,-6.524739787E-3
6.852729480E0,-1.464737463E-3,2.796316985E-3,1.371526904E-2
6.873000574E0,-1.624527015E-2,-1.265000552E-2,1.478053257E-2
6.893271668E0,-9.321057238E-3,1.198421582E-3,1.531316526E-2
6.913542814E0,3.328948980E-3,4.700475931E-2,1.904158667E-2
6.933813960E0,7.590003312E-3,8.162582666E-2,1.744369231E-2
6.954085053E0,1.025316212E-2,6.671213359E-2,7.323687430E-3
6.974485053E0,8.655266836E-3,1.078579482E-2,-1.238369010E-2
6.994627293E0,-2.530001104E-3,-3.502054140E-2,-2.250369452E-2
7.014898387E0,-9.321057238E-3,-3.661843762E-2,-1.398158539E-2
7.035169480E0,-9.321057005E-4,5.459476262E-3,-2.263685223E-3
7.055440626E0,1.451421715E-2,4.753739014E-2,4.660528619E-3
7.075711720E0,1.451421715E-2,5.073318258E-2,7.323687430E-3
7.095982814E0,3.328948980E-3,1.451421715E-2,9.321057005E-4
7.116253908E0,-9.321057238E-3,-1.904158667E-2,-3.328948980E-3
7.136525053E0,-1.411474310E-2,-2.490053698E-2,-9.720530361E-3
7.156796043E0,-6.258423906E-3,-5.725792143E-3,-5.992108025E-3
7.177196043E0,6.524739787E-3,2.836264484E-2,-6.657897611E-4
7.197338335E0,1.611211337E-2,4.860265180E-2,1.997369342E-3
7.217609428E0,1.344895363E-2,3.209106624E-2,-1.731053460E-3
7.237880522E0,7.590003312E-3,-9.321057005E-4,-7.057371549E-3
7.258151616E0,3.861580743E-3,-1.904158667E-2,-4.926844500E-3
7.278551616E0,6.657897611E-4,1.731053460E-3,-2.263685223E-3
7.298693803E0,4.394212738E-3,2.942790836E-2,5.193160381E-3
7.318964897E0,1.771000773E-2,4.114580899E-2,1.051947847E-2
7.339235991E0,2.623211779E-2,5.499423668E-2,1.265000552E-2
7.359507085E0,2.676474862E-2,8.269108832E-2,1.424790081E-2
7.379907085E0,2.676474862E-2,1.242363751E-1,1.424790081E-2
7.400049220E0,3.262370080E-2,1.535311192E-1,1.478053257E-2
7.420320314E0,3.741738573E-2,1.364869028E-1,6.258423906E-3
7.440591408E0,2.356895804E-2,8.109319210E-2,-1.731053460E-3
7.460862449E0,3.328948980E-3,3.901528195E-2,-4.394212738E-3
7.481133543E0,1.198421582E-3,3.635212034E-2,-5.992108025E-3
7.501404637E0,3.328948980E-3,4.807002097E-2,-3.861580743E-3
7.521675678E0,-2.530001104E-3,4.807002097E-2,3.994738800E-4
7.541946772E0,-1.091895252E-2,4.114580899E-2,6.258423906E-3
7.562217814E0,-7.856319658E-3,4.061317816E-2,6.791055668E-3
7.582488908E0,2.263685223E-3,3.102580272E-2,8.921583183E-3
7.602759949E0,4.926844500E-3,8.655266836E-3,2.530001104E-3
7.623031043E0,2.796316985E-3,-1.478053257E-2,-9.720530361E-3
7.643302085E0,-5.725792143E-3,-2.543316968E-2,-1.398158539E-2
7.663573178E0,-1.890842989E-2,-1.371526904E-2,-1.344895363E-2
7.683844220E0,-2.263685316E-2,1.238369010E-2,-5.459476262E-3
7.704115262E0,-2.157158963E-2,2.996053919E-2,-6.657897611E-4
7.724386355E0,-2.370211668E-2,2.676474862E-2,-5.992108025E-3
7.744657397E0,-2.476738021E-2,-3.994738800E-4,-1.664474420E-2
7.764928439E0,-2.743053809E-2,-2.809632942E-2,-2.623211779E-2
7.785199533E0,-2.796317078E-2,-3.342264518E-2,-2.463422157E-2
7.805470574E0,-2.263685316E-2,-1.318263728E-2,-1.557948068E-2
7.825741616E0,-1.251684781E-2,1.664474420E-2,-2.796316985E-3
7.846012658E0,-4.660528619E-3,2.463422157E-2,8.388951421E-3
7.866283699E0,1.331579551E-4,1.557948068E-2,1.158474199E-2
7.886554793E0,4.926844500E-3,7.057371549E-3,1.265000552E-2
7.906825835E0,1.185105834E-2,1.025316212E-2,1.371526904E-2
7.927096876E0,1.984053478E-2,2.303632535E-2,1.265000552E-2
7.947367918E0,2.783001214E-2,2.889527567E-2,1.478053257E-2
7.967638960E0,3.262370080E-2,2.942790836E-2,1.265000552E-2
7.987910001E0,2.996053919E-2,2.516685426E-2,1.105211023E-2
8.008181043E0,2.889527567E-2,2.250369452E-2,7.856319658E-3
8.028452085E0,2.516685426E-2,2.463422157E-2,1.105211023E-2
8.048723126E0,2.516685426E-2,3.049317189E-2,1.904158667E-2
8.068994168E0,2.836264484E-2,4.327633604E-2,2.170474641E-2
8.089265210E0,3.315633163E-2,5.126581341E-2,1.637842879E-2
8.109536199E0,2.783001214E-2,4.487423226E-2,9.454214945E-3
8.129807241E0,1.398158539E-2,1.824264042E-2,1.997369342E-3
8.150078283E0,2.796316985E-3,-1.211737376E-2,-1.198421582E-3
8.170349324E0,-1.997369342E-3,-1.318263728E-2,-6.657897611E-4
8.190620314E0,2.263685223E-3,1.557948068E-2,2.530001104E-3
8.210891355E0,1.185105834E-2,4.540686309E-2,-2.796316985E-3
8.231162397E0,1.398158539E-2,4.647212476E-2,-1.504684892E-2
8.251433387E0,6.524739787E-3,2.623211779E-2,-2.569948509E-2
8.271704428E0,1.331579551E-4,7.590003312E-3,-2.942790836E-2
8.291975418E0,1.198421582E-3,1.611211337E-2,-2.783001214E-2
8.312246460E0,4.926844500E-3,4.061317816E-2,-2.143843099E-2
8.332517501E0,9.720530361E-3,5.233107507E-2,-1.451421715E-2
8.352788491E0,4.926844500E-3,4.008054361E-2,-1.398158539E-2
8.373059533E0,-4.127896391E-3,2.463422157E-2,-1.398158539E-2
8.393330522E0,-6.791055668E-3,3.581948951E-2,-1.451421715E-2
8.413601564E0,-9.321057005E-4,6.564687192E-2,-1.771000773E-2
8.433872553E0,9.720530361E-3,9.387636185E-2,-2.303632535E-2
8.454143595E0,1.984053478E-2,9.973530471E-2,-2.463422157E-2
8.474414585E0,2.303632535E-2,8.482161909E-2,-2.356895804E-2
8.494685574E0,1.451421715E-2,6.351634115E-2,-2.090579830E-2
8.514956616E0,1.025316212E-2,6.511423737E-2,-1.078579482E-2
8.535227605E0,1.451421715E-2,9.440898895E-2,9.321057005E-4
8.555498595E0,2.037316747E-2,1.210405827E-1,1.158474199E-2
8.575769637E0,2.623211779E-2,1.205079481E-1,1.371526904E-2
8.596040626E0,2.729738131E-2,8.002793044E-2,9.454214945E-3
8.616311616E0,1.824264042E-2,2.410159074E-2,-6.657897611E-4
8.636582605E0,8.655266836E-3,-2.223737910E-2,-9.720530361E-3
8.656853647E0,3.328948980E-3,-2.063948289E-2,-9.720530361E-3
8.677253647E0,8.122635074E-3,1.824264042E-2,3.595264861E-3
8.697395626E0,2.143843099E-2,6.617950648E-2,1.584579609E-2
8.717666616E0,3.209106624E-2,8.855003864E-2,1.051947847E-2
8.737937658E0,3.581948951E-2,9.174583107E-2,-1.198421582E-3
8.758208647E0,3.368896246E-2,9.494162351E-2,-3.861580743E-3
8.778608647E0,2.676474862E-2,1.157142594E-1,-3.861580743E-3
8.798750626E0,2.090579830E-2,1.471395344E-1,-5.459476262E-3
8.819021616E0,1.291632187E-2,1.748363972E-1,-3.328948980E-3
8.839292605E0,1.078579482E-2,1.870869249E-1,1.997369342E-3
8.859563595E0,1.984053478E-2,1.673795432E-1,3.062632866E-3
8.879963595E0,3.155843541E-2,1.391500682E-1,-3.328948980E-3
8.900105574E0,3.368896246E-2,1.205079481E-1,-1.185105834E-2
8.920376564E0,3.049317189E-2,1.077247858E-1,-9.720530361E-3
8.940647501E0,2.516685426E-2,8.801741153E-2,9.321057005E-4
8.960918491E0,2.197106183E-2,6.777740270E-2,1.318263728E-2
8.981318491E0,2.303632535E-2,4.966791719E-2,1.424790081E-2
9.001460470E0,1.611211337E-2,3.688475490E-2,1.265000552E-2
9.021731460E0,7.590003312E-3,1.824264042E-2,1.371526904E-2
9.042002397E0,-9.321057005E-4,2.783001214E-2,2.530001104E-3
9.062273335E0,-3.994738800E-4,6.617950648E-2,-1.504684892E-2
9.082544376E0,-6.258423906E-3,1.157142594E-1,-3.262370080E-2
9.102815314E0,-1.571263932E-2,1.434111148E-1,-3.688475490E-2
9.123086303E0,-1.091895252E-2,1.418132186E-1,-2.889527567E-2
9.143357293E0,5.459476262E-3,1.253016293E-1,-2.303632535E-2
9.163628230E0,2.623211779E-2,1.183774248E-1,-2.783001214E-2
9.183899220E0,4.593949392E-2,1.524658650E-1,-3.901528195E-2
9.204170210E0,6.191844866E-2,2.275669426E-1,-5.712476373E-2
9.224441147E0,6.298371404E-2,3.079943359E-1,-8.269108832E-2
9.244712137E0,3.422159329E-2,3.021354079E-1,-9.813741595E-2
9.264983074E0,-2.103895694E-2,1.817606091E-1,-7.363634557E-2
9.285254012E0,-8.229161799E-2,2.783001214E-2,-3.155843541E-2
9.305525001E0,-1.115863696E-1,-1.197090000E-1,-1.398158539E-2
9.325795939E0,-9.081372619E-2,-2.735064328E-1,-2.090579830E-2
9.346195939E0,-6.418213248E-2,-4.237086177E-1,-5.459476262E-3
9.366495835E0,-7.536740601E-2,-5.004075766E-1,3.075948730E-2
9.386766876E0,-9.880319983E-2,-5.153213143E-1,4.554001987E-2
9.406880522E0,-9.773793817E-2,-5.083971024E-1,2.862896025E-2
9.427151355E0,-7.962846011E-2,-4.902876019E-1,9.321057005E-4
9.447422137E0,-7.483477145E-2,-4.439486265E-1,-1.291632187E-2
9.467693022E0,-7.696529478E-2,-3.869570196E-1,-1.451421715E-2
9.487963908E0,-7.483477145E-2,-3.161169887E-1,-7.590003312E-3
9.508234741E0,-6.311687082E-2,-2.081258893E-1,1.318263728E-2
9.528505626E0,-3.435475379E-2,-1.090563685E-1,4.820318148E-2
9.548776564E0,-1.997369342E-2,-5.153212696E-2,6.151897460E-2
9.569047501E0,-1.784316637E-2,-5.193160381E-3,3.928159550E-2
9.589318387E0,5.459476262E-3,-1.997369342E-3,5.725792143E-3
9.609589324E0,2.303632535E-2,1.078579482E-2,-2.037316747E-2
9.629860314E0,2.303632535E-2,1.114532053E-1,-2.410159074E-2
9.650131199E0,3.795001656E-2,3.227748871E-1,-1.451421715E-2
9.670402137E0,1.018658355E-1,5.246423483E-1,-1.877527125E-2
9.690673022E0,1.540637612E-1,5.214465261E-1,-2.729738131E-2
9.710943960E0,1.135837361E-1,3.169159293E-1,-2.676474862E-2
9.731343960E0,2.356895804E-2,6.138581783E-2,-9.187898599E-3
9.751485835E0,-4.181159660E-2,-1.095889956E-1,2.063948289E-2
9.771756772E0,-5.033370852E-2,-7.976161689E-2,3.555317223E-2
9.792027710E0,-1.677790284E-2,-7.323687430E-3,3.661843762E-2
9.812298647E0,-1.518000662E-2,-3.062632866E-3,1.424790081E-2
9.832569585E0,-4.820318148E-2,-3.395527974E-2,-1.731053460E-3
9.852840470E0,-4.340949282E-2,-1.584579609E-2,8.921583183E-3
9.873111408E0,-1.997369342E-3,-5.725792143E-3,1.265000552E-2
9.893382345E0,2.996053919E-2,-7.323687430E-3,5.193160381E-3
9.913653230E0,3.688475490E-2,-8.388951421E-3,5.725792143E-3
9.933924168E0,3.635212034E-2,4.394212738E-3,-1.198421582E-3
9.954195105E0,4.221107066E-2,5.552686751E-2,-1.291632187E-2
9.974465991E0,4.647212476E-2,1.295626909E-1,-1.238369010E-2
9.994736876E0,3.848264739E-2,1.929458827E-1,2.530001104E-3
1.001500776E1,3.528685868E-2,2.009353489E-1,7.323687430E-3
1.003527870E1,2.676474862E-2,1.583248079E-1,-3.861580743E-3
1.005554964E1,2.356895804E-2,1.183774248E-1,-9.720530361E-3
1.007582052E1,3.688475490E-2,1.135837361E-1,-2.796316985E-3
1.009609141E1,5.499423668E-2,1.300953180E-1,1.105211023E-2
1.011636234E1,6.458161026E-2,1.583248079E-1,2.756369673E-2
1.013663323E1,6.085318699E-2,1.796300858E-1,3.981423005E-2
1.015690412E1,5.392897129E-2,1.780321896E-1,3.981423005E-2
1.017730412E1,4.540686309E-2,1.577921808E-1,2.703106403E-2
1.019744594E1,4.274370521E-2,1.332911104E-1,1.850895584E-2
1.021771682E1,3.528685868E-2,1.061268896E-1,1.371526904E-2
1.023798771E1,2.783001214E-2,6.777740270E-2,1.265000552E-2
1.025825865E1,1.504684892E-2,4.380896688E-2,9.986846708E-3
1.027865865E1,5.992108025E-3,4.167843983E-2,1.318263728E-2
1.029880042E1,7.590003312E-3,4.647212476E-2,1.478053257E-2
1.031907130E1,1.717737690E-2,4.221107066E-2,1.105211023E-2
1.033934219E1,2.463422157E-2,3.209106624E-2,2.530001104E-3
1.035961307E1,1.877527125E-2,1.504684892E-2,-8.655266836E-3
1.038001307E1,4.926844500E-3,3.328948980E-3,-1.504684892E-2
1.040015485E1,-9.853689000E-3,-3.994738800E-4,-1.877527125E-2
1.042042573E1,-1.837579720E-2,3.328948980E-3,-2.143843099E-2
1.044069662E1,-1.890842989E-2,1.344895363E-2,-2.356895804E-2
1.046096750E1,-7.856319658E-3,2.463422157E-2,-2.090579830E-2
1.048123839E1,6.657897611E-4,3.262370080E-2,-2.037316747E-2
1.050150927E1,3.861580743E-3,3.581948951E-2,-2.090579830E-2
1.052178011E1,6.657897611E-4,4.434159771E-2,-1.877527125E-2
1.054205099E1,1.198421582E-3,5.712476373E-2,-1.824264042E-2
1.056232188E1,8.122635074E-3,6.138581783E-2,-1.717737690E-2
1.058259276E1,9.187898599E-3,4.114580899E-2,-1.771000773E-2
1.060286365E1,-6.258423906E-3,-8.388951421E-3,-2.037316747E-2
1.062313453E1,-2.530001104E-2,-3.182475269E-2,-1.877527125E-2
1.064340542E1,-2.636527456E-2,-1.265000552E-2,-1.025316212E-2
1.066367625E1,-6.258423906E-3,1.078579482E-2,-2.263685223E-3
1.068407625E1,9.187898599E-3,-5.193160381E-3,-2.796316985E-3
1.070421802E1,6.657897611E-4,-5.259739235E-2,-6.524739787E-3
1.072448886E1,-9.321057238E-3,-8.242477477E-2,-2.263685223E-3
1.074475974E1,-9.321057238E-3,-7.603318989E-2,6.258423906E-3
1.076503057E1,-6.791055668E-3,-6.058686972E-2,1.105211023E-2
1.078530146E1,-1.038632076E-2,-6.271740049E-2,9.986846708E-3
1.080557229E1,-1.304947957E-2,-8.402267098E-2,3.595264861E-3
1.082584318E1,-1.464737486E-2,-9.787109494E-2,-1.331579551E-4
1.084611401E1,-1.145158429E-2,-9.574057162E-2,-1.331579551E-4
1.086638484E1,-8.921583183E-3,-8.402267098E-2,2.530001104E-3
1.088665573E1,-4.127896391E-3,-7.230477035E-2,2.530001104E-3
1.090692656E1,-4.127896391E-3,-7.017423958E-2,-1.731053460E-3
1.092719740E1,-1.251684781E-2,-7.922898233E-2,-1.078579482E-2
1.094746828E1,-2.210422046E-2,-9.094688296E-2,-1.557948068E-2
1.096773912E1,-2.689790726E-2,-8.775109053E-2,-1.664474420E-2
1.098800995E1,-2.530001104E-2,-7.443529367E-2,-1.504684892E-2
1.100828078E1,-2.423474751E-2,-5.526055023E-2,-1.504684892E-2
1.102855162E1,-2.157158963E-2,-3.821633384E-2,-1.557948068E-2
1.104882245E1,-1.837579720E-2,-2.703106403E-2,-1.824264042E-2
1.106909334E1,-1.677790284E-2,-2.596580051E-2,-1.771000773E-2
1.108936417E1,-1.624527015E-2,-3.022685647E-2,-1.131842658E-2
1.110963500E1,-1.304947957E-2,-2.703106403E-2,-4.394212738E-3
1.112990584E1,-7.323687430E-3,-3.062632866E-3,2.530001104E-3
1.115017667E1,-9.321057005E-4,2.836264484E-2,7.323687430E-3
1.117044750E1,1.198421582E-3,3.315633163E-2,2.530001104E-3
1.119071834E1,-1.464737463E-3,1.078579482E-2,-5.992108025E-3
1.121098917E1,-6.791055668E-3,-1.424790081E-2,-8.122635074E-3
1.123126000E1,-5.725792143E-3,-1.478053257E-2,-4.926844500E-3
1.125153084E1,-1.464737463E-3,4.394212738E-3,3.062632866E-3
1.127180162E1,5.459476262E-3,3.102580272E-2,1.051947847E-2
1.129207245E1,5.459476262E-3,4.327633604E-2,9.986846708E-3
1.131234328E1,3.328948980E-3,3.368896246E-2,4.660528619E-3
1.133261412E1,2.263685223E-3,2.410159074E-2,-1.198421582E-3
1.135288495E1,3.328948980E-3,2.303632535E-2,-4.394212738E-3
1.137315573E1,5.459476262E-3,3.688475490E-2,-3.328948980E-3
1.139342656E1,4.926844500E-3,4.913528636E-2,2.530001104E-3
1.141369740E1,1.331579551E-4,5.286370963E-2,3.595264861E-3
1.143396823E1,1.198421582E-3,4.913528636E-2,1.997369342E-3
1.145423901E1,5.992108025E-3,4.700475931E-2,-1.331579551E-4
1.147463901E1,9.187898599E-3,5.499423668E-2,9.321057005E-4
1.149478063E1,6.524739787E-3,5.925529078E-2,3.062632866E-3
1.151505146E1,5.459476262E-3,5.339634046E-2,4.127896391E-3
1.153532224E1,3.328948980E-3,4.380896688E-2,1.997369342E-3
1.155559307E1,2.796316985E-3,4.647212476E-2,4.127896391E-3
1.157586386E1,3.861580743E-3,4.913528636E-2,4.660528619E-3
1.159613469E1,3.861580743E-3,4.487423226E-2,2.530001104E-3
1.161640547E1,4.394212738E-3,3.954791278E-2,4.660528619E-3
1.163667625E1,6.524739787E-3,3.209106624E-2,5.193160381E-3
1.165694708E1,9.720530361E-3,3.368896246E-2,5.193160381E-3
1.167734709E1,1.131842658E-2,3.635212034E-2,5.725792143E-3
1.169748870E1,7.057371549E-3,3.368896246E-2,4.660528619E-3
1.171775948E1,6.524739787E-3,3.209106624E-2,3.595264861E-3
1.173803026E1,7.057371549E-3,3.209106624E-2,4.660528619E-3
1.175830104E1,3.861580743E-3,3.262370080E-2,7.323687430E-3
1.177870104E1,3.328948980E-3,2.889527567E-2,4.660528619E-3
1.179884266E1,2.263685223E-3,2.143843099E-2,3.062632866E-3
1.181911344E1,1.198421582E-3,1.557948068E-2,1.997369342E-3
1.183938422E1,-3.994738800E-4,1.398158539E-2,3.595264861E-3
1.188501016E1,-1.464737463E-3,1.557948068E-2,5.193160381E-3
1.190519662E1,-3.994738800E-4,1.664474420E-2,8.388951421E-3
1.192545162E1,1.731053460E-3,1.344895363E-2,8.388951421E-3
1.194573860E1,4.926844500E-3,7.057371549E-3,7.323687430E-3
1.196600901E1,5.992108025E-3,2.796316985E-3,7.323687430E-3
1.198640901E1,2.796316985E-3,-3.994738800E-4,8.388951421E-3
1.200655047E1,5.992108025E-3,2.796316985E-3,7.323687430E-3
1.202682125E1,1.344895363E-2,9.187898599E-3,8.388951421E-3
1.204709203E1,1.451421715E-2,5.992108025E-3,1.371526904E-2
1.206736281E1,1.451421715E-2,-5.725792143E-3,1.797632314E-2
1.208763360E1,1.877527125E-2,-1.211737376E-2,2.010685205E-2
1.210790438E1,2.729738131E-2,-7.856319658E-3,2.436790615E-2
1.212817516E1,2.942790836E-2,-1.464737463E-3,2.862896025E-2
1.214844594E1,2.623211779E-2,6.657897611E-4,2.543316968E-2
1.216871667E1,2.303632535E-2,-4.660528619E-3,2.117211558E-2
1.218898745E1,1.771000773E-2,-1.105211023E-2,1.691105962E-2
1.220925823E1,1.238369010E-2,-1.957421936E-2,1.478053257E-2
1.222952901E1,7.057371549E-3,-3.129211813E-2,1.158474199E-2
1.224979974E1,3.861580743E-3,-3.448791057E-2,9.454214945E-3
1.227007052E1,6.657897611E-4,-2.703106403E-2,7.323687430E-3
1.229034130E1,-2.530001104E-3,-1.957421936E-2,5.193160381E-3
1.231061203E1,-2.530001104E-3,-1.744369231E-2,4.127896391E-3
1.233088276E1,-2.530001104E-3,-1.637842879E-2,4.127896391E-3
1.235115354E1,-1.464737463E-3,-1.424790081E-2,5.193160381E-3
1.237142432E1,1.731053460E-3,-1.318263728E-2,3.062632866E-3
1.239169505E1,3.861580743E-3,-9.986846708E-3,-1.331579551E-4
1.241196584E1,3.861580743E-3,-2.530001104E-3,9.321057005E-4
1.243223656E1,4.926844500E-3,5.992108025E-3,4.127896391E-3
1.245250729E1,9.187898599E-3,9.187898599E-3,4.127896391E-3
1.247277807E1,1.025316212E-2,7.057371549E-3,6.258423906E-3
1.249304880E1,8.122635074E-3,6.657897611E-4,6.258423906E-3
1.251331959E1,3.861580743E-3,-1.464737463E-3,4.127896391E-3
1.253359031E1,1.731053460E-3,-3.994738800E-4,6.258423906E-3
1.255386104E1,3.861580743E-3,8.122635074E-3,7.323687430E-3
1.257413177E1,8.122635074E-3,1.131842658E-2,3.062632866E-3
1.259440255E1,1.025316212E-2,1.131842658E-2,-4.394212738E-3
1.261467328E1,8.122635074E-3,1.451421715E-2,-6.524739787E-3
1.263494401E1,6.657897611E-4,1.557948068E-2,-3.328948980E-3
1.265521474E1,-2.530001104E-3,7.057371549E-3,9.321057005E-4
1.267548547E1,2.796316985E-3,-6.791055668E-3,5.193160381E-3
1.269575620E1,4.926844500E-3,-1.105211023E-2,8.388951421E-3
1.271602693E1,1.731053460E-3,-2.530001104E-3,1.478053257E-2
1.273642693E1,-2.530001104E-3,5.992108025E-3,1.158474199E-2
1.275656839E1,-2.530001104E-3,1.131842658E-2,6.258423906E-3
1.277683917E1,-3.994738800E-4,5.992108025E-3,5.193160381E-3
1.279710985E1,4.926844500E-3,-3.994738800E-4,5.193160381E-3
1.281738057E1,1.025316212E-2,6.657897611E-4,8.388951421E-3
1.283765130E1,7.057371549E-3,8.122635074E-3,1.158474199E-2
1.285792203E1,-3.994738800E-4,1.025316212E-2,1.265000552E-2
1.287819276E1,-5.725792143E-3,3.861580743E-3,5.193160381E-3
1.289846349E1,-4.660528619E-3,-1.464737463E-3,1.997369342E-3
1.291873417E1,-3.595264861E-3,1.731053460E-3,9.321057005E-4
1.293900490E1,-1.464737463E-3,1.238369010E-2,5.193160381E-3
1.295927557E1,1.731053460E-3,2.303632535E-2,6.258423906E-3
1.297954630E1,2.796316985E-3,3.049317189E-2,3.062632866E-3
1.299981703E1,7.057371549E-3,3.262370080E-2,-1.198421582E-3
1.302008776E1,1.344895363E-2,3.688475490E-2,-2.263685223E-3
1.304035844E1,1.877527125E-2,4.540686309E-2,-1.331579551E-4
1.306062917E1,2.197106183E-2,5.286370963E-2,3.062632866E-3
1.308089985E1,2.197106183E-2,5.179844424E-2,1.997369342E-3
1.310117057E1,2.090579830E-2,4.540686309E-2,-1.331579551E-4
1.312144125E1,1.664474420E-2,3.688475490E-2,-3.328948980E-3
1.314171198E1,7.057371549E-3,2.942790836E-2,-4.394212738E-3
1.316198266E1,5.992108025E-3,2.303632535E-2,-6.524739787E-3
1.318238266E1,1.131842658E-2,2.836264484E-2,-8.655266836E-3
1.320252406E1,1.344895363E-2,3.581948951E-2,-6.524739787E-3
1.322279474E1,8.122635074E-3,2.942790836E-2,-5.459476262E-3
1.324306542E1,3.861580743E-3,7.057371549E-3,-4.394212738E-3
1.326337542E1,-3.994738800E-4,-2.277000993E-2,1.997369342E-3
1.328376495E1,-6.791055668E-3,-3.661843762E-2,9.454214945E-3
1.330387740E1,-1.518000662E-2,-4.301001877E-2,1.584579609E-2
1.332414807E1,-1.944106072E-2,-6.005423889E-2,1.904158667E-2
1.334441880E1,-1.944106072E-2,-8.029424399E-2,2.543316968E-2
1.336468953E1,-2.157158963E-2,-9.946899116E-2,2.969422378E-2
1.338508953E1,-2.476738021E-2,-1.015995219E-1,3.182475269E-2
1.340523089E1,-1.411474310E-2,-9.414267540E-2,3.289001435E-2
1.342550156E1,2.796316985E-3,-5.366265774E-2,3.182475269E-2
1.344577224E1,2.303632535E-2,-7.856319658E-3,2.969422378E-2
1.346604292E1,3.901528195E-2,1.238369010E-2,2.117211558E-2
1.348631365E1,3.901528195E-2,-9.986846708E-3,1.158474199E-2
1.350658432E1,3.475422785E-2,-5.366265774E-2,9.321057005E-4
1.352685500E1,3.795001656E-2,-6.857634336E-2,-6.524739787E-3
1.354712568E1,4.327633604E-2,-5.259739235E-2,-7.590003312E-3
1.356739636E1,4.221107066E-2,-4.514054582E-2,-5.459476262E-3
1.358766703E1,3.475422785E-2,-6.857634336E-2,-5.459476262E-3
1.360793766E1,2.516685426E-2,-1.015995219E-1,-7.590003312E-3
1.362820834E1,1.771000773E-2,-1.229047924E-1,-5.459476262E-3
1.364847901E1,1.344895363E-2,-1.314269006E-1,9.321057005E-4
1.366874969E1,1.131842658E-2,-1.410142779E-1,9.454214945E-3
1.368902031E1,1.131842658E-2,-1.463405937E-1,1.478053257E-2
1.370929099E1,1.877527125E-2,-1.410142779E-1,1.584579609E-2
1.372956162E1,3.155843541E-2,-1.229047924E-1,1.265000552E-2
1.374983229E1,4.434159771E-2,-9.840372950E-2,5.193160381E-3
1.377010297E1,5.605949834E-2,-7.283740491E-2,-4.394212738E-3
1.379037360E1,7.097318769E-2,-4.833633825E-2,-1.291632187E-2
1.381064427E1,8.588688076E-2,-2.063948289E-2,-1.504684892E-2
1.383091490E1,9.014793485E-2,-6.791055668E-3,-1.824264042E-2
1.385118557E1,9.334372729E-2,-1.744369231E-2,-1.930790395E-2
1.387145620E1,9.121319652E-2,-2.916159295E-2,-1.185105834E-2
1.389172688E1,8.695214242E-2,-2.063948289E-2,-1.331579551E-4
1.391199750E1,8.908267319E-2,-1.464737463E-3,6.258423906E-3
1.393226807E1,1.008005738E-1,3.262370080E-2,7.323687430E-3
1.395253880E1,1.167795286E-1,7.416898012E-2,2.117211558E-2
1.397280943E1,1.316932142E-1,9.973530471E-2,4.660528526E-2
1.399308005E1,1.487374306E-1,9.867004305E-2,6.258423626E-2
1.401335068E1,1.764342934E-1,7.629951090E-2,6.578002870E-2
1.403362130E1,2.115879953E-1,6.777740270E-2,7.430213690E-2
1.405389198E1,2.499374747E-1,9.014793485E-2,9.454214573E-2
1.407416261E1,2.850911915E-1,1.327584833E-1,1.222390011E-1
1.409443323E1,3.277017176E-1,1.945437789E-1,1.637842804E-1
1.411470386E1,4.033354521E-1,2.531332672E-1,2.127864063E-1
1.413497448E1,5.013396740E-1,3.222422600E-1,2.724411786E-1
1.415524510E1,5.938844681E-1,3.850927949E-1,3.374222517E-1
1.417551573E1,6.950845122E-1,4.234423041E-1,4.024033546E-1
1.419578636E1,7.984151244E-1,4.617917836E-1,4.716454744E-1
1.421605698E1,8.676572442E-1,4.255728126E-1,5.227781534E-1
1.423632761E1,8.857667446E-1,3.382211924E-1,5.526055098E-1
1.425659823E1,8.889625072E-1,2.510027587E-1,6.014744639E-1
1.427686886E1,9.411604404E-1,1.157142594E-1,6.408892274E-1
1.429713948E1,1.013598323E0,-3.994738800E-4,6.185187101E-1
1.433268057E1,7.611308694E-1,-2.303632647E-1,3.054643571E-1
1.435295130E1,6.998782158E-1,-5.057339072E-1,3.038664460E-1
1.437322193E1,6.807034612E-1,-5.968139768E-1,2.692453861E-1
1.439349255E1,6.556697488E-1,-6.175866127E-1,2.047969401E-1
1.441376318E1,5.390233994E-1,-5.158539414E-1,8.016108721E-2
1.443403375E1,3.527354300E-1,-2.937464416E-1,1.051947847E-2
1.445430438E1,2.371543199E-1,-2.964096069E-1,4.713791609E-2
1.447457495E1,2.126532495E-1,-4.343612492E-1,8.122635633E-2
1.449484557E1,1.444763839E-1,-4.673844278E-1,4.087949172E-2
1.451511620E1,4.753739014E-2,-3.688475490E-1,-3.049317189E-2
1.453538677E1,-1.358211134E-2,-3.123885691E-1,-9.867004305E-2
1.455565740E1,-2.796317078E-2,-2.868222296E-1,-1.482048035E-1
1.457592797E1,-2.796317078E-2,-3.459443748E-1,-1.865542978E-1
1.459619860E1,-6.471476704E-2,-3.837612271E-1,-2.275669426E-1
1.461646917E1,-1.286305785E-1,-3.491401672E-1,-2.611227632E-1
1.463673979E1,-1.957421899E-1,-2.841590643E-1,-2.802974880E-1
1.465701037E1,-2.559295893E-1,-2.107890397E-1,-2.978743315E-1
1.467741037E1,-2.921485603E-1,-1.452753246E-1,-3.186469972E-1
1.469755151E1,-2.921485603E-1,-1.442100704E-1,-3.234406710E-1
1.471782214E1,-2.564622164E-1,-2.091911435E-1,-3.063964546E-1
1.473809271E1,-1.797632426E-1,-3.022685647E-1,-2.792322338E-1
1.475836328E1,-1.025316268E-1,-3.203780353E-1,-2.318280041E-1
1.477876328E1,-3.542001545E-2,-2.319611609E-1,-1.482048035E-1
1.479890448E1,2.143843099E-2,-9.467530251E-2,-3.795001656E-2
1.481917500E1,4.807002097E-2,2.569948509E-2,8.442214131E-2
1.483944563E1,5.765739456E-2,1.460742801E-1,2.063948363E-1
1.485971620E1,8.215846121E-2,2.142511457E-1,3.091927767E-1
1.488011620E1,9.014793485E-2,2.467416972E-1,3.496727943E-1
1.490025735E1,5.339634046E-2,2.243711501E-1,3.294327855E-1
1.492052792E1,2.263685223E-3,1.434111148E-1,2.798980176E-1
1.494079849E1,-3.275685757E-2,3.368896246E-2,2.468748540E-1
1.496106906E1,-6.684529036E-2,-9.733846784E-2,2.282327414E-1
1.498146906E1,-9.400951862E-2,-1.980058849E-1,2.159821987E-1
1.500161021E1,-8.016108721E-2,-2.187785208E-1,1.930790395E-1
1.502188078E1,-1.837579720E-2,-1.261005849E-1,1.621863842E-1
1.504215136E1,2.623211779E-2,1.557948068E-2,1.249021590E-1
1.506242193E1,1.291632187E-2,6.351634115E-2,1.233042628E-1
1.508269250E1,1.331579551E-4,4.061317816E-2,1.265000552E-1
1.510296302E1,2.516685426E-2,9.187898599E-3,5.885581672E-2
1.512323360E1,4.221107066E-2,-2.010685205E-2,-6.884266436E-2
1.514350417E1,2.796316985E-3,7.057371549E-3,-1.695100814E-1
1.516377474E1,-5.566002429E-2,4.966791719E-2,-1.945437789E-1
1.518404531E1,-1.179779470E-1,9.973530471E-2,-1.929458827E-1
1.520431584E1,-1.659148186E-1,1.796300858E-1,-2.280995846E-1
1.522458641E1,-1.861548275E-1,2.083922029E-1,-2.419480085E-1
1.524485698E1,-2.000032514E-1,2.131858915E-1,-2.195774615E-1
1.526512750E1,-2.037316710E-1,2.621880174E-1,-1.599227041E-1
1.528539807E1,-1.749695539E-1,2.994722426E-1,-9.707214683E-2
1.530566860E1,-1.504684836E-1,2.696448565E-1,-5.605949834E-2
1.532593917E1,-1.126516312E-1,2.073269337E-1,-1.331579551E-4
1.534620974E1,-9.400951862E-2,2.781669796E-1,2.649843320E-2
1.536648026E1,-9.986846894E-2,4.090612531E-1,4.500738904E-2
1.538675084E1,-1.185105816E-1,4.420844018E-1,5.619265884E-2
1.540702136E1,-1.259674281E-1,3.994738758E-1,7.217161357E-2
1.542729193E1,-9.880319983E-2,4.037349224E-1,7.696529478E-2
1.544756245E1,-4.873581231E-2,3.973433375E-1,4.820318148E-2
1.546783297E1,-4.234423116E-2,2.994722426E-1,1.158474199E-2
1.548810354E1,-8.175898343E-2,1.215732098E-1,-4.593949392E-2
1.550837406E1,-1.243695319E-1,-7.443529367E-2,-1.018658355E-1
1.552864458E1,-1.781653464E-1,-1.926795542E-1,-1.828258783E-1
1.554891510E1,-2.932138145E-1,-1.996037811E-1,-2.488722205E-1
1.556918568E1,-3.901528120E-1,-8.455529809E-2,-2.584595978E-1
1.558945620E1,-3.997401893E-1,5.925529078E-2,-2.344911546E-1
1.560972672E1,-3.645864725E-1,1.253016293E-1,-2.035985142E-1
1.562999724E1,-3.512706757E-1,1.375521719E-1,-2.222406268E-1
1.565026781E1,-3.091927767E-1,-1.584579609E-2,-1.886848211E-1
1.567053834E1,-2.543317080E-1,-8.668582886E-2,-1.860216707E-1
1.569080886E1,-1.893506050E-1,4.966791719E-2,-1.860216707E-1
1.571107938E1,-1.185105816E-1,2.057290375E-1,-1.306279600E-1
1.573147938E1,-2.902843431E-2,1.849564016E-1,-1.178447902E-1
1.575162042E1,3.155843541E-2,5.179844424E-2,-1.593900770E-1
1.577189094E1,-1.358211134E-2,1.344895363E-2,-1.822932363E-1
1.579216141E1,-1.009337306E-1,6.831002980E-2,-1.705753356E-1
1.581243198E1,-1.419463754E-1,1.428784877E-1,-1.327584833E-1
1.583270250E1,-1.701758653E-1,2.046637833E-1,-1.013332009E-1
1.585297302E1,-1.989379823E-1,1.940111369E-1,-8.535424620E-2
1.587324354E1,-2.079927325E-1,1.141163707E-1,-5.499423668E-2
1.589351401E1,-1.936116666E-1,6.032055244E-2,3.062632866E-3
1.591378453E1,-1.808284968E-1,6.777740270E-2,3.661843762E-2
1.593405505E1,-1.595232338E-1,-3.075948730E-2,1.850895584E-2
1.595432557E1,-1.829590350E-1,-1.479384899E-1,-3.901528195E-2
1.597459610E1,-2.000032514E-1,-1.953427196E-1,-5.819002539E-2
1.599486656E1,-2.250369489E-1,-6.644582003E-2,-9.867004305E-2
1.601513709E1,-2.351569533E-1,-7.856319658E-3,-1.082574204E-1
1.603540760E1,-2.213085145E-1,-6.325002760E-2,-1.173121557E-1
1.605567807E1,-2.016011477E-1,-9.201214463E-2,-1.439437568E-1
1.607594860E1,-1.792306006E-1,-1.005342528E-1,-1.300953180E-1
1.609621906E1,-1.653821766E-1,-8.562056720E-2,-1.066595241E-1
1.611648958E1,-1.786979735E-1,-4.727107286E-2,-1.114532053E-1
1.613676010E1,-1.776327193E-1,-3.555317223E-2,-9.387636185E-2
1.615703057E1,-1.675127149E-1,-2.277000993E-2,-7.949529588E-2
1.617743057E1,-1.568600684E-1,-1.105211023E-2,-6.990792602E-2
1.619757156E1,-1.621863842E-1,-1.957421936E-2,-6.937529147E-2
1.621784208E1,-1.712411344E-1,-5.153212696E-2,-6.351634115E-2
1.623811255E1,-1.701758653E-1,-5.366265774E-2,-5.765739456E-2
1.625838307E1,-1.659148186E-1,-3.129211813E-2,-5.712476373E-2
1.627878307E1,-1.669800729E-1,-1.424790081E-2,-7.257108390E-2
1.629892401E1,-1.739042848E-1,-3.595264861E-3,-9.227846563E-2
1.631919453E1,-1.802958697E-1,1.331579551E-4,-9.920267761E-2
1.633946500E1,-1.925463974E-1,-2.170474641E-2,-9.653951973E-2
1.635973547E1,-1.989379823E-1,-6.431528926E-2,-8.695214242E-2
1.638013547E1,-1.845569313E-1,-9.627319872E-2,-6.298371404E-2
1.640027646E1,-1.621863842E-1,-9.307741374E-2,-5.073318258E-2
1.642054693E1,-1.430116445E-1,-6.271740049E-2,-5.286370963E-2
1.644081740E1,-1.392832249E-1,-7.323687430E-3,-6.404897571E-2
1.646108792E1,-1.408811212E-1,1.824264042E-2,-7.363634557E-2
1.648135839E1,-1.398158520E-1,-2.530001104E-3,-7.683213800E-2
1.650162886E1,-1.339569092E-1,-3.182475269E-2,-7.470161468E-2
1.652189932E1,-1.254348010E-1,-4.567318037E-2,-6.511423737E-2
1.654216979E1,-1.110537350E-1,-2.277000993E-2,-5.392897129E-2
1.656244026E1,-9.454214573E-2,3.328948980E-3,-5.392897129E-2
1.658271073E1,-7.430213690E-2,-1.424790081E-2,-5.978792161E-2
1.660298120E1,-6.897582114E-2,-6.218476593E-2,-6.777740270E-2
1.662325167E1,-7.856319100E-2,-8.349003643E-2,-6.085318699E-2
1.664352214E1,-8.548741043E-2,-8.828372508E-2,-3.262370080E-2
1.666379255E1,-9.241162241E-2,-1.047953144E-1,-2.303632535E-2
1.668406307E1,-9.347688407E-2,-1.042626798E-1,-2.569948509E-2
1.670433354E1,-8.442214131E-2,-8.668582886E-2,-3.861580743E-3
1.672460401E1,-5.246423557E-2,-8.082687855E-2,-1.198421582E-3
1.674487443E1,-2.263685316E-2,-4.301001877E-2,-2.463422157E-2
1.676514490E1,-5.193160381E-3,-1.424790081E-2,-2.037316747E-2
1.678541537E1,3.328948980E-3,-2.063948289E-2,-3.635212034E-2
1.680568584E1,2.356895804E-2,-8.721846342E-2,-5.712476373E-2
1.682595630E1,2.090579830E-2,-1.047953144E-1,-2.836264484E-2
1.684622672E1,-1.997369342E-2,-2.530001104E-3,6.045371294E-2
1.686649719E1,-5.938844755E-2,1.061268896E-1,1.041295230E-1
1.688676766E1,-5.406212807E-2,8.269108832E-2,6.791055948E-2
1.690703807E1,-4.394212365E-2,3.528685868E-2,7.323687430E-3
1.692730854E1,-3.861580789E-2,1.185105834E-2,-2.303632535E-2
1.694757901E1,-1.890842989E-2,-3.062632866E-3,-3.901528195E-2
1.696784943E1,2.303632535E-2,-9.454214945E-3,-2.836264484E-2
1.698811990E1,4.487423226E-2,-6.258423906E-3,-4.926844500E-3
1.700839037E1,2.250369452E-2,1.771000773E-2,2.383527346E-2
1.702866078E1,-3.062632866E-3,3.155843541E-2,4.354264960E-2
1.704893125E1,-1.837579720E-2,2.783001214E-2,3.502054140E-2
1.706920167E1,-1.624527015E-2,3.049317189E-2,9.986846708E-3
1.708947214E1,3.861580743E-3,5.712476373E-2,-1.557948068E-2
1.710974260E1,7.590003312E-3,6.990792602E-2,-2.996053919E-2
1.713001302E1,-9.321057005E-4,3.209106624E-2,-2.623211779E-2
1.715028344E1,-7.323687430E-3,-2.170474641E-2,-1.344895363E-2
1.717055391E1,-9.321057238E-3,-4.247738793E-2,-6.657897611E-4
1.719082438E1,-1.464737486E-2,-4.567318037E-2,1.424790081E-2
1.721109479E1,-1.731053367E-2,-4.833633825E-2,1.744369231E-2
1.723136521E1,-1.464737486E-2,-4.993423447E-2,1.850895584E-2
1.725163568E1,-1.731053367E-2,-5.526055023E-2,1.904158667E-2
1.727190610E1,-2.103895694E-2,-6.538055837E-2,1.744369231E-2
1.729217651E1,-1.251684781E-2,-7.070687413E-2,2.117211558E-2
1.731244698E1,-1.038632076E-2,-7.390266657E-2,2.862896025E-2
1.733271740E1,-1.571263932E-2,-6.058686972E-2,3.342264518E-2
1.735298781E1,-4.660528619E-3,-5.739107728E-2,2.277000993E-2
1.737325823E1,7.057371549E-3,-4.354264960E-2,2.530001104E-3
1.739352870E1,5.459476262E-3,-2.916159295E-2,-5.459476262E-3
1.741379912E1,1.731053460E-3,-1.478053257E-2,-1.025316212E-2
1.743406953E1,-6.258423906E-3,1.198421582E-3,-1.504684892E-2
1.745433990E1,-1.411474310E-2,-2.530001104E-3,-1.344895363E-2
1.747461037E1,-1.358211134E-2,-1.797632314E-2,-1.198421582E-3
1.749488078E1,-9.321057238E-3,-2.223737910E-2,1.105211023E-2
1.751515120E1,-9.321057005E-4,-2.223737910E-2,2.330264263E-2
1.753542162E1,-3.062632866E-3,-2.809632942E-2,2.862896025E-2
1.755569203E1,-1.091895252E-2,-3.502054140E-2,2.383527346E-2
1.757609203E1,-7.323687430E-3,-2.969422378E-2,1.637842879E-2
1.759623292E1,-7.856319658E-3,-2.649843320E-2,1.318263728E-2
1.761650334E1,-1.304947957E-2,-3.342264518E-2,1.478053257E-2
1.763677375E1,-1.304947957E-2,-1.691105962E-2,1.105211023E-2
1.765704417E1,-7.323687430E-3,1.025316212E-2,2.530001104E-3
1.767744417E1,-6.791055668E-3,8.655266836E-3,-9.187898599E-3
1.769758500E1,-8.388951421E-3,3.328948980E-3,-1.824264042E-2
1.771785542E1,-1.198421605E-2,4.394212738E-3,-1.824264042E-2
1.773812584E1,-1.304947957E-2,-8.921583183E-3,-1.344895363E-2
1.775839620E1,-1.091895252E-2,-2.010685205E-2,-5.992108025E-3
1.777879620E1,-1.997369342E-2,-2.063948289E-2,9.321057005E-4
1.779893703E1,-2.583264373E-2,-3.022685647E-2,1.464737463E-3
1.781920745E1,-3.169159219E-2,-3.661843762E-2,-5.992108025E-3
1.783947787E1,-3.382211924E-2,-4.301001877E-2,-3.861580743E-3
1.785974828E1,-3.755054250E-2,-6.218476593E-2,-1.731053460E-3
1.788014828E1,-4.234423116E-2,-7.869634777E-2,-6.657897611E-4
1.790028912E1,-5.725792050E-2,-7.976161689E-2,-2.796316985E-3
1.792055953E1,-5.086633936E-2,-8.881635964E-2,3.994738800E-4
1.794082995E1,-3.542001545E-2,-8.082687855E-2,-5.459476262E-3
1.796110037E1,-2.636527456E-2,-7.496792823E-2,-1.331579551E-4
1.798150037E1,-1.784316637E-2,-7.443529367E-2,-1.731053460E-3
1.800164115E1,-2.956106514E-2,-4.940159991E-2,-1.331579551E-4
1.802191156E1,-3.861580789E-2,-2.862896025E-2,-1.331579551E-4
1.804218198E1,-2.743053809E-2,-2.916159295E-2,-8.122635074E-3
1.806245240E1,-2.050632425E-2,-2.543316968E-2,-1.025316212E-2
1.808272281E1,-1.518000662E-2,-1.371526904E-2,-3.861580743E-3
1.810299323E1,-1.624527015E-2,-4.660528619E-3,-6.657897611E-4
1.812326365E1,-1.944106072E-2,-1.211737376E-2,1.464737463E-3
1.814353401E1,-9.853689000E-3,-3.395527974E-2,-6.657897611E-4
1.816380443E1,-3.062632866E-3,-2.649843320E-2,9.321057005E-4
1.818407484E1,1.198421582E-3,-2.010685205E-2,7.323687430E-3
1.820434526E1,-5.193160381E-3,-1.850895584E-2,8.921583183E-3
1.822461568E1,-1.358211134E-2,-1.584579609E-2,1.371526904E-2
1.824488610E1,-6.791055668E-3,-2.170474641E-2,9.986846708E-3
1.826515646E1,4.394212738E-3,-2.916159295E-2,7.323687430E-3
1.828542688E1,9.187898599E-3,-3.129211813E-2,7.323687430E-3
1.830569729E1,4.926844500E-3,-2.756369673E-2,1.371526904E-2
1.832596771E1,-1.997369342E-3,-1.850895584E-2,2.117211558E-2
1.834623813E1,6.657897611E-4,-1.850895584E-2,1.904158667E-2
1.836650849E1,3.328948980E-3,-3.182475269E-2,1.051947847E-2
1.838677891E1,3.328948980E-3,-4.194475710E-2,8.388951421E-3
1.840704932E1,1.398158539E-2,-3.448791057E-2,9.454214945E-3
1.842731974E1,2.250369452E-2,-1.957421936E-2,9.986846708E-3
1.844759010E1,1.611211337E-2,-1.051947847E-2,1.265000552E-2
1.846786052E1,1.198421582E-3,-5.725792143E-3,7.323687430E-3
1.848813094E1,-5.725792143E-3,-6.258423906E-3,3.595264861E-3
1.850840136E1,-3.994738800E-4,-1.584579609E-2,-1.731053460E-3
1.852867172E1,1.185105834E-2,-1.904158667E-2,-5.459476262E-3
1.854894214E1,1.930790395E-2,-1.318263728E-2,-2.796316985E-3
1.856921255E1,1.291632187E-2,-8.388951421E-3,3.595264861E-3
1.858948297E1,8.122635074E-3,-5.193160381E-3,7.856319658E-3
1.860975339E1,9.720530361E-3,2.263685223E-3,9.986846708E-3
1.863002375E1,1.664474420E-2,1.731053460E-3,7.323687430E-3
1.865029417E1,1.824264042E-2,-3.062632866E-3,1.997369342E-3
1.867056453E1,1.611211337E-2,1.198421582E-3,-2.263685223E-3
1.869083495E1,1.717737690E-2,8.655266836E-3,-1.731053460E-3
1.871110537E1,1.451421715E-2,5.992108025E-3,-2.796316985E-3
1.873150537E1,1.398158539E-2,3.328948980E-3,-1.731053460E-3
1.875164615E1,1.611211337E-2,1.238369010E-2,-6.657897611E-4
1.877191656E1,1.717737690E-2,2.197106183E-2,-6.657897611E-4
1.879218698E1,1.291632187E-2,1.504684892E-2,-7.590003312E-3
1.881245735E1,7.590003312E-3,2.263685223E-3,-1.344895363E-2
1.883272776E1,8.655266836E-3,-1.997369342E-3,-1.504684892E-2
1.885299818E1,1.664474420E-2,8.122635074E-3,-1.504684892E-2
1.887326854E1,1.398158539E-2,1.771000773E-2,-1.185105834E-2
1.889353896E1,9.187898599E-3,2.037316747E-2,-7.057371549E-3
1.891380932E1,1.078579482E-2,2.410159074E-2,-3.328948980E-3
1.893407974E1,1.025316212E-2,2.463422157E-2,-6.657897611E-4
1.895435010E1,1.025316212E-2,2.250369452E-2,-2.263685223E-3
1.897462052E1,1.504684892E-2,1.771000773E-2,-1.198421582E-3
1.899489094E1,1.185105834E-2,1.717737690E-2,7.323687430E-3
1.901516130E1,8.122635074E-3,2.836264484E-2,1.478053257E-2
1.903543172E1,9.187898599E-3,3.688475490E-2,1.211737376E-2
1.905570214E1,1.078579482E-2,3.155843541E-2,1.464737463E-3
1.907597250E1,6.524739787E-3,2.729738131E-2,-7.590003312E-3
1.909624292E1,8.655266836E-3,3.422159329E-2,-7.590003312E-3
1.911651328E1,1.078579482E-2,4.647212476E-2,-3.328948980E-3
1.913678370E1,9.720530361E-3,4.487423226E-2,5.725792143E-3
1.915705412E1,1.185105834E-2,5.073318258E-2,1.318263728E-2
1.917745412E1,1.984053478E-2,7.150582224E-2,2.436790615E-2
1.919759490E1,2.356895804E-2,1.167795286E-1,3.661843762E-2
1.921786526E1,1.291632187E-2,1.567269117E-1,4.873581231E-2
1.923826526E1,1.185105834E-2,1.263668984E-1,4.500738904E-2
1.925856396E1,3.528685868E-2,2.356895804E-2,1.158474199E-2
1.927883448E1,3.795001656E-2,-6.271740049E-2,-9.187898599E-3
1.929894750E1,-9.321057005E-4,-6.378266215E-2,4.660528619E-3
1.931921781E1,-2.849580161E-2,-6.791055668E-3,2.703106403E-2
1.933948807E1,-3.488738462E-2,2.729738131E-2,2.809632942E-2
1.935975839E1,-3.328948840E-2,-9.454214945E-3,7.323687430E-3
1.938015839E1,-3.382211924E-2,-4.673844203E-2,-1.451421715E-2
1.940029901E1,-3.701791167E-2,-2.543316968E-2,-2.410159074E-2
1.942056932E1,-2.743053809E-2,1.198421582E-3,-2.037316747E-2
1.944083969E1,-1.837579720E-2,-3.062632866E-3,-1.611211337E-2
1.946111005E1,-2.050632425E-2,-3.661843762E-2,-8.655266836E-3
1.948151005E1,-3.755054250E-2,-5.739107728E-2,-2.796316985E-3
1.950165084E1,-5.246423557E-2,-4.940159991E-2,1.464737463E-3
1.952192115E1,-5.779055133E-2,-2.490053698E-2,2.530001104E-3
1.954219151E1,-4.554001987E-2,-1.158474199E-2,9.321057005E-4
1.956246193E1,-3.062633052E-2,-1.637842879E-2,-8.655266836E-3
1.958273229E1,-3.115896136E-2,-3.874896467E-2,-1.930790395E-2
1.960300266E1,-4.021370411E-2,-6.218476593E-2,-2.569948509E-2
1.962327307E1,-4.607265070E-2,-4.620581120E-2,-2.250369452E-2
1.964354339E1,-3.968106955E-2,-2.490053698E-2,-1.291632187E-2
1.966381375E1,-2.796317078E-2,-7.323687430E-3,-8.122635074E-3
1.968408417E1,-9.853689000E-3,1.198421582E-3,-4.926844500E-3
1.970435453E1,2.263685223E-3,-4.660528619E-3,-2.796316985E-3
1.972462490E1,-1.997369342E-3,4.394212738E-3,-5.992108025E-3
1.974489531E1,-9.321057005E-4,1.078579482E-2,2.530001104E-3
1.976516568E1,-4.660528619E-3,1.611211337E-2,4.660528619E-3
1.978543604E1,-8.921583183E-3,1.771000773E-2,1.265000552E-2
1.980570641E1,-6.258423906E-3,2.090579830E-2,1.744369231E-2
1.982597682E1,-4.127896391E-3,1.771000773E-2,1.478053257E-2
1.984624719E1,-7.323687430E-3,4.926844500E-3,1.211737376E-2
1.986651755E1,-6.791055668E-3,2.796316985E-3,1.265000552E-2
1.988678792E1,-5.725792143E-3,1.291632187E-2,1.051947847E-2
1.990705828E1,-9.321057238E-3,1.771000773E-2,8.388951421E-3
1.992732870E1,-9.853689000E-3,1.611211337E-2,6.791055668E-3
1.994759906E1,-2.530001104E-3,2.796316985E-3,6.258423906E-3
1.996786943E1,-3.994738800E-4,1.198421582E-3,7.856319658E-3
1.998813979E1,-6.791055668E-3,1.078579482E-2,1.211737376E-2
2.000841016E1,-1.358211134E-2,1.557948068E-2,1.424790081E-2
2.002868047E1,-1.677790284E-2,-3.595264861E-3,1.265000552E-2
2.004895094E1,-1.624527015E-2,-3.129211813E-2,6.791055668E-3
2.006922130E1,-1.571263932E-2,-3.661843762E-2,9.321057005E-4
2.008949167E1,-1.944106072E-2,-3.342264518E-2,-1.731053460E-3
2.010976203E1,-2.263685316E-2,-3.502054140E-2,1.997369342E-3
2.013003240E1,-1.251684781E-2,-3.661843762E-2,6.258423906E-3
2.015030276E1,-5.193160381E-3,-2.862896025E-2,9.986846708E-3
2.017057313E1,-3.994738800E-4,-2.330264263E-2,1.265000552E-2
2.019084349E1,2.263685223E-3,-1.637842879E-2,1.158474199E-2
2.021111386E1,3.861580743E-3,-9.454214945E-3,6.791055668E-3
2.023138422E1,3.328948980E-3,-1.158474199E-2,3.062632866E-3
2.025165458E1,5.992108025E-3,-1.744369231E-2,1.997369342E-3
2.027192495E1,1.731053460E-3,-2.543316968E-2,5.725792143E-3
2.029219531E1,-4.127896391E-3,-2.277000993E-2,7.856319658E-3
2.031246568E1,-8.921583183E-3,-1.318263728E-2,4.127896391E-3
2.033273604E1,-6.258423906E-3,-1.691105962E-2,-1.198421582E-3
2.035300641E1,-1.464737463E-3,-3.555317223E-2,-7.590003312E-3
2.037327677E1,-3.994738800E-4,-4.407528415E-2,-8.655266836E-3
2.039354714E1,-5.193160381E-3,-3.075948730E-2,-6.524739787E-3
2.041381745E1,-1.038632076E-2,-9.454214945E-3,-6.524739787E-3
2.043408781E1,-1.145158429E-2,-1.464737463E-3,-1.185105834E-2
2.045435818E1,-1.304947957E-2,-7.323687430E-3,-1.930790395E-2
2.047462854E1,-8.921583183E-3,-2.223737910E-2,-2.516685426E-2
2.049489891E1,-3.062632866E-3,-2.330264263E-2,-2.356895804E-2
2.051516927E1,1.331579551E-4,-1.478053257E-2,-1.664474420E-2
2.053543964E1,-1.464737463E-3,-6.791055668E-3,-1.238369010E-2
2.055570995E1,-2.530001104E-3,-9.454214945E-3,-1.078579482E-2
2.057598026E1,-5.725792143E-3,-1.584579609E-2,-1.025316212E-2
2.059625068E1,-4.127896391E-3,-1.371526904E-2,-1.025316212E-2
2.061652104E1,2.796316985E-3,-6.258423906E-3,-1.025316212E-2
2.063679136E1,7.057371549E-3,-3.062632866E-3,-7.057371549E-3
2.065706172E1,3.861580743E-3,-8.388951421E-3,-7.590003312E-3
2.067746172E1,6.524739787E-3,-1.051947847E-2,-1.078579482E-2
2.069760245E1,8.122635074E-3,1.198421582E-3,-1.504684892E-2
2.071787276E1,7.590003312E-3,1.731053460E-3,-1.344895363E-2
2.073814313E1,8.122635074E-3,-1.158474199E-2,-7.590003312E-3
2.075841349E1,1.238369010E-2,-1.051947847E-2,4.660528619E-3
2.077881349E1,2.197106183E-2,3.328948980E-3,1.265000552E-2
2.079895417E1,2.889527567E-2,1.611211337E-2,9.454214945E-3
2.081922453E1,2.889527567E-2,1.717737690E-2,3.994738800E-4
2.083949490E1,2.356895804E-2,2.250369452E-2,-5.992108025E-3
2.085976521E1,1.984053478E-2,3.209106624E-2,-7.057371549E-3
2.088016521E1,2.037316747E-2,3.528685868E-2,-3.861580743E-3
2.090030589E1,1.611211337E-2,2.836264484E-2,-3.328948980E-3
2.092057625E1,9.720530361E-3,2.836264484E-2,-3.328948980E-3
2.094084662E1,4.394212738E-3,3.901528195E-2,-2.263685223E-3
2.096111693E1,1.731053460E-3,4.753739014E-2,-6.657897611E-4
2.098151693E1,1.731053460E-3,4.913528636E-2,-2.263685223E-3
2.100165761E1,6.524739787E-3,5.233107507E-2,-5.459476262E-3
2.102192797E1,1.078579482E-2,5.233107507E-2,-1.025316212E-2
2.104219828E1,1.078579482E-2,5.020054802E-2,-1.131842658E-2
2.106246865E1,1.398158539E-2,4.593949392E-2,-7.057371549E-3
2.108273896E1,1.771000773E-2,4.434159771E-2,2.530001104E-3
2.110300932E1,1.717737690E-2,4.434159771E-2,1.371526904E-2
2.112327964E1,1.291632187E-2,5.659212917E-2,2.010685205E-2
2.114354995E1,1.504684892E-2,3.848264739E-2,1.797632314E-2
2.116382031E1,8.655266836E-3,3.688475490E-2,9.986846708E-3
2.118409068E1,7.590003312E-3,3.795001656E-2,8.388951421E-3
2.120436099E1,6.524739787E-3,4.114580899E-2,7.856319658E-3
2.122463130E1,2.796316985E-3,4.221107066E-2,1.158474199E-2
2.124490167E1,1.198421582E-3,4.380896688E-2,1.584579609E-2
2.126517198E1,-2.530001104E-3,3.155843541E-2,1.478053257E-2
2.128544229E1,-5.725792143E-3,-5.725792143E-3,7.323687430E-3
2.130571260E1,-1.198421605E-2,-1.584579609E-2,3.062632866E-3
2.132598297E1,-1.890842989E-2,6.524739787E-3,8.388951421E-3
2.134625334E1,-2.316948399E-2,1.291632187E-2,1.478053257E-2
2.136652365E1,-2.263685316E-2,-7.323687430E-3,1.318263728E-2
2.138679396E1,-1.944106072E-2,-3.075948730E-2,1.318263728E-2
2.140706427E1,-1.145158429E-2,-3.928159550E-2,1.051947847E-2
2.142733458E1,-1.571263932E-2,-2.436790615E-2,4.127896391E-3
2.144760495E1,-2.689790726E-2,-9.454214945E-3,-2.263685223E-3
2.146787526E1,-3.755054250E-2,-1.478053257E-2,-7.057371549E-3
2.148814557E1,-4.820318148E-2,-2.543316968E-2,-1.025316212E-2
2.150841589E1,-4.660528526E-2,-4.194475710E-2,-5.459476262E-3
2.152868625E1,-3.435475379E-2,-5.313002318E-2,-2.263685223E-3
2.154895656E1,-2.583264373E-2,-4.780370742E-2,3.994738800E-4
2.156922688E1,-2.370211668E-2,-3.608580679E-2,1.464737463E-3
2.158949719E1,-2.316948399E-2,-3.928159550E-2,4.127896391E-3
2.160976750E1,-1.624527015E-2,-5.898897350E-2,4.127896391E-3
2.163003781E1,-1.411474310E-2,-5.739107728E-2,5.725792143E-3
2.165030818E1,-8.388951421E-3,-3.928159550E-2,-3.328948980E-3
2.167057844E1,-8.921583183E-3,-1.797632314E-2,-2.889527567E-2
2.169084875E1,-2.530001104E-2,-1.744369231E-2,-5.233107507E-2
2.171111912E1,-5.139897019E-2,-5.366265774E-2,-5.286370963E-2
2.173151912E1,-5.725792050E-2,-8.295740932E-2,-4.540686309E-2
2.175165974E1,-4.234423116E-2,-9.946899116E-2,-3.741738573E-2
2.177193005E1,-2.849580161E-2,-9.307741374E-2,-1.771000773E-2
2.179220037E1,-1.944106072E-2,-7.390266657E-2,1.371526904E-2
2.181247068E1,-9.853689000E-3,-6.111950055E-2,2.916159295E-2
2.183274099E1,8.655266836E-3,-5.685844645E-2,2.170474641E-2
2.185301130E1,1.451421715E-2,-4.833633825E-2,9.986846708E-3
2.187328162E1,3.328948980E-3,-3.874896467E-2,5.193160381E-3
2.189355193E1,-1.304947957E-2,-3.182475269E-2,1.997369342E-3
2.191382219E1,-2.316948399E-2,-2.063948289E-2,9.321057005E-4
2.193409250E1,-1.731053367E-2,-6.258423906E-3,-2.263685223E-3
2.195436281E1,-1.091895252E-2,9.187898599E-3,-5.459476262E-3
2.197463313E1,-6.791055668E-3,1.451421715E-2,-7.590003312E-3
2.199490344E1,-4.660528619E-3,2.889527567E-2,-1.078579482E-2
2.201517375E1,2.796316985E-3,4.966791719E-2,-9.187898599E-3
2.203544401E1,5.992108025E-3,5.925529078E-2,-1.025316212E-2
2.205571427E1,3.861580743E-3,6.458161026E-2,-9.187898599E-3
2.207611427E1,1.731053460E-3,7.150582224E-2,-2.796316985E-3
2.209625495E1,8.655266836E-3,7.416898012E-2,1.051947847E-2
2.211652521E1,1.557948068E-2,7.257108390E-2,1.371526904E-2
2.213679552E1,2.836264484E-2,6.617950648E-2,1.318263728E-2
2.215706584E1,3.049317189E-2,6.617950648E-2,1.265000552E-2
2.217746584E1,2.356895804E-2,5.765739456E-2,1.904158667E-2
2.219760641E1,2.037316747E-2,4.966791719E-2,2.703106403E-2
2.221787672E1,2.516685426E-2,4.380896688E-2,2.809632942E-2
2.223814698E1,2.996053919E-2,4.540686309E-2,2.277000993E-2
2.225841729E1,2.197106183E-2,4.221107066E-2,1.051947847E-2
2.227881729E1,1.185105834E-2,3.155843541E-2,1.464737463E-3
2.229895787E1,6.524739787E-3,2.942790836E-2,1.464737463E-3
2.231922818E1,8.122635074E-3,3.262370080E-2,5.725792143E-3
2.233949839E1,3.861580743E-3,2.996053919E-2,-1.331579551E-4
2.235976875E1,5.459476262E-3,9.187898599E-3,-8.655266836E-3
2.238016875E1,1.664474420E-2,-6.258423906E-3,-1.291632187E-2
2.240030932E1,3.209106624E-2,2.889527567E-2,3.062632866E-3
2.242057959E1,4.167843983E-2,7.150582224E-2,2.010685205E-2
2.244084985E1,4.274370521E-2,6.831002980E-2,2.596580051E-2
2.246112016E1,3.475422785E-2,3.635212034E-2,3.235738352E-2
2.248139047E1,1.611211337E-2,-1.105211023E-2,3.395527974E-2
2.250166073E1,2.796316985E-3,-4.620581120E-2,2.809632942E-2
2.252193099E1,-3.994738800E-4,-4.034686089E-2,2.010685205E-2
2.254220130E1,-3.994738800E-4,-2.010685205E-2,7.323687430E-3
2.256247156E1,-1.997369342E-3,-1.797632314E-2,-5.459476262E-3
2.258274182E1,-5.725792143E-3,-2.969422378E-2,-9.720530361E-3
2.260301214E1,-6.791055668E-3,-3.608580679E-2,-8.655266836E-3
2.262328240E1,-6.258423906E-3,-2.543316968E-2,-4.926844500E-3
2.264355266E1,-1.997369342E-3,-1.478053257E-2,2.530001104E-3
2.266382297E1,1.731053460E-3,1.731053460E-3,6.791055668E-3
2.268409323E1,6.524739787E-3,1.771000773E-2,5.725792143E-3
2.270436349E1,1.398158539E-2,3.901528195E-2,-7.590003312E-3
2.272463375E1,1.451421715E-2,6.351634115E-2,-1.131842658E-2
2.274490406E1,9.720530361E-3,6.990792602E-2,-1.824264042E-2
2.276517432E1,6.524739787E-3,4.008054361E-2,-1.771000773E-2
2.278544458E1,6.657897611E-4,-2.530001104E-3,-1.185105834E-2
2.280571484E1,-7.323687430E-3,-3.075948730E-2,1.051947847E-2
2.282598510E1,-1.251684781E-2,-3.555317223E-2,3.075948730E-2
2.284625542E1,-1.091895252E-2,-2.383527346E-2,3.874896467E-2
2.286652568E1,-4.660528619E-3,-1.584579609E-2,3.981423005E-2
2.288679594E1,5.992108025E-3,-3.555317223E-2,4.141212255E-2
2.290706620E1,1.930790395E-2,-4.886896908E-2,3.608580679E-2
2.292733646E1,3.475422785E-2,-3.715106845E-2,3.448791057E-2
2.294760672E1,4.327633604E-2,-2.703106403E-2,3.289001435E-2
2.296787698E1,3.368896246E-2,-4.514054582E-2,3.342264518E-2
2.298814724E1,1.185105834E-2,-7.709845901E-2,3.661843762E-2
2.300841750E1,2.796316985E-3,-9.094688296E-2,3.022685647E-2
2.302868776E1,2.090579830E-2,-8.934898674E-2,9.454214945E-3
2.304895802E1,2.623211779E-2,-6.005423889E-2,-1.344895363E-2
2.306922828E1,1.504684892E-2,-6.271740049E-2,-1.291632187E-2
2.308949854E1,-8.388951421E-3,-1.090563685E-1,-1.398158539E-2
2.310976880E1,-2.263685316E-2,-1.532648057E-1,-9.720530361E-3
2.313003906E1,-2.423474751E-2,-1.660479754E-1,3.994738800E-4
2.315030932E1,-1.890842989E-2,-1.735048145E-1,8.388951421E-3
2.317057959E1,-1.571263932E-2,-1.468732208E-1,7.323687430E-3
2.319084979E1,-1.784316637E-2,-7.390266657E-2,1.105211023E-2
2.321112005E1,-1.784316637E-2,-1.850895584E-2,1.265000552E-2
2.323139031E1,-5.725792143E-3,-1.957421936E-2,-5.992108025E-3
2.325166057E1,1.078579482E-2,-3.448791057E-2,-2.303632535E-2
2.327193084E1,1.344895363E-2,-7.856319658E-3,-1.344895363E-2
2.329220104E1,2.143843099E-2,2.729738131E-2,6.791055668E-3
2.331247136E1,3.049317189E-2,3.901528195E-2,1.584579609E-2
2.333274156E1,2.942790836E-2,2.676474862E-2,1.744369231E-2
2.335301182E1,2.516685426E-2,1.198421582E-3,1.584579609E-2
2.337328203E1,2.143843099E-2,-1.691105962E-2,7.856319658E-3
2.339355234E1,2.143843099E-2,-1.531316526E-2,-6.657897611E-4
2.341382255E1,2.143843099E-2,-1.424790081E-2,-7.057371549E-3
2.343409281E1,2.410159074E-2,-3.342264518E-2,-1.504684892E-2
2.345436307E1,2.410159074E-2,-6.165213138E-2,-1.451421715E-2
2.347463328E1,1.344895363E-2,-7.177213579E-2,-6.657897611E-4
2.349490354E1,2.263685223E-3,-7.230477035E-2,1.265000552E-2
2.351517380E1,-3.595264861E-3,-5.952160433E-2,2.010685205E-2
2.353544406E1,-3.595264861E-3,-4.354264960E-2,1.850895584E-2
2.355571427E1,-3.994738800E-4,-4.194475710E-2,6.258423906E-3
2.357598453E1,2.796316985E-3,-5.046686530E-2,-1.731053460E-3
2.359625474E1,-1.997369342E-3,-3.928159550E-2,-2.263685223E-3
2.361652500E1,-6.791055668E-3,8.655266836E-3,8.388951421E-3
2.363679521E1,-7.323687430E-3,4.913528636E-2,1.531316526E-2
2.365706547E1,-6.791055668E-3,5.126581341E-2,1.637842879E-2
2.367746547E1,-7.323687430E-3,2.729738131E-2,1.211737376E-2
2.369760594E1,-6.791055668E-3,3.861580743E-3,1.584579609E-2
2.371787620E1,1.398158539E-2,1.731053460E-3,2.969422378E-2
2.373814641E1,4.966791719E-2,2.516685426E-2,3.981423005E-2
2.375841662E1,8.322372288E-2,4.647212476E-2,5.459476262E-2
2.377881662E1,9.653951973E-2,6.351634115E-2,6.364950538E-2
2.379895708E1,8.162582666E-2,9.281109273E-2,6.418213248E-2
2.381922734E1,5.765739456E-2,1.466069072E-1,4.713791609E-2
2.383949755E1,4.061317816E-2,2.051964104E-1,1.051947847E-2
2.385976781E1,2.090579830E-2,2.142511457E-1,-1.611211337E-2
2.388016781E1,-6.791055668E-3,1.679121852E-1,-3.049317189E-2
2.390030828E1,-6.258423906E-3,1.183774248E-1,-3.049317189E-2
2.392057849E1,1.717737690E-2,9.867004305E-2,-1.877527125E-2
2.394084870E1,3.581948951E-2,9.547425061E-2,-1.731053460E-3
2.396111891E1,3.315633163E-2,1.029310971E-1,6.258423906E-3
2.398151891E1,2.729738131E-2,1.141163707E-1,6.791055668E-3
2.400165938E1,1.824264042E-2,1.018658355E-1,-6.657897611E-4
2.402192964E1,-1.464737463E-3,9.547425061E-2,-1.185105834E-2
2.404219985E1,-1.944106072E-2,1.386174262E-1,-1.984053478E-2
2.406247005E1,-1.411474310E-2,1.268995255E-1,-4.167843983E-2
2.408274026E1,-3.994738800E-4,3.049317189E-2,-6.617950648E-2
2.410301047E1,8.122635074E-3,-3.768370301E-2,-6.671213359E-2
2.412328073E1,2.889527567E-2,-4.407528415E-2,-6.191844866E-2
2.414355094E1,4.380896688E-2,-2.596580051E-2,-5.605949834E-2
2.416382115E1,3.528685868E-2,-6.791055668E-3,-5.819002539E-2
2.418409136E1,2.143843099E-2,2.463422157E-2,-5.499423668E-2
2.420436156E1,1.664474420E-2,4.327633604E-2,-5.605949834E-2
2.422463177E1,4.926844500E-3,1.557948068E-2,-6.351634115E-2
2.424490198E1,-1.091895252E-2,7.590003312E-3,-5.925529078E-2
2.426517219E1,-1.997369342E-2,2.090579830E-2,-4.327633604E-2
2.428544240E1,-4.127896577E-2,-2.170474641E-2,-2.516685426E-2
2.430571260E1,-6.151897460E-2,-1.026647836E-1,-2.263685223E-3
2.432598281E1,-5.619265884E-2,-1.996037811E-1,1.531316526E-2
2.434625302E1,-3.488738462E-2,-2.692453861E-1,3.022685647E-2
2.436652323E1,-7.323687430E-3,-2.937464416E-1,4.660528526E-2
2.438679344E1,1.557948068E-2,-2.948117256E-1,5.992107838E-2
2.440706365E1,2.197106183E-2,-2.884201407E-1,6.418213248E-2
2.442733386E1,2.356895804E-2,-2.596580088E-1,5.566002429E-2
2.444760406E1,2.942790836E-2,-1.772332340E-1,3.608580679E-2
2.446787427E1,2.996053919E-2,-5.259739235E-2,5.725792143E-3
2.448814448E1,1.025316212E-2,5.339634046E-2,-2.303632535E-2
2.450841469E1,-9.321057238E-3,1.157142594E-1,-2.463422157E-2
2.452868484E1,-1.038632076E-2,1.535311192E-1,-9.720530361E-3
2.454895505E1,1.824264042E-2,1.812279820E-1,6.258423906E-3
2.456922526E1,7.576687634E-2,1.588574350E-1,6.791055668E-3
2.458949547E1,1.119858399E-1,9.867004305E-2,1.464737463E-3
2.460976568E1,8.322372288E-2,8.322372288E-2,8.921583183E-3
2.463003589E1,3.475422785E-2,9.387636185E-2,2.330264263E-2
2.465030610E1,9.187898599E-3,5.925529078E-2,2.756369673E-2
2.467057625E1,-3.994738800E-4,2.996053919E-2,3.129211813E-2
2.469084646E1,-1.997369342E-3,6.351634115E-2,3.821633384E-2
2.471111662E1,1.877527125E-2,1.173121557E-1,4.034686089E-2
2.473151662E1,5.339634046E-2,1.498026997E-1,4.087949172E-2
2.475165703E1,8.215846121E-2,1.524658650E-1,4.141212255E-2
2.477192724E1,9.227846563E-2,1.908153445E-1,2.649843320E-2
2.479219740E1,8.428898454E-2,2.526006401E-1,1.371526904E-2
2.481246761E1,6.085318699E-2,2.653838098E-1,-2.796316985E-3
2.483273776E1,3.315633163E-2,2.398174703E-1,-2.143843099E-2
2.485300797E1,1.344895363E-2,2.206427306E-1,-2.996053919E-2
2.487327818E1,5.992108025E-3,2.051964104E-1,-3.954791278E-2
2.489354834E1,1.025316212E-2,1.716406047E-1,-4.061317816E-2
2.491381854E1,1.824264042E-2,1.311605871E-1,-2.729738131E-2
2.493408870E1,-3.062632866E-3,1.673795432E-1,-6.657897611E-4
2.495435891E1,-4.713791609E-2,2.648511827E-1,4.500738904E-2
2.497462912E1,-6.631266326E-2,2.014679909E-1,3.874896467E-2
2.499489927E1,-6.418213248E-2,3.102580272E-2,9.321057005E-4
2.501516943E1,-7.004108280E-2,-8.295740932E-2,-3.262370080E-2
2.503543964E1,-2.157158963E-2,-1.484711170E-1,-1.238369010E-2
2.505570979E1,3.315633163E-2,-1.015995219E-1,-2.410159074E-2
2.507598000E1,2.463422157E-2,-1.031974182E-1,-2.463422157E-2
2.509625016E1,-2.263685316E-2,-1.404816359E-1,-2.516685426E-2
2.511652037E1,-3.382211924E-2,-1.601890177E-1,-2.836264484E-2
2.513679052E1,-9.853689000E-3,-1.282311082E-1,-3.741738573E-2
2.515706073E1,7.590003312E-3,-7.550056279E-2,-4.540686309E-2
2.517746073E1,9.187898599E-3,-3.715106845E-2,-4.593949392E-2
2.519760104E1,-1.251684781E-2,-1.478053257E-2,-4.860265180E-2
2.521787125E1,-3.808317333E-2,9.187898599E-3,-4.540686309E-2
2.523814136E1,-4.340949282E-2,3.422159329E-2,-3.954791278E-2
2.525841156E1,-2.849580161E-2,4.167843983E-2,-3.581948951E-2
2.527881156E1,-5.725792143E-3,3.528685868E-2,-3.262370080E-2
2.529895193E1,1.078579482E-2,3.848264739E-2,-2.516685426E-2
2.531922208E1,2.143843099E-2,5.126581341E-2,-7.590003312E-3
2.533949229E1,2.996053919E-2,6.298371404E-2,6.791055668E-3
2.535976240E1,2.783001214E-2,7.629951090E-2,1.105211023E-2
2.538016240E1,9.720530361E-3,9.068056941E-2,1.424790081E-2
2.540030281E1,-5.193160381E-3,6.990792602E-2,4.660528619E-3
2.542057297E1,3.861580743E-3,2.796316985E-3,-1.238369010E-2
2.544084313E1,1.877527125E-2,-4.034686089E-2,-1.344895363E-2
2.546111328E1,2.569948509E-2,-5.725792143E-3,8.921583183E-3
2.548138344E1,2.516685426E-2,4.913528636E-2,3.395527974E-2
2.550165360E1,2.143843099E-2,5.339634046E-2,3.022685647E-2
2.552192380E1,1.877527125E-2,7.057371549E-3,1.637842879E-2
2.554219396E1,1.557948068E-2,-1.531316526E-2,7.856319658E-3
2.556246412E1,7.057371549E-3,5.459476262E-3,3.994738800E-4
2.558273427E1,-5.193160381E-3,-8.921583183E-3,-4.926844500E-3
2.560300443E1,-5.193160381E-3,-4.460791498E-2,-9.187898599E-3
2.562327458E1,-1.997369342E-3,-6.484792382E-2,-7.057371549E-3
2.564354474E1,-5.725792143E-3,-6.325002760E-2,3.595264861E-3
2.566381495E1,-1.304947957E-2,-6.218476593E-2,1.371526904E-2
2.568408510E1,-1.304947957E-2,-8.295740932E-2,1.744369231E-2
2.570435526E1,-2.530001104E-3,-1.042626798E-1,1.797632314E-2
2.572475526E1,9.720530361E-3,-8.828372508E-2,2.277000993E-2
2.574489557E1,1.291632187E-2,-5.792371184E-2,2.596580051E-2
2.576516573E1,7.590003312E-3,-4.034686089E-2,2.063948289E-2
2.578543589E1,2.796316985E-3,-3.661843762E-2,1.211737376E-2
2.580570604E1,6.657897611E-4,-4.301001877E-2,3.595264861E-3
2.582597620E1,6.657897611E-4,-3.981423005E-2,-6.657897611E-4
2.584624636E1,-5.725792143E-3,-5.099949613E-2,-6.657897611E-4
2.586651651E1,-2.210422046E-2,-7.070687413E-2,5.193160381E-3
2.588678667E1,-3.009369783E-2,-7.709845901E-2,1.158474199E-2
2.590705682E1,-2.050632425E-2,-7.337003201E-2,1.265000552E-2
2.592732698E1,-1.038632076E-2,-6.484792382E-2,3.595264861E-3
2.594759714E1,-8.388951421E-3,-4.727107286E-2,-3.328948980E-3
2.596786729E1,-9.853689000E-3,-3.555317223E-2,-3.328948980E-3
2.598813745E1,-1.091895252E-2,-3.342264518E-2,-1.331579551E-4
2.600840761E1,-1.038632076E-2,-2.383527346E-2,1.105211023E-2
2.602867776E1,-8.921583183E-3,-1.744369231E-2,1.797632314E-2
2.604894787E1,-7.856319658E-3,-1.265000552E-2,1.691105962E-2
2.606921802E1,6.657897611E-4,-4.127896391E-3,1.424790081E-2
2.608948818E1,1.398158539E-2,-3.994738800E-4,1.105211023E-2
2.610975834E1,1.717737690E-2,-3.062632866E-3,6.791055668E-3
2.613002844E1,1.078579482E-2,-8.388951421E-3,9.986846708E-3
2.615029860E1,3.328948980E-3,-2.063948289E-2,1.371526904E-2
2.617056875E1,-5.193160381E-3,-2.490053698E-2,1.158474199E-2
2.619083891E1,-1.198421605E-2,-7.856319658E-3,1.051947847E-2
2.621110901E1,-5.193160381E-3,-4.127896391E-3,6.258423906E-3
2.623137917E1,-4.660528619E-3,-2.969422378E-2,-6.657897611E-4
2.625164932E1,-1.251684781E-2,-4.620581120E-2,3.994738800E-4
2.627191943E1,-1.464737486E-2,-2.809632942E-2,1.371526904E-2
2.629218959E1,-3.994738800E-4,-1.265000552E-2,2.010685205E-2
2.631245974E1,4.926844500E-3,-2.543316968E-2,1.158474199E-2
2.633272985E1,-8.388951421E-3,-4.354264960E-2,2.530001104E-3
2.635300000E1,-1.358211134E-2,-5.259739235E-2,9.321057005E-4
2.637327016E1,-9.321057238E-3,-2.916159295E-2,-6.657897611E-4
2.639354026E1,6.657897611E-4,-1.051947847E-2,-1.331579551E-4
2.641381042E1,3.861580743E-3,-1.904158667E-2,-3.861580743E-3
2.643408052E1,-3.595264861E-3,-3.395527974E-2,-2.796316985E-3
2.645435068E1,-8.388951421E-3,-1.478053257E-2,4.127896391E-3
2.647462084E1,-2.530001104E-3,-2.530001104E-3,8.388951421E-3
2.649489094E1,1.331579551E-4,-1.957421936E-2,5.193160381E-3
2.651516110E1,-7.856319658E-3,-2.117211558E-2,2.530001104E-3
2.653543120E1,-1.145158429E-2,1.731053460E-3,2.530001104E-3
2.655570136E1,-9.321057238E-3,2.263685223E-3,-3.861580743E-3
2.657610136E1,-5.193160381E-3,-1.531316526E-2,-1.398158539E-2
2.659624162E1,-3.595264861E-3,-1.904158667E-2,-1.877527125E-2
2.661651172E1,2.796316985E-3,8.655266836E-3,-7.590003312E-3
2.663678188E1,4.926844500E-3,3.528685868E-2,6.258423906E-3
2.665705198E1,-3.595264861E-3,2.197106183E-2,6.258423906E-3
2.667745198E1,6.657897611E-4,-3.595264861E-3,2.530001104E-3
2.669759224E1,1.291632187E-2,-3.595264861E-3,3.595264861E-3
2.671786234E1,1.824264042E-2,7.590003312E-3,1.371526904E-2
2.673813250E1,1.664474420E-2,1.877527125E-2,2.170474641E-2
2.675840260E1,1.984053478E-2,3.475422785E-2,2.170474641E-2
2.677880261E1,2.303632535E-2,3.954791278E-2,1.318263728E-2
2.679894287E1,1.771000773E-2,2.729738131E-2,4.127896391E-3
2.681921297E1,7.057371549E-3,1.131842658E-2,-3.328948980E-3
2.683948307E1,5.459476262E-3,2.250369452E-2,-7.590003312E-3
2.685975323E1,7.057371549E-3,3.848264739E-2,-1.238369010E-2
2.688015323E1,-5.725792143E-3,4.008054361E-2,-1.131842658E-2
2.690029349E1,-1.358211134E-2,4.114580899E-2,-1.291632187E-2
2.692056360E1,-1.198421605E-2,4.274370521E-2,-1.344895363E-2
2.694083370E1,-1.304947957E-2,2.410159074E-2,-1.664474420E-2
2.696110380E1,-1.837579720E-2,-9.454214945E-3,-1.451421715E-2
2.698150380E1,-2.583264373E-2,-9.986846708E-3,-1.611211337E-2
2.700164406E1,-2.902843431E-2,1.025316212E-2,-1.291632187E-2
2.702191417E1,-2.849580161E-2,1.771000773E-2,-5.992108025E-3
2.704218427E1,-2.050632425E-2,5.992108025E-3,-4.926844500E-3
2.706245438E1,-9.321057005E-4,-5.725792143E-3,-8.655266836E-3
2.708272453E1,1.131842658E-2,6.524739787E-3,-1.078579482E-2
2.710299464E1,5.459476262E-3,3.315633163E-2,-5.992108025E-3
2.712326474E1,-1.997369342E-3,5.339634046E-2,-1.198421582E-3
2.714353484E1,-4.660528619E-3,6.351634115E-2,-7.057371549E-3
2.716380500E1,-5.725792143E-3,6.617950648E-2,-1.185105834E-2
2.718407510E1,-7.323687430E-3,7.203845680E-2,-1.504684892E-2
2.720434521E1,-8.921583183E-3,8.961530030E-2,-1.344895363E-2
2.722461531E1,-1.251684781E-2,9.387636185E-2,-1.238369010E-2
2.724488542E1,-1.251684781E-2,8.162582666E-2,-1.185105834E-2
2.726515552E1,-9.321057238E-3,6.777740270E-2,-9.720530361E-3
2.728542563E1,-1.464737463E-3,6.458161026E-2,-9.720530361E-3
2.730569573E1,6.657897611E-4,5.605949834E-2,-7.057371549E-3
2.732596584E1,1.331579551E-4,3.848264739E-2,-4.926844500E-3
2.734623594E1,1.198421582E-3,2.996053919E-2,-2.796316985E-3
2.736650604E1,2.263685223E-3,3.475422785E-2,-2.796316985E-3
2.738677620E1,1.331579551E-4,3.528685868E-2,-2.796316985E-3
2.740704625E1,-9.321057005E-4,2.250369452E-2,-1.731053460E-3
2.742731641E1,-4.660528619E-3,1.291632187E-2,-3.861580743E-3
2.744758646E1,-8.388951421E-3,1.185105834E-2,1.464737463E-3
2.746785662E1,-5.193160381E-3,3.861580743E-3,1.997369342E-3
2.748812672E1,-3.062632866E-3,-1.265000552E-2,2.530001104E-3
2.750839682E1,-9.853689000E-3,-1.957421936E-2,4.127896391E-3
2.752866682E1,-1.464737486E-2,-1.158474199E-2,3.595264861E-3
2.754893698E1,-1.198421605E-2,6.524739787E-3,-2.796316985E-3
2.756920709E1,-1.304947957E-2,2.090579830E-2,-4.926844500E-3
2.758947719E1,-1.518000662E-2,1.611211337E-2,-3.861580743E-3
2.760974729E1,-8.388951421E-3,1.731053460E-3,-1.291632187E-2
2.763001740E1,2.796316985E-3,6.524739787E-3,-1.611211337E-2
2.765028750E1,4.394212738E-3,1.877527125E-2,-1.185105834E-2
2.767055755E1,-3.595264861E-3,1.451421715E-2,-5.992108025E-3
2.769082771E1,-1.571263932E-2,7.590003312E-3,-2.796316985E-3
2.771109781E1,-2.050632425E-2,9.720530361E-3,-1.331579551E-4
2.773149781E1,-1.198421605E-2,6.524739787E-3,3.994738800E-4
2.775163797E1,-3.595264861E-3,-5.725792143E-3,-5.459476262E-3
2.777190807E1,1.198421582E-3,-1.478053257E-2,-1.731053460E-3
2.779217818E1,2.796316985E-3,-1.691105962E-2,7.856319658E-3
2.781244828E1,1.078579482E-2,-2.010685205E-2,1.904158667E-2
2.783271839E1,1.451421715E-2,3.861580743E-3,2.703106403E-2
2.785298849E1,1.131842658E-2,4.540686309E-2,2.383527346E-2
2.787325860E1,1.078579482E-2,6.617950648E-2,1.105211023E-2
2.789352865E1,8.655266836E-3,8.482161909E-2,-6.524739787E-3
2.791379875E1,1.291632187E-2,1.002679393E-1,-1.824264042E-2
2.793406886E1,1.717737690E-2,9.227846563E-2,-2.516685426E-2
2.795433896E1,1.504684892E-2,7.523424178E-2,-2.516685426E-2
2.797460901E1,-1.997369342E-3,7.523424178E-2,-1.025316212E-2
2.799487912E1,-1.411474310E-2,8.162582666E-2,3.595264861E-3
2.801514922E1,-1.358211134E-2,6.085318699E-2,6.258423906E-3
2.803541932E1,-2.530001104E-3,3.102580272E-2,3.062632866E-3
2.805568943E1,1.025316212E-2,2.197106183E-2,3.062632866E-3
2.807595948E1,1.930790395E-2,3.049317189E-2,4.127896391E-3
2.809622959E1,1.504684892E-2,2.889527567E-2,9.454214945E-3
2.811649969E1,1.731053460E-3,1.611211337E-2,1.318263728E-2
2.813676979E1,-1.198421605E-2,6.524739787E-3,9.986846708E-3
2.815703985E1,-1.518000662E-2,-6.258423906E-3,9.321057005E-4
2.817743985E1,-1.091895252E-2,-2.649843320E-2,-9.720530361E-3
2.819758005E1,-6.791055668E-3,-3.555317223E-2,-5.992108025E-3
2.821785016E1,-1.091895252E-2,-1.797632314E-2,9.321057005E-4
2.823812026E1,-1.304947957E-2,7.057371549E-3,3.595264861E-3
2.825839037E1,-9.853689000E-3,1.398158539E-2,-3.861580743E-3
2.827879037E1,-8.921583183E-3,1.025316212E-2,-8.655266836E-3
2.829893052E1,-1.198421605E-2,7.590003312E-3,-7.057371549E-3
2.831920063E1,-1.198421605E-2,-7.323687430E-3,-4.926844500E-3
2.833947073E1,-7.323687430E-3,-1.904158667E-2,-2.263685223E-3
2.835974084E1,-2.530001104E-3,-1.158474199E-2,4.127896391E-3
2.838014084E1,-6.258423906E-3,-1.957421936E-2,8.921583183E-3
2.840028104E1,-1.358211134E-2,-2.862896025E-2,6.791055668E-3
2.842055115E1,-1.358211134E-2,-1.265000552E-2,1.051947847E-2
2.844082125E1,-8.921583183E-3,-3.994738800E-4,1.105211023E-2
2.846109136E1,-1.464737463E-3,-1.371526904E-2,3.595264861E-3
2.848149136E1,-3.994738800E-4,-2.649843320E-2,-1.331579551E-4
2.850163156E1,-5.725792143E-3,-1.957421936E-2,6.258423906E-3
2.852190167E1,-8.921583183E-3,-7.323687430E-3,1.211737376E-2
2.854217177E1,-9.321057238E-3,-2.530001104E-3,9.986846708E-3
2.856244188E1,-1.145158429E-2,-4.127896391E-3,2.530001104E-3
2.858271198E1,-1.358211134E-2,-4.660528619E-3,-3.328948980E-3
2.860298208E1,-3.062632866E-3,-1.051947847E-2,-7.057371549E-3
2.862325224E1,9.720530361E-3,-1.797632314E-2,3.062632866E-3
2.864352234E1,7.057371549E-3,-1.051947847E-2,1.584579609E-2
2.866379245E1,1.331579551E-4,-7.323687430E-3,1.797632314E-2
2.868406255E1,-4.127896391E-3,-1.105211023E-2,5.725792143E-3
2.870433266E1,-9.321057005E-4,-5.725792143E-3,-1.731053460E-3
2.872460276E1,6.657897611E-4,7.057371549E-3,-3.861580743E-3
2.874487287E1,-3.994738800E-4,9.187898599E-3,-1.198421582E-3
2.876514297E1,-3.994738800E-4,4.926844500E-3,1.997369342E-3
2.878541307E1,2.263685223E-3,6.524739787E-3,2.530001104E-3
2.880568323E1,6.657897611E-4,1.331579551E-4,4.127896391E-3
2.882595334E1,-1.464737463E-3,-2.969422378E-2,5.725792143E-3
2.884622344E1,8.122635074E-3,-5.206476152E-2,1.211737376E-2
2.886649354E1,2.250369452E-2,-4.567318037E-2,2.649843320E-2
2.888676365E1,1.344895363E-2,-2.756369673E-2,3.289001435E-2
2.890703380E1,-1.677790284E-2,-2.703106403E-2,4.034686089E-2
2.892730391E1,-3.009369783E-2,-3.395527974E-2,3.129211813E-2
2.894757401E1,-1.518000662E-2,-2.543316968E-2,9.454214945E-3
2.896784412E1,-3.994738800E-4,-9.986846708E-3,-4.394212738E-3
2.898811422E1,5.992108025E-3,2.796316985E-3,-8.122635074E-3
2.900838438E1,1.078579482E-2,8.122635074E-3,-3.328948980E-3
2.902865448E1,1.131842658E-2,1.238369010E-2,-1.331579551E-4
2.904892458E1,1.025316212E-2,1.611211337E-2,1.464737463E-3
2.906919474E1,4.926844500E-3,1.731053460E-3,4.127896391E-3
2.908946485E1,6.657897611E-4,-2.862896025E-2,6.791055668E-3
2.910973495E1,-3.994738800E-4,-5.206476152E-2,8.921583183E-3
2.913000511E1,-3.595264861E-3,-6.378266215E-2,1.744369231E-2
2.915027521E1,-2.423474751E-2,-6.857634336E-2,2.596580051E-2
2.917054531E1,-4.287686199E-2,-7.709845901E-2,3.022685647E-2
2.919081547E1,-3.968106955E-2,-7.656582445E-2,2.063948289E-2
2.921108557E1,-2.316948399E-2,-6.591318548E-2,8.388951421E-3
2.923135568E1,-1.251684781E-2,-5.313002318E-2,2.530001104E-3
2.925162578E1,-5.725792143E-3,-3.182475269E-2,9.321057005E-4
2.927189594E1,1.331579551E-4,9.187898599E-3,1.997369342E-3
2.929216604E1,4.926844500E-3,5.392897129E-2,-3.861580743E-3
2.931243615E1,4.394212738E-3,7.416898012E-2,-1.131842658E-2
2.933270630E1,2.796316985E-3,8.375635743E-2,-1.771000773E-2
2.935297641E1,1.557948068E-2,1.098553166E-1,-1.717737690E-2
2.937324651E1,3.795001656E-2,1.524658650E-1,-1.504684892E-2
2.939351667E1,4.008054361E-2,1.902827173E-1,-1.984053478E-2
2.941378677E1,1.238369010E-2,1.924132407E-1,-2.356895804E-2
2.943405693E1,-1.518000662E-2,1.535311192E-1,-3.688475490E-2
2.945432703E1,-3.382211924E-2,1.103879437E-1,-4.221107066E-2
2.947459714E1,-4.554001987E-2,9.760478139E-2,-3.528685868E-2
2.949486729E1,-4.713791609E-2,5.819002539E-2,-2.836264484E-2
2.951513740E1,-4.500738904E-2,-5.579318479E-2,-2.942790836E-2
2.953540755E1,-5.139897019E-2,-1.948100924E-1,-2.197106183E-2
2.955567766E1,-5.406212807E-2,-2.958769798E-1,9.321057005E-4
2.957594776E1,-5.672528967E-2,-3.352917433E-1,3.448791057E-2
2.959621792E1,-5.193160102E-2,-3.001380265E-1,6.578002870E-2
2.961648802E1,-3.914843872E-2,-2.182458937E-1,7.536740601E-2
2.963675818E1,-2.796317078E-2,-1.596563905E-1,5.352949724E-2
2.965702828E1,-1.837579720E-2,-1.431448013E-1,1.997369342E-3
2.967742828E1,-1.731053367E-2,-1.298290044E-1,-4.114580899E-2
2.969756854E1,-4.021370411E-2,-9.414267540E-2,-4.807002097E-2
2.971783865E1,-5.406212807E-2,-4.407528415E-2,-3.049317189E-2
2.973810880E1,-5.086633936E-2,-1.158474199E-2,-7.057371549E-3
2.975837891E1,-4.713791609E-2,-1.957421936E-2,9.986846708E-3
2.977877891E1,-3.595264629E-2,-6.111950055E-2,1.904158667E-2
2.979891917E1,-1.784316637E-2,-8.668582886E-2,1.637842879E-2
2.981918932E1,-5.193160381E-3,-6.697845459E-2,1.797632314E-2
2.983945943E1,-1.997369342E-3,-4.087949172E-2,1.797632314E-2
2.985972958E1,-4.660528619E-3,-4.301001877E-2,1.051947847E-2
2.988012959E1,-4.127896391E-3,-6.644582003E-2,-4.394212738E-3
2.990026979E1,-9.321057238E-3,-7.976161689E-2,-1.398158539E-2
2.992053995E1,-1.944106072E-2,-7.017423958E-2,-2.263685223E-3
2.994081005E1,-2.316948399E-2,-5.153212696E-2,1.797632314E-2
2.996108016E1,-1.677790284E-2,-3.874896467E-2,3.182475269E-2
2.998148016E1,-2.530001104E-3,-2.596580051E-2,2.969422378E-2
3.000162042E1,1.238369010E-2,-2.277000993E-2,1.957421936E-2
3.002189057E1,1.398158539E-2,-1.424790081E-2,7.323687430E-3
3.004216068E1,7.590003312E-3,-4.127896391E-3,5.193160381E-3
3.006243084E1,7.590003312E-3,7.057371549E-3,5.725792143E-3
3.008270094E1,1.504684892E-2,2.729738131E-2,9.986846708E-3
3.010297104E1,1.824264042E-2,4.647212476E-2,9.454214945E-3
3.012324120E1,2.090579830E-2,4.647212476E-2,7.323687430E-3
3.014351130E1,2.569948509E-2,3.741738573E-2,1.997369342E-3
3.016378146E1,1.771000773E-2,2.569948509E-2,-6.657897611E-4
3.018405156E1,4.394212738E-3,1.771000773E-2,-1.731053460E-3
3.020432172E1,-3.595264861E-3,1.504684892E-2,-2.263685223E-3
3.022459182E1,-5.193160381E-3,1.344895363E-2,-1.331579551E-4
3.024486198E1,1.731053460E-3,5.992108025E-3,1.997369342E-3
3.026513208E1,1.611211337E-2,-2.530001104E-3,-6.657897611E-4
3.028540224E1,2.303632535E-2,-4.127896391E-3,-4.394212738E-3
3.030567234E1,2.303632535E-2,-9.321057005E-4,-1.331579551E-4
3.032594245E1,2.569948509E-2,5.992108025E-3,6.258423906E-3
3.034621260E1,3.102580272E-2,1.025316212E-2,9.986846708E-3
3.036648266E1,2.889527567E-2,1.291632187E-2,1.158474199E-2
3.038675287E1,2.410159074E-2,1.877527125E-2,6.791055668E-3
3.040702297E1,2.037316747E-2,1.877527125E-2,-5.459476262E-3
3.042729313E1,1.877527125E-2,2.676474862E-2,-1.291632187E-2
3.044756323E1,1.717737690E-2,4.487423226E-2,-1.398158539E-2
3.046783339E1,1.078579482E-2,6.671213359E-2,-1.025316212E-2
3.048810349E1,8.655266836E-3,6.724476814E-2,-8.122635074E-3
3.050837360E1,1.344895363E-2,5.872265995E-2,-9.187898599E-3
3.052864375E1,2.037316747E-2,5.446160212E-2,-5.459476262E-3
3.054891391E1,2.463422157E-2,6.298371404E-2,-6.657897611E-4
3.056918401E1,2.356895804E-2,6.884266436E-2,3.994738800E-4
3.058945412E1,2.197106183E-2,6.884266436E-2,-3.861580743E-3
3.060972427E1,1.984053478E-2,6.990792602E-2,-4.926844500E-3
3.062999443E1,2.143843099E-2,6.351634115E-2,-1.331579551E-4
3.065026453E1,2.090579830E-2,5.552686751E-2,3.062632866E-3
3.067053464E1,1.771000773E-2,5.286370963E-2,3.994738800E-4
3.069080479E1,9.720530361E-3,5.286370963E-2,3.595264861E-3
3.071107490E1,6.657897611E-4,4.913528636E-2,1.997369342E-3
3.073147490E1,-4.127896391E-3,4.647212476E-2,-1.198421582E-3
3.075161516E1,-1.997369342E-3,4.114580899E-2,1.464737463E-3
3.077188531E1,1.331579551E-4,4.380896688E-2,1.051947847E-2
3.079215542E1,1.198421582E-3,5.233107507E-2,1.318263728E-2
3.081242557E1,6.657897611E-4,5.020054802E-2,6.791055668E-3
3.083269568E1,-5.193160381E-3,3.741738573E-2,-9.187898599E-3
3.085296584E1,-1.091895252E-2,2.410159074E-2,-1.984053478E-2
3.087323599E1,-9.321057238E-3,1.771000773E-2,-2.463422157E-2
3.089350610E1,-4.660528619E-3,2.729738131E-2,-1.557948068E-2
3.091377620E1,-1.411474310E-2,3.795001656E-2,-4.394212738E-3
3.093404636E1,-2.902843431E-2,3.262370080E-2,-2.796316985E-3
3.095431646E1,-2.316948399E-2,2.090579830E-2,-6.524739787E-3
3.097458662E1,-1.731053367E-2,1.557948068E-2,-1.078579482E-2
3.099485672E1,-1.571263932E-2,4.394212738E-3,-1.344895363E-2
3.101512688E1,-1.997369342E-2,-1.051947847E-2,-1.664474420E-2
3.103539698E1,-2.849580161E-2,-2.703106403E-2,-1.344895363E-2
3.105566787E1,-4.021370411E-2,-4.993423447E-2,-1.717737690E-2
3.107606787E1,-4.234423116E-2,-6.484792382E-2,-1.504684892E-2
3.109620740E1,-3.755054250E-2,-6.218476593E-2,-8.655266836E-3
3.111647750E1,-3.968106955E-2,-5.259739235E-2,-1.131842658E-2
3.113674766E1,-4.074633494E-2,-4.354264960E-2,-1.185105834E-2
3.115701776E1,-3.169159219E-2,-2.383527346E-2,-1.078579482E-2
3.117741776E1,-1.411474310E-2,7.590003312E-3,-8.655266836E-3
3.119755802E1,1.331579551E-4,2.463422157E-2,-1.331579551E-4
3.121782818E1,2.796316985E-3,4.008054361E-2,6.791055668E-3
3.123809828E1,2.796316985E-3,5.712476373E-2,8.921583183E-3
3.125836844E1,8.122635074E-3,5.978792161E-2,2.530001104E-3
3.127876844E1,1.344895363E-2,3.528685868E-2,-3.328948980E-3
3.129890870E1,6.524739787E-3,3.102580272E-2,-2.796316985E-3
3.131917880E1,-1.038632076E-2,6.032055244E-2,7.323687430E-3
3.133944896E1,-2.476738021E-2,8.109319210E-2,-1.331579551E-4
3.135971906E1,-2.530001104E-2,6.990792602E-2,-2.623211779E-2
3.138011906E1,-1.571263932E-2,4.593949392E-2,-4.061317816E-2
3.140025938E1,-1.091895252E-2,2.250369452E-2,-4.008054361E-2
3.142052948E1,-1.304947957E-2,5.459476262E-3,-3.102580272E-2
3.144079964E1,-2.050632425E-2,-1.637842879E-2,-2.197106183E-2
3.146106974E1,-3.115896136E-2,-5.046686530E-2,-1.984053478E-2
3.148133990E1,-4.074633494E-2,-9.627319872E-2,-1.877527125E-2
3.150161000E1,-4.447475821E-2,-1.250353158E-1,-1.025316212E-2
3.152188016E1,-4.394212365E-2,-1.202416345E-1,2.530001104E-3
3.154215026E1,-3.328948840E-2,-9.467530251E-2,7.323687430E-3
3.156242042E1,-2.050632425E-2,-6.964161247E-2,3.595264861E-3
3.158269052E1,-1.784316637E-2,-5.206476152E-2,-7.590003312E-3
3.160296068E1,-2.157158963E-2,-4.301001877E-2,-2.090579830E-2
3.162323078E1,-2.689790726E-2,-4.087949172E-2,-2.729738131E-2
3.164350089E1,-3.435475379E-2,-3.555317223E-2,-2.729738131E-2
3.166377104E1,-3.435475379E-2,-3.022685647E-2,-3.049317189E-2
3.168404115E1,-3.328948840E-2,-2.490053698E-2,-3.635212034E-2
3.170431125E1,-3.914843872E-2,-2.223737910E-2,-3.954791278E-2
3.172458141E1,-3.648528084E-2,-1.957421936E-2,-3.688475490E-2
3.174485151E1,-2.743053809E-2,-3.075948730E-2,-3.155843541E-2
3.176512167E1,-1.784316637E-2,-6.058686972E-2,-2.197106183E-2
3.178539177E1,-4.127896391E-3,-9.201214463E-2,-4.926844500E-3
3.180566188E1,1.824264042E-2,-1.074584723E-1,1.904158667E-2
3.182593203E1,4.593949392E-2,-1.058605760E-1,4.873581231E-2
3.184620214E1,6.724476814E-2,-9.787109494E-2,7.057371736E-2
3.186647224E1,7.629951090E-2,-1.005342528E-1,8.282424510E-2
3.188674240E1,6.831002980E-2,-1.042626798E-1,8.229161799E-2
3.190701250E1,5.179844424E-2,-9.147951752E-2,6.791055948E-2
3.192728261E1,3.422159329E-2,-6.644582003E-2,5.619265884E-2
3.194755276E1,2.090579830E-2,-3.182475269E-2,4.394212365E-2
3.196782287E1,2.037316747E-2,4.394212738E-3,2.703106403E-2
3.198809297E1,2.250369452E-2,2.676474862E-2,1.478053257E-2
3.200836307E1,1.451421715E-2,4.221107066E-2,7.856319658E-3
3.202863323E1,1.331579551E-4,7.044056058E-2,5.193160381E-3
3.204890334E1,-3.062632866E-3,9.653951973E-2,-7.057371549E-3
3.206917344E1,-1.464737463E-3,1.109205782E-1,-2.303632535E-2
3.208944354E1,-1.038632076E-2,1.290300637E-1,-3.581948951E-2
3.210971365E1,-1.518000662E-2,1.423458606E-1,-4.008054361E-2
3.212998380E1,-7.323687430E-3,1.535311192E-1,-3.901528195E-2
3.215025391E1,-3.062632866E-3,1.583248079E-1,-3.581948951E-2
3.217052401E1,-8.921583183E-3,1.482048035E-1,-2.676474862E-2
3.219079412E1,-1.784316637E-2,1.157142594E-1,-1.930790395E-2
3.221106427E1,-1.251684781E-2,8.801741153E-2,-1.451421715E-2
3.223133438E1,-8.921583183E-3,9.174583107E-2,-7.057371549E-3
3.225160448E1,-1.784316637E-2,9.973530471E-2,2.530001104E-3
3.227187464E1,-2.476738021E-2,8.535424620E-2,2.530001104E-3
3.229214469E1,-1.464737486E-2,5.605949834E-2,-6.524739787E-3
3.231241484E1,7.590003312E-3,5.179844424E-2,-3.328948980E-3
3.233268495E1,2.569948509E-2,5.765739456E-2,3.062632866E-3
3.235295505E1,2.996053919E-2,5.339634046E-2,8.388951421E-3
3.237322516E1,2.197106183E-2,5.020054802E-2,9.986846708E-3
3.239349531E1,8.655266836E-3,3.741738573E-2,6.791055668E-3
3.241376542E1,-4.127896391E-3,1.930790395E-2,-1.198421582E-3
3.243403552E1,-1.358211134E-2,7.590003312E-3,-3.328948980E-3
3.245430563E1,-1.944106072E-2,1.291632187E-2,3.994738800E-4
3.247457573E1,-2.583264373E-2,1.824264042E-2,9.321057005E-4
3.249484589E1,-3.328948840E-2,3.861580743E-3,-6.657897611E-4
3.251511599E1,-3.488738462E-2,-1.797632314E-2,-7.057371549E-3
3.253538610E1,-2.263685316E-2,-2.543316968E-2,-1.291632187E-2
3.255565620E1,-8.921583183E-3,-2.530001104E-3,-1.611211337E-2
3.257592630E1,-4.660528619E-3,1.025316212E-2,-1.451421715E-2
3.259619641E1,-1.251684781E-2,-1.637842879E-2,-7.590003312E-3
3.261646651E1,-2.849580161E-2,-6.538055837E-2,3.595264861E-3
3.263673667E1,-4.021370411E-2,-1.031974182E-1,1.105211023E-2
3.265700677E1,-3.542001545E-2,-1.213068962E-1,1.211737376E-2
3.267740677E1,-2.423474751E-2,-1.069258377E-1,1.637842879E-2
3.269754698E1,-1.890842989E-2,-8.295740932E-2,1.637842879E-2
3.271781708E1,-1.944106072E-2,-7.816372067E-2,-1.331579551E-4
3.273808719E1,-2.103895694E-2,-8.988162130E-2,-1.930790395E-2
3.275835729E1,-2.902843431E-2,-8.402267098E-2,-2.836264484E-2
3.277875729E1,-3.488738462E-2,-6.751108170E-2,-2.569948509E-2
3.279889755E1,-3.542001545E-2,-6.538055837E-2,-2.197106183E-2
3.281916766E1,-3.275685757E-2,-7.177213579E-2,-2.356895804E-2
3.283943776E1,-2.902843431E-2,-7.550056279E-2,-2.463422157E-2
3.285970787E1,-2.476738021E-2,-7.656582445E-2,-2.676474862E-2
3.288010787E1,-2.050632425E-2,-8.029424399E-2,-2.516685426E-2
3.290024807E1,-2.157158963E-2,-7.763108611E-2,-1.824264042E-2
3.292051818E1,-2.210422046E-2,-7.177213579E-2,-1.025316212E-2
3.294078828E1,-2.316948399E-2,-7.390266657E-2,-7.057371549E-3
3.296105839E1,-1.677790284E-2,-8.508793265E-2,-6.524739787E-3
3.298145839E1,1.331579551E-4,-8.721846342E-2,-5.459476262E-3
3.300159854E1,2.250369452E-2,-6.378266215E-2,-1.198421582E-3
3.302186865E1,3.848264739E-2,-3.661843762E-2,5.193160381E-3
3.304213880E1,3.422159329E-2,-2.862896025E-2,1.424790081E-2
3.306240886E1,1.131842658E-2,-3.502054140E-2,2.277000993E-2
3.308267896E1,-1.145158429E-2,-3.555317223E-2,2.543316968E-2
3.310294906E1,-1.518000662E-2,-2.170474641E-2,1.584579609E-2
3.312321917E1,-7.323687430E-3,1.331579551E-4,6.258423906E-3
3.314348927E1,2.796316985E-3,3.049317189E-2,5.193160381E-3
3.316375938E1,1.185105834E-2,5.925529078E-2,1.105211023E-2
3.318402948E1,2.143843099E-2,7.683213800E-2,1.850895584E-2
3.320429958E1,2.197106183E-2,6.724476814E-2,2.010685205E-2
3.322456964E1,2.037316747E-2,4.274370521E-2,1.637842879E-2
3.324483974E1,1.451421715E-2,3.368896246E-2,9.986846708E-3
3.326510985E1,2.796316985E-3,3.262370080E-2,3.595264861E-3
3.328537995E1,-1.411474310E-2,2.037316747E-2,-3.328948980E-3
3.330565005E1,-2.263685316E-2,9.720530361E-3,-7.590003312E-3
3.332592016E1,-1.784316637E-2,2.143843099E-2,-6.524739787E-3
3.334619021E1,-9.321057238E-3,3.155843541E-2,-5.459476262E-3
3.336646031E1,-5.725792143E-3,2.569948509E-2,-1.238369010E-2
3.338673042E1,-3.062632866E-3,2.410159074E-2,-1.877527125E-2
3.340700052E1,-6.258423906E-3,2.623211779E-2,-1.984053478E-2
3.342727057E1,-1.624527015E-2,1.611211337E-2,-1.930790395E-2
3.344754068E1,-2.423474751E-2,5.459476262E-3,-1.717737690E-2
3.346781078E1,-2.263685316E-2,8.655266836E-3,-1.557948068E-2
3.348808089E1,-1.731053367E-2,1.238369010E-2,-1.877527125E-2
3.350835094E1,-1.145158429E-2,1.131842658E-2,-1.930790395E-2
3.352862104E1,-4.660528619E-3,1.611211337E-2,-1.398158539E-2
3.354889115E1,7.590003312E-3,2.676474862E-2,-3.328948980E-3
3.356916120E1,1.771000773E-2,3.102580272E-2,6.791055668E-3
3.358943130E1,2.090579830E-2,2.143843099E-2,9.986846708E-3
3.360970141E1,1.504684892E-2,4.926844500E-3,6.791055668E-3
3.362997151E1,8.655266836E-3,-9.986846708E-3,1.464737463E-3
3.365024156E1,2.796316985E-3,-1.797632314E-2,1.997369342E-3
3.367051167E1,4.926844500E-3,-2.436790615E-2,6.791055668E-3
3.369078177E1,8.122635074E-3,-2.383527346E-2,1.318263728E-2
3.371105182E1,1.131842658E-2,-1.158474199E-2,1.637842879E-2
3.373145182E1,9.720530361E-3,-5.193160381E-3,1.371526904E-2
3.375159203E1,3.328948980E-3,-2.063948289E-2,4.660528619E-3
3.377186208E1,1.198421582E-3,-3.182475269E-2,1.464737463E-3
3.379213219E1,3.328948980E-3,-1.584579609E-2,2.530001104E-3
3.381240224E1,5.992108025E-3,-1.997369342E-3,3.595264861E-3
3.383267234E1,-9.321057005E-4,-9.454214945E-3,1.464737463E-3
3.385294240E1,-8.921583183E-3,-2.117211558E-2,-4.394212738E-3
3.387321250E1,-2.530001104E-3,-1.691105962E-2,-4.394212738E-3
3.389348255E1,3.861580743E-3,-1.997369342E-3,-1.198421582E-3
3.391375266E1,6.524739787E-3,4.394212738E-3,3.062632866E-3
3.393402276E1,5.459476262E-3,1.731053460E-3,3.595264861E-3
3.395429281E1,5.459476262E-3,2.796316985E-3,2.530001104E-3
3.397456292E1,5.459476262E-3,4.926844500E-3,1.464737463E-3
3.399483292E1,5.992108025E-3,8.655266836E-3,1.997369342E-3
3.401510307E1,8.655266836E-3,1.771000773E-2,9.321057005E-4
3.403537313E1,9.720530361E-3,2.410159074E-2,-1.331579551E-4
3.405564318E1,4.394212738E-3,2.463422157E-2,3.994738800E-4
3.407591328E1,1.731053460E-3,1.717737690E-2,3.994738800E-4
3.409618339E1,-9.321057005E-4,9.187898599E-3,-1.331579551E-4
3.411645344E1,1.198421582E-3,1.238369010E-2,1.997369342E-3
3.413672349E1,3.861580743E-3,1.717737690E-2,3.994738800E-4
3.415699360E1,4.926844500E-3,1.025316212E-2,9.321057005E-4
3.417739360E1,6.657897611E-4,3.328948980E-3,-2.263685223E-3
3.419753375E1,-4.127896391E-3,6.657897611E-4,-3.861580743E-3
3.421780380E1,-5.725792143E-3,6.657897611E-4,-3.861580743E-3
3.423807391E1,-5.193160381E-3,1.731053460E-3,-6.657897611E-4
3.425834396E1,-2.530001104E-3,1.198421582E-3,-6.657897611E-4
3.427874396E1,-3.994738800E-4,-1.464737463E-3,1.464737463E-3
3.429888412E1,-4.127896391E-3,1.198421582E-3,9.321057005E-4
3.431915417E1,-5.725792143E-3,-1.464737463E-3,1.464737463E-3
3.433942427E1,-2.530001104E-3,-3.595264861E-3,3.994738800E-4
3.435969432E1,-1.464737463E-3,3.328948980E-3,-1.331579551E-4
3.438009432E1,-9.321057005E-4,2.263685223E-3,-1.331579551E-4
3.440023448E1,-5.193160381E-3,-8.921583183E-3,1.997369342E-3
3.442050453E1,-2.530001104E-3,-1.957421936E-2,5.193160381E-3
3.444077458E1,6.524739787E-3,-2.117211558E-2,1.371526904E-2
3.446104469E1,1.557948068E-2,-1.744369231E-2,2.703106403E-2
3.448131474E1,2.303632535E-2,-1.637842879E-2,3.289001435E-2
3.450158479E1,2.942790836E-2,-2.330264263E-2,3.555317223E-2
3.452185484E1,2.303632535E-2,-3.715106845E-2,3.661843762E-2
3.454212490E1,1.025316212E-2,-4.673844203E-2,3.608580679E-2
3.456239500E1,3.861580743E-3,-4.194475710E-2,3.129211813E-2
3.458266505E1,-4.127896391E-3,-3.661843762E-2,2.170474641E-2
3.460293510E1,-1.304947957E-2,-4.460791498E-2,1.318263728E-2
3.462320516E1,-1.944106072E-2,-5.685844645E-2,5.725792143E-3
3.464347521E1,-2.210422046E-2,-5.366265774E-2,4.660528619E-3
3.466374531E1,-2.583264373E-2,-3.821633384E-2,6.258423906E-3
3.468401537E1,-2.423474751E-2,-3.129211813E-2,4.127896391E-3
3.470428542E1,-1.890842989E-2,-3.022685647E-2,-1.198421582E-3
3.472455547E1,-1.837579720E-2,-2.969422378E-2,-7.590003312E-3
3.474482552E1,-2.263685316E-2,-3.075948730E-2,-9.720530361E-3
3.476509557E1,-2.583264373E-2,-2.383527346E-2,-6.524739787E-3
3.478549557E1,-2.689790726E-2,-1.478053257E-2,-4.394212738E-3
3.480563573E1,-2.370211668E-2,-9.454214945E-3,-5.459476262E-3
3.482590578E1,-1.624527015E-2,-1.211737376E-2,-6.524739787E-3
3.484617584E1,-1.411474310E-2,-1.957421936E-2,-3.328948980E-3
3.486644589E1,-1.731053367E-2,-1.850895584E-2,-1.198421582E-3
3.488671594E1,-1.145158429E-2,-1.051947847E-2,2.530001104E-3
3.490698599E1,4.394212738E-3,-1.105211023E-2,4.127896391E-3
3.492725604E1,7.057371549E-3,-1.424790081E-2,-1.331579551E-4
3.494752610E1,-5.725792143E-3,-2.063948289E-2,-4.926844500E-3
3.496779615E1,-2.103895694E-2,-6.791055668E-3,-6.657897611E-4
3.498806620E1,-2.423474751E-2,5.459476262E-3,1.158474199E-2
3.500833625E1,-1.464737486E-2,-6.791055668E-3,3.595264861E-3
3.502860630E1,-9.321057238E-3,1.331579551E-4,-5.459476262E-3
3.504887636E1,-1.518000662E-2,1.291632187E-2,-8.122635074E-3
3.506914641E1,-1.571263932E-2,1.824264042E-2,-9.720530361E-3
3.508941646E1,-1.198421605E-2,1.664474420E-2,-2.263685223E-3
3.510968651E1,-7.323687430E-3,2.356895804E-2,8.921583183E-3
3.512995656E1,3.328948980E-3,3.155843541E-2,1.158474199E-2
3.515022662E1,1.185105834E-2,2.729738131E-2,5.193160381E-3
3.517049667E1,1.131842658E-2,1.344895363E-2,4.127896391E-3
3.519076672E1,7.057371549E-3,1.131842658E-2,1.211737376E-2
3.521103677E1,5.992108025E-3,8.122635074E-3,1.584579609E-2
3.523130682E1,-3.595264861E-3,-1.265000552E-2,1.211737376E-2
3.525157688E1,-1.091895252E-2,-6.271740049E-2,7.323687430E-3
3.527184693E1,-9.321057005E-4,-9.307741374E-2,9.321057005E-4
3.529211698E1,1.291632187E-2,-7.390266657E-2,4.660528619E-3
3.531238698E1,1.131842658E-2,-2.596580051E-2,1.637842879E-2
3.533265703E1,-5.725792143E-3,7.590003312E-3,2.383527346E-2
3.535292709E1,-1.784316637E-2,-7.323687430E-3,1.850895584E-2
3.537319714E1,-1.304947957E-2,-4.514054582E-2,4.660528619E-3
3.539346724E1,7.057371549E-3,-5.206476152E-2,-9.187898599E-3
3.541373724E1,2.410159074E-2,-3.075948730E-2,-1.025316212E-2
3.543400729E1,2.090579830E-2,-7.323687430E-3,-6.657897611E-4
3.545427734E1,9.720530361E-3,5.992108025E-3,9.986846708E-3
3.547454740E1,3.328948980E-3,1.731053460E-3,1.318263728E-2
3.549481745E1,-3.062632866E-3,-1.691105962E-2,1.424790081E-2
3.551508750E1,-4.660528619E-3,-3.289001435E-2,9.454214945E-3
3.553535755E1,1.198421582E-3,-5.472791940E-2,7.323687430E-3
3.555562761E1,1.451421715E-2,-7.177213579E-2,1.265000552E-2
3.557602760E1,2.143843099E-2,-5.952160433E-2,2.703106403E-2
3.559616766E1,1.344895363E-2,-1.105211023E-2,3.715106845E-2
3.561643771E1,3.328948980E-3,2.676474862E-2,3.289001435E-2
3.563670776E1,-3.994738800E-4,3.528685868E-2,1.531316526E-2
3.565697781E1,5.459476262E-3,2.623211779E-2,-1.198421582E-3
3.567737781E1,1.824264042E-2,4.274370521E-2,-8.655266836E-3
3.569751792E1,2.676474862E-2,8.588688076E-2,-2.796316985E-3
3.571778797E1,2.090579830E-2,1.093226820E-1,1.997369342E-3
3.573805802E1,1.504684892E-2,1.029310971E-1,-2.263685223E-3
3.575832802E1,1.664474420E-2,9.334372729E-2,-6.524739787E-3
3.577872802E1,1.984053478E-2,9.227846563E-2,-2.263685223E-3
3.579886813E1,2.729738131E-2,8.535424620E-2,5.193160381E-3
3.581913818E1,3.209106624E-2,7.629951090E-2,1.318263728E-2
3.583940823E1,2.729738131E-2,6.298371404E-2,1.850895584E-2
3.585967828E1,2.569948509E-2,4.114580899E-2,1.691105962E-2
3.588007828E1,2.942790836E-2,2.516685426E-2,1.051947847E-2
3.590021834E1,3.102580272E-2,2.090579830E-2,1.211737376E-2
3.592048839E1,3.581948951E-2,2.996053919E-2,1.904158667E-2
3.594075844E1,4.114580899E-2,5.286370963E-2,1.904158667E-2
3.596102849E1,4.221107066E-2,7.576687634E-2,1.904158667E-2
3.598142849E1,3.528685868E-2,8.588688076E-2,1.531316526E-2
3.600156854E1,3.368896246E-2,7.683213800E-2,2.530001104E-3
3.602183860E1,3.795001656E-2,6.777740270E-2,-6.524739787E-3
3.604210865E1,3.368896246E-2,6.404897571E-2,-5.992108025E-3
3.606237870E1,1.771000773E-2,5.073318258E-2,-1.198421582E-3
3.608264870E1,7.057371549E-3,3.155843541E-2,3.595264861E-3
3.610291880E1,3.328948980E-3,2.942790836E-2,-6.657897611E-4
3.612318886E1,1.331579551E-4,2.250369452E-2,-7.057371549E-3
3.614345886E1,-5.725792143E-3,-6.791055668E-3,-1.877527125E-2
3.616372886E1,-4.660528619E-3,-3.289001435E-2,-1.824264042E-2
3.618399896E1,-5.193160381E-3,-3.821633384E-2,-6.524739787E-3
3.620426901E1,-1.304947957E-2,-2.916159295E-2,4.660528619E-3
3.622453906E1,-1.464737486E-2,-2.436790615E-2,4.660528619E-3
3.624480912E1,-1.038632076E-2,-2.596580051E-2,-1.731053460E-3
3.626507917E1,-4.660528619E-3,-2.969422378E-2,-4.926844500E-3
3.628534922E1,2.796316985E-3,-2.649843320E-2,-6.657897611E-4
3.630561927E1,9.720530361E-3,-2.223737910E-2,6.791055668E-3
3.632588932E1,9.187898599E-3,-1.637842879E-2,1.318263728E-2
3.634615932E1,6.657897611E-4,-9.986846708E-3,1.105211023E-2
3.636642938E1,3.861580743E-3,-1.478053257E-2,3.062632866E-3
3.638669943E1,1.078579482E-2,-3.235738352E-2,-6.657897611E-4
3.640696948E1,1.025316212E-2,-5.099949613E-2,3.994738800E-4
3.642723953E1,2.796316985E-3,-6.058686972E-2,7.323687430E-3
3.644750958E1,-6.791055668E-3,-6.165213138E-2,1.318263728E-2
3.646777964E1,-1.358211134E-2,-6.484792382E-2,1.478053257E-2
3.648804964E1,-1.198421605E-2,-7.123950869E-2,1.584579609E-2
3.650831969E1,-1.464737463E-3,-6.271740049E-2,1.744369231E-2
3.652858974E1,7.590003312E-3,-4.460791498E-2,1.850895584E-2
3.654885979E1,1.185105834E-2,-3.235738352E-2,1.957421936E-2
3.656912984E1,3.861580743E-3,-2.223737910E-2,1.424790081E-2
3.658939990E1,-6.791055668E-3,-1.478053257E-2,7.856319658E-3
3.660966990E1,-1.411474310E-2,-9.454214945E-3,-1.331579551E-4
3.662993995E1,-2.103895694E-2,-1.478053257E-2,-5.459476262E-3
3.665021000E1,-1.890842989E-2,-1.051947847E-2,-8.122635074E-3
3.667048005E1,-1.944106072E-2,1.344895363E-2,-1.185105834E-2
3.669075010E1,-2.316948399E-2,3.262370080E-2,-1.504684892E-2
3.671102010E1,-2.583264373E-2,2.783001214E-2,-1.238369010E-2
3.673142011E1,-2.849580161E-2,1.078579482E-2,-8.122635074E-3
3.675156021E1,-1.944106072E-2,-1.997369342E-3,-2.796316985E-3
3.677183026E1,-9.321057238E-3,1.198421582E-3,-6.657897611E-4
3.679210031E1,-4.127896391E-3,1.078579482E-2,3.595264861E-3
3.681237031E1,-1.997369342E-3,1.717737690E-2,6.791055668E-3
3.683264037E1,-4.660528619E-3,3.861580743E-3,6.791055668E-3
3.685291042E1,-9.321057238E-3,-2.010685205E-2,8.921583183E-3
3.687318047E1,-8.921583183E-3,-2.383527346E-2,8.921583183E-3
3.689345052E1,-9.321057238E-3,-1.265000552E-2,7.856319658E-3
3.691372057E1,-1.091895252E-2,-1.158474199E-2,5.725792143E-3
3.693399057E1,-1.677790284E-2,-2.117211558E-2,-1.731053460E-3
3.695426063E1,-1.518000662E-2,-2.330264263E-2,-4.926844500E-3
3.697453068E1,-1.198421605E-2,-1.158474199E-2,-1.731053460E-3
3.699480073E1,-1.091895252E-2,-8.388951421E-3,1.997369342E-3
3.701507073E1,-6.258423906E-3,-8.388951421E-3,6.258423906E-3
3.703534078E1,-1.997369342E-3,-1.371526904E-2,1.051947847E-2
3.705561084E1,-9.321057005E-4,-2.649843320E-2,9.986846708E-3
3.707588089E1,-3.994738800E-4,-2.543316968E-2,1.158474199E-2
3.709615089E1,6.657897611E-4,-1.318263728E-2,1.691105962E-2
3.711642094E1,4.394212738E-3,-9.454214945E-3,1.850895584E-2
3.713669099E1,9.187898599E-3,-1.691105962E-2,1.584579609E-2
3.715696099E1,4.926844500E-3,-2.117211558E-2,7.323687430E-3
3.717736099E1,-3.595264861E-3,-2.383527346E-2,3.595264861E-3
3.719750110E1,-1.358211134E-2,-3.342264518E-2,1.464737463E-3
3.721777115E1,-1.624527015E-2,-4.087949172E-2,3.062632866E-3
3.723804115E1,-1.198421605E-2,-2.543316968E-2,3.595264861E-3
3.725831120E1,-1.038632076E-2,-5.193160381E-3,5.193160381E-3
3.727871120E1,-1.251684781E-2,-1.105211023E-2,-1.331579551E-4
3.729885125E1,-1.198421605E-2,-2.223737910E-2,-7.590003312E-3
3.731912130E1,1.198421582E-3,-1.318263728E-2,-4.926844500E-3
3.733939136E1,1.025316212E-2,1.198421582E-3,2.530001104E-3
3.735966136E1,1.131842658E-2,4.394212738E-3,1.105211023E-2
3.738006136E1,1.504684892E-2,-4.660528619E-3,1.531316526E-2
3.740020146E1,1.291632187E-2,-1.265000552E-2,1.531316526E-2
3.742047151E1,9.720530361E-3,-2.436790615E-2,1.211737376E-2
3.744074151E1,5.459476262E-3,-2.862896025E-2,1.051947847E-2
3.746101156E1,4.394212738E-3,-1.797632314E-2,1.211737376E-2
3.748141156E1,7.057371549E-3,-1.158474199E-2,1.211737376E-2
3.750155162E1,9.187898599E-3,-1.531316526E-2,1.051947847E-2
3.752182167E1,9.187898599E-3,-1.531316526E-2,7.323687430E-3
3.754209172E1,8.655266836E-3,-8.388951421E-3,5.193160381E-3
3.756236172E1,4.926844500E-3,1.198421582E-3,2.530001104E-3
3.758263177E1,-9.321057005E-4,4.926844500E-3,9.321057005E-4
3.760290177E1,-5.193160381E-3,1.185105834E-2,-2.263685223E-3
3.762317177E1,-3.062632866E-3,1.984053478E-2,-7.057371549E-3
3.764344188E1,-1.464737463E-3,2.569948509E-2,-1.185105834E-2
3.766371188E1,-3.062632866E-3,2.836264484E-2,-1.451421715E-2
3.768398193E1,-5.725792143E-3,2.783001214E-2,-1.504684892E-2
3.770425193E1,-1.038632076E-2,2.250369452E-2,-1.398158539E-2
3.772452198E1,-9.321057238E-3,1.877527125E-2,-1.717737690E-2
3.774479198E1,-8.388951421E-3,1.611211337E-2,-1.824264042E-2
3.776506203E1,-9.321057238E-3,-1.464737463E-3,-1.717737690E-2
3.778533208E1,-1.358211134E-2,-1.531316526E-2,-1.877527125E-2
3.780560209E1,-1.145158429E-2,-1.211737376E-2,-1.504684892E-2
3.782587214E1,6.657897611E-4,-4.127896391E-3,-9.187898599E-3
3.784614214E1,1.185105834E-2,4.926844500E-3,-3.328948980E-3
3.786641219E1,2.783001214E-2,1.664474420E-2,9.321057005E-4
3.788668219E1,4.114580899E-2,2.303632535E-2,3.062632866E-3
3.790695224E1,3.635212034E-2,3.155843541E-2,7.856319658E-3
3.792722224E1,2.463422157E-2,3.795001656E-2,9.986846708E-3
3.794749229E1,1.398158539E-2,2.996053919E-2,6.791055668E-3
3.796776224E1,1.238369010E-2,2.090579830E-2,9.321057005E-4
3.798803234E1,1.078579482E-2,1.398158539E-2,3.062632866E-3
3.800830240E1,1.291632187E-2,1.557948068E-2,6.791055668E-3
3.802857240E1,1.131842658E-2,2.676474862E-2,1.051947847E-2
3.804884245E1,1.398158539E-2,3.209106624E-2,6.258423906E-3
3.806911245E1,1.344895363E-2,2.996053919E-2,9.321057005E-4
3.808938250E1,1.344895363E-2,2.463422157E-2,-6.524739787E-3
3.810965250E1,1.291632187E-2,2.197106183E-2,-5.992108025E-3
3.812992255E1,1.025316212E-2,2.037316747E-2,-1.198421582E-3
3.815019255E1,1.131842658E-2,1.984053478E-2,-6.657897611E-4
3.817046261E1,1.451421715E-2,2.143843099E-2,-1.331579551E-4
3.819073260E1,1.771000773E-2,2.676474862E-2,1.997369342E-3
3.821100266E1,2.143843099E-2,2.623211779E-2,3.994738800E-4
3.823127266E1,2.356895804E-2,1.717737690E-2,9.321057005E-4
3.825154271E1,1.984053478E-2,4.926844500E-3,6.258423906E-3
3.827181271E1,1.664474420E-2,-9.321057005E-4,9.986846708E-3
3.829208276E1,1.984053478E-2,6.657897611E-4,1.424790081E-2
3.831235276E1,2.836264484E-2,7.057371549E-3,9.454214945E-3
3.833262276E1,3.475422785E-2,1.930790395E-2,3.062632866E-3
3.835289281E1,3.581948951E-2,3.475422785E-2,-4.394212738E-3
3.837316281E1,2.942790836E-2,3.635212034E-2,-3.861580743E-3
3.839343287E1,1.611211337E-2,3.209106624E-2,-4.394212738E-3
3.841370287E1,7.590003312E-3,2.676474862E-2,-2.796316985E-3
3.843397287E1,1.025316212E-2,3.475422785E-2,-2.263685223E-3
3.845424292E1,2.197106183E-2,4.487423226E-2,-4.394212738E-3
3.847451292E1,2.516685426E-2,4.167843983E-2,-1.731053460E-3
3.849478297E1,1.984053478E-2,4.008054361E-2,1.997369342E-3
3.851505297E1,1.664474420E-2,4.061317816E-2,7.323687430E-3
3.853532302E1,1.451421715E-2,3.635212034E-2,1.531316526E-2
3.855559302E1,1.771000773E-2,2.942790836E-2,2.063948289E-2
3.857586302E1,2.197106183E-2,3.102580272E-2,2.117211558E-2
3.859613307E1,2.516685426E-2,3.901528195E-2,1.797632314E-2
3.861640307E1,2.037316747E-2,3.901528195E-2,1.584579609E-2
3.863667307E1,1.557948068E-2,3.475422785E-2,8.388951421E-3
3.865694313E1,1.717737690E-2,3.368896246E-2,4.127896391E-3
3.867734313E1,1.131842658E-2,2.303632535E-2,3.994738800E-4
3.869748318E1,-2.530001104E-3,1.131842658E-2,-1.731053460E-3
3.871775318E1,-1.038632076E-2,-2.530001104E-3,-2.263685223E-3
3.873802323E1,-6.791055668E-3,-2.703106403E-2,2.530001104E-3
3.875829323E1,1.198421582E-3,-4.354264960E-2,8.921583183E-3
3.877869323E1,7.590003312E-3,-2.756369673E-2,1.318263728E-2
3.879883328E1,1.025316212E-2,-3.994738800E-4,1.105211023E-2
3.881910328E1,1.291632187E-2,9.720530361E-3,4.127896391E-3
3.883937334E1,8.655266836E-3,1.731053460E-3,-2.796316985E-3
3.885964334E1,1.731053460E-3,9.187898599E-3,-6.524739787E-3
3.888004334E1,-1.038632076E-2,3.528685868E-2,-2.796316985E-3
3.890018339E1,-1.624527015E-2,4.647212476E-2,-1.331579551E-4
3.892045339E1,-1.251684781E-2,4.966791719E-2,-4.926844500E-3
3.894072344E1,-3.595264861E-3,6.245107949E-2,-8.122635074E-3
3.896099344E1,-2.530001104E-3,6.191844866E-2,-1.078579482E-2
3.898139344E1,-4.127896391E-3,4.860265180E-2,-1.078579482E-2
3.900153349E1,-9.321057005E-4,5.073318258E-2,-1.131842658E-2
3.902180349E1,2.263685223E-3,6.404897571E-2,-7.057371549E-3
3.904207354E1,-9.321057238E-3,4.807002097E-2,-3.328948980E-3
3.906234354E1,-2.263685316E-2,8.122635074E-3,-1.731053460E-3
3.908261354E1,-1.944106072E-2,-1.691105962E-2,-1.198421582E-3
3.910288360E1,-1.837579720E-2,-2.596580051E-2,3.595264861E-3
3.912315360E1,-2.636527456E-2,-4.141212255E-2,9.986846708E-3
3.914342360E1,-2.689790726E-2,-5.419528857E-2,1.850895584E-2
3.916369365E1,-2.476738021E-2,-4.940159991E-2,2.383527346E-2
3.918396365E1,-2.583264373E-2,-3.502054140E-2,2.490053698E-2
3.920423365E1,-2.210422046E-2,-1.691105962E-2,1.531316526E-2
3.922450370E1,-1.518000662E-2,-1.318263728E-2,3.595264861E-3
3.924477370E1,-8.921583183E-3,-2.063948289E-2,-7.590003312E-3
3.926504370E1,-1.145158429E-2,-2.117211558E-2,-9.187898599E-3
3.928531375E1,-1.571263932E-2,-2.543316968E-2,-6.524739787E-3
3.930558375E1,-2.157158963E-2,-2.596580051E-2,-6.524739787E-3
3.932585375E1,-2.636527456E-2,-3.342264518E-2,-4.394212738E-3
3.934612375E1,-2.689790726E-2,-4.620581120E-2,-7.590003312E-3
3.936639380E1,-2.370211668E-2,-5.845634267E-2,-8.655266836E-3
3.938666380E1,-1.890842989E-2,-5.952160433E-2,-4.394212738E-3
3.940693380E1,-1.038632076E-2,-4.940159991E-2,9.321057005E-4
3.942720380E1,-5.725792143E-3,-3.981423005E-2,3.595264861E-3
3.944747386E1,-8.921583183E-3,-4.514054582E-2,6.258423906E-3
3.946774386E1,-9.321057238E-3,-6.005423889E-2,6.791055668E-3
3.948801386E1,-5.725792143E-3,-5.259739235E-2,6.791055668E-3
3.950828391E1,-4.127896391E-3,-3.555317223E-2,7.323687430E-3
3.952855391E1,-1.304947957E-2,-3.608580679E-2,4.127896391E-3
3.954882391E1,-2.316948399E-2,-4.460791498E-2,-3.328948980E-3
3.956909391E1,-1.890842989E-2,-3.928159550E-2,-9.187898599E-3
3.958936396E1,-6.791055668E-3,-2.277000993E-2,-8.122635074E-3
3.960963396E1,-3.994738800E-4,-1.318263728E-2,-2.796316985E-3
3.962990396E1,-1.997369342E-3,-1.211737376E-2,4.660528619E-3
3.965017396E1,-5.725792143E-3,-9.454214945E-3,7.323687430E-3
3.967044401E1,-7.856319658E-3,-1.371526904E-2,9.454214945E-3
3.969071401E1,-8.921583183E-3,-1.904158667E-2,8.388951421E-3
3.971098401E1,-6.791055668E-3,-1.744369231E-2,6.791055668E-3
3.973138401E1,-3.062632866E-3,-1.265000552E-2,7.323687430E-3
3.975152406E1,-1.997369342E-3,-1.424790081E-2,7.856319658E-3
3.977179412E1,-3.062632866E-3,-2.330264263E-2,1.105211023E-2
3.979206412E1,-9.321057238E-3,-3.289001435E-2,1.265000552E-2
3.981233412E1,-1.464737486E-2,-3.555317223E-2,1.051947847E-2
3.983260412E1,-1.731053367E-2,-3.502054140E-2,5.193160381E-3
3.985287412E1,-1.571263932E-2,-3.022685647E-2,3.062632866E-3
3.987314417E1,-1.304947957E-2,-3.395527974E-2,1.997369342E-3
3.989341417E1,-1.251684781E-2,-3.555317223E-2,5.193160381E-3
3.991368417E1,-1.304947957E-2,-3.289001435E-2,1.105211023E-2
3.993395422E1,-1.411474310E-2,-2.330264263E-2,1.531316526E-2
3.995422422E1,-9.321057238E-3,-2.010685205E-2,1.371526904E-2
3.997449422E1,-3.595264861E-3,-1.371526904E-2,1.211737376E-2
3.999476422E1,-9.321057005E-4,-7.856319658E-3,1.318263728E-2
4.001503427E1,-4.127896391E-3,-4.660528619E-3,1.424790081E-2
4.003530427E1,-4.660528619E-3,4.394212738E-3,9.454214945E-3
4.005557427E1,-6.791055668E-3,2.037316747E-2,9.321057005E-4
4.007597427E1,-9.321057238E-3,2.356895804E-2,-8.655266836E-3
4.009611432E1,-1.411474310E-2,2.796316985E-3,-1.877527125E-2
4.011638432E1,-1.198421605E-2,-1.424790081E-2,-1.930790395E-2
4.013665432E1,-4.660528619E-3,-1.478053257E-2,-9.187898599E-3
4.015692432E1,3.328948980E-3,-2.530001104E-3,3.994738800E-4
4.017732432E1,1.198421582E-3,-2.530001104E-3,3.062632866E-3
4.019746438E1,-5.725792143E-3,-8.388951421E-3,9.321057005E-4
4.021773438E1,-5.193160381E-3,-1.424790081E-2,-6.657897611E-4
4.023800438E1,2.796316985E-3,-1.478053257E-2,-1.331579551E-4
4.025827438E1,7.057371549E-3,-4.127896391E-3,3.994738800E-4
