"Time (s)","Acceleration x (m/s^2)","Acceleration y (m/s^2)","Acceleration z (m/s^2)"
2.066932000E-3,-1.230509043E0,4.441078663E0,7.785646915E0
2.220755700E-2,-8.907282352E-1,3.765704632E0,7.759325504E0
4.260755700E-2,-8.715856671E-1,3.873381615E0,7.517650604E0
6.290469200E-2,-9.912267923E-1,4.378865242E0,7.239484787E0
8.301703600E-2,-1.058225870E0,4.689932346E0,6.430710793E0
1.032863590E-1,-1.405185103E0,4.433900356E0,5.513661385E0
1.235557340E-1,-1.651645780E0,4.062414646E0,5.142175674E0
1.438250570E-1,-1.658824325E0,4.124628067E0,5.127819061E0
1.640945880E-1,-1.773679733E0,4.290330887E0,5.918048382E0
1.843640670E-1,-1.536790371E0,4.654039860E0,6.150152206E0
2.047640670E-1,-1.448255897E0,5.154139996E0,6.116652966E0
2.249032860E-1,-1.130010486E0,5.422734261E0,5.980261803E0
2.451728690E-1,-1.113260746E0,5.437091351E0,5.551946640E0
2.654424520E-1,-1.417149186E0,5.853442192E0,5.951548100E0
2.857120360E-1,-1.673181176E0,6.533602238E0,6.942774773E0
3.059816190E-1,-1.716252089E0,6.923632145E0,7.033702374E0
3.262512540E-1,-1.512862086E0,7.095915318E0,6.763313293E0
3.465208900E-1,-1.443470240E0,7.493722439E0,7.376473904E0
3.667905250E-1,-1.853241086E0,8.218747139E0,7.857431412E0
3.870602130E-1,-2.181057930E0,8.590232849E0,7.421937466E0
4.073298480E-1,-2.221735716E0,8.616554260E0,7.874181271E0
4.275995360E-1,-2.197807550E0,8.587840080E0,8.941978455E0
4.478691190E-1,-2.353341103E0,8.580661774E0,9.296115875E0
4.681388070E-1,-2.573480844E0,8.714659691E0,8.678768158E0
4.884084420E-1,-2.764906645E0,9.253045082E0,8.487341881E0
5.088084420E-1,-2.966501951E0,9.284152031E0,8.544769287E0
5.289477130E-1,-2.875574589E0,8.886942863E0,7.898109436E0
5.492174520E-1,-2.868396044E0,8.389236450E0,7.390830994E0
5.694870880E-1,-3.021536827E0,8.209176064E0,7.407580853E0
5.897567750E-1,-3.055036306E0,8.216354370E0,7.100701332E0
6.101567750E-1,-3.148356438E0,8.187641144E0,6.399604321E0
6.302960460E-1,-2.892324448E0,7.811967850E0,6.073582172E0
6.505657340E-1,-2.824727058E0,7.316653252E0,6.028118610E0
6.708353170E-1,-2.595016241E0,7.024130821E0,6.018547058E0
6.911050040E-1,-2.487339020E0,7.024130821E0,6.056832314E0
7.115050040E-1,-2.291127682E0,7.421937466E0,6.248856544E0
7.316442750E-1,-2.212164640E0,7.608577728E0,6.296712875E0
7.519139630E-1,-2.262413740E0,7.369295597E0,6.061617851E0
7.721835980E-1,-2.480160713E0,7.364510059E0,6.008975983E0
7.924532340E-1,-2.650051117E0,7.338188648E0,5.889334679E0
8.128532340E-1,-2.530410051E0,7.225128174E0,5.774479389E0
8.329925570E-1,-2.231307030E0,6.997809887E0,5.774479389E0
8.532621920E-1,-2.099701881E0,7.031309128E0,5.896512985E0
8.735317750E-1,-2.231307030E0,7.275377274E0,5.757729530E0
8.938014630E-1,-2.382055044E0,7.421937466E0,5.401198864E0
9.142014630E-1,-2.549552441E0,7.448258877E0,5.322235584E0
9.343407860E-1,-2.652443886E0,7.524828911E0,5.752943993E0
9.546104210E-1,-2.556730986E0,7.539186001E0,6.071189404E0
9.748801090E-1,-2.494517565E0,7.500900745E0,6.020939827E0
9.951497440E-1,-2.319841623E0,7.402794838E0,5.788836002E0
1.015419379E0,-2.197807550E0,7.469794273E0,5.865406513E0
1.035689015E0,-1.922633052E0,7.587042332E0,6.068796635E0
1.055958650E0,-1.699502230E0,7.517650604E0,6.214758396E0
1.076228338E0,-1.802393675E0,7.479365349E0,6.162116528E0
1.096497973E0,-1.951346874E0,7.479365349E0,5.752943993E0
1.116767609E0,-1.953739643E0,7.754539967E0,5.647659779E0
1.137037296E0,-1.795215130E0,7.934001446E0,5.731408596E0
1.157306932E0,-1.579861164E0,7.898109436E0,5.738586903E0
1.177576567E0,-1.670788407E0,7.826324463E0,5.568696499E0
1.197846202E0,-1.744965911E0,7.950751305E0,5.501697540E0
1.218115838E0,-1.804786444E0,8.170890808E0,5.697908878E0
1.238385473E0,-1.865205288E0,8.106285095E0,5.700301647E0
1.258655161E0,-2.183450699E0,8.039285660E0,5.398806095E0
1.278924744E0,-2.274377823E0,8.003393173E0,5.379663467E0
1.299194432E0,-2.260020971E0,7.898109436E0,5.740979671E0
1.319464067E0,-2.035095692E0,7.666005611E0,5.858228207E0
1.339733702E0,-1.989632010E0,7.630113125E0,5.822335720E0
1.360003338E0,-2.133201361E0,7.785646915E0,5.707480431E0
1.380272973E0,-2.090130568E0,7.938787460E0,5.530411243E0
1.400542609E0,-2.070987940E0,8.065607071E0,5.494519234E0
1.420812244E0,-1.989632010E0,8.127820015E0,5.604588985E0
1.441212244E0,-1.910668850E0,7.938787460E0,5.590231895E0
1.461351515E0,-1.858026743E0,7.922037601E0,5.798407555E0
1.481621150E0,-1.858026743E0,8.048856735E0,5.941977024E0
1.501890786E0,-1.713859200E0,8.058428764E0,5.635695457E0
1.522160421E0,-1.469791293E0,8.001000404E0,5.444269657E0
1.542430057E0,-1.118046403E0,8.115856171E0,5.685945034E0
1.562699692E0,-8.021938205E-1,8.420342445E0,6.056832314E0
1.582969327E0,-5.288137794E-1,8.451449394E0,5.683551788E0
1.603238963E0,-2.847459018E-1,8.468199730E0,5.353342533E0
1.623508598E0,-3.014956415E-1,8.398807526E0,5.336592674E0
1.643778234E0,-1.387837082E-1,8.415556908E0,5.315057278E0
1.664047765E0,-4.091726840E-1,8.764909744E0,5.156532764E0
1.684317452E0,-2.943171859E-1,9.023334503E0,4.926821709E0
1.704587088E0,2.560320199E-1,9.190832138E0,4.931607246E0
1.724856723E0,6.299105883E-1,9.691530228E0,5.350949764E0
1.745126359E0,7.112665176E-1,9.366106033E0,5.175675392E0
1.765395994E0,1.165902853E0,9.123832703E0,4.807180882E0
1.785665577E0,1.268794179E0,8.781659126E0,4.761716843E0
1.805935213E0,1.242473125E0,8.101499557E0,4.517649174E0
1.826204848E0,1.319641709E0,7.522436142E0,4.914857864E0
1.846474484E0,1.858026743E0,7.823931694E0,5.202594757E0
1.866744067E0,2.338984251E0,8.283353806E0,5.170889854E0
1.887013702E0,3.028715372E0,7.926823139E0,5.712265968E0
1.907283338E0,3.203391314E0,7.792825222E0,5.738586903E0
1.927552921E0,3.174677372E0,7.508079052E0,4.977071285E0
1.947822557E0,3.279961586E0,7.110272408E0,4.131806374E0
1.968092088E0,3.332603693E0,7.431509018E0,4.098307133E0
1.988361723E0,3.483949661E0,7.912466049E0,4.469792843E0
2.008761723E0,3.893122435E0,7.311867714E0,3.736990690E0
2.028900994E0,4.585246563E0,6.713063717E0,3.480958700E0
2.049170629E0,4.645066738E0,6.909275532E0,3.552743435E0
2.069440213E0,5.051846981E0,6.502495766E0,3.567100286E0
2.089709848E0,5.497509956E0,5.575874805E0,3.150749207E0
2.110109848E0,5.581258774E0,5.877370834E0,3.952344894E0
2.130249067E0,5.224130154E0,6.524031162E0,4.938786030E0
2.150518650E0,5.913861275E0,6.020939827E0,4.821537495E0
2.170788286E0,6.088537216E0,5.334199905E0,3.947559118E0
2.191057869E0,5.758327484E0,6.071189404E0,3.634099483E0
2.211457869E0,5.559723377E0,6.071189404E0,3.514458179E0
2.231597088E0,5.901896954E0,4.747360229E0,2.815155745E0
2.251866671E0,6.428318024E0,5.240880013E0,3.260818958E0
2.272136307E0,6.694519520E0,6.483353138E0,4.004986763E0
2.292405890E0,6.955337048E0,6.006583214E0,4.388436794E0
2.312805890E0,7.752745152E0,4.699503899E0,4.828716278E0
2.332945057E0,7.079763889E0,4.742574692E0,4.146163464E0
2.353214692E0,7.079763889E0,5.465805054E0,3.969094515E0
2.373484275E0,7.762316704E0,4.780859470E0,3.665206194E0
2.393753859E0,7.180262566E0,5.144568920E0,4.876572609E0
2.414142244E0,8.231309891E0,4.180261135E0,5.609374523E0
2.434293025E0,7.762316704E0,3.940380573E0,4.823930264E0
2.454562661E0,7.486543655E0,3.524029493E0,4.697110653E0
2.474832244E0,8.114061356E0,3.433102369E0,6.200401783E0
2.495101827E0,8.176275253E0,3.315854073E0,5.683551788E0
2.515501827E0,8.047062874E0,2.949153900E0,4.752145767E0
2.535640994E0,7.843672752E0,3.715455294E0,4.725824833E0
2.555910525E0,8.288737297E0,3.629313707E0,5.180460930E0
2.576180161E0,9.124430656E0,2.358126640E0,5.494519234E0
2.596449744E0,8.468199730E0,1.989033818E0,4.893322468E0
2.616719327E0,7.927421570E0,2.276770830E0,3.866203070E0
2.636988911E0,8.518448830E0,2.812762976E0,3.681955814E0
2.657258494E0,8.319844246E0,2.578266382E0,4.043272018E0
2.677528077E0,7.357331276E0,2.506481647E0,2.401197433E0
2.697797661E0,6.404389858E0,2.843869686E0,4.307080805E-1
2.718067244E0,7.568498135E0,3.897309780E0,1.180259824E0
2.738336827E0,7.980063438E0,5.475376606E0,1.855035782E0
2.758606411E0,7.405188084E0,6.629314899E0,9.954141974E-1
2.778875994E0,6.665805817E0,7.646862984E0,-6.658028960E-1
2.799145577E0,5.988038540E0,8.915657043E0,-1.506281853E0
2.819415161E0,4.896313190E0,8.633303642E0,-1.374676585E0
2.839684744E0,4.395615101E0,7.689933777E0,-8.452646136E-1
2.859954275E0,3.687339783E0,8.142177582E0,-1.441675574E-1
2.880223859E0,2.082952023E0,8.292924881E0,-1.582852125E0
2.900493442E0,1.232901812E0,7.996214867E0,-1.826920033E0
2.920763025E0,1.256830096E0,8.580661774E0,-3.236292601E-1
2.941032609E0,8.404789567E-1,9.708279610E0,8.542376757E-1
2.961302192E0,2.871387079E-2,8.953942299E0,-1.441675574E-1
2.981571775E0,2.632104978E-2,7.811967850E0,-9.218349457E-1
3.001841307E0,2.171486616E0,9.013762474E0,1.591825247E0
3.022110890E0,1.377069473E0,1.119960594E1,1.256830096E0
3.042380473E0,6.729813814E-1,1.076411247E1,-2.853440940E-1
3.062650057E0,1.649851203E0,9.286544800E0,-1.066002488E0
3.082919588E0,1.609173179E0,8.091927528E0,-3.045464993E0
3.103189171E0,-1.172483116E-1,8.379665375E0,-1.960918188E0
3.123458754E0,-5.264210105E-1,1.133360481E1,-3.906283081E-1
3.143728338E0,-2.871387303E-1,1.552343655E1,-1.144965649E0
3.163997869E0,-5.192425251E-1,1.251206970E1,-4.712066174E0
3.184267452E0,-4.194618225E0,8.161319733E0,-7.283154011E0
3.204537036E0,-2.702693224E0,1.133599758E1,-2.085345030E0
3.224806567E0,-1.065404296E0,1.225065327E1,-2.186441660E0
3.245076150E0,9.098708034E-1,1.211426258E1,-1.211964726E0
3.265345734E0,1.415354609E0,1.098425198E1,-9.672985673E-1
3.285615265E0,-1.866401732E-1,8.386843681E0,9.068797827E-1
3.305884848E0,3.589234129E-2,8.700303078E0,5.681159019E0
3.326154432E0,-5.240281820E-1,1.011505985E1,6.473781586E0
3.346423963E0,2.853440940E-1,1.093400288E1,1.311864972E0
3.366693546E0,1.034297585E0,1.040279675E1,-1.676172256E0
3.386963077E0,-1.244267747E-1,9.550353050E0,-2.063809633E0
3.407232661E0,-5.910272002E-1,9.202795982E0,-2.337189436E0
3.427502244E0,-8.237292171E-1,9.449854851E0,-1.719243050E0
3.447771775E0,-7.441678643E-1,9.619745255E0,-5.772684813E-1
3.468041307E0,-8.979067206E-1,9.815957069E0,1.483550072E-1
3.488310890E0,-1.419542074E0,9.672387123E0,4.259224236E-1
3.508659223E0,-1.946561217E0,9.622138023E0,1.914258115E-2
3.528850109E0,-2.236092806E0,9.803992271E0,-6.849454641E-1
3.549119692E0,-2.606980324E0,9.756135941E0,-1.087537885E0
3.569389223E0,-3.784847260E0,9.768099785E0,-6.562315822E-1
3.589658754E0,-6.033502102E0,1.021077251E1,-2.685943544E-1
3.610058754E0,-4.900500774E0,9.653244972E0,7.178468257E-2
3.630197817E0,-2.855833769E0,9.188439369E0,4.307080805E-2
3.650467400E0,-3.882952929E0,9.276973724E0,-2.691925503E-2
3.670736932E0,-2.861217737E0,9.312865257E0,1.722832322E-1
3.691006463E0,-2.784049034E0,9.497711182E0,-4.845465720E-2
3.711406463E0,-2.623729944E0,9.614959717E0,-3.260220885E-1
3.731545577E0,-2.446661234E0,9.612566948E0,-5.102694035E-1
3.751815161E0,-2.303091764E0,9.545567513E0,-5.222335458E-1
3.772084692E0,-2.295913219E0,9.569496155E0,-4.360919297E-1
3.792354223E0,-2.346162558E0,9.550353050E0,-3.523431420E-1
3.812754223E0,-2.446661234E0,9.531210899E0,-3.714857101E-1
3.832893338E0,-2.530410051E0,9.504889488E0,-4.121637046E-1
3.853162869E0,-2.626122952E0,9.492925644E0,-4.121637046E-1
3.873432400E0,-2.683550596E0,9.476176262E0,-2.949153781E-1
3.893701984E0,-2.688336134E0,9.437891006E0,-2.470589429E-1
3.914101984E0,-2.673979282E0,9.378069878E0,-2.781656384E-1
3.934241046E0,-2.676372051E0,9.346364975E0,-3.116651475E-1
3.954510525E0,-2.650051117E0,9.375677109E0,-3.284149170E-1
3.974780057E0,-2.616551638E0,9.454640388E0,-3.212364316E-1
3.995049588E0,-2.606980324E0,9.488140106E0,-3.236292601E-1
4.015319171E0,-2.595016241E0,9.471389771E0,-3.116651475E-1
4.035588702E0,-2.568695068E0,9.471389771E0,-3.044866920E-1
4.055858234E0,-2.561516523E0,9.550353050E0,-1.992024779E-1
4.076127765E0,-2.736192703E0,9.576674461E0,-1.609173268E-1
4.096397296E0,-2.923431158E0,9.459425926E0,-2.327020019E-1
4.116666827E0,-3.035893679E0,9.399605751E0,-3.978067636E-1
4.136936359E0,-3.071786165E0,9.385248184E0,-5.030909777E-1
4.157205890E0,-3.105285645E0,9.358927727E0,-5.102694035E-1
4.177475421E0,-3.124428272E0,9.296115875E0,-4.767699242E-1
4.197744952E0,-3.100499868E0,9.245866776E0,-4.695914388E-1
4.218014484E0,-3.023929596E0,9.272188187E0,-4.935196638E-1
4.238284015E0,-2.968894720E0,9.368498802E0,-4.671986103E-1
4.258553546E0,-2.897109985E0,9.378069878E0,-3.762713671E-1
4.278823077E0,-2.904288530E0,9.411569595E0,-3.643072546E-1
4.299092609E0,-2.889931440E0,9.406784058E0,-3.738785386E-1
4.319362140E0,-2.863610506E0,9.373284340E0,-3.667000830E-1
4.339631671E0,-2.875574589E0,9.334401131E0,-4.025924206E-1
4.359901202E0,-2.880360365E0,9.281759262E0,-3.738785386E-1
4.380170682E0,-2.911466837E0,9.241081238E0,-3.762713671E-1
4.400440213E0,-2.930609465E0,9.178867340E0,-4.001995921E-1
4.420709744E0,-2.954537868E0,9.119047165E0,-3.906283081E-1
4.440979275E0,-2.911466837E0,9.030512810E0,-3.810569942E-1
4.461248807E0,-2.843869686E0,9.020941734E0,-3.236292601E-1
4.481518338E0,-2.807977438E0,9.085547447E0,-2.590230405E-1
4.501787817E0,-2.788834810E0,9.248259544E0,-1.082752272E-1
4.522057348E0,-2.805584431E0,9.260223389E0,-3.170489892E-2
4.542326879E0,-2.875574589E0,9.226723671E0,-9.152546525E-2
4.562596411E0,-2.961716175E0,9.190832138E0,-2.039881349E-1
4.582865890E0,-3.059821844E0,8.901300430E0,-2.733799815E-1
4.603135421E0,-3.263211966E0,8.752944946E0,-4.504488707E-1
4.623404952E0,-3.478565931E0,8.640482903E0,-5.485545993E-1
4.643674432E0,-3.725026608E0,8.688339233E0,-5.485545993E-1
4.663943963E0,-3.936193228E0,8.669196129E0,-5.461617708E-1
4.684213494E0,-4.211368084E0,8.544769287E0,-5.324030295E-2
4.704613494E0,-4.331008911E0,8.309675217E0,2.919243574E-1
4.724752504E0,-4.295116425E0,8.072785378E0,2.536391914E-1
4.745022036E0,-4.199403763E0,7.948358536E0,5.024927482E-2
4.765291515E0,-3.936193228E0,8.015357971E0,-1.417747438E-1
4.785561046E0,-3.703491211E0,8.063214302E0,-2.518445849E-1
4.805830577E0,-3.662813187E0,8.161319733E0,-7.956135273E-2
4.826100057E0,-3.892524242E0,8.377271652E0,2.201396823E-1
4.846369588E0,-4.063013077E0,8.628518105E0,5.072783828E-1
4.866639067E0,-4.149154663E0,8.563912392E0,6.532405615E-1
4.886908598E0,-4.402793884E0,8.702695847E0,7.537391186E-1
4.907178077E0,-4.630111694E0,8.999405861E0,8.159525394E-1
4.927578077E0,-4.847858906E0,8.992227554E0,1.244866014E0
4.947717088E0,-5.317450047E0,8.453842163E0,1.744965911E0
4.967986619E0,-5.518447399E0,7.948358536E0,1.685145378E0
4.988256098E0,-5.501697540E0,8.372486115E0,1.811964989E0
5.008525629E0,-5.437091351E0,8.621339798E0,1.000199914E0
5.028795109E0,-5.719444275E0,1.019402313E1,1.972284079E0
5.049195109E0,-4.996811867E0,1.019402313E1,2.453839540E0
5.069334119E0,-5.142774105E0,9.677172661E0,2.516052961E0
5.089603598E0,-5.374877930E0,9.341579437E0,1.977069736E0
5.110003598E0,-5.080560684E0,8.894122124E0,1.297508121E0
5.130142609E0,-4.673182487E0,8.350951195E0,9.379864931E-1
5.150412036E0,-4.934000492E0,7.740182877E0,1.546361685E0
5.170681567E0,-5.104488850E0,7.599006653E0,2.111665964E0
5.190951046E0,-4.867001057E0,8.283353806E0,2.271985054E0
5.211351046E0,-4.843072891E0,8.918049812E0,2.315055847E0
5.231490057E0,-3.926621914E0,8.451449394E0,1.874178290E0
5.251759536E0,-4.307080746E0,8.192426682E0,1.943570137E0
5.272029015E0,-4.364508629E0,7.957930088E0,2.482553482E0
5.292298494E0,-3.870988846E0,7.670791149E0,2.544766903E0
5.312698494E0,-4.223331928E0,8.075178146E0,2.604587555E0
5.332837504E0,-4.168296814E0,7.821538925E0,2.628515720E0
5.353106984E0,-4.766502857E0,7.914859295E0,2.310270309E0
5.373376463E0,-4.388436794E0,7.766504288E0,2.214557409E0
5.393645942E0,-4.345366001E0,7.644470215E0,2.398804665E0
5.414034223E0,-4.220939159E0,7.666005611E0,2.685943365E0
5.434184900E0,-3.873381615E0,7.864609718E0,3.177070379E0
5.454454379E0,-3.083750248E0,7.229913712E0,2.975475073E0
5.474723859E0,-2.602194548E0,6.583851337E0,2.592623234E0
5.494993338E0,-2.822334290E0,6.552744865E0,3.071187973E0
5.515262817E0,-2.851048231E0,6.679564476E0,3.425923824E0
5.535532296E0,-1.980060697E0,6.526423931E0,3.337389469E0
5.555801723E0,-1.733001828E0,6.562315941E0,3.387638569E0
5.576071202E0,-1.675574064E0,6.928418159E0,3.540779352E0
5.596340682E0,-1.536790371E0,6.732206345E0,3.648456335E0
5.616610161E0,-1.453041553E0,6.358926296E0,3.839882135E0
5.636879640E0,-1.311864972E0,6.406782627E0,3.947559118E0
5.657149119E0,-5.431707501E-1,6.574280262E0,4.316651821E0
5.677418598E0,6.011967063E-1,8.312067986E0,5.822335720E0
5.697688077E0,2.495115757E0,8.537590981E0,6.808776855E0
5.717957557E0,3.704089403E0,9.617352486E0,8.434700012E0
5.738226984E0,4.439284325E0,9.940383911E0,9.361320496E0
5.758496463E0,4.022335052E0,9.559925079E0,8.726624489E0
5.778765890E0,4.237689018E0,9.641280174E0,8.717052460E0
5.799035369E0,4.714458942E0,9.233902931E0,9.672387123E0
5.819304848E0,4.893920422E0,8.259425163E0,1.001695347E1
5.839574275E0,4.489533424E0,6.985845566E0,9.961918831E0
5.859843754E0,4.769493580E0,5.839085579E0,1.020120144E1
5.880113182E0,5.039882660E0,5.623731613E0,9.739386559E0
5.900382661E0,6.040680885E0,5.678766251E0,9.142974854E0
5.920652140E0,6.562914371E0,5.108676434E0,8.757730484E0
5.940921619E0,6.148357868E0,4.572684288E0,8.178069115E0
5.961191046E0,5.614758492E0,4.338187218E0,7.709076405E0
5.981460525E0,5.559723377E0,3.646063566E0,7.146164894E0
6.001730004E0,5.154737949E0,2.879761934E0,6.997809887E0
6.021999432E0,4.891527653E0,2.484946251E0,6.567101955E0
6.042268911E0,4.779065132E0,2.405983210E0,6.095117569E0
6.062538338E0,4.618745804E0,2.707478762E0,6.006583214E0
6.082807817E0,4.800600529E0,3.018545866E0,6.147759438E0
6.103077296E0,5.214558601E0,3.275176048E0,6.150152206E0
6.123346723E0,5.509474277E0,3.430709362E0,5.997011662E0
6.143616202E0,5.705685616E0,3.303889751E0,5.963512421E0
6.163885629E0,5.839683533E0,3.114258766E0,5.786443233E0
6.184155057E0,6.162714481E0,2.944368362E0,5.714658737E0
6.204424536E0,6.512664795E0,3.056830883E0,5.922834396E0
6.224693963E0,6.929016113E0,3.330210924E0,6.135795593E0
6.244963442E0,7.342974663E0,3.507279873E0,6.323033810E0
6.265232869E0,7.431509018E0,3.715455294E0,6.246463299E0
6.285502348E0,7.563712597E0,3.753740549E0,5.999404430E0
6.305771775E0,7.779066563E0,3.646063566E0,6.018547058E0
6.326041202E0,7.822137356E0,3.610171080E0,6.085546017E0
6.346310682E0,7.831708431E0,3.614956856E0,6.095117569E0
6.366580109E0,7.426723480E0,3.593421459E0,5.994618893E0
6.386849536E0,7.070192814E0,3.760919094E0,5.731408596E0
6.407119015E0,6.739983082E0,3.885345697E0,5.614160061E0
6.427388442E0,6.627520561E0,3.842274904E0,5.638088226E0
6.447657869E0,6.510272026E0,3.806382656E0,5.726622581E0
6.467927348E0,6.394818306E0,3.799204111E0,5.750551224E0
6.488196775E0,6.186643124E0,3.851846218E0,5.848656654E0
6.508596775E0,5.894718647E0,3.990629911E0,6.111867428E0
6.528735682E0,5.782256126E0,4.256831646E0,6.320641041E0
6.549005109E0,5.952146530E0,4.436293125E0,6.461817741E0
6.569274536E0,6.074180126E0,4.508078098E0,6.526423931E0
6.589543963E0,6.119643688E0,4.503292084E0,6.552744865E0
6.609943963E0,5.990431309E0,4.496113777E0,6.823133945E0
6.630082869E0,6.064609051E0,4.421936035E0,7.040880680E0
6.650352296E0,6.117250919E0,4.517649174E0,6.952346325E0
6.670621723E0,6.114858150E0,4.603790760E0,6.775277138E0
6.690891150E0,6.026323795E0,4.591826439E0,6.684350014E0
6.711291150E0,5.904289722E0,4.687539577E0,6.756134510E0
6.731430057E0,5.574080467E0,5.087141037E0,6.808776855E0
6.751699484E0,5.578866005E0,5.125426292E0,6.870990276E0
6.771968911E0,5.398806095E0,4.977071285E0,6.684350014E0
6.792238390E0,5.193023205E0,4.962714195E0,6.602993965E0
6.812638390E0,5.063810825E0,4.898108006E0,6.641279221E0
6.832777244E0,4.802993298E0,5.161318302E0,6.598208427E0
6.853046671E0,4.740779877E0,5.312664509E0,6.490531445E0
6.873316150E0,4.501497746E0,5.511268616E0,6.282355785E0
6.893585577E0,4.395615101E0,5.721837044E0,6.248856544E0
6.913985577E0,4.295116425E0,5.860620975E0,6.485745907E0
6.934124432E0,4.208974838E0,5.817550182E0,6.681957245E0
6.954393911E0,4.024727821E0,5.963512421E0,6.713063717E0
6.974663338E0,4.058227062E0,5.989833355E0,6.571887493E0
6.994932817E0,3.342175007E0,6.567101955E0,6.583851337E0
7.015202244E0,3.864408493E0,6.507281303E0,6.600601196E0
7.035471723E0,3.256033421E0,6.966702938E0,6.650850773E0
7.055741150E0,3.419343472E0,6.811169624E0,6.557530403E0
7.076010577E0,3.301496983E0,6.253642082E0,6.361319065E0
7.096280057E0,3.198605776E0,6.056832314E0,6.323033810E0
7.116549484E0,3.227319479E0,6.016154289E0,6.428318024E0
7.136818963E0,3.220141172E0,6.236293793E0,6.619743824E0
7.157088390E0,3.189034462E0,6.330212116E0,6.722635269E0
7.177357869E0,2.877967358E0,6.571887493E0,6.849454880E0
7.197627348E0,3.311068296E0,6.239284992E0,6.772884369E0
7.217896775E0,2.971287489E0,6.239284992E0,6.820741177E0
7.238166254E0,2.978466034E0,6.083153248E0,6.837490559E0
7.258435682E0,2.995215654E0,6.095117569E0,6.827919483E0
7.278705161E0,3.019144058E0,6.176473618E0,6.815955162E0
7.298974640E0,3.007179976E0,6.239284992E0,6.811169624E0
7.319244119E0,3.004786968E0,6.272784710E0,6.777669907E0
7.339513598E0,3.040679455E0,6.221937180E0,6.780063152E0
7.359783077E0,3.078964472E0,6.135795593E0,6.815955162E0
7.380052557E0,3.129213810E0,6.083153248E0,6.842276573E0
7.400322036E0,3.200998545E0,6.071189404E0,6.885347366E0
7.420591515E0,3.251247883E0,6.068796635E0,6.832705021E0
7.440860994E0,3.289532900E0,6.030511379E0,6.892525673E0
7.461130473E0,3.346960783E0,6.030511379E0,6.909275532E0
7.481399952E0,3.332603693E0,6.059225082E0,6.882954121E0
7.501669432E0,3.311068296E0,6.006583214E0,6.813562393E0
7.521938911E0,3.291925669E0,5.937191010E0,6.866204739E0
7.542208442E0,3.265604734E0,5.937191010E0,7.012166977E0
7.562477921E0,3.287140131E0,5.896512985E0,7.191628456E0
7.582747452E0,3.308675528E0,5.819942951E0,7.307082176E0
7.603016932E0,3.294318676E0,5.762515068E0,7.311867714E0
7.623286463E0,3.289532900E0,5.729015827E0,7.316653252E0
7.643555942E0,3.248854876E0,5.729015827E0,7.326224804E0
7.663825473E0,3.196212769E0,5.786443233E0,7.311867714E0
7.684094952E0,3.160320520E0,5.762515068E0,7.278368473E0
7.704364484E0,3.138785124E0,5.726622581E0,7.217949390E0
7.724634015E0,3.114856958E0,5.659623623E0,7.179664135E0
7.744903546E0,3.107678413E0,5.630909920E0,7.179664135E0
7.765173077E0,3.102892876E0,5.623731613E0,7.172485828E0
7.785442609E0,3.141177893E0,5.642873764E0,7.174878597E0
7.805842609E0,3.191427231E0,5.673980713E0,7.201199532E0
7.825981671E0,3.241676569E0,5.731408596E0,7.177271366E0
7.846251202E0,3.284747362E0,5.755336761E0,7.172485828E0
7.866520734E0,3.330210924E0,5.755336761E0,7.160521984E0
7.886790265E0,3.346960783E0,5.755336761E0,7.115057945E0
7.907059796E0,3.378067255E0,5.729015827E0,7.115057945E0
7.927329379E0,3.426522017E0,5.736194134E0,7.112665176E0
7.947598911E0,3.450450182E0,5.738586903E0,7.105486870E0
7.967868442E0,3.488735437E0,5.774479389E0,7.103094101E0
7.988138025E0,3.507878065E0,5.791228771E0,7.055237770E0
8.008407557E0,3.534198999E0,5.798407555E0,7.038487911E0
8.028677140E0,3.550948858E0,5.800800323E0,7.031309128E0
8.048946671E0,3.558127165E0,5.786443233E0,7.014559746E0
8.069216254E0,3.572484255E0,5.812764645E0,7.019345284E0
8.089485786E0,3.570091486E0,5.812764645E0,6.997809887E0
8.109885786E0,3.538984776E0,5.784050465E0,6.995417118E0
8.130024952E0,3.529413462E0,5.803193092E0,6.988238335E0
8.150294484E0,3.524627686E0,5.793622017E0,6.983452797E0
8.170564067E0,3.522234917E0,5.822335720E0,6.997809887E0
8.190833650E0,3.548556089E0,5.822335720E0,7.021738052E0
8.211233650E0,3.550948858E0,5.819942951E0,7.014559746E0
8.231372817E0,3.572484255E0,5.827121258E0,7.026523590E0
8.251642400E0,3.565305710E0,5.810371399E0,7.012166977E0
8.271911984E0,3.558127165E0,5.788836002E0,7.031309128E0
8.292181567E0,3.538984776E0,5.784050465E0,7.048058987E0
8.312581567E0,3.562912941E0,5.772086620E0,7.048058987E0
8.332720734E0,3.591626883E0,5.788836002E0,7.004988194E0
8.352990317E0,3.594019651E0,5.786443233E0,7.000202656E0
8.373259900E0,3.594019651E0,5.762515068E0,6.997809887E0
8.393529484E0,3.608376503E0,5.748157978E0,6.997809887E0
8.413929484E0,3.608376503E0,5.757729530E0,6.997809887E0
8.434068702E0,3.617947817E0,5.769693375E0,7.009773731E0
8.454338286E0,3.644268990E0,5.740979671E0,7.033702374E0
8.474607869E0,3.632304668E0,5.743372440E0,7.048058987E0
8.494877504E0,3.665804386E0,5.743372440E0,7.048058987E0
8.515147088E0,3.658625841E0,5.712265968E0,7.040880680E0
8.535416671E0,3.646661758E0,5.717051506E0,7.031309128E0
8.555686307E0,3.641875982E0,5.729015827E0,7.062416077E0
8.575955890E0,3.637090445E0,5.695516109E0,7.060023308E0
8.596225525E0,3.596412420E0,5.681159019E0,7.067201614E0
8.616495109E0,3.596412420E0,5.666802406E0,7.100701332E0
8.636764744E0,3.579662561E0,5.659623623E0,7.117451191E0
8.657034327E0,3.565305710E0,5.683551788E0,7.093522549E0
8.677303963E0,3.570091486E0,5.688337803E0,7.074379921E0
8.697573546E0,3.567698479E0,5.697908878E0,7.076773167E0
8.717843182E0,3.591626883E0,5.688337803E0,7.074379921E0
8.738112765E0,3.570091486E0,5.664409637E0,7.100701332E0
8.758382400E0,3.574877024E0,5.628517151E0,7.117451191E0
8.778652036E0,3.562912941E0,5.602196217E0,7.134200573E0
8.798921619E0,3.546163082E0,5.614160061E0,7.150950432E0
8.819191254E0,3.560520172E0,5.635695457E0,7.131807804E0
8.839460890E0,3.534198999E0,5.618945599E0,7.119843960E0
8.859730525E0,3.529413462E0,5.623731613E0,7.117451191E0
8.880000109E0,3.529413462E0,5.650052547E0,7.122236729E0
8.900269744E0,3.548556089E0,5.669195175E0,7.119843960E0
8.920539379E0,3.591626883E0,5.681159019E0,7.122236729E0
8.940809015E0,3.579662561E0,5.666802406E0,7.088737011E0
8.961078598E0,3.550948858E0,5.671587944E0,7.067201614E0
8.981348234E0,3.522234917E0,5.645267010E0,7.062416077E0
9.001617869E0,3.495913982E0,5.647659779E0,7.064808846E0
9.021887504E0,3.503092289E0,5.666802406E0,7.095915318E0
9.042157088E0,3.493520975E0,5.642873764E0,7.095915318E0
9.062426723E0,3.507878065E0,5.659623623E0,7.127022266E0
9.082696359E0,3.476771355E0,5.654838085E0,7.158128738E0
9.102965994E0,3.474378586E0,5.638088226E0,7.186842918E0
9.123235577E0,3.469592810E0,5.592624664E0,7.177271366E0
9.143505265E0,3.479164124E0,5.583053589E0,7.215556622E0
9.163774900E0,3.488735437E0,5.563910961E0,7.225128174E0
9.184044536E0,3.510270834E0,5.566303730E0,7.222734928E0
9.204444536E0,3.498306751E0,5.568696499E0,7.227520943E0
9.224583754E0,3.469592810E0,5.566303730E0,7.229913712E0
9.244853390E0,3.481556892E0,5.571089268E0,7.205985546E0
9.265123025E0,3.450450182E0,5.561518192E0,7.215556622E0
9.285392661E0,3.450450182E0,5.571089268E0,7.184450150E0
9.305662296E0,3.476771355E0,5.566303730E0,7.179664135E0
9.325931932E0,3.507878065E0,5.571089268E0,7.213163853E0
9.346201515E0,3.505485058E0,5.559125423E0,7.229913712E0
9.366471202E0,3.531806231E0,5.563910961E0,7.232306480E0
9.386740786E0,3.498306751E0,5.559125423E0,7.229913712E0
9.407010473E0,3.505485058E0,5.583053589E0,7.203592777E0
9.427280109E0,3.505485058E0,5.549553871E0,7.222734928E0
9.447549744E0,3.493520975E0,5.544768333E0,7.217949390E0
9.467819379E0,3.507878065E0,5.554339409E0,7.217949390E0
9.488089015E0,3.503092289E0,5.566303730E0,7.191628456E0
9.508358702E0,3.503092289E0,5.563910961E0,7.215556622E0
9.528628338E0,3.519842148E0,5.544768333E0,7.208378315E0
9.548897973E0,3.548556089E0,5.559125423E0,7.217949390E0
9.569167609E0,3.543770313E0,5.571089268E0,7.249056339E0
9.589437244E0,3.495913982E0,5.554339409E0,7.234699249E0
9.609837244E0,3.498306751E0,5.539982796E0,7.234699249E0
9.629976515E0,3.469592810E0,5.523232937E0,7.215556622E0
9.650246202E0,3.476771355E0,5.544768333E0,7.249056339E0
9.670515838E0,3.467200041E0,5.551946640E0,7.265805721E0
9.690785473E0,3.505485058E0,5.559125423E0,7.268796921E0
9.711185473E0,3.500699520E0,5.542375565E0,7.237092018E0
9.731324796E0,3.486342669E0,5.513661385E0,7.244270325E0
9.751594432E0,3.481556892E0,5.506483078E0,7.273582458E0
9.771864067E0,3.498306751E0,5.518447399E0,7.234699249E0
9.792133754E0,3.479164124E0,5.501697540E0,7.256234646E0
9.812533754E0,3.505485058E0,5.504090309E0,7.273582458E0
9.832673025E0,3.510270834E0,5.513661385E0,7.283154011E0
9.852942713E0,3.527020693E0,5.492125988E0,7.297510624E0
9.873212348E0,3.507878065E0,5.499304771E0,7.275975227E0
9.893482036E0,3.512663603E0,5.511268616E0,7.263412952E0
9.913882036E0,3.524627686E0,5.539982796E0,7.261020184E0
9.934021359E0,3.507878065E0,5.530411243E0,7.196413994E0
9.954291046E0,3.519842148E0,5.525625706E0,7.182057381E0
9.974560682E0,3.550948858E0,5.523232937E0,7.210771084E0
9.994830369E0,3.594019651E0,5.523232937E0,7.237092018E0
1.001510000E1,3.596412420E0,5.513661385E0,7.232306480E0
1.003536969E1,3.608376503E0,5.480162144E0,7.217949390E0
1.005563938E1,3.586841106E0,5.461019516E0,7.198806763E0
1.007590902E1,3.610769272E0,5.461019516E0,7.210771084E0
1.009617870E1,3.627519131E0,5.472983360E0,7.225128174E0
1.011644839E1,3.651447296E0,5.468197823E0,7.265805721E0
1.013671808E1,3.668197155E0,5.461019516E0,7.261020184E0
1.015698771E1,3.658625841E0,5.458626747E0,7.241877556E0
1.017725740E1,3.656233072E0,5.453841209E0,7.263412952E0
1.019752709E1,3.627519131E0,5.453841209E0,7.283154011E0
1.021779678E1,3.637090445E0,5.461019516E0,7.278368473E0
1.023806646E1,3.653840065E0,5.492125988E0,7.222734928E0
1.025833615E1,3.637090445E0,5.494519234E0,7.225128174E0
1.027860584E1,3.637090445E0,5.465805054E0,7.232306480E0
1.029887553E1,3.634697676E0,5.480162144E0,7.191628456E0
1.031914521E1,3.617947817E0,5.494519234E0,7.210771084E0
1.033941490E1,3.594019651E0,5.456233978E0,7.251449108E0
1.035968459E1,3.574877024E0,5.417948723E0,7.244270325E0
1.037995428E1,3.615555048E0,5.425127029E0,7.261020184E0
1.040022396E1,3.629911900E0,5.458626747E0,7.302296638E0
1.042049365E1,3.617947817E0,5.470590591E0,7.328617573E0
1.044076334E1,3.610769272E0,5.434698582E0,7.311867714E0
1.046103302E1,3.603590965E0,5.413163185E0,7.265805721E0
1.048130271E1,3.579662561E0,5.429912567E0,7.251449108E0
1.050157240E1,3.610769272E0,5.401198864E0,7.271189690E0
1.052184214E1,3.598805189E0,5.362913609E0,7.280761242E0
1.054211178E1,3.634697676E0,5.358128071E0,7.263412952E0
1.056238152E1,3.687339783E0,5.341378212E0,7.253841877E0
1.058265120E1,3.692125320E0,5.394020557E0,7.302296638E0
1.060292089E1,3.680161238E0,5.422734261E0,7.338188648E0
1.062319058E1,3.644268990E0,5.396413326E0,7.314260483E0
1.064346026E1,3.620340586E0,5.420341492E0,7.295117855E0
1.066372995E1,3.596412420E0,5.394020557E0,7.283154011E0
1.068399969E1,3.589233875E0,5.403591633E0,7.304689407E0
1.070426933E1,3.572484255E0,5.437091351E0,7.307082176E0
1.072453907E1,3.570091486E0,5.427519798E0,7.292725086E0
1.074480875E1,3.546163082E0,5.470590591E0,7.275975227E0
1.076507844E1,3.574877024E0,5.492125988E0,7.283154011E0
1.078534813E1,3.586841106E0,5.489733219E0,7.256234646E0
1.080561787E1,3.560520172E0,5.484947681E0,7.241877556E0
1.082588756E1,3.565305710E0,5.484947681E0,7.208378315E0
1.084615724E1,3.562912941E0,5.496912003E0,7.210771084E0
1.086642693E1,3.577269793E0,5.516054630E0,7.191628456E0
1.088669662E1,3.605983734E0,5.504090309E0,7.213163853E0
1.090696636E1,3.620340586E0,5.506483078E0,7.227520943E0
1.092723605E1,3.629911900E0,5.496912003E0,7.229913712E0
1.094750573E1,3.622733593E0,5.501697540E0,7.222734928E0
1.096777542E1,3.610769272E0,5.501697540E0,7.210771084E0
1.098804516E1,3.608376503E0,5.525625706E0,7.234699249E0
1.100844516E1,3.574877024E0,5.504090309E0,7.239484787E0
1.102858558E1,3.567698479E0,5.504090309E0,7.220342159E0
1.104885506E1,3.560520172E0,5.487340450E0,7.237092018E0
1.106912464E1,3.560520172E0,5.487340450E0,7.232306480E0
1.108939422E1,3.572484255E0,5.487340450E0,7.210771084E0
1.110979422E1,3.570091486E0,5.489733219E0,7.215556622E0
1.112993349E1,3.562912941E0,5.494519234E0,7.229913712E0
1.115020313E1,3.541377544E0,5.520840168E0,7.208378315E0
1.117047271E1,3.531806231E0,5.506483078E0,7.208378315E0
1.119074235E1,3.522234917E0,5.499304771E0,7.234699249E0
1.121114235E1,3.550948858E0,5.513661385E0,7.253841877E0
1.123128172E1,3.534198999E0,5.494519234E0,7.253841877E0
1.125155136E1,3.550948858E0,5.511268616E0,7.234699249E0
1.127182105E1,3.570091486E0,5.513661385E0,7.241877556E0
1.129209073E1,3.582055569E0,5.487340450E0,7.251449108E0
1.131249073E1,3.608376503E0,5.468197823E0,7.261020184E0
1.133263016E1,3.637090445E0,5.482554913E0,7.234699249E0
1.135289985E1,3.639483213E0,5.506483078E0,7.237092018E0
1.137316943E1,3.629911900E0,5.520840168E0,7.213163853E0
1.139343922E1,3.634697676E0,5.482554913E0,7.203592777E0
1.141383922E1,3.653840065E0,5.477769375E0,7.225128174E0
1.143397860E1,3.637090445E0,5.489733219E0,7.256234646E0
1.145424829E1,3.574877024E0,5.513661385E0,7.229913712E0
1.147451802E1,3.567698479E0,5.461019516E0,7.158128738E0
1.149478771E1,3.570091486E0,5.441876888E0,7.213163853E0
1.151505740E1,3.555734396E0,5.482554913E0,7.333403111E0
1.153532709E1,3.534198999E0,5.516054630E0,7.299903870E0
1.155559683E1,3.550948858E0,5.511268616E0,7.249056339E0
1.157586646E1,3.531806231E0,5.504090309E0,7.194021225E0
1.159613615E1,3.536591768E0,5.530411243E0,7.234699249E0
1.161640584E1,3.565305710E0,5.501697540E0,7.244270325E0
1.163667553E1,3.584448338E0,5.463412285E0,7.246663570E0
1.165694521E1,3.601198196E0,5.441876888E0,7.261020184E0
1.167721490E1,3.617947817E0,5.470590591E0,7.278368473E0
1.169761490E1,3.615555048E0,5.456233978E0,7.249056339E0
1.171775532E1,3.617947817E0,5.465805054E0,7.246663570E0
1.173802485E1,3.598805189E0,5.487340450E0,7.265805721E0
1.175829438E1,3.589233875E0,5.504090309E0,7.261020184E0
1.177856396E1,3.579662561E0,5.489733219E0,7.222734928E0
1.179883355E1,3.565305710E0,5.506483078E0,7.222734928E0
1.181910308E1,3.579662561E0,5.504090309E0,7.258627415E0
1.183937266E1,3.608376503E0,5.482554913E0,7.273582458E0
1.185964230E1,3.594019651E0,5.499304771E0,7.283154011E0
1.187991193E1,3.586841106E0,5.525625706E0,7.263412952E0
1.190018157E1,3.567698479E0,5.508875847E0,7.232306480E0
1.192045125E1,3.558127165E0,5.489733219E0,7.203592777E0
1.194072094E1,3.562912941E0,5.489733219E0,7.232306480E0
1.196099063E1,3.577269793E0,5.487340450E0,7.268796921E0
1.198126032E1,3.586841106E0,5.475376606E0,7.251449108E0
1.200152995E1,3.598805189E0,5.475376606E0,7.232306480E0
1.219909188E1,3.562912941E0,5.492125988E0,7.251449108E0
1.221936157E1,3.567698479E0,5.487340450E0,7.251449108E0
1.223963120E1,3.567698479E0,5.477769375E0,7.232306480E0
1.225990084E1,3.572484255E0,5.482554913E0,7.256234646E0
1.228017052E1,3.577269793E0,5.487340450E0,7.271189690E0
1.230044016E1,3.586841106E0,5.482554913E0,7.295117855E0
1.232070985E1,3.596412420E0,5.496912003E0,7.285546780E0
1.234097948E1,3.572484255E0,5.487340450E0,7.241877556E0
1.236124917E1,3.558127165E0,5.472983360E0,7.251449108E0
1.238151886E1,3.562912941E0,5.468197823E0,7.251449108E0
1.240178849E1,3.577269793E0,5.482554913E0,7.261020184E0
1.242205813E1,3.567698479E0,5.477769375E0,7.261020184E0
1.244232782E1,3.572484255E0,5.487340450E0,7.246663570E0
1.246259745E1,3.577269793E0,5.472983360E0,7.256234646E0
1.248286714E1,3.567698479E0,5.487340450E0,7.246663570E0
1.250313678E1,3.558127165E0,5.477769375E0,7.251449108E0
1.252340646E1,3.577269793E0,5.487340450E0,7.280761242E0
1.254367610E1,3.582055569E0,5.477769375E0,7.271189690E0
1.256407610E1,3.582055569E0,5.477769375E0,7.256234646E0
1.258421542E1,3.558127165E0,5.463412285E0,7.241877556E0
1.260456375E1,3.558127165E0,5.472983360E0,7.251449108E0
1.262475485E1,3.562912941E0,5.482554913E0,7.271189690E0
1.264502448E1,3.562912941E0,5.482554913E0,7.275975227E0
1.266529412E1,3.567698479E0,5.458626747E0,7.285546780E0
1.268556375E1,3.567698479E0,5.468197823E0,7.290332317E0
1.270583339E1,3.586841106E0,5.477769375E0,7.280761242E0
1.272610302E1,3.582055569E0,5.482554913E0,7.256234646E0
1.274637266E1,3.562912941E0,5.477769375E0,7.237092018E0
1.276664230E1,3.558127165E0,5.482554913E0,7.265805721E0
1.278691193E1,3.572484255E0,5.468197823E0,7.265805721E0
1.280718162E1,3.582055569E0,5.463412285E0,7.261020184E0
1.282745125E1,3.591626883E0,5.472983360E0,7.251449108E0
1.284772089E1,3.596412420E0,5.482554913E0,7.241877556E0
1.286799053E1,3.596412420E0,5.487340450E0,7.261020184E0
1.288826016E1,3.582055569E0,5.482554913E0,7.241877556E0
1.290852980E1,3.558127165E0,5.468197823E0,7.241877556E0
1.292879943E1,3.543770313E0,5.468197823E0,7.256234646E0
1.294906907E1,3.577269793E0,5.458626747E0,7.285546780E0
1.296933865E1,3.596412420E0,5.472983360E0,7.280761242E0
1.298960834E1,3.577269793E0,5.472983360E0,7.246663570E0
1.300987797E1,3.572484255E0,5.482554913E0,7.246663570E0
1.303014761E1,3.562912941E0,5.477769375E0,7.251449108E0
1.305041724E1,3.553341627E0,5.458626747E0,7.280761242E0
1.307068683E1,3.562912941E0,5.472983360E0,7.275975227E0
1.309095646E1,3.562912941E0,5.482554913E0,7.280761242E0
1.311122610E1,3.548556089E0,5.468197823E0,7.261020184E0
1.313149573E1,3.562912941E0,5.472983360E0,7.251449108E0
1.315176532E1,3.562912941E0,5.482554913E0,7.280761242E0
1.317203495E1,3.567698479E0,5.482554913E0,7.271189690E0
1.319230459E1,3.572484255E0,5.463412285E0,7.256234646E0
1.321257422E1,3.605983734E0,5.472983360E0,7.256234646E0
1.323284381E1,3.615555048E0,5.520840168E0,7.285546780E0
1.325311344E1,3.572484255E0,5.516054630E0,7.261020184E0
1.327338308E1,3.538984776E0,5.458626747E0,7.203592777E0
1.329365266E1,3.519842148E0,5.453841209E0,7.170093060E0
1.331405266E1,3.538984776E0,5.477769375E0,7.189235687E0
1.333419188E1,3.529413462E0,5.472983360E0,7.203592777E0
1.335446146E1,3.562912941E0,5.477769375E0,7.295117855E0
1.337473110E1,3.615555048E0,5.492125988E0,7.366902828E0
1.339500073E1,3.601198196E0,5.492125988E0,7.342974663E0
1.341540073E1,3.567698479E0,5.482554913E0,7.280761242E0
1.343553995E1,3.586841106E0,5.492125988E0,7.256234646E0
1.345580959E1,3.577269793E0,5.482554913E0,7.251449108E0
1.347607917E1,3.577269793E0,5.468197823E0,7.217949390E0
1.349634881E1,3.586841106E0,5.472983360E0,7.222734928E0
1.351674881E1,3.615555048E0,5.506483078E0,7.246663570E0
1.353688797E1,3.610769272E0,5.496912003E0,7.256234646E0
1.355715761E1,3.586841106E0,5.477769375E0,7.241877556E0
1.357742719E1,3.577269793E0,5.477769375E0,7.222734928E0
1.359769678E1,3.605983734E0,5.516054630E0,7.203592777E0
1.361796641E1,3.601198196E0,5.511268616E0,7.241877556E0
1.363823599E1,3.582055569E0,5.492125988E0,7.299903870E0
1.365850558E1,3.567698479E0,5.487340450E0,7.328617573E0
1.367877521E1,3.519842148E0,5.453841209E0,7.299903870E0
1.369904480E1,3.505485058E0,5.463412285E0,7.251449108E0
1.371944480E1,3.572484255E0,5.516054630E0,7.232306480E0
1.373958402E1,3.605983734E0,5.549553871E0,7.246663570E0
1.375985360E1,3.615555048E0,5.554339409E0,7.241877556E0
1.378012318E1,3.591626883E0,5.487340450E0,7.198806763E0
1.380039277E1,3.553341627E0,5.453841209E0,7.213163853E0
1.382066235E1,3.534198999E0,5.482554913E0,7.232306480E0
1.384093193E1,3.577269793E0,5.520840168E0,7.299903870E0
1.386120157E1,3.596412420E0,5.496912003E0,7.323832035E0
1.388147115E1,3.615555048E0,5.482554913E0,7.280761242E0
1.390174073E1,3.634697676E0,5.472983360E0,7.208378315E0
1.392201032E1,3.653840065E0,5.516054630E0,7.184450150E0
1.394227990E1,3.625126362E0,5.530411243E0,7.179664135E0
1.396254948E1,3.615555048E0,5.453841209E0,7.184450150E0
1.398281907E1,3.625126362E0,5.386841774E0,7.203592777E0
1.400308865E1,3.672982693E0,5.472983360E0,7.280761242E0
1.402335823E1,3.649054527E0,5.563910961E0,7.376473904E0
1.404362782E1,3.572484255E0,5.525625706E0,7.352545738E0
1.406389740E1,3.515056372E0,5.453841209E0,7.261020184E0
1.408416698E1,3.500699520E0,5.401198864E0,7.208378315E0
1.410443657E1,3.529413462E0,5.449055195E0,7.198806763E0
1.412483657E1,3.586841106E0,5.516054630E0,7.261020184E0
1.414497573E1,3.620340586E0,5.568696499E0,7.323832035E0
1.416524532E1,3.620340586E0,5.525625706E0,7.290332317E0
1.418551490E1,3.596412420E0,5.463412285E0,7.217949390E0
1.420578448E1,3.591626883E0,5.449055195E0,7.217949390E0
1.422605402E1,3.591626883E0,5.487340450E0,7.237092018E0
1.424632360E1,3.605983734E0,5.506483078E0,7.256234646E0
1.426659318E1,3.610769272E0,5.492125988E0,7.232306480E0
1.428686276E1,3.629911900E0,5.501697540E0,7.198806763E0
1.430713235E1,3.649054527E0,5.516054630E0,7.213163853E0
1.432740188E1,3.639483213E0,5.516054630E0,7.227520943E0
1.434767146E1,3.663411379E0,5.501697540E0,7.222734928E0
1.436794105E1,3.668197155E0,5.511268616E0,7.222734928E0
1.438821063E1,3.629911900E0,5.496912003E0,7.237092018E0
1.440848016E1,3.572484255E0,5.511268616E0,7.203592777E0
1.442874974E1,3.524627686E0,5.535196781E0,7.222734928E0
1.444901928E1,3.495913982E0,5.535196781E0,7.222734928E0
1.446928886E1,3.476771355E0,5.516054630E0,7.246663570E0
1.448955839E1,3.443271875E0,5.463412285E0,7.256234646E0
1.450982797E1,3.438486099E0,5.444269657E0,7.285546780E0
1.453009756E1,3.452843189E0,5.429912567E0,7.319046497E0
1.455036709E1,3.495913982E0,5.449055195E0,7.333403111E0
1.457063667E1,3.553341627E0,5.482554913E0,7.323832035E0
1.459090620E1,3.605983734E0,5.472983360E0,7.319046497E0
1.461117579E1,3.610769272E0,5.477769375E0,7.271189690E0
1.463144532E1,3.601198196E0,5.444269657E0,7.237092018E0
1.465171490E1,3.610769272E0,5.458626747E0,7.222734928E0
1.467198443E1,3.634697676E0,5.496912003E0,7.194021225E0
1.469225402E1,3.644268990E0,5.520840168E0,7.160521984E0
1.471252355E1,3.634697676E0,5.516054630E0,7.155735970E0
1.473279308E1,3.649054527E0,5.482554913E0,7.189235687E0
1.475306266E1,3.663411379E0,5.477769375E0,7.241877556E0
1.477333219E1,3.644268990E0,5.511268616E0,7.246663570E0
1.479360172E1,3.601198196E0,5.544768333E0,7.227520943E0
1.481400172E1,3.562912941E0,5.511268616E0,7.271189690E0
1.483414084E1,3.548556089E0,5.468197823E0,7.295117855E0
1.485441037E1,3.562912941E0,5.453841209E0,7.314260483E0
1.487481037E1,3.558127165E0,5.439484119E0,7.333403111E0
1.489494948E1,3.538984776E0,5.487340450E0,7.314260483E0
1.491534948E1,3.515056372E0,5.492125988E0,7.261020184E0
1.493548855E1,3.529413462E0,5.487340450E0,7.217949390E0
1.495575808E1,3.529413462E0,5.487340450E0,7.237092018E0
1.497602766E1,3.534198999E0,5.477769375E0,7.241877556E0
1.499629719E1,3.548556089E0,5.487340450E0,7.261020184E0
1.501669719E1,3.591626883E0,5.472983360E0,7.295117855E0
1.503683625E1,3.610769272E0,5.487340450E0,7.290332317E0
1.505710579E1,3.615555048E0,5.472983360E0,7.256234646E0
1.507737532E1,3.610769272E0,5.477769375E0,7.251449108E0
1.509764485E1,3.615555048E0,5.468197823E0,7.256234646E0
1.511804485E1,3.625126362E0,5.463412285E0,7.241877556E0
1.513818391E1,3.644268990E0,5.472983360E0,7.261020184E0
1.515845349E1,3.639483213E0,5.501697540E0,7.271189690E0
1.517872303E1,3.629911900E0,5.516054630E0,7.241877556E0
1.519899256E1,3.605983734E0,5.487340450E0,7.217949390E0
1.521926209E1,3.558127165E0,5.444269657E0,7.208378315E0
1.523953157E1,3.553341627E0,5.434698582E0,7.256234646E0
1.525980115E1,3.548556089E0,5.496912003E0,7.299903870E0
1.528007063E1,3.538984776E0,5.520840168E0,7.290332317E0
1.530034021E1,3.538984776E0,5.487340450E0,7.275975227E0
1.532060969E1,3.548556089E0,5.453841209E0,7.241877556E0
1.534087922E1,3.572484255E0,5.458626747E0,7.271189690E0
1.536114875E1,3.586841106E0,5.429912567E0,7.295117855E0
1.538141829E1,3.596412420E0,5.449055195E0,7.299903870E0
1.540168782E1,3.586841106E0,5.463412285E0,7.295117855E0
1.542195735E1,3.577269793E0,5.453841209E0,7.299903870E0
1.544222683E1,3.586841106E0,5.434698582E0,7.285546780E0
1.546249636E1,3.567698479E0,5.482554913E0,7.304689407E0
1.548276589E1,3.543770313E0,5.468197823E0,7.309474945E0
1.550303542E1,3.553341627E0,5.458626747E0,7.275975227E0
1.552343542E1,3.591626883E0,5.449055195E0,7.265805721E0
1.554357443E1,3.591626883E0,5.444269657E0,7.265805721E0
1.556384396E1,3.601198196E0,5.453841209E0,7.285546780E0
1.558411344E1,3.582055569E0,5.453841209E0,7.295117855E0
1.560438297E1,3.582055569E0,5.472983360E0,7.280761242E0
1.562465250E1,3.572484255E0,5.468197823E0,7.265805721E0
1.564492204E1,3.567698479E0,5.472983360E0,7.271189690E0
1.566519152E1,3.572484255E0,5.477769375E0,7.280761242E0
1.568546105E1,3.586841106E0,5.444269657E0,7.285546780E0
1.570573053E1,3.601198196E0,5.425127029E0,7.275975227E0
1.572600006E1,3.582055569E0,5.429912567E0,7.290332317E0
1.574626954E1,3.591626883E0,5.410770416E0,7.290332317E0
1.576653907E1,3.572484255E0,5.429912567E0,7.304689407E0
1.578680860E1,3.538984776E0,5.449055195E0,7.309474945E0
1.580707808E1,3.538984776E0,5.429912567E0,7.304689407E0
1.582734756E1,3.538984776E0,5.420341492E0,7.309474945E0
1.584761709E1,3.577269793E0,5.439484119E0,7.342974663E0
1.586788657E1,3.586841106E0,5.453841209E0,7.338188648E0
1.588815610E1,3.562912941E0,5.429912567E0,7.309474945E0
1.590842558E1,3.586841106E0,5.405984402E0,7.280761242E0
1.592869506E1,3.586841106E0,5.434698582E0,7.299903870E0
1.594896459E1,3.591626883E0,5.429912567E0,7.304689407E0
1.596923407E1,3.591626883E0,5.429912567E0,7.275975227E0
1.598950355E1,3.577269793E0,5.439484119E0,7.275975227E0
1.600977302E1,3.577269793E0,5.449055195E0,7.290332317E0
1.603004250E1,3.567698479E0,5.472983360E0,7.309474945E0
1.605031204E1,3.562912941E0,5.472983360E0,7.314260483E0
1.607058152E1,3.567698479E0,5.434698582E0,7.299903870E0
1.609085099E1,3.558127165E0,5.415555954E0,7.309474945E0
1.611112047E1,3.577269793E0,5.420341492E0,7.342974663E0
1.613138995E1,3.572484255E0,5.449055195E0,7.338188648E0
1.615165943E1,3.558127165E0,5.444269657E0,7.304689407E0
1.617192891E1,3.519842148E0,5.425127029E0,7.285546780E0
1.619219839E1,3.515056372E0,5.434698582E0,7.304689407E0
1.621246787E1,3.529413462E0,5.429912567E0,7.338188648E0
1.623273735E1,3.543770313E0,5.405984402E0,7.328617573E0
1.625300683E1,3.582055569E0,5.410770416E0,7.314260483E0
1.627327631E1,3.620340586E0,5.429912567E0,7.338188648E0
1.629354579E1,3.644268990E0,5.429912567E0,7.352545738E0
1.631394579E1,3.629911900E0,5.405984402E0,7.328617573E0
1.633408474E1,3.610769272E0,5.410770416E0,7.299903870E0
1.635435422E1,3.596412420E0,5.425127029E0,7.285546780E0
1.637462365E1,3.591626883E0,5.439484119E0,7.280761242E0
1.639489313E1,3.577269793E0,5.453841209E0,7.265805721E0
1.641529313E1,3.586841106E0,5.477769375E0,7.237092018E0
1.643543209E1,3.615555048E0,5.487340450E0,7.232306480E0
1.645570152E1,3.615555048E0,5.492125988E0,7.285546780E0
1.647597099E1,3.582055569E0,5.506483078E0,7.352545738E0
1.649624058E1,3.519842148E0,5.487340450E0,7.338188648E0
1.651664058E1,3.476771355E0,5.472983360E0,7.232306480E0
1.653677938E1,3.486342669E0,5.463412285E0,7.150950432E0
1.655704881E1,3.562912941E0,5.492125988E0,7.203592777E0
1.657731829E1,3.601198196E0,5.530411243E0,7.285546780E0
1.659758776E1,3.596412420E0,5.516054630E0,7.309474945E0
1.661798777E1,3.596412420E0,5.496912003E0,7.261020184E0
1.663812667E1,3.572484255E0,5.458626747E0,7.256234646E0
1.665839610E1,3.591626883E0,5.468197823E0,7.261020184E0
1.667866558E1,3.625126362E0,5.468197823E0,7.275975227E0
1.669893500E1,3.644268990E0,5.501697540E0,7.261020184E0
1.671933500E1,3.649054527E0,5.530411243E0,7.261020184E0
1.673947386E1,3.629911900E0,5.525625706E0,7.241877556E0
1.675974334E1,3.605983734E0,5.511268616E0,7.213163853E0
1.678001282E1,3.562912941E0,5.482554913E0,7.222734928E0
1.680028224E1,3.548556089E0,5.405984402E0,7.208378315E0
1.682055167E1,3.572484255E0,5.391627789E0,7.203592777E0
1.684082115E1,3.629911900E0,5.520840168E0,7.237092018E0
1.686109058E1,3.644268990E0,5.592624664E0,7.256234646E0
1.688136000E1,3.625126362E0,5.559125423E0,7.179664135E0
1.690162943E1,3.562912941E0,5.487340450E0,7.112665176E0
1.692202943E1,3.538984776E0,5.453841209E0,7.146164894E0
1.694216834E1,3.548556089E0,5.492125988E0,7.217949390E0
1.696243776E1,3.553341627E0,5.520840168E0,7.261020184E0
1.698270719E1,3.572484255E0,5.482554913E0,7.232306480E0
1.700297662E1,3.610769272E0,5.506483078E0,7.256234646E0
1.702337662E1,3.649054527E0,5.535196781E0,7.309474945E0
1.704351547E1,3.596412420E0,5.530411243E0,7.299903870E0
1.706378490E1,3.567698479E0,5.472983360E0,7.189235687E0
1.708405433E1,3.610769272E0,5.391627789E0,7.122236729E0
1.710432375E1,3.682554007E0,5.496912003E0,7.237092018E0
1.712459318E1,3.706482172E0,5.583053589E0,7.328617573E0
1.714486261E1,3.649054527E0,5.554339409E0,7.265805721E0
1.716513204E1,3.582055569E0,5.458626747E0,7.141379356E0
1.718540146E1,3.582055569E0,5.444269657E0,7.165307522E0
1.720567089E1,3.591626883E0,5.501697540E0,7.319046497E0
1.722594032E1,3.601198196E0,5.516054630E0,7.333403111E0
1.724620974E1,3.582055569E0,5.511268616E0,7.271189690E0
1.726647917E1,3.558127165E0,5.453841209E0,7.170093060E0
1.728674860E1,3.605983734E0,5.420341492E0,7.131807804E0
1.730701802E1,3.629911900E0,5.487340450E0,7.232306480E0
1.732728740E1,3.639483213E0,5.539982796E0,7.314260483E0
1.734755683E1,3.601198196E0,5.511268616E0,7.271189690E0
1.736782625E1,3.562912941E0,5.453841209E0,7.189235687E0
1.738809568E1,3.558127165E0,5.458626747E0,7.160521984E0
1.740836506E1,3.572484255E0,5.539982796E0,7.261020184E0
1.742863448E1,3.586841106E0,5.530411243E0,7.319046497E0
1.744890391E1,3.596412420E0,5.453841209E0,7.265805721E0
1.746917329E1,3.582055569E0,5.391627789E0,7.208378315E0
1.748944271E1,3.620340586E0,5.453841209E0,7.208378315E0
1.750971209E1,3.658625841E0,5.511268616E0,7.299903870E0
1.752998152E1,3.644268990E0,5.539982796E0,7.357331276E0
1.755025094E1,3.605983734E0,5.492125988E0,7.328617573E0
1.757052032E1,3.567698479E0,5.425127029E0,7.227520943E0
1.759078974E1,3.562912941E0,5.463412285E0,7.184450150E0
1.761105912E1,3.596412420E0,5.525625706E0,7.203592777E0
1.763132855E1,3.610769272E0,5.549553871E0,7.256234646E0
1.765159792E1,3.601198196E0,5.539982796E0,7.246663570E0
1.767186735E1,3.596412420E0,5.482554913E0,7.237092018E0
1.769213672E1,3.577269793E0,5.472983360E0,7.237092018E0
1.771240610E1,3.591626883E0,5.477769375E0,7.271189690E0
1.773267552E1,3.601198196E0,5.511268616E0,7.271189690E0
1.775294490E1,3.601198196E0,5.501697540E0,7.251449108E0
1.777321428E1,3.610769272E0,5.492125988E0,7.227520943E0
1.779348365E1,3.620340586E0,5.496912003E0,7.208378315E0
1.781388365E1,3.620340586E0,5.492125988E0,7.227520943E0
1.783402245E1,3.615555048E0,5.506483078E0,7.251449108E0
1.785429183E1,3.610769272E0,5.506483078E0,7.227520943E0
1.787456125E1,3.610769272E0,5.482554913E0,7.217949390E0
1.789483063E1,3.577269793E0,5.487340450E0,7.256234646E0
1.791523063E1,3.558127165E0,5.506483078E0,7.265805721E0
1.793536938E1,3.586841106E0,5.506483078E0,7.280761242E0
1.795563875E1,3.591626883E0,5.516054630E0,7.241877556E0
1.797603875E1,3.586841106E0,5.506483078E0,7.208378315E0
1.799617750E1,3.601198196E0,5.449055195E0,7.261020184E0
1.801657750E1,3.582055569E0,5.477769375E0,7.328617573E0
1.803671625E1,3.529413462E0,5.506483078E0,7.304689407E0
1.805711625E1,3.529413462E0,5.482554913E0,7.213163853E0
1.807725506E1,3.524627686E0,5.444269657E0,7.198806763E0
1.809752443E1,3.538984776E0,5.453841209E0,7.251449108E0
1.811792443E1,3.572484255E0,5.434698582E0,7.251449108E0
1.813806318E1,3.577269793E0,5.477769375E0,7.217949390E0
1.815833256E1,3.596412420E0,5.487340450E0,7.217949390E0
1.817860193E1,3.615555048E0,5.477769375E0,7.290332317E0
1.819887131E1,3.629911900E0,5.449055195E0,7.314260483E0
1.821914063E1,3.610769272E0,5.463412285E0,7.280761242E0
1.823941000E1,3.586841106E0,5.496912003E0,7.285546780E0
1.825967938E1,3.586841106E0,5.496912003E0,7.271189690E0
1.827994875E1,3.601198196E0,5.501697540E0,7.227520943E0
1.830021813E1,3.601198196E0,5.501697540E0,7.189235687E0
1.832061813E1,3.605983734E0,5.468197823E0,7.150950432E0
1.834075683E1,3.615555048E0,5.472983360E0,7.198806763E0
1.836102620E1,3.615555048E0,5.506483078E0,7.280761242E0
1.838129553E1,3.591626883E0,5.482554913E0,7.285546780E0
1.840156490E1,3.567698479E0,5.468197823E0,7.295117855E0
1.842183428E1,3.562912941E0,5.477769375E0,7.290332317E0
1.844210360E1,3.567698479E0,5.453841209E0,7.290332317E0
1.846237297E1,3.558127165E0,5.458626747E0,7.285546780E0
1.848264235E1,3.596412420E0,5.487340450E0,7.285546780E0
1.850291172E1,3.601198196E0,5.477769375E0,7.271189690E0
1.852318105E1,3.610769272E0,5.468197823E0,7.280761242E0
1.854345037E1,3.586841106E0,5.463412285E0,7.246663570E0
1.856371974E1,3.572484255E0,5.492125988E0,7.237092018E0
1.858398907E1,3.572484255E0,5.501697540E0,7.222734928E0
1.860425844E1,3.553341627E0,5.492125988E0,7.246663570E0
1.862452776E1,3.548556089E0,5.468197823E0,7.261020184E0
1.864479714E1,3.562912941E0,5.463412285E0,7.290332317E0
1.866506646E1,3.577269793E0,5.482554913E0,7.309474945E0
1.868533584E1,3.596412420E0,5.501697540E0,7.295117855E0
1.870560511E1,3.582055569E0,5.463412285E0,7.265805721E0
1.872587448E1,3.605983734E0,5.458626747E0,7.261020184E0
1.874614386E1,3.601198196E0,5.449055195E0,7.271189690E0
1.876641318E1,3.601198196E0,5.453841209E0,7.285546780E0
1.878668256E1,3.591626883E0,5.492125988E0,7.271189690E0
1.880695188E1,3.596412420E0,5.487340450E0,7.246663570E0
1.882722120E1,3.582055569E0,5.449055195E0,7.237092018E0
1.884749052E1,3.601198196E0,5.434698582E0,7.271189690E0
1.886775985E1,3.625126362E0,5.453841209E0,7.319046497E0
1.888802922E1,3.596412420E0,5.472983360E0,7.352545738E0
1.890829855E1,3.577269793E0,5.468197823E0,7.295117855E0
1.892856787E1,3.577269793E0,5.425127029E0,7.251449108E0
1.894883719E1,3.577269793E0,5.434698582E0,7.285546780E0
1.896910652E1,3.591626883E0,5.434698582E0,7.333403111E0
1.898937584E1,3.582055569E0,5.425127029E0,7.285546780E0
1.900964516E1,3.543770313E0,5.420341492E0,7.203592777E0
1.903004516E1,3.500699520E0,5.415555954E0,7.203592777E0
1.905018381E1,3.538984776E0,5.420341492E0,7.265805721E0
1.907045313E1,3.605983734E0,5.487340450E0,7.381259441E0
1.909072250E1,3.605983734E0,5.496912003E0,7.400402069E0
1.911099183E1,3.572484255E0,5.420341492E0,7.314260483E0
1.913126115E1,3.519842148E0,5.338985443E0,7.241877556E0
1.915153042E1,3.582055569E0,5.348556995E0,7.280761242E0
1.917179974E1,3.620340586E0,5.449055195E0,7.376473904E0
1.919206907E1,3.629911900E0,5.496912003E0,7.333403111E0
1.921233839E1,3.625126362E0,5.449055195E0,7.232306480E0
1.923260771E1,3.615555048E0,5.415555954E0,7.217949390E0
1.925287704E1,3.596412420E0,5.425127029E0,7.265805721E0
1.927314636E1,3.582055569E0,5.429912567E0,7.304689407E0
1.929341563E1,3.577269793E0,5.429912567E0,7.314260483E0
1.931381563E1,3.577269793E0,5.453841209E0,7.309474945E0
1.933395428E1,3.548556089E0,5.439484119E0,7.314260483E0
1.935422360E1,3.529413462E0,5.420341492E0,7.319046497E0
1.937449292E1,3.524627686E0,5.401198864E0,7.304689407E0
1.939476219E1,3.553341627E0,5.420341492E0,7.299903870E0
1.941516219E1,3.562912941E0,5.439484119E0,7.299903870E0
1.943530084E1,3.577269793E0,5.439484119E0,7.290332317E0
1.945557011E1,3.596412420E0,5.420341492E0,7.285546780E0
1.947583943E1,3.586841106E0,5.439484119E0,7.304689407E0
1.949610870E1,3.586841106E0,5.429912567E0,7.328617573E0
1.951650870E1,3.572484255E0,5.415555954E0,7.319046497E0
1.953664735E1,3.577269793E0,5.425127029E0,7.295117855E0
1.955691662E1,3.562912941E0,5.410770416E0,7.280761242E0
1.957718594E1,3.577269793E0,5.434698582E0,7.295117855E0
1.959745521E1,3.567698479E0,5.429912567E0,7.314260483E0
1.961785521E1,3.553341627E0,5.415555954E0,7.328617573E0
1.963799381E1,3.567698479E0,5.434698582E0,7.333403111E0
1.965826313E1,3.562912941E0,5.415555954E0,7.328617573E0
1.967853240E1,3.558127165E0,5.434698582E0,7.347760201E0
1.969880172E1,3.548556089E0,5.444269657E0,7.352545738E0
1.971920172E1,3.562912941E0,5.444269657E0,7.319046497E0
1.973934032E1,3.553341627E0,5.468197823E0,7.328617573E0
1.975960959E1,3.553341627E0,5.449055195E0,7.304689407E0
1.977987891E1,3.577269793E0,5.420341492E0,7.290332317E0
1.980014818E1,3.601198196E0,5.444269657E0,7.328617573E0
1.982041750E1,3.582055569E0,5.449055195E0,7.309474945E0
1.984068678E1,3.586841106E0,5.439484119E0,7.323832035E0
1.986095610E1,3.596412420E0,5.420341492E0,7.328617573E0
1.988122537E1,3.605983734E0,5.401198864E0,7.304689407E0
1.990149469E1,3.615555048E0,5.391627789E0,7.314260483E0
1.992176396E1,3.620340586E0,5.405984402E0,7.314260483E0
1.994203329E1,3.596412420E0,5.420341492E0,7.323832035E0
1.996230256E1,3.558127165E0,5.420341492E0,7.333403111E0
1.998257183E1,3.538984776E0,5.434698582E0,7.280761242E0
2.000284115E1,3.519842148E0,5.420341492E0,7.246663570E0
2.002311042E1,3.558127165E0,5.444269657E0,7.265805721E0
2.004337974E1,3.591626883E0,5.463412285E0,7.304689407E0
2.006364902E1,3.591626883E0,5.468197823E0,7.304689407E0
2.008391829E1,3.577269793E0,5.434698582E0,7.280761242E0
2.010418761E1,3.567698479E0,5.405984402E0,7.256234646E0
2.012445688E1,3.572484255E0,5.425127029E0,7.275975227E0
2.014472620E1,3.572484255E0,5.463412285E0,7.309474945E0
2.016499547E1,3.562912941E0,5.477769375E0,7.299903870E0
2.018526474E1,3.586841106E0,5.458626747E0,7.261020184E0
2.020553407E1,3.596412420E0,5.420341492E0,7.256234646E0
2.022580334E1,3.596412420E0,5.463412285E0,7.285546780E0
2.024607261E1,3.596412420E0,5.482554913E0,7.295117855E0
2.026634193E1,3.586841106E0,5.482554913E0,7.246663570E0
2.028661120E1,3.582055569E0,5.496912003E0,7.241877556E0
2.030688052E1,3.558127165E0,5.501697540E0,7.227520943E0
2.032714980E1,3.558127165E0,5.482554913E0,7.237092018E0
2.034741907E1,3.562912941E0,5.472983360E0,7.261020184E0
2.036768839E1,3.586841106E0,5.487340450E0,7.280761242E0
2.038795766E1,3.601198196E0,5.487340450E0,7.271189690E0
2.040822693E1,3.610769272E0,5.501697540E0,7.251449108E0
2.042849625E1,3.596412420E0,5.520840168E0,7.222734928E0
2.044876553E1,3.582055569E0,5.487340450E0,7.213163853E0
2.046903480E1,3.562912941E0,5.472983360E0,7.222734928E0
2.048930412E1,3.572484255E0,5.487340450E0,7.213163853E0
2.050957339E1,3.582055569E0,5.525625706E0,7.227520943E0
2.052984271E1,3.591626883E0,5.530411243E0,7.227520943E0
2.055011198E1,3.591626883E0,5.516054630E0,7.217949390E0
2.057038125E1,3.586841106E0,5.501697540E0,7.227520943E0
2.059065058E1,3.558127165E0,5.511268616E0,7.241877556E0
2.061091985E1,3.543770313E0,5.487340450E0,7.208378315E0
2.063118912E1,3.567698479E0,5.492125988E0,7.203592777E0
2.065145844E1,3.591626883E0,5.506483078E0,7.217949390E0
2.067172771E1,3.596412420E0,5.516054630E0,7.261020184E0
2.069199698E1,3.591626883E0,5.506483078E0,7.246663570E0
2.071226625E1,3.567698479E0,5.487340450E0,7.217949390E0
2.073253558E1,3.567698479E0,5.472983360E0,7.194021225E0
2.075280485E1,3.582055569E0,5.487340450E0,7.261020184E0
2.077307412E1,3.596412420E0,5.511268616E0,7.304689407E0
2.079334344E1,3.591626883E0,5.487340450E0,7.265805721E0
2.081373146E1,3.596412420E0,5.472983360E0,7.203592777E0
2.083376365E1,3.601198196E0,5.496912003E0,7.208378315E0
2.085415162E1,3.601198196E0,5.506483078E0,7.280761242E0
2.087442047E1,3.601198196E0,5.487340450E0,7.309474945E0
2.089468974E1,3.596412420E0,5.472983360E0,7.265805721E0
2.091508974E1,3.605983734E0,5.496912003E0,7.241877556E0
2.093522834E1,3.567698479E0,5.496912003E0,7.241877556E0
2.095549766E1,3.558127165E0,5.472983360E0,7.217949390E0
2.097576693E1,3.596412420E0,5.477769375E0,7.237092018E0
2.099603620E1,3.634697676E0,5.496912003E0,7.265805721E0
2.101643620E1,3.615555048E0,5.487340450E0,7.241877556E0
2.103657474E1,3.605983734E0,5.453841209E0,7.222734928E0
2.105684407E1,3.601198196E0,5.449055195E0,7.246663570E0
2.107711334E1,3.582055569E0,5.482554913E0,7.309474945E0
2.109738266E1,3.558127165E0,5.511268616E0,7.309474945E0
2.111778266E1,3.543770313E0,5.511268616E0,7.237092018E0
2.113792125E1,3.582055569E0,5.501697540E0,7.222734928E0
2.115819053E1,3.582055569E0,5.506483078E0,7.241877556E0
2.117845980E1,3.591626883E0,5.496912003E0,7.246663570E0
2.119872907E1,3.577269793E0,5.477769375E0,7.256234646E0
2.121899834E1,3.572484255E0,5.472983360E0,7.251449108E0
2.123926761E1,3.591626883E0,5.472983360E0,7.256234646E0
2.125953693E1,3.596412420E0,5.472983360E0,7.241877556E0
2.127980620E1,3.605983734E0,5.477769375E0,7.285546780E0
2.130007547E1,3.610769272E0,5.492125988E0,7.280761242E0
2.132034474E1,3.572484255E0,5.482554913E0,7.261020184E0
2.134061402E1,3.543770313E0,5.482554913E0,7.217949390E0
2.136088329E1,3.553341627E0,5.487340450E0,7.237092018E0
2.138115256E1,3.567698479E0,5.492125988E0,7.261020184E0
2.140142183E1,3.596412420E0,5.496912003E0,7.265805721E0
2.142182183E1,3.596412420E0,5.482554913E0,7.256234646E0
2.144196042E1,3.586841106E0,5.477769375E0,7.251449108E0
2.146222969E1,3.582055569E0,5.482554913E0,7.251449108E0
2.148249896E1,3.582055569E0,5.487340450E0,7.265805721E0
2.150276823E1,3.582055569E0,5.492125988E0,7.256234646E0
2.152303750E1,3.601198196E0,5.482554913E0,7.237092018E0
2.154330678E1,3.582055569E0,5.458626747E0,7.227520943E0
2.156357605E1,3.582055569E0,5.472983360E0,7.237092018E0
2.158384532E1,3.596412420E0,5.501697540E0,7.271189690E0
2.160411459E1,3.591626883E0,5.511268616E0,7.295117855E0
2.162438386E1,3.596412420E0,5.482554913E0,7.285546780E0
2.164465313E1,3.577269793E0,5.468197823E0,7.285546780E0
2.166492245E1,3.553341627E0,5.477769375E0,7.271189690E0
2.168519172E1,3.538984776E0,5.468197823E0,7.246663570E0
2.170546099E1,3.548556089E0,5.468197823E0,7.246663570E0
2.172573027E1,3.582055569E0,5.492125988E0,7.265805721E0
2.174599954E1,3.582055569E0,5.506483078E0,7.290332317E0
2.176626881E1,3.591626883E0,5.487340450E0,7.256234646E0
2.178653808E1,3.577269793E0,5.477769375E0,7.246663570E0
2.180680735E1,3.577269793E0,5.487340450E0,7.241877556E0
2.182707662E1,3.582055569E0,5.468197823E0,7.241877556E0
2.184734589E1,3.586841106E0,5.477769375E0,7.280761242E0
2.186761516E1,3.601198196E0,5.506483078E0,7.275975227E0
2.188788443E1,3.591626883E0,5.501697540E0,7.271189690E0
2.190815370E1,3.562912941E0,5.482554913E0,7.256234646E0
2.192842297E1,3.553341627E0,5.482554913E0,7.251449108E0
2.194869224E1,3.558127165E0,5.472983360E0,7.246663570E0
2.196896152E1,3.582055569E0,5.487340450E0,7.271189690E0
2.198923079E1,3.586841106E0,5.487340450E0,7.271189690E0
2.200950006E1,3.582055569E0,5.482554913E0,7.256234646E0
2.202976933E1,3.582055569E0,5.463412285E0,7.213163853E0
2.205003860E1,3.572484255E0,5.434698582E0,7.232306480E0
2.207030787E1,3.586841106E0,5.453841209E0,7.290332317E0
2.209057714E1,3.582055569E0,5.492125988E0,7.299903870E0
2.211084641E1,3.562912941E0,5.511268616E0,7.304689407E0
2.213111563E1,3.543770313E0,5.487340450E0,7.295117855E0
2.215138490E1,3.524627686E0,5.444269657E0,7.251449108E0
2.217165417E1,3.567698479E0,5.458626747E0,7.246663570E0
2.219192344E1,3.605983734E0,5.482554913E0,7.256234646E0
2.221219271E1,3.620340586E0,5.477769375E0,7.271189690E0
2.223246198E1,3.625126362E0,5.458626747E0,7.280761242E0
2.225273125E1,3.615555048E0,5.472983360E0,7.265805721E0
2.227300052E1,3.582055569E0,5.492125988E0,7.241877556E0
2.229326974E1,3.572484255E0,5.477769375E0,7.246663570E0
2.231357829E1,3.562912941E0,5.468197823E0,7.261020184E0
2.233380834E1,3.567698479E0,5.477769375E0,7.251449108E0
2.235407761E1,3.582055569E0,5.487340450E0,7.251449108E0
2.237434678E1,3.582055569E0,5.492125988E0,7.256234646E0
2.239461605E1,3.601198196E0,5.472983360E0,7.251449108E0
2.241501605E1,3.596412420E0,5.463412285E0,7.271189690E0
2.243515459E1,3.591626883E0,5.472983360E0,7.280761242E0
2.245542386E1,3.582055569E0,5.472983360E0,7.275975227E0
2.247569302E1,3.582055569E0,5.468197823E0,7.271189690E0
2.249596235E1,3.582055569E0,5.468197823E0,7.271189690E0
2.251636235E1,3.596412420E0,5.468197823E0,7.256234646E0
2.253650084E1,3.591626883E0,5.482554913E0,7.265805721E0
2.255677011E1,3.572484255E0,5.487340450E0,7.251449108E0
2.257703938E1,3.572484255E0,5.477769375E0,7.261020184E0
2.259730860E1,3.572484255E0,5.468197823E0,7.271189690E0
2.261770860E1,3.567698479E0,5.463412285E0,7.280761242E0
2.263784709E1,3.572484255E0,5.458626747E0,7.271189690E0
2.265811636E1,3.562912941E0,5.463412285E0,7.256234646E0
2.267838563E1,3.582055569E0,5.477769375E0,7.275975227E0
2.269865485E1,3.582055569E0,5.492125988E0,7.280761242E0
2.271905485E1,3.572484255E0,5.482554913E0,7.261020184E0
2.273919339E1,3.572484255E0,5.468197823E0,7.246663570E0
2.275946261E1,3.577269793E0,5.458626747E0,7.246663570E0
2.277973188E1,3.562912941E0,5.468197823E0,7.265805721E0
2.280000110E1,3.572484255E0,5.501697540E0,7.280761242E0
2.282027037E1,3.591626883E0,5.496912003E0,7.271189690E0
2.284053959E1,3.582055569E0,5.463412285E0,7.271189690E0
2.286080886E1,3.591626883E0,5.444269657E0,7.280761242E0
2.288107808E1,3.586841106E0,5.468197823E0,7.271189690E0
2.290134735E1,3.553341627E0,5.482554913E0,7.237092018E0
2.292161657E1,3.538984776E0,5.458626747E0,7.251449108E0
2.294188584E1,3.534198999E0,5.463412285E0,7.261020184E0
2.296215506E1,3.567698479E0,5.453841209E0,7.271189690E0
2.298242428E1,3.615555048E0,5.449055195E0,7.251449108E0
2.300269355E1,3.629911900E0,5.477769375E0,7.261020184E0
2.302296277E1,3.620340586E0,5.477769375E0,7.271189690E0
2.304323198E1,3.596412420E0,5.468197823E0,7.256234646E0
2.306350115E1,3.572484255E0,5.453841209E0,7.256234646E0
2.308377047E1,3.562912941E0,5.458626747E0,7.256234646E0
2.310403969E1,3.577269793E0,5.472983360E0,7.261020184E0
2.312430891E1,3.586841106E0,5.477769375E0,7.285546780E0
2.314457813E1,3.582055569E0,5.482554913E0,7.290332317E0
2.316484735E1,3.577269793E0,5.492125988E0,7.275975227E0
2.318511662E1,3.558127165E0,5.477769375E0,7.275975227E0
2.320538584E1,3.572484255E0,5.453841209E0,7.261020184E0
2.322565506E1,3.591626883E0,5.463412285E0,7.251449108E0
2.324592428E1,3.591626883E0,5.472983360E0,7.261020184E0
2.326619349E1,3.586841106E0,5.468197823E0,7.251449108E0
2.328646277E1,3.582055569E0,5.463412285E0,7.265805721E0
2.330673198E1,3.596412420E0,5.477769375E0,7.280761242E0
2.332700120E1,3.572484255E0,5.487340450E0,7.285546780E0
2.334727042E1,3.562912941E0,5.453841209E0,7.275975227E0
2.336753964E1,3.586841106E0,5.444269657E0,7.241877556E0
2.338780886E1,3.596412420E0,5.463412285E0,7.275975227E0
2.340807813E1,3.591626883E0,5.444269657E0,7.295117855E0
2.342834735E1,3.591626883E0,5.453841209E0,7.285546780E0
2.344861657E1,3.591626883E0,5.482554913E0,7.280761242E0
2.346888579E1,3.582055569E0,5.482554913E0,7.275975227E0
2.348915500E1,3.567698479E0,5.458626747E0,7.271189690E0
2.350942422E1,3.562912941E0,5.453841209E0,7.290332317E0
2.352969344E1,3.582055569E0,5.434698582E0,7.319046497E0
2.354996266E1,3.567698479E0,5.453841209E0,7.304689407E0
2.357023188E1,3.558127165E0,5.463412285E0,7.275975227E0
2.359050110E1,3.558127165E0,5.453841209E0,7.280761242E0
2.361077032E1,3.558127165E0,5.439484119E0,7.271189690E0
2.363103954E1,3.567698479E0,5.429912567E0,7.290332317E0
2.365130875E1,3.586841106E0,5.449055195E0,7.304689407E0
2.367157797E1,3.586841106E0,5.449055195E0,7.275975227E0
2.369184719E1,3.591626883E0,5.444269657E0,7.265805721E0
2.371211636E1,3.596412420E0,5.439484119E0,7.261020184E0
2.373238558E1,3.596412420E0,5.439484119E0,7.280761242E0
2.375265480E1,3.601198196E0,5.434698582E0,7.285546780E0
2.377292402E1,3.591626883E0,5.434698582E0,7.319046497E0
2.379319323E1,3.596412420E0,5.420341492E0,7.323832035E0
2.381359323E1,3.610769272E0,5.415555954E0,7.328617573E0
2.383373167E1,3.586841106E0,5.425127029E0,7.309474945E0
2.385400084E1,3.562912941E0,5.434698582E0,7.309474945E0
2.387427006E1,3.562912941E0,5.415555954E0,7.280761242E0
2.389453928E1,3.572484255E0,5.410770416E0,7.304689407E0
2.391493928E1,3.577269793E0,5.439484119E0,7.314260483E0
2.393507766E1,3.577269793E0,5.425127029E0,7.319046497E0
2.395534688E1,3.586841106E0,5.425127029E0,7.314260483E0
2.397561610E1,3.605983734E0,5.410770416E0,7.323832035E0
2.399588532E1,3.591626883E0,5.425127029E0,7.333403111E0
2.401628532E1,3.596412420E0,5.410770416E0,7.309474945E0
2.403642370E1,3.591626883E0,5.415555954E0,7.290332317E0
2.405669292E1,3.582055569E0,5.420341492E0,7.299903870E0
2.407696209E1,3.577269793E0,5.405984402E0,7.304689407E0
2.409723131E1,3.591626883E0,5.420341492E0,7.295117855E0
2.411763131E1,3.582055569E0,5.439484119E0,7.285546780E0
2.413776969E1,3.572484255E0,5.439484119E0,7.290332317E0
2.415803891E1,3.577269793E0,5.434698582E0,7.295117855E0
2.417830808E1,3.586841106E0,5.415555954E0,7.314260483E0
2.419857730E1,3.582055569E0,5.401198864E0,7.309474945E0
2.421884646E1,3.596412420E0,5.377270699E0,7.328617573E0
2.423911568E1,3.591626883E0,5.415555954E0,7.357331276E0
2.425938485E1,3.601198196E0,5.425127029E0,7.362117290E0
2.427965407E1,3.577269793E0,5.405984402E0,7.323832035E0
2.429992323E1,3.562912941E0,5.396413326E0,7.285546780E0
2.432019245E1,3.567698479E0,5.382056236E0,7.290332317E0
2.434046162E1,3.586841106E0,5.396413326E0,7.328617573E0
2.436073084E1,3.596412420E0,5.425127029E0,7.338188648E0
2.438100000E1,3.596412420E0,5.449055195E0,7.309474945E0
2.440126917E1,3.601198196E0,5.425127029E0,7.295117855E0
2.442166917E1,3.601198196E0,5.410770416E0,7.314260483E0
2.444180756E1,3.610769272E0,5.382056236E0,7.338188648E0
2.446207672E1,3.615555048E0,5.382056236E0,7.342974663E0
2.448234584E1,3.596412420E0,5.410770416E0,7.352545738E0
2.450261511E1,3.601198196E0,5.420341492E0,7.352545738E0
2.452288428E1,3.601198196E0,5.396413326E0,7.323832035E0
2.454315344E1,3.601198196E0,5.410770416E0,7.309474945E0
2.456342256E1,3.596412420E0,5.434698582E0,7.299903870E0
2.458369183E1,3.572484255E0,5.434698582E0,7.319046497E0
2.460396099E1,3.548556089E0,5.439484119E0,7.314260483E0
2.462423016E1,3.543770313E0,5.453841209E0,7.314260483E0
2.464449933E1,3.538984776E0,5.444269657E0,7.314260483E0
2.466476849E1,3.524627686E0,5.439484119E0,7.333403111E0
2.468503766E1,3.529413462E0,5.434698582E0,7.309474945E0
2.470530688E1,3.543770313E0,5.386841774E0,7.285546780E0
2.472557605E1,3.605983734E0,5.367699623E0,7.271189690E0
2.474584521E1,3.668197155E0,5.429912567E0,7.232306480E0
2.476611438E1,3.706482172E0,5.477769375E0,7.194021225E0
2.478638355E1,3.744767427E0,5.525625706E0,7.146164894E0
2.480665271E1,3.744767427E0,5.568696499E0,7.179664135E0
2.482692188E1,3.677768469E0,5.525625706E0,7.232306480E0
2.484719105E1,3.625126362E0,5.453841209E0,7.208378315E0
2.486746021E1,3.596412420E0,5.410770416E0,7.194021225E0
2.488772938E1,3.572484255E0,5.425127029E0,7.189235687E0
2.490799855E1,3.596412420E0,5.492125988E0,7.217949390E0
2.492826771E1,3.639483213E0,5.525625706E0,7.213163853E0
2.494853688E1,3.682554007E0,5.544768333E0,7.241877556E0
2.496880599E1,3.672982693E0,5.501697540E0,7.261020184E0
2.498907516E1,3.668197155E0,5.501697540E0,7.246663570E0
2.500934433E1,3.644268990E0,5.539982796E0,7.271189690E0
2.502961349E1,3.620340586E0,5.559125423E0,7.261020184E0
2.504988266E1,3.596412420E0,5.520840168E0,7.213163853E0
2.507015183E1,3.572484255E0,5.468197823E0,7.150950432E0
2.509042099E1,3.591626883E0,5.468197823E0,7.179664135E0
2.511069016E1,3.605983734E0,5.506483078E0,7.227520943E0
2.513095933E1,3.610769272E0,5.496912003E0,7.241877556E0
2.515118907E1,3.605983734E0,5.496912003E0,7.241877556E0
2.517149756E1,3.586841106E0,5.506483078E0,7.217949390E0
2.519176672E1,3.567698479E0,5.496912003E0,7.232306480E0
2.521203584E1,3.577269793E0,5.496912003E0,7.222734928E0
2.523230500E1,3.596412420E0,5.487340450E0,7.217949390E0
2.525257417E1,3.629911900E0,5.487340450E0,7.179664135E0
2.527284334E1,3.639483213E0,5.520840168E0,7.217949390E0
2.529311256E1,3.615555048E0,5.535196781E0,7.246663570E0
2.531338162E1,3.586841106E0,5.516054630E0,7.241877556E0
2.533365084E1,3.548556089E0,5.501697540E0,7.222734928E0
2.535392000E1,3.543770313E0,5.487340450E0,7.222734928E0
2.537418917E1,3.577269793E0,5.468197823E0,7.246663570E0
2.539445829E1,3.605983734E0,5.487340450E0,7.265805721E0
2.541485829E1,3.615555048E0,5.506483078E0,7.271189690E0
2.543499657E1,3.615555048E0,5.520840168E0,7.256234646E0
2.545526573E1,3.605983734E0,5.482554913E0,7.241877556E0
2.547553490E1,3.615555048E0,5.429912567E0,7.232306480E0
2.549580402E1,3.625126362E0,5.420341492E0,7.251449108E0
2.551620402E1,3.634697676E0,5.453841209E0,7.271189690E0
2.553634230E1,3.639483213E0,5.487340450E0,7.251449108E0
2.555661146E1,3.634697676E0,5.492125988E0,7.241877556E0
2.557688063E1,3.620340586E0,5.472983360E0,7.256234646E0
2.559714974E1,3.586841106E0,5.458626747E0,7.232306480E0
2.561754974E1,3.562912941E0,5.449055195E0,7.198806763E0
2.563768803E1,3.601198196E0,5.472983360E0,7.203592777E0
2.565795719E1,3.668197155E0,5.525625706E0,7.237092018E0
2.567822631E1,3.668197155E0,5.520840168E0,7.256234646E0
2.569849547E1,3.649054527E0,5.468197823E0,7.256234646E0
2.571889547E1,3.605983734E0,5.458626747E0,7.246663570E0
2.573903474E1,3.582055569E0,5.444269657E0,7.251449108E0
2.575930370E1,3.591626883E0,5.453841209E0,7.241877556E0
2.577957266E1,3.577269793E0,5.477769375E0,7.256234646E0
2.579984167E1,3.625126362E0,5.477769375E0,7.261020184E0
2.582011073E1,3.634697676E0,5.492125988E0,7.265805721E0
2.584037974E1,3.629911900E0,5.501697540E0,7.251449108E0
2.586064875E1,3.629911900E0,5.472983360E0,7.227520943E0
2.588091787E1,3.629911900E0,5.463412285E0,7.237092018E0
2.590118693E1,3.620340586E0,5.472983360E0,7.261020184E0
2.592145605E1,3.625126362E0,5.458626747E0,7.256234646E0
2.594172516E1,3.610769272E0,5.468197823E0,7.261020184E0
2.596199428E1,3.591626883E0,5.492125988E0,7.256234646E0
2.598226339E1,3.582055569E0,5.477769375E0,7.241877556E0
2.600253256E1,3.586841106E0,5.453841209E0,7.237092018E0
2.602280167E1,3.615555048E0,5.472983360E0,7.251449108E0
2.604307079E1,3.625126362E0,5.487340450E0,7.251449108E0
2.606333985E1,3.625126362E0,5.487340450E0,7.251449108E0
2.608360902E1,3.596412420E0,5.482554913E0,7.271189690E0
2.610387808E1,3.591626883E0,5.458626747E0,7.271189690E0
2.612414724E1,3.558127165E0,5.458626747E0,7.241877556E0
2.614441636E1,3.572484255E0,5.463412285E0,7.265805721E0
2.616468553E1,3.610769272E0,5.463412285E0,7.261020184E0
2.618495464E1,3.629911900E0,5.472983360E0,7.265805721E0
2.620522375E1,3.625126362E0,5.472983360E0,7.261020184E0
2.622549287E1,3.629911900E0,5.458626747E0,7.251449108E0
2.624576204E1,3.615555048E0,5.453841209E0,7.246663570E0
2.626603115E1,3.620340586E0,5.468197823E0,7.256234646E0
2.628630026E1,3.620340586E0,5.472983360E0,7.261020184E0
2.630656938E1,3.625126362E0,5.482554913E0,7.265805721E0
2.632683855E1,3.625126362E0,5.482554913E0,7.265805721E0
2.634710766E1,3.605983734E0,5.463412285E0,7.271189690E0
2.636737678E1,3.582055569E0,5.449055195E0,7.261020184E0
2.638764589E1,3.582055569E0,5.458626747E0,7.256234646E0
2.640791500E1,3.596412420E0,5.477769375E0,7.256234646E0
2.642818417E1,3.610769272E0,5.472983360E0,7.285546780E0
2.644845329E1,3.605983734E0,5.458626747E0,7.261020184E0
2.646872240E1,3.634697676E0,5.472983360E0,7.256234646E0
2.648899152E1,3.639483213E0,5.477769375E0,7.246663570E0
2.650926063E1,3.629911900E0,5.487340450E0,7.261020184E0
2.652952974E1,3.610769272E0,5.472983360E0,7.261020184E0
2.654979886E1,3.596412420E0,5.453841209E0,7.275975227E0
2.657006797E1,3.582055569E0,5.453841209E0,7.251449108E0
2.659033709E1,3.601198196E0,5.482554913E0,7.256234646E0
2.661060620E1,3.610769272E0,5.477769375E0,7.265805721E0
2.663087532E1,3.596412420E0,5.453841209E0,7.261020184E0
2.665114443E1,3.601198196E0,5.463412285E0,7.246663570E0
2.667141355E1,3.601198196E0,5.482554913E0,7.241877556E0
2.669168266E1,3.605983734E0,5.472983360E0,7.261020184E0
2.671195178E1,3.610769272E0,5.463412285E0,7.275975227E0
2.673222089E1,3.615555048E0,5.439484119E0,7.295117855E0
2.675249000E1,3.615555048E0,5.472983360E0,7.271189690E0
2.677275912E1,3.582055569E0,5.472983360E0,7.261020184E0
2.679302823E1,3.562912941E0,5.463412285E0,7.265805721E0
2.681329735E1,3.586841106E0,5.463412285E0,7.251449108E0
2.683356646E1,3.591626883E0,5.463412285E0,7.261020184E0
2.685383552E1,3.591626883E0,5.463412285E0,7.251449108E0
2.687410464E1,3.620340586E0,5.453841209E0,7.237092018E0
2.689437375E1,3.625126362E0,5.458626747E0,7.241877556E0
2.691477375E1,3.610769272E0,5.463412285E0,7.251449108E0
2.693491193E1,3.610769272E0,5.468197823E0,7.256234646E0
2.695518105E1,3.601198196E0,5.463412285E0,7.256234646E0
2.697545016E1,3.605983734E0,5.482554913E0,7.290332317E0
2.699571928E1,3.601198196E0,5.487340450E0,7.295117855E0
2.701611928E1,3.582055569E0,5.463412285E0,7.261020184E0
2.703625745E1,3.572484255E0,5.458626747E0,7.280761242E0
2.705652657E1,3.562912941E0,5.458626747E0,7.271189690E0
2.707679568E1,3.558127165E0,5.449055195E0,7.271189690E0
2.709706474E1,3.558127165E0,5.468197823E0,7.275975227E0
2.711746474E1,3.572484255E0,5.477769375E0,7.275975227E0
2.713760297E1,3.601198196E0,5.444269657E0,7.271189690E0
2.715787204E1,3.620340586E0,5.472983360E0,7.280761242E0
2.717814115E1,3.649054527E0,5.468197823E0,7.271189690E0
2.719841027E1,3.634697676E0,5.439484119E0,7.271189690E0
2.721867933E1,3.610769272E0,5.463412285E0,7.246663570E0
2.723894844E1,3.605983734E0,5.487340450E0,7.246663570E0
2.725921750E1,3.586841106E0,5.477769375E0,7.256234646E0
2.727948662E1,3.582055569E0,5.449055195E0,7.251449108E0
2.729975573E1,3.605983734E0,5.453841209E0,7.246663570E0
2.732002474E1,3.610769272E0,5.482554913E0,7.246663570E0
2.734029391E1,3.615555048E0,5.492125988E0,7.265805721E0
2.736056297E1,3.620340586E0,5.477769375E0,7.271189690E0
2.738083209E1,3.625126362E0,5.444269657E0,7.290332317E0
2.740110115E1,3.615555048E0,5.458626747E0,7.265805721E0
2.742150115E1,3.591626883E0,5.468197823E0,7.256234646E0
2.744163933E1,3.567698479E0,5.458626747E0,7.261020184E0
2.746190844E1,3.577269793E0,5.458626747E0,7.280761242E0
2.748217750E1,3.582055569E0,5.463412285E0,7.295117855E0
2.750244657E1,3.601198196E0,5.477769375E0,7.271189690E0
2.752271568E1,3.615555048E0,5.477769375E0,7.241877556E0
2.754298474E1,3.629911900E0,5.468197823E0,7.251449108E0
2.756325386E1,3.625126362E0,5.449055195E0,7.265805721E0
2.758352292E1,3.625126362E0,5.453841209E0,7.261020184E0
2.760379198E1,3.610769272E0,5.468197823E0,7.261020184E0
2.762406110E1,3.591626883E0,5.472983360E0,7.256234646E0
2.764433016E1,3.601198196E0,5.463412285E0,7.285546780E0
2.766459928E1,3.605983734E0,5.449055195E0,7.290332317E0
2.768486834E1,3.601198196E0,5.468197823E0,7.285546780E0
2.770513740E1,3.572484255E0,5.487340450E0,7.265805721E0
2.772540646E1,3.567698479E0,5.492125988E0,7.246663570E0
2.774567558E1,3.582055569E0,5.463412285E0,7.232306480E0
2.776594464E1,3.605983734E0,5.453841209E0,7.261020184E0
2.778621370E1,3.610769272E0,5.477769375E0,7.285546780E0
2.780648282E1,3.591626883E0,5.472983360E0,7.265805721E0
2.782675188E1,3.615555048E0,5.468197823E0,7.256234646E0
2.784702094E1,3.610769272E0,5.468197823E0,7.241877556E0
2.786729000E1,3.601198196E0,5.468197823E0,7.280761242E0
2.788755912E1,3.601198196E0,5.453841209E0,7.309474945E0
2.790782818E1,3.601198196E0,5.482554913E0,7.304689407E0
2.792809724E1,3.605983734E0,5.482554913E0,7.256234646E0
2.794836631E1,3.586841106E0,5.453841209E0,7.237092018E0
2.796863537E1,3.586841106E0,5.444269657E0,7.251449108E0
2.798890448E1,3.596412420E0,5.458626747E0,7.261020184E0
2.800917355E1,3.596412420E0,5.487340450E0,7.265805721E0
2.802944261E1,3.601198196E0,5.482554913E0,7.241877556E0
2.804971167E1,3.620340586E0,5.472983360E0,7.261020184E0
2.806998073E1,3.639483213E0,5.458626747E0,7.246663570E0
2.809024980E1,3.620340586E0,5.449055195E0,7.241877556E0
2.811051886E1,3.615555048E0,5.453841209E0,7.232306480E0
2.813078797E1,3.601198196E0,5.468197823E0,7.251449108E0
2.815105704E1,3.596412420E0,5.463412285E0,7.275975227E0
2.817132610E1,3.605983734E0,5.468197823E0,7.251449108E0
2.819159516E1,3.591626883E0,5.482554913E0,7.261020184E0
2.821186422E1,3.591626883E0,5.458626747E0,7.265805721E0
2.823213329E1,3.596412420E0,5.463412285E0,7.261020184E0
2.825240235E1,3.591626883E0,5.468197823E0,7.246663570E0
2.827267141E1,3.596412420E0,5.458626747E0,7.265805721E0
2.829294047E1,3.596412420E0,5.449055195E0,7.285546780E0
2.831334047E1,3.596412420E0,5.434698582E0,7.285546780E0
2.833347860E1,3.596412420E0,5.453841209E0,7.275975227E0
2.835374766E1,3.605983734E0,5.449055195E0,7.261020184E0
2.837401672E1,3.601198196E0,5.439484119E0,7.265805721E0
2.839428579E1,3.610769272E0,5.449055195E0,7.271189690E0
2.841468579E1,3.620340586E0,5.458626747E0,7.280761242E0
2.843482391E1,3.629911900E0,5.458626747E0,7.280761242E0
2.845509297E1,3.615555048E0,5.449055195E0,7.256234646E0
2.847536204E1,3.610769272E0,5.439484119E0,7.251449108E0
2.849563110E1,3.629911900E0,5.453841209E0,7.265805721E0
2.851603110E1,3.629911900E0,5.449055195E0,7.285546780E0
2.853616922E1,3.625126362E0,5.449055195E0,7.304689407E0
2.855643829E1,3.620340586E0,5.434698582E0,7.309474945E0
2.857670730E1,3.591626883E0,5.444269657E0,7.299903870E0
2.859697636E1,3.596412420E0,5.429912567E0,7.275975227E0
2.861737636E1,3.610769272E0,5.405984402E0,7.285546780E0
2.863751448E1,3.605983734E0,5.434698582E0,7.280761242E0
2.865791448E1,3.615555048E0,5.458626747E0,7.290332317E0
2.867805261E1,3.625126362E0,5.453841209E0,7.285546780E0
2.869832162E1,3.610769272E0,5.444269657E0,7.261020184E0
2.871872162E1,3.591626883E0,5.425127029E0,7.280761242E0
2.873885974E1,3.601198196E0,5.415555954E0,7.304689407E0
2.875912881E1,3.625126362E0,5.420341492E0,7.304689407E0
2.877939787E1,3.610769272E0,5.429912567E0,7.290332317E0
2.879966688E1,3.601198196E0,5.429912567E0,7.265805721E0
2.881993594E1,3.605983734E0,5.429912567E0,7.295117855E0
2.884020500E1,3.601198196E0,5.425127029E0,7.295117855E0
2.886047402E1,3.596412420E0,5.425127029E0,7.304689407E0
2.888074308E1,3.601198196E0,5.425127029E0,7.295117855E0
2.890101214E1,3.596412420E0,5.425127029E0,7.295117855E0
2.892128115E1,3.615555048E0,5.434698582E0,7.309474945E0
2.894155021E1,3.634697676E0,5.434698582E0,7.285546780E0
2.896181928E1,3.625126362E0,5.410770416E0,7.304689407E0
2.898208834E1,3.610769272E0,5.410770416E0,7.314260483E0
2.900235735E1,3.605983734E0,5.410770416E0,7.309474945E0
2.902262636E1,3.605983734E0,5.415555954E0,7.304689407E0
2.904289547E1,3.577269793E0,5.415555954E0,7.309474945E0
2.906316448E1,3.586841106E0,5.410770416E0,7.314260483E0
2.908343355E1,3.582055569E0,5.410770416E0,7.328617573E0
2.910370261E1,3.596412420E0,5.425127029E0,7.323832035E0
2.912397162E1,3.605983734E0,5.396413326E0,7.319046497E0
2.914424068E1,3.615555048E0,5.415555954E0,7.314260483E0
2.916450969E1,3.615555048E0,5.405984402E0,7.299903870E0
2.918477875E1,3.610769272E0,5.410770416E0,7.295117855E0
2.920504782E1,3.605983734E0,5.405984402E0,7.304689407E0
2.922531683E1,3.601198196E0,5.415555954E0,7.304689407E0
2.924558589E1,3.586841106E0,5.420341492E0,7.309474945E0
2.926585490E1,3.582055569E0,5.405984402E0,7.314260483E0
2.928612396E1,3.577269793E0,5.415555954E0,7.319046497E0
2.930639297E1,3.586841106E0,5.405984402E0,7.290332317E0
2.932666204E1,3.586841106E0,5.415555954E0,7.295117855E0
2.934693105E1,3.601198196E0,5.429912567E0,7.304689407E0
2.936720011E1,3.601198196E0,5.415555954E0,7.314260483E0
2.938746912E1,3.615555048E0,5.405984402E0,7.314260483E0
2.940773818E1,3.615555048E0,5.405984402E0,7.323832035E0
2.942800719E1,3.601198196E0,5.410770416E0,7.299903870E0
2.944827625E1,3.591626883E0,5.425127029E0,7.304689407E0
2.946854527E1,3.610769272E0,5.420341492E0,7.304689407E0
2.948881433E1,3.610769272E0,5.396413326E0,7.323832035E0
2.950908334E1,3.620340586E0,5.410770416E0,7.304689407E0
2.952935240E1,3.615555048E0,5.415555954E0,7.314260483E0
2.954962141E1,3.620340586E0,5.415555954E0,7.299903870E0
2.956989042E1,3.634697676E0,5.439484119E0,7.275975227E0
2.959015948E1,3.629911900E0,5.434698582E0,7.285546780E0
2.961042849E1,3.620340586E0,5.420341492E0,7.295117855E0
2.963069750E1,3.615555048E0,5.415555954E0,7.290332317E0
2.965096657E1,3.620340586E0,5.429912567E0,7.295117855E0
2.967123558E1,3.591626883E0,5.429912567E0,7.299903870E0
2.969150459E1,3.577269793E0,5.425127029E0,7.299903870E0
2.971177365E1,3.586841106E0,5.425127029E0,7.299903870E0
2.973204266E1,3.596412420E0,5.434698582E0,7.285546780E0
2.975231172E1,3.620340586E0,5.429912567E0,7.295117855E0
2.977258073E1,3.615555048E0,5.439484119E0,7.304689407E0
2.979284974E1,3.610769272E0,5.449055195E0,7.299903870E0
2.981311875E1,3.591626883E0,5.449055195E0,7.271189690E0
2.983338782E1,3.596412420E0,5.444269657E0,7.251449108E0
2.985365683E1,3.620340586E0,5.425127029E0,7.256234646E0
2.987392584E1,3.644268990E0,5.453841209E0,7.256234646E0
2.989419490E1,3.644268990E0,5.468197823E0,7.265805721E0
2.991459490E1,3.620340586E0,5.453841209E0,7.271189690E0
2.993473292E1,3.629911900E0,5.439484119E0,7.241877556E0
2.995500193E1,3.634697676E0,5.429912567E0,7.261020184E0
2.997527094E1,3.639483213E0,5.472983360E0,7.304689407E0
2.999554000E1,3.644268990E0,5.482554913E0,7.271189690E0
3.001594000E1,3.615555048E0,5.458626747E0,7.237092018E0
3.003607803E1,3.577269793E0,5.468197823E0,7.222734928E0
3.005634704E1,3.553341627E0,5.482554913E0,7.237092018E0
3.007661605E1,3.572484255E0,5.482554913E0,7.256234646E0
3.009688511E1,3.610769272E0,5.472983360E0,7.241877556E0
3.011728511E1,3.634697676E0,5.487340450E0,7.213163853E0
3.013742313E1,3.639483213E0,5.501697540E0,7.227520943E0
3.015769214E1,3.649054527E0,5.496912003E0,7.237092018E0
3.017796115E1,3.644268990E0,5.487340450E0,7.213163853E0
3.019823016E1,3.610769272E0,5.492125988E0,7.217949390E0
3.021849917E1,3.601198196E0,5.501697540E0,7.222734928E0
3.023876813E1,3.615555048E0,5.506483078E0,7.222734928E0
3.025903724E1,3.634697676E0,5.487340450E0,7.213163853E0
3.027930625E1,3.644268990E0,5.492125988E0,7.227520943E0
3.029957526E1,3.634697676E0,5.482554913E0,7.227520943E0
3.031984428E1,3.625126362E0,5.482554913E0,7.198806763E0
3.034011329E1,3.591626883E0,5.487340450E0,7.194021225E0
3.036038230E1,3.605983734E0,5.492125988E0,7.222734928E0
3.038065131E1,3.601198196E0,5.472983360E0,7.246663570E0
3.040105131E1,3.596412420E0,5.482554913E0,7.256234646E0
3.042111042E1,3.596412420E0,5.496912003E0,7.256234646E0
3.044145797E1,3.610769272E0,5.487340450E0,7.241877556E0
3.046172709E1,3.625126362E0,5.487340450E0,7.237092018E0
3.048199615E1,3.639483213E0,5.487340450E0,7.251449108E0
3.050226521E1,3.649054527E0,5.472983360E0,7.246663570E0
3.052253422E1,3.649054527E0,5.468197823E0,7.232306480E0
3.054280329E1,3.634697676E0,5.453841209E0,7.208378315E0
3.056307230E1,3.639483213E0,5.453841209E0,7.237092018E0
3.058334136E1,3.639483213E0,5.472983360E0,7.246663570E0
3.060361032E1,3.649054527E0,5.482554913E0,7.232306480E0
3.062387938E1,3.682554007E0,5.501697540E0,7.237092018E0
3.064414834E1,3.668197155E0,5.501697540E0,7.265805721E0
3.066441735E1,3.634697676E0,5.472983360E0,7.261020184E0
3.068468636E1,3.620340586E0,5.458626747E0,7.222734928E0
3.070495542E1,3.591626883E0,5.482554913E0,7.237092018E0
3.072522443E1,3.596412420E0,5.482554913E0,7.246663570E0
3.074549344E1,3.605983734E0,5.501697540E0,7.237092018E0
3.076576245E1,3.625126362E0,5.496912003E0,7.261020184E0
3.078603146E1,3.610769272E0,5.492125988E0,7.251449108E0
3.080630042E1,3.610769272E0,5.482554913E0,7.246663570E0
3.082656943E1,3.634697676E0,5.472983360E0,7.237092018E0
3.084683844E1,3.649054527E0,5.477769375E0,7.261020184E0
3.086710745E1,3.634697676E0,5.482554913E0,7.246663570E0
3.088737646E1,3.629911900E0,5.487340450E0,7.241877556E0
3.090764542E1,3.644268990E0,5.472983360E0,7.246663570E0
3.092791443E1,3.649054527E0,5.463412285E0,7.251449108E0
3.094818344E1,3.639483213E0,5.468197823E0,7.271189690E0
3.096845245E1,3.629911900E0,5.472983360E0,7.261020184E0
3.098872146E1,3.629911900E0,5.472983360E0,7.222734928E0
3.100899042E1,3.620340586E0,5.487340450E0,7.251449108E0
3.102925943E1,3.605983734E0,5.477769375E0,7.241877556E0
3.104952844E1,3.596412420E0,5.477769375E0,7.241877556E0
3.106979745E1,3.610769272E0,5.472983360E0,7.222734928E0
3.109006641E1,3.629911900E0,5.468197823E0,7.251449108E0
3.111033542E1,3.620340586E0,5.482554913E0,7.271189690E0
3.113060443E1,3.610769272E0,5.487340450E0,7.261020184E0
3.115087339E1,3.601198196E0,5.472983360E0,7.246663570E0
3.117114240E1,3.586841106E0,5.449055195E0,7.227520943E0
3.119141141E1,3.591626883E0,5.468197823E0,7.261020184E0
3.121168042E1,3.615555048E0,5.477769375E0,7.265805721E0
3.123194938E1,3.634697676E0,5.482554913E0,7.246663570E0
3.125221839E1,3.634697676E0,5.477769375E0,7.251449108E0
3.127248740E1,3.620340586E0,5.458626747E0,7.241877556E0
3.129275636E1,3.601198196E0,5.472983360E0,7.265805721E0
3.131302537E1,3.596412420E0,5.477769375E0,7.261020184E0
3.133329433E1,3.601198196E0,5.463412285E0,7.246663570E0
3.135356334E1,3.615555048E0,5.477769375E0,7.241877556E0
3.137383235E1,3.601198196E0,5.482554913E0,7.256234646E0
3.139410131E1,3.615555048E0,5.472983360E0,7.251449108E0
3.141450131E1,3.620340586E0,5.472983360E0,7.251449108E0
3.143463933E1,3.625126362E0,5.468197823E0,7.237092018E0
3.145490829E1,3.610769272E0,5.468197823E0,7.232306480E0
3.147517730E1,3.610769272E0,5.472983360E0,7.246663570E0
3.149544625E1,3.610769272E0,5.463412285E0,7.251449108E0
3.151584625E1,3.620340586E0,5.468197823E0,7.256234646E0
3.153598422E1,3.625126362E0,5.477769375E0,7.251449108E0
3.155625323E1,3.634697676E0,5.468197823E0,7.275975227E0
3.157652224E1,3.615555048E0,5.444269657E0,7.265805721E0
3.159679120E1,3.610769272E0,5.468197823E0,7.237092018E0
3.161719120E1,3.620340586E0,5.472983360E0,7.246663570E0
3.163732917E1,3.629911900E0,5.453841209E0,7.265805721E0
3.165759813E1,3.639483213E0,5.463412285E0,7.251449108E0
3.167786714E1,3.644268990E0,5.482554913E0,7.246663570E0
3.169813610E1,3.629911900E0,5.492125988E0,7.246663570E0
3.171853610E1,3.625126362E0,5.477769375E0,7.246663570E0
3.173867407E1,3.634697676E0,5.463412285E0,7.237092018E0
3.175894302E1,3.639483213E0,5.487340450E0,7.227520943E0
3.177921204E1,3.644268990E0,5.492125988E0,7.246663570E0
3.179961204E1,3.639483213E0,5.477769375E0,7.227520943E0
3.181975000E1,3.605983734E0,5.472983360E0,7.217949390E0
3.184001896E1,3.620340586E0,5.501697540E0,7.227520943E0
3.186028797E1,3.610769272E0,5.501697540E0,7.232306480E0
3.188055693E1,3.615555048E0,5.492125988E0,7.237092018E0
3.190082589E1,3.615555048E0,5.472983360E0,7.251449108E0
3.192109490E1,3.620340586E0,5.477769375E0,7.271189690E0
3.194136386E1,3.605983734E0,5.472983360E0,7.256234646E0
3.196163287E1,3.596412420E0,5.477769375E0,7.271189690E0
3.198190183E1,3.591626883E0,5.444269657E0,7.295117855E0
3.200217079E1,3.610769272E0,5.439484119E0,7.290332317E0
3.202243974E1,3.596412420E0,5.463412285E0,7.246663570E0
3.204270875E1,3.591626883E0,5.463412285E0,7.246663570E0
3.206297771E1,3.591626883E0,5.482554913E0,7.251449108E0
3.208324667E1,3.615555048E0,5.487340450E0,7.222734928E0
3.210351568E1,3.625126362E0,5.477769375E0,7.213163853E0
3.212378464E1,3.644268990E0,5.482554913E0,7.227520943E0
3.214405360E1,3.634697676E0,5.487340450E0,7.251449108E0
3.216432261E1,3.629911900E0,5.496912003E0,7.251449108E0
3.218459157E1,3.620340586E0,5.496912003E0,7.246663570E0
3.220486052E1,3.615555048E0,5.482554913E0,7.246663570E0
3.222512948E1,3.615555048E0,5.458626747E0,7.271189690E0
3.224539849E1,3.601198196E0,5.477769375E0,7.295117855E0
3.226566745E1,3.558127165E0,5.482554913E0,7.280761242E0
3.228593641E1,3.534198999E0,5.487340450E0,7.246663570E0
3.230620537E1,3.548556089E0,5.477769375E0,7.241877556E0
3.232647433E1,3.572484255E0,5.444269657E0,7.271189690E0
3.234674334E1,3.591626883E0,5.439484119E0,7.285546780E0
3.236701230E1,3.586841106E0,5.463412285E0,7.285546780E0
3.238728125E1,3.596412420E0,5.482554913E0,7.271189690E0
3.240755021E1,3.644268990E0,5.453841209E0,7.256234646E0
3.242781917E1,3.653840065E0,5.429912567E0,7.246663570E0
3.244808818E1,3.629911900E0,5.434698582E0,7.246663570E0
3.246835714E1,3.601198196E0,5.477769375E0,7.251449108E0
3.248862610E1,3.596412420E0,5.501697540E0,7.256234646E0
3.250889506E1,3.615555048E0,5.482554913E0,7.237092018E0
3.252916402E1,3.634697676E0,5.458626747E0,7.232306480E0
3.254943297E1,3.644268990E0,5.434698582E0,7.251449108E0
3.256970198E1,3.629911900E0,5.468197823E0,7.275975227E0
3.258997094E1,3.625126362E0,5.496912003E0,7.275975227E0
3.261023990E1,3.625126362E0,5.472983360E0,7.256234646E0
3.263050886E1,3.605983734E0,5.444269657E0,7.256234646E0
3.265077782E1,3.605983734E0,5.439484119E0,7.251449108E0
3.267104678E1,3.615555048E0,5.449055195E0,7.256234646E0
3.269131573E1,3.615555048E0,5.468197823E0,7.265805721E0
3.271158469E1,3.639483213E0,5.482554913E0,7.271189690E0
3.273185365E1,3.639483213E0,5.472983360E0,7.251449108E0
3.275212266E1,3.629911900E0,5.453841209E0,7.246663570E0
3.277239157E1,3.634697676E0,5.458626747E0,7.246663570E0
3.279266052E1,3.658625841E0,5.463412285E0,7.241877556E0
3.281292954E1,3.653840065E0,5.453841209E0,7.246663570E0
3.283319849E1,3.687339783E0,5.434698582E0,7.261020184E0
3.285346745E1,3.653840065E0,5.444269657E0,7.271189690E0
3.287373641E1,3.610769272E0,5.463412285E0,7.251449108E0
3.289400537E1,3.591626883E0,5.463412285E0,7.237092018E0
3.291440537E1,3.586841106E0,5.468197823E0,7.241877556E0
3.293454329E1,3.610769272E0,5.468197823E0,7.261020184E0
3.295481219E1,3.629911900E0,5.463412285E0,7.275975227E0
3.297508115E1,3.625126362E0,5.482554913E0,7.290332317E0
3.299535011E1,3.615555048E0,5.477769375E0,7.271189690E0
3.301575011E1,3.596412420E0,5.477769375E0,7.251449108E0
3.303588803E1,3.605983734E0,5.458626747E0,7.251449108E0
3.305615698E1,3.620340586E0,5.453841209E0,7.251449108E0
3.307655698E1,3.629911900E0,5.463412285E0,7.241877556E0
3.309669490E1,3.653840065E0,5.453841209E0,7.246663570E0
3.311709490E1,3.672982693E0,5.458626747E0,7.251449108E0
3.313723276E1,3.663411379E0,5.468197823E0,7.246663570E0
3.315750178E1,3.663411379E0,5.472983360E0,7.241877556E0
3.317777068E1,3.653840065E0,5.449055195E0,7.271189690E0
3.319803964E1,3.615555048E0,5.434698582E0,7.314260483E0
3.321830860E1,3.591626883E0,5.439484119E0,7.309474945E0
3.323857756E1,3.582055569E0,5.439484119E0,7.280761242E0
3.325884652E1,3.572484255E0,5.425127029E0,7.290332317E0
3.327911547E1,3.582055569E0,5.425127029E0,7.285546780E0
3.329938443E1,3.596412420E0,5.429912567E0,7.285546780E0
3.331965334E1,3.615555048E0,5.434698582E0,7.285546780E0
3.333992230E1,3.625126362E0,5.429912567E0,7.295117855E0
3.336019125E1,3.625126362E0,5.410770416E0,7.290332317E0
3.338046021E1,3.620340586E0,5.429912567E0,7.265805721E0
3.340072917E1,3.610769272E0,5.439484119E0,7.275975227E0
3.342112917E1,3.596412420E0,5.439484119E0,7.285546780E0
3.344126704E1,3.601198196E0,5.420341492E0,7.299903870E0
3.346153599E1,3.605983734E0,5.415555954E0,7.309474945E0
3.348180495E1,3.610769272E0,5.429912567E0,7.323832035E0
3.350207391E1,3.610769272E0,5.429912567E0,7.299903870E0
3.352234287E1,3.615555048E0,5.396413326E0,7.256234646E0
3.354261178E1,3.625126362E0,5.405984402E0,7.290332317E0
3.356288073E1,3.625126362E0,5.429912567E0,7.299903870E0
3.358314969E1,3.615555048E0,5.425127029E0,7.295117855E0
3.360341865E1,3.610769272E0,5.429912567E0,7.280761242E0
3.362368756E1,3.601198196E0,5.429912567E0,7.280761242E0
3.364395652E1,3.601198196E0,5.396413326E0,7.299903870E0
3.366422547E1,3.601198196E0,5.401198864E0,7.309474945E0
3.368449443E1,3.610769272E0,5.420341492E0,7.314260483E0
3.370476334E1,3.610769272E0,5.401198864E0,7.314260483E0
3.372503230E1,3.601198196E0,5.410770416E0,7.323832035E0
3.374530125E1,3.610769272E0,5.420341492E0,7.314260483E0
3.376557016E1,3.610769272E0,5.415555954E0,7.304689407E0
3.378583912E1,3.615555048E0,5.410770416E0,7.299903870E0
3.380610808E1,3.625126362E0,5.425127029E0,7.295117855E0
3.382637704E1,3.634697676E0,5.425127029E0,7.319046497E0
3.384664594E1,3.610769272E0,5.382056236E0,7.299903870E0
3.386691490E1,3.615555048E0,5.391627789E0,7.314260483E0
3.388718386E1,3.601198196E0,5.396413326E0,7.309474945E0
3.390758386E1,3.601198196E0,5.405984402E0,7.304689407E0
3.392772172E1,3.596412420E0,5.401198864E0,7.314260483E0
3.394799068E1,3.601198196E0,5.405984402E0,7.338188648E0
3.396825959E1,3.610769272E0,5.396413326E0,7.328617573E0
3.398852855E1,3.615555048E0,5.405984402E0,7.304689407E0
3.400879750E1,3.625126362E0,5.401198864E0,7.290332317E0
3.402906641E1,3.634697676E0,5.405984402E0,7.290332317E0
3.404933537E1,3.639483213E0,5.425127029E0,7.314260483E0
3.406960428E1,3.639483213E0,5.396413326E0,7.319046497E0
3.408987323E1,3.629911900E0,5.391627789E0,7.328617573E0
3.411014219E1,3.639483213E0,5.401198864E0,7.319046497E0
3.413041110E1,3.634697676E0,5.405984402E0,7.323832035E0
3.415068006E1,3.625126362E0,5.410770416E0,7.338188648E0
3.417094896E1,3.601198196E0,5.420341492E0,7.333403111E0
3.419121792E1,3.596412420E0,5.401198864E0,7.295117855E0
3.421148688E1,3.601198196E0,5.410770416E0,7.265805721E0
3.423175579E1,3.605983734E0,5.420341492E0,7.290332317E0
3.425202474E1,3.625126362E0,5.434698582E0,7.323832035E0
3.427229365E1,3.620340586E0,5.425127029E0,7.323832035E0
3.429256261E1,3.610769272E0,5.420341492E0,7.295117855E0
3.431283146E1,3.625126362E0,5.420341492E0,7.275975227E0
3.433310047E1,3.615555048E0,5.410770416E0,7.271189690E0
3.435336938E1,3.625126362E0,5.420341492E0,7.285546780E0
3.437363834E1,3.634697676E0,5.410770416E0,7.285546780E0
3.439390730E1,3.653840065E0,5.420341492E0,7.290332317E0
3.441430730E1,3.677768469E0,5.429912567E0,7.271189690E0
3.443444511E1,3.677768469E0,5.463412285E0,7.232306480E0
3.445471407E1,3.663411379E0,5.492125988E0,7.198806763E0
3.447498297E1,3.629911900E0,5.487340450E0,7.194021225E0
3.449525193E1,3.577269793E0,5.472983360E0,7.222734928E0
3.451565193E1,3.543770313E0,5.463412285E0,7.222734928E0
3.453578980E1,3.548556089E0,5.453841209E0,7.227520943E0
3.455605875E1,3.558127165E0,5.482554913E0,7.227520943E0
3.457632766E1,3.586841106E0,5.487340450E0,7.241877556E0
3.459659657E1,3.601198196E0,5.477769375E0,7.261020184E0
3.461699657E1,3.620340586E0,5.468197823E0,7.261020184E0
3.463713443E1,3.634697676E0,5.472983360E0,7.261020184E0
3.465740339E1,3.605983734E0,5.468197823E0,7.280761242E0
3.467767230E1,3.596412420E0,5.472983360E0,7.295117855E0
3.469794125E1,3.591626883E0,5.468197823E0,7.290332317E0
3.471834125E1,3.596412420E0,5.444269657E0,7.290332317E0
3.473847912E1,3.596412420E0,5.453841209E0,7.290332317E0
3.475874802E1,3.601198196E0,5.434698582E0,7.304689407E0
3.477901693E1,3.605983734E0,5.425127029E0,7.290332317E0
3.479928589E1,3.615555048E0,5.405984402E0,7.261020184E0
3.481955480E1,3.653840065E0,5.415555954E0,7.256234646E0
3.483982370E1,3.692125320E0,5.468197823E0,7.237092018E0
3.486009266E1,3.735196114E0,5.496912003E0,7.198806763E0
3.488036157E1,3.739981890E0,5.530411243E0,7.189235687E0
3.490063053E1,3.763910055E0,5.520840168E0,7.160521984E0
3.492089943E1,3.768695593E0,5.520840168E0,7.155735970E0
3.494116834E1,3.763910055E0,5.525625706E0,7.189235687E0
3.496143730E1,3.711267948E0,5.516054630E0,7.179664135E0
3.498170620E1,3.653840065E0,5.511268616E0,7.179664135E0
3.500197506E1,3.582055569E0,5.487340450E0,7.184450150E0
3.502224407E1,3.572484255E0,5.458626747E0,7.194021225E0
3.504251297E1,3.591626883E0,5.472983360E0,7.227520943E0
3.506278188E1,3.620340586E0,5.511268616E0,7.237092018E0
3.508305084E1,3.639483213E0,5.535196781E0,7.227520943E0
3.510331974E1,3.639483213E0,5.520840168E0,7.237092018E0
3.512371974E1,3.629911900E0,5.496912003E0,7.237092018E0
3.514385756E1,3.629911900E0,5.487340450E0,7.203592777E0
3.516412652E1,3.625126362E0,5.482554913E0,7.203592777E0
3.518439542E1,3.653840065E0,5.463412285E0,7.217949390E0
3.520466433E1,3.653840065E0,5.477769375E0,7.232306480E0
3.522493329E1,3.639483213E0,5.482554913E0,7.232306480E0
3.524520219E1,3.634697676E0,5.487340450E0,7.198806763E0
3.526547110E1,3.639483213E0,5.492125988E0,7.179664135E0
3.528574000E1,3.658625841E0,5.501697540E0,7.189235687E0
3.530600896E1,3.658625841E0,5.501697540E0,7.194021225E0
3.532627787E1,3.672982693E0,5.496912003E0,7.170093060E0
3.534654678E1,3.701696634E0,5.501697540E0,7.189235687E0
3.536681573E1,3.711267948E0,5.511268616E0,7.213163853E0
3.538708464E1,3.687339783E0,5.482554913E0,7.208378315E0
3.540735355E1,3.682554007E0,5.468197823E0,7.217949390E0
3.542762245E1,3.653840065E0,5.468197823E0,7.217949390E0
3.544789141E1,3.639483213E0,5.487340450E0,7.227520943E0
3.546816032E1,3.653840065E0,5.487340450E0,7.241877556E0
3.548842922E1,3.658625841E0,5.477769375E0,7.237092018E0
3.550869813E1,3.668197155E0,5.463412285E0,7.241877556E0
3.552896709E1,3.672982693E0,5.463412285E0,7.237092018E0
3.554923599E1,3.682554007E0,5.463412285E0,7.241877556E0
3.556950490E1,3.692125320E0,5.463412285E0,7.251449108E0
3.558977375E1,3.682554007E0,5.463412285E0,7.237092018E0
3.561004271E1,3.682554007E0,5.468197823E0,7.227520943E0
3.563031167E1,3.682554007E0,5.453841209E0,7.241877556E0
3.565058058E1,3.668197155E0,5.449055195E0,7.237092018E0
3.567084948E1,3.672982693E0,5.449055195E0,7.237092018E0
3.569111839E1,3.668197155E0,5.468197823E0,7.222734928E0
3.571138730E1,3.677768469E0,5.463412285E0,7.232306480E0
3.573165620E1,3.677768469E0,5.439484119E0,7.241877556E0
3.575192506E1,3.658625841E0,5.453841209E0,7.251449108E0
3.577219407E1,3.644268990E0,5.472983360E0,7.256234646E0
3.579246297E1,3.639483213E0,5.458626747E0,7.237092018E0
3.581273188E1,3.639483213E0,5.463412285E0,7.237092018E0
3.583300079E1,3.658625841E0,5.472983360E0,7.232306480E0
3.585326969E1,3.658625841E0,5.482554913E0,7.251449108E0
3.587353860E1,3.672982693E0,5.477769375E0,7.246663570E0
3.589380750E1,3.672982693E0,5.463412285E0,7.208378315E0
3.591420750E1,3.658625841E0,5.487340450E0,7.208378315E0
3.593434631E1,3.639483213E0,5.477769375E0,7.217949390E0
3.595461506E1,3.644268990E0,5.463412285E0,7.217949390E0
3.597488381E1,3.677768469E0,5.439484119E0,7.241877556E0
3.599515256E1,3.692125320E0,5.463412285E0,7.241877556E0
3.601555256E1,3.692125320E0,5.468197823E0,7.241877556E0
3.603569032E1,3.682554007E0,5.477769375E0,7.241877556E0
3.605595907E1,3.653840065E0,5.487340450E0,7.227520943E0
3.607622797E1,3.653840065E0,5.477769375E0,7.237092018E0
3.609649678E1,3.639483213E0,5.453841209E0,7.217949390E0
3.611689678E1,3.649054527E0,5.453841209E0,7.213163853E0
3.613703454E1,3.668197155E0,5.482554913E0,7.203592777E0
3.615730344E1,3.677768469E0,5.487340450E0,7.189235687E0
3.617757230E1,3.663411379E0,5.463412285E0,7.217949390E0
3.619784120E1,3.658625841E0,5.453841209E0,7.246663570E0
3.621811011E1,3.639483213E0,5.487340450E0,7.232306480E0
3.623837902E1,3.644268990E0,5.492125988E0,7.217949390E0
3.625864792E1,3.668197155E0,5.477769375E0,7.217949390E0
3.627891683E1,3.668197155E0,5.482554913E0,7.227520943E0
3.629918573E1,3.682554007E0,5.463412285E0,7.241877556E0
3.631958573E1,3.677768469E0,5.482554913E0,7.222734928E0
3.633972349E1,3.658625841E0,5.487340450E0,7.217949390E0
3.635999240E1,3.653840065E0,5.482554913E0,7.213163853E0
3.638026125E1,3.649054527E0,5.468197823E0,7.217949390E0
3.640053016E1,3.644268990E0,5.472983360E0,7.232306480E0
3.642093016E1,3.649054527E0,5.477769375E0,7.251449108E0
3.644106797E1,3.639483213E0,5.492125988E0,7.227520943E0
3.646133688E1,3.649054527E0,5.482554913E0,7.227520943E0
3.648160579E1,3.668197155E0,5.472983360E0,7.237092018E0
3.650187469E1,3.663411379E0,5.468197823E0,7.241877556E0
3.652227469E1,3.658625841E0,5.453841209E0,7.237092018E0
3.654241250E1,3.649054527E0,5.453841209E0,7.222734928E0
3.656268141E1,3.634697676E0,5.463412285E0,7.237092018E0
3.658295032E1,3.649054527E0,5.463412285E0,7.227520943E0
3.660321922E1,3.658625841E0,5.472983360E0,7.237092018E0
3.662348813E1,3.649054527E0,5.468197823E0,7.227520943E0
3.664375704E1,3.644268990E0,5.468197823E0,7.227520943E0
3.666402594E1,3.644268990E0,5.487340450E0,7.232306480E0
3.668429485E1,3.629911900E0,5.482554913E0,7.237092018E0
3.670456375E1,3.634697676E0,5.487340450E0,7.241877556E0
3.672483266E1,3.639483213E0,5.468197823E0,7.256234646E0
3.674523266E1,3.649054527E0,5.463412285E0,7.256234646E0
3.676537047E1,3.663411379E0,5.458626747E0,7.256234646E0
3.678563938E1,3.663411379E0,5.453841209E0,7.251449108E0
3.680590829E1,3.653840065E0,5.453841209E0,7.251449108E0
3.682617719E1,3.629911900E0,5.458626747E0,7.256234646E0
3.684644610E1,3.634697676E0,5.453841209E0,7.237092018E0
3.686671495E1,3.634697676E0,5.468197823E0,7.246663570E0
3.688698391E1,3.639483213E0,5.468197823E0,7.265805721E0
3.690725276E1,3.639483213E0,5.463412285E0,7.217949390E0
3.692752172E1,3.639483213E0,5.472983360E0,7.198806763E0
3.694779058E1,3.672982693E0,5.477769375E0,7.217949390E0
3.696805948E1,3.692125320E0,5.477769375E0,7.232306480E0
3.698832839E1,3.677768469E0,5.463412285E0,7.251449108E0
3.700859730E1,3.687339783E0,5.453841209E0,7.232306480E0
3.702886620E1,3.663411379E0,5.458626747E0,7.203592777E0
3.704913511E1,3.644268990E0,5.458626747E0,7.222734928E0
3.706940402E1,3.653840065E0,5.453841209E0,7.261020184E0
3.708967292E1,3.658625841E0,5.468197823E0,7.271189690E0
3.710994183E1,3.663411379E0,5.487340450E0,7.251449108E0
3.713021073E1,3.663411379E0,5.468197823E0,7.213163853E0
3.715047964E1,3.663411379E0,5.472983360E0,7.222734928E0
3.717074855E1,3.668197155E0,5.468197823E0,7.227520943E0
3.719101740E1,3.653840065E0,5.468197823E0,7.237092018E0
3.721128631E1,3.653840065E0,5.458626747E0,7.232306480E0
3.723155521E1,3.653840065E0,5.458626747E0,7.237092018E0
3.725182412E1,3.644268990E0,5.453841209E0,7.251449108E0
3.727209303E1,3.668197155E0,5.458626747E0,7.261020184E0
3.729236193E1,3.658625841E0,5.468197823E0,7.251449108E0
3.731263079E1,3.653840065E0,5.468197823E0,7.246663570E0
3.733289969E1,3.653840065E0,5.458626747E0,7.237092018E0
3.735316860E1,3.653840065E0,5.458626747E0,7.227520943E0
3.737343750E1,3.649054527E0,5.468197823E0,7.222734928E0
3.739370641E1,3.658625841E0,5.468197823E0,7.217949390E0
3.741410641E1,3.658625841E0,5.472983360E0,7.227520943E0
3.743424417E1,3.639483213E0,5.463412285E0,7.241877556E0
3.745451313E1,3.639483213E0,5.463412285E0,7.256234646E0
3.747478204E1,3.644268990E0,5.463412285E0,7.241877556E0
3.749505089E1,3.658625841E0,5.468197823E0,7.246663570E0
3.751545089E1,3.639483213E0,5.458626747E0,7.232306480E0
3.753558870E1,3.629911900E0,5.444269657E0,7.227520943E0
3.755585761E1,3.653840065E0,5.472983360E0,7.246663570E0
3.757625761E1,3.653840065E0,5.482554913E0,7.241877556E0
3.759639542E1,3.663411379E0,5.449055195E0,7.237092018E0
3.761679542E1,3.644268990E0,5.444269657E0,7.271189690E0
3.763693323E1,3.639483213E0,5.449055195E0,7.280761242E0
3.765720209E1,3.634697676E0,5.458626747E0,7.256234646E0
3.767747099E1,3.625126362E0,5.458626747E0,7.232306480E0
3.769773985E1,3.629911900E0,5.453841209E0,7.222734928E0
3.771813985E1,3.649054527E0,5.444269657E0,7.256234646E0
3.773827771E1,3.653840065E0,5.453841209E0,7.256234646E0
3.775854662E1,3.653840065E0,5.463412285E0,7.227520943E0
3.777881552E1,3.663411379E0,5.458626747E0,7.227520943E0
3.779908443E1,3.653840065E0,5.463412285E0,7.256234646E0
3.781935334E1,3.649054527E0,5.468197823E0,7.237092018E0
3.783962219E1,3.663411379E0,5.468197823E0,7.246663570E0
3.785989110E1,3.658625841E0,5.444269657E0,7.232306480E0
3.788016000E1,3.663411379E0,5.444269657E0,7.256234646E0
3.790042886E1,3.649054527E0,5.449055195E0,7.261020184E0
3.792082886E1,3.620340586E0,5.458626747E0,7.251449108E0
3.794096672E1,3.639483213E0,5.453841209E0,7.256234646E0
3.796123563E1,3.658625841E0,5.444269657E0,7.246663570E0
3.798163563E1,3.649054527E0,5.449055195E0,7.251449108E0
3.800177339E1,3.634697676E0,5.449055195E0,7.246663570E0
3.802204230E1,3.658625841E0,5.453841209E0,7.251449108E0
3.804231120E1,3.634697676E0,5.482554913E0,7.237092018E0
3.806258011E1,3.620340586E0,5.463412285E0,7.232306480E0
3.808284902E1,3.625126362E0,5.449055195E0,7.237092018E0
3.810311792E1,3.672982693E0,5.458626747E0,7.241877556E0
3.812338683E1,3.687339783E0,5.472983360E0,7.280761242E0
3.814365573E1,3.658625841E0,5.463412285E0,7.246663570E0
3.816392464E1,3.658625841E0,5.444269657E0,7.194021225E0
3.818419355E1,3.668197155E0,5.472983360E0,7.217949390E0
3.820446240E1,3.672982693E0,5.477769375E0,7.237092018E0
3.822473125E1,3.672982693E0,5.482554913E0,7.251449108E0
3.824500021E1,3.668197155E0,5.472983360E0,7.246663570E0
3.826526912E1,3.658625841E0,5.463412285E0,7.208378315E0
3.828553802E1,3.644268990E0,5.477769375E0,7.227520943E0
3.830580693E1,3.615555048E0,5.458626747E0,7.261020184E0
3.832607584E1,3.605983734E0,5.444269657E0,7.241877556E0
3.834634469E1,3.596412420E0,5.439484119E0,7.237092018E0
3.836661360E1,3.610769272E0,5.453841209E0,7.261020184E0
3.838688250E1,3.644268990E0,5.477769375E0,7.275975227E0
3.840715141E1,3.677768469E0,5.468197823E0,7.265805721E0
3.842742032E1,3.682554007E0,5.468197823E0,7.227520943E0
3.844768922E1,3.668197155E0,5.463412285E0,7.203592777E0
3.846795813E1,3.658625841E0,5.439484119E0,7.213163853E0
3.848822698E1,3.668197155E0,5.444269657E0,7.241877556E0
3.850849589E1,3.687339783E0,5.449055195E0,7.246663570E0
3.852876480E1,3.701696634E0,5.463412285E0,7.246663570E0
3.854903370E1,3.682554007E0,5.472983360E0,7.251449108E0
3.856930256E1,3.653840065E0,5.472983360E0,7.237092018E0
3.858957152E1,3.615555048E0,5.449055195E0,7.222734928E0
3.860984042E1,3.620340586E0,5.444269657E0,7.208378315E0
3.863010933E1,3.649054527E0,5.458626747E0,7.237092018E0
3.865037818E1,3.663411379E0,5.463412285E0,7.265805721E0
3.867064709E1,3.639483213E0,5.482554913E0,7.265805721E0
3.869091599E1,3.629911900E0,5.472983360E0,7.246663570E0
3.871118490E1,3.644268990E0,5.449055195E0,7.232306480E0
3.873145381E1,3.653840065E0,5.458626747E0,7.237092018E0
3.875172271E1,3.644268990E0,5.449055195E0,7.237092018E0
3.877199157E1,3.653840065E0,5.449055195E0,7.241877556E0
3.879226047E1,3.672982693E0,5.463412285E0,7.222734928E0
3.881252938E1,3.658625841E0,5.492125988E0,7.251449108E0
3.883279829E1,3.687339783E0,5.501697540E0,7.227520943E0
3.885319829E1,3.687339783E0,5.458626747E0,7.198806763E0
3.887333610E1,3.692125320E0,5.434698582E0,7.198806763E0
3.889360495E1,3.696911097E0,5.463412285E0,7.217949390E0
3.891400495E1,3.668197155E0,5.501697540E0,7.246663570E0
3.893414277E1,3.634697676E0,5.487340450E0,7.217949390E0
3.895441167E1,3.625126362E0,5.453841209E0,7.208378315E0
3.897468058E1,3.625126362E0,5.453841209E0,7.227520943E0
3.899494943E1,3.639483213E0,5.477769375E0,7.271189690E0
3.901534943E1,3.620340586E0,5.501697540E0,7.290332317E0
3.903548724E1,3.596412420E0,5.501697540E0,7.265805721E0
3.905575610E1,3.567698479E0,5.472983360E0,7.241877556E0
3.907602495E1,3.538984776E0,5.449055195E0,7.261020184E0
3.909629391E1,3.558127165E0,5.449055195E0,7.261020184E0
3.911669391E1,3.577269793E0,5.444269657E0,7.290332317E0
3.913683172E1,3.591626883E0,5.458626747E0,7.314260483E0
3.915710063E1,3.605983734E0,5.449055195E0,7.309474945E0
3.917736948E1,3.577269793E0,5.439484119E0,7.299903870E0
3.919763849E1,3.543770313E0,5.410770416E0,7.275975227E0
3.921782870E1,3.562912941E0,5.420341492E0,7.295117855E0
3.923817610E1,3.610769272E0,5.420341492E0,7.304689407E0
3.925844495E1,3.634697676E0,5.410770416E0,7.280761242E0
3.927871391E1,3.682554007E0,5.425127029E0,7.275975227E0
3.929898282E1,3.677768469E0,5.449055195E0,7.271189690E0
3.931938282E1,3.639483213E0,5.458626747E0,7.280761242E0
3.933952058E1,3.591626883E0,5.477769375E0,7.241877556E0
3.935978948E1,3.620340586E0,5.468197823E0,7.222734928E0
3.938005839E1,3.668197155E0,5.468197823E0,7.203592777E0
3.940032730E1,3.672982693E0,5.453841209E0,7.194021225E0
3.942072730E1,3.687339783E0,5.468197823E0,7.203592777E0
3.944086511E1,3.701696634E0,5.482554913E0,7.217949390E0
3.946113402E1,3.658625841E0,5.492125988E0,7.237092018E0
3.948140287E1,3.629911900E0,5.487340450E0,7.237092018E0
3.950167178E1,3.605983734E0,5.458626747E0,7.241877556E0
3.952194068E1,3.582055569E0,5.434698582E0,7.271189690E0
3.954220959E1,3.553341627E0,5.444269657E0,7.290332317E0
3.956247844E1,3.567698479E0,5.468197823E0,7.314260483E0
3.958274735E1,3.601198196E0,5.463412285E0,7.323832035E0
3.960301625E1,3.586841106E0,5.434698582E0,7.304689407E0
3.962328516E1,3.582055569E0,5.410770416E0,7.285546780E0
3.964355402E1,3.601198196E0,5.420341492E0,7.309474945E0
3.966382292E1,3.620340586E0,5.420341492E0,7.319046497E0
3.968409183E1,3.649054527E0,5.434698582E0,7.314260483E0
3.970436068E1,3.615555048E0,5.501697540E0,7.309474945E0
3.972462959E1,3.620340586E0,5.458626747E0,7.217949390E0
3.974489849E1,3.615555048E0,5.391627789E0,7.213163853E0
3.976516740E1,3.649054527E0,5.434698582E0,7.290332317E0
3.978543625E1,3.658625841E0,5.482554913E0,7.314260483E0
3.980570516E1,3.615555048E0,5.492125988E0,7.241877556E0
3.982597402E1,3.610769272E0,5.410770416E0,7.136593342E0
3.984624292E1,3.629911900E0,5.425127029E0,7.213163853E0
3.986651183E1,3.644268990E0,5.492125988E0,7.309474945E0
3.988678073E1,3.663411379E0,5.472983360E0,7.309474945E0
3.990704959E1,3.634697676E0,5.472983360E0,7.271189690E0
3.992731849E1,3.601198196E0,5.487340450E0,7.217949390E0
3.994758740E1,3.601198196E0,5.425127029E0,7.217949390E0
3.996785625E1,3.625126362E0,5.401198864E0,7.275975227E0
3.998812516E1,3.658625841E0,5.453841209E0,7.323832035E0
4.000839407E1,3.663411379E0,5.449055195E0,7.309474945E0
4.002866292E1,3.615555048E0,5.420341492E0,7.251449108E0
4.004893183E1,3.610769272E0,5.386841774E0,7.237092018E0
4.006920063E1,3.620340586E0,5.401198864E0,7.271189690E0
4.008946959E1,3.634697676E0,5.449055195E0,7.319046497E0
4.010973849E1,3.644268990E0,5.429912567E0,7.323832035E0
4.013000735E1,3.639483213E0,5.410770416E0,7.304689407E0
4.015027625E1,3.620340586E0,5.420341492E0,7.285546780E0
4.017054516E1,3.577269793E0,5.405984402E0,7.275975227E0
4.019081402E1,3.567698479E0,5.401198864E0,7.280761242E0
4.021108292E1,3.586841106E0,5.401198864E0,7.285546780E0
4.023135183E1,3.615555048E0,5.396413326E0,7.328617573E0
4.025162068E1,3.629911900E0,5.401198864E0,7.347760201E0
4.027188959E1,3.634697676E0,5.401198864E0,7.319046497E0
4.029215844E1,3.639483213E0,5.372485161E0,7.271189690E0
4.031242735E1,3.629911900E0,5.372485161E0,7.304689407E0
4.033269625E1,3.639483213E0,5.405984402E0,7.319046497E0
4.035296511E1,3.634697676E0,5.415555954E0,7.304689407E0
4.037323402E1,3.649054527E0,5.410770416E0,7.314260483E0
4.039350287E1,3.658625841E0,5.410770416E0,7.309474945E0
4.041390287E1,3.634697676E0,5.405984402E0,7.290332317E0
4.043404063E1,3.610769272E0,5.401198864E0,7.285546780E0
4.045430948E1,3.601198196E0,5.396413326E0,7.285546780E0
4.047457839E1,3.629911900E0,5.410770416E0,7.295117855E0
4.049484730E1,3.639483213E0,5.405984402E0,7.299903870E0
4.051524730E1,3.634697676E0,5.396413326E0,7.299903870E0
4.053538506E1,3.629911900E0,5.425127029E0,7.328617573E0
4.055565391E1,3.605983734E0,5.401198864E0,7.328617573E0
4.057592282E1,3.591626883E0,5.386841774E0,7.333403111E0
4.059619167E1,3.610769272E0,5.382056236E0,7.328617573E0
4.061659167E1,3.639483213E0,5.377270699E0,7.309474945E0
4.063672943E1,3.649054527E0,5.410770416E0,7.304689407E0
4.065699834E1,3.644268990E0,5.449055195E0,7.290332317E0
4.067726719E1,3.634697676E0,5.449055195E0,7.271189690E0
4.069753610E1,3.601198196E0,5.434698582E0,7.285546780E0
4.071793610E1,3.601198196E0,5.425127029E0,7.275975227E0
4.073807381E1,3.591626883E0,5.410770416E0,7.280761242E0
4.075834271E1,3.596412420E0,5.396413326E0,7.323832035E0
4.077861162E1,3.605983734E0,5.429912567E0,7.323832035E0
4.079888047E1,3.610769272E0,5.439484119E0,7.295117855E0
4.081914933E1,3.615555048E0,5.429912567E0,7.304689407E0
4.083941823E1,3.629911900E0,5.434698582E0,7.299903870E0
4.085968709E1,3.653840065E0,5.415555954E0,7.290332317E0
4.087995594E1,3.658625841E0,5.429912567E0,7.265805721E0
4.090022485E1,3.649054527E0,5.449055195E0,7.271189690E0
4.092049370E1,3.625126362E0,5.429912567E0,7.271189690E0
4.094076256E1,3.591626883E0,5.429912567E0,7.275975227E0
4.096103146E1,3.577269793E0,5.434698582E0,7.295117855E0
4.098130032E1,3.591626883E0,5.410770416E0,7.299903870E0
4.100156917E1,3.620340586E0,5.391627789E0,7.290332317E0
4.102183808E1,3.634697676E0,5.410770416E0,7.280761242E0
4.104210693E1,3.629911900E0,5.429912567E0,7.271189690E0
4.106237573E1,3.634697676E0,5.449055195E0,7.265805721E0
4.108264464E1,3.653840065E0,5.425127029E0,7.265805721E0
4.110291355E1,3.672982693E0,5.425127029E0,7.275975227E0
4.112318240E1,3.663411379E0,5.463412285E0,7.265805721E0
4.114345125E1,3.658625841E0,5.477769375E0,7.227520943E0
4.116372011E1,3.629911900E0,5.468197823E0,7.222734928E0
4.118398902E1,3.625126362E0,5.449055195E0,7.251449108E0
4.120425787E1,3.610769272E0,5.458626747E0,7.261020184E0
4.122452672E1,3.601198196E0,5.472983360E0,7.275975227E0
4.124479558E1,3.591626883E0,5.458626747E0,7.241877556E0
4.126506448E1,3.596412420E0,5.463412285E0,7.237092018E0
4.128533329E1,3.601198196E0,5.487340450E0,7.241877556E0
4.130560219E1,3.615555048E0,5.492125988E0,7.222734928E0
4.132587105E1,3.634697676E0,5.492125988E0,7.213163853E0
4.134613995E1,3.649054527E0,5.511268616E0,7.222734928E0
4.136640881E1,3.639483213E0,5.496912003E0,7.241877556E0
4.138667766E1,3.625126362E0,5.463412285E0,7.237092018E0
4.140694652E1,3.634697676E0,5.463412285E0,7.213163853E0
4.142721537E1,3.629911900E0,5.468197823E0,7.217949390E0
4.144748428E1,3.620340586E0,5.477769375E0,7.217949390E0
4.146775313E1,3.605983734E0,5.468197823E0,7.241877556E0
4.148802198E1,3.615555048E0,5.482554913E0,7.241877556E0
4.150829084E1,3.610769272E0,5.477769375E0,7.241877556E0
4.152855974E1,3.610769272E0,5.477769375E0,7.261020184E0
4.154882860E1,3.634697676E0,5.468197823E0,7.241877556E0
4.156909745E1,3.644268990E0,5.468197823E0,7.246663570E0
4.158936631E1,3.663411379E0,5.458626747E0,7.256234646E0
4.160963516E1,3.672982693E0,5.458626747E0,7.271189690E0
4.162990402E1,3.644268990E0,5.449055195E0,7.280761242E0
4.165017292E1,3.629911900E0,5.434698582E0,7.271189690E0
4.167044178E1,3.634697676E0,5.444269657E0,7.237092018E0
4.169071063E1,3.629911900E0,5.468197823E0,7.246663570E0
4.171097948E1,3.639483213E0,5.453841209E0,7.261020184E0
4.173124834E1,3.629911900E0,5.458626747E0,7.246663570E0
4.175151719E1,3.620340586E0,5.477769375E0,7.241877556E0
4.177178605E1,3.625126362E0,5.463412285E0,7.246663570E0
4.179205490E1,3.615555048E0,5.463412285E0,7.251449108E0
4.181232375E1,3.615555048E0,5.463412285E0,7.265805721E0
4.183259261E1,3.620340586E0,5.468197823E0,7.265805721E0
4.185286152E1,3.629911900E0,5.449055195E0,7.256234646E0
4.187313037E1,3.615555048E0,5.434698582E0,7.275975227E0
4.189339922E1,3.620340586E0,5.439484119E0,7.275975227E0
4.191378683E1,3.639483213E0,5.453841209E0,7.280761242E0
4.193393693E1,3.639483213E0,5.468197823E0,7.261020184E0
4.195420579E1,3.663411379E0,5.468197823E0,7.251449108E0
4.197447464E1,3.663411379E0,5.439484119E0,7.246663570E0
4.199474349E1,3.649054527E0,5.434698582E0,7.265805721E0
4.201514349E1,3.639483213E0,5.439484119E0,7.271189690E0
4.203528120E1,3.601198196E0,5.453841209E0,7.246663570E0
4.205555006E1,3.586841106E0,5.463412285E0,7.241877556E0
4.207581891E1,3.610769272E0,5.468197823E0,7.265805721E0
4.209608776E1,3.629911900E0,5.458626747E0,7.256234646E0
4.211648776E1,3.639483213E0,5.429912567E0,7.275975227E0
4.213662547E1,3.658625841E0,5.458626747E0,7.275975227E0
4.215689433E1,3.682554007E0,5.468197823E0,7.261020184E0
4.217716318E1,3.658625841E0,5.482554913E0,7.271189690E0
4.219743204E1,3.620340586E0,5.458626747E0,7.246663570E0
4.221783204E1,3.601198196E0,5.439484119E0,7.237092018E0
4.223796974E1,3.620340586E0,5.425127029E0,7.285546780E0
4.225823860E1,3.625126362E0,5.463412285E0,7.280761242E0
4.227850745E1,3.634697676E0,5.468197823E0,7.265805721E0
4.229877631E1,3.629911900E0,5.463412285E0,7.241877556E0
4.231917631E1,3.625126362E0,5.458626747E0,7.241877556E0
4.233931396E1,3.625126362E0,5.468197823E0,7.256234646E0
4.235958282E1,3.644268990E0,5.458626747E0,7.271189690E0
4.237985167E1,3.639483213E0,5.449055195E0,7.251449108E0
4.240012053E1,3.649054527E0,5.444269657E0,7.251449108E0
4.242052052E1,3.649054527E0,5.458626747E0,7.280761242E0
4.244065823E1,3.634697676E0,5.458626747E0,7.275975227E0
4.246092709E1,3.634697676E0,5.458626747E0,7.265805721E0
4.248119594E1,3.615555048E0,5.472983360E0,7.265805721E0
4.250146480E1,3.586841106E0,5.453841209E0,7.256234646E0
4.252173365E1,3.577269793E0,5.429912567E0,7.271189690E0
4.254213365E1,3.601198196E0,5.434698582E0,7.256234646E0
4.256227131E1,3.625126362E0,5.458626747E0,7.246663570E0
4.258254016E1,3.649054527E0,5.453841209E0,7.261020184E0
4.260280902E1,3.653840065E0,5.444269657E0,7.275975227E0
4.262307782E1,3.658625841E0,5.429912567E0,7.271189690E0
4.264334667E1,3.649054527E0,5.420341492E0,7.275975227E0
4.266361553E1,3.625126362E0,5.429912567E0,7.256234646E0
4.268388438E1,3.615555048E0,5.425127029E0,7.261020184E0
4.270415323E1,3.620340586E0,5.463412285E0,7.271189690E0
4.272442209E1,3.615555048E0,5.477769375E0,7.265805721E0
4.274469089E1,3.620340586E0,5.463412285E0,7.237092018E0
4.276495974E1,3.610769272E0,5.439484119E0,7.241877556E0
4.278522860E1,3.634697676E0,5.449055195E0,7.280761242E0
4.280549745E1,3.634697676E0,5.434698582E0,7.285546780E0
4.282584500E1,3.634697676E0,5.425127029E0,7.256234646E0
4.284603516E1,3.625126362E0,5.449055195E0,7.261020184E0
4.286630402E1,3.634697676E0,5.472983360E0,7.275975227E0
4.288657282E1,3.644268990E0,5.468197823E0,7.256234646E0
4.290684172E1,3.658625841E0,5.477769375E0,7.275975227E0
4.292711052E1,3.649054527E0,5.487340450E0,7.241877556E0
4.294737938E1,3.620340586E0,5.458626747E0,7.222734928E0
4.296764823E1,3.596412420E0,5.453841209E0,7.246663570E0
4.298791704E1,3.605983734E0,5.444269657E0,7.280761242E0
4.300818584E1,3.634697676E0,5.434698582E0,7.280761242E0
4.302845469E1,3.639483213E0,5.449055195E0,7.271189690E0
4.304872355E1,3.629911900E0,5.434698582E0,7.251449108E0
4.306899235E1,3.625126362E0,5.439484119E0,7.280761242E0
4.308926120E1,3.620340586E0,5.449055195E0,7.275975227E0
4.310953006E1,3.629911900E0,5.477769375E0,7.261020184E0
4.312979891E1,3.658625841E0,5.492125988E0,7.265805721E0
4.315006771E1,3.649054527E0,5.463412285E0,7.256234646E0
4.317033657E1,3.625126362E0,5.429912567E0,7.265805721E0
4.319060537E1,3.596412420E0,5.429912567E0,7.261020184E0
4.321087422E1,3.596412420E0,5.458626747E0,7.241877556E0
4.323114308E1,3.620340586E0,5.453841209E0,7.246663570E0
4.325141193E1,3.639483213E0,5.439484119E0,7.280761242E0
4.327168073E1,3.639483213E0,5.444269657E0,7.309474945E0
4.329194959E1,3.639483213E0,5.463412285E0,7.261020184E0
4.331221839E1,3.615555048E0,5.468197823E0,7.246663570E0
4.333248724E1,3.615555048E0,5.449055195E0,7.251449108E0
4.335275610E1,3.610769272E0,5.439484119E0,7.251449108E0
4.337302490E1,3.610769272E0,5.463412285E0,7.246663570E0
4.339329375E1,3.625126362E0,5.468197823E0,7.265805721E0
