"Time (s)","Acceleration x (m/s^2)","Acceleration y (m/s^2)","Acceleration z (m/s^2)"
5.272422300E-2,-8.716826439E-1,4.494557381E0,8.672341347E0
7.300927500E-2,-7.827472091E-1,4.464848042E0,8.696138382E0
9.312766100E-2,-7.284886241E-1,4.473842621E0,8.696230888E0
1.134018270E-1,-7.602967620E-1,4.522842407E0,8.668115616E0
1.336750570E-1,-8.411847949E-1,4.609162807E0,8.615010262E0
1.539475040E-1,-9.774417281E-1,4.742765903E0,8.527670860E0
1.742195360E-1,-1.084578633E0,4.920829296E0,8.413056374E0
1.944890150E-1,-1.126591802E0,5.127414703E0,8.283164024E0
2.148909940E-1,-1.123658061E0,5.348172188E0,8.142779350E0
2.350317750E-1,-1.126744866E0,5.572788715E0,7.990297794E0
2.553026090E-1,-1.192582369E0,5.785183430E0,7.828141212E0
2.755732340E-1,-1.318038225E0,5.970600128E0,7.667144299E0
2.958435980E-1,-1.435781717E0,6.143058300E0,7.508112431E0
3.161138590E-1,-1.520187855E0,6.305878162E0,7.354950905E0
3.363840150E-1,-1.639303565E0,6.460176945E0,7.193689823E0
3.566540670E-1,-1.805248260E0,6.629858494E0,6.996887684E0
3.769240150E-1,-1.968205333E0,6.818084717E0,6.768329144E0
3.971939630E-1,-2.145681620E0,6.988808632E0,6.536283016E0
4.174638070E-1,-2.359722137E0,7.136312962E0,6.298820019E0
4.377337020E-1,-2.549300909E0,7.278326988E0,6.057838440E0
4.580033900E-1,-2.679570198E0,7.418754578E0,5.826865673E0
4.782731820E-1,-2.774716139E0,7.538469791E0,5.625195503E0
4.985428170E-1,-2.868661404E0,7.619063377E0,5.467269421E0
5.189429210E-1,-2.932754040E0,7.662948132E0,5.371085167E0
5.390822960E-1,-2.951911211E0,7.681617737E0,5.333793640E0
5.593520880E-1,-2.955989122E0,7.680971146E0,5.332466602E0
5.796217230E-1,-2.937136650E0,7.667291641E0,5.362485409E0
5.998914110E-1,-2.892925739E0,7.644121170E0,5.419297218E0
6.202914630E-1,-2.824388504E0,7.612131596E0,5.499878407E0
6.404307860E-1,-2.760895014E0,7.579051495E0,5.577259541E0
6.607004730E-1,-2.693323612E0,7.550034523E0,5.649191856E0
6.809700570E-1,-2.622491598E0,7.526507854E0,5.713545322E0
7.012397440E-1,-2.554533243E0,7.509297371E0,5.766731739E0
7.216397960E-1,-2.482559681E0,7.506353855E0,5.801890850E0
7.417790670E-1,-2.389007092E0,7.523946285E0,5.818355560E0
7.620487540E-1,-2.289628983E0,7.554579258E0,5.818619251E0
7.823183900E-1,-2.205575466E0,7.581882477E0,5.815572739E0
8.025880250E-1,-2.138710022E0,7.593368053E0,5.825553417E0
8.229880250E-1,-2.091748238E0,7.588490963E0,5.848912716E0
8.431273480E-1,-2.071648359E0,7.573396683E0,5.875570774E0
8.633969840E-1,-2.056607485E0,7.558222771E0,5.900341034E0
8.836665670E-1,-2.028061152E0,7.547026634E0,5.924503326E0
9.039362540E-1,-2.000789165E0,7.536024094E0,5.947737694E0
9.243362540E-1,-2.000006437E0,7.522162914E0,5.965519428E0
9.444756290E-1,-2.014840603E0,7.514317989E0,5.970413685E0
9.647452650E-1,-2.032879829E0,7.521127224E0,5.955705643E0
9.850149520E-1,-2.053071499E0,7.540158272E0,5.924634933E0
1.005284588E0,-2.079621553E0,7.559379578E0,5.890784740E0
1.025554223E0,-2.111457348E0,7.576150894E0,5.857821941E0
1.045823859E0,-2.132469416E0,7.595011234E0,5.825698376E0
1.066093494E0,-2.143689632E0,7.621311665E0,5.787105083E0
1.086363182E0,-2.128263474E0,7.647883415E0,5.757669449E0
1.106632817E0,-2.116433382E0,7.671167850E0,5.730992317E0
1.126902452E0,-2.111626863E0,7.685070038E0,5.714116573E0
1.147172140E0,-2.087374687E0,7.696436882E0,5.707724094E0
1.167441775E0,-2.043974876E0,7.712921143E0,5.701175690E0
1.187711411E0,-1.997366548E0,7.730943203E0,5.693280220E0
1.207981046E0,-1.957118273E0,7.745278358E0,5.687771320E0
1.228250682E0,-1.914610505E0,7.758289337E0,5.684504986E0
1.248520317E0,-1.870673895E0,7.775102139E0,5.676155090E0
1.268790004E0,-1.850926280E0,7.793227673E0,5.657743454E0
1.289059588E0,-1.861470699E0,7.804017544E0,5.639380932E0
1.309329275E0,-1.874591470E0,7.803526402E0,5.635714531E0
1.329598911E0,-1.877941489E0,7.800458431E0,5.638844013E0
1.349868546E0,-1.885930538E0,7.798816204E0,5.638450146E0
1.370138182E0,-1.892354727E0,7.800261974E0,5.634296894E0
1.390407817E0,-1.898671389E0,7.803606033E0,5.627536774E0
1.410677452E0,-1.903235674E0,7.807140350E0,5.621087551E0
1.430947088E0,-1.895058393E0,7.816486359E0,5.610853195E0
1.451347088E0,-1.883806825E0,7.834937572E0,5.588865757E0
1.471486359E0,-1.872483492E0,7.860168457E0,5.557152271E0
1.491755994E0,-1.840264082E0,7.890731335E0,5.524507523E0
1.512025629E0,-1.797030330E0,7.926366329E0,5.487603188E0
1.532295265E0,-1.742570996E0,7.960504055E0,5.455657959E0
1.552564900E0,-1.663847804E0,7.993413925E0,5.432065487E0
1.572834536E0,-1.537944913E0,8.033423424E0,5.410105705E0
1.593104171E0,-1.351583123E0,8.087762833E0,5.378820896E0
1.613373807E0,-1.140015006E0,8.143949509E0,5.342924595E0
1.633643442E0,-8.665962219E-1,8.202966690E0,5.303842545E0
1.653913025E0,-5.762060285E-1,8.266747475E0,5.243973255E0
1.674182557E0,-2.680554092E-1,8.323518753E0,5.178567886E0
1.694452296E0,5.867110193E-2,8.363059044E0,5.121150017E0
1.714721932E0,3.876574039E-1,8.389260292E0,5.063636303E0
1.734991567E0,7.458850145E-1,8.408406258E0,4.991267681E0
1.755261202E0,1.181427121E0,8.402865410E0,4.915938854E0
1.775530786E0,1.635665536E0,8.362341881E0,4.854504108E0
1.795800369E0,2.063665152E0,8.287170410E0,4.820216179E0
1.816070004E0,2.431827545E0,8.169587135E0,4.849170685E0
1.836339640E0,2.742666245E0,8.019561768E0,4.933030605E0
1.856609275E0,3.008615971E0,7.872753143E0,5.013819695E0
1.876878859E0,3.253856182E0,7.739335537E0,5.068087101E0
1.897148494E0,3.519018888E0,7.622570038E0,5.067871571E0
1.917418129E0,3.820792675E0,7.530807018E0,4.985866547E0
1.937687713E0,4.127977848E0,7.459953785E0,4.845540047E0
1.957957348E0,4.388997078E0,7.388762951E0,4.723691463E0
1.978226879E0,4.589971542E0,7.303505421E0,4.664906979E0
1.998496515E0,4.776993752E0,7.220296383E0,4.606303215E0
2.018896515E0,4.981238842E0,7.129834175E0,4.530244350E0
2.039035786E0,5.176733971E0,7.034246922E0,4.459951878E0
2.059305421E0,5.379157066E0,6.942806721E0,4.362625122E0
2.079575004E0,5.593849659E0,6.862669945E0,4.216989994E0
2.099844640E0,5.786485195E0,6.770982265E0,4.103751183E0
2.120244640E0,5.906704903E0,6.683544636E0,4.075717449E0
2.140383859E0,6.008246422E0,6.616111755E0,4.037129402E0
2.160653442E0,6.122719765E0,6.555809975E0,3.962831259E0
2.180923077E0,6.253691673E0,6.463723660E0,3.909219742E0
2.201192661E0,6.385051250E0,6.334544182E0,3.908331156E0
2.221592661E0,6.531886578E0,6.181338310E0,3.910999060E0
2.241731879E0,6.651530266E0,6.014891148E0,3.968452692E0
2.262001463E0,6.724508286E0,5.833364964E0,4.113783836E0
2.282271098E0,6.804647923E0,5.627617359E0,4.265802383E0
2.302540682E0,6.917964935E0,5.407209873E0,4.367404938E0
2.322940682E0,7.038761139E0,5.209987640E0,4.413871288E0
2.343079848E0,7.161425114E0,5.030432701E0,4.424829006E0
2.363349484E0,7.265070915E0,4.863392353E0,4.442583084E0
2.383619067E0,7.368003368E0,4.679275513E0,4.470715046E0
2.403888650E0,7.442496777E0,4.485745907E0,4.545075893E0
2.424277036E0,7.548161983E0,4.281252861E0,4.567986965E0
2.444427817E0,7.648817539E0,4.057713509E0,4.604448795E0
2.464697452E0,7.703809738E0,3.826445341E0,4.709568024E0
2.484967036E0,7.756039143E0,3.664690495E0,4.752293110E0
2.505236619E0,7.842052460E0,3.567615032E0,4.684519768E0
2.525636619E0,7.927325726E0,3.479445219E0,4.606663704E0
2.545775786E0,7.984873295E0,3.400706530E0,4.565893173E0
2.566045317E0,8.054991722E0,3.365898371E0,4.467463970E0
2.586314952E0,8.154717445E0,3.410146713E0,4.247571945E0
2.606584536E0,8.266226768E0,3.532123804E0,3.919691801E0
2.626854119E0,8.349150658E0,3.717614651E0,3.555478096E0
2.647123702E0,8.365226746E0,3.994626760E0,3.199425459E0
2.667393286E0,8.338206291E0,4.373108864E0,2.742373943E0
2.687662869E0,8.230089188E0,4.850980759E0,2.214497328E0
2.707932452E0,8.006918907E0,5.376669884E0,1.775117040E0
2.728202036E0,7.670752525E0,5.953080654E0,1.375052810E0
2.748471619E0,7.237373829E0,6.557000160E0,8.924947977E-1
2.768741202E0,6.724444389E0,7.128455162E0,3.706249893E-1
2.789010786E0,6.202129364E0,7.596243382E0,-3.267192468E-2
2.809280369E0,5.731388092E0,7.953996181E0,-2.356182039E-1
2.829549952E0,5.285100460E0,8.254877090E0,-3.084106147E-1
2.849819536E0,4.813333988E0,8.538623810E0,-3.067740500E-1
2.870089067E0,4.272955418E0,8.820548058E0,-3.319134116E-1
2.890358650E0,3.742301941E0,9.057607651E0,-3.540010452E-1
2.910628234E0,3.257404327E0,9.244982719E0,-3.000094295E-1
2.930897817E0,2.772513151E0,9.403941154E0,-2.223737389E-1
2.951167400E0,2.281980515E0,9.534821510E0,-2.238743305E-1
2.971436984E0,1.854922533E0,9.626314163E0,-2.524271309E-1
2.991706567E0,1.530045152E0,9.684194565E0,-2.138348222E-1
3.011976098E0,1.197136760E0,9.730839729E0,-2.190998197E-1
3.032245682E0,8.247058988E-1,9.766293526E0,-3.313195407E-1
3.052515265E0,4.839389920E-1,9.783135414E0,-4.758694470E-1
3.072784848E0,1.794364154E-1,9.786134720E0,-6.080766916E-1
3.093054379E0,-1.040312275E-1,9.782220840E0,-6.838948727E-1
3.113323963E0,-2.976061702E-1,9.771565437E0,-7.735140324E-1
3.133593546E0,-3.979817331E-1,9.757328033E0,-8.980809450E-1
3.153863129E0,-4.402817786E-1,9.740017891E0,-1.052893758E0
3.174132661E0,-4.193791449E-1,9.726888657E0,-1.175645590E0
3.194402244E0,-1.391847432E-1,9.732608795E0,-1.194715738E0
3.214671827E0,1.926414967E-1,9.727515221E0,-1.228301287E0
3.234941359E0,4.730859399E-1,9.706266403E0,-1.317182660E0
3.255210942E0,6.102835536E-1,9.684264183E0,-1.418791771E0
3.275480525E0,6.482399702E-1,9.708904266E0,-1.219573736E0
3.295750057E0,6.217803359E-1,9.752956390E0,-8.146306276E-1
3.316019640E0,4.821793735E-1,9.782646179E0,-4.875588715E-1
3.336289223E0,2.677323222E-1,9.794024467E0,-4.192643464E-1
3.356558754E0,-1.244644262E-2,9.796330452E0,-4.496121407E-1
3.376828338E0,-3.885433972E-1,9.791085243E0,-3.925248086E-1
3.397097869E0,-7.687066197E-1,9.773502350E0,-2.410880774E-1
3.417367452E0,-1.075709224E0,9.747358322E0,-4.742911458E-2
3.437637036E0,-1.324745059E0,9.715773582E0,1.384741664E-1
3.457906567E0,-1.559213519E0,9.678660393E0,2.505204678E-1
3.478176098E0,-1.806295156E0,9.635636330E0,2.494062781E-1
3.498453598E0,-2.045441151E0,9.590090752E0,1.293356419E-1
3.518792452E0,-2.240431547E0,9.547049522E0,-6.862159818E-2
3.538983650E0,-2.385371923E0,9.508212090E0,-2.725581527E-1
3.559253494E0,-2.495404959E0,9.474235535E0,-4.268608689E-1
3.579523234E0,-2.566490412E0,9.450676918E0,-5.178949237E-1
3.599792765E0,-2.522345304E0,9.459547043E0,-5.702002645E-1
3.620192921E0,-2.387949467E0,9.491156578E0,-6.213176250E-1
3.640332088E0,-2.358032465E0,9.496491432E0,-6.532319188E-1
3.660601775E0,-2.379532576E0,9.491170883E0,-6.525965929E-1
3.680871411E0,-2.412288427E0,9.485089302E0,-6.199429035E-1
3.701140942E0,-2.450833559E0,9.479133606E0,-5.566390157E-1
3.721540994E0,-2.485062838E0,9.474769592E0,-4.728619456E-1
3.741680161E0,-2.510638475E0,9.472135544E0,-3.817393184E-1
3.761949796E0,-2.527008295E0,9.470974922E0,-2.920058370E-1
3.782219327E0,-2.533491135E0,9.471263885E0,-2.167094499E-1
3.802488859E0,-2.531798124E0,9.472769737E0,-1.643600017E-1
3.822888911E0,-2.525435448E0,9.474903107E0,-1.369469166E-1
3.843028025E0,-2.517641068E0,9.477110863E0,-1.274906099E-1
3.863297557E0,-2.510083914E0,9.479109764E0,-1.279079020E-1
3.883567140E0,-2.502451420E0,9.480989456E0,-1.377298981E-1
3.903836723E0,-2.494417429E0,9.482747078E0,-1.605653465E-1
3.924236723E0,-2.485557079E0,9.484369278E0,-1.978328824E-1
3.944375786E0,-2.476110935E0,9.485692978E0,-2.467681170E-1
3.964645265E0,-2.467158556E0,9.486285210E0,-3.064440489E-1
3.984914796E0,-2.459727287E0,9.485827446E0,-3.731118739E-1
4.005184327E0,-2.454267979E0,9.484307289E0,-4.414422214E-1
4.025453911E0,-2.449242115E0,9.482459068E0,-5.045374632E-1
4.045723442E0,-2.443154573E0,9.481480598E0,-5.503748059E-1
4.065992973E0,-2.435859442E0,9.482539177E0,-5.643000603E-1
4.086262504E0,-2.429523945E0,9.485109329E0,-5.481744409E-1
4.106532036E0,-2.424768209E0,9.488383293E0,-5.113208890E-1
4.126801567E0,-2.439027786E0,9.487389565E0,-4.592857957E-1
4.147071098E0,-2.456027031E0,9.485517502E0,-4.040793777E-1
4.167340629E0,-2.476827860E0,9.482303619E0,-3.487589359E-1
4.187610161E0,-2.501144409E0,9.477671623E0,-2.972997725E-1
4.207879692E0,-2.528429270E0,9.471743584E0,-2.520169318E-1
4.228149223E0,-2.557846308E0,9.464819908E0,-2.121295631E-1
4.248418754E0,-2.588855982E0,9.457107544E0,-1.769678593E-1
4.268688286E0,-2.619600058E0,9.449146271E0,-1.473757774E-1
4.288957817E0,-2.649106026E0,9.441208839E0,-1.273532063E-1
4.309227348E0,-2.673970461E0,9.434342384E0,-1.160107628E-1
4.329496879E0,-2.694158316E0,9.428642273E0,-1.122735068E-1
4.349766411E0,-2.712874174E0,9.423200607E0,-1.182114035E-1
4.370035942E0,-2.732139587E0,9.417434692E0,-1.330473870E-1
4.390305421E0,-2.755618095E0,9.410224915E0,-1.569457054E-1
4.410574952E0,-2.784923553E0,9.401051521E0,-1.866155565E-1
4.430844484E0,-2.820097685E0,9.389862061E0,-2.189075798E-1
4.451114015E0,-2.859793663E0,9.376954079E0,-2.543837428E-1
4.471383546E0,-2.903617382E0,9.362380981E0,-2.919202745E-1
4.491653077E0,-2.951380253E0,9.346377373E0,-3.239766657E-1
4.511922557E0,-3.001194000E0,9.330292702E0,-3.299197853E-1
4.532192088E0,-3.056932449E0,9.312871933E0,-3.097966611E-1
4.552461619E0,-3.118089199E0,9.293667793E0,-2.750359178E-1
4.572731150E0,-3.186673164E0,9.271389961E0,-2.384108156E-1
4.593000629E0,-3.268918753E0,9.243409157E0,-2.096386403E-1
4.613270161E0,-3.364886522E0,9.209192276E0,-1.967430562E-1
4.633539692E0,-3.473158598E0,9.168832779E0,-2.001353353E-1
4.653809171E0,-3.591809273E0,9.122676849E0,-2.145945430E-1
4.674078702E0,-3.719110727E0,9.071346283E0,-2.219712287E-1
4.694348234E0,-3.861528397E0,9.012837410E0,-1.665399671E-1
4.714748234E0,-4.007238388E0,8.950365067E0,-5.820769444E-2
4.734887244E0,-4.159360886E0,8.880624771E0,6.781285256E-2
4.755156775E0,-4.308196545E0,8.807865143E0,1.770425290E-1
4.775426254E0,-4.443210602E0,8.738674164E0,2.526572943E-1
4.795695786E0,-4.566513062E0,8.673238754E0,3.037444651E-1
4.815965317E0,-4.679074287E0,8.610906601E0,3.590914905E-1
4.836234796E0,-4.772498131E0,8.555691719E0,4.402025640E-1
4.856504327E0,-4.847957611E0,8.506181717E0,5.590689778E-1
4.876773807E0,-4.916429043E0,8.458050728E0,6.785982251E-1
4.897043338E0,-4.967999458E0,8.421364784E0,7.549648881E-1
4.917312817E0,-4.990700722E0,8.402743340E0,8.106836677E-1
4.937712817E0,-4.998031616E0,8.387537956E0,9.161196351E-1
4.957851827E0,-5.005364895E0,8.363439560E0,1.081467986E0
4.978121359E0,-5.025069714E0,8.329908371E0,1.237611532E0
4.998390838E0,-5.057158470E0,8.290170670E0,1.366974235E0
5.018660369E0,-5.125184059E0,8.230357170E0,1.471086621E0
5.038929848E0,-5.145196438E0,8.198751450E0,1.574106097E0
5.059329848E0,-5.123037815E0,8.190702438E0,1.684417725E0
5.079468859E0,-5.065285683E0,8.211680412E0,1.755439878E0
5.099738338E0,-4.981723785E0,8.253311157E0,1.798800111E0
5.120138338E0,-4.906263351E0,8.287941933E0,1.846346855E0
5.140277348E0,-4.864667892E0,8.296559334E0,1.916373610E0
5.160546775E0,-4.837755203E0,8.290051460E0,2.010364771E0
5.180816307E0,-4.799027443E0,8.286229134E0,2.116160870E0
5.201085786E0,-4.749095440E0,8.289484978E0,2.213800669E0
5.221485786E0,-4.688381672E0,8.299448013E0,2.304044485E0
5.241624796E0,-4.640005589E0,8.303159714E0,2.387108564E0
5.261894275E0,-4.588851929E0,8.304646492E0,2.479046583E0
5.282163754E0,-4.505561829E0,8.321607590E0,2.573159456E0
5.302433234E0,-4.407801628E0,8.341601372E0,2.675701857E0
5.322833234E0,-4.299365520E0,8.358570099E0,2.796453476E0
5.342972244E0,-4.199682713E0,8.365340233E0,2.924743652E0
5.363241723E0,-4.094698906E0,8.371459007E0,3.053278208E0
5.383511202E0,-3.970186234E0,8.381108284E0,3.188264370E0
5.403780682E0,-3.812987089E0,8.399342537E0,3.329048872E0
5.424168963E0,-3.611606598E0,8.424598694E0,3.486087084E0
5.444319640E0,-3.359346390E0,8.455378532E0,3.659473181E0
5.464589119E0,-3.088039398E0,8.482148170E0,3.832434893E0
5.484858598E0,-2.809719324E0,8.494514465E0,4.014862061E0
5.505128077E0,-2.515674353E0,8.497326851E0,4.199667931E0
5.525397557E0,-2.204855204E0,8.497694969E0,4.370147228E0
5.545667036E0,-1.869520545E0,8.490126610E0,4.537954330E0
5.565936463E0,-1.497873545E0,8.471467018E0,4.707545757E0
5.586205942E0,-1.099576473E0,8.434140205E0,4.881250381E0
5.606475421E0,-6.893998384E-1,8.382944107E0,5.041960716E0
5.626744900E0,-2.782918215E-1,8.326468468E0,5.173284054E0
5.647014379E0,1.668433398E-1,8.262296677E0,5.279867649E0
5.667283859E0,5.987949967E-1,8.131159782E0,5.449408531E0
5.687553338E0,1.028876305E0,7.926461697E0,5.681813717E0
5.707822817E0,1.442021012E0,7.666856766E0,5.942244530E0
5.728092296E0,1.838269114E0,7.375207901E0,6.196568966E0
5.748361723E0,2.147546291E0,7.097590923E0,6.417369366E0
5.768631202E0,2.390147924E0,6.832924843E0,6.615793228E0
5.788900629E0,2.604782343E0,6.546758652E0,6.820957184E0
5.809170109E0,2.780794621E0,6.263163567E0,7.015008450E0
5.829439588E0,2.929797888E0,6.031181812E0,7.156223297E0
5.849709015E0,3.080022812E0,5.842410088E0,7.249144077E0
5.869978494E0,3.221860170E0,5.690248966E0,7.308288574E0
5.890247921E0,3.389223576E0,5.580181599E0,7.317452908E0
5.910517400E0,3.596973419E0,5.485281467E0,7.289983273E0
5.930786879E0,3.805989981E0,5.383381844E0,7.259754658E0
5.951056359E0,4.036549091E0,5.265165806E0,7.221820354E0
5.971325786E0,4.312339783E0,5.146874905E0,7.147291660E0
5.991595265E0,4.601362705E0,5.039644241E0,7.042714596E0
6.011864744E0,4.870893478E0,4.941808224E0,6.929884911E0
6.032134171E0,5.140483856E0,4.839778423E0,6.806053638E0
6.052403650E0,5.395936489E0,4.731051922E0,6.683667183E0
6.072673077E0,5.630724430E0,4.618520737E0,6.567693710E0
6.092942557E0,5.844571590E0,4.502917767E0,6.460271358E0
6.113212036E0,6.027322769E0,4.388536453E0,6.370440006E0
6.133481463E0,6.165552139E0,4.283761501E0,6.309179306E0
6.153750942E0,6.265151978E0,4.194897175E0,6.270653725E0
6.174020369E0,6.346581459E0,4.123044968E0,6.236328602E0
6.194289796E0,6.427145004E0,4.061814308E0,6.193855762E0
6.214559275E0,6.506113529E0,4.010528564E0,6.144634724E0
6.234828702E0,6.576490879E0,3.981283188E0,6.088475227E0
6.255098182E0,6.634291649E0,3.978009462E0,6.027604103E0
6.275367609E0,6.671399117E0,3.993561983E0,5.976143837E0
6.295637088E0,6.683079720E0,4.016383171E0,5.947730541E0
6.315906515E0,6.676635265E0,4.043172359E0,5.936807632E0
6.336175942E0,6.661709309E0,4.077568054E0,5.930046558E0
6.356445421E0,6.637537003E0,4.123451710E0,5.925422192E0
6.376714848E0,6.603205204E0,4.176718235E0,5.926473618E0
6.396984275E0,6.561680794E0,4.231288910E0,5.933879375E0
6.417253754E0,6.513276577E0,4.280065060E0,5.952198505E0
6.437523182E0,6.458072662E0,4.320381165E0,5.983142376E0
6.457792609E0,6.394249439E0,4.355004787E0,6.026433945E0
6.478062088E0,6.315686226E0,4.386030674E0,6.086480141E0
6.498331515E0,6.215994358E0,4.414613724E0,6.167900562E0
6.518731515E0,6.099600792E0,4.441063404E0,6.264360428E0
6.538870421E0,5.981770515E0,4.466509342E0,6.359173775E0
6.559139848E0,5.873862743E0,4.497433186E0,6.437485218E0
6.579409275E0,5.778390884E0,4.538974285E0,6.494482517E0
6.599678702E0,5.688614845E0,4.586930275E0,6.539886951E0
6.620078702E0,5.599764824E0,4.635789871E0,6.581981182E0
6.640217609E0,5.508517742E0,4.688981533E0,6.621184349E0
6.660487036E0,5.418383598E0,4.754437447E0,6.648821831E0
6.680756463E0,5.344352245E0,4.839292526E0,6.647521496E0
6.701025890E0,5.285126686E0,4.935988903E0,6.623732090E0
6.721425890E0,5.215443134E0,5.034847260E0,6.604532242E0
6.741564796E0,5.136203766E0,5.126372337E0,6.596219063E0
6.761834223E0,5.054578304E0,5.213949680E0,6.590626717E0
6.782103650E0,4.966538429E0,5.299030304E0,6.589701176E0
6.802373129E0,4.879354954E0,5.383039951E0,6.586741447E0
6.822773129E0,4.798000336E0,5.468662262E0,6.575963974E0
6.842911984E0,4.717153549E0,5.551205158E0,6.565286160E0
6.863181411E0,4.624555111E0,5.631108284E0,6.563116074E0
6.883450890E0,4.518152714E0,5.706454277E0,6.572142124E0
6.903720317E0,4.402778625E0,5.780347824E0,6.585856915E0
6.924120317E0,4.291616917E0,5.854623318E0,6.593617439E0
6.944259171E0,4.187425137E0,5.926101208E0,6.596755981E0
6.964528650E0,4.084064484E0,5.996050835E0,6.598347187E0
6.984798077E0,3.979438543E0,6.064013958E0,6.600165367E0
7.005067557E0,3.886385679E0,6.125140667E0,6.599170208E0
7.025336984E0,3.803510427E0,6.175920963E0,6.600129128E0
7.045606463E0,3.727169275E0,6.214578152E0,6.607391357E0
7.065875890E0,3.651515007E0,6.243335247E0,6.622505665E0
7.086145317E0,3.578155756E0,6.266772270E0,6.640388489E0
7.106414796E0,3.509056330E0,6.283918381E0,6.661026955E0
7.126684223E0,3.445969582E0,6.292866230E0,6.685469627E0
7.146953702E0,3.385948181E0,6.297785282E0,6.711456776E0
7.167223129E0,3.331282616E0,6.299314976E0,6.737327576E0
7.187492609E0,3.285867453E0,6.298358917E0,6.760483265E0
7.207762088E0,3.247900486E0,6.293808937E0,6.783030510E0
7.228031515E0,3.217459440E0,6.289897919E0,6.801142216E0
7.248300994E0,3.193989277E0,6.286324501E0,6.815493107E0
7.268570421E0,3.176817656E0,6.281999588E0,6.827496052E0
7.288839900E0,3.166238785E0,6.276519775E0,6.837442398E0
7.309109379E0,3.160193443E0,6.268248558E0,6.847818375E0
7.329378859E0,3.156640291E0,6.256133556E0,6.860523701E0
7.349648338E0,3.154778957E0,6.240533352E0,6.875571728E0
7.369917817E0,3.154949903E0,6.222824574E0,6.891526222E0
7.390187296E0,3.157326221E0,6.204408169E0,6.907025337E0
7.410456775E0,3.163226366E0,6.184730530E0,6.921957493E0
7.430726254E0,3.171855450E0,6.166504860E0,6.934258461E0
7.450995734E0,3.180760384E0,6.146828651E0,6.947635651E0
7.471265213E0,3.187850952E0,6.125528336E0,6.963181973E0
7.491534692E0,3.184851885E0,6.101592064E0,6.985533237E0
7.511804171E0,3.174761772E0,6.075350761E0,7.012944221E0
7.532073650E0,3.166337252E0,6.045502186E0,7.042485714E0
7.552343182E0,3.161685705E0,6.014217854E0,7.071301937E0
7.572612661E0,3.161715984E0,5.983122349E0,7.097618103E0
7.592882192E0,3.164380789E0,5.954082966E0,7.120812893E0
7.613151671E0,3.168504477E0,5.929703236E0,7.139297962E0
7.633421202E0,3.176227331E0,5.910637856E0,7.151665688E0
7.653690682E0,3.186640263E0,5.895663738E0,7.159389973E0
7.673960213E0,3.196049690E0,5.884750366E0,7.164172173E0
7.694229692E0,3.204154730E0,5.875946522E0,7.167777061E0
7.714499223E0,3.212121248E0,5.868787289E0,7.170077324E0
7.734768754E0,3.220778227E0,5.861247063E0,7.172360420E0
7.755038286E0,3.230142593E0,5.853280544E0,7.174654484E0
7.775307817E0,3.240130663E0,5.845523357E0,7.176475525E0
7.795577348E0,3.250889540E0,5.838085651E0,7.177663326E0
7.815977348E0,3.262275934E0,5.831304073E0,7.178010464E0
7.836116411E0,3.274267197E0,5.826594830E0,7.176374912E0
7.856385942E0,3.287175894E0,5.823712349E0,7.172812462E0
7.876655473E0,3.300869703E0,5.821697712E0,7.168157101E0
7.896925004E0,3.314656734E0,5.820565701E0,7.162713528E0
7.917194588E0,3.329154730E0,5.818666458E0,7.157530308E0
7.937464171E0,3.346232176E0,5.817215443E0,7.150742054E0
7.957733702E0,3.365277529E0,5.816792011E0,7.142143250E0
7.978003234E0,3.385115862E0,5.818049431E0,7.131737232E0
7.998272817E0,3.404936075E0,5.820736408E0,7.120100498E0
8.018542348E0,3.424604416E0,5.823353767E0,7.108517647E0
8.038811932E0,3.444336176E0,5.825584412E0,7.097146988E0
8.059081463E0,3.463494778E0,5.827391624E0,7.086331367E0
8.079351046E0,3.481462002E0,5.829716682E0,7.075606823E0
8.099620577E0,3.497957468E0,5.832248211E0,7.065377712E0
8.120020577E0,3.512076616E0,5.834202290E0,7.056754589E0
8.140159744E0,3.524265051E0,5.836038589E0,7.049155235E0
8.160429275E0,3.534690142E0,5.836895466E0,7.043222904E0
8.180698859E0,3.543165922E0,5.836896420E0,7.038962841E0
8.200968442E0,3.550901413E0,5.835293770E0,7.036393166E0
8.221368442E0,3.556902647E0,5.833324909E0,7.034995079E0
8.241507609E0,3.561475039E0,5.830767155E0,7.034801483E0
8.261777192E0,3.564285040E0,5.827627659E0,7.035979271E0
8.282046775E0,3.565850735E0,5.823096275E0,7.038937569E0
8.302316359E0,3.566789627E0,5.817700386E0,7.042923450E0
8.322716359E0,3.569174051E0,5.812312603E0,7.046162605E0
8.342855525E0,3.572865248E0,5.808037281E0,7.047816277E0
8.363125109E0,3.576452255E0,5.803431034E0,7.049792290E0
8.383394692E0,3.579797745E0,5.798152447E0,7.052436829E0
8.403664275E0,3.583209753E0,5.792220116E0,7.055578709E0
8.424064275E0,3.585758686E0,5.786021233E0,7.059368134E0
8.444203494E0,3.588308811E0,5.780343056E0,7.062724113E0
8.464473077E0,3.591702223E0,5.774359226E0,7.065892696E0
8.484742661E0,3.594024181E0,5.769067764E0,7.069032669E0
8.505012296E0,3.597043514E0,5.764270782E0,7.071409702E0
8.525281879E0,3.599585056E0,5.758887768E0,7.074501991E0
8.545551463E0,3.601664066E0,5.753532410E0,7.077801704E0
8.565821098E0,3.602703094E0,5.747808456E0,7.081921101E0
8.586090682E0,3.603636026E0,5.741828918E0,7.086297512E0
8.606360317E0,3.603752851E0,5.736546993E0,7.090513706E0
8.626629900E0,3.604249716E0,5.731828690E0,7.094076633E0
8.646899536E0,3.604501724E0,5.728286266E0,7.096808910E0
8.667169119E0,3.604412794E0,5.726314068E0,7.098445415E0
8.687438754E0,3.604227781E0,5.724715233E0,7.099828720E0
8.707708338E0,3.602952719E0,5.722738266E0,7.102070332E0
8.727977973E0,3.601921797E0,5.719738483E0,7.105007172E0
8.748247557E0,3.599122047E0,5.715874195E0,7.109536171E0
8.768517192E0,3.595945835E0,5.710886478E0,7.115148067E0
8.788786827E0,3.592758417E0,5.705884933E0,7.120769024E0
8.809056411E0,3.589386463E0,5.702160358E0,7.125452042E0
8.829326046E0,3.586589813E0,5.699648857E0,7.128868103E0
8.849595682E0,3.582320690E0,5.697354317E0,7.132847309E0
8.869865317E0,3.577237844E0,5.694897652E0,7.137358665E0
8.890134900E0,3.571780682E0,5.692327499E0,7.142141342E0
8.910404536E0,3.567421913E0,5.689901352E0,7.146251202E0
8.930674171E0,3.564786911E0,5.688264370E0,7.148869514E0
8.950943807E0,3.562545061E0,5.687517166E0,7.150580883E0
8.971213390E0,3.560518980E0,5.687222481E0,7.151824951E0
8.991483025E0,3.558188200E0,5.685988426E0,7.153965473E0
9.011752661E0,3.554976225E0,5.683732033E0,7.157354355E0
9.032022296E0,3.551393509E0,5.680254936E0,7.161891460E0
9.052291879E0,3.547720432E0,5.675418854E0,7.167543411E0
9.072561515E0,3.543962479E0,5.670013905E0,7.173678398E0
9.092831150E0,3.538678408E0,5.663969994E0,7.181056499E0
9.113100786E0,3.533383131E0,5.657173157E0,7.189017773E0
9.133370369E0,3.528892994E0,5.650198936E0,7.196703911E0
9.153640057E0,3.525651455E0,5.643265247E0,7.203730583E0
9.173909744E0,3.523725033E0,5.636491299E0,7.209973335E0
9.194179379E0,3.523009062E0,5.630703926E0,7.214843750E0
9.214579327E0,3.522380829E0,5.625568390E0,7.219156265E0
9.234718546E0,3.521097422E0,5.621469975E0,7.222973347E0
9.254988182E0,3.520767450E0,5.618458271E0,7.225476265E0
9.275257817E0,3.519134760E0,5.615557194E0,7.228526115E0
9.295527504E0,3.517621279E0,5.613110065E0,7.231162548E0
9.315797140E0,3.517344475E0,5.610298634E0,7.233479023E0
9.336066723E0,3.517227173E0,5.606843472E0,7.236214638E0
9.356336359E0,3.517026663E0,5.603273392E0,7.239077091E0
9.376605994E0,3.517488003E0,5.600129128E0,7.241285801E0
9.396875629E0,3.517142057E0,5.597510815E0,7.243478298E0
9.417145317E0,3.517446280E0,5.595806122E0,7.244647503E0
9.437414952E0,3.518788815E0,5.593512058E0,7.245766640E0
9.457684588E0,3.518780947E0,5.591102123E0,7.247630119E0
9.477954223E0,3.518061161E0,5.588280201E0,7.250155449E0
9.498223859E0,3.516018867E0,5.585650921E0,7.253171921E0
9.518493546E0,3.514703274E0,5.581924915E0,7.256677628E0
9.538763182E0,3.515616655E0,5.578145504E0,7.259140491E0
9.559032817E0,3.519593954E0,5.575483799E0,7.259257793E0
9.579302452E0,3.522648335E0,5.573185921E0,7.259541512E0
9.599572088E0,3.522144556E0,5.571219444E0,7.261294842E0
9.619972088E0,3.521161556E0,5.568776131E0,7.263645649E0
9.640111359E0,3.520649910E0,5.566155910E0,7.265901089E0
9.660381046E0,3.520862341E0,5.563246250E0,7.268026829E0
9.680650682E0,3.521296978E0,5.560394764E0,7.269997597E0
9.700920317E0,3.522620678E0,5.557819843E0,7.271325111E0
9.721320317E0,3.524224520E0,5.555751801E0,7.272127628E0
9.741459640E0,3.526656389E0,5.553470135E0,7.272692204E0
9.761729275E0,3.528120279E0,5.550062180E0,7.274582863E0
9.781998911E0,3.528484583E0,5.546689510E0,7.276978970E0
9.802268598E0,3.528144121E0,5.542762756E0,7.280134678E0
9.822668598E0,3.530605078E0,5.538901329E0,7.281880856E0
9.842807869E0,3.535585403E0,5.535573483E0,7.281994343E0
9.863077557E0,3.542485952E0,5.532868385E0,7.280696869E0
9.883347192E0,3.549961329E0,5.532218933E0,7.277547836E0
9.903616879E0,3.556839228E0,5.532181740E0,7.274218559E0
9.924016879E0,3.563249826E0,5.532516479E0,7.270825863E0
9.944156202E0,3.568686008E0,5.532433510E0,7.268221855E0
9.964425890E0,3.574423313E0,5.531139851E0,7.266386509E0
9.984695525E0,3.580558538E0,5.528535366E0,7.265347481E0
1.000496521E1,3.587364674E0,5.524475098E0,7.265079021E0
1.002523485E1,3.592875242E0,5.520405769E0,7.265449524E0
1.004550454E1,3.596848249E0,5.516418934E0,7.266510963E0
1.006577422E1,3.600233316E0,5.513257980E0,7.267233849E0
1.008604386E1,3.604771137E0,5.509866714E0,7.267556667E0
1.010631355E1,3.609313488E0,5.505860806E0,7.268337727E0
1.012658323E1,3.613848209E0,5.501029968E0,7.269742012E0
1.014685292E1,3.618519068E0,5.496635437E0,7.270743370E0
1.016712256E1,3.624292374E0,5.493684769E0,7.270097256E0
1.018739224E1,3.629861116E0,5.491042137E0,7.269315720E0
1.020766193E1,3.633510113E0,5.488720417E0,7.269246578E0
1.022793162E1,3.637001514E0,5.487473965E0,7.268441677E0
1.024820131E1,3.640599251E0,5.487668991E0,7.266492367E0
1.026847099E1,3.643455029E0,5.486744404E0,7.265758991E0
1.028874068E1,3.644811630E0,5.483839989E0,7.267271519E0
1.030901037E1,3.645721674E0,5.481715679E0,7.268417358E0
1.032928006E1,3.645918369E0,5.479236603E0,7.270187855E0
1.034954974E1,3.644567728E0,5.474761963E0,7.274234295E0
1.036981943E1,3.641122103E0,5.469290733E0,7.280074596E0
1.039008912E1,3.637768984E0,5.463724613E0,7.285926342E0
1.041035881E1,3.636080503E0,5.459061146E0,7.290264130E0
1.043062849E1,3.634993553E0,5.455687523E0,7.293332100E0
1.045089818E1,3.633643866E0,5.453322411E0,7.295773506E0
1.047116787E1,3.632604361E0,5.451710224E0,7.297493458E0
1.049143756E1,3.631476402E0,5.451017857E0,7.298572063E0
1.051170724E1,3.631611347E0,5.449052811E0,7.299973965E0
1.053197698E1,3.629267693E0,5.446784973E0,7.302830219E0
1.055224662E1,3.626246929E0,5.445531845E0,7.305264950E0
1.057251636E1,3.627355814E0,5.444427967E0,7.305537701E0
1.059278605E1,3.629269838E0,5.444302082E0,7.304680824E0
1.061305573E1,3.629792690E0,5.445951462E0,7.303191662E0
1.063332542E1,3.628543139E0,5.448538303E0,7.301882744E0
1.065359511E1,3.625914812E0,5.452363014E0,7.300333977E0
1.067386480E1,3.623694181E0,5.456923008E0,7.298029423E0
1.069413454E1,3.624136448E0,5.461797714E0,7.294161320E0
1.071440417E1,3.622302055E0,5.467286587E0,7.290959358E0
1.073467391E1,3.618352652E0,5.473076820E0,7.288575649E0
1.075494360E1,3.614609003E0,5.479833603E0,7.285356522E0
1.077521329E1,3.614282370E0,5.486142635E0,7.280767918E0
1.079548297E1,3.615419865E0,5.492581844E0,7.275346756E0
1.081575271E1,3.615366697E0,5.499265671E0,7.270323277E0
1.083602240E1,3.615681887E0,5.505322933E0,7.265580177E0
1.085629209E1,3.615677357E0,5.509502411E0,7.262413025E0
1.087656178E1,3.615581512E0,5.513049603E0,7.259768486E0
1.089683146E1,3.616035700E0,5.515666962E0,7.257555008E0
1.091710120E1,3.616534233E0,5.517913818E0,7.255597115E0
1.093737089E1,3.616900682E0,5.519880295E0,7.253919125E0
1.095764058E1,3.617056847E0,5.522305012E0,7.251995087E0
1.097791026E1,3.616551876E0,5.524746418E0,7.250387192E0
1.099818000E1,3.616026878E0,5.526807308E0,7.249078751E0
1.101856428E1,3.614041090E0,5.527570248E0,7.249486923E0
1.103870787E1,3.611910820E0,5.527935982E0,7.250268936E0
1.105897985E1,3.609109163E0,5.528026581E0,7.251595020E0
1.107925146E1,3.607435703E0,5.528333187E0,7.252195358E0
1.109952105E1,3.605852365E0,5.529035091E0,7.252447128E0
1.111992266E1,3.604554176E0,5.529915810E0,7.252420902E0
1.114006318E1,3.603994846E0,5.529736519E0,7.252836227E0
1.116033386E1,3.602282763E0,5.529859543E0,7.253592491E0
1.118060428E1,3.599753857E0,5.529301167E0,7.255273342E0
1.120087391E1,3.596978664E0,5.527880192E0,7.257730961E0
1.122127459E1,3.595349312E0,5.525903702E0,7.260044098E0
1.124141448E1,3.593539953E0,5.523847103E0,7.262505054E0
1.126168454E1,3.592544556E0,5.522497177E0,7.264024258E0
1.128195454E1,3.592437029E0,5.521394730E0,7.264914513E0
1.130222422E1,3.593951464E0,5.519890308E0,7.265309334E0
1.132262448E1,3.596498013E0,5.517369747E0,7.265964031E0
1.134276417E1,3.600023508E0,5.515899181E0,7.265333652E0
1.136303402E1,3.602351665E0,5.515231609E0,7.264686108E0
1.138330375E1,3.602388620E0,5.515007973E0,7.264838219E0
1.140357355E1,3.604300261E0,5.514129639E0,7.264556408E0
1.142397365E1,3.610188961E0,5.513001919E0,7.262488365E0
1.144411308E1,3.614081621E0,5.512660503E0,7.260810375E0
1.146438287E1,3.610457182E0,5.514090538E0,7.261528492E0
1.148465266E1,3.607017756E0,5.515928268E0,7.261842728E0
1.150492240E1,3.609108448E0,5.515462875E0,7.261157036E0
1.152519209E1,3.610069513E0,5.512516975E0,7.262915611E0
1.154546183E1,3.607355833E0,5.512224674E0,7.264484882E0
1.156573157E1,3.604387522E0,5.513555050E0,7.264949322E0
1.158600125E1,3.601610661E0,5.514250755E0,7.265799046E0
1.160627094E1,3.599026918E0,5.514054775E0,7.267227173E0
1.162654063E1,3.597326279E0,5.512423992E0,7.269306660E0
1.164681032E1,3.597072601E0,5.510376453E0,7.270984173E0
1.166708000E1,3.599076986E0,5.508271217E0,7.271587372E0
1.168734969E1,3.600934505E0,5.507261753E0,7.271431446E0
1.170773402E1,3.602166176E0,5.506944656E0,7.271062851E0
1.172787756E1,3.603885174E0,5.507128716E0,7.270070553E0
1.174814964E1,3.605069399E0,5.507025242E0,7.269561768E0
1.176842115E1,3.604722023E0,5.507666588E0,7.269247532E0
1.178869235E1,3.602468729E0,5.508859158E0,7.269462585E0
1.180896323E1,3.599378347E0,5.509963512E0,7.270156384E0
1.182923381E1,3.596517324E0,5.509959698E0,7.271575451E0
1.184950422E1,3.595765114E0,5.510168552E0,7.271788597E0
1.186977448E1,3.596927881E0,5.510950565E0,7.270621300E0
1.189004464E1,3.596732616E0,5.512167931E0,7.269794464E0
1.191031474E1,3.595611095E0,5.513262272E0,7.269518375E0
1.193058474E1,3.594797373E0,5.513970852E0,7.269384384E0
1.195085469E1,3.594156981E0,5.513390064E0,7.270141602E0
1.197112459E1,3.593738079E0,5.511452675E0,7.271816730E0
1.199139448E1,3.593217850E0,5.510269165E0,7.272971153E0
1.201166412E1,3.594030380E0,5.509308815E0,7.273296356E0
1.205726209E1,3.594524145E0,5.508712769E0,7.273504257E0
1.207747297E1,3.595288754E0,5.508634567E0,7.273184776E0
1.209779558E1,3.595571995E0,5.508408070E0,7.273216724E0
1.211817016E1,3.596076250E0,5.507580280E0,7.273595333E0
1.213828662E1,3.597660542E0,5.506413460E0,7.273694992E0
1.215855323E1,3.599617004E0,5.505810261E0,7.273183346E0
1.217882230E1,3.600520372E0,5.505681038E0,7.272834778E0
1.219909188E1,3.599833250E0,5.506070614E0,7.272879124E0
1.221936157E1,3.599377871E0,5.506380081E0,7.272870064E0
1.223963120E1,3.598644733E0,5.506421089E0,7.273202419E0
1.225990084E1,3.597671986E0,5.505899906E0,7.274077892E0
1.228017052E1,3.597124338E0,5.505045891E0,7.274994373E0
1.230044016E1,3.597410202E0,5.503940105E0,7.275690079E0
1.232070985E1,3.597418547E0,5.503873348E0,7.275736809E0
1.234097948E1,3.596354485E0,5.504959583E0,7.275440216E0
1.236124917E1,3.595225573E0,5.505342960E0,7.275709629E0
1.238151886E1,3.594838858E0,5.504964828E0,7.276185989E0
1.240178849E1,3.595077038E0,5.504546165E0,7.276385784E0
1.242205813E1,3.594795704E0,5.504476070E0,7.276576996E0
1.244232782E1,3.594460964E0,5.504870415E0,7.276443958E0
1.246259745E1,3.594287395E0,5.504907608E0,7.276501179E0
1.248286714E1,3.593945742E0,5.505094051E0,7.276529789E0
1.250313678E1,3.593208313E0,5.504749298E0,7.277153969E0
1.252340646E1,3.592571020E0,5.504407406E0,7.277727127E0
1.254367610E1,3.592817068E0,5.503883362E0,7.278002262E0
1.256407610E1,3.593493700E0,5.503422737E0,7.278016567E0
1.258421542E1,3.592995167E0,5.503619194E0,7.278115749E0
1.260456375E1,3.592169523E0,5.503974915E0,7.278253555E0
1.262475485E1,3.591651917E0,5.503177643E0,7.279110909E0
1.264502448E1,3.590956450E0,5.501882553E0,7.280432701E0
1.266529412E1,3.590044498E0,5.500218868E0,7.282139301E0
1.268556375E1,3.589168787E0,5.499448299E0,7.283153057E0
1.270583339E1,3.589772701E0,5.499457836E0,7.282849789E0
1.272610302E1,3.590476990E0,5.499941349E0,7.282136917E0
1.274637266E1,3.590694666E0,5.500316143E0,7.281746387E0
1.276664230E1,3.590624809E0,5.499965191E0,7.282045364E0
1.278691193E1,3.590652704E0,5.498969078E0,7.282783985E0
1.280718162E1,3.590693474E0,5.498277187E0,7.283286095E0
1.282745125E1,3.591260433E0,5.498050690E0,7.283177853E0
1.284772089E1,3.592272520E0,5.497999668E0,7.282717228E0
1.286799053E1,3.593269587E0,5.498095036E0,7.282153130E0
1.288826016E1,3.593795300E0,5.498744965E0,7.281403065E0
1.290852980E1,3.592567682E0,5.498750210E0,7.282003880E0
1.292879943E1,3.591063499E0,5.497896194E0,7.283391476E0
1.294906907E1,3.591147661E0,5.496071815E0,7.284725666E0
1.296933865E1,3.592110395E0,5.495488167E0,7.284692287E0
1.298960834E1,3.592257261E0,5.496431351E0,7.283907890E0
1.300987797E1,3.591965437E0,5.497594357E0,7.283173561E0
1.303014761E1,3.591584921E0,5.498074532E0,7.282999992E0
1.305041724E1,3.590390921E0,5.497383118E0,7.284109116E0
1.307068683E1,3.589877605E0,5.496971130E0,7.284674168E0
1.309095646E1,3.589728117E0,5.496725082E0,7.284932613E0
1.311122610E1,3.589288473E0,5.496827602E0,7.285073280E0
1.313149573E1,3.588459015E0,5.497449875E0,7.285011292E0
1.315176532E1,3.587711334E0,5.497721672E0,7.285174847E0
1.317203495E1,3.587251902E0,5.497855186E0,7.285300255E0
1.319230459E1,3.587096453E0,5.498096466E0,7.285194397E0
1.321257422E1,3.589834452E0,5.498783588E0,7.283326626E0
1.323284381E1,3.595323563E0,5.500311375E0,7.279465199E0
1.325311344E1,3.599857569E0,5.502607346E0,7.275488853E0
1.327338308E1,3.601070881E0,5.504989147E0,7.273084641E0
1.329365266E1,3.598721266E0,5.507246971E0,7.272539616E0
1.331405266E1,3.594553471E0,5.508899689E0,7.273348331E0
1.333419188E1,3.587320328E0,5.509486198E0,7.276474476E0
1.335446146E1,3.578225851E0,5.507817745E0,7.282213211E0
1.337473110E1,3.574428082E0,5.503726482E0,7.287169933E0
1.339500073E1,3.574587345E0,5.500357628E0,7.289634705E0
1.341540073E1,3.575202942E0,5.499884129E0,7.289690495E0
1.343553995E1,3.579112291E0,5.500848293E0,7.287044048E0
1.345580959E1,3.585447311E0,5.501327991E0,7.283566475E0
1.347607917E1,3.590072155E0,5.502077103E0,7.280722618E0
1.349634881E1,3.591512203E0,5.504065037E0,7.278508663E0
1.351674881E1,3.594025612E0,5.506468296E0,7.275450230E0
1.353688797E1,3.598199368E0,5.507462025E0,7.272634983E0
1.355715761E1,3.602308750E0,5.507209301E0,7.270791054E0
1.357742719E1,3.602901220E0,5.506529331E0,7.271012783E0
1.359769678E1,3.602315664E0,5.507271290E0,7.270740032E0
1.361796641E1,3.601718664E0,5.507913113E0,7.270550728E0
1.363823599E1,3.600618601E0,5.508415699E0,7.270714760E0
1.365850558E1,3.600469828E0,5.509024143E0,7.270327568E0
1.367877521E1,3.600454092E0,5.509194374E0,7.270206928E0
1.369904480E1,3.599969149E0,5.510113239E0,7.269750118E0
1.371944480E1,3.601609468E0,5.511791229E0,7.267664909E0
1.373958402E1,3.605477810E0,5.513364315E0,7.264552116E0
1.375985360E1,3.608880758E0,5.514616489E0,7.261911869E0
1.378012318E1,3.609066725E0,5.514753342E0,7.261715889E0
1.380039277E1,3.606300354E0,5.513195992E0,7.264272213E0
1.382066235E1,3.603001356E0,5.510847569E0,7.267690659E0
1.384093193E1,3.602280140E0,5.508758068E0,7.269631863E0
1.386120157E1,3.604023933E0,5.506106853E0,7.270775795E0
1.388147115E1,3.605992556E0,5.503831863E0,7.271522999E0
1.390174073E1,3.607689619E0,5.504024506E0,7.270534992E0
1.392201032E1,3.610989809E0,5.507603168E0,7.266185284E0
1.394227990E1,3.614287376E0,5.511351109E0,7.261702538E0
1.396254948E1,3.614420176E0,5.510792255E0,7.262060165E0
1.398281907E1,3.612406254E0,5.506484509E0,7.266329765E0
1.400308865E1,3.610845327E0,5.503499031E0,7.269366264E0
1.402335823E1,3.611850500E0,5.503052235E0,7.269205093E0
1.404362782E1,3.611849785E0,5.504273415E0,7.268280983E0
1.406389740E1,3.608510256E0,5.505846977E0,7.268747807E0
1.408416698E1,3.604374647E0,5.506155968E0,7.270565510E0
1.410443657E1,3.601339817E0,5.506572723E0,7.271753311E0
1.412483657E1,3.600179434E0,5.506641865E0,7.272275448E0
1.414497573E1,3.601076126E0,5.507129669E0,7.271462440E0
1.416524532E1,3.602134466E0,5.507003307E0,7.271032810E0
1.418551490E1,3.602371216E0,5.507455826E0,7.270573139E0
1.420578448E1,3.603585720E0,5.508280277E0,7.269346237E0
1.422605402E1,3.606030703E0,5.509461880E0,7.267237663E0
1.424632360E1,3.609072447E0,5.511207104E0,7.264405251E0
1.426659318E1,3.610983610E0,5.513089180E0,7.262026787E0
1.428686276E1,3.611944675E0,5.515154839E0,7.259980202E0
1.430713235E1,3.612815142E0,5.516237259E0,7.258723736E0
1.432740188E1,3.612715006E0,5.516695499E0,7.258427143E0
1.434767146E1,3.612695456E0,5.517014027E0,7.258194923E0
1.436794105E1,3.613281488E0,5.518113136E0,7.257066250E0
1.438821063E1,3.613581657E0,5.518686295E0,7.256481171E0
1.440848016E1,3.612720251E0,5.519677639E0,7.256156921E0
1.442874974E1,3.610090256E0,5.520792484E0,7.256616116E0
1.444901928E1,3.607069016E0,5.521542072E0,7.257548332E0
1.446928886E1,3.603557348E0,5.521100998E0,7.259629250E0
1.448955839E1,3.598601103E0,5.519341946E0,7.263423443E0
1.450982797E1,3.593386650E0,5.516684055E0,7.268023014E0
1.453009756E1,3.588128090E0,5.512072563E0,7.274116516E0
1.455036709E1,3.582159758E0,5.507469177E0,7.280542374E0
1.457063667E1,3.578482389E0,5.503903866E0,7.285046577E0
1.459090620E1,3.578427792E0,5.501542568E0,7.286855698E0
1.461117579E1,3.579938889E0,5.500837326E0,7.286646366E0
1.463144532E1,3.581996918E0,5.500451088E0,7.285926819E0
1.465171490E1,3.585592508E0,5.501460552E0,7.283394814E0
1.467198443E1,3.592160225E0,5.503786564E0,7.278399467E0
1.469225402E1,3.598206997E0,5.506755352E0,7.273165703E0
1.471252355E1,3.601955891E0,5.509191036E0,7.269464970E0
1.473279308E1,3.604290247E0,5.509525299E0,7.268053532E0
1.475306266E1,3.606019974E0,5.508676052E0,7.267839432E0
1.477333219E1,3.606626511E0,5.508835316E0,7.267417431E0
1.479360172E1,3.604727745E0,5.510242939E0,7.267292976E0
1.481400172E1,3.601532221E0,5.509430408E0,7.269492626E0
1.483414084E1,3.597825527E0,5.506379128E0,7.273640156E0
1.485441037E1,3.595633268E0,5.502721786E0,7.277490139E0
1.487481037E1,3.595666647E0,5.500294685E0,7.279307365E0
1.489494948E1,3.595880032E0,5.500357628E0,7.279156208E0
1.491534948E1,3.595061302E0,5.501351357E0,7.278808594E0
1.493548855E1,3.594527245E0,5.503075600E0,7.277768612E0
1.495575808E1,3.592851400E0,5.504326820E0,7.277650356E0
1.497602766E1,3.589717627E0,5.504453659E0,7.279100418E0
1.499629719E1,3.586789846E0,5.503064632E0,7.281594276E0
1.501669719E1,3.586789846E0,5.499936104E0,7.283956528E0
1.503683625E1,3.588427305E0,5.497811794E0,7.284754753E0
1.505710579E1,3.589834213E0,5.496990204E0,7.284680843E0
1.507737532E1,3.591029167E0,5.496331215E0,7.284589767E0
1.509764485E1,3.593485832E0,5.494920254E0,7.284441948E0
1.511804485E1,3.596041441E0,5.493955612E0,7.283909321E0
1.513818391E1,3.598661184E0,5.493304729E0,7.283106327E0
1.515845349E1,3.601116180E0,5.493460178E0,7.281774521E0
1.517872303E1,3.603564978E0,5.494480610E0,7.279793262E0
1.519899256E1,3.605273008E0,5.495303154E0,7.278326511E0
1.521926209E1,3.603909731E0,5.495646477E0,7.278742790E0
1.523953157E1,3.600255489E0,5.495122433E0,7.280946255E0
1.525980115E1,3.597434282E0,5.493957043E0,7.283220768E0
1.528007063E1,3.595456600E0,5.492896557E0,7.284996033E0
1.530034021E1,3.592387438E0,5.492065430E0,7.287136555E0
1.532060969E1,3.589930296E0,5.491201878E0,7.288997650E0
1.534087922E1,3.589665651E0,5.488927364E0,7.290841103E0
1.536114875E1,3.590261221E0,5.484723091E0,7.293711185E0
1.538141829E1,3.590633392E0,5.481575012E0,7.295894146E0
1.540168782E1,3.591155052E0,5.479982853E0,7.296833992E0
1.542195735E1,3.590222836E0,5.478444576E0,7.298447132E0
1.544222683E1,3.588032246E0,5.477102757E0,7.300531387E0
1.546249636E1,3.586190939E0,5.477306366E0,7.301282883E0
1.548276589E1,3.584343433E0,5.476579666E0,7.302735806E0
1.550303542E1,3.582748175E0,5.476057053E0,7.303910255E0
1.552343542E1,3.582767963E0,5.475204468E0,7.304539680E0
1.554357443E1,3.583586216E0,5.473981380E0,7.305054665E0
1.556384396E1,3.585481882E0,5.473145008E0,7.304751396E0
1.558411344E1,3.587548494E0,5.472563744E0,7.304172516E0
1.560438297E1,3.589545488E0,5.472489357E0,7.303246975E0
1.562465250E1,3.590143681E0,5.472109795E0,7.303236961E0
1.564492204E1,3.590620995E0,5.471287251E0,7.303618908E0
1.566519152E1,3.591405630E0,5.469826221E0,7.304327011E0
1.568546105E1,3.592688799E0,5.467022419E0,7.305795670E0
1.570573053E1,3.593952656E0,5.464514256E0,7.307049751E0
1.572600006E1,3.594645977E0,5.462663651E0,7.308091640E0
1.574626954E1,3.595268726E0,5.460362434E0,7.309505463E0
1.576653907E1,3.594101429E0,5.458735943E0,7.311294079E0
1.578680860E1,3.591562033E0,5.457994938E0,7.313095570E0
1.580707808E1,3.587451458E0,5.456439018E0,7.316274166E0
1.582734756E1,3.583459139E0,5.454264164E0,7.319849968E0
1.584761709E1,3.583094358E0,5.452194214E0,7.321570873E0
1.586788657E1,3.584795237E0,5.451448917E0,7.321293354E0
1.588815610E1,3.584607363E0,5.451572418E0,7.321293354E0
1.590842558E1,3.584932804E0,5.451528072E0,7.321167469E0
1.592869506E1,3.586212873E0,5.451654434E0,7.320446014E0
1.594896459E1,3.587311268E0,5.451642036E0,7.319916248E0
1.596923407E1,3.586958647E0,5.452174664E0,7.319692612E0
1.598950355E1,3.584612370E0,5.452849865E0,7.320340157E0
1.600977302E1,3.582605839E0,5.453372002E0,7.320933342E0
1.603004250E1,3.581614971E0,5.453698158E0,7.321175098E0
1.605031204E1,3.580510139E0,5.453601837E0,7.321785450E0
1.607058152E1,3.579358339E0,5.452952385E0,7.322833538E0
1.609085099E1,3.578922987E0,5.451819897E0,7.323889256E0
1.611112047E1,3.580168724E0,5.450243473E0,7.324453354E0
1.613138995E1,3.581619501E0,5.450397015E0,7.323630333E0
1.615165943E1,3.582335949E0,5.451753616E0,7.322269917E0
1.617192891E1,3.581118584E0,5.453066826E0,7.321886539E0
1.619219839E1,3.578993797E0,5.453628540E0,7.322507858E0
1.621246787E1,3.576094866E0,5.452569962E0,7.324712276E0
1.623273735E1,3.572774649E0,5.451255798E0,7.327311039E0
1.625300683E1,3.571228027E0,5.451113701E0,7.328170776E0
1.627327631E1,3.572330952E0,5.451591015E0,7.327277184E0
1.629354579E1,3.576213837E0,5.451463223E0,7.325477600E0
1.631394579E1,3.580517530E0,5.452071667E0,7.322921753E0
1.633408474E1,3.583677053E0,5.454862118E0,7.319298267E0
1.635435422E1,3.585749388E0,5.459119320E0,7.315107822E0
1.637462365E1,3.589617252E0,5.463361263E0,7.310042381E0
1.639489313E1,3.593809366E0,5.467018604E0,7.305247784E0
1.641529313E1,3.595346689E0,5.471601486E0,7.301058292E0
1.643543209E1,3.594331264E0,5.477056026E0,7.297466755E0
1.645570152E1,3.594724178E0,5.481130600E0,7.294213295E0
1.647597099E1,3.598940611E0,5.483870983E0,7.290072441E0
1.649624058E1,3.602882147E0,5.487695217E0,7.285247803E0
1.651664058E1,3.601644039E0,5.493909359E0,7.281174660E0
1.653677938E1,3.597879887E0,5.499944687E0,7.278479576E0
1.655704881E1,3.596835852E0,5.502626419E0,7.276968002E0
1.657731829E1,3.598441124E0,5.503338337E0,7.275635242E0
1.659758776E1,3.600001812E0,5.503474236E0,7.274760723E0
1.661798777E1,3.600980043E0,5.504214764E0,7.273716927E0
1.663812667E1,3.600999117E0,5.504575729E0,7.273433685E0
1.665839610E1,3.601578951E0,5.505484104E0,7.272458553E0
1.667866558E1,3.603359938E0,5.505932808E0,7.271237373E0
1.669893500E1,3.605418444E0,5.507882595E0,7.268738747E0
1.671933500E1,3.608573198E0,5.511778355E0,7.264218807E0
1.673947386E1,3.612037420E0,5.516762733E0,7.258712292E0
1.675974334E1,3.614652872E0,5.522071838E0,7.253371716E0
1.678001282E1,3.615967274E0,5.525197983E0,7.250335217E0
1.680028224E1,3.617477179E0,5.524652481E0,7.249996662E0
1.682055167E1,3.619657993E0,5.522562027E0,7.250502110E0
1.684082115E1,3.623862743E0,5.523308277E0,7.247831821E0
1.686109058E1,3.628125906E0,5.526360035E0,7.243371487E0
1.688136000E1,3.629984617E0,5.530197144E0,7.239511967E0
1.690162943E1,3.630279541E0,5.533935070E0,7.236505032E0
1.692202943E1,3.628850698E0,5.535058498E0,7.236363411E0
1.694216834E1,3.625419378E0,5.533462048E0,7.239304066E0
1.696243776E1,3.621102571E0,5.529965401E0,7.244134903E0
1.698270719E1,3.615395308E0,5.525443554E0,7.250432968E0
1.700297662E1,3.610987663E0,5.522076607E0,7.255192757E0
1.702337662E1,3.612630606E0,5.518462658E0,7.257123470E0
1.704351547E1,3.615215540E0,5.515849113E0,7.257824898E0
1.706378490E1,3.613788843E0,5.515312672E0,7.258942127E0
1.708405433E1,3.611266851E0,5.515233517E0,7.260256290E0
1.710432375E1,3.615248442E0,5.516154766E0,7.257575035E0
1.712459318E1,3.623473883E0,5.516443253E0,7.253252506E0
1.714486261E1,3.627406359E0,5.517325878E0,7.250616550E0
1.716513204E1,3.624875546E0,5.518414497E0,7.251052856E0
1.718540146E1,3.620709896E0,5.517442703E0,7.253872395E0
1.720567089E1,3.620139122E0,5.514180660E0,7.256638050E0
1.722594032E1,3.620663166E0,5.511467934E0,7.258437157E0
1.724620974E1,3.619171619E0,5.511400223E0,7.259232998E0
1.726647917E1,3.617094755E0,5.511659622E0,7.260070801E0
1.728674860E1,3.616174459E0,5.510509014E0,7.261403084E0
1.730701802E1,3.617410660E0,5.509519577E0,7.261537075E0
1.732728740E1,3.619904280E0,5.509481430E0,7.260323048E0
1.734755683E1,3.620129347E0,5.509802341E0,7.259966850E0
1.736782625E1,3.617566586E0,5.509436131E0,7.261523247E0
1.738809568E1,3.613390923E0,5.509545803E0,7.263518810E0
1.740836506E1,3.610691309E0,5.510095596E0,7.264443398E0
1.742863448E1,3.609644651E0,5.509816170E0,7.265175819E0
1.744890391E1,3.608973026E0,5.507930279E0,7.266939163E0
1.746917329E1,3.607753038E0,5.504893303E0,7.269845486E0
1.748944271E1,3.605003595E0,5.503947735E0,7.271925449E0
1.750971209E1,3.604548931E0,5.503507137E0,7.272483826E0
1.752998152E1,3.605403423E0,5.503799915E0,7.271838665E0
1.755025094E1,3.605856895E0,5.503644466E0,7.271730900E0
1.757052032E1,3.605266333E0,5.503313541E0,7.272274971E0
1.759078974E1,3.604497194E0,5.504730701E0,7.271583080E0
1.761105912E1,3.605947733E0,5.507185936E0,7.269004345E0
1.763132855E1,3.607579231E0,5.508822441E0,7.266955376E0
1.765159792E1,3.606981993E0,5.510078907E0,7.266298771E0
1.767186735E1,3.605726004E0,5.510220528E0,7.266814232E0
1.769213672E1,3.605315685E0,5.510878563E0,7.266519547E0
1.771240610E1,3.606438637E0,5.511059284E0,7.265825272E0
1.773267552E1,3.607418299E0,5.511479378E0,7.265019894E0
1.775294490E1,3.607846975E0,5.512236118E0,7.264232635E0
1.777321428E1,3.608442068E0,5.513318062E0,7.263116837E0
1.779348365E1,3.609695911E0,5.514595985E0,7.261523724E0
1.781388365E1,3.610384226E0,5.514850616E0,7.260987282E0
1.783402245E1,3.610516548E0,5.514667511E0,7.261060715E0
1.785429183E1,3.610080481E0,5.514933109E0,7.261075020E0
1.787456125E1,3.610372543E0,5.514625549E0,7.261163235E0
1.789483063E1,3.610630751E0,5.514364719E0,7.261234283E0
1.791523063E1,3.610534191E0,5.514779568E0,7.260967255E0
1.793536938E1,3.610748291E0,5.514326096E0,7.261203766E0
1.795563875E1,3.610056877E0,5.513772964E0,7.261968613E0
1.797603875E1,3.607557058E0,5.513053417E0,7.263757229E0
1.799617750E1,3.605954885E0,5.509475231E0,7.267266273E0
1.801657750E1,3.605649710E0,5.505614281E0,7.270343304E0
1.803671625E1,3.604290962E0,5.504922867E0,7.271540165E0
1.805711625E1,3.602496147E0,5.506258965E0,7.271417618E0
1.807725506E1,3.602656603E0,5.506682873E0,7.271018028E0
1.809752443E1,3.605240583E0,5.505349636E0,7.270747185E0
1.811792443E1,3.607564926E0,5.503077030E0,7.271314144E0
1.813806318E1,3.606978893E0,5.502914429E0,7.271727085E0
1.815833256E1,3.605072498E0,5.501778126E0,7.273533344E0
1.817860193E1,3.603001356E0,5.498641968E0,7.276929855E0
1.819887131E1,3.602416277E0,5.495350838E0,7.279705048E0
1.821914063E1,3.601766825E0,5.494234562E0,7.280869484E0
1.823941000E1,3.602186918E0,5.494708061E0,7.280303001E0
1.825967938E1,3.604208231E0,5.495598316E0,7.278631210E0
1.827994875E1,3.606485128E0,5.497678280E0,7.275931835E0
1.830021813E1,3.608509064E0,5.500528336E0,7.272774220E0
1.832061813E1,3.609742165E0,5.502258778E0,7.270852089E0
1.834075683E1,3.609874249E0,5.502168179E0,7.270855904E0
1.836102620E1,3.610197544E0,5.500727654E0,7.271784306E0
1.838129553E1,3.608644009E0,5.498579025E0,7.274181366E0
1.840156490E1,3.606230736E0,5.496504784E0,7.276944160E0
1.842183428E1,3.604951620E0,5.494971752E0,7.278735161E0
1.844210360E1,3.603026628E0,5.492902279E0,7.281250954E0
1.846237297E1,3.599454403E0,5.491445065E0,7.284115791E0
1.848264235E1,3.597408295E0,5.490815163E0,7.285602570E0
1.850291172E1,3.597172499E0,5.490383148E0,7.286043167E0
1.852318105E1,3.598189831E0,5.490004539E0,7.285827160E0
1.854345037E1,3.599389315E0,5.490540504E0,7.284829617E0
1.856371974E1,3.598881721E0,5.491949081E0,7.284019470E0
1.858398907E1,3.598039865E0,5.493351936E0,7.283376694E0
1.860425844E1,3.596559525E0,5.493302345E0,7.284146309E0
1.862452776E1,3.593919039E0,5.491394520E0,7.286887646E0
1.864479714E1,3.590410233E0,5.488785744E0,7.290580750E0
1.866506646E1,3.588117838E0,5.486950397E0,7.293090820E0
1.868533584E1,3.587216854E0,5.486293793E0,7.294028282E0
1.870560511E1,3.587100506E0,5.484899521E0,7.295133114E0
1.872587448E1,3.588861942E0,5.483272552E0,7.295489788E0
1.874614386E1,3.591279507E0,5.481455803E0,7.295665264E0
1.876641318E1,3.594557047E0,5.479537010E0,7.295493603E0
1.878668256E1,3.597962856E0,5.479362488E0,7.293945312E0
1.880695188E1,3.599171400E0,5.480216980E0,7.292706966E0
1.882722120E1,3.597571373E0,5.480160713E0,7.293539047E0
1.884749052E1,3.596027613E0,5.477881432E0,7.296010971E0
1.886775985E1,3.597172022E0,5.474226475E0,7.298191071E0
1.888802922E1,3.598607540E0,5.471014977E0,7.299890995E0
1.890829855E1,3.596534014E0,5.469403267E0,7.302119732E0
1.892856787E1,3.594530821E0,5.467758656E0,7.304337978E0
1.894883719E1,3.596906424E0,5.465709686E0,7.304701328E0
1.896910652E1,3.602492809E0,5.463508606E0,7.303595066E0
1.898937584E1,3.607547760E0,5.463639736E0,7.301001549E0
1.900964516E1,3.607689857E0,5.465644360E0,7.299430847E0
1.903004516E1,3.601368189E0,5.465380669E0,7.302749634E0
1.905018381E1,3.594416142E0,5.461163998E0,7.309326172E0
1.907045313E1,3.592507362E0,5.456113815E0,7.314034939E0
1.909072250E1,3.594305515E0,5.452726364E0,7.315676689E0
1.911099183E1,3.593527555E0,5.450695992E0,7.317571163E0
1.913126115E1,3.587279081E0,5.448794365E0,7.322052956E0
1.915153042E1,3.583917856E0,5.446687222E0,7.325266838E0
1.917179974E1,3.589025974E0,5.445649147E0,7.323536396E0
1.919206907E1,3.595031023E0,5.446819782E0,7.319719315E0
1.921233839E1,3.597442150E0,5.449175835E0,7.316780090E0
1.923260771E1,3.598751783E0,5.451015949E0,7.314765930E0
1.925287704E1,3.599154711E0,5.450873375E0,7.314674377E0
1.927314636E1,3.597185612E0,5.449563980E0,7.316617012E0
1.929341563E1,3.594558716E0,5.448580742E0,7.318640232E0
1.931381563E1,3.593226433E0,5.448636532E0,7.319252491E0
1.933395428E1,3.591853857E0,5.448949814E0,7.319694519E0
1.935422360E1,3.589942932E0,5.448948383E0,7.320631504E0
1.937449292E1,3.587494135E0,5.448047638E0,7.322502136E0
1.939476219E1,3.586287975E0,5.447116375E0,7.323786736E0
1.941516219E1,3.586759567E0,5.446673393E0,7.323885441E0
1.943530084E1,3.587065220E0,5.446512699E0,7.323854923E0
1.945557011E1,3.586413145E0,5.446300030E0,7.324332237E0
1.947583943E1,3.584973574E0,5.446333408E0,7.325012207E0
1.949610870E1,3.584345341E0,5.445200443E0,7.326161861E0
1.951650870E1,3.584038019E0,5.444156647E0,7.327087879E0
1.953664735E1,3.583276510E0,5.444434166E0,7.327254295E0
1.955691662E1,3.580323458E0,5.445046902E0,7.328242779E0
1.957718594E1,3.577477932E0,5.445664406E0,7.329173565E0
1.959745521E1,3.575031996E0,5.445569992E0,7.330437660E0
1.961785521E1,3.571739674E0,5.445659161E0,7.331975937E0
1.963799381E1,3.568650723E0,5.445783138E0,7.333387375E0
1.965826313E1,3.565984488E0,5.445101738E0,7.335189819E0
1.967853240E1,3.564490795E0,5.444814682E0,7.336129189E0
1.969880172E1,3.563692570E0,5.444987774E0,7.336388111E0
1.971920172E1,3.562796593E0,5.445829868E0,7.336198807E0
1.973934032E1,3.562820435E0,5.446595192E0,7.335618973E0
1.975960959E1,3.563651562E0,5.446612358E0,7.335202217E0
1.977987891E1,3.565627337E0,5.446156025E0,7.334580421E0
1.980014818E1,3.569439888E0,5.445810795E0,7.332983017E0
1.982041750E1,3.572557211E0,5.445981979E0,7.331336975E0
1.984068678E1,3.574878931E0,5.445235252E0,7.330760002E0
1.986095610E1,3.577983856E0,5.444319725E0,7.329925537E0
1.988122537E1,3.581348181E0,5.444090366E0,7.328453064E0
1.990149469E1,3.584172964E0,5.444050789E0,7.327100277E0
1.992176396E1,3.588126898E0,5.444390297E0,7.324912548E0
1.994203329E1,3.592673540E0,5.445999622E0,7.321486950E0
1.996230256E1,3.595149040E0,5.448822975E0,7.318170547E0
1.998257183E1,3.594627142E0,5.452579975E0,7.315628529E0
2.000284115E1,3.592597008E0,5.455711365E0,7.314291000E0
2.002311042E1,3.593459606E0,5.458008289E0,7.312152386E0
2.004337974E1,3.595772505E0,5.459760666E0,7.309706688E0
2.006364902E1,3.597743750E0,5.462330818E0,7.306816101E0
2.008391829E1,3.598271847E0,5.464849472E0,7.304673195E0
2.010418761E1,3.596976757E0,5.466784954E0,7.303863049E0
2.012445688E1,3.595518589E0,5.468875885E0,7.303014278E0
2.014472620E1,3.596092224E0,5.471395493E0,7.300845623E0
2.016499547E1,3.596509933E0,5.474511623E0,7.298301697E0
2.018526474E1,3.595534801E0,5.477826595E0,7.296296120E0
2.020553407E1,3.595250368E0,5.480609417E0,7.294345856E0
2.022580334E1,3.596510887E0,5.483967304E0,7.291200638E0
2.024607261E1,3.598077536E0,5.486983299E0,7.288157940E0
2.026634193E1,3.598455906E0,5.491084576E0,7.284881592E0
2.028661120E1,3.598476648E0,5.495632172E0,7.281441212E0
2.030688052E1,3.598777056E0,5.499821186E0,7.278128147E0
2.032714980E1,3.597892523E0,5.502687454E0,7.276399136E0
2.034741907E1,3.596185446E0,5.504414558E0,7.275935650E0
2.036768839E1,3.596441031E0,5.506061554E0,7.274564266E0
2.038795766E1,3.597686529E0,5.508069992E0,7.272428036E0
2.040822693E1,3.599508762E0,5.510768414E0,7.269482136E0
2.042849625E1,3.601510286E0,5.514614105E0,7.265571594E0
2.044876553E1,3.602886677E0,5.517644405E0,7.262588501E0
2.046903480E1,3.602988958E0,5.520090580E0,7.260677814E0
2.048930412E1,3.602557421E0,5.522776127E0,7.258850098E0
2.050957339E1,3.603052378E0,5.524997711E0,7.256914139E0
2.052984271E1,3.604307175E0,5.526129246E0,7.255428791E0
2.055011198E1,3.605518579E0,5.526952744E0,7.254199505E0
2.057038125E1,3.606376886E0,5.527397156E0,7.253434658E0
2.059065058E1,3.606026173E0,5.527589798E0,7.253461361E0
2.061091985E1,3.604452610E0,5.527644634E0,7.254202843E0
2.063118912E1,3.602955818E0,5.527556896E0,7.255012035E0
2.065145844E1,3.603117943E0,5.526983738E0,7.255369186E0
2.067172771E1,3.604058266E0,5.525636196E0,7.255928993E0
2.069199698E1,3.604527473E0,5.524119377E0,7.256850719E0
2.071226625E1,3.602476597E0,5.522931099E0,7.258773327E0
2.073253558E1,3.599828720E0,5.521484375E0,7.261186600E0
2.075280485E1,3.599224329E0,5.519310474E0,7.263139725E0
2.077307412E1,3.600509644E0,5.517132282E0,7.264155865E0
2.079334344E1,3.600527048E0,5.515650272E0,7.265274048E0
2.081373146E1,3.598555326E0,5.515399933E0,7.266440392E0
2.083376365E1,3.597602844E0,5.515460014E0,7.266866684E0
2.085415162E1,3.597994566E0,5.513969421E0,7.267803669E0
2.087442047E1,3.598315001E0,5.511846066E0,7.269255638E0
2.089468974E1,3.598861694E0,5.510780811E0,7.269792080E0
2.091508974E1,3.600717306E0,5.510870934E0,7.268804550E0
2.093522834E1,3.602253675E0,5.511147022E0,7.267833710E0
2.095549766E1,3.602112532E0,5.510961533E0,7.268045425E0
2.097576693E1,3.602499008E0,5.509753704E0,7.268768311E0
2.099603620E1,3.605601311E0,5.507529259E0,7.268917084E0
2.101643620E1,3.607879877E0,5.505762577E0,7.269124031E0
2.103657474E1,3.605848312E0,5.505218029E0,7.270544529E0
2.105684407E1,3.603086948E0,5.505495071E0,7.271703720E0
2.107711334E1,3.602600336E0,5.505421638E0,7.272000313E0
2.109738266E1,3.603211880E0,5.505263805E0,7.271817684E0
2.111778266E1,3.601914406E0,5.506511211E0,7.271515369E0
2.113792125E1,3.600533009E0,5.507884979E0,7.271159172E0
2.115819053E1,3.599896431E0,5.508152485E0,7.271270752E0
2.117845980E1,3.600302935E0,5.507680893E0,7.271428108E0
2.119872907E1,3.600554705E0,5.507056713E0,7.271775246E0
2.121899834E1,3.599669695E0,5.507047176E0,7.272220612E0
2.123926761E1,3.598143101E0,5.506304264E0,7.273539066E0
2.125953693E1,3.597543478E0,5.505298615E0,7.274597168E0
2.127980620E1,3.598678350E0,5.503998756E0,7.275019169E0
2.130007547E1,3.600009918E0,5.503561497E0,7.274691105E0
2.132034474E1,3.599210978E0,5.504508495E0,7.274369240E0
2.134061402E1,3.597010374E0,5.506221294E0,7.274161339E0
2.136088329E1,3.595371008E0,5.506971359E0,7.274404526E0
2.138115256E1,3.594411373E0,5.506617069E0,7.275146961E0
2.140142183E1,3.594546318E0,5.506124020E0,7.275452614E0
2.142182183E1,3.594594240E0,5.505677700E0,7.275767803E0
2.144196042E1,3.593913794E0,5.505419731E0,7.276298523E0
2.146222969E1,3.593382597E0,5.505010128E0,7.276872158E0
2.148249896E1,3.593353748E0,5.504449844E0,7.277309895E0
2.150276823E1,3.594635725E0,5.504382133E0,7.276727676E0
2.152303750E1,3.596251011E0,5.504306793E0,7.275986671E0
2.154330678E1,3.596405983E0,5.504175186E0,7.276008129E0
2.156357605E1,3.595495939E0,5.503864288E0,7.276693344E0
2.158384532E1,3.594758987E0,5.503353596E0,7.277443886E0
2.160411459E1,3.594116688E0,5.502247334E0,7.278597832E0
2.162438386E1,3.593500376E0,5.500694752E0,7.280075550E0
2.164465313E1,3.593056440E0,5.500211716E0,7.280659199E0
2.166492245E1,3.592188835E0,5.501010895E0,7.280484676E0
2.168519172E1,3.590227127E0,5.501994133E0,7.280708790E0
2.170546099E1,3.588685751E0,5.501969814E0,7.281487465E0
2.172573027E1,3.588894844E0,5.501545429E0,7.281703472E0
2.174599954E1,3.589959860E0,5.501056671E0,7.281548977E0
2.176626881E1,3.590712786E0,5.500999451E0,7.281219482E0
2.178653808E1,3.590036869E0,5.501411438E0,7.281242371E0
2.180680735E1,3.589167833E0,5.501864433E0,7.281328201E0
2.182707662E1,3.589017630E0,5.501603603E0,7.281600475E0
2.184734589E1,3.590041637E0,5.500854492E0,7.281661034E0
2.186761516E1,3.591598034E0,5.500756264E0,7.280967712E0
2.188788443E1,3.593356609E0,5.500684738E0,7.280154228E0
2.190815370E1,3.593802452E0,5.500875950E0,7.279790401E0
2.192842297E1,3.593009949E0,5.501039505E0,7.280056953E0
2.194869224E1,3.592188120E0,5.500252724E0,7.281057835E0
2.196896152E1,3.592988968E0,5.499022484E0,7.281590939E0
2.198923079E1,3.594361305E0,5.498412132E0,7.281375408E0
2.200950006E1,3.596093178E0,5.498250961E0,7.280641079E0
2.202976933E1,3.597188473E0,5.498632431E0,7.279811859E0
2.205003860E1,3.596203566E0,5.497909546E0,7.280844212E0
2.207030787E1,3.595353842E0,5.496218681E0,7.282540798E0
2.209057714E1,3.595184565E0,5.495516300E0,7.283154964E0
2.211084641E1,3.594517469E0,5.495946884E0,7.283157825E0
2.213111563E1,3.593266726E0,5.496383190E0,7.283447266E0
2.215138490E1,3.591545343E0,5.496320724E0,7.284343243E0
2.217165417E1,3.591075897E0,5.495756149E0,7.284999371E0
2.219192344E1,3.592395782E0,5.495064735E0,7.284871578E0
2.221219271E1,3.594255209E0,5.493759632E0,7.284938335E0
2.223246198E1,3.595854044E0,5.492194176E0,7.285328865E0
2.225273125E1,3.596276999E0,5.492563725E0,7.284841061E0
2.227300052E1,3.596144199E0,5.494302750E0,7.283596039E0
2.229326974E1,3.596820116E0,5.495122433E0,7.282643795E0
2.231357829E1,3.596981049E0,5.494953156E0,7.282692432E0
2.233380834E1,3.596649170E0,5.494882584E0,7.282909870E0
2.235407761E1,3.596145630E0,5.495237350E0,7.282890320E0
2.237434678E1,3.595544577E0,5.495091915E0,7.283296108E0
2.239461605E1,3.595466614E0,5.494145393E0,7.284049034E0
2.241501605E1,3.595330477E0,5.493153095E0,7.284864426E0
2.243515459E1,3.595933199E0,5.492395401E0,7.285138607E0
2.245542386E1,3.596056700E0,5.492247581E0,7.285190105E0
2.247569302E1,3.595719337E0,5.492058754E0,7.285498619E0
2.249596235E1,3.595241070E0,5.491571903E0,7.286100864E0
2.251636235E1,3.595285177E0,5.491584778E0,7.286069393E0
2.253650084E1,3.595196724E0,5.492503166E0,7.285420418E0
2.255677011E1,3.594539165E0,5.493609428E0,7.284911156E0
2.257703938E1,3.593652487E0,5.494170666E0,7.284924507E0
2.259730860E1,3.593269825E0,5.493983746E0,7.285254955E0
2.261770860E1,3.593012571E0,5.493440151E0,7.285790920E0
2.263784709E1,3.592338562E0,5.492903709E0,7.286528587E0
2.265811636E1,3.591430187E0,5.493066788E0,7.286853790E0
2.267838563E1,3.591252327E0,5.493232250E0,7.286816120E0
2.269865485E1,3.591471195E0,5.493810654E0,7.286273003E0
2.271905485E1,3.591495752E0,5.494790554E0,7.285521984E0
2.273919339E1,3.591744900E0,5.495145798E0,7.285130978E0
2.275946261E1,3.592343569E0,5.495085239E0,7.284880638E0
2.277973188E1,3.592152596E0,5.494698524E0,7.285266876E0
2.280000110E1,3.591694355E0,5.494297028E0,7.285796165E0
2.282027037E1,3.592422247E0,5.493270874E0,7.286210537E0
2.284053959E1,3.593230486E0,5.491423607E0,7.287203789E0
2.286080886E1,3.594522953E0,5.490139008E0,7.287535191E0
2.288107808E1,3.596049786E0,5.490751743E0,7.286319256E0
2.290134735E1,3.596800089E0,5.492293835E0,7.284787655E0
2.292161657E1,3.596838474E0,5.492372990E0,7.284708500E0
2.294188584E1,3.596276045E0,5.491775990E0,7.285436630E0
2.296215506E1,3.595767975E0,5.490311146E0,7.286791325E0
2.298242428E1,3.596680880E0,5.488951683E0,7.287364483E0
2.300269355E1,3.598835945E0,5.488523960E0,7.286622524E0
2.302296277E1,3.601048231E0,5.488269329E0,7.285721302E0
2.304323198E1,3.602346420E0,5.489001274E0,7.284527779E0
2.306350115E1,3.602056503E0,5.489920616E0,7.283978939E0
2.308377047E1,3.600590706E0,5.490300179E0,7.284416199E0
2.310403969E1,3.600514174E0,5.489923477E0,7.284739494E0
2.312430891E1,3.600161076E0,5.488965511E0,7.285634518E0
2.314457813E1,3.598768234E0,5.488571167E0,7.286621094E0
2.316484735E1,3.598070383E0,5.489326954E0,7.286395073E0
2.318511662E1,3.597778082E0,5.489709377E0,7.286252499E0
2.320538584E1,3.598320961E0,5.489099026E0,7.286443710E0
2.322565506E1,3.599231720E0,5.488502979E0,7.286442280E0
2.324592428E1,3.599807739E0,5.487709999E0,7.286756039E0
2.326619349E1,3.599393368E0,5.486919880E0,7.287555218E0
2.328646277E1,3.598604441E0,5.485879421E0,7.288728237E0
2.330673198E1,3.598979712E0,5.484832764E0,7.289331436E0
2.332700120E1,3.598958492E0,5.484063625E0,7.289920807E0
2.334727042E1,3.597950459E0,5.483127117E0,7.291121483E0
2.336753964E1,3.597279787E0,5.482608795E0,7.291842937E0
2.338780886E1,3.596927881E0,5.481406212E0,7.292919159E0
2.340807813E1,3.596443415E0,5.479341507E0,7.294710159E0
2.342834735E1,3.595881701E0,5.478230953E0,7.295821190E0
2.344861657E1,3.595033169E0,5.477579594E0,7.296728134E0
2.346888579E1,3.593560696E0,5.476700306E0,7.298112392E0
2.348915500E1,3.592309952E0,5.475162506E0,7.299883842E0
2.350942422E1,3.591199875E0,5.473485947E0,7.301686287E0
2.352969344E1,3.591044664E0,5.471583366E0,7.303187370E0
2.354996266E1,3.590403318E0,5.470938683E0,7.303987026E0
2.357023188E1,3.589625597E0,5.470844746E0,7.304438591E0
2.359050110E1,3.588590860E0,5.470009804E0,7.305572033E0
2.361077032E1,3.588194609E0,5.468473434E0,7.306918144E0
2.363103954E1,3.589236498E0,5.466057301E0,7.308213234E0
2.365130875E1,3.590916872E0,5.464139462E0,7.308821678E0
2.367157797E1,3.591774225E0,5.462913036E0,7.309317589E0
2.369184719E1,3.592669964E0,5.461641788E0,7.309827328E0
2.371211636E1,3.594017029E0,5.460108757E0,7.310309887E0
2.373238558E1,3.594802141E0,5.457974911E0,7.311517715E0
2.375265480E1,3.595116615E0,5.455472469E0,7.313230991E0
2.377292402E1,3.594761133E0,5.452803135E0,7.315396309E0
2.379319323E1,3.595181465E0,5.449868679E0,7.317376137E0
2.381359323E1,3.597029448E0,5.447590351E0,7.318163872E0
2.383373167E1,3.598671436E0,5.446963787E0,7.317822933E0
2.385400084E1,3.598712683E0,5.446966648E0,7.317800999E0
2.387427006E1,3.597736120E0,5.446538448E0,7.318600178E0
2.389453928E1,3.597187757E0,5.445158482E0,7.319895267E0
2.391493928E1,3.596972942E0,5.444010735E0,7.320855618E0
2.393507766E1,3.596663952E0,5.442517281E0,7.322116852E0
2.395534688E1,3.595543146E0,5.441370010E0,7.323520184E0
2.397561610E1,3.596089125E0,5.439823627E0,7.324401379E0
2.399588532E1,3.597312212E0,5.438628674E0,7.324687004E0
2.401628532E1,3.598536730E0,5.437819004E0,7.324687004E0
2.403642370E1,3.599409819E0,5.437905312E0,7.324195385E0
2.405669292E1,3.599553823E0,5.437879562E0,7.324142933E0
2.407696209E1,3.599648237E0,5.437716007E0,7.324217796E0
2.409723131E1,3.599996805E0,5.437614441E0,7.324121952E0
2.411763131E1,3.599707842E0,5.437387943E0,7.324431896E0
2.413776969E1,3.598878622E0,5.436878204E0,7.325217247E0
2.415803891E1,3.598616362E0,5.435945511E0,7.326038361E0
2.417830808E1,3.597829819E0,5.434422016E0,7.327554226E0
2.419857730E1,3.595395088E0,5.433016777E0,7.329792023E0
2.421884646E1,3.594854593E0,5.430667400E0,7.331799030E0
2.423911568E1,3.596836567E0,5.429002762E0,7.332058907E0
2.425938485E1,3.599265099E0,5.427865505E0,7.331707954E0
2.427965407E1,3.600183964E0,5.427620888E0,7.331438541E0
2.429992323E1,3.599282503E0,5.427553177E0,7.331931591E0
2.432019245E1,3.598071098E0,5.426899910E0,7.333010197E0
2.434046162E1,3.597882986E0,5.425865650E0,7.333867073E0
2.436073084E1,3.597542763E0,5.425488472E0,7.334312439E0
2.438100000E1,3.596549511E0,5.426535606E0,7.334024906E0
2.440126917E1,3.596362114E0,5.427240372E0,7.333595753E0
2.442166917E1,3.596593857E0,5.427097321E0,7.333588123E0
2.444180756E1,3.597529411E0,5.426201820E0,7.333792210E0
2.446207672E1,3.598649025E0,5.426228523E0,7.333221912E0
2.448234584E1,3.599892139E0,5.427987099E0,7.331311703E0
2.450261511E1,3.601783991E0,5.430327892E0,7.328647137E0
2.452288428E1,3.603165865E0,5.432656288E0,7.326241970E0
2.454315344E1,3.603661537E0,5.435355186E0,7.323995590E0
2.456342256E1,3.604350090E0,5.438450813E0,7.321359158E0
2.458369183E1,3.604451418E0,5.441340446E0,7.319161892E0
2.460396099E1,3.603294849E0,5.444701195E0,7.317231655E0
2.462423016E1,3.601289034E0,5.448238373E0,7.315586090E0
2.464449933E1,3.600298882E0,5.452470779E0,7.312919617E0
2.466476849E1,3.600760698E0,5.457359314E0,7.309044838E0
2.468503766E1,3.603005648E0,5.461588860E0,7.304778576E0
2.470530688E1,3.605070591E0,5.464953899E0,7.301241398E0
2.472557605E1,3.610421658E0,5.467995167E0,7.296319008E0
2.474584521E1,3.619749069E0,5.471558094E0,7.289023399E0
2.476611438E1,3.628060579E0,5.475448608E0,7.281966209E0
2.478638355E1,3.634452581E0,5.480779171E0,7.274764061E0
2.480665271E1,3.641196966E0,5.486528397E0,7.267053604E0
2.482692188E1,3.645327568E0,5.491054535E0,7.261562824E0
2.484719105E1,3.646624327E0,5.495539188E0,7.257517815E0
2.486746021E1,3.647753000E0,5.500266552E0,7.253368855E0
2.488772938E1,3.648931980E0,5.504791260E0,7.249341488E0
2.490799855E1,3.648352623E0,5.508321762E0,7.246951103E0
2.492826771E1,3.645655632E0,5.511061192E0,7.246226311E0
2.494853688E1,3.644799471E0,5.512840748E0,7.245302200E0
2.496880599E1,3.644303322E0,5.512697697E0,7.245660305E0
2.498907516E1,3.642020941E0,5.512420654E0,7.247019768E0
2.500934433E1,3.640609264E0,5.514219761E0,7.246359348E0
2.502961349E1,3.641443014E0,5.518580914E0,7.242620468E0
2.504988266E1,3.641096830E0,5.522977829E0,7.239442825E0
2.507015183E1,3.637784243E0,5.525021076E0,7.239548206E0
2.509042099E1,3.635331154E0,5.525251389E0,7.240604401E0
2.511069016E1,3.635180712E0,5.526334763E0,7.239852905E0
2.513095933E1,3.635001659E0,5.527004242E0,7.239431381E0
2.515118907E1,3.634086847E0,5.527380943E0,7.239603519E0
2.517149756E1,3.632677078E0,5.527905464E0,7.239909649E0
2.519176672E1,3.630618334E0,5.527372360E0,7.241349697E0
2.521203584E1,3.628956318E0,5.527148724E0,7.242353439E0
2.523230500E1,3.628127813E0,5.526268959E0,7.243440628E0
2.525257417E1,3.627737999E0,5.525112152E0,7.244517326E0
2.527284334E1,3.627097845E0,5.524083614E0,7.245622158E0
2.529311256E1,3.626144648E0,5.523260117E0,7.246726513E0
2.531338162E1,3.624002457E0,5.521763802E0,7.248939037E0
2.533365084E1,3.621142626E0,5.520445824E0,7.251371861E0
2.535392000E1,3.619642258E0,5.518876076E0,7.253314972E0
2.537418917E1,3.619382858E0,5.516053200E0,7.255592823E0
2.539445829E1,3.619270802E0,5.512386799E0,7.258433819E0
2.541485829E1,3.619829893E0,5.509660244E0,7.260224819E0
2.543499657E1,3.620236158E0,5.508035183E0,7.261253834E0
2.545526573E1,3.619765282E0,5.505690098E0,7.263268948E0
2.547553490E1,3.620346308E0,5.502282143E0,7.265560150E0
2.549580402E1,3.622820854E0,5.499193192E0,7.266665459E0
2.551620402E1,3.625928879E0,5.497243881E0,7.266590118E0
2.553634230E1,3.627622604E0,5.496822357E0,7.266064167E0
2.555661146E1,3.628425360E0,5.496688366E0,7.265764236E0
2.557688063E1,3.629508734E0,5.496549606E0,7.265327454E0
2.559714974E1,3.630514383E0,5.496955395E0,7.264518261E0
2.561754974E1,3.629612923E0,5.497533321E0,7.264531612E0
2.563768803E1,3.628393650E0,5.497627258E0,7.265069485E0
2.565795719E1,3.629499197E0,5.497312069E0,7.264756203E0
2.567822631E1,3.631412029E0,5.496630669E0,7.264315605E0
2.569849547E1,3.632881165E0,5.495123863E0,7.264720917E0
2.571889547E1,3.631913424E0,5.494331837E0,7.265803814E0
2.573903474E1,3.629255295E0,5.493265152E0,7.267938614E0
2.575930370E1,3.627389669E0,5.492289066E0,7.269607067E0
2.577957266E1,3.626090527E0,5.491948128E0,7.270513535E0
2.579984167E1,3.625336885E0,5.491673946E0,7.271094799E0
2.582011073E1,3.625123501E0,5.492063046E0,7.270909309E0
2.584037974E1,3.625069380E0,5.492890358E0,7.270310402E0
2.586064875E1,3.624714136E0,5.493438721E0,7.270072937E0
2.588091787E1,3.624730825E0,5.493464947E0,7.270045280E0
2.590118693E1,3.624828100E0,5.492912769E0,7.270413876E0
2.592145605E1,3.623986721E0,5.492384911E0,7.271231651E0
2.594172516E1,3.622800350E0,5.492279530E0,7.271902084E0
2.596199428E1,3.621433496E0,5.493077755E0,7.271980762E0
2.598226339E1,3.619762897E0,5.493937016E0,7.272162914E0
2.600253256E1,3.618688583E0,5.494327545E0,7.272403717E0
2.602280167E1,3.619243622E0,5.494065762E0,7.272324562E0
2.604307079E1,3.619957209E0,5.493620396E0,7.272304535E0
2.606333985E1,3.620684862E0,5.493114471E0,7.272325516E0
2.608360902E1,3.620186567E0,5.492447853E0,7.273077965E0
2.610387808E1,3.618895531E0,5.492043495E0,7.274024487E0
2.612414724E1,3.617741585E0,5.492665291E0,7.274129868E0
2.614441636E1,3.618080854E0,5.492186069E0,7.274322987E0
2.616468553E1,3.619444370E0,5.490992546E0,7.274546146E0
2.618495464E1,3.620520353E0,5.490010262E0,7.274751186E0
2.620522375E1,3.620970964E0,5.488932610E0,7.275340557E0
2.622549287E1,3.622149944E0,5.487432480E0,7.275884628E0
2.624576204E1,3.622533560E0,5.486113548E0,7.276687622E0
2.626603115E1,3.621601343E0,5.485837460E0,7.277360439E0
2.628630026E1,3.620471716E0,5.486069202E0,7.277748108E0
2.630656938E1,3.620587587E0,5.486187935E0,7.277601242E0
2.632683855E1,3.622448921E0,5.486153126E0,7.276700974E0
2.634710766E1,3.623365402E0,5.485819817E0,7.276494980E0
2.636737678E1,3.622644901E0,5.485845089E0,7.276834488E0
2.638764589E1,3.621393442E0,5.486155510E0,7.277224064E0
2.640791500E1,3.620540857E0,5.486340523E0,7.277510166E0
2.642818417E1,3.619823694E0,5.485454082E0,7.278533936E0
2.644845329E1,3.618474960E0,5.484479904E0,7.279938698E0
2.646872240E1,3.618059635E0,5.484268665E0,7.280304432E0
2.648899152E1,3.619372606E0,5.484427929E0,7.279531479E0
2.650926063E1,3.620622396E0,5.484971523E0,7.278500557E0
2.652952974E1,3.620655298E0,5.485679626E0,7.277950764E0
2.654979886E1,3.619931698E0,5.486051559E0,7.278030396E0
2.657006797E1,3.619188070E0,5.486690998E0,7.277918339E0
2.659033709E1,3.618665695E0,5.487390041E0,7.277651310E0
2.661060620E1,3.618382692E0,5.487908363E0,7.277400970E0
2.663087532E1,3.617714167E0,5.488253593E0,7.277472973E0
2.665114443E1,3.617386103E0,5.488441944E0,7.277493477E0
2.667141355E1,3.616866350E0,5.488750458E0,7.277518749E0
2.669168266E1,3.616355181E0,5.487998962E0,7.278339386E0
2.671195178E1,3.615745306E0,5.486744881E0,7.279588223E0
2.673222089E1,3.615435123E0,5.485291004E0,7.280837536E0
2.675249000E1,3.615198374E0,5.485898495E0,7.280498505E0
2.677275912E1,3.614429951E0,5.486925125E0,7.280106068E0
2.679302823E1,3.613041878E0,5.487078667E0,7.280679703E0
2.681329735E1,3.612370014E0,5.487109661E0,7.280988693E0
2.683356646E1,3.612001181E0,5.486974716E0,7.281272888E0
2.685383552E1,3.611923695E0,5.486903667E0,7.281366348E0
2.687410464E1,3.612724304E0,5.486767292E0,7.281070232E0
2.689437375E1,3.613331318E0,5.486798286E0,7.280746937E0
2.691477375E1,3.613455057E0,5.486902714E0,7.280606747E0
2.693491193E1,3.613424778E0,5.487044334E0,7.280514240E0
2.695518105E1,3.612997293E0,5.486834526E0,7.280884266E0
2.697545016E1,3.612398863E0,5.486193657E0,7.281664371E0
2.699571928E1,3.611834049E0,5.485651970E0,7.282352924E0
2.701611928E1,3.611129999E0,5.486092091E0,7.282370567E0
2.703625745E1,3.610599756E0,5.486730576E0,7.282152653E0
2.705652657E1,3.610737085E0,5.487098694E0,7.281806946E0
2.707679568E1,3.610682726E0,5.486733913E0,7.282108307E0
2.709706474E1,3.609807253E0,5.486221313E0,7.282928944E0
2.711746474E1,3.608277798E0,5.485152721E0,7.284492016E0
2.713760297E1,3.607723713E0,5.483157158E0,7.286267757E0
2.715787204E1,3.608783960E0,5.482151985E0,7.286499500E0
2.717814115E1,3.611139774E0,5.481310368E0,7.285964489E0
2.719841027E1,3.612933636E0,5.480618954E0,7.285596371E0
2.721867933E1,3.613953114E0,5.481756210E0,7.284234524E0
2.723894844E1,3.614521503E0,5.483211040E0,7.282858849E0
2.725921750E1,3.614495277E0,5.483787060E0,7.282437325E0
2.727948662E1,3.614687681E0,5.483860493E0,7.282287121E0
2.729975573E1,3.615082741E0,5.484019756E0,7.281970978E0
2.732002474E1,3.615138769E0,5.484571457E0,7.281527042E0
2.734029391E1,3.615622520E0,5.484418869E0,7.281401157E0
2.736056297E1,3.616019726E0,5.483616352E0,7.281808853E0
2.738083209E1,3.616711140E0,5.482151985E0,7.282567978E0
2.740110115E1,3.617602348E0,5.482527256E0,7.281843185E0
2.742150115E1,3.617758512E0,5.483640194E0,7.280927181E0
2.744163933E1,3.616740704E0,5.484052658E0,7.281122684E0
2.746190844E1,3.615743399E0,5.483438015E0,7.282080650E0
2.748217750E1,3.614753723E0,5.482569695E0,7.283225536E0
2.750244657E1,3.614204407E0,5.482487679E0,7.283559322E0
2.752271568E1,3.614275694E0,5.482708931E0,7.283356667E0
2.754298474E1,3.614700794E0,5.482396126E0,7.283381462E0
2.756325386E1,3.615467072E0,5.481866360E0,7.283400536E0
2.758352292E1,3.616522789E0,5.481987000E0,7.282786369E0
2.760379198E1,3.616762638E0,5.482759953E0,7.282084942E0
2.762406110E1,3.616185904E0,5.483283043E0,7.281977654E0
2.764433016E1,3.615252018E0,5.482951641E0,7.282691002E0
2.766459928E1,3.614923954E0,5.482506752E0,7.283188343E0
2.768486834E1,3.615025282E0,5.482691765E0,7.282998562E0
2.770513740E1,3.614793539E0,5.483926773E0,7.282184601E0
2.772540646E1,3.613545895E0,5.485604286E0,7.281539440E0
2.774567558E1,3.612134933E0,5.486286640E0,7.281725407E0
2.776594464E1,3.612217426E0,5.485481262E0,7.282290936E0
2.778621370E1,3.613610744E0,5.484508991E0,7.282332420E0
2.780648282E1,3.614231348E0,5.484312057E0,7.282173157E0
2.782675188E1,3.613932371E0,5.484813213E0,7.281943798E0
2.784702094E1,3.613751173E0,5.485149860E0,7.281779289E0
2.786729000E1,3.612949133E0,5.484706402E0,7.282512188E0
2.788755912E1,3.612542629E0,5.483701706E0,7.283470154E0
2.790782818E1,3.612451077E0,5.483913422E0,7.283356190E0
2.792809724E1,3.612862110E0,5.484899521E0,7.282408714E0
2.794836631E1,3.612927675E0,5.485591888E0,7.281855106E0
2.796863537E1,3.613420963E0,5.485767841E0,7.281478882E0
2.798890448E1,3.613759041E0,5.485763073E0,7.281315327E0
2.800917355E1,3.613728762E0,5.485971451E0,7.281172276E0
2.802944261E1,3.613900900E0,5.485982895E0,7.281078339E0
2.804971167E1,3.614322186E0,5.485604763E0,7.281153679E0
2.806998073E1,3.616426229E0,5.485738754E0,7.280007839E0
2.809024980E1,3.618206501E0,5.486376762E0,7.278642178E0
2.811051886E1,3.619615078E0,5.486509323E0,7.277842522E0
2.813078797E1,3.620172262E0,5.485964775E0,7.277975082E0
2.815105704E1,3.619930983E0,5.484878063E0,7.278914452E0
2.817132610E1,3.619819403E0,5.484127045E0,7.279535770E0
2.819159516E1,3.619490623E0,5.483851433E0,7.279908180E0
2.821186422E1,3.619218588E0,5.482815742E0,7.280821800E0
2.823213329E1,3.619104862E0,5.482110500E0,7.281409740E0
2.825240235E1,3.619221687E0,5.481847286E0,7.281549454E0
2.827267141E1,3.619895935E0,5.480771542E0,7.282024860E0
2.829294047E1,3.620818377E0,5.479245186E0,7.282714844E0
2.831334047E1,3.621511936E0,5.477281094E0,7.283847332E0
2.833347860E1,3.621707916E0,5.476044655E0,7.284679890E0
2.835374766E1,3.621810436E0,5.474712849E0,7.285630226E0
2.837401672E1,3.621830225E0,5.473095417E0,7.286835194E0
2.839428579E1,3.622319937E0,5.471315384E0,7.287929058E0
2.841468579E1,3.622841597E0,5.469451904E0,7.289066792E0
2.843482391E1,3.623352289E0,5.467833042E0,7.290027618E0
2.845509297E1,3.623109579E0,5.466620445E0,7.291058064E0
2.847536204E1,3.622390032E0,5.465478897E0,7.292271614E0
2.849563110E1,3.622548580E0,5.464072704E0,7.293246746E0
2.851603110E1,3.622862339E0,5.462173939E0,7.294512272E0
2.853616922E1,3.623154402E0,5.460581303E0,7.295558929E0
2.855643829E1,3.623430252E0,5.459127903E0,7.296510696E0
2.857670730E1,3.622547626E0,5.458499432E0,7.297418594E0
2.859697636E1,3.621732950E0,5.457631111E0,7.298472881E0
2.861737636E1,3.621317625E0,5.455772400E0,7.300067425E0
2.863751448E1,3.621351480E0,5.454825878E0,7.300758362E0
2.865791448E1,3.621409893E0,5.454254627E0,7.301156521E0
2.867805261E1,3.621363163E0,5.453148365E0,7.302005291E0
2.869832162E1,3.620768309E0,5.451898575E0,7.303233624E0
2.871872162E1,3.619820356E0,5.449798107E0,7.305272102E0
2.873885974E1,3.619560003E0,5.447629452E0,7.307017803E0
2.875912881E1,3.620119095E0,5.446079731E0,7.307895660E0
2.877939787E1,3.620122671E0,5.445479393E0,7.308341503E0
2.879966688E1,3.620221615E0,5.444991112E0,7.308655739E0
2.881993594E1,3.620496988E0,5.443783283E0,7.309420109E0
2.884020500E1,3.620504379E0,5.442842484E0,7.310115337E0
2.886047402E1,3.619866848E0,5.441757679E0,7.311239719E0
2.888074308E1,3.618905306E0,5.440730095E0,7.312479973E0
2.890101214E1,3.617379427E0,5.440227509E0,7.313607693E0
2.892128115E1,3.615916491E0,5.439558983E0,7.314829826E0
2.894155021E1,3.615845919E0,5.438731670E0,7.315479279E0
2.896181928E1,3.616099358E0,5.437178612E0,7.316509247E0
2.898208834E1,3.615879536E0,5.435870171E0,7.317588806E0
2.900235735E1,3.615041018E0,5.435009480E0,7.318644047E0
2.902262636E1,3.614241362E0,5.434506416E0,7.319412231E0
2.904289547E1,3.612672567E0,5.434300423E0,7.320338726E0
2.906316448E1,3.611269236E0,5.433553696E0,7.321585655E0
2.908343355E1,3.609907866E0,5.432742596E0,7.322858810E0
2.910370261E1,3.609372377E0,5.432337284E0,7.323423862E0
2.912397162E1,3.609903336E0,5.431436062E0,7.323830605E0
2.914424068E1,3.610645533E0,5.431238174E0,7.323611736E0
2.916450969E1,3.610989094E0,5.430792332E0,7.323771954E0
2.918477875E1,3.610700846E0,5.430491447E0,7.324137211E0
2.920504782E1,3.610228777E0,5.429990292E0,7.324741840E0
2.922531683E1,3.609721661E0,5.429913044E0,7.325048923E0
2.924558589E1,3.608739376E0,5.430286884E0,7.325255394E0
2.926585490E1,3.607705355E0,5.430434704E0,7.325655460E0
2.928612396E1,3.606837988E0,5.430919647E0,7.325722694E0
2.930639297E1,3.606871367E0,5.431731224E0,7.325105190E0
2.932666204E1,3.607479811E0,5.432367325E0,7.324334145E0
2.934693105E1,3.608218431E0,5.432322502E0,7.324003696E0
2.936720011E1,3.608788729E0,5.431507587E0,7.324326038E0
2.938746912E1,3.609402180E0,5.430628777E0,7.324675560E0
2.940773818E1,3.609833479E0,5.430408478E0,7.324626923E0
2.942800719E1,3.610293627E0,5.430961609E0,7.323989868E0
2.944827625E1,3.610704660E0,5.431673050E0,7.323259830E0
2.946854527E1,3.611840725E0,5.431966305E0,7.322482109E0
2.948881433E1,3.612773180E0,5.431889057E0,7.322079659E0
2.950908334E1,3.613762617E0,5.432421207E0,7.321194649E0
2.952935240E1,3.614879370E0,5.433025360E0,7.320196152E0
2.954962141E1,3.616075516E0,5.434232712E0,7.318708897E0
2.956989042E1,3.617742300E0,5.436415195E0,7.316264153E0
2.959015948E1,3.618932486E0,5.438465595E0,7.314151764E0
2.961042849E1,3.619550228E0,5.439970016E0,7.312727451E0
2.963069750E1,3.620390177E0,5.441411972E0,7.311237812E0
2.965096657E1,3.621960402E0,5.443192005E0,7.309134483E0
2.967123558E1,3.622529745E0,5.445041656E0,7.307475090E0
2.969150459E1,3.621555567E0,5.446969032E0,7.306521893E0
2.971177365E1,3.620964050E0,5.448918819E0,7.305359840E0
2.973204266E1,3.621267557E0,5.451159954E0,7.303537846E0
2.975231172E1,3.622613668E0,5.452690125E0,7.301727772E0
2.977258073E1,3.624232054E0,5.454747677E0,7.299386978E0
2.979284974E1,3.626017332E0,5.457512379E0,7.296433449E0
2.981311875E1,3.626615763E0,5.460864544E0,7.293627262E0
2.983338782E1,3.626360893E0,5.463693619E0,7.291635513E0
2.985365683E1,3.626512051E0,5.465451717E0,7.290242672E0
2.987392584E1,3.627682447E0,5.467648506E0,7.288012505E0
2.989419490E1,3.629462957E0,5.469818115E0,7.285496712E0
2.991459490E1,3.630056858E0,5.471925259E0,7.283619404E0
2.993473292E1,3.629562140E0,5.474613190E0,7.281845093E0
2.995500193E1,3.629866600E0,5.476560116E0,7.280230045E0
2.997527094E1,3.631617546E0,5.478878021E0,7.277611256E0
2.999554000E1,3.633762360E0,5.482528210E0,7.273791313E0
3.001594000E1,3.634493113E0,5.486803532E0,7.270202160E0
3.003607803E1,3.633769751E0,5.491565228E0,7.266966820E0
3.005634704E1,3.632758141E0,5.495732784E0,7.264322758E0
3.007661605E1,3.632159233E0,5.498603344E0,7.262448788E0
3.009688511E1,3.632165909E0,5.500409126E0,7.261077404E0
3.011728511E1,3.633564711E0,5.502729893E0,7.258619785E0
3.013742313E1,3.635942221E0,5.505043030E0,7.255674839E0
3.015769214E1,3.638890982E0,5.506906033E0,7.252782822E0
3.017796115E1,3.641471386E0,5.508927822E0,7.249951363E0
3.019823016E1,3.642086267E0,5.510857105E0,7.248174667E0
3.021849917E1,3.641609907E0,5.512187004E0,7.247404099E0
3.023876813E1,3.641075850E0,5.513177872E0,7.246917725E0
3.025903724E1,3.641340256E0,5.513091564E0,7.246851921E0
3.027930625E1,3.642354250E0,5.512773514E0,7.246583939E0
3.029957526E1,3.643124580E0,5.512616634E0,7.246315956E0
3.031984428E1,3.642986059E0,5.512856007E0,7.246202946E0
3.034011329E1,3.641557932E0,5.512815952E0,7.246950626E0
3.036038230E1,3.641056538E0,5.511479378E0,7.248220444E0
3.038065131E1,3.640462399E0,5.509221554E0,7.250234127E0
3.040105131E1,3.639407873E0,5.507071972E0,7.252397060E0
3.042111042E1,3.638285637E0,5.505501270E0,7.254151821E0
3.044145797E1,3.637663126E0,5.503839970E0,7.255724430E0
3.046172709E1,3.637936831E0,5.502130508E0,7.256883144E0
3.048199615E1,3.639167547E0,5.500480652E0,7.257516861E0
3.050226521E1,3.641194820E0,5.499086857E0,7.257556915E0
3.052253422E1,3.642938137E0,5.498282909E0,7.257291794E0
3.054280329E1,3.643616199E0,5.497457504E0,7.257575512E0
3.056307230E1,3.643727779E0,5.496001244E0,7.258622646E0
3.058334136E1,3.643311262E0,5.495051384E0,7.259551525E0
3.060361032E1,3.641579151E0,5.494940758E0,7.260503769E0
3.062387938E1,3.640312672E0,5.494822979E0,7.261227608E0
3.064414834E1,3.639737368E0,5.494030952E0,7.262115955E0
3.066441735E1,3.638835192E0,5.493664265E0,7.262845039E0
3.068468636E1,3.638229847E0,5.494974136E0,7.262157440E0
3.070495542E1,3.637431383E0,5.496789932E0,7.261183262E0
3.072522443E1,3.636595488E0,5.497242928E0,7.261259556E0
3.074549344E1,3.635333776E0,5.497731686E0,7.261520863E0
3.076576245E1,3.634177208E0,5.497780323E0,7.262063026E0
3.078603146E1,3.632614136E0,5.497950077E0,7.262715816E0
3.080630042E1,3.631098986E0,5.497734547E0,7.263637066E0
3.082656943E1,3.630896807E0,5.497349262E0,7.264029980E0
3.084683844E1,3.631166458E0,5.496653557E0,7.264421463E0
3.086710745E1,3.631110907E0,5.496390820E0,7.264648438E0
3.088737646E1,3.631081104E0,5.496193886E0,7.264811039E0
3.090764542E1,3.631522894E0,5.495508194E0,7.265109539E0
3.092791443E1,3.631844282E0,5.494753838E0,7.265520096E0
3.094818344E1,3.631669760E0,5.494086742E0,7.266111374E0
3.096845245E1,3.631582260E0,5.493902206E0,7.266294956E0
3.098872146E1,3.631734610E0,5.494482994E0,7.265778542E0
3.100899042E1,3.631394386E0,5.495193958E0,7.265411377E0
3.102925943E1,3.630805254E0,5.495892525E0,7.265176773E0
3.104952844E1,3.630225897E0,5.496559620E0,7.264961720E0
3.106979745E1,3.630366802E0,5.496654510E0,7.264820099E0
3.109006641E1,3.630522013E0,5.495800972E0,7.265388012E0
3.111033542E1,3.629853725E0,5.495333672E0,7.266074657E0
3.113060443E1,3.629327297E0,5.495569706E0,7.266160011E0
3.115087339E1,3.628658295E0,5.495658398E0,7.266427040E0
3.117114240E1,3.627749681E0,5.495484829E0,7.267012119E0
3.119141141E1,3.627065897E0,5.495182991E0,7.267582893E0
3.121168042E1,3.627402544E0,5.494498253E0,7.267931461E0
3.123194938E1,3.628120184E0,5.494080067E0,7.267889977E0
3.125221839E1,3.627966642E0,5.493347168E0,7.268519878E0
3.127248740E1,3.627624750E0,5.492432117E0,7.269382954E0
3.129275636E1,3.627598763E0,5.492511749E0,7.269335270E0
3.131302537E1,3.627864361E0,5.493328571E0,7.268584728E0
3.133329433E1,3.628034830E0,5.493348122E0,7.268485069E0
3.135356334E1,3.628824949E0,5.493133068E0,7.268251896E0
3.137383235E1,3.629009485E0,5.492632389E0,7.268538952E0
3.139410131E1,3.629028559E0,5.491895199E0,7.269086838E0
3.141450131E1,3.629033089E0,5.491145134E0,7.269651413E0
3.143463933E1,3.629491806E0,5.490634918E0,7.269808769E0
3.145490829E1,3.629716873E0,5.490608215E0,7.269715786E0
3.147517730E1,3.629654646E0,5.490719795E0,7.269661903E0
3.149544625E1,3.629846334E0,5.490389824E0,7.269815445E0
3.151584625E1,3.630348682E0,5.489666462E0,7.270110607E0
3.153598422E1,3.631208420E0,5.489302158E0,7.269957542E0
3.155625323E1,3.632051945E0,5.488707542E0,7.269984722E0
3.157652224E1,3.632225752E0,5.488379478E0,7.270145893E0
3.159679120E1,3.632201195E0,5.488740444E0,7.269885063E0
3.161719120E1,3.632333517E0,5.488848686E0,7.269736767E0
3.163732917E1,3.632579327E0,5.488406658E0,7.269948483E0
3.165759813E1,3.633614063E0,5.488637447E0,7.269257069E0
3.167786714E1,3.634662867E0,5.489333153E0,7.268207073E0
3.169813610E1,3.634967566E0,5.490628719E0,7.267076492E0
3.171853610E1,3.634651661E0,5.491666794E0,7.266449928E0
3.173867407E1,3.634361744E0,5.492394447E0,7.266045570E0
3.175894302E1,3.634439707E0,5.493752480E0,7.264978886E0
3.177921204E1,3.634898663E0,5.494875908E0,7.263899326E0
3.179961204E1,3.635327101E0,5.496243477E0,7.262650013E0
3.181975000E1,3.635162354E0,5.497728348E0,7.261608124E0
3.184001896E1,3.634561539E0,5.499068260E0,7.260895729E0
3.186028797E1,3.633586645E0,5.499452591E0,7.261092186E0
3.188055693E1,3.632198334E0,5.499051094E0,7.262090206E0
3.190082589E1,3.630669832E0,5.497797489E0,7.263803959E0
3.192109490E1,3.629575729E0,5.497002125E0,7.264952660E0
3.194136386E1,3.628038645E0,5.496725082E0,7.265929699E0
3.196163287E1,3.626148701E0,5.496055126E0,7.267379761E0
3.198190183E1,3.624233723E0,5.494414330E0,7.269575596E0
3.200217079E1,3.623618364E0,5.492955685E0,7.270984650E0
3.202243974E1,3.623178720E0,5.493171215E0,7.271040440E0
3.204270875E1,3.622730017E0,5.493792057E0,7.270794868E0
3.206297771E1,3.622500658E0,5.494917393E0,7.270058632E0
3.208324667E1,3.622593403E0,5.496348381E0,7.268930912E0
3.210351568E1,3.622887611E0,5.497427940E0,7.267967224E0
3.212378464E1,3.623941422E0,5.497490883E0,7.267394543E0
3.214405360E1,3.624771595E0,5.496863842E0,7.267454624E0
3.216432261E1,3.625787497E0,5.496283531E0,7.267387390E0
3.218459157E1,3.625778913E0,5.496461868E0,7.267257214E0
3.220486052E1,3.624858379E0,5.496565342E0,7.267637253E0
3.222512948E1,3.624067307E0,5.495177746E0,7.269082069E0
3.224539849E1,3.622720480E0,5.493509769E0,7.271013260E0
3.226566745E1,3.620462656E0,5.492427826E0,7.272955894E0
3.228593641E1,3.618168354E0,5.492730141E0,7.273868561E0
3.230620537E1,3.615985394E0,5.492847919E0,7.274864674E0
3.232647433E1,3.614841461E0,5.491022587E0,7.276811123E0
3.234674334E1,3.615252733E0,5.488208294E0,7.278729439E0
3.236701230E1,3.616143465E0,5.486450195E0,7.279612064E0
3.238728125E1,3.616520882E0,5.486538887E0,7.279358387E0
3.240755021E1,3.618030548E0,5.486214638E0,7.278852463E0
3.242781917E1,3.620778799E0,5.485569000E0,7.277971745E0
3.244808818E1,3.623734236E0,5.485142231E0,7.276822090E0
3.246835714E1,3.625797987E0,5.485699654E0,7.275374413E0
3.248862610E1,3.626268148E0,5.486374855E0,7.274631023E0
3.250889506E1,3.626598120E0,5.486266136E0,7.274549007E0
3.252916402E1,3.627452850E0,5.485241413E0,7.274894714E0
3.254943297E1,3.628963470E0,5.483748436E0,7.275268078E0
3.256970198E1,3.630164385E0,5.483297825E0,7.275008202E0
3.258997094E1,3.631517649E0,5.483402729E0,7.274252892E0
3.261023990E1,3.632787228E0,5.483371258E0,7.273643494E0
3.263050886E1,3.633394241E0,5.483192444E0,7.273474216E0
3.265077782E1,3.633792400E0,5.482596874E0,7.273724079E0
3.267104678E1,3.633962870E0,5.481501102E0,7.274466038E0
3.269131573E1,3.633831024E0,5.480293751E0,7.275440693E0
3.271158469E1,3.634328365E0,5.479681015E0,7.275653839E0
3.273185365E1,3.635772943E0,5.479967594E0,7.274715900E0
3.275212266E1,3.637562275E0,5.480165005E0,7.273672581E0
3.277239157E1,3.638827562E0,5.479901791E0,7.273238659E0
3.279266052E1,3.639726162E0,5.478974342E0,7.273487091E0
3.281292954E1,3.639758110E0,5.477596760E0,7.274508953E0
3.283319849E1,3.641210318E0,5.475999832E0,7.274984360E0
3.285346745E1,3.642708302E0,5.475687027E0,7.274470806E0
3.287373641E1,3.642917871E0,5.477223873E0,7.273207188E0
3.289400537E1,3.641599417E0,5.479422092E0,7.272212505E0
3.291440537E1,3.639611244E0,5.480947018E0,7.272058487E0
3.293454329E1,3.638252497E0,5.480996609E0,7.272701740E0
3.295481219E1,3.637805700E0,5.480374813E0,7.273393631E0
3.297508115E1,3.637387991E0,5.480123520E0,7.273791790E0
3.299535011E1,3.636766434E0,5.480102539E0,7.274117947E0
3.301575011E1,3.635598898E0,5.479944229E0,7.274820805E0
3.303588803E1,3.634844303E0,5.478766441E0,7.276085854E0
3.305615698E1,3.634977818E0,5.477181435E0,7.277211666E0
3.307655698E1,3.635177374E0,5.475621223E0,7.278285503E0
3.309669490E1,3.635630608E0,5.473985195E0,7.279289722E0
3.311709490E1,3.636651754E0,5.472525597E0,7.279877663E0
3.313723276E1,3.636665821E0,5.471181870E0,7.280880451E0
3.315750178E1,3.635960579E0,5.469516754E0,7.282482624E0
3.317777068E1,3.635359287E0,5.466720581E0,7.284882069E0
3.319803964E1,3.634135485E0,5.463657379E0,7.287789822E0
3.321830860E1,3.632462978E0,5.462027073E0,7.289846420E0
3.323857756E1,3.631061792E0,5.461521626E0,7.290923119E0
3.325884652E1,3.629442215E0,5.460331440E0,7.292622089E0
3.327911547E1,3.628005743E0,5.458647251E0,7.294596195E0
3.329938443E1,3.626655340E0,5.456498146E0,7.296874046E0
3.331965334E1,3.626096725E0,5.453791142E0,7.299175739E0
3.333992230E1,3.625968218E0,5.451092720E0,7.301254749E0
3.336019125E1,3.626323938E0,5.448717594E0,7.302852154E0
3.338046021E1,3.626046419E0,5.447912693E0,7.303589344E0
3.340072917E1,3.625195980E0,5.447442055E0,7.304362774E0
3.342112917E1,3.624594688E0,5.446871758E0,7.305087090E0
3.344126704E1,3.624565840E0,5.445127010E0,7.306400776E0
3.346153599E1,3.624776363E0,5.443004131E0,7.307879448E0
3.348180495E1,3.625000000E0,5.441127777E0,7.309163570E0
3.350207391E1,3.624674082E0,5.440256596E0,7.309975147E0
3.352234287E1,3.624818087E0,5.439200878E0,7.310689449E0
3.354261178E1,3.625583410E0,5.437797546E0,7.311354160E0
3.356288073E1,3.625995398E0,5.436860561E0,7.311845303E0
3.358314969E1,3.626120567E0,5.435822487E0,7.312555790E0
3.360341865E1,3.626089334E0,5.434931755E0,7.313232899E0
3.362368756E1,3.625403643E0,5.434288025E0,7.314052105E0
3.364395652E1,3.623877048E0,5.432775974E0,7.315931797E0
3.366422547E1,3.622733593E0,5.431295872E0,7.317596436E0
3.368449443E1,3.622719288E0,5.430026054E0,7.318545341E0
3.370476334E1,3.622875929E0,5.428430080E0,7.319651127E0
3.372503230E1,3.621951103E0,5.427422523E0,7.320857048E0
3.374530125E1,3.621509314E0,5.427042007E0,7.321356297E0
3.376557016E1,3.621050596E0,5.426543713E0,7.321953773E0
3.378583912E1,3.620782614E0,5.425755501E0,7.322669983E0
3.380610808E1,3.620818853E0,5.424870491E0,7.323307514E0
3.382637704E1,3.621176004E0,5.423543930E0,7.324113846E0
3.384664594E1,3.621758938E0,5.422147751E0,7.324858665E0
3.386691490E1,3.622415543E0,5.421400547E0,7.325087547E0
3.388718386E1,3.622420788E0,5.421257496E0,7.325191021E0
3.390758386E1,3.621871233E0,5.420944691E0,7.325695038E0
3.392772172E1,3.621564865E0,5.420209885E0,7.326389790E0
3.394799068E1,3.621194363E0,5.419472218E0,7.327118397E0
3.396825959E1,3.621266127E0,5.418756008E0,7.327612400E0
3.398852855E1,3.621363878E0,5.419271469E0,7.327183247E0
3.400879750E1,3.621939182E0,5.420019150E0,7.326344967E0
3.402906641E1,3.622818947E0,5.420634270E0,7.325455666E0
3.404933537E1,3.623834610E0,5.421311378E0,7.324452400E0
3.406960428E1,3.624702692E0,5.421461105E0,7.323911667E0
3.408987323E1,3.624830484E0,5.421579361E0,7.323760509E0
3.411014219E1,3.625179529E0,5.422438622E0,7.322950363E0
3.413041110E1,3.626026154E0,5.423730850E0,7.321574211E0
3.415068006E1,3.626901150E0,5.425491810E0,7.319837093E0
3.417094896E1,3.626960278E0,5.428101540E0,7.317873001E0
3.419121792E1,3.626565456E0,5.430968761E0,7.315940380E0
3.421148688E1,3.626140594E0,5.434171677E0,7.313771725E0
3.423175579E1,3.626265526E0,5.436516285E0,7.311967373E0
3.425202474E1,3.627785921E0,5.438599110E0,7.309664249E0
3.427229365E1,3.629182816E0,5.440880775E0,7.307272911E0
3.429256261E1,3.629602432E0,5.443970203E0,7.304762363E0
3.431283146E1,3.630483627E0,5.447350025E0,7.301803589E0
3.433310047E1,3.631168604E0,5.450375080E0,7.299206257E0
3.435336938E1,3.632287025E0,5.453103542E0,7.296610832E0
3.437363834E1,3.633822918E0,5.455530643E0,7.294032097E0
3.439390730E1,3.635634661E0,5.458582878E0,7.290845871E0
3.441430730E1,3.638267517E0,5.462796211E0,7.286374569E0
3.443444511E1,3.641295433E0,5.468407154E0,7.280650616E0
3.445471407E1,3.643809557E0,5.474706650E0,7.274655819E0
3.447498297E1,3.644626379E0,5.480148315E0,7.270148754E0
3.449525193E1,3.643389940E0,5.484361649E0,7.267591000E0
3.451565193E1,3.641640425E0,5.487627983E0,7.266002655E0
3.453578980E1,3.640140295E0,5.489454269E0,7.265373707E0
3.455605875E1,3.638773441E0,5.490608692E0,7.265185833E0
3.457632766E1,3.637549162E0,5.490450382E0,7.265919685E0
3.459659657E1,3.636329889E0,5.489180088E0,7.267488956E0
3.461699657E1,3.635462523E0,5.487438202E0,7.269238472E0
3.463713443E1,3.635391235E0,5.486235142E0,7.270182610E0
3.465740339E1,3.635185719E0,5.485344887E0,7.270956516E0
3.467767230E1,3.635380745E0,5.484915733E0,7.271182060E0
3.469794125E1,3.636040926E0,5.484643459E0,7.271058083E0
3.471834125E1,3.637111425E0,5.483720303E0,7.271218777E0
3.473847912E1,3.638089180E0,5.482972145E0,7.271293640E0
3.475874802E1,3.639831543E0,5.481956005E0,7.271188259E0
3.477901693E1,3.642344236E0,5.481449604E0,7.270310879E0
3.479928589E1,3.645862103E0,5.482141972E0,7.268025875E0
3.481955480E1,3.650568724E0,5.483588219E0,7.264570236E0
3.483982370E1,3.656103134E0,5.487254620E0,7.259016991E0
3.486009266E1,3.662535429E0,5.492140293E0,7.252076626E0
3.488036157E1,3.667675018E0,5.497426987E0,7.245471478E0
3.490063053E1,3.672371387E0,5.501637936E0,7.239893913E0
3.492089943E1,3.676412344E0,5.504528522E0,7.235644341E0
3.494116834E1,3.679612160E0,5.506696224E0,7.232367516E0
3.496143730E1,3.680966616E0,5.509682178E0,7.229403973E0
3.498170620E1,3.680924177E0,5.512634277E0,7.227173805E0
3.500197506E1,3.678261757E0,5.515233994E0,7.226546764E0
3.502224407E1,3.675036907E0,5.516495228E0,7.227225304E0
3.504251297E1,3.671987057E0,5.516534328E0,7.228745461E0
3.506278188E1,3.670117140E0,5.516654968E0,7.229601860E0
3.508305084E1,3.669010401E0,5.517464638E0,7.229545593E0
3.510331974E1,3.667953968E0,5.517786026E0,7.229836464E0
3.512371974E1,3.667396069E0,5.517693520E0,7.230190754E0
3.514385756E1,3.667341709E0,5.517920017E0,7.230044365E0
3.516412652E1,3.667303801E0,5.517687798E0,7.230240822E0
3.518439542E1,3.668743372E0,5.516093254E0,7.230728149E0
3.520466433E1,3.670273781E0,5.515134335E0,7.230682373E0
3.522493329E1,3.671191931E0,5.514947891E0,7.230359554E0
3.524520219E1,3.671951056E0,5.515602112E0,7.229474068E0
3.526547110E1,3.673275232E0,5.516119480E0,7.228407860E0
3.528574000E1,3.675827026E0,5.516035557E0,7.227173805E0
3.530600896E1,3.677681923E0,5.515361309E0,7.226744175E0
3.532627787E1,3.679087162E0,5.514226913E0,7.226894379E0
3.534654678E1,3.680837631E0,5.512165070E0,7.227575779E0
3.536681573E1,3.682780504E0,5.510065556E0,7.228187084E0
3.538708464E1,3.683686018E0,5.507766724E0,7.229478359E0
3.540735355E1,3.683372259E0,5.505121708E0,7.231651783E0
3.542762245E1,3.682430267E0,5.502391338E0,7.234209061E0
3.544789141E1,3.680997133E0,5.499780178E0,7.236924171E0
3.546816032E1,3.679588556E0,5.497106552E0,7.239671230E0
3.548842922E1,3.678553343E0,5.494633675E0,7.242074013E0
3.550869813E1,3.678071022E0,5.492159843E0,7.244195461E0
3.552896709E1,3.677937508E0,5.489951134E0,7.245936394E0
3.554923599E1,3.677923918E0,5.487759590E0,7.247603893E0
3.556950490E1,3.678133488E0,5.485820293E0,7.248966217E0
3.558977375E1,3.678569317E0,5.484666824E0,7.249616146E0
3.561004271E1,3.678666115E0,5.484099865E0,7.249997139E0
3.563031167E1,3.679143667E0,5.483248711E0,7.250397682E0
3.565058058E1,3.679839134E0,5.482860088E0,7.250339508E0
3.567084948E1,3.679851532E0,5.482377529E0,7.250697136E0
3.569111839E1,3.679157019E0,5.482358932E0,7.251064301E0
3.571138730E1,3.678590775E0,5.481804371E0,7.251770496E0
3.573165620E1,3.678195715E0,5.480588913E0,7.252889156E0
3.575192506E1,3.676997423E0,5.480958462E0,7.253218174E0
3.577219407E1,3.675930262E0,5.482242107E0,7.252789497E0
3.579246297E1,3.675341845E0,5.483147621E0,7.252401829E0
3.581273188E1,3.674207687E0,5.483833313E0,7.252458572E0
3.583300079E1,3.673374176E0,5.484421730E0,7.252436638E0
3.585326969E1,3.672703028E0,5.485094547E0,7.252267361E0
3.587353860E1,3.672847986E0,5.485751629E0,7.251696587E0
3.589380750E1,3.673708916E0,5.486813068E0,7.250457287E0
3.591420750E1,3.674077988E0,5.488570690E0,7.248940468E0
3.593434631E1,3.673405409E0,5.490037918E0,7.248169422E0
3.595461506E1,3.672806025E0,5.490417957E0,7.248185158E0
3.597488381E1,3.673479795E0,5.489439964E0,7.248585701E0
3.599515256E1,3.675099134E0,5.489013672E0,7.248086452E0
3.601555256E1,3.676328182E0,5.489630222E0,7.246996403E0
3.603569032E1,3.676825523E0,5.490877151E0,7.245799541E0
3.605595907E1,3.676734686E0,5.492637157E0,7.244510651E0
3.607622797E1,3.676131248E0,5.493611813E0,7.244078636E0
3.609649678E1,3.675443649E0,5.493991852E0,7.244139671E0
3.611689678E1,3.675328016E0,5.494056225E0,7.244149208E0
3.613703454E1,3.675538540E0,5.494996548E0,7.243329048E0
3.615730344E1,3.676382303E0,5.495923519E0,7.242197514E0
3.617757230E1,3.676536322E0,5.495670795E0,7.242311478E0
3.619784120E1,3.675744057E0,5.494994164E0,7.243226528E0
3.621811011E1,3.674325466E0,5.495744705E0,7.243377209E0
3.623837902E1,3.672889233E0,5.496593952E0,7.243461132E0
3.625864792E1,3.672216415E0,5.496159554E0,7.244131565E0
3.627891683E1,3.671594858E0,5.495565414E0,7.244896889E0
3.629918573E1,3.672013283E0,5.494554520E0,7.245451927E0
3.631958573E1,3.672626734E0,5.494770527E0,7.244977474E0
3.633972349E1,3.672449589E0,5.495289326E0,7.244673729E0
3.635999240E1,3.671915293E0,5.495328426E0,7.244914532E0
3.638026125E1,3.671281338E0,5.494776249E0,7.245654583E0
3.640053016E1,3.670478821E0,5.493958950E0,7.246681213E0
3.642093016E1,3.669591665E0,5.492898464E0,7.247934818E0
3.644106797E1,3.668246508E0,5.492835045E0,7.248662949E0
3.646133688E1,3.667284250E0,5.492484093E0,7.249415398E0
3.648160579E1,3.667071342E0,5.491886616E0,7.249976158E0
3.650187469E1,3.666831493E0,5.491241455E0,7.250586510E0
3.652227469E1,3.666719437E0,5.490308285E0,7.251348972E0
3.654241250E1,3.666808605E0,5.489902973E0,7.251610756E0
3.656268141E1,3.666205168E0,5.489785671E0,7.252005100E0
3.658295032E1,3.665705919E0,5.489629745E0,7.252376556E0
3.660321922E1,3.665494919E0,5.489497662E0,7.252582550E0
3.662348813E1,3.665137529E0,5.489157677E0,7.253021240E0
3.664375704E1,3.664616823E0,5.488936901E0,7.253450394E0
3.666402594E1,3.664353132E0,5.489172459E0,7.253406048E0
3.668429485E1,3.663559198E0,5.488946438E0,7.253976822E0
3.670456375E1,3.662663698E0,5.488661766E0,7.254644871E0
3.672483266E1,3.661748648E0,5.487486839E0,7.255995750E0
3.674523266E1,3.661170721E0,5.486168385E0,7.257284641E0
3.676537047E1,3.661099911E0,5.484920979E0,7.258263111E0
3.678563938E1,3.661561489E0,5.484273434E0,7.258519650E0
3.680590829E1,3.662374258E0,5.484244347E0,7.258130074E0
3.682617719E1,3.662165165E0,5.483974457E0,7.258440018E0
3.684644610E1,3.661742449E0,5.483760357E0,7.258814812E0
3.686671495E1,3.661714315E0,5.483674049E0,7.258894920E0
3.688698391E1,3.662216187E0,5.483519077E0,7.258759022E0
3.690725276E1,3.663369179E0,5.484146118E0,7.257702827E0
3.692752172E1,3.663799524E0,5.485011101E0,7.256832600E0
3.694779058E1,3.664440870E0,5.485000610E0,7.256515980E0
3.696805948E1,3.666010618E0,5.483900547E0,7.256555080E0
3.698832839E1,3.667340994E0,5.482341290E0,7.257061481E0
3.700859730E1,3.668651342E0,5.482253075E0,7.256465912E0
3.702886620E1,3.668701410E0,5.483602524E0,7.255420685E0
3.704913511E1,3.668550491E0,5.483717442E0,7.255410194E0
3.706940402E1,3.667864084E0,5.482594967E0,7.256604671E0
3.708967292E1,3.667263508E0,5.481445312E0,7.257776260E0
3.710994183E1,3.666827202E0,5.481384277E0,7.258043766E0
3.713021073E1,3.667085648E0,5.481790543E0,7.257606030E0
3.715047964E1,3.667442083E0,5.482461929E0,7.256918430E0
3.717074855E1,3.668331146E0,5.483128071E0,7.255967140E0
3.719101740E1,3.668725491E0,5.483664036E0,7.255361557E0
3.721128631E1,3.668571949E0,5.483500957E0,7.255562305E0
3.723155521E1,3.667430401E0,5.482598782E0,7.256821632E0
3.725182412E1,3.665685892E0,5.481409550E0,7.258600712E0
3.727209303E1,3.664983273E0,5.480598927E0,7.259567261E0
3.729236193E1,3.664885283E0,5.480839252E0,7.259435177E0
3.731263079E1,3.664999962E0,5.481323719E0,7.259012699E0
3.733289969E1,3.664963007E0,5.482006073E0,7.258515358E0
3.735316860E1,3.664561510E0,5.483101368E0,7.257890224E0
3.737343750E1,3.664430618E0,5.484252453E0,7.257087231E0
3.739370641E1,3.665344000E0,5.484682083E0,7.256301403E0
3.741410641E1,3.665343046E0,5.484926224E0,7.256116390E0
3.743424417E1,3.663597345E0,5.484878540E0,7.257034302E0
3.745451313E1,3.661580324E0,5.484558105E0,7.258295536E0
3.747478204E1,3.660469294E0,5.484335899E0,7.259022713E0
3.749505089E1,3.660680294E0,5.483986855E0,7.259179115E0
3.751545089E1,3.660648346E0,5.484141350E0,7.259079456E0
3.753558870E1,3.660334110E0,5.484392643E0,7.259048939E0
3.755585761E1,3.660455942E0,5.484335899E0,7.259029865E0
3.757625761E1,3.660247087E0,5.483652115E0,7.259651184E0
3.759639542E1,3.659998655E0,5.481629848E0,7.261303425E0
3.761679542E1,3.659073830E0,5.479825497E0,7.263132572E0
3.763693323E1,3.658566713E0,5.479232788E0,7.263834000E0
3.765720209E1,3.658548355E0,5.479852676E0,7.263375759E0
3.767747099E1,3.658893585E0,5.480470657E0,7.262735367E0
3.769773985E1,3.659449339E0,5.480526447E0,7.262413979E0
3.771813985E1,3.659728050E0,5.479381084E0,7.263137341E0
3.773827771E1,3.659914494E0,5.478466988E0,7.263733864E0
3.775854662E1,3.660559416E0,5.478272915E0,7.263554573E0
3.777881552E1,3.661226511E0,5.478288174E0,7.263206482E0
3.779908443E1,3.661448240E0,5.478384972E0,7.263020992E0
3.781935334E1,3.661554337E0,5.478812218E0,7.262645721E0
3.783962219E1,3.662095785E0,5.478612900E0,7.262523651E0
3.785989110E1,3.662781000E0,5.477798939E0,7.262791634E0
3.788016000E1,3.663359880E0,5.476950169E0,7.263139248E0
3.790042886E1,3.663010836E0,5.476653576E0,7.263538837E0
3.792082886E1,3.661753178E0,5.477150917E0,7.263798714E0
3.794096672E1,3.661231041E0,5.477315903E0,7.263937473E0
3.796123563E1,3.661546707E0,5.477180481E0,7.263880253E0
3.798163563E1,3.661346197E0,5.477314949E0,7.263880253E0
3.800177339E1,3.661387205E0,5.477303505E0,7.263868332E0
3.802204230E1,3.662495613E0,5.477019310E0,7.263523579E0
3.804231120E1,3.662810326E0,5.477922916E0,7.262681961E0
3.806258011E1,3.661021471E0,5.479054451E0,7.262732029E0
3.808284902E1,3.659374237E0,5.479943275E0,7.262892246E0
3.810311792E1,3.660603046E0,5.479938984E0,7.262274265E0
3.812338683E1,3.663305998E0,5.479708672E0,7.261085987E0
3.814365573E1,3.664405346E0,5.480993271E0,7.259562492E0
3.816392464E1,3.664496422E0,5.482372284E0,7.258474827E0
3.818419355E1,3.664589405E0,5.483058929E0,7.257908344E0
3.820446240E1,3.664643764E0,5.482398987E0,7.258378983E0
3.822473125E1,3.664149761E0,5.481674671E0,7.259176254E0
3.824500021E1,3.663342237E0,5.481913567E0,7.259403229E0
3.826526912E1,3.663161755E0,5.483581543E0,7.258234024E0
3.828553802E1,3.663966417E0,5.485053539E0,7.256716251E0
3.830580693E1,3.665107965E0,5.484861851E0,7.256285191E0
3.832607584E1,3.664846659E0,5.484074593E0,7.257010937E0
3.834634469E1,3.662877560E0,5.483037472E0,7.258788586E0
3.836661360E1,3.661217451E0,5.481478214E0,7.260802746E0
3.838688250E1,3.661075592E0,5.480010986E0,7.261981964E0
3.840715141E1,3.662438393E0,5.478876114E0,7.262152195E0
3.842742032E1,3.664018631E0,5.479033947E0,7.261235714E0
3.844768922E1,3.665273190E0,5.479583740E0,7.260187626E0
3.846795813E1,3.666289568E0,5.478742123E0,7.260310173E0
3.848822698E1,3.667059422E0,5.477194309E0,7.261088848E0
3.850849589E1,3.668316126E0,5.476590633E0,7.260909081E0
3.852876480E1,3.671209812E0,5.477445602E0,7.258800983E0
3.854903370E1,3.673721313E0,5.479166031E0,7.256231308E0
3.856930256E1,3.674508810E0,5.481155872E0,7.254330158E0
3.858957152E1,3.672873974E0,5.482546806E0,7.254106998E0
3.860984042E1,3.670346022E0,5.482813835E0,7.255184174E0
3.863010933E1,3.669007778E0,5.481967926E0,7.256500721E0
3.865037818E1,3.668813467E0,5.480911732E0,7.257396698E0
3.867064709E1,3.667157173E0,5.480879784E0,7.258257389E0
3.869091599E1,3.664804220E0,5.481491089E0,7.258984089E0
3.871118490E1,3.663397789E0,5.482080936E0,7.259248257E0
3.873145381E1,3.663646221E0,5.482583046E0,7.258743763E0
3.875172271E1,3.664284229E0,5.482914925E0,7.258171558E0
3.877199157E1,3.663839817E0,5.483409882E0,7.258022785E0
3.879226047E1,3.662973881E0,5.484503746E0,7.257632732E0
3.881252938E1,3.661560535E0,5.485317707E0,7.257730484E0
3.883279829E1,3.661023855E0,5.485848904E0,7.257599354E0
3.885319829E1,3.660184860E0,5.485085487E0,7.258600235E0
3.887333610E1,3.658651352E0,5.484226227E0,7.260021687E0
3.889360495E1,3.657627821E0,5.485043049E0,7.259920597E0
3.891400495E1,3.656712532E0,5.486673355E0,7.259150982E0
3.893414277E1,3.654299736E0,5.487859249E0,7.259469032E0
3.895441167E1,3.650484085E0,5.487982750E0,7.261294365E0
3.897468058E1,3.647608757E0,5.487379551E0,7.263195515E0
3.899494943E1,3.646198034E0,5.486192703E0,7.264799595E0
3.901534943E1,3.644656897E0,5.485838413E0,7.265839577E0
3.903548724E1,3.642289400E0,5.486679077E0,7.266393185E0
3.905575610E1,3.639168262E0,5.487287998E0,7.267497540E0
3.907602495E1,3.634665251E0,5.486274719E0,7.270514965E0
3.909629391E1,3.630673409E0,5.483870029E0,7.274322987E0
3.911669391E1,3.628234148E0,5.480659962E0,7.277958393E0
3.913683172E1,3.627382040E0,5.478167057E0,7.280258656E0
3.915710063E1,3.627503157E0,5.476480484E0,7.281466961E0
3.917736948E1,3.627172470E0,5.475416183E0,7.282432556E0
3.919763849E1,3.626302958E0,5.473985672E0,7.283940315E0
3.921782870E1,3.625276089E0,5.472350597E0,7.285680771E0
3.923817610E1,3.625313520E0,5.469920158E0,7.287487030E0
3.925844495E1,3.626781702E0,5.467519760E0,7.288557053E0
3.927871391E1,3.629603386E0,5.466482162E0,7.287930489E0
3.929898282E1,3.632033587E0,5.467879772E0,7.285672665E0
3.931938282E1,3.633969307E0,5.470052242E0,7.283074856E0
3.933952058E1,3.634054422E0,5.472818851E0,7.280953407E0
3.935978948E1,3.634225845E0,5.474591255E0,7.279535770E0
3.938005839E1,3.635417461E0,5.476087093E0,7.277814865E0
3.940032730E1,3.638264418E0,5.477301121E0,7.275479317E0
3.942072730E1,3.641095400E0,5.478118420E0,7.273447037E0
3.944086511E1,3.643515110E0,5.479010582E0,7.271563530E0
3.946113402E1,3.644407988E0,5.479748726E0,7.270559311E0
3.948140287E1,3.643031836E0,5.479035854E0,7.271786213E0
3.950167178E1,3.639912605E0,5.477405548E0,7.274575233E0
3.952194068E1,3.635537386E0,5.475577831E0,7.278139114E0
3.954220959E1,3.631641150E0,5.473278522E0,7.281812191E0
3.956247844E1,3.629005432E0,5.470948219E0,7.284877777E0
3.958274735E1,3.627825260E0,5.469285011E0,7.286712646E0
3.960301625E1,3.626150370E0,5.467913628E0,7.288575649E0
3.962328516E1,3.624352932E0,5.466029167E0,7.290884018E0
3.964355402E1,3.623261452E0,5.463506699E0,7.293315887E0
3.966382292E1,3.623547316E0,5.460269451E0,7.295598984E0
3.968409183E1,3.626233816E0,5.457565784E0,7.296285629E0
3.970436068E1,3.626573086E0,5.458545685E0,7.295384884E0
3.972462959E1,3.625430822E0,5.461703300E0,7.293588638E0
3.974489849E1,3.626404762E0,5.463390350E0,7.291841507E0
3.976516740E1,3.631152868E0,5.462822437E0,7.289903164E0
3.978543625E1,3.637367249E0,5.462826252E0,7.286801338E0
3.980570516E1,3.638241053E0,5.465556145E0,7.284317493E0
3.982597402E1,3.635539055E0,5.467810631E0,7.283975124E0
3.984624292E1,3.634385109E0,5.467379570E0,7.284873962E0
3.986651183E1,3.635531902E0,5.465411186E0,7.285779476E0
3.988678073E1,3.638273716E0,5.463466644E0,7.285868645E0
3.990704959E1,3.639156818E0,5.463379860E0,7.285491943E0
3.992731849E1,3.636656523E0,5.464510918E0,7.285893440E0
3.994758740E1,3.633603334E0,5.462799549E0,7.288698673E0
3.996785625E1,3.633790493E0,5.458569050E0,7.291774750E0
3.998812516E1,3.636717081E0,5.454802513E0,7.293133736E0
4.000839407E1,3.639392376E0,5.452280045E0,7.293684959E0
4.002866292E1,3.638971567E0,5.451062679E0,7.294805527E0
4.004893183E1,3.636698484E0,5.448959351E0,7.297509670E0
4.006920063E1,3.635241508E0,5.445740223E0,7.300639153E0
4.008946959E1,3.635680199E0,5.442517757E0,7.302821636E0
4.010973849E1,3.637303829E0,5.439133644E0,7.304534912E0
4.013000735E1,3.638284445E0,5.436781883E0,7.305797100E0
4.015027625E1,3.638106585E0,5.436192513E0,7.306324482E0
4.017054516E1,3.636156321E0,5.435946465E0,7.307478428E0
4.019081402E1,3.633259296E0,5.434757710E0,7.309803486E0
4.021108292E1,3.630887508E0,5.432343006E0,7.312775135E0
4.023135183E1,3.630618334E0,5.428572655E0,7.315708160E0
4.025162068E1,3.632541418E0,5.424830437E0,7.317529678E0
4.027188959E1,3.634385347E0,5.422720909E0,7.318177700E0
4.029215844E1,3.635304451E0,5.421787262E0,7.318414211E0
4.031242735E1,3.635493517E0,5.421173573E0,7.318773746E0
4.033269625E1,3.636126995E0,5.420941830E0,7.318631172E0
4.035296511E1,3.635379076E0,5.420862675E0,7.319061279E0
4.037323402E1,3.635127306E0,5.420673370E0,7.319325924E0
4.039350287E1,3.636539221E0,5.420721531E0,7.318589687E0
4.041390287E1,3.637466669E0,5.421315670E0,7.317687511E0
4.043404063E1,3.636608124E0,5.422001839E0,7.317605495E0
4.045430948E1,3.634388685E0,5.422163963E0,7.318589211E0
4.047457839E1,3.633415699E0,5.422020912E0,7.319178104E0
4.049484730E1,3.633045435E0,5.421334267E0,7.319869518E0
4.051524730E1,3.631653786E0,5.421320915E0,7.320570946E0
4.053538506E1,3.630450249E0,5.421987534E0,7.320674419E0
4.055565391E1,3.629404068E0,5.422625065E0,7.320719719E0
4.057592282E1,3.627958059E0,5.423244953E0,7.320977688E0
4.059619167E1,3.627383232E0,5.424201965E0,7.320554733E0
4.061659167E1,3.628016710E0,5.424942493E0,7.319690704E0
4.063672943E1,3.629137754E0,5.426186085E0,7.318213463E0
4.065699834E1,3.630108118E0,5.428975105E0,7.315662861E0
4.067726719E1,3.631285191E0,5.432841301E0,7.312208652E0
4.069753610E1,3.631574631E0,5.436428547E0,7.309398651E0
4.071793610E1,3.631477356E0,5.438442707E0,7.307947159E0
4.073807381E1,3.630966187E0,5.439203739E0,7.307636261E0
4.075834271E1,3.630731344E0,5.439517498E0,7.307518959E0
4.077861162E1,3.630283594E0,5.440606594E0,7.306930065E0
4.079888047E1,3.630075216E0,5.441863060E0,7.306098461E0
4.081914933E1,3.630636692E0,5.442461014E0,7.305372715E0
4.083941823E1,3.632329226E0,5.442738056E0,7.304326057E0
4.085968709E1,3.634683132E0,5.442912102E0,7.303025246E0
4.087995594E1,3.637102365E0,5.444092751E0,7.300940990E0
4.090022485E1,3.638796568E0,5.446664810E0,7.298177242E0
4.092049370E1,3.639269590E0,5.449328899E0,7.295952797E0
4.094076256E1,3.638146639E0,5.451078415E0,7.295204639E0
4.096103146E1,3.636780262E0,5.452333927E0,7.294948101E0
4.098130032E1,3.636069059E0,5.452677250E0,7.295045853E0
4.100156917E1,3.636885166E0,5.452349663E0,7.294883728E0
4.102183808E1,3.638463259E0,5.453041553E0,7.293580055E0
4.104210693E1,3.639199018E0,5.455230236E0,7.291575909E0
4.106237573E1,3.639465570E0,5.458353519E0,7.289105892E0
4.108264464E1,3.640704870E0,5.461067200E0,7.286453247E0
4.110291355E1,3.643885851E0,5.463880539E0,7.282752514E0
4.112318240E1,3.647113323E0,5.467832565E0,7.278169632E0
4.114345125E1,3.648181200E0,5.472773552E0,7.273920059E0
4.116372011E1,3.645759106E0,5.476987839E0,7.271961212E0
4.118398902E1,3.642957449E0,5.479572773E0,7.271419525E0
4.120425787E1,3.642263651E0,5.482407570E0,7.269629002E0
4.122452672E1,3.643324375E0,5.485572338E0,7.266709805E0
4.124479558E1,3.643645048E0,5.488831997E0,7.264086723E0
4.126506448E1,3.643041849E0,5.492125034E0,7.261900425E0
4.128533329E1,3.642916918E0,5.494847775E0,7.259902000E0
4.130560219E1,3.642934799E0,5.496771336E0,7.258438110E0
4.132587105E1,3.642797947E0,5.498098850E0,7.257501125E0
4.134613995E1,3.642632723E0,5.498679161E0,7.257144451E0
4.136640881E1,3.642502069E0,5.498560429E0,7.257300377E0
4.138667766E1,3.643266916E0,5.498371601E0,7.257058620E0
4.140694652E1,3.645149231E0,5.498529434E0,7.255994320E0
4.142721537E1,3.646717548E0,5.498228550E0,7.255434513E0
4.144748428E1,3.646788836E0,5.497543335E0,7.255917549E0
4.146775313E1,3.645303965E0,5.495975018E0,7.257850647E0
4.148802198E1,3.643589735E0,5.494267464E0,7.260004044E0
4.150829084E1,3.642019987E0,5.492464066E0,7.262156963E0
4.152855974E1,3.640858173E0,5.490908623E0,7.263915062E0
4.154882860E1,3.640819073E0,5.489435196E0,7.265048027E0
4.156909745E1,3.640975714E0,5.487953663E0,7.266088486E0
4.158936631E1,3.641771555E0,5.486112118E0,7.267081261E0
4.160963516E1,3.643557072E0,5.484140396E0,7.267673492E0
4.162990402E1,3.644430161E0,5.482688904E0,7.268331051E0
4.165017292E1,3.644286871E0,5.481189251E0,7.269534111E0
4.167044178E1,3.644300222E0,5.480390549E0,7.270130157E0
4.169071063E1,3.643691063E0,5.480069160E0,7.270677090E0
4.171097948E1,3.643497944E0,5.479163170E0,7.271456718E0
4.173124834E1,3.643399715E0,5.478435516E0,7.272054672E0
4.175151719E1,3.642674208E0,5.478684902E0,7.272229195E0
4.177178605E1,3.642395496E0,5.478495121E0,7.272512436E0
4.179205490E1,3.641768217E0,5.478084087E0,7.273136616E0
4.181232375E1,3.641143560E0,5.477563858E0,7.273840904E0
4.183259261E1,3.641139507E0,5.477365017E0,7.273992062E0
4.185286152E1,3.641518116E0,5.476722240E0,7.274286270E0
4.187313037E1,3.641013622E0,5.475605488E0,7.275380611E0
4.189339922E1,3.641085148E0,5.474754810E0,7.275984764E0
4.191378683E1,3.641680241E0,5.473985672E0,7.276264668E0
4.193393693E1,3.642024279E0,5.473690987E0,7.276314735E0
4.195420579E1,3.642452240E0,5.473369598E0,7.276340961E0
4.197447464E1,3.643374920E0,5.472539902E0,7.276503563E0
4.199474349E1,3.644355297E0,5.472298145E0,7.276195526E0
4.201514349E1,3.645142555E0,5.472712040E0,7.275488853E0
4.203528120E1,3.645064116E0,5.473573685E0,7.274880409E0
4.205555006E1,3.643569231E0,5.474190235E0,7.275165558E0
4.207581891E1,3.642104387E0,5.473943233E0,7.276084423E0
4.209608776E1,3.640902758E0,5.472800732E0,7.277545929E0
4.211648776E1,3.640376091E0,5.470771313E0,7.279333591E0
4.213662547E1,3.641287088E0,5.469806194E0,7.279603958E0
4.215689433E1,3.643913507E0,5.469881058E0,7.278233528E0
4.217716318E1,3.645269394E0,5.471076488E0,7.276655674E0
4.219743204E1,3.644230127E0,5.472353458E0,7.276216030E0
4.221783204E1,3.642354250E0,5.472808838E0,7.276813507E0
4.223796974E1,3.641369820E0,5.471210957E0,7.278506279E0
4.225823860E1,3.640445232E0,5.471110821E0,7.279044628E0
4.227850745E1,3.640040874E0,5.471483231E0,7.278966427E0
4.229877631E1,3.640146255E0,5.472250462E0,7.278338432E0
4.231917631E1,3.640410423E0,5.473145485E0,7.277531624E0
4.233931396E1,3.640728474E0,5.473648071E0,7.276995182E0
4.235958282E1,3.641639709E0,5.473203659E0,7.276874065E0
4.237985167E1,3.642321587E0,5.472851753E0,7.276797295E0
4.240012053E1,3.643479109E0,5.472410202E0,7.276549339E0
4.242052052E1,3.644542456E0,5.471916199E0,7.276387691E0
4.244065823E1,3.644359350E0,5.471757412E0,7.276598930E0
4.246092709E1,3.644119740E0,5.472040176E0,7.276507378E0
4.248119594E1,3.643577814E0,5.472548962E0,7.276395798E0
4.250146480E1,3.642447472E0,5.472931862E0,7.276674271E0
4.252173365E1,3.640618324E0,5.472693443E0,7.277768612E0
4.254213365E1,3.639446259E0,5.471920013E0,7.278935432E0
4.256227131E1,3.638932228E0,5.470640659E0,7.280154705E0
4.258254016E1,3.639137030E0,5.468386173E0,7.281745434E0
4.260280902E1,3.639672518E0,5.466134548E0,7.283168316E0
4.262307782E1,3.640166759E0,5.465027332E0,7.283751965E0
4.264334667E1,3.640771151E0,5.464496613E0,7.283848763E0
4.266361553E1,3.641459465E0,5.464787006E0,7.283287048E0
4.268388438E1,3.641533136E0,5.464804649E0,7.283235550E0
4.270415323E1,3.641465902E0,5.465539932E0,7.282718658E0
4.272442209E1,3.641055346E0,5.466375828E0,7.282295704E0
4.274469089E1,3.640629530E0,5.466913700E0,7.282105446E0
4.276495974E1,3.639607191E0,5.466882229E0,7.282640457E0
4.278522860E1,3.640219688E0,5.466604233E0,7.282542706E0
4.280549745E1,3.641018152E0,5.465938568E0,7.282643318E0
4.282584500E1,3.640560389E0,5.465852737E0,7.282936573E0
4.284603516E1,3.639486790E0,5.466318607E0,7.283123016E0
4.286630402E1,3.639183044E0,5.466449738E0,7.283176899E0
4.288657282E1,3.639298916E0,5.466512203E0,7.283071041E0
4.290684172E1,3.639696598E0,5.467266083E0,7.282307625E0
4.292711052E1,3.640275002E0,5.469351768E0,7.280452251E0
4.294737938E1,3.639811277E0,5.471094608E0,7.279373646E0
4.296764823E1,3.638029814E0,5.471895218E0,7.279662609E0
4.298791704E1,3.637101650E0,5.471311092E0,7.280565262E0
4.300818584E1,3.637820959E0,5.470098972E0,7.281115532E0
4.302845469E1,3.638643503E0,5.469662189E0,7.281034946E0
4.304872355E1,3.638867378E0,5.469619751E0,7.280954838E0
4.306899235E1,3.638191223E0,5.469019890E0,7.281742096E0
4.308926120E1,3.636807919E0,5.468684196E0,7.282685757E0
4.310953006E1,3.635338306E0,5.469533443E0,7.282781124E0
4.312979891E1,3.635477066E0,5.470496655E0,7.281988621E0
4.315006771E1,3.636724710E0,5.471042156E0,7.280957222E0
4.317033657E1,3.637801409E0,5.471056938E0,7.280405998E0
4.319060537E1,3.637488365E0,5.471413136E0,7.280295372E0
4.321087422E1,3.636593580E0,5.472000122E0,7.280301571E0
4.323114308E1,3.636103392E0,5.471162796E0,7.281175613E0
4.325141193E1,3.635972738E0,5.469120502E0,7.282774925E0
4.327168073E1,3.635435104E0,5.467696190E0,7.284113884E0
