"Time (s)","Gyroscope x (rad/s)","Gyroscope y (rad/s)","Gyroscope z (rad/s)"
4.260755700E-2,-2.973417044E-1,-3.142527640E-1,-1.464737463E-3
6.290469200E-2,-2.701774836E-1,-4.101265073E-1,1.103879437E-1
8.301703600E-2,-1.023984700E-1,-3.952127993E-1,1.428784877E-1
1.032863590E-1,1.328916401E-1,-7.350318879E-2,1.344895363E-2
1.235557340E-1,3.608580530E-1,2.459427416E-1,-1.058605760E-1
1.438250570E-1,5.998765826E-1,5.717802644E-1,-6.644582003E-2
1.640945880E-1,8.928241134E-1,7.262434959E-1,-3.768370301E-2
1.843640670E-1,1.127048969E0,3.956122994E-1,-7.856319658E-3
2.047640670E-1,1.260206938E0,6.484792382E-2,-2.490053698E-2
2.249032860E-1,1.336905837E0,-1.145158410E-1,-7.390266657E-2
2.451728690E-1,1.358211160E0,1.447426975E-1,-5.419528857E-2
2.654424520E-1,1.210672140E0,6.761760712E-1,6.085318699E-2
2.857120360E-1,1.106808901E0,9.030772448E-1,8.428898454E-2
3.059816190E-1,1.084971070E0,6.245108247E-1,1.238369010E-2
3.262512540E-1,1.061002612E0,5.250418186E-1,-1.239700541E-1
3.465208900E-1,1.124385715E0,8.125298619E-1,-2.388853729E-1
3.667905250E-1,1.347558498E0,9.488835931E-1,-2.713759243E-1
3.870602130E-1,1.403484821E0,9.313067198E-1,-2.697780132E-1
4.073298480E-1,1.270326853E0,1.217729449E0,-2.868222296E-1
4.275995360E-1,1.241564751E0,1.356213808E0,-2.900180221E-1
4.478691190E-1,1.315600634E0,1.008005738E0,-2.798980176E-1
4.681388070E-1,1.264467955E0,7.001445293E-1,-2.058621943E-1
4.884084420E-1,9.775125384E-1,6.921550632E-1,-1.159805804E-1
5.088084420E-1,6.579334736E-1,6.069339514E-1,-1.559279710E-1
5.289477130E-1,3.555317521E-1,2.587259114E-1,-8.455529809E-2
5.492174520E-1,5.885581672E-2,2.502037883E-1,8.482161909E-2
5.694870880E-1,-1.790974438E-1,3.237069845E-1,2.440785319E-1
5.897567750E-1,-3.143859208E-1,1.777658761E-1,3.181143403E-1
6.101567750E-1,-4.289017618E-1,-9.587372653E-3,3.611243665E-1
6.302960460E-1,-5.173186660E-1,-2.183790505E-2,4.346275628E-1
6.505657340E-1,-5.135902166E-1,1.170458421E-1,4.921517968E-1
6.708353170E-1,-4.773712754E-1,1.058605760E-1,5.534044504E-1
6.911050040E-1,-4.049333334E-1,9.574057162E-2,5.209138989E-1
7.115050040E-1,-2.920154035E-1,2.556632832E-2,4.655202031E-1
7.316442750E-1,-1.210405827E-1,-1.033305749E-1,4.442149401E-1
7.519139630E-1,1.677790284E-2,-1.874863952E-1,5.129244328E-1
7.721835980E-1,6.311687082E-2,-9.906952083E-2,5.320991874E-1
7.924532340E-1,7.723161485E-3,-6.285055727E-2,4.554001987E-1
8.128532340E-1,-9.653951973E-2,-5.592634156E-2,3.526022732E-1
8.329925570E-1,-1.663142890E-1,3.728422802E-3,2.265016884E-1
8.532621920E-1,-1.711079776E-1,3.036001325E-2,1.221058443E-1
8.735317750E-1,-1.322258562E-1,-7.190529257E-2,8.695214242E-2
8.938014630E-1,-1.215732098E-1,-1.523326933E-1,9.920267761E-2
9.142014630E-1,-1.524658650E-1,-1.278316416E-2,1.109205782E-1
9.343407860E-1,-1.359542757E-1,1.793637723E-1,9.227846563E-2
9.546104210E-1,-2.423474751E-2,1.660479754E-1,4.966791719E-2
9.748801090E-1,1.334242672E-1,1.175784767E-1,-2.543316968E-2
9.951497440E-1,1.952095628E-1,8.349003643E-2,-6.218476593E-2
1.015419379E0,1.760348231E-1,1.633848101E-1,-7.443529367E-2
1.035689015E0,1.723063886E-1,1.330247968E-1,-7.230477035E-2
1.055958650E0,2.191779912E-1,6.058686972E-2,-7.337003201E-2
1.076228338E0,2.916159332E-1,-3.462106735E-2,-6.484792382E-2
1.096497973E0,2.857569754E-1,-1.454084814E-1,-4.620581120E-2
1.116767609E0,1.733716577E-1,-8.681898564E-2,-5.792371184E-2
1.137037296E0,7.696529478E-2,-9.960214794E-2,-4.301001877E-2
1.157306932E0,6.950845569E-2,-1.406148076E-1,2.623211779E-2
1.177576567E0,8.442214131E-2,-1.544632316E-1,9.068056941E-2
1.197846202E0,4.287686199E-2,-1.267663687E-1,1.338237375E-1
1.218115838E0,1.251684781E-2,-1.193095297E-1,1.183774248E-1
1.238385473E0,4.820318148E-2,-1.992042959E-1,1.173121557E-1
1.258655161E0,7.962846011E-2,-1.667137593E-1,1.221058443E-1
1.278924744E0,4.500738904E-2,2.396843210E-2,1.247690022E-1
1.299194432E0,2.663159103E-4,1.399490088E-1,8.428898454E-2
1.319464067E0,3.994738683E-3,5.206476152E-2,4.860265180E-2
1.339733702E0,3.062633052E-2,1.278316416E-2,6.657897611E-4
1.360003338E0,4.926844314E-2,-2.876211889E-2,-3.874896467E-2
1.380272973E0,3.968106955E-2,-7.190529257E-2,-3.715106845E-2
1.400542609E0,4.527370445E-3,-2.982738242E-2,-3.235738352E-2
1.420812244E0,1.251684781E-2,-3.675159439E-2,6.657897611E-4
1.441212244E0,8.282424510E-2,-5.060002208E-2,4.807002097E-2
1.461351515E0,1.771000773E-1,4.727107286E-2,8.056056499E-2
1.481621150E0,2.596580088E-1,-5.273054913E-2,8.535424620E-2
1.501890786E0,2.974748611E-1,-2.039979845E-1,8.695214242E-2
1.522160421E0,2.623211741E-1,-1.800295562E-1,1.332911104E-1
1.542430057E0,2.069274634E-1,-1.129179448E-1,2.392848432E-1
1.562699692E0,2.330264151E-1,-1.725727171E-1,3.324954212E-1
1.582969327E0,2.884201407E-1,-4.063980877E-1,5.139896870E-1
1.603238963E0,2.889527678E-1,-4.074633420E-1,8.271772265E-1
1.623508598E0,2.697780132E-1,-4.314317703E-1,1.182842135E0
1.643778234E0,3.448790908E-1,-4.426170290E-1,1.413471699E0
1.664047765E0,4.135886133E-1,-4.063980877E-1,1.516669154E0
1.684317452E0,3.741738498E-1,-4.820317924E-1,1.596563935E0
1.704587088E0,3.070622385E-1,-4.053328037E-1,1.703622937E0
1.724856723E0,3.608580530E-1,-2.274337858E-1,1.834650278E0
1.745126359E0,4.024033546E-1,-4.069307148E-1,2.105094194E0
1.765395994E0,3.294327855E-1,-5.324986577E-1,2.385791063E0
1.785665577E0,2.399506420E-1,-2.593916953E-1,2.469946861E0
1.805935213E0,4.500738904E-2,1.704421826E-2,2.449174166E0
1.826204848E0,-2.776343226E-1,3.370227814E-1,2.255828857E0
1.846474484E0,-4.459459782E-1,2.283658981E-1,1.957022429E0
1.866744067E0,-3.729754388E-1,1.564605981E-1,1.688709140E0
1.887013702E0,-1.801627129E-1,3.874896467E-2,1.655686021E0
1.907283338E0,1.328916401E-1,-3.137201369E-1,1.649294376E0
1.927552921E0,4.253064990E-1,-7.093324065E-1,1.604553342E0
1.947822557E0,5.828323960E-1,-6.581997871E-1,1.495363832E0
1.968092088E0,4.183822870E-1,-2.652506530E-1,1.389503241E0
1.988361723E0,2.378201038E-1,-1.560611278E-1,1.194027424E0
2.008761723E0,1.776327193E-1,-4.500738978E-1,1.095490456E0
2.028900994E0,1.872200817E-1,-4.282359779E-1,1.127448440E0
2.049170629E0,2.798980176E-1,-3.382211924E-1,1.167928457E0
2.069440213E0,4.810996950E-1,-4.969455004E-1,1.187103152E0
2.089709848E0,6.643250585E-1,-4.580633640E-1,1.247823238E0
2.110109848E0,5.295692086E-1,8.615319431E-2,1.154612660E0
2.130249067E0,3.294327855E-1,1.559279710E-1,8.681898713E-1
2.150518650E0,2.767022252E-1,-2.205095738E-1,6.668550372E-1
2.170788286E0,2.543317080E-1,-3.616569936E-1,7.408908606E-1
2.191057869E0,1.099884734E-1,-6.444845349E-2,9.303746223E-1
2.211457869E0,-3.435475379E-2,-5.326318089E-3,1.097621083E0
2.231597088E0,-1.253016293E-1,1.651158556E-2,1.151949525E0
2.251866671E0,-2.792322338E-1,5.781718493E-1,1.097621083E0
2.272136307E0,-4.427502155E-1,7.938877344E-1,1.166863203E0
2.292405890E0,-4.965460002E-1,5.410207510E-1,1.287238002E0
2.312805890E0,-3.532680571E-1,2.581932843E-1,1.268063188E0
2.332945057E0,-1.636511236E-1,1.171789970E-2,1.183907390E0
2.353214692E0,-1.508679688E-1,1.491369121E-2,1.113600016E0
2.373484275E0,-1.759016514E-1,1.864211448E-2,1.067260981E0
2.393753859E0,-3.697796464E-1,1.809616536E-1,1.075783134E0
2.414142244E0,-2.414153665E-1,1.729721874E-1,1.148753643E0
2.434293025E0,-1.759016514E-1,-7.456845604E-3,1.278715849E0
2.454562661E0,-3.314301372E-1,3.018690944E-1,1.313336968E0
2.474832244E0,-2.797648609E-1,4.504733682E-1,1.119991541E0
2.495101827E0,1.510011256E-1,-9.001477808E-2,8.564719558E-1
2.515501827E0,3.928159773E-1,-3.776359558E-1,7.637940049E-1
2.535640994E0,3.012032807E-1,-2.093243003E-1,7.174550891E-1
2.555910525E0,3.214432895E-1,-2.151832581E-1,5.768402815E-1
2.576180161E0,7.010766268E-1,-6.837661266E-1,3.542001545E-1
2.596449744E0,1.093493104E0,-1.261005878E0,1.331579551E-4
2.616719327E0,1.153147936E0,-1.669401288E0,-4.066644013E-1
2.636988911E0,1.067926764E0,-1.626790762E0,-9.221188426E-1
2.657258494E0,1.116396308E0,-1.819603443E0,-1.541436434E0
2.677528077E0,1.201084733E0,-2.444780111E0,-2.209756374E0
2.697797661E0,8.432893157E-1,-2.460758924E0,-2.851444483E0
2.718067244E0,4.603270590E-1,-2.135853529E0,-3.311505079E0
2.738336827E0,6.249102950E-1,-2.349971533E0,-3.765707016E0
2.758606411E0,8.619314432E-1,-2.762095451E0,-4.000997066E0
2.778875994E0,5.274386406E-1,-3.006040812E0,-3.848797560E0
2.799145577E0,-2.776343226E-1,-2.684863806E0,-3.218827248E0
2.819415161E0,-8.692551255E-1,-2.251434803E0,-2.742254972E0
2.839684744E0,-1.155811071E0,-2.020405769E0,-2.600574970E0
2.859954275E0,-1.017326832E0,-1.810548663E0,-2.887530327E0
2.880223859E0,-7.621961236E-1,-2.008155107E0,-2.955707073E0
2.900493442E0,-7.968171835E-1,-1.577921748E0,-2.658631802E0
2.920763025E0,-8.282424808E-1,-1.083106756E0,-2.483928442E0
2.941032609E0,-5.173186660E-1,-1.013997793E0,-2.533995867E0
2.961302192E0,-2.126532495E-1,-1.691239238E0,-2.342381477E0
2.981571775E0,-3.894870281E-1,-1.753024459E0,-1.823598146E0
3.001841307E0,-3.932154477E-1,-1.415469050E0,-1.553154349E0
3.022110890E0,1.824263930E-1,-1.548094392E0,-1.814010859E0
3.042380473E0,5.301018357E-1,-2.286055803E0,-1.765141845E0
3.062650057E0,6.057355404E-1,-2.323339939E0,-1.495630145E0
3.082919588E0,3.981422782E-1,-1.390435338E0,-1.535044909E0
3.103189171E0,3.912180662E-1,5.920202732E-1,-1.235306382E0
3.123458754E0,4.699144363E-1,6.101297736E-1,-7.873629928E-1
3.143728338E0,7.804387808E-1,-3.781685829E-1,-2.900180221E-1
3.163997869E0,7.831019163E-1,-5.575323701E-1,-1.031974182E-1
3.184267452E0,7.217161357E-2,2.436657429E0,5.523391962E-1
3.204537036E0,-5.512739345E-2,3.673162222E0,1.275520086E0
3.224806567E0,3.294327855E-1,2.273139477E0,1.402819037E0
3.245076150E0,6.984134912E-1,1.619333863E0,8.898946047E-1
3.265345734E0,8.335687965E-2,3.389269352E0,-1.170458421E-1
3.285615265E0,-1.327185392E0,4.822847843E0,-5.531381369E-1
3.305884848E0,-1.741439700E0,3.858384848E0,-7.187866569E-1
3.326154432E0,-7.462171912E-1,6.388918757E-1,-9.689904451E-1
3.346423963E0,1.041295230E-1,-2.574209690E0,-1.083506227E0
3.366693546E0,7.190529723E-3,-4.207391739E0,-1.505217552E0
3.386963077E0,-4.667186439E-1,-3.687143803E0,-1.874730825E0
3.407232661E0,-8.213182688E-1,-1.601224422E0,-1.709748149E0
3.427502244E0,-1.098819494E0,2.587259114E-1,-1.393897533E0
3.447771775E0,-1.035436273E0,1.537308574E0,-1.188967347E0
3.468041307E0,-6.743118763E-1,2.245442629E0,-1.191097856E0
3.488310890E0,-1.450090110E-1,2.503236294E0,-1.229979992E0
3.508659223E0,3.438138366E-1,2.440918446E0,-1.106942058E0
3.528850109E0,5.817670822E-1,2.131592512E0,-8.917587996E-1
3.549119692E0,5.450155139E-1,1.580984354E0,-7.006771564E-1
3.569389223E0,4.157191217E-1,7.795066833E-1,-5.174518228E-1
3.589658754E0,3.912180662E-1,-1.347558498E-1,-7.177213579E-2
3.610058754E0,4.608596861E-1,-7.226482034E-1,7.158571482E-1
3.630197817E0,4.699144363E-1,-8.366314173E-1,5.715139508E-1
3.650467400E0,9.347688407E-2,1.384842768E-2,-3.502054140E-2
3.670736932E0,-2.041311413E-1,5.522060394E-1,-1.388837546E-1
3.691006463E0,-3.340933025E-1,3.870901763E-1,-2.154495716E-1
3.711406463E0,-3.793670237E-1,-9.587372653E-3,-1.846900880E-1
3.731545577E0,-3.884217441E-1,-2.764359117E-1,-1.447426975E-1
3.751815161E0,-3.958786130E-1,-3.392864764E-1,-1.005342528E-1
3.772084692E0,-3.767038584E-1,-2.503369451E-1,-5.792371184E-2
3.792354223E0,-3.181143403E-1,-8.735162020E-2,-1.424790081E-2
3.812754223E0,-2.318280041E-1,7.763108611E-2,1.717737690E-2
3.832893338E0,-1.476721764E-1,1.964079887E-1,3.581948951E-2
3.853162869E0,-8.548741043E-2,2.145174593E-1,3.848264739E-2
3.873432400E0,-2.050632425E-2,1.474058628E-1,4.114580899E-2
3.893701984E0,6.418213248E-2,5.845634267E-2,4.434159771E-2
3.914101984E0,1.552621722E-1,-1.065263641E-3,4.860265180E-2
3.934241046E0,2.255695760E-1,-7.456845604E-3,5.392897129E-2
3.954510525E0,2.735064328E-1,3.768370301E-2,5.339634046E-2
3.974780057E0,3.043990731E-1,1.026647836E-1,4.434159771E-2
3.995049588E0,3.182475269E-1,1.521995366E-1,3.049317189E-2
4.015319171E0,3.102580309E-1,1.585911214E-1,2.303632535E-2
4.035588702E0,2.660495937E-1,1.335574239E-1,2.463422157E-2
4.055858234E0,1.350221634E-1,1.266332120E-1,3.102580272E-2
4.076127765E0,-2.370211668E-2,9.094688296E-2,3.581948951E-2
4.096397296E0,-1.306279600E-1,-1.491369121E-2,3.954791278E-2
4.116666827E0,-1.886848211E-1,-1.438105851E-1,4.167843983E-2
4.136936359E0,-2.249037921E-1,-2.354232669E-1,3.688475490E-2
4.157205890E0,-2.494048476E-1,-2.545980215E-1,2.143843099E-2
4.177475421E0,-2.510027587E-1,-2.279664129E-1,2.796316985E-3
4.197744952E0,-2.355564237E-1,-1.960085034E-1,-1.904158667E-2
4.218014484E0,-2.179795653E-1,-1.805621833E-1,-4.620581120E-2
4.238284015E0,-2.014679909E-1,-1.773663908E-1,-7.763108611E-2
4.258553546E0,-1.684448123E-1,-1.773663908E-1,-1.010668874E-1
4.278823077E0,-1.162468940E-1,-1.976063997E-1,-1.117195264E-1
4.299092609E0,-6.311687082E-2,-2.247706354E-1,-9.840372950E-2
4.319362140E0,-1.038632076E-2,-2.652506530E-1,-8.082687855E-2
4.339631671E0,3.488738462E-2,-2.759032845E-1,-6.591318548E-2
4.359901202E0,7.749792933E-2,-2.508696020E-1,-6.378266215E-2
4.380170682E0,1.249021590E-1,-2.141179889E-1,-7.496792823E-2
4.400440213E0,1.595232338E-1,-1.954758763E-1,-1.000016257E-1
4.420709744E0,1.834916621E-1,-1.880190372E-1,-1.303616315E-1
4.440979275E0,2.005358785E-1,-1.752358675E-1,-1.607216448E-1
4.461248807E0,2.207758874E-1,-1.422126889E-1,-1.989379823E-1
4.481518338E0,2.223737836E-1,-8.681898564E-2,-2.410158962E-1
4.501787817E0,1.531316489E-1,-6.178529188E-2,-2.751043439E-1
4.522057348E0,3.169159219E-2,-8.149266988E-2,-3.107906580E-1
4.542326879E0,-7.856319100E-2,-9.427583218E-2,-3.438138366E-1
4.562596411E0,-1.583248079E-1,-6.125266105E-2,-3.747064769E-1
4.582865890E0,-1.961416751E-1,3.715106845E-2,-4.242412448E-1
4.603135421E0,-1.998700947E-1,1.580584943E-1,-4.838960171E-1
4.623404952E0,-2.051964104E-1,3.269027770E-1,-5.318328738E-1
4.643674432E0,-2.041311413E-1,5.048018098E-1,-5.813676119E-1
4.663943963E0,-2.334259003E-1,6.394245028E-1,-6.239781976E-1
4.684213494E0,-3.239732981E-1,4.840291739E-1,-6.644582152E-1
4.704613494E0,-3.985417485E-1,-1.107874215E-1,-7.330345511E-1
4.724752504E0,-3.820301592E-1,-6.347639561E-1,-8.129293323E-1
4.745022036E0,-3.149185777E-1,-7.663240433E-1,-8.422240615E-1
4.765291515E0,-2.541985512E-1,-5.564671159E-1,-8.060051203E-1
4.785561046E0,-2.366216928E-1,-2.391516864E-1,-7.410240173E-1
4.805830577E0,-2.850911915E-1,-2.130527236E-2,-6.900244951E-1
4.826100057E0,-3.756386042E-1,-1.917474531E-2,-6.122602820E-1
4.846369588E0,-4.976112843E-1,-1.512674391E-1,-5.073317885E-1
4.866639067E0,-6.386255622E-1,-1.720400751E-1,-4.423507154E-1
4.886908598E0,-6.854971647E-1,1.740374416E-1,-3.704454303E-1
4.907178077E0,-6.748445034E-1,5.617933869E-1,-1.798963994E-1
4.927578077E0,-7.382277250E-1,5.314334035E-1,-3.928159550E-2
4.947717088E0,-8.048067093E-1,-2.024000883E-2,-3.608580679E-2
4.967986619E0,-7.318361402E-1,-4.186486006E-1,-1.250353158E-1
4.988256098E0,-4.832302332E-1,-5.538039207E-1,-2.069274634E-1
5.008525629E0,-2.526006401E-1,-7.567366362E-1,-4.519380927E-1
5.028795109E0,-2.541985512E-1,-5.245091915E-1,-3.864243925E-1
5.049195109E0,-1.966743022E-1,-7.482145429E-1,-1.553953290E-1
5.069334119E0,-2.263685316E-2,-8.435556293E-1,4.221107066E-2
5.089603598E0,1.808284968E-1,-7.791072130E-1,2.653838098E-1
5.110003598E0,1.957421899E-1,-7.753787637E-1,3.324954212E-1
5.130142609E0,-1.731053367E-2,-5.772397518E-1,2.163816839E-1
5.150412036E0,-2.494048476E-1,-4.724444151E-1,7.736477256E-2
5.170681567E0,-2.888196111E-1,-5.383576155E-1,6.564687192E-2
5.190951046E0,-2.893522382E-1,-5.623260736E-1,1.354216337E-1
5.211351046E0,-2.382195890E-1,-5.511407852E-1,1.918806136E-1
5.231490057E0,-2.206427306E-1,-5.266396999E-1,1.748363972E-1
5.251759536E0,-2.579269707E-1,-4.884233773E-1,1.146489978E-1
5.272029015E0,-2.520680130E-1,-5.660544634E-1,2.270343155E-1
5.292298494E0,-2.233058959E-1,-6.400902867E-1,3.499391079E-1
5.312698494E0,-3.032006621E-1,-6.619281769E-1,4.010717571E-1
5.332837504E0,-4.320975542E-1,-6.251766086E-1,4.133222997E-1
5.353106984E0,-4.725775719E-1,-5.857618451E-1,4.079959691E-1
5.373376463E0,-5.348954797E-1,-5.314334035E-1,4.820317924E-1
5.393645942E0,-5.567334294E-1,-5.878923535E-1,6.418213248E-1
5.414034223E0,-6.083986759E-1,-5.969471335E-1,8.042740226E-1
5.434184900E0,-6.524739861E-1,-7.993472219E-1,1.043825269E0
5.454454379E0,-6.743118763E-1,-8.680567145E-1,1.191364169E0
5.474723859E0,-7.046719193E-1,-9.282441139E-1,1.192962170E0
5.494993338E0,-7.574024200E-1,-1.019324183E0,1.189766288E0
5.515262817E0,-7.307708859E-1,-1.033705235E0,1.278715849E0
5.535532296E0,-7.137266397E-1,-1.016660929E0,1.354882240E0
5.555801723E0,-7.366297841E-1,-1.127847910E0,1.478852272E0
5.576071202E0,-7.973498106E-1,-1.207210064E0,1.588574409E0
5.596340682E0,-8.484824896E-1,-1.234906912E0,1.704155564E0
5.616610161E0,-7.749792933E-1,-1.208275318E0,1.700427055E0
5.636879640E0,-6.190513372E-1,-1.457014322E0,1.671132326E0
5.657149119E0,-8.175898194E-1,-1.503353357E0,1.720134497E0
5.677418598E0,-1.318130612E0,-9.878988862E-1,1.993241429E0
5.697688077E0,-1.631318092E0,-6.177197695E-1,2.154096127E0
5.717957557E0,-1.781387091E0,-4.873581231E-1,2.236121655E0
5.738226984E0,-1.653156042E0,-2.364885211E-1,2.154628754E0
5.758496463E0,-1.456082225E0,-8.149266988E-2,1.750494480E0
5.778765890E0,-1.465137005E0,7.456845604E-3,1.636511326E0
5.799035369E0,-1.519465446E0,1.442100704E-1,1.598161817E0
5.819304848E0,-1.234507442E0,2.571280003E-1,1.511875391E0
5.839574275E0,-7.909582257E-1,2.842922211E-1,1.512940645E0
5.859843754E0,-4.773712754E-1,2.427469492E-1,1.575791240E0
5.880113182E0,-9.068056941E-2,3.524691164E-1,1.630119681E0
5.900382661E0,9.134636074E-2,-7.510108501E-2,1.559812307E0
5.920652140E0,1.121189967E-1,-2.727074921E-1,1.459677458E0
5.940921619E0,5.299686641E-2,-3.185138404E-1,1.443698525E0
5.961191046E0,1.731053367E-2,-6.358292103E-1,1.432513237E0
5.981460525E0,7.536740601E-2,-1.001747251E0,1.359675884E0
6.001730004E0,1.669800729E-1,-9.980188608E-1,1.263802171E0
6.021999432E0,2.197106332E-1,-1.024650455E0,1.221191645E0
6.042268911E0,1.866874546E-1,-1.054877281E0,1.190831542E0
6.062538338E0,1.419463754E-1,-9.948230982E-1,1.133839965E0
6.082807817E0,9.827057272E-2,-9.367662072E-1,1.074717879E0
6.103077296E0,6.205160543E-2,-8.238482475E-1,1.017193675E0
6.123346723E0,6.205160543E-2,-5.974797606E-1,9.527451396E-1
6.143616202E0,9.560741484E-2,-3.281011879E-1,8.586025238E-1
6.163885629E0,1.424790174E-1,-1.858884990E-1,7.510108948E-1
6.184155057E0,1.563274413E-1,-1.976063997E-1,6.380929351E-1
6.204424536E0,1.360874325E-1,-2.711096108E-1,5.438171029E-1
6.224693963E0,1.515337527E-1,-3.083938360E-1,4.308991432E-1
6.244963442E0,1.952095628E-1,-3.312969804E-1,2.755038142E-1
6.265232869E0,2.250369489E-1,-2.961432934E-1,1.268995255E-1
6.285502348E0,2.069274634E-1,-1.725727171E-1,1.611211337E-2
6.305771775E0,1.488705873E-1,-2.876211889E-2,-6.857634336E-2
6.326041202E0,1.030642539E-1,1.438105945E-2,-1.591237634E-1
6.346310682E0,6.791055948E-2,5.858949851E-3,-2.623211741E-1
6.366580109E0,6.258423626E-2,3.302317113E-2,-3.502054214E-1
6.386849536E0,6.631266326E-2,7.603318989E-2,-3.736412227E-1
6.407119015E0,4.820318148E-2,1.319595277E-1,-3.624559641E-1
6.427388442E0,3.462106921E-3,1.964079887E-1,-3.454117477E-1
6.447657869E0,-4.554001987E-2,2.571280003E-1,-3.400854170E-1
6.467927348E0,-9.653951973E-2,3.279680312E-1,-3.581948876E-1
6.488196775E0,-1.673795432E-1,4.403533638E-1,-4.109254479E-1
6.508596775E0,-2.366216928E-1,5.458144546E-1,-4.620580971E-1
6.528735682E0,-2.680469751E-1,5.893571377E-1,-4.913528562E-1
6.549005109E0,-2.563290596E-1,5.351617932E-1,-4.988096952E-1
6.569274536E0,-1.833585054E-1,4.254396558E-1,-5.094623566E-1
6.589543963E0,-1.135837361E-1,3.407512009E-1,-5.222455263E-1
6.609943963E0,-9.813741595E-2,2.976080179E-1,-5.440834165E-1
6.630082869E0,-8.282424510E-2,2.880206704E-1,-5.573992133E-1
6.650352296E0,-8.788425475E-3,3.098585606E-1,-5.568665862E-1
6.670621723E0,1.057274193E-1,2.304964215E-1,-5.717802644E-1
6.690891150E0,2.165148407E-1,5.739107728E-2,-6.058686972E-1
6.711291150E0,2.500706315E-1,1.225053146E-2,-6.293044686E-1
6.731430057E0,2.282327414E-1,1.010668874E-1,-6.351634264E-1
6.751699484E0,1.984053552E-1,1.351553202E-1,-6.117276549E-1
6.771968911E0,1.829590350E-1,1.553953290E-1,-6.239781976E-1
6.792238390E0,1.739042848E-1,1.793637723E-1,-6.191844940E-1
6.812638390E0,1.909485012E-1,1.308942735E-1,-6.271739602E-1
6.832777244E0,2.053295672E-1,1.042626798E-1,-6.053360701E-1
6.853046671E0,2.005358785E-1,1.527321786E-1,-5.893571377E-1
6.873316150E0,1.637842804E-1,2.411490530E-1,-6.016076207E-1
6.893585577E0,1.291632205E-1,3.098585606E-1,-6.175866127E-1
6.913985577E0,1.296958476E-1,3.061301410E-1,-6.298371553E-1
6.934124432E0,1.334242672E-1,2.374206334E-1,-6.367613673E-1
6.954393911E0,1.334242672E-1,2.022669315E-1,-6.330329180E-1
6.974663338E0,1.291632205E-1,2.134522051E-1,-6.282392144E-1
6.994932817E0,1.227716357E-1,1.948100924E-1,-6.000097394E-1
7.015202244E0,1.195758432E-1,1.846900880E-1,-4.833633900E-1
7.035471723E0,6.045371294E-2,1.511342824E-1,-4.561991692E-1
7.055741150E0,-2.663159103E-4,1.724395454E-1,-3.992075622E-1
7.076010577E0,-3.382211924E-2,1.751027107E-1,-3.965443969E-1
7.096280057E0,-5.512739345E-2,1.729721874E-1,-3.747064769E-1
7.116549484E0,-9.174583107E-2,1.516669095E-1,-3.544664681E-1
7.136818963E0,-1.178447902E-1,1.463405937E-1,-3.193127811E-1
7.157088390E0,-1.205079481E-1,1.575258672E-1,-2.825611830E-1
7.177357869E0,-1.215732098E-1,1.415469050E-1,-2.415485233E-1
7.197627348E0,-1.071921512E-1,1.255679578E-1,-1.708416492E-1
7.217896775E0,-1.141163707E-1,9.627319872E-2,-1.639174372E-1
7.238166254E0,-7.696529478E-2,7.816372067E-2,-1.165132076E-1
7.258435682E0,-6.311687082E-2,7.123950869E-2,-7.763108611E-2
7.278705161E0,-5.246423557E-2,5.472791940E-2,-4.354264960E-2
7.298974640E0,-5.619265884E-2,3.821633384E-2,-1.744369231E-2
7.319244119E0,-7.430213690E-2,3.089264594E-2,3.328948980E-3
7.339513598E0,-9.281109273E-2,3.661843762E-2,2.197106183E-2
7.359783077E0,-1.029310971E-1,4.087949172E-2,4.061317816E-2
7.380052557E0,-1.034637317E-1,4.301001877E-2,5.872265995E-2
7.400322036E0,-9.494162351E-2,4.301001877E-2,7.203845680E-2
7.420591515E0,-8.748477697E-2,4.034686089E-2,7.843003422E-2
7.440860994E0,-8.335687965E-2,4.407528415E-2,8.695214242E-2
7.461130473E0,-8.748477697E-2,4.940159991E-2,8.322372288E-2
7.481399952E0,-1.226384789E-1,7.603318989E-2,5.978792161E-2
7.501669432E0,-1.604553312E-1,1.324921697E-1,4.167843983E-2
7.521938911E0,-1.753690243E-1,1.580584943E-1,5.020054802E-2
7.542208442E0,-1.801627129E-1,1.415469050E-1,6.777740270E-2
7.562477921E0,-1.663142890E-1,1.085237339E-1,7.789740711E-2
7.582747452E0,-1.354216337E-1,8.082687855E-2,7.896266878E-2
7.603016932E0,-1.034637317E-1,6.857634336E-2,7.683213800E-2
7.623286463E0,-6.418213248E-2,5.046686530E-2,8.002793044E-2
7.643555942E0,-3.009369783E-2,2.450106293E-2,8.428898454E-2
7.663825473E0,-1.198421605E-2,4.261054564E-3,8.695214242E-2
7.684094952E0,-3.994738683E-3,-2.663159044E-3,7.896266878E-2
7.704364484E0,3.462106921E-3,-6.391582079E-3,7.203845680E-2
7.724634015E0,5.060002208E-3,-1.331579592E-2,6.671213359E-2
7.744903546E0,2.929474926E-3,-2.556632832E-2,6.351634115E-2
7.765173077E0,2.396843163E-3,-3.195790946E-2,6.458161026E-2
7.785442609E0,3.994738683E-3,-3.302317113E-2,6.724476814E-2
7.805842609E0,7.190529723E-3,-2.929474972E-2,7.044056058E-2
7.825981671E0,1.038632076E-2,-2.876211889E-2,7.150582224E-2
7.846251202E0,1.677790284E-2,-2.876211889E-2,6.884266436E-2
7.866520734E0,2.476738021E-2,-3.142527863E-2,6.671213359E-2
7.886790265E0,2.849580161E-2,-3.142527863E-2,6.404897571E-2
7.907059796E0,2.743053809E-2,-3.089264594E-2,6.245107949E-2
7.927329379E0,3.009369783E-2,-3.408843651E-2,6.511423737E-2
7.947598911E0,3.808317333E-2,-4.580633715E-2,6.831002980E-2
7.967868442E0,4.660528526E-2,-5.379581451E-2,7.044056058E-2
7.988138025E0,5.299686641E-2,-5.486107618E-2,6.884266436E-2
8.008407557E0,5.352949724E-2,-5.326318368E-2,6.724476814E-2
8.028677140E0,5.193160102E-2,-5.326318368E-2,6.831002980E-2
8.048946671E0,4.926844314E-2,-5.219791830E-2,6.831002980E-2
8.069216254E0,4.980107397E-2,-5.006739125E-2,6.617950648E-2
8.089485786E0,4.767054692E-2,-4.687159881E-2,6.191844866E-2
8.109885786E0,4.607265070E-2,-4.367581010E-2,5.659212917E-2
8.130024952E0,3.968106955E-2,-3.888212144E-2,5.286370963E-2
8.150294484E0,3.488738462E-2,-3.355580568E-2,4.966791719E-2
8.170564067E0,2.530001104E-2,-2.556632832E-2,4.700475931E-2
8.190833650E0,1.411474310E-2,-2.024000883E-2,4.487423226E-2
8.211233650E0,7.723161485E-3,-1.491369121E-2,3.848264739E-2
8.231372817E0,-7.989477599E-4,-1.012000442E-2,2.996053919E-2
8.251642400E0,-8.255792782E-3,-4.261054564E-3,2.303632535E-2
8.271911984E0,-1.571263932E-2,2.130527282E-3,1.824264042E-2
8.292181567E0,-2.157158963E-2,6.391582079E-3,1.824264042E-2
8.312581567E0,-2.210422046E-2,4.261054564E-3,2.197106183E-2
8.332720734E0,-1.837579720E-2,1.597895520E-3,2.303632535E-2
8.352990317E0,-1.890842989E-2,2.663159044E-3,2.569948509E-2
8.373259900E0,-2.157158963E-2,6.391582079E-3,2.729738131E-2
8.393529484E0,-2.050632425E-2,1.225053146E-2,3.315633163E-2
8.413929484E0,-2.370211668E-2,2.024000883E-2,3.581948951E-2
8.434068702E0,-2.316948399E-2,2.663159184E-2,4.061317816E-2
8.454338286E0,-1.997369342E-2,2.237053588E-2,3.901528195E-2
8.474607869E0,-1.784316637E-2,2.077264152E-2,3.368896246E-2
8.494877504E0,-1.784316637E-2,1.544632297E-2,2.463422157E-2
8.515147088E0,-1.944106072E-2,1.331579592E-2,1.930790395E-2
8.535416671E0,-2.423474751E-2,1.171789970E-2,1.504684892E-2
8.555686307E0,-3.009369783E-2,1.065263618E-2,1.185105834E-2
8.575955890E0,-3.275685757E-2,1.118526794E-2,8.122635074E-3
8.596225525E0,-2.902843431E-2,1.012000442E-2,8.122635074E-3
8.616495109E0,-2.210422046E-2,8.522109129E-3,1.025316212E-2
8.636764744E0,-1.091895252E-2,6.391582079E-3,1.238369010E-2
8.657034327E0,-4.527370445E-3,4.261054564E-3,1.185105834E-2
8.677303963E0,-3.994738683E-3,3.728422802E-3,9.720530361E-3
8.697573546E0,-8.255792782E-3,5.858949851E-3,5.992108025E-3
8.717843182E0,-1.571263932E-2,9.054740891E-3,3.328948980E-3
8.738112765E0,-2.103895694E-2,1.118526794E-2,-1.464737463E-3
8.758382400E0,-2.530001104E-2,1.491369121E-2,-6.258423906E-3
8.778652036E0,-2.583264373E-2,1.491369121E-2,-8.921583183E-3
8.798921619E0,-2.050632425E-2,9.587372653E-3,-1.051947847E-2
8.819191254E0,-1.518000662E-2,7.456845604E-3,-1.158474199E-2
8.839460890E0,-1.411474310E-2,8.522109129E-3,-1.478053257E-2
8.859730525E0,-1.624527015E-2,1.491369121E-2,-1.637842879E-2
8.880000109E0,-2.157158963E-2,1.864211448E-2,-1.584579609E-2
8.900269744E0,-2.423474751E-2,1.864211448E-2,-1.584579609E-2
8.920539379E0,-2.157158963E-2,1.704421826E-2,-1.318263728E-2
8.940809015E0,-1.624527015E-2,1.278316416E-2,-1.478053257E-2
8.961078598E0,-1.464737486E-2,1.012000442E-2,-1.424790081E-2
8.981348234E0,-1.464737486E-2,9.054740891E-3,-8.921583183E-3
9.001617869E0,-1.997369342E-2,1.331579592E-2,-5.193160381E-3
9.021887504E0,-2.583264373E-2,1.970737800E-2,1.198421582E-3
9.042157088E0,-3.115896136E-2,2.663159184E-2,8.122635074E-3
9.062426723E0,-3.382211924E-2,2.982738242E-2,1.291632187E-2
9.082696359E0,-3.755054250E-2,3.555317223E-2,1.398158539E-2
9.102965994E0,-3.808317333E-2,3.821633384E-2,1.611211337E-2
9.123235577E0,-3.755054250E-2,3.768370301E-2,1.717737690E-2
9.143505265E0,-3.328948840E-2,3.089264594E-2,1.557948068E-2
9.163774900E0,-2.956106514E-2,2.396843210E-2,1.504684892E-2
9.184044536E0,-2.530001104E-2,1.757685095E-2,1.451421715E-2
9.204444536E0,-2.050632425E-2,1.438105945E-2,1.344895363E-2
9.224583754E0,-1.677790284E-2,1.225053146E-2,1.557948068E-2
9.244853390E0,-1.145158429E-2,1.118526794E-2,1.557948068E-2
9.265123025E0,-8.255792782E-3,1.065263618E-2,1.557948068E-2
9.285392661E0,-9.321057238E-3,1.331579592E-2,1.504684892E-2
9.305662296E0,-9.853689000E-3,1.331579592E-2,1.771000773E-2
9.325931932E0,-1.251684781E-2,1.331579592E-2,1.611211337E-2
9.346201515E0,-1.358211134E-2,1.278316416E-2,1.398158539E-2
9.366471202E0,-1.145158429E-2,1.171789970E-2,1.238369010E-2
9.386740786E0,-7.723161485E-3,1.118526794E-2,1.291632187E-2
9.407010473E0,-8.788425475E-3,1.065263618E-2,1.291632187E-2
9.427280109E0,-5.592633970E-3,5.858949851E-3,1.451421715E-2
9.447549744E0,-4.527370445E-3,5.858949851E-3,1.451421715E-2
9.467819379E0,-9.853689000E-3,1.012000442E-2,1.131842658E-2
9.488089015E0,-1.518000662E-2,1.917474531E-2,7.590003312E-3
9.508358702E0,-2.263685316E-2,1.864211448E-2,5.992108025E-3
9.528628338E0,-2.316948399E-2,1.225053146E-2,7.590003312E-3
9.548897973E0,-1.518000662E-2,-1.065263641E-3,1.344895363E-2
9.569167609E0,-8.788425475E-3,-6.391582079E-3,1.557948068E-2
9.589437244E0,-9.321057238E-3,-0.000000000E0,1.131842658E-2
9.609837244E0,-1.038632076E-2,1.384842768E-2,9.720530361E-3
9.629976515E0,-1.091895252E-2,1.012000442E-2,1.238369010E-2
9.650246202E0,-1.198421605E-2,9.054740891E-3,1.611211337E-2
9.670515838E0,-1.091895252E-2,3.728422802E-3,2.143843099E-2
9.690785473E0,-7.723161485E-3,6.391582079E-3,2.516685426E-2
9.711185473E0,-3.994738683E-3,9.054740891E-3,2.942790836E-2
9.731324796E0,1.331579522E-3,8.522109129E-3,3.102580272E-2
9.751594432E0,-7.989477599E-4,2.663159044E-3,3.155843541E-2
9.771864067E0,-9.321057238E-3,7.456845604E-3,2.463422157E-2
9.792133754E0,-1.518000662E-2,1.438105945E-2,2.143843099E-2
9.812533754E0,-1.091895252E-2,9.587372653E-3,2.516685426E-2
9.832673025E0,-6.657897960E-3,-6.391582079E-3,3.209106624E-2
9.852942713E0,1.864211401E-3,-1.491369121E-2,3.741738573E-2
9.873212348E0,1.571263932E-2,-2.130527236E-2,4.327633604E-2
9.893482036E0,2.210422046E-2,-2.237053588E-2,4.487423226E-2
9.913882036E0,2.103895694E-2,-1.864211448E-2,4.434159771E-2
9.934021359E0,1.624527015E-2,-1.491369121E-2,4.434159771E-2
9.954291046E0,7.723161485E-3,-8.522109129E-3,4.593949392E-2
9.974560682E0,3.994738683E-3,-5.326318089E-3,5.073318258E-2
9.994830369E0,-7.989477599E-4,-3.195791040E-3,5.339634046E-2
1.001510000E1,-6.125265732E-3,-3.195791040E-3,4.966791719E-2
1.003536969E1,-8.255792782E-3,4.261054564E-3,3.901528195E-2
1.005563938E1,-6.125265732E-3,7.456845604E-3,3.368896246E-2
1.007590902E1,-3.462106921E-3,3.728422802E-3,3.315633163E-2
1.009617870E1,-6.125265732E-3,1.597895520E-3,3.368896246E-2
1.011644839E1,-8.788425475E-3,5.326318089E-3,3.581948951E-2
1.013671808E1,-7.723161485E-3,6.391582079E-3,3.368896246E-2
1.015698771E1,-2.396843163E-3,2.130527282E-3,3.368896246E-2
1.017725740E1,3.462106921E-3,-6.391582079E-3,3.262370080E-2
1.019752709E1,2.396843163E-3,-9.054740891E-3,2.516685426E-2
1.021779678E1,3.994738683E-3,-9.054740891E-3,2.037316747E-2
1.023806646E1,7.723161485E-3,-5.326318089E-3,1.984053478E-2
1.025833615E1,1.331579522E-3,-7.456845604E-3,1.557948068E-2
1.027860584E1,-1.251684781E-2,-6.391582079E-3,9.187898599E-3
1.029887553E1,-1.731053367E-2,2.663159044E-3,8.655266836E-3
1.031914521E1,-1.890842989E-2,3.195791040E-3,9.720530361E-3
1.033941490E1,-2.423474751E-2,5.858949851E-3,1.078579482E-2
1.035968459E1,-2.902843431E-2,1.491369121E-2,9.720530361E-3
1.037995428E1,-3.169159219E-2,2.609895915E-2,8.122635074E-3
1.040022396E1,-2.849580161E-2,2.503369562E-2,9.720530361E-3
1.042049365E1,-2.210422046E-2,1.012000442E-2,9.720530361E-3
1.044076334E1,-1.571263932E-2,5.858949851E-3,3.861580743E-3
1.046103302E1,-8.788425475E-3,6.924213842E-3,2.796316985E-3
1.048130271E1,-7.190529723E-3,4.793686327E-3,2.263685223E-3
1.050157240E1,-7.190529723E-3,2.663159044E-3,3.328948980E-3
1.052184214E1,-7.190529723E-3,5.326318089E-3,2.796316985E-3
1.054211178E1,-3.462106921E-3,2.396843210E-2,-3.595264861E-3
1.056238152E1,3.994738683E-3,2.024000883E-2,-3.062632866E-3
1.058265120E1,6.657897960E-3,4.261054564E-3,-1.464737463E-3
1.060292089E1,1.091895252E-2,-3.728422802E-3,-8.921583183E-3
1.062319058E1,1.677790284E-2,-3.728422802E-3,-1.744369231E-2
1.064346026E1,1.571263932E-2,-2.130527282E-3,-2.596580051E-2
1.066372995E1,1.997369342E-2,-1.597895520E-3,-2.703106403E-2
1.068399969E1,2.956106514E-2,-1.597895473E-2,-2.330264263E-2
1.070426933E1,2.956106514E-2,-2.396843210E-2,-2.330264263E-2
1.072453907E1,2.796317078E-2,-9.587372653E-3,-2.969422378E-2
1.074480875E1,3.009369783E-2,-3.195791040E-3,-2.969422378E-2
1.076507844E1,2.796317078E-2,-1.651158556E-2,-2.596580051E-2
1.078534813E1,2.849580161E-2,-2.876211889E-2,-2.330264263E-2
1.080561787E1,3.115896136E-2,-2.769685537E-2,-2.277000993E-2
1.082588756E1,2.956106514E-2,-2.343579940E-2,-2.117211558E-2
1.084615724E1,2.050632425E-2,-2.237053588E-2,-1.957421936E-2
1.086642693E1,9.321057238E-3,-1.757685095E-2,-1.637842879E-2
1.088669662E1,6.125265732E-3,-1.438105945E-2,-1.637842879E-2
1.090696636E1,8.255792782E-3,-1.171789970E-2,-1.371526904E-2
1.092723605E1,7.723161485E-3,-9.054740891E-3,-1.424790081E-2
1.094750573E1,8.255792782E-3,-8.522109129E-3,-1.478053257E-2
1.096777542E1,9.321057238E-3,-7.989477366E-3,-1.691105962E-2
1.098804516E1,6.657897960E-3,-7.989477366E-3,-1.637842879E-2
1.100844516E1,7.989477599E-4,-7.456845604E-3,-1.637842879E-2
1.102858558E1,-6.125265732E-3,-6.924213842E-3,-1.850895584E-2
1.104885506E1,-7.723161485E-3,-3.195791040E-3,-1.904158667E-2
1.106912464E1,-3.462106921E-3,-2.663159044E-3,-1.584579609E-2
1.108939422E1,-2.396843163E-3,-4.793686327E-3,-1.318263728E-2
1.110979422E1,2.929474926E-3,2.130527282E-3,-9.454214945E-3
1.112993349E1,7.989477599E-4,-3.728422802E-3,-6.258423906E-3
1.115020313E1,-4.527370445E-3,-2.663159044E-3,-3.595264861E-3
1.117047271E1,-6.657897960E-3,4.793686327E-3,-9.321057005E-4
1.119074235E1,-8.788425475E-3,9.054740891E-3,2.263685223E-3
1.121114235E1,-9.853689000E-3,7.989477366E-3,5.459476262E-3
1.123128172E1,-1.145158429E-2,8.522109129E-3,6.524739787E-3
1.125155136E1,-7.723161485E-3,7.989477366E-3,9.187898599E-3
1.127182105E1,-5.592633970E-3,9.054740891E-3,1.078579482E-2
1.129209073E1,-7.989477599E-4,3.728422802E-3,1.344895363E-2
1.131249073E1,-2.396843163E-3,-2.130527282E-3,1.291632187E-2
1.133263016E1,-1.331579522E-3,-2.130527282E-3,1.291632187E-2
1.135289985E1,1.864211401E-3,-3.195791040E-3,1.185105834E-2
1.137316943E1,-2.929474926E-3,6.391582079E-3,5.459476262E-3
1.139343922E1,-5.060002208E-3,9.054740891E-3,1.731053460E-3
1.141383922E1,-1.331579522E-3,-1.012000442E-2,6.524739787E-3
1.143397860E1,2.396843163E-3,-2.503369562E-2,7.057371549E-3
1.145424829E1,-2.663159103E-4,-7.456845604E-3,-9.454214945E-3
1.147451802E1,2.663159103E-4,2.183790505E-2,-1.211737376E-2
1.149478771E1,9.853689000E-3,5.858949851E-3,2.263685223E-3
1.151505740E1,-5.060002208E-3,-2.183790505E-2,3.328948980E-3
1.153532709E1,-1.145158429E-2,-1.331579592E-2,-5.193160381E-3
1.155559683E1,1.331579522E-3,4.261054564E-3,-4.127896391E-3
1.157586646E1,1.331579522E-3,1.012000442E-2,-1.464737463E-3
1.159613615E1,-8.255792782E-3,7.456845604E-3,1.331579551E-4
1.161640584E1,-9.853689000E-3,9.587372653E-3,3.861580743E-3
1.163667553E1,-8.788425475E-3,1.225053146E-2,8.122635074E-3
1.165694521E1,2.663159103E-4,6.924213842E-3,1.344895363E-2
1.167721490E1,2.929474926E-3,-3.195791040E-3,1.025316212E-2
1.169761490E1,5.060002208E-3,1.597895520E-3,5.992108025E-3
1.171775532E1,8.255792782E-3,-0.000000000E0,3.861580743E-3
1.173802485E1,5.060002208E-3,-6.391582079E-3,1.198421582E-3
1.175829438E1,7.989477599E-4,-7.989477366E-3,-1.997369342E-3
1.177856396E1,1.864211401E-3,3.728422802E-3,-5.725792143E-3
1.179883355E1,1.331579522E-3,1.118526794E-2,-7.856319658E-3
1.181910308E1,-5.592633970E-3,1.225053146E-2,-6.258423906E-3
1.183937266E1,1.331579522E-3,1.331579592E-2,-4.127896391E-3
1.185964230E1,9.853689000E-3,-0.000000000E0,3.861580743E-3
1.187991193E1,8.255792782E-3,-3.728422802E-3,2.796316985E-3
1.190018157E1,5.060002208E-3,3.195791040E-3,1.198421582E-3
1.192045125E1,2.929474926E-3,6.924213842E-3,2.263685223E-3
1.194072094E1,7.989477599E-4,6.391582079E-3,5.992108025E-3
1.196099063E1,-5.592633970E-3,6.391582079E-3,7.057371549E-3
1.198126032E1,-5.060002208E-3,6.924213842E-3,5.459476262E-3
1.200152995E1,-1.331579522E-3,7.456845604E-3,4.926844500E-3
1.205726209E1,-1.331579522E-3,5.326318205E-4,-3.994738800E-4
1.207747297E1,7.989477599E-4,-5.326318205E-4,-3.994738800E-4
1.209779558E1,-2.663159103E-4,2.663159044E-3,-3.994738800E-4
1.211817016E1,-3.462106921E-3,2.663159044E-3,1.731053460E-3
1.213828662E1,-4.527370445E-3,-2.663159044E-3,4.926844500E-3
1.215855323E1,-2.663159103E-4,-4.793686327E-3,5.992108025E-3
1.217882230E1,1.864211401E-3,5.326318205E-4,3.861580743E-3
1.219909188E1,1.864211401E-3,5.326318205E-4,1.731053460E-3
1.221936157E1,1.864211401E-3,-5.326318205E-4,6.657897611E-4
1.223963120E1,-1.331579522E-3,1.597895520E-3,-1.464737463E-3
1.225990084E1,-3.462106921E-3,2.663159044E-3,-1.464737463E-3
1.228017052E1,-4.527370445E-3,5.326318205E-4,-3.994738800E-4
1.230044016E1,-2.396843163E-3,-3.728422802E-3,6.657897611E-4
1.232070985E1,7.989477599E-4,-1.597895520E-3,-1.464737463E-3
1.234097948E1,3.994738683E-3,2.663159044E-3,-3.595264861E-3
1.236124917E1,1.864211401E-3,5.326318205E-4,-3.595264861E-3
1.238151886E1,-1.331579522E-3,-1.597895520E-3,-1.464737463E-3
1.240178849E1,-1.331579522E-3,-2.663159044E-3,6.657897611E-4
1.242205813E1,7.989477599E-4,-1.597895520E-3,-3.994738800E-4
1.244232782E1,7.989477599E-4,-5.326318205E-4,-1.464737463E-3
1.246259745E1,1.864211401E-3,-5.326318205E-4,-1.464737463E-3
1.248286714E1,-2.663159103E-4,-5.326318205E-4,-3.994738800E-4
1.250313678E1,-2.396843163E-3,5.326318205E-4,-3.994738800E-4
1.252340646E1,-2.663159103E-4,1.597895520E-3,-3.994738800E-4
1.254367610E1,-2.663159103E-4,-1.597895520E-3,6.657897611E-4
1.256407610E1,-1.331579522E-3,-3.728422802E-3,6.657897611E-4
1.258421542E1,1.864211401E-3,-5.326318205E-4,-1.464737463E-3
1.260456375E1,2.929474926E-3,1.597895520E-3,-3.994738800E-4
1.262475485E1,-3.462106921E-3,5.326318205E-4,1.731053460E-3
1.264502448E1,-6.657897960E-3,1.597895520E-3,1.731053460E-3
1.266529412E1,-4.527370445E-3,4.793686327E-3,1.731053460E-3
1.268556375E1,7.989477599E-4,4.793686327E-3,2.796316985E-3
1.270583339E1,5.060002208E-3,-5.326318205E-4,3.861580743E-3
1.272610302E1,3.994738683E-3,-2.663159044E-3,1.731053460E-3
1.274637266E1,7.989477599E-4,-2.663159044E-3,6.657897611E-4
1.276664230E1,-2.396843163E-3,-3.728422802E-3,6.657897611E-4
1.278691193E1,-4.527370445E-3,-1.597895520E-3,-3.994738800E-4
1.280718162E1,-1.331579522E-3,1.597895520E-3,6.657897611E-4
1.282745125E1,7.989477599E-4,1.597895520E-3,2.796316985E-3
1.284772089E1,-2.663159103E-4,-5.326318205E-4,2.796316985E-3
1.286799053E1,7.989477599E-4,-3.728422802E-3,6.657897611E-4
1.288826016E1,1.864211401E-3,-3.728422802E-3,-1.464737463E-3
1.290852980E1,-2.396843163E-3,2.663159044E-3,-3.595264861E-3
1.292879943E1,-6.657897960E-3,2.663159044E-3,-1.464737463E-3
1.294906907E1,-5.592633970E-3,5.326318205E-4,2.796316985E-3
1.296933865E1,1.864211401E-3,-5.326318205E-4,4.926844500E-3
1.298960834E1,7.190529723E-3,1.597895520E-3,2.796316985E-3
1.300987797E1,6.125265732E-3,1.597895520E-3,6.657897611E-4
1.303014761E1,1.864211401E-3,-5.326318205E-4,-3.994738800E-4
1.305041724E1,-1.331579522E-3,1.597895520E-3,-1.464737463E-3
1.307068683E1,-1.331579522E-3,-5.326318205E-4,-3.994738800E-4
1.309095646E1,-1.331579522E-3,-3.728422802E-3,-3.994738800E-4
1.311122610E1,7.989477599E-4,-2.663159044E-3,-3.994738800E-4
1.313149573E1,2.929474926E-3,2.663159044E-3,-1.464737463E-3
1.315176532E1,2.929474926E-3,1.597895520E-3,6.657897611E-4
1.317203495E1,7.989477599E-4,5.326318205E-4,-3.994738800E-4
1.319230459E1,5.060002208E-3,3.728422802E-3,2.796316985E-3
1.321257422E1,1.251684781E-2,-3.728422802E-3,1.131842658E-2
1.323284381E1,1.677790284E-2,-2.183790505E-2,1.664474420E-2
1.325311344E1,1.784316637E-2,-2.503369562E-2,1.451421715E-2
1.327338308E1,1.784316637E-2,-7.989477366E-3,8.122635074E-3
1.329365266E1,1.145158429E-2,1.118526794E-2,2.796316985E-3
1.331405266E1,6.125265732E-3,2.503369562E-2,1.731053460E-3
1.333419188E1,-1.331579522E-3,4.194475710E-2,-2.530001104E-3
1.335446146E1,-1.091895252E-2,5.153212696E-2,-9.986846708E-3
1.337473110E1,-2.050632425E-2,2.290316857E-2,-8.921583183E-3
1.339500073E1,-1.837579720E-2,-3.728422802E-3,-6.791055668E-3
1.341540073E1,-3.462106921E-3,-6.924213842E-3,-3.595264861E-3
1.343553995E1,9.321057238E-3,-1.651158556E-2,8.122635074E-3
1.345580959E1,1.145158429E-2,-2.822948620E-2,1.771000773E-2
1.347607917E1,1.145158429E-2,-1.651158556E-2,1.557948068E-2
1.349634881E1,1.890842989E-2,3.728422802E-3,1.238369010E-2
1.351674881E1,2.316948399E-2,2.663159044E-3,1.771000773E-2
1.353688797E1,1.677790284E-2,-1.012000442E-2,1.877527125E-2
1.355715761E1,3.994738683E-3,-2.077264152E-2,9.187898599E-3
1.357742719E1,-8.788425475E-3,-9.054740891E-3,-5.725792143E-3
1.359769678E1,-6.657897960E-3,2.663159044E-3,-7.856319658E-3
1.361796641E1,-2.663159103E-4,3.728422802E-3,-2.530001104E-3
1.363823599E1,9.321057238E-3,4.793686327E-3,2.796316985E-3
1.365850558E1,1.464737486E-2,-3.728422802E-3,5.992108025E-3
1.367877521E1,1.038632076E-2,-1.331579592E-2,2.796316985E-3
1.369904480E1,6.125265732E-3,-1.438105945E-2,-2.530001104E-3
1.371944480E1,6.125265732E-3,-1.438105945E-2,6.657897611E-4
1.373958402E1,7.190529723E-3,-2.077264152E-2,8.122635074E-3
1.375985360E1,2.929474926E-3,-1.864211448E-2,4.926844500E-3
1.378012318E1,-2.396843163E-3,-5.326318205E-4,-1.464737463E-3
1.380039277E1,-1.198421605E-2,9.054740891E-3,-6.791055668E-3
1.382066235E1,-2.157158963E-2,6.924213842E-3,-6.791055668E-3
1.384093193E1,-1.304947957E-2,-5.326318205E-4,2.796316985E-3
1.386120157E1,-7.723161485E-3,-1.012000442E-2,8.122635074E-3
1.388147115E1,-8.788425475E-3,-7.989477366E-3,3.861580743E-3
1.390174073E1,2.929474926E-3,1.597895520E-3,2.796316985E-3
1.392201032E1,2.316948399E-2,5.326318205E-4,1.238369010E-2
1.394227990E1,2.423474751E-2,-1.597895520E-3,1.877527125E-2
1.396254948E1,3.994738683E-3,1.651158556E-2,1.238369010E-2
1.398281907E1,-1.624527015E-2,2.503369562E-2,-1.464737463E-3
1.400308865E1,-1.411474310E-2,1.970737800E-2,-5.725792143E-3
1.402335823E1,7.989477599E-4,-6.924213842E-3,2.796316985E-3
1.404362782E1,1.251684781E-2,-1.225053146E-2,2.796316985E-3
1.406389740E1,1.038632076E-2,1.597895520E-3,-6.791055668E-3
1.408416698E1,1.864211401E-3,6.924213842E-3,-1.211737376E-2
1.410443657E1,-5.592633970E-3,2.663159044E-3,-1.424790081E-2
1.412483657E1,-6.657897960E-3,-5.326318205E-4,-7.856319658E-3
1.414497573E1,-2.663159103E-4,-7.989477366E-3,6.657897611E-4
1.416524532E1,-1.331579522E-3,-5.858949851E-3,-3.994738800E-4
1.418551490E1,3.994738683E-3,1.597895520E-3,-1.464737463E-3
1.420578448E1,9.321057238E-3,-4.793686327E-3,-3.994738800E-4
1.422605402E1,9.321057238E-3,-1.438105945E-2,2.796316985E-3
1.424632360E1,1.358211134E-2,-1.757685095E-2,3.861580743E-3
1.426659318E1,1.251684781E-2,-1.118526794E-2,-1.464737463E-3
1.428686276E1,6.125265732E-3,-5.858949851E-3,-9.986846708E-3
1.430713235E1,-1.331579522E-3,-4.793686327E-3,-1.211737376E-2
1.432740188E1,-5.592633970E-3,-2.663159044E-3,-1.424790081E-2
1.434767146E1,-3.462106921E-3,2.663159044E-3,-1.424790081E-2
1.436794105E1,1.864211401E-3,5.326318205E-4,-1.211737376E-2
1.438821063E1,7.989477599E-4,-4.793686327E-3,-1.105211023E-2
1.440848016E1,-4.527370445E-3,-6.924213842E-3,-1.105211023E-2
1.442874974E1,-6.657897960E-3,-4.793686327E-3,-8.921583183E-3
1.444901928E1,-6.657897960E-3,-1.597895520E-3,-1.464737463E-3
1.446928886E1,-6.657897960E-3,3.728422802E-3,5.992108025E-3
1.448955839E1,-6.657897960E-3,1.225053146E-2,9.187898599E-3
1.450982797E1,-7.723161485E-3,1.331579592E-2,9.187898599E-3
1.453009756E1,-1.837579720E-2,1.225053146E-2,3.861580743E-3
1.455036709E1,-2.263685316E-2,1.970737800E-2,-3.595264861E-3
1.457063667E1,-1.944106072E-2,1.651158556E-2,-2.530001104E-3
1.459090620E1,-6.657897960E-3,5.858949851E-3,6.657897611E-4
1.461117579E1,-2.396843163E-3,-3.728422802E-3,-2.530001104E-3
1.463144532E1,7.989477599E-4,-6.924213842E-3,-3.595264861E-3
1.465171490E1,1.038632076E-2,-1.118526794E-2,2.796316985E-3
1.467198443E1,1.677790284E-2,-2.077264152E-2,1.238369010E-2
1.469225402E1,1.677790284E-2,-1.331579592E-2,1.557948068E-2
1.471252355E1,1.464737486E-2,1.597895520E-3,1.771000773E-2
1.473279308E1,9.321057238E-3,1.225053146E-2,1.664474420E-2
1.475306266E1,6.125265732E-3,1.331579592E-2,1.344895363E-2
1.477333219E1,3.994738683E-3,1.012000442E-2,7.057371549E-3
1.479360172E1,7.989477599E-4,1.438105945E-2,1.731053460E-3
1.481400172E1,-7.723161485E-3,1.331579592E-2,-3.994738800E-4
1.483414084E1,-1.731053367E-2,1.225053146E-2,-4.660528619E-3
1.485441037E1,-1.518000662E-2,7.989477366E-3,-3.994738800E-4
1.487481037E1,-2.663159103E-4,-3.728422802E-3,5.992108025E-3
1.489494948E1,6.125265732E-3,-1.012000442E-2,5.992108025E-3
1.491534948E1,3.994738683E-3,-6.924213842E-3,2.796316985E-3
1.493548855E1,6.125265732E-3,-3.728422802E-3,1.731053460E-3
1.495575808E1,3.994738683E-3,1.597895520E-3,-3.994738800E-4
1.497602766E1,-3.462106921E-3,1.012000442E-2,-4.660528619E-3
1.499629719E1,-1.198421605E-2,1.225053146E-2,-2.530001104E-3
1.501669719E1,-1.411474310E-2,3.728422802E-3,2.796316985E-3
1.503683625E1,-8.788425475E-3,-2.663159044E-3,4.926844500E-3
1.505710579E1,-1.331579522E-3,1.597895520E-3,3.861580743E-3
1.507737532E1,-1.331579522E-3,2.663159044E-3,4.926844500E-3
1.509764485E1,-3.462106921E-3,-3.728422802E-3,7.057371549E-3
1.511804485E1,-1.331579522E-3,-2.663159044E-3,5.992108025E-3
1.513818391E1,1.864211401E-3,-1.597895520E-3,5.992108025E-3
1.515845349E1,2.929474926E-3,-4.793686327E-3,4.926844500E-3
1.517872303E1,2.929474926E-3,-6.924213842E-3,3.861580743E-3
1.519899256E1,1.864211401E-3,-5.858949851E-3,1.731053460E-3
1.521926209E1,7.989477599E-4,5.858949851E-3,-1.464737463E-3
1.523953157E1,-1.331579522E-3,1.544632297E-2,-5.725792143E-3
1.525980115E1,-1.198421605E-2,3.728422802E-3,-5.725792143E-3
1.528007063E1,-1.518000662E-2,-1.597895520E-3,-2.530001104E-3
1.530034021E1,-7.723161485E-3,1.225053146E-2,1.731053460E-3
1.532060969E1,-3.462106921E-3,1.757685095E-2,5.992108025E-3
1.534087922E1,-8.788425475E-3,7.989477366E-3,9.187898599E-3
1.536114875E1,-1.518000662E-2,4.793686327E-3,9.187898599E-3
1.538141829E1,-1.091895252E-2,6.924213842E-3,9.187898599E-3
1.540168782E1,-4.527370445E-3,2.663159044E-3,8.122635074E-3
1.542195735E1,-5.592633970E-3,6.924213842E-3,2.796316985E-3
1.544222683E1,-4.527370445E-3,1.651158556E-2,-1.464737463E-3
1.546249636E1,-2.663159103E-4,7.989477366E-3,-3.994738800E-4
1.548276589E1,-6.657897960E-3,1.597895520E-3,-3.595264861E-3
1.550303542E1,-6.657897960E-3,4.793686327E-3,-3.595264861E-3
1.552343542E1,-4.527370445E-3,5.858949851E-3,6.657897611E-4
1.554357443E1,-4.527370445E-3,3.728422802E-3,4.926844500E-3
1.556384396E1,7.989477599E-4,-5.326318205E-4,9.187898599E-3
1.558411344E1,2.929474926E-3,-5.858949851E-3,1.025316212E-2
1.560438297E1,1.864211401E-3,-5.858949851E-3,1.025316212E-2
1.562465250E1,-3.462106921E-3,-5.326318205E-4,5.992108025E-3
1.564492204E1,-6.657897960E-3,-5.326318205E-4,7.057371549E-3
1.566519152E1,-1.091895252E-2,-2.663159044E-3,7.057371549E-3
1.568546105E1,-1.304947957E-2,-5.326318205E-4,9.187898599E-3
1.570573053E1,-8.788425475E-3,3.728422802E-3,9.187898599E-3
1.572600006E1,-5.592633970E-3,1.597895520E-3,8.122635074E-3
1.574626954E1,-7.723161485E-3,1.597895520E-3,3.861580743E-3
1.576653907E1,-7.723161485E-3,5.858949851E-3,6.657897611E-4
1.578680860E1,-6.657897960E-3,6.924213842E-3,-3.994738800E-4
1.580707808E1,-1.198421605E-2,1.651158556E-2,-4.660528619E-3
1.582734756E1,-1.411474310E-2,1.757685095E-2,-3.595264861E-3
1.584761709E1,-8.788425475E-3,2.663159044E-3,2.796316985E-3
1.586788657E1,-2.663159103E-4,-6.924213842E-3,7.057371549E-3
1.588815610E1,3.994738683E-3,1.597895520E-3,3.861580743E-3
1.590842558E1,5.060002208E-3,5.858949851E-3,3.861580743E-3
1.592869506E1,3.994738683E-3,-2.663159044E-3,4.926844500E-3
1.594896459E1,3.994738683E-3,-1.597895520E-3,3.861580743E-3
1.596923407E1,2.929474926E-3,6.924213842E-3,-3.994738800E-4
1.598950355E1,-2.663159103E-4,1.438105945E-2,-4.660528619E-3
1.600977302E1,-1.331579522E-3,1.118526794E-2,-4.660528619E-3
1.603004250E1,-3.462106921E-3,2.663159044E-3,-1.464737463E-3
1.605031204E1,-4.527370445E-3,4.793686327E-3,1.731053460E-3
1.607058152E1,-1.331579522E-3,1.225053146E-2,5.992108025E-3
1.609085099E1,7.989477599E-4,9.054740891E-3,1.025316212E-2
1.611112047E1,1.864211401E-3,5.326318205E-4,1.238369010E-2
1.613138995E1,7.190529723E-3,-4.793686327E-3,1.025316212E-2
1.615165943E1,1.038632076E-2,-3.728422802E-3,5.992108025E-3
1.617192891E1,8.255792782E-3,1.597895520E-3,2.796316985E-3
1.619219839E1,7.989477599E-4,1.597895520E-3,-2.530001104E-3
1.621246787E1,-8.788425475E-3,3.728422802E-3,-8.921583183E-3
1.623273735E1,-7.723161485E-3,1.118526794E-2,-9.986846708E-3
1.625300683E1,1.864211401E-3,1.118526794E-2,-5.725792143E-3
1.627327631E1,7.190529723E-3,-1.597895520E-3,-5.725792143E-3
1.629354579E1,6.125265732E-3,-1.651158556E-2,-4.660528619E-3
1.631394579E1,1.251684781E-2,-1.970737800E-2,-3.595264861E-3
1.633408474E1,2.210422046E-2,-1.757685095E-2,-6.791055668E-3
1.635435422E1,2.636527456E-2,-1.651158556E-2,-1.105211023E-2
1.637462365E1,2.530001104E-2,-2.929474972E-2,-8.921583183E-3
1.639489313E1,1.677790284E-2,-3.675159439E-2,-1.105211023E-2
1.641529313E1,1.358211134E-2,-2.290316857E-2,-1.957421936E-2
1.643543209E1,1.784316637E-2,-3.728422802E-3,-2.490053698E-2
1.645570152E1,1.677790284E-2,-1.225053146E-2,-1.850895584E-2
1.647597099E1,1.677790284E-2,-4.207791388E-2,-6.791055668E-3
1.649624058E1,2.316948399E-2,-5.273054913E-2,-7.856319658E-3
1.651664058E1,2.636527456E-2,-2.503369562E-2,-1.637842879E-2
1.653677938E1,2.103895694E-2,5.326318205E-4,-1.637842879E-2
1.655704881E1,7.190529723E-3,-5.326318205E-4,-7.856319658E-3
1.657731829E1,7.989477599E-4,-1.331579592E-2,-1.464737463E-3
1.659758776E1,1.864211401E-3,-1.438105945E-2,-3.994738800E-4
1.661798777E1,2.929474926E-3,-9.054740891E-3,-3.595264861E-3
1.663812667E1,3.994738683E-3,-6.924213842E-3,-5.725792143E-3
1.665839610E1,8.255792782E-3,-6.924213842E-3,-4.660528619E-3
1.667866558E1,9.321057238E-3,-7.989477366E-3,-2.530001104E-3
1.669893500E1,1.358211134E-2,-7.989477366E-3,-3.595264861E-3
1.671933500E1,2.316948399E-2,-1.651158556E-2,-3.595264861E-3
1.673947386E1,2.956106514E-2,-2.290316857E-2,-4.660528619E-3
1.675974334E1,3.062633052E-2,-2.077264152E-2,-5.725792143E-3
1.678001282E1,1.890842989E-2,-2.183790505E-2,-7.856319658E-3
1.680028224E1,1.864211401E-3,-2.503369562E-2,-1.211737376E-2
1.682055167E1,-6.657897960E-3,-2.503369562E-2,-1.318263728E-2
1.684082115E1,2.929474926E-3,-2.929474972E-2,-3.595264861E-3
1.686109058E1,1.251684781E-2,-2.929474972E-2,6.657897611E-4
1.688136000E1,1.677790284E-2,-9.054740891E-3,2.796316985E-3
1.690162943E1,2.210422046E-2,1.597895520E-3,9.187898599E-3
1.692202943E1,1.038632076E-2,5.858949851E-3,5.992108025E-3
1.694216834E1,-1.091895252E-2,1.012000442E-2,-1.464737463E-3
1.696243776E1,-2.583264373E-2,1.225053146E-2,-3.595264861E-3
1.698270719E1,-3.115896136E-2,2.822948620E-2,-6.791055668E-3
1.700297662E1,-2.050632425E-2,3.036001325E-2,-3.994738800E-4
1.702337662E1,-1.411474310E-2,1.597895520E-3,1.238369010E-2
1.704351547E1,-8.788425475E-3,-1.225053146E-2,1.664474420E-2
1.706378490E1,-2.396843163E-3,1.225053146E-2,7.057371549E-3
1.708405433E1,8.255792782E-3,3.555317223E-2,4.926844500E-3
1.710432375E1,2.103895694E-2,4.793686327E-3,2.090579830E-2
1.712459318E1,1.571263932E-2,-2.716422267E-2,2.623211779E-2
1.714486261E1,8.255792782E-3,-1.651158556E-2,1.131842658E-2
1.716513204E1,-1.331579522E-3,1.012000442E-2,-1.105211023E-2
1.718540146E1,-1.411474310E-2,1.651158556E-2,-1.744369231E-2
1.720567089E1,-1.731053367E-2,-7.989477366E-3,-3.595264861E-3
1.722594032E1,-1.198421605E-2,-1.118526794E-2,1.731053460E-3
1.724620974E1,-1.331579522E-3,1.597895520E-3,-3.994738800E-4
1.726647917E1,-4.527370445E-3,4.793686327E-3,-7.856319658E-3
1.728674860E1,-1.304947957E-2,6.924213842E-3,-1.318263728E-2
1.730701802E1,-6.657897960E-3,-4.793686327E-3,-2.530001104E-3
1.732728740E1,3.994738683E-3,-1.331579592E-2,5.992108025E-3
1.734755683E1,2.929474926E-3,-4.793686327E-3,1.731053460E-3
1.736782625E1,-7.723161485E-3,6.924213842E-3,-8.921583183E-3
1.738809568E1,-1.091895252E-2,1.544632297E-2,-1.424790081E-2
1.740836506E1,-3.462106921E-3,9.054740891E-3,-3.994738800E-4
1.742863448E1,3.994738683E-3,5.858949851E-3,1.025316212E-2
1.744890391E1,7.989477599E-4,1.331579592E-2,1.131842658E-2
1.746917329E1,-7.723161485E-3,1.544632297E-2,3.861580743E-3
1.748944271E1,-6.657897960E-3,2.396843210E-2,-5.725792143E-3
1.750971209E1,1.864211401E-3,1.331579592E-2,1.731053460E-3
1.752998152E1,9.321057238E-3,-5.326318205E-4,5.992108025E-3
1.755025094E1,5.060002208E-3,-7.989477366E-3,-2.530001104E-3
1.757052032E1,-2.396843163E-3,-6.924213842E-3,-1.318263728E-2
1.759078974E1,-2.663159103E-4,-4.793686327E-3,-1.211737376E-2
1.761105912E1,5.060002208E-3,-1.118526794E-2,-3.595264861E-3
1.763132855E1,3.994738683E-3,-1.118526794E-2,6.657897611E-4
1.765159792E1,7.989477599E-4,1.597895520E-3,-1.464737463E-3
1.767186735E1,7.989477599E-4,7.989477366E-3,-2.530001104E-3
1.769213672E1,6.125265732E-3,5.326318205E-4,-3.994738800E-4
1.771240610E1,7.190529723E-3,-7.989477366E-3,1.731053460E-3
1.773267552E1,3.994738683E-3,-6.924213842E-3,1.731053460E-3
1.775294490E1,6.125265732E-3,-1.597895520E-3,1.731053460E-3
1.777321428E1,7.190529723E-3,-5.326318205E-4,-3.994738800E-4
1.779348365E1,5.060002208E-3,-4.793686327E-3,-3.595264861E-3
1.781388365E1,-2.663159103E-4,-3.728422802E-3,-5.725792143E-3
1.783402245E1,-4.527370445E-3,-4.793686327E-3,-7.856319658E-3
1.785429183E1,-3.462106921E-3,5.326318205E-4,-6.791055668E-3
1.787456125E1,-2.396843163E-3,5.326318205E-4,-2.530001104E-3
1.789483063E1,-2.663159103E-4,-7.989477366E-3,-1.464737463E-3
1.791523063E1,1.864211401E-3,-1.012000442E-2,-3.994738800E-4
1.793536938E1,-2.663159103E-4,-5.858949851E-3,1.731053460E-3
1.795563875E1,-6.657897960E-3,2.663159044E-3,6.657897611E-4
1.797603875E1,-1.091895252E-2,1.544632297E-2,-1.464737463E-3
1.799617750E1,-1.624527015E-2,1.225053146E-2,-1.464737463E-3
1.801657750E1,-1.837579720E-2,-6.924213842E-3,-2.530001104E-3
1.803671625E1,-8.788425475E-3,-1.331579592E-2,-6.791055668E-3
1.805711625E1,-2.663159103E-4,-3.728422802E-3,-7.856319658E-3
1.807725506E1,5.060002208E-3,-4.793686327E-3,5.992108025E-3
1.809752443E1,1.864211401E-3,-1.544632297E-2,1.557948068E-2
1.811792443E1,-1.331579522E-3,-7.989477366E-3,1.344895363E-2
1.813806318E1,-2.663159103E-4,7.989477366E-3,7.057371549E-3
1.815833256E1,-9.853689000E-3,1.757685095E-2,2.796316985E-3
1.817860193E1,-1.624527015E-2,1.651158556E-2,-3.994738800E-4
1.819887131E1,-1.198421605E-2,6.924213842E-3,-3.595264861E-3
1.821914063E1,-5.592633970E-3,2.663159044E-3,-6.791055668E-3
1.823941000E1,7.989477599E-4,-9.054740891E-3,-3.595264861E-3
1.825967938E1,5.060002208E-3,-1.544632297E-2,1.731053460E-3
1.827994875E1,1.145158429E-2,-9.054740891E-3,5.992108025E-3
1.830021813E1,1.677790284E-2,-5.326318205E-4,1.238369010E-2
1.832061813E1,1.038632076E-2,7.989477366E-3,1.025316212E-2
1.834075683E1,1.864211401E-3,1.331579592E-2,9.187898599E-3
1.836102620E1,-4.527370445E-3,5.858949851E-3,1.025316212E-2
1.838129553E1,-9.853689000E-3,1.012000442E-2,3.861580743E-3
1.840156490E1,-8.788425475E-3,1.012000442E-2,1.731053460E-3
1.842183428E1,-7.723161485E-3,1.597895520E-3,1.731053460E-3
1.844210360E1,-1.091895252E-2,3.728422802E-3,-4.660528619E-3
1.846237297E1,-9.853689000E-3,1.225053146E-2,-6.791055668E-3
1.848264235E1,-5.592633970E-3,1.118526794E-2,-3.595264861E-3
1.850291172E1,-2.396843163E-3,3.728422802E-3,-3.994738800E-4
1.852318105E1,1.864211401E-3,-1.597895520E-3,1.731053460E-3
1.854345037E1,5.060002208E-3,-4.793686327E-3,2.796316985E-3
1.856371974E1,3.994738683E-3,1.597895520E-3,6.657897611E-4
1.858398907E1,2.929474926E-3,6.924213842E-3,3.861580743E-3
1.860425844E1,-2.396843163E-3,9.054740891E-3,7.057371549E-3
1.862452776E1,-1.198421605E-2,1.438105945E-2,3.861580743E-3
1.864479714E1,-1.411474310E-2,2.077264152E-2,1.731053460E-3
1.866506646E1,-8.788425475E-3,1.544632297E-2,3.861580743E-3
1.868533584E1,-4.527370445E-3,1.012000442E-2,3.861580743E-3
1.870560511E1,-5.592633970E-3,7.989477366E-3,7.057371549E-3
1.872587448E1,-4.527370445E-3,2.663159044E-3,1.025316212E-2
1.874614386E1,-3.462106921E-3,-2.663159044E-3,1.131842658E-2
1.876641318E1,-2.396843163E-3,-7.989477366E-3,1.451421715E-2
1.878668256E1,2.929474926E-3,-1.012000442E-2,1.771000773E-2
1.880695188E1,7.190529723E-3,4.793686327E-3,1.451421715E-2
1.882722120E1,2.929474926E-3,1.970737800E-2,9.187898599E-3
1.884749052E1,-7.723161485E-3,1.970737800E-2,5.992108025E-3
1.886775985E1,-1.411474310E-2,3.728422802E-3,8.122635074E-3
1.888802922E1,-1.411474310E-2,-9.054740891E-3,5.992108025E-3
1.890829855E1,-1.411474310E-2,7.989477366E-3,-3.595264861E-3
1.892856787E1,-1.091895252E-2,1.438105945E-2,-1.464737463E-3
1.894883719E1,-5.592633970E-3,-7.989477366E-3,1.238369010E-2
1.896910652E1,2.929474926E-3,-2.396843210E-2,2.197106183E-2
1.898937584E1,1.464737486E-2,-2.077264152E-2,2.090579830E-2
1.900964516E1,1.251684781E-2,5.326318205E-4,8.122635074E-3
1.903004516E1,-1.411474310E-2,2.183790505E-2,-1.211737376E-2
1.905018381E1,-3.648528084E-2,2.929474972E-2,-1.531316526E-2
1.907045313E1,-3.115896136E-2,1.118526794E-2,1.731053460E-3
1.909072250E1,-1.518000662E-2,-7.989477366E-3,1.238369010E-2
1.911099183E1,-8.788425475E-3,4.793686327E-3,2.796316985E-3
1.913126115E1,-1.304947957E-2,2.822948620E-2,-1.424790081E-2
1.915153042E1,-6.657897960E-3,2.396843210E-2,-7.856319658E-3
1.917179974E1,6.125265732E-3,-2.077264152E-2,1.451421715E-2
1.919206907E1,1.038632076E-2,-2.503369562E-2,1.557948068E-2
1.921233839E1,1.358211134E-2,1.597895520E-3,9.187898599E-3
1.923260771E1,1.251684781E-2,6.924213842E-3,5.992108025E-3
1.925287704E1,-1.331579522E-3,1.597895520E-3,6.657897611E-4
1.927314636E1,-1.091895252E-2,6.924213842E-3,-6.791055668E-3
1.929341563E1,-7.723161485E-3,1.118526794E-2,-5.725792143E-3
1.931381563E1,-2.396843163E-3,5.858949851E-3,-3.994738800E-4
1.933395428E1,1.864211401E-3,2.663159044E-3,1.731053460E-3
1.935422360E1,1.864211401E-3,2.663159044E-3,6.657897611E-4
1.937449292E1,-3.462106921E-3,6.924213842E-3,-3.994738800E-4
1.939476219E1,-3.462106921E-3,7.989477366E-3,4.926844500E-3
1.941516219E1,-2.663159103E-4,1.597895520E-3,1.025316212E-2
1.943530084E1,-2.663159103E-4,3.728422802E-3,7.057371549E-3
1.945557011E1,7.989477599E-4,1.225053146E-2,2.796316985E-3
1.947583943E1,-2.663159103E-4,1.225053146E-2,6.657897611E-4
1.949610870E1,-4.527370445E-3,5.858949851E-3,6.657897611E-4
1.951650870E1,-2.396843163E-3,3.728422802E-3,2.796316985E-3
1.953664735E1,2.929474926E-3,9.054740891E-3,2.796316985E-3
1.955691662E1,3.994738683E-3,2.077264152E-2,-3.994738800E-4
1.957718594E1,1.864211401E-3,2.077264152E-2,-1.464737463E-3
1.959745521E1,-2.663159103E-4,1.651158556E-2,-3.994738800E-4
1.961785521E1,3.994738683E-3,1.970737800E-2,-3.994738800E-4
1.963799381E1,7.989477599E-4,1.864211448E-2,-3.595264861E-3
1.965826313E1,-2.396843163E-3,1.651158556E-2,-3.595264861E-3
1.967853240E1,7.989477599E-4,9.054740891E-3,6.657897611E-4
1.969880172E1,2.929474926E-3,2.663159044E-3,1.731053460E-3
1.971920172E1,3.994738683E-3,6.924213842E-3,-3.994738800E-4
1.973934032E1,1.864211401E-3,-5.326318205E-4,2.796316985E-3
1.975960959E1,-2.396843163E-3,-3.728422802E-3,2.796316985E-3
1.977987891E1,-1.331579522E-3,-4.793686327E-3,2.796316985E-3
1.980014818E1,1.864211401E-3,-1.438105945E-2,5.992108025E-3
1.982041750E1,1.864211401E-3,-1.331579592E-2,5.992108025E-3
1.984068678E1,-1.331579522E-3,-7.989477366E-3,5.992108025E-3
1.986095610E1,7.989477599E-4,-1.225053146E-2,4.926844500E-3
1.988122537E1,3.994738683E-3,-1.438105945E-2,-3.994738800E-4
1.990149469E1,5.060002208E-3,-1.438105945E-2,-6.791055668E-3
1.992176396E1,6.125265732E-3,-2.183790505E-2,-5.725792143E-3
1.994203329E1,1.358211134E-2,-3.142527863E-2,-3.595264861E-3
1.996230256E1,1.890842989E-2,-3.036001325E-2,-8.921583183E-3
1.998257183E1,1.358211134E-2,-1.757685095E-2,-1.744369231E-2
2.000284115E1,8.255792782E-3,-7.989477366E-3,-1.744369231E-2
2.002311042E1,6.125265732E-3,-1.757685095E-2,-1.105211023E-2
2.004337974E1,6.125265732E-3,-2.290316857E-2,-8.921583183E-3
2.006364902E1,1.251684781E-2,-1.970737800E-2,-6.791055668E-3
2.008391829E1,1.358211134E-2,-1.225053146E-2,-9.986846708E-3
2.010418761E1,9.321057238E-3,-2.663159044E-3,-1.531316526E-2
2.012445688E1,1.038632076E-2,-1.597895520E-3,-1.424790081E-2
2.014472620E1,1.358211134E-2,-1.544632297E-2,-8.921583183E-3
2.016499547E1,1.464737486E-2,-1.651158556E-2,-8.921583183E-3
2.018526474E1,1.464737486E-2,-2.663159044E-3,-1.424790081E-2
2.020553407E1,1.890842989E-2,-1.597895520E-3,-1.211737376E-2
2.022580334E1,1.997369342E-2,-1.544632297E-2,-1.105211023E-2
2.024607261E1,1.464737486E-2,-2.183790505E-2,-1.424790081E-2
2.026634193E1,1.677790284E-2,-1.438105945E-2,-1.637842879E-2
2.028661120E1,1.997369342E-2,-1.012000442E-2,-1.211737376E-2
2.030688052E1,1.784316637E-2,-1.225053146E-2,-6.791055668E-3
2.032714980E1,1.145158429E-2,-6.924213842E-3,-1.105211023E-2
2.034741907E1,7.190529723E-3,-2.663159044E-3,-1.318263728E-2
2.036768839E1,1.038632076E-2,-9.054740891E-3,-7.856319658E-3
2.038795766E1,1.464737486E-2,-1.012000442E-2,-4.660528619E-3
2.040822693E1,1.677790284E-2,-1.118526794E-2,-3.595264861E-3
2.042849625E1,1.784316637E-2,-1.651158556E-2,-5.725792143E-3
2.044876553E1,1.464737486E-2,-1.651158556E-2,-9.986846708E-3
2.046903480E1,1.251684781E-2,-1.331579592E-2,-1.211737376E-2
2.048930412E1,1.251684781E-2,-6.924213842E-3,-1.105211023E-2
2.050957339E1,8.255792782E-3,-1.012000442E-2,-5.725792143E-3
2.052984271E1,1.864211401E-3,-1.225053146E-2,-3.595264861E-3
2.055011198E1,1.864211401E-3,-1.012000442E-2,-2.530001104E-3
2.057038125E1,2.929474926E-3,-7.989477366E-3,-1.464737463E-3
2.059065058E1,-2.663159103E-4,-6.924213842E-3,-1.464737463E-3
2.061091985E1,-2.396843163E-3,5.326318205E-4,-3.595264861E-3
2.063118912E1,-2.396843163E-3,6.924213842E-3,-1.464737463E-3
2.065145844E1,-2.396843163E-3,3.728422802E-3,4.926844500E-3
2.067172771E1,-3.462106921E-3,-1.597895520E-3,8.122635074E-3
2.069199698E1,-6.657897960E-3,-5.326318205E-4,4.926844500E-3
2.071226625E1,-8.788425475E-3,1.012000442E-2,-1.464737463E-3
2.073253558E1,-9.853689000E-3,1.864211448E-2,6.657897611E-4
2.075280485E1,-5.592633970E-3,1.012000442E-2,1.025316212E-2
2.077307412E1,-3.462106921E-3,-1.597895520E-3,1.344895363E-2
2.079334344E1,-2.396843163E-3,4.793686327E-3,7.057371549E-3
2.081373146E1,-1.331579522E-3,1.864211448E-2,-3.994738800E-4
2.083376365E1,-1.331579522E-3,1.331579592E-2,1.731053460E-3
2.085415162E1,-5.592633970E-3,5.326318205E-4,3.861580743E-3
2.087442047E1,-5.592633970E-3,-1.597895520E-3,1.731053460E-3
2.089468974E1,-1.331579522E-3,-1.597895520E-3,6.657897611E-4
2.091508974E1,1.864211401E-3,-6.924213842E-3,2.796316985E-3
2.093522834E1,1.864211401E-3,-1.225053146E-2,3.861580743E-3
2.095549766E1,-1.331579522E-3,-1.597895520E-3,1.731053460E-3
2.097576693E1,-4.527370445E-3,2.663159044E-3,3.861580743E-3
2.099603620E1,-8.788425475E-3,-9.054740891E-3,7.057371549E-3
2.101643620E1,-9.853689000E-3,-9.054740891E-3,2.796316985E-3
2.103657474E1,-3.462106921E-3,1.438105945E-2,-6.791055668E-3
2.105684407E1,5.060002208E-3,1.757685095E-2,-6.791055668E-3
2.107711334E1,6.125265732E-3,-1.597895520E-3,6.657897611E-4
2.109738266E1,-2.663159103E-4,-1.544632297E-2,6.657897611E-4
2.111778266E1,-2.663159103E-4,-3.728422802E-3,-3.595264861E-3
2.113792125E1,3.994738683E-3,7.989477366E-3,-1.464737463E-3
2.115819053E1,-2.663159103E-4,4.793686327E-3,2.796316985E-3
2.117845980E1,-2.396843163E-3,5.326318205E-4,3.861580743E-3
2.119872907E1,7.989477599E-4,5.326318205E-4,5.992108025E-3
2.121899834E1,2.929474926E-3,4.793686327E-3,1.731053460E-3
2.123926761E1,-3.462106921E-3,9.054740891E-3,-3.595264861E-3
2.125953693E1,-6.657897960E-3,4.793686327E-3,-3.595264861E-3
2.127980620E1,-3.462106921E-3,-5.858949851E-3,-3.994738800E-4
2.130007547E1,-2.663159103E-4,-6.924213842E-3,-3.994738800E-4
2.132034474E1,5.060002208E-3,-1.597895520E-3,-4.660528619E-3
2.134061402E1,3.994738683E-3,3.728422802E-3,-6.791055668E-3
2.136088329E1,-2.663159103E-4,1.597895520E-3,-5.725792143E-3
2.138115256E1,-3.462106921E-3,1.597895520E-3,-1.464737463E-3
2.140142183E1,-1.331579522E-3,2.663159044E-3,2.796316985E-3
2.142182183E1,-2.663159103E-4,3.728422802E-3,1.731053460E-3
2.144196042E1,-2.663159103E-4,5.858949851E-3,-3.994738800E-4
2.146222969E1,-2.396843163E-3,3.728422802E-3,-3.994738800E-4
2.148249896E1,-1.331579522E-3,1.597895520E-3,2.796316985E-3
2.150276823E1,1.864211401E-3,-4.793686327E-3,5.992108025E-3
2.152303750E1,1.864211401E-3,-2.663159044E-3,4.926844500E-3
2.154330678E1,1.864211401E-3,2.663159044E-3,1.731053460E-3
2.156357605E1,-1.331579522E-3,7.989477366E-3,6.657897611E-4
2.158384532E1,-2.396843163E-3,7.989477366E-3,2.796316985E-3
2.160411459E1,-6.657897960E-3,3.728422802E-3,1.731053460E-3
2.162438386E1,-6.657897960E-3,5.858949851E-3,6.657897611E-4
2.164465313E1,1.864211401E-3,1.597895520E-3,6.657897611E-4
2.166492245E1,6.125265732E-3,-5.326318205E-4,-3.994738800E-4
2.168519172E1,5.060002208E-3,4.793686327E-3,-2.530001104E-3
2.170546099E1,-2.663159103E-4,5.858949851E-3,-3.994738800E-4
2.172573027E1,-1.331579522E-3,1.597895520E-3,3.861580743E-3
2.174599954E1,-1.331579522E-3,-5.858949851E-3,4.926844500E-3
2.176626881E1,7.989477599E-4,-5.326318205E-4,2.796316985E-3
2.178653808E1,2.929474926E-3,5.858949851E-3,6.657897611E-4
2.180680735E1,-2.663159103E-4,4.793686327E-3,-2.530001104E-3
2.182707662E1,-1.331579522E-3,2.663159044E-3,-1.464737463E-3
2.184734589E1,-1.331579522E-3,-5.858949851E-3,6.657897611E-4
2.186761516E1,-1.331579522E-3,-7.989477366E-3,6.657897611E-4
2.188788443E1,-1.331579522E-3,-1.118526794E-2,6.657897611E-4
2.190815370E1,-2.663159103E-4,-7.989477366E-3,-1.464737463E-3
2.192842297E1,-2.396843163E-3,-2.663159044E-3,-3.595264861E-3
2.194869224E1,-7.723161485E-3,-5.326318205E-4,-3.595264861E-3
2.196896152E1,-7.723161485E-3,-5.858949851E-3,6.657897611E-4
2.198923079E1,-1.331579522E-3,-5.858949851E-3,4.926844500E-3
2.200950006E1,1.864211401E-3,-6.924213842E-3,7.057371549E-3
2.202976933E1,2.929474926E-3,-1.597895520E-3,3.861580743E-3
2.205003860E1,-1.331579522E-3,6.924213842E-3,-1.464737463E-3
2.207030787E1,-5.592633970E-3,3.728422802E-3,-2.530001104E-3
2.209057714E1,-3.462106921E-3,-2.663159044E-3,-3.994738800E-4
2.211084641E1,-2.663159103E-4,-5.858949851E-3,-2.530001104E-3
2.213111563E1,1.864211401E-3,-3.728422802E-3,-2.530001104E-3
2.215138490E1,7.989477599E-4,1.597895520E-3,-1.464737463E-3
2.217165417E1,-1.331579522E-3,4.793686327E-3,2.796316985E-3
2.219192344E1,-1.331579522E-3,1.597895520E-3,7.057371549E-3
2.221219271E1,-2.396843163E-3,5.326318205E-4,8.122635074E-3
2.223246198E1,-1.331579522E-3,1.597895520E-3,5.992108025E-3
2.225273125E1,5.060002208E-3,3.728422802E-3,6.657897611E-4
2.227300052E1,7.190529723E-3,5.326318205E-4,-3.994738800E-4
2.229326974E1,3.994738683E-3,-5.858949851E-3,6.657897611E-4
2.231357829E1,-2.663159103E-4,-4.793686327E-3,6.657897611E-4
2.233380834E1,-1.331579522E-3,5.326318205E-4,1.731053460E-3
2.235407761E1,-2.663159103E-4,2.663159044E-3,-3.994738800E-4
2.237434678E1,-3.462106921E-3,3.728422802E-3,6.657897611E-4
2.239461605E1,-4.527370445E-3,6.924213842E-3,2.796316985E-3
2.241501605E1,-2.396843163E-3,4.793686327E-3,1.731053460E-3
2.243515459E1,-1.331579522E-3,-1.597895520E-3,2.796316985E-3
2.245542386E1,7.989477599E-4,-1.597895520E-3,6.657897611E-4
2.247569302E1,-2.663159103E-4,5.326318205E-4,-1.464737463E-3
2.249596235E1,-2.396843163E-3,1.597895520E-3,-1.464737463E-3
2.251636235E1,7.989477599E-4,2.663159044E-3,-3.994738800E-4
2.253650084E1,5.060002208E-3,5.326318205E-4,-1.464737463E-3
2.255677011E1,2.929474926E-3,5.326318205E-4,-2.530001104E-3
2.257703938E1,7.989477599E-4,5.326318205E-4,-4.660528619E-3
2.259730860E1,-2.663159103E-4,-5.326318205E-4,-1.464737463E-3
2.261770860E1,-1.331579522E-3,-2.663159044E-3,-1.464737463E-3
2.263784709E1,-2.396843163E-3,5.326318205E-4,-3.595264861E-3
2.265811636E1,7.989477599E-4,2.663159044E-3,-1.464737463E-3
2.267838563E1,1.864211401E-3,5.326318205E-4,-3.994738800E-4
2.269865485E1,3.994738683E-3,-1.597895520E-3,1.731053460E-3
2.271905485E1,6.125265732E-3,-5.326318205E-4,1.731053460E-3
2.273919339E1,2.929474926E-3,-5.326318205E-4,1.731053460E-3
2.275946261E1,1.864211401E-3,-1.597895520E-3,1.731053460E-3
2.277973188E1,-1.331579522E-3,-1.597895520E-3,6.657897611E-4
2.280000110E1,-4.527370445E-3,5.326318205E-4,1.731053460E-3
2.282027037E1,-6.657897960E-3,-5.326318205E-4,4.926844500E-3
2.284053959E1,-7.723161485E-3,-1.597895520E-3,4.926844500E-3
2.286080886E1,-2.663159103E-4,-3.728422802E-3,3.861580743E-3
2.288107808E1,7.190529723E-3,-7.989477366E-3,2.796316985E-3
2.290134735E1,6.125265732E-3,-9.054740891E-3,1.731053460E-3
2.292161657E1,7.989477599E-4,-6.924213842E-3,1.731053460E-3
2.294188584E1,-3.462106921E-3,-3.728422802E-3,2.796316985E-3
2.296215506E1,-5.592633970E-3,2.663159044E-3,2.796316985E-3
2.298242428E1,-3.462106921E-3,4.793686327E-3,3.861580743E-3
2.300269355E1,7.989477599E-4,-1.597895520E-3,5.992108025E-3
2.302296277E1,1.864211401E-3,-5.858949851E-3,4.926844500E-3
2.304323198E1,6.125265732E-3,-5.858949851E-3,1.731053460E-3
2.306350115E1,7.190529723E-3,-1.597895520E-3,-1.464737463E-3
2.308377047E1,1.864211401E-3,3.728422802E-3,-2.530001104E-3
2.310403969E1,-2.396843163E-3,-5.326318205E-4,1.731053460E-3
2.312430891E1,-4.527370445E-3,1.597895520E-3,1.731053460E-3
2.314457813E1,-2.396843163E-3,5.858949851E-3,-3.994738800E-4
2.316484735E1,2.929474926E-3,1.597895520E-3,6.657897611E-4
2.318511662E1,2.929474926E-3,-2.663159044E-3,2.796316985E-3
2.320538584E1,-2.663159103E-4,-2.663159044E-3,3.861580743E-3
2.322565506E1,-1.331579522E-3,-5.326318205E-4,4.926844500E-3
2.324592428E1,-3.462106921E-3,5.326318205E-4,4.926844500E-3
2.326619349E1,-5.592633970E-3,4.793686327E-3,1.731053460E-3
2.328646277E1,-5.592633970E-3,5.858949851E-3,1.731053460E-3
2.330673198E1,-4.527370445E-3,1.597895520E-3,4.926844500E-3
2.332700120E1,-4.527370445E-3,-5.326318205E-4,5.992108025E-3
2.334727042E1,-2.396843163E-3,5.858949851E-3,4.926844500E-3
2.336753964E1,-2.663159103E-4,1.118526794E-2,4.926844500E-3
2.338780886E1,-4.527370445E-3,7.989477366E-3,4.926844500E-3
2.340807813E1,-6.657897960E-3,6.924213842E-3,3.861580743E-3
2.342834735E1,-3.462106921E-3,6.924213842E-3,2.796316985E-3
2.344861657E1,-5.592633970E-3,7.989477366E-3,2.796316985E-3
2.346888579E1,-8.788425475E-3,1.012000442E-2,1.731053460E-3
2.348915500E1,-9.853689000E-3,9.054740891E-3,3.861580743E-3
2.350942422E1,-7.723161485E-3,7.989477366E-3,5.992108025E-3
2.352969344E1,-1.331579522E-3,6.924213842E-3,9.187898599E-3
2.354996266E1,7.989477599E-4,5.858949851E-3,7.057371549E-3
2.357023188E1,-1.331579522E-3,4.793686327E-3,4.926844500E-3
2.359050110E1,-4.527370445E-3,6.924213842E-3,4.926844500E-3
2.361077032E1,-7.723161485E-3,4.793686327E-3,5.992108025E-3
2.363103954E1,-8.788425475E-3,-1.597895520E-3,9.187898599E-3
2.365130875E1,-5.592633970E-3,-2.663159044E-3,1.131842658E-2
2.367157797E1,-4.527370445E-3,3.728422802E-3,1.025316212E-2
2.369184719E1,-4.527370445E-3,5.858949851E-3,1.131842658E-2
2.371211636E1,-5.592633970E-3,4.793686327E-3,1.238369010E-2
2.373238558E1,-9.853689000E-3,4.793686327E-3,9.187898599E-3
2.375265480E1,-1.198421605E-2,7.989477366E-3,8.122635074E-3
2.377292402E1,-1.198421605E-2,6.924213842E-3,5.992108025E-3
2.379319323E1,-1.091895252E-2,3.728422802E-3,7.057371549E-3
2.381359323E1,-4.527370445E-3,-2.663159044E-3,8.122635074E-3
2.383373167E1,1.864211401E-3,-5.858949851E-3,8.122635074E-3
2.385400084E1,1.864211401E-3,-2.663159044E-3,4.926844500E-3
2.387427006E1,-2.396843163E-3,4.793686327E-3,1.731053460E-3
2.389453928E1,-5.592633970E-3,2.663159044E-3,1.731053460E-3
2.391493928E1,-7.723161485E-3,-5.326318205E-4,1.731053460E-3
2.393507766E1,-7.723161485E-3,5.326318205E-4,1.731053460E-3
2.395534688E1,-6.657897960E-3,6.924213842E-3,-3.994738800E-4
2.397561610E1,-3.462106921E-3,2.663159044E-3,3.861580743E-3
2.399588532E1,-2.396843163E-3,-4.793686327E-3,5.992108025E-3
2.401628532E1,-2.663159103E-4,-2.663159044E-3,4.926844500E-3
2.403642370E1,2.929474926E-3,-5.326318205E-4,4.926844500E-3
2.405669292E1,1.864211401E-3,1.597895520E-3,4.926844500E-3
2.407696209E1,2.929474926E-3,5.326318205E-4,3.861580743E-3
2.409723131E1,-1.331579522E-3,-1.597895520E-3,-3.994738800E-4
2.411763131E1,-6.657897960E-3,5.326318205E-4,-3.994738800E-4
2.413776969E1,-7.723161485E-3,3.728422802E-3,1.731053460E-3
2.415803891E1,-6.657897960E-3,4.793686327E-3,7.057371549E-3
2.417830808E1,-5.592633970E-3,1.012000442E-2,7.057371549E-3
2.419857730E1,-5.592633970E-3,1.864211448E-2,2.796316985E-3
2.421884646E1,-4.527370445E-3,1.118526794E-2,5.992108025E-3
2.423911568E1,-1.331579522E-3,-6.924213842E-3,1.131842658E-2
2.425938485E1,7.989477599E-4,-1.012000442E-2,1.025316212E-2
2.427965407E1,2.929474926E-3,-4.793686327E-3,5.992108025E-3
2.429992323E1,-1.331579522E-3,3.728422802E-3,6.657897611E-4
2.432019245E1,-3.462106921E-3,5.858949851E-3,-1.464737463E-3
2.434046162E1,-3.462106921E-3,5.326318205E-4,-3.994738800E-4
2.436073084E1,-2.396843163E-3,1.597895520E-3,-3.994738800E-4
2.438100000E1,7.989477599E-4,6.924213842E-3,-3.994738800E-4
2.440126917E1,2.929474926E-3,6.924213842E-3,2.796316985E-3
2.442166917E1,2.929474926E-3,5.858949851E-3,5.992108025E-3
2.444180756E1,5.060002208E-3,2.663159044E-3,5.992108025E-3
2.446207672E1,1.038632076E-2,-5.326318205E-4,2.796316985E-3
2.448234584E1,1.677790284E-2,-9.054740891E-3,6.657897611E-4
2.450261511E1,1.784316637E-2,-1.651158556E-2,-3.595264861E-3
2.452288428E1,1.677790284E-2,-1.438105945E-2,-8.921583183E-3
2.454315344E1,1.358211134E-2,-1.225053146E-2,-1.424790081E-2
2.456342256E1,1.038632076E-2,-1.757685095E-2,-1.744369231E-2
2.458369183E1,1.038632076E-2,-1.970737800E-2,-1.744369231E-2
2.460396099E1,1.145158429E-2,-1.651158556E-2,-1.850895584E-2
2.462423016E1,1.145158429E-2,-1.118526794E-2,-1.744369231E-2
2.464449933E1,2.316948399E-2,-1.118526794E-2,-7.856319658E-3
2.466476849E1,3.488738462E-2,-1.864211448E-2,6.657897611E-4
2.468503766E1,3.169159219E-2,-2.609895915E-2,3.861580743E-3
2.470530688E1,3.062633052E-2,-2.183790505E-2,-3.994738800E-4
2.472557605E1,3.488738462E-2,-2.929474972E-2,1.731053460E-3
2.474584521E1,3.062633052E-2,-4.314317927E-2,5.992108025E-3
2.476611438E1,1.997369342E-2,-3.675159439E-2,-2.530001104E-3
2.478638355E1,1.784316637E-2,-2.077264152E-2,-7.856319658E-3
2.480665271E1,2.103895694E-2,-2.503369562E-2,-2.530001104E-3
2.482692188E1,2.210422046E-2,-2.396843210E-2,-3.595264861E-3
2.484719105E1,2.849580161E-2,-1.225053146E-2,-5.725792143E-3
2.486746021E1,3.808317333E-2,-1.012000442E-2,-3.994738800E-4
2.488772938E1,3.488738462E-2,-1.438105945E-2,1.731053460E-3
2.490799855E1,1.784316637E-2,-9.054740891E-3,-6.791055668E-3
2.492826771E1,5.060002208E-3,6.924213842E-3,-1.531316526E-2
2.494853688E1,7.989477599E-4,5.326318205E-4,-1.531316526E-2
2.496880599E1,-6.657897960E-3,-6.924213842E-3,-2.063948289E-2
2.498907516E1,-1.624527015E-2,-4.793686327E-3,-3.448791057E-2
2.500934433E1,-4.527370445E-3,-1.544632297E-2,-3.022685647E-2
2.502961349E1,1.677790284E-2,-2.396843210E-2,-1.424790081E-2
2.504988266E1,1.997369342E-2,-1.331579592E-2,-1.105211023E-2
2.507015183E1,1.864211401E-3,3.728422802E-3,-1.850895584E-2
2.509042099E1,-4.527370445E-3,3.728422802E-3,-1.424790081E-2
2.511069016E1,6.125265732E-3,-5.858949851E-3,-3.595264861E-3
2.513095933E1,8.255792782E-3,-2.663159044E-3,-3.994738800E-4
2.515118907E1,6.125265732E-3,1.597895520E-3,-3.994738800E-4
2.517149756E1,-2.663159103E-4,-1.597895520E-3,-5.725792143E-3
2.519176672E1,-6.657897960E-3,-2.663159044E-3,-7.856319658E-3
2.521203584E1,-4.527370445E-3,-1.597895520E-3,-6.791055668E-3
2.523230500E1,-6.657897960E-3,-1.597895520E-3,-5.725792143E-3
2.525257417E1,-1.091895252E-2,4.793686327E-3,-5.725792143E-3
2.527284334E1,-9.853689000E-3,6.924213842E-3,-2.530001104E-3
2.529311256E1,-8.788425475E-3,2.663159044E-3,-1.464737463E-3
2.531338162E1,-1.304947957E-2,5.858949851E-3,-2.530001104E-3
2.533365084E1,-1.198421605E-2,7.989477366E-3,6.657897611E-4
2.535392000E1,-6.657897960E-3,6.924213842E-3,1.131842658E-2
2.537418917E1,-6.657897960E-3,7.989477366E-3,1.557948068E-2
2.539445829E1,-1.411474310E-2,9.054740891E-3,1.344895363E-2
2.541485829E1,-1.198421605E-2,2.663159044E-3,1.025316212E-2
2.543499657E1,-1.091895252E-2,5.326318205E-4,5.992108025E-3
2.545526573E1,-1.304947957E-2,5.858949851E-3,3.861580743E-3
2.547553490E1,-1.091895252E-2,6.924213842E-3,8.122635074E-3
2.549580402E1,-4.527370445E-3,-3.728422802E-3,1.025316212E-2
2.551620402E1,-1.331579522E-3,-1.118526794E-2,8.122635074E-3
2.553634230E1,-2.663159103E-4,-4.793686327E-3,3.861580743E-3
2.555661146E1,-2.663159103E-4,5.326318205E-4,3.861580743E-3
2.557688063E1,3.994738683E-3,-3.728422802E-3,4.926844500E-3
2.559714974E1,6.125265732E-3,-7.989477366E-3,4.926844500E-3
2.561754974E1,2.929474926E-3,5.326318205E-4,1.731053460E-3
2.563768803E1,-1.331579522E-3,1.012000442E-2,2.796316985E-3
2.565795719E1,-3.462106921E-3,6.924213842E-3,8.122635074E-3
2.567822631E1,-2.396843163E-3,1.597895520E-3,1.025316212E-2
2.569849547E1,-2.396843163E-3,5.326318205E-4,7.057371549E-3
2.571889547E1,-2.396843163E-3,4.793686327E-3,6.657897611E-4
2.573903474E1,-4.527370445E-3,1.012000442E-2,-2.530001104E-3
2.575930370E1,-5.592633970E-3,7.989477366E-3,-1.464737463E-3
2.577957266E1,-2.396843163E-3,2.663159044E-3,2.796316985E-3
2.579984167E1,-2.663159103E-4,6.924213842E-3,6.657897611E-4
2.582011073E1,3.994738683E-3,5.858949851E-3,2.796316985E-3
2.584037974E1,2.929474926E-3,2.663159044E-3,6.657897611E-4
2.586064875E1,2.929474926E-3,6.924213842E-3,-3.994738800E-4
2.588091787E1,2.929474926E-3,5.858949851E-3,1.731053460E-3
2.590118693E1,-1.331579522E-3,5.326318205E-4,6.657897611E-4
2.592145605E1,-1.331579522E-3,5.858949851E-3,-3.595264861E-3
2.594172516E1,-2.663159103E-4,4.793686327E-3,-3.595264861E-3
2.596199428E1,7.989477599E-4,1.597895520E-3,-3.595264861E-3
2.598226339E1,1.864211401E-3,3.728422802E-3,-3.595264861E-3
2.600253256E1,3.994738683E-3,4.793686327E-3,-3.994738800E-4
2.602280167E1,1.864211401E-3,1.597895520E-3,4.926844500E-3
2.604307079E1,-1.331579522E-3,1.597895520E-3,4.926844500E-3
2.606333985E1,-2.396843163E-3,5.326318205E-4,3.861580743E-3
2.608360902E1,-3.462106921E-3,5.326318205E-4,1.731053460E-3
2.610387808E1,7.989477599E-4,4.793686327E-3,-3.994738800E-4
2.612414724E1,5.060002208E-3,1.597895520E-3,2.796316985E-3
2.614441636E1,7.989477599E-4,-5.858949851E-3,4.926844500E-3
2.616468553E1,-3.462106921E-3,-5.858949851E-3,3.861580743E-3
2.618495464E1,-3.462106921E-3,-2.663159044E-3,1.731053460E-3
2.620522375E1,-6.657897960E-3,-1.597895520E-3,-1.464737463E-3
2.622549287E1,-7.723161485E-3,-3.728422802E-3,-3.994738800E-4
2.624576204E1,-7.723161485E-3,-1.597895520E-3,-1.464737463E-3
2.626603115E1,-3.462106921E-3,4.793686327E-3,-4.660528619E-3
2.628630026E1,-2.663159103E-4,5.858949851E-3,-4.660528619E-3
2.630656938E1,7.989477599E-4,1.597895520E-3,6.657897611E-4
2.632683855E1,2.929474926E-3,-5.858949851E-3,7.057371549E-3
2.634710766E1,2.929474926E-3,-3.728422802E-3,5.992108025E-3
2.636737678E1,3.994738683E-3,1.597895520E-3,2.796316985E-3
2.638764589E1,2.929474926E-3,3.728422802E-3,6.657897611E-4
2.640791500E1,-1.331579522E-3,1.597895520E-3,-1.464737463E-3
2.642818417E1,-5.592633970E-3,5.326318205E-4,-3.595264861E-3
2.644845329E1,-7.723161485E-3,4.793686327E-3,-5.725792143E-3
2.646872240E1,-3.462106921E-3,4.793686327E-3,-4.660528619E-3
2.648899152E1,-2.663159103E-4,-2.663159044E-3,-3.994738800E-4
2.650926063E1,1.864211401E-3,-5.858949851E-3,-3.994738800E-4
2.652952974E1,3.994738683E-3,-1.597895520E-3,-1.464737463E-3
2.654979886E1,6.125265732E-3,1.597895520E-3,-3.994738800E-4
2.657006797E1,5.060002208E-3,5.326318205E-4,-3.994738800E-4
2.659033709E1,1.864211401E-3,5.326318205E-4,-1.464737463E-3
2.661060620E1,2.929474926E-3,5.326318205E-4,-1.464737463E-3
2.663087532E1,5.060002208E-3,2.663159044E-3,-3.994738800E-4
2.665114443E1,1.864211401E-3,2.663159044E-3,6.657897611E-4
2.667141355E1,-1.331579522E-3,2.663159044E-3,-3.994738800E-4
2.669168266E1,-4.527370445E-3,3.728422802E-3,6.657897611E-4
2.671195178E1,-4.527370445E-3,5.858949851E-3,1.731053460E-3
2.673222089E1,-2.663159103E-4,4.793686327E-3,1.731053460E-3
2.675249000E1,5.060002208E-3,2.663159044E-3,-3.994738800E-4
2.677275912E1,5.060002208E-3,-5.326318205E-4,-1.464737463E-3
2.679302823E1,-2.663159103E-4,-5.326318205E-4,-2.530001104E-3
2.681329735E1,-1.331579522E-3,5.326318205E-4,-2.530001104E-3
2.683356646E1,-2.663159103E-4,5.326318205E-4,-3.994738800E-4
2.685383552E1,7.989477599E-4,1.597895520E-3,2.796316985E-3
2.687410464E1,1.864211401E-3,2.663159044E-3,2.796316985E-3
2.689437375E1,1.864211401E-3,2.663159044E-3,6.657897611E-4
2.691477375E1,7.989477599E-4,5.326318205E-4,-1.464737463E-3
2.693491193E1,-2.663159103E-4,-5.326318205E-4,-3.595264861E-3
2.695518105E1,-2.396843163E-3,5.326318205E-4,-3.595264861E-3
2.697545016E1,-4.527370445E-3,5.326318205E-4,-2.530001104E-3
2.699571928E1,-3.462106921E-3,5.326318205E-4,-3.994738800E-4
2.701611928E1,3.994738683E-3,2.663159044E-3,1.731053460E-3
2.703625745E1,8.255792782E-3,-5.326318205E-4,2.796316985E-3
2.705652657E1,6.125265732E-3,-4.793686327E-3,4.926844500E-3
2.707679568E1,1.864211401E-3,-4.793686327E-3,3.861580743E-3
2.709706474E1,-3.462106921E-3,-2.663159044E-3,6.657897611E-4
2.711746474E1,-1.091895252E-2,5.326318205E-4,-4.660528619E-3
2.713760297E1,-1.091895252E-2,2.663159044E-3,-3.595264861E-3
2.715787204E1,-4.527370445E-3,-2.663159044E-3,1.731053460E-3
2.717814115E1,-1.331579522E-3,-3.728422802E-3,3.861580743E-3
2.719841027E1,2.929474926E-3,-2.663159044E-3,2.796316985E-3
2.721867933E1,7.190529723E-3,-3.728422802E-3,6.657897611E-4
2.723894844E1,5.060002208E-3,-3.728422802E-3,-3.994738800E-4
2.725921750E1,7.989477599E-4,-3.728422802E-3,-3.994738800E-4
2.727948662E1,1.864211401E-3,-3.728422802E-3,6.657897611E-4
2.729975573E1,2.929474926E-3,5.326318205E-4,1.731053460E-3
2.732002474E1,7.989477599E-4,1.597895520E-3,6.657897611E-4
2.734029391E1,-2.396843163E-3,-5.326318205E-4,2.796316985E-3
2.736056297E1,-2.396843163E-3,3.728422802E-3,5.992108025E-3
2.738083209E1,7.989477599E-4,3.728422802E-3,7.057371549E-3
2.740110115E1,7.190529723E-3,-5.326318205E-4,4.926844500E-3
2.742150115E1,7.190529723E-3,-2.663159044E-3,1.731053460E-3
2.744163933E1,1.864211401E-3,-1.597895520E-3,-1.464737463E-3
2.746190844E1,-3.462106921E-3,-1.597895520E-3,-2.530001104E-3
2.748217750E1,-4.527370445E-3,-1.597895520E-3,-2.530001104E-3
2.750244657E1,-3.462106921E-3,-5.326318205E-4,-3.595264861E-3
2.752271568E1,-2.396843163E-3,1.597895520E-3,-1.464737463E-3
2.754298474E1,-2.396843163E-3,2.663159044E-3,-3.994738800E-4
2.756325386E1,-2.663159103E-4,-1.597895520E-3,-1.464737463E-3
2.758352292E1,2.929474926E-3,-3.728422802E-3,-1.464737463E-3
2.760379198E1,3.994738683E-3,-2.663159044E-3,-2.530001104E-3
2.762406110E1,-2.663159103E-4,-1.597895520E-3,-3.595264861E-3
2.764433016E1,-1.331579522E-3,1.597895520E-3,-3.595264861E-3
2.766459928E1,1.864211401E-3,5.326318205E-4,-1.464737463E-3
2.768486834E1,1.864211401E-3,-4.793686327E-3,-2.530001104E-3
2.770513740E1,2.929474926E-3,-7.989477366E-3,-2.530001104E-3
2.772540646E1,2.929474926E-3,-1.597895520E-3,-3.595264861E-3
2.774567558E1,7.989477599E-4,5.858949851E-3,-2.530001104E-3
2.776594464E1,-2.396843163E-3,1.597895520E-3,6.657897611E-4
2.778621370E1,-3.462106921E-3,-6.924213842E-3,3.861580743E-3
2.780648282E1,-1.331579522E-3,-5.858949851E-3,1.731053460E-3
2.782675188E1,2.929474926E-3,3.728422802E-3,-1.464737463E-3
2.784702094E1,7.989477599E-4,3.728422802E-3,-3.994738800E-4
2.786729000E1,-1.331579522E-3,3.728422802E-3,-3.994738800E-4
2.788755912E1,7.989477599E-4,1.597895520E-3,1.731053460E-3
2.790782818E1,3.994738683E-3,-1.597895520E-3,1.731053460E-3
2.792809724E1,3.994738683E-3,-2.663159044E-3,-3.994738800E-4
2.794836631E1,3.994738683E-3,-1.597895520E-3,-3.994738800E-4
2.796863537E1,5.060002208E-3,-2.663159044E-3,2.796316985E-3
2.798890448E1,1.864211401E-3,-2.663159044E-3,6.657897611E-4
2.800917355E1,-1.331579522E-3,-2.663159044E-3,-3.994738800E-4
2.802944261E1,-3.462106921E-3,-5.326318205E-4,6.657897611E-4
2.804971167E1,-1.331579522E-3,1.597895520E-3,1.731053460E-3
2.806998073E1,6.125265732E-3,-1.597895520E-3,5.992108025E-3
2.809024980E1,9.321057238E-3,-3.728422802E-3,4.926844500E-3
2.811051886E1,2.929474926E-3,-3.728422802E-3,2.796316985E-3
2.813078797E1,-3.462106921E-3,-3.728422802E-3,1.731053460E-3
2.815105704E1,-4.527370445E-3,-5.326318205E-4,1.731053460E-3
2.817132610E1,-4.527370445E-3,2.663159044E-3,2.796316985E-3
2.819159516E1,-2.396843163E-3,1.597895520E-3,4.926844500E-3
2.821186422E1,-2.396843163E-3,3.728422802E-3,7.057371549E-3
2.823213329E1,-1.331579522E-3,3.728422802E-3,7.057371549E-3
2.825240235E1,-2.663159103E-4,2.663159044E-3,8.122635074E-3
2.827267141E1,-1.331579522E-3,5.326318205E-4,1.025316212E-2
2.829294047E1,-2.663159103E-4,-5.326318205E-4,1.238369010E-2
2.831334047E1,-1.331579522E-3,1.597895520E-3,1.238369010E-2
2.833347860E1,-1.331579522E-3,3.728422802E-3,1.131842658E-2
2.835374766E1,-3.462106921E-3,5.858949851E-3,9.187898599E-3
2.837401672E1,-4.527370445E-3,4.793686327E-3,8.122635074E-3
2.839428579E1,-6.657897960E-3,2.663159044E-3,8.122635074E-3
2.841468579E1,-8.788425475E-3,1.597895520E-3,5.992108025E-3
2.843482391E1,-7.723161485E-3,2.663159044E-3,4.926844500E-3
2.845509297E1,-6.657897960E-3,6.924213842E-3,4.926844500E-3
2.847536204E1,-5.592633970E-3,1.012000442E-2,4.926844500E-3
2.849563110E1,-6.657897960E-3,7.989477366E-3,7.057371549E-3
2.851603110E1,-7.723161485E-3,5.858949851E-3,7.057371549E-3
2.853616922E1,-4.527370445E-3,3.728422802E-3,7.057371549E-3
2.855643829E1,-2.663159103E-4,4.793686327E-3,9.187898599E-3
2.857670730E1,-2.663159103E-4,4.793686327E-3,5.992108025E-3
2.859697636E1,-2.396843163E-3,6.924213842E-3,4.926844500E-3
2.861737636E1,-4.527370445E-3,6.924213842E-3,3.861580743E-3
2.863751448E1,-3.462106921E-3,2.663159044E-3,4.926844500E-3
2.865791448E1,-3.462106921E-3,2.663159044E-3,4.926844500E-3
2.867805261E1,-6.657897960E-3,5.858949851E-3,4.926844500E-3
2.869832162E1,-9.853689000E-3,7.989477366E-3,3.861580743E-3
2.871872162E1,-1.091895252E-2,7.989477366E-3,5.992108025E-3
2.873885974E1,-6.657897960E-3,5.858949851E-3,8.122635074E-3
2.875912881E1,-2.396843163E-3,4.793686327E-3,8.122635074E-3
2.877939787E1,-1.331579522E-3,3.728422802E-3,4.926844500E-3
2.879966688E1,-3.462106921E-3,2.663159044E-3,4.926844500E-3
2.881993594E1,-5.592633970E-3,5.326318205E-4,4.926844500E-3
2.884020500E1,-3.462106921E-3,1.597895520E-3,4.926844500E-3
2.886047402E1,-4.527370445E-3,3.728422802E-3,3.861580743E-3
2.888074308E1,-5.592633970E-3,6.924213842E-3,2.796316985E-3
2.890101214E1,-2.396843163E-3,1.012000442E-2,2.796316985E-3
2.892128115E1,-2.396843163E-3,1.331579592E-2,3.861580743E-3
2.894155021E1,-4.527370445E-3,1.012000442E-2,4.926844500E-3
2.896181928E1,-4.527370445E-3,5.858949851E-3,4.926844500E-3
2.898208834E1,-3.462106921E-3,4.793686327E-3,3.861580743E-3
2.900235735E1,-2.396843163E-3,6.924213842E-3,1.731053460E-3
2.902262636E1,-1.331579522E-3,6.924213842E-3,1.731053460E-3
2.904289547E1,-1.331579522E-3,4.793686327E-3,-3.994738800E-4
2.906316448E1,-3.462106921E-3,5.858949851E-3,-3.994738800E-4
2.908343355E1,-2.396843163E-3,4.793686327E-3,6.657897611E-4
2.910370261E1,-1.331579522E-3,2.663159044E-3,1.731053460E-3
2.912397162E1,7.989477599E-4,5.326318205E-4,3.861580743E-3
2.914424068E1,1.864211401E-3,-5.326318205E-4,2.796316985E-3
2.916450969E1,-2.663159103E-4,2.663159044E-3,1.731053460E-3
2.918477875E1,-2.396843163E-3,3.728422802E-3,-1.464737463E-3
2.920504782E1,-2.396843163E-3,3.728422802E-3,-1.464737463E-3
2.922531683E1,-1.331579522E-3,2.663159044E-3,-1.464737463E-3
2.924558589E1,7.989477599E-4,2.663159044E-3,-1.464737463E-3
2.926585490E1,1.864211401E-3,2.663159044E-3,-1.464737463E-3
2.928612396E1,3.994738683E-3,1.597895520E-3,6.657897611E-4
2.930639297E1,6.125265732E-3,5.326318205E-4,1.731053460E-3
2.932666204E1,5.060002208E-3,-2.663159044E-3,3.861580743E-3
2.934693105E1,7.989477599E-4,-5.326318205E-4,5.992108025E-3
2.936720011E1,-1.331579522E-3,5.326318205E-4,5.992108025E-3
2.938746912E1,-2.663159103E-4,2.663159044E-3,4.926844500E-3
2.940773818E1,3.994738683E-3,1.597895520E-3,2.796316985E-3
2.942800719E1,3.994738683E-3,-2.663159044E-3,-3.994738800E-4
2.944827625E1,1.864211401E-3,-6.924213842E-3,-2.530001104E-3
2.946854527E1,7.989477599E-4,-7.989477366E-3,-2.530001104E-3
2.948881433E1,3.994738683E-3,-6.924213842E-3,-2.530001104E-3
2.950908334E1,3.994738683E-3,-5.858949851E-3,-3.595264861E-3
2.952935240E1,5.060002208E-3,-7.989477366E-3,-2.530001104E-3
2.954962141E1,8.255792782E-3,-6.924213842E-3,-2.530001104E-3
2.956989042E1,9.321057238E-3,-7.989477366E-3,-3.595264861E-3
2.959015948E1,9.321057238E-3,-7.989477366E-3,-5.725792143E-3
2.961042849E1,8.255792782E-3,-6.924213842E-3,-6.791055668E-3
2.963069750E1,8.255792782E-3,-9.054740891E-3,-6.791055668E-3
2.965096657E1,9.321057238E-3,-1.438105945E-2,-6.791055668E-3
2.967123558E1,8.255792782E-3,-1.544632297E-2,-8.921583183E-3
2.969150459E1,8.255792782E-3,-9.054740891E-3,-1.105211023E-2
2.971177365E1,1.038632076E-2,-7.989477366E-3,-8.921583183E-3
2.973204266E1,1.145158429E-2,-1.012000442E-2,-6.791055668E-3
2.975231172E1,1.038632076E-2,-1.225053146E-2,-5.725792143E-3
2.977258073E1,1.358211134E-2,-1.651158556E-2,-5.725792143E-3
2.979284974E1,1.571263932E-2,-2.077264152E-2,-7.856319658E-3
2.981311875E1,1.571263932E-2,-1.651158556E-2,-9.986846708E-3
2.983338782E1,1.145158429E-2,-9.054740891E-3,-1.105211023E-2
2.985365683E1,1.038632076E-2,-4.793686327E-3,-8.921583183E-3
2.987392584E1,1.145158429E-2,-6.924213842E-3,-6.791055668E-3
2.989419490E1,1.145158429E-2,-1.118526794E-2,-4.660528619E-3
2.991459490E1,1.145158429E-2,-1.012000442E-2,-7.856319658E-3
2.993473292E1,1.464737486E-2,-5.326318205E-4,-1.105211023E-2
2.995500193E1,1.571263932E-2,-2.663159044E-3,-6.791055668E-3
2.997527094E1,1.784316637E-2,-1.438105945E-2,-3.595264861E-3
2.999554000E1,1.997369342E-2,-1.970737800E-2,-9.986846708E-3
3.001594000E1,2.103895694E-2,-1.757685095E-2,-1.637842879E-2
3.003607803E1,1.997369342E-2,-1.651158556E-2,-1.850895584E-2
3.005634704E1,1.677790284E-2,-1.757685095E-2,-1.424790081E-2
3.007661605E1,1.358211134E-2,-1.438105945E-2,-9.986846708E-3
3.009688511E1,1.038632076E-2,-6.924213842E-3,-6.791055668E-3
3.011728511E1,1.145158429E-2,-9.054740891E-3,-4.660528619E-3
3.013742313E1,1.251684781E-2,-1.544632297E-2,-2.530001104E-3
3.015769214E1,1.251684781E-2,-1.757685095E-2,-1.464737463E-3
3.017796115E1,1.251684781E-2,-1.544632297E-2,-2.530001104E-3
3.019823016E1,9.321057238E-3,-1.118526794E-2,-4.660528619E-3
3.021849917E1,2.929474926E-3,-7.989477366E-3,-6.791055668E-3
3.023876813E1,7.989477599E-4,-4.793686327E-3,-6.791055668E-3
3.025903724E1,-1.331579522E-3,-1.597895520E-3,-2.530001104E-3
3.027930625E1,-2.663159103E-4,-3.728422802E-3,6.657897611E-4
3.029957526E1,1.864211401E-3,-3.728422802E-3,6.657897611E-4
3.031984428E1,7.989477599E-4,1.597895520E-3,-3.994738800E-4
3.034011329E1,-3.462106921E-3,4.793686327E-3,6.657897611E-4
3.036038230E1,-7.723161485E-3,2.663159044E-3,4.926844500E-3
3.038065131E1,-8.788425475E-3,2.663159044E-3,5.992108025E-3
3.040105131E1,-8.788425475E-3,4.793686327E-3,7.057371549E-3
3.042111042E1,-7.723161485E-3,4.793686327E-3,7.057371549E-3
3.044145797E1,-7.723161485E-3,5.858949851E-3,7.057371549E-3
3.046172709E1,-7.723161485E-3,3.728422802E-3,8.122635074E-3
3.048199615E1,-4.527370445E-3,5.326318205E-4,1.025316212E-2
3.050226521E1,-2.663159103E-4,-1.597895520E-3,1.131842658E-2
3.052253422E1,1.864211401E-3,-5.326318205E-4,9.187898599E-3
3.054280329E1,-1.331579522E-3,2.663159044E-3,4.926844500E-3
3.056307230E1,-3.462106921E-3,4.793686327E-3,3.861580743E-3
3.058334136E1,-2.396843163E-3,6.924213842E-3,3.861580743E-3
3.060361032E1,-1.331579522E-3,1.544632297E-2,-3.994738800E-4
3.062387938E1,-3.462106921E-3,1.651158556E-2,-2.530001104E-3
3.064414834E1,-5.592633970E-3,7.989477366E-3,-1.464737463E-3
3.066441735E1,-1.331579522E-3,3.728422802E-3,-3.595264861E-3
3.068468636E1,9.321057238E-3,3.728422802E-3,-1.464737463E-3
3.070495542E1,1.145158429E-2,5.326318205E-4,2.796316985E-3
3.072522443E1,2.929474926E-3,5.326318205E-4,1.731053460E-3
3.074549344E1,-1.331579522E-3,3.728422802E-3,-3.994738800E-4
3.076576245E1,-2.663159103E-4,5.858949851E-3,-3.994738800E-4
3.078603146E1,-2.663159103E-4,6.924213842E-3,-3.994738800E-4
3.080630042E1,-2.396843163E-3,6.924213842E-3,-1.464737463E-3
3.082656943E1,-1.331579522E-3,4.793686327E-3,-3.994738800E-4
3.084683844E1,-1.331579522E-3,2.663159044E-3,-3.994738800E-4
3.086710745E1,-1.331579522E-3,2.663159044E-3,-3.994738800E-4
3.088737646E1,-2.396843163E-3,1.597895520E-3,-3.994738800E-4
3.090764542E1,-2.396843163E-3,1.597895520E-3,-3.994738800E-4
3.092791443E1,-1.331579522E-3,2.663159044E-3,-1.464737463E-3
3.094818344E1,-2.663159103E-4,2.663159044E-3,-1.464737463E-3
3.096845245E1,7.989477599E-4,5.326318205E-4,-1.464737463E-3
3.098872146E1,1.864211401E-3,5.326318205E-4,-2.530001104E-3
3.100899042E1,2.929474926E-3,-5.326318205E-4,-2.530001104E-3
3.102925943E1,2.929474926E-3,-5.326318205E-4,-2.530001104E-3
3.104952844E1,2.929474926E-3,-1.597895520E-3,-1.464737463E-3
3.106979745E1,-2.663159103E-4,-5.326318205E-4,6.657897611E-4
3.109006641E1,-2.396843163E-3,1.597895520E-3,6.657897611E-4
3.111033542E1,-1.331579522E-3,2.663159044E-3,-3.994738800E-4
3.113060443E1,7.989477599E-4,-5.326318205E-4,-1.464737463E-3
3.115087339E1,-2.663159103E-4,-5.326318205E-4,-2.530001104E-3
3.117114240E1,-2.663159103E-4,1.597895520E-3,-1.464737463E-3
3.119141141E1,7.989477599E-4,5.326318205E-4,1.731053460E-3
3.121168042E1,-1.331579522E-3,-1.597895520E-3,2.796316985E-3
3.123194938E1,-1.331579522E-3,5.326318205E-4,2.796316985E-3
3.125221839E1,-3.462106921E-3,4.793686327E-3,6.657897611E-4
3.127248740E1,-3.462106921E-3,4.793686327E-3,6.657897611E-4
3.129275636E1,2.929474926E-3,-2.663159044E-3,1.731053460E-3
3.131302537E1,7.190529723E-3,-4.793686327E-3,2.796316985E-3
3.133329433E1,2.929474926E-3,-1.597895520E-3,2.796316985E-3
3.135356334E1,-2.663159103E-4,-2.663159044E-3,3.861580743E-3
3.137383235E1,-2.396843163E-3,-2.663159044E-3,3.861580743E-3
3.139410131E1,-3.462106921E-3,5.326318205E-4,1.731053460E-3
3.141450131E1,-3.462106921E-3,1.597895520E-3,1.731053460E-3
3.143463933E1,-2.396843163E-3,5.326318205E-4,1.731053460E-3
3.145490829E1,-2.663159103E-4,-5.326318205E-4,1.731053460E-3
3.147517730E1,7.989477599E-4,-5.326318205E-4,6.657897611E-4
3.149544625E1,7.989477599E-4,-5.326318205E-4,2.796316985E-3
3.151584625E1,-1.331579522E-3,-5.326318205E-4,3.861580743E-3
3.153598422E1,-2.663159103E-4,-1.597895520E-3,4.926844500E-3
3.155625323E1,1.864211401E-3,-1.597895520E-3,3.861580743E-3
3.157652224E1,3.994738683E-3,-1.597895520E-3,6.657897611E-4
3.159679120E1,1.864211401E-3,-5.326318205E-4,6.657897611E-4
3.161719120E1,7.989477599E-4,-5.326318205E-4,6.657897611E-4
3.163732917E1,1.864211401E-3,-5.326318205E-4,-3.994738800E-4
3.165759813E1,3.994738683E-3,-3.728422802E-3,-3.994738800E-4
3.167786714E1,3.994738683E-3,-3.728422802E-3,-3.994738800E-4
3.169813610E1,5.060002208E-3,-3.728422802E-3,-2.530001104E-3
3.171853610E1,5.060002208E-3,-5.326318205E-4,-3.595264861E-3
3.173867407E1,5.060002208E-3,2.663159044E-3,-3.595264861E-3
3.175894302E1,5.060002208E-3,5.326318205E-4,-3.595264861E-3
3.177921204E1,5.060002208E-3,-2.663159044E-3,-3.595264861E-3
3.179961204E1,7.190529723E-3,-1.597895520E-3,-3.595264861E-3
3.181975000E1,7.190529723E-3,-2.663159044E-3,-2.530001104E-3
3.184001896E1,2.929474926E-3,5.326318205E-4,-3.595264861E-3
3.186028797E1,-2.396843163E-3,2.663159044E-3,-1.464737463E-3
3.188055693E1,-5.592633970E-3,6.924213842E-3,-1.464737463E-3
3.190082589E1,-6.657897960E-3,9.054740891E-3,-3.994738800E-4
3.192109490E1,-2.396843163E-3,5.858949851E-3,-3.994738800E-4
3.194136386E1,-1.331579522E-3,5.858949851E-3,-2.530001104E-3
3.196163287E1,-4.527370445E-3,4.793686327E-3,-3.595264861E-3
3.198190183E1,-4.527370445E-3,3.728422802E-3,-4.660528619E-3
3.200217079E1,-2.396843163E-3,-5.326318205E-4,-4.660528619E-3
3.202243974E1,-2.663159103E-4,-3.728422802E-3,-5.725792143E-3
3.204270875E1,2.929474926E-3,-3.728422802E-3,-4.660528619E-3
3.206297771E1,5.060002208E-3,-4.793686327E-3,-2.530001104E-3
3.208324667E1,5.060002208E-3,-5.326318205E-4,-2.530001104E-3
3.210351568E1,5.060002208E-3,2.663159044E-3,-3.994738800E-4
3.212378464E1,7.989477599E-4,1.597895520E-3,1.731053460E-3
3.214405360E1,-3.462106921E-3,-1.597895520E-3,6.657897611E-4
3.216432261E1,-4.527370445E-3,-3.728422802E-3,1.731053460E-3
3.218459157E1,-2.663159103E-4,1.597895520E-3,1.731053460E-3
3.220486052E1,7.989477599E-4,6.924213842E-3,6.657897611E-4
3.222512948E1,-3.462106921E-3,5.858949851E-3,6.657897611E-4
3.224539849E1,-9.853689000E-3,5.326318205E-4,-4.660528619E-3
3.226566745E1,-1.091895252E-2,-1.597895520E-3,-5.725792143E-3
3.228593641E1,-4.527370445E-3,-5.326318205E-4,-1.464737463E-3
3.230620537E1,-1.331579522E-3,6.924213842E-3,3.861580743E-3
3.232647433E1,-3.462106921E-3,7.989477366E-3,8.122635074E-3
3.234674334E1,-7.723161485E-3,5.326318205E-4,8.122635074E-3
3.236701230E1,-5.592633970E-3,-5.858949851E-3,7.057371549E-3
3.238728125E1,2.929474926E-3,-5.326318205E-4,7.057371549E-3
3.240755021E1,7.190529723E-3,5.858949851E-3,1.025316212E-2
3.242781917E1,8.255792782E-3,5.326318205E-4,1.025316212E-2
3.244808818E1,6.125265732E-3,-9.054740891E-3,7.057371549E-3
3.246835714E1,3.994738683E-3,-1.331579592E-2,4.926844500E-3
3.248862610E1,7.989477599E-4,-5.858949851E-3,3.861580743E-3
3.250889506E1,-1.331579522E-3,2.663159044E-3,5.992108025E-3
3.252916402E1,-2.396843163E-3,5.858949851E-3,8.122635074E-3
3.254943297E1,7.989477599E-4,3.728422802E-3,9.187898599E-3
3.256970198E1,3.994738683E-3,-5.326318205E-4,9.187898599E-3
3.258997094E1,1.864211401E-3,-5.858949851E-3,7.057371549E-3
3.261023990E1,1.864211401E-3,-4.793686327E-3,4.926844500E-3
3.263050886E1,3.994738683E-3,-3.728422802E-3,3.861580743E-3
3.265077782E1,7.989477599E-4,-2.663159044E-3,2.796316985E-3
3.267104678E1,-4.527370445E-3,-1.597895520E-3,6.657897611E-4
3.269131573E1,-6.657897960E-3,5.326318205E-4,2.796316985E-3
3.271158469E1,-2.396843163E-3,1.597895520E-3,4.926844500E-3
3.273185365E1,3.994738683E-3,-2.663159044E-3,5.992108025E-3
3.275212266E1,5.060002208E-3,-6.924213842E-3,4.926844500E-3
3.277239157E1,7.989477599E-4,-3.728422802E-3,3.861580743E-3
3.279266052E1,-4.527370445E-3,2.663159044E-3,2.796316985E-3
3.281292954E1,-6.657897960E-3,6.924213842E-3,1.731053460E-3
3.283319849E1,-2.396843163E-3,3.728422802E-3,1.731053460E-3
3.285346745E1,3.994738683E-3,-4.793686327E-3,1.731053460E-3
3.287373641E1,8.255792782E-3,-6.924213842E-3,-1.464737463E-3
3.289400537E1,9.321057238E-3,-1.597895520E-3,-4.660528619E-3
3.291440537E1,5.060002208E-3,2.663159044E-3,-3.595264861E-3
3.293454329E1,-2.663159103E-4,4.793686327E-3,-3.994738800E-4
3.295481219E1,-1.331579522E-3,2.663159044E-3,6.657897611E-4
3.297508115E1,-2.663159103E-4,5.326318205E-4,1.731053460E-3
3.299535011E1,-2.663159103E-4,1.597895520E-3,1.731053460E-3
3.301575011E1,-3.462106921E-3,3.728422802E-3,2.796316985E-3
3.303588803E1,-6.657897960E-3,4.793686327E-3,3.861580743E-3
3.305615698E1,-7.723161485E-3,2.663159044E-3,4.926844500E-3
3.307655698E1,-8.788425475E-3,5.858949851E-3,7.057371549E-3
3.309669490E1,-6.657897960E-3,9.054740891E-3,7.057371549E-3
3.311709490E1,-4.527370445E-3,9.054740891E-3,8.122635074E-3
3.313723276E1,-7.723161485E-3,1.225053146E-2,5.992108025E-3
3.315750178E1,-1.198421605E-2,1.651158556E-2,4.926844500E-3
3.317777068E1,-1.411474310E-2,1.331579592E-2,4.926844500E-3
3.319803964E1,-1.198421605E-2,7.989477366E-3,4.926844500E-3
3.321830860E1,-5.592633970E-3,5.858949851E-3,3.861580743E-3
3.323857756E1,-2.396843163E-3,2.663159044E-3,1.731053460E-3
3.325884652E1,-4.527370445E-3,2.663159044E-3,1.731053460E-3
3.327911547E1,-7.723161485E-3,4.793686327E-3,2.796316985E-3
3.329938443E1,-1.091895252E-2,7.989477366E-3,3.861580743E-3
3.331965334E1,-1.411474310E-2,7.989477366E-3,5.992108025E-3
3.333992230E1,-1.304947957E-2,5.858949851E-3,4.926844500E-3
3.336019125E1,-8.788425475E-3,3.728422802E-3,4.926844500E-3
3.338046021E1,-4.527370445E-3,6.924213842E-3,3.861580743E-3
3.340072917E1,-3.462106921E-3,7.989477366E-3,3.861580743E-3
3.342112917E1,-3.462106921E-3,3.728422802E-3,4.926844500E-3
3.344126704E1,-6.657897960E-3,1.597895520E-3,5.992108025E-3
3.346153599E1,-7.723161485E-3,5.326318205E-4,5.992108025E-3
3.348180495E1,-6.657897960E-3,5.326318205E-4,7.057371549E-3
3.350207391E1,-2.396843163E-3,5.858949851E-3,7.057371549E-3
3.352234287E1,-2.396843163E-3,7.989477366E-3,7.057371549E-3
3.354261178E1,-2.396843163E-3,3.728422802E-3,8.122635074E-3
3.356288073E1,-3.462106921E-3,2.663159044E-3,5.992108025E-3
3.358314969E1,-5.592633970E-3,1.597895520E-3,3.861580743E-3
3.360341865E1,-7.723161485E-3,1.597895520E-3,2.796316985E-3
3.362368756E1,-7.723161485E-3,2.663159044E-3,6.657897611E-4
3.364395652E1,-6.657897960E-3,9.054740891E-3,6.657897611E-4
3.366422547E1,-4.527370445E-3,9.054740891E-3,4.926844500E-3
3.368449443E1,-4.527370445E-3,3.728422802E-3,7.057371549E-3
3.370476334E1,-4.527370445E-3,2.663159044E-3,5.992108025E-3
3.372503230E1,-3.462106921E-3,4.793686327E-3,2.796316985E-3
3.374530125E1,-1.331579522E-3,3.728422802E-3,2.796316985E-3
3.376557016E1,-2.396843163E-3,4.793686327E-3,2.796316985E-3
3.378583912E1,-3.462106921E-3,5.858949851E-3,3.861580743E-3
3.380610808E1,-5.592633970E-3,6.924213842E-3,5.992108025E-3
3.382637704E1,-5.592633970E-3,5.858949851E-3,7.057371549E-3
3.384664594E1,-2.396843163E-3,2.663159044E-3,7.057371549E-3
3.386691490E1,1.864211401E-3,1.597895520E-3,7.057371549E-3
3.388718386E1,2.929474926E-3,1.597895520E-3,4.926844500E-3
3.390758386E1,-1.331579522E-3,3.728422802E-3,2.796316985E-3
3.392772172E1,-2.396843163E-3,1.597895520E-3,3.861580743E-3
3.394799068E1,-1.331579522E-3,5.326318205E-4,2.796316985E-3
3.396825959E1,-2.663159103E-4,5.326318205E-4,2.796316985E-3
3.398852855E1,3.994738683E-3,1.597895520E-3,1.731053460E-3
3.400879750E1,5.060002208E-3,5.326318205E-4,6.657897611E-4
3.402906641E1,2.929474926E-3,-1.597895520E-3,-1.464737463E-3
3.404933537E1,3.994738683E-3,-2.663159044E-3,6.657897611E-4
3.406960428E1,5.060002208E-3,-1.597895520E-3,-3.994738800E-4
3.408987323E1,5.060002208E-3,-5.326318205E-4,-2.530001104E-3
3.411014219E1,7.190529723E-3,-1.597895520E-3,-4.660528619E-3
3.413041110E1,1.038632076E-2,-5.858949851E-3,-3.595264861E-3
3.415068006E1,1.358211134E-2,-1.012000442E-2,-4.660528619E-3
3.417094896E1,1.571263932E-2,-1.118526794E-2,-6.791055668E-3
3.419121792E1,1.571263932E-2,-7.989477366E-3,-9.986846708E-3
3.421148688E1,1.358211134E-2,-6.924213842E-3,-1.211737376E-2
3.423175579E1,1.038632076E-2,-1.012000442E-2,-9.986846708E-3
3.425202474E1,1.251684781E-2,-1.651158556E-2,-6.791055668E-3
3.427229365E1,1.571263932E-2,-1.651158556E-2,-6.791055668E-3
3.429256261E1,1.784316637E-2,-1.225053146E-2,-9.986846708E-3
3.431283146E1,1.890842989E-2,-1.225053146E-2,-1.105211023E-2
3.433310047E1,1.784316637E-2,-1.225053146E-2,-1.105211023E-2
3.435336938E1,1.784316637E-2,-1.331579592E-2,-8.921583183E-3
3.437363834E1,1.890842989E-2,-1.331579592E-2,-7.856319658E-3
3.439390730E1,2.316948399E-2,-1.331579592E-2,-8.921583183E-3
3.441430730E1,2.849580161E-2,-1.544632297E-2,-1.105211023E-2
3.443444511E1,2.956106514E-2,-1.970737800E-2,-1.318263728E-2
3.445471407E1,2.636527456E-2,-1.970737800E-2,-1.424790081E-2
3.447498297E1,1.997369342E-2,-1.544632297E-2,-1.531316526E-2
3.449525193E1,1.571263932E-2,-1.225053146E-2,-1.424790081E-2
3.451565193E1,1.145158429E-2,-1.225053146E-2,-1.105211023E-2
3.453578980E1,6.125265732E-3,-1.012000442E-2,-7.856319658E-3
3.455605875E1,-2.663159103E-4,-6.924213842E-3,-3.595264861E-3
3.457632766E1,-5.592633970E-3,-5.326318205E-4,-3.994738800E-4
3.459659657E1,-8.788425475E-3,2.663159044E-3,6.657897611E-4
3.461699657E1,-9.853689000E-3,4.793686327E-3,6.657897611E-4
3.463713443E1,-5.592633970E-3,3.728422802E-3,2.796316985E-3
3.465740339E1,-1.331579522E-3,-5.326318205E-4,4.926844500E-3
3.467767230E1,2.929474926E-3,-4.793686327E-3,7.057371549E-3
3.469794125E1,5.060002208E-3,-6.924213842E-3,9.187898599E-3
3.471834125E1,5.060002208E-3,-6.924213842E-3,1.025316212E-2
3.473847912E1,3.994738683E-3,-7.989477366E-3,9.187898599E-3
3.475874802E1,6.125265732E-3,-1.331579592E-2,8.122635074E-3
3.477901693E1,9.321057238E-3,-1.757685095E-2,7.057371549E-3
3.479928589E1,1.677790284E-2,-2.290316857E-2,3.861580743E-3
3.481955480E1,2.103895694E-2,-2.609895915E-2,1.731053460E-3
3.483982370E1,2.743053809E-2,-2.822948620E-2,-3.994738800E-4
3.486009266E1,2.849580161E-2,-2.929474972E-2,-4.660528619E-3
3.488036157E1,2.423474751E-2,-2.503369562E-2,-8.921583183E-3
3.490063053E1,1.677790284E-2,-1.757685095E-2,-1.105211023E-2
3.492089943E1,9.321057238E-3,-1.118526794E-2,-8.921583183E-3
3.494116834E1,8.255792782E-3,-7.989477366E-3,-6.791055668E-3
3.496143730E1,1.145158429E-2,-6.924213842E-3,-8.921583183E-3
3.498170620E1,1.038632076E-2,-7.989477366E-3,-7.856319658E-3
3.500197506E1,8.255792782E-3,-4.793686327E-3,-9.986846708E-3
3.502224407E1,5.060002208E-3,-5.326318205E-4,-8.921583183E-3
3.504251297E1,-2.663159103E-4,1.597895520E-3,-6.791055668E-3
3.506278188E1,-1.331579522E-3,5.326318205E-4,-2.530001104E-3
3.508305084E1,7.989477599E-4,5.326318205E-4,-3.994738800E-4
3.510331974E1,7.989477599E-4,5.326318205E-4,-3.994738800E-4
3.512371974E1,1.864211401E-3,-2.663159044E-3,6.657897611E-4
3.514385756E1,2.929474926E-3,-2.663159044E-3,1.731053460E-3
3.516412652E1,7.989477599E-4,-2.663159044E-3,2.796316985E-3
3.518439542E1,-1.331579522E-3,-4.793686327E-3,5.992108025E-3
3.520466433E1,7.989477599E-4,-9.054740891E-3,3.861580743E-3
3.522493329E1,3.994738683E-3,-9.054740891E-3,2.796316985E-3
3.524520219E1,5.060002208E-3,-7.989477366E-3,1.731053460E-3
3.526547110E1,3.994738683E-3,-6.924213842E-3,5.992108025E-3
3.528574000E1,2.929474926E-3,-9.054740891E-3,1.131842658E-2
3.530600896E1,-1.331579522E-3,-5.858949851E-3,1.025316212E-2
3.532627787E1,-5.592633970E-3,1.597895520E-3,1.025316212E-2
3.534654678E1,-8.788425475E-3,4.793686327E-3,1.238369010E-2
3.536681573E1,-7.723161485E-3,3.728422802E-3,1.344895363E-2
3.538708464E1,-7.723161485E-3,5.858949851E-3,1.131842658E-2
3.540735355E1,-9.853689000E-3,1.012000442E-2,7.057371549E-3
3.542762245E1,-1.304947957E-2,7.989477366E-3,5.992108025E-3
3.544789141E1,-1.518000662E-2,7.989477366E-3,7.057371549E-3
3.546816032E1,-1.411474310E-2,1.012000442E-2,7.057371549E-3
3.548842922E1,-1.091895252E-2,1.118526794E-2,9.187898599E-3
3.550869813E1,-8.788425475E-3,9.054740891E-3,8.122635074E-3
3.552896709E1,-7.723161485E-3,7.989477366E-3,8.122635074E-3
3.554923599E1,-7.723161485E-3,7.989477366E-3,7.057371549E-3
3.556950490E1,-5.592633970E-3,6.924213842E-3,5.992108025E-3
3.558977375E1,-3.462106921E-3,2.663159044E-3,3.861580743E-3
3.561004271E1,-2.396843163E-3,3.728422802E-3,1.731053460E-3
3.563031167E1,-2.663159103E-4,1.597895520E-3,2.796316985E-3
3.565058058E1,2.929474926E-3,-1.597895520E-3,3.861580743E-3
3.567084948E1,7.989477599E-4,1.597895520E-3,6.657897611E-4
3.569111839E1,-1.331579522E-3,4.793686327E-3,-3.994738800E-4
3.571138730E1,-3.462106921E-3,4.793686327E-3,-1.464737463E-3
3.573165620E1,-4.527370445E-3,2.663159044E-3,-3.595264861E-3
3.575192506E1,2.929474926E-3,1.597895520E-3,-5.725792143E-3
3.577219407E1,7.190529723E-3,-1.597895520E-3,-3.595264861E-3
3.579246297E1,5.060002208E-3,-3.728422802E-3,-3.595264861E-3
3.581273188E1,1.864211401E-3,-1.597895520E-3,-5.725792143E-3
3.583300079E1,-2.663159103E-4,-5.326318205E-4,-6.791055668E-3
3.585326969E1,1.864211401E-3,-1.597895520E-3,-4.660528619E-3
3.587353860E1,2.929474926E-3,-3.728422802E-3,-4.660528619E-3
3.589380750E1,5.060002208E-3,-4.793686327E-3,-3.595264861E-3
3.591420750E1,6.125265732E-3,-4.793686327E-3,-2.530001104E-3
3.593434631E1,6.125265732E-3,-1.597895520E-3,-2.530001104E-3
3.595461506E1,1.864211401E-3,5.326318205E-4,-1.464737463E-3
3.597488381E1,1.864211401E-3,5.326318205E-4,1.731053460E-3
3.599515256E1,5.060002208E-3,-5.326318205E-4,7.057371549E-3
3.601555256E1,9.321057238E-3,-1.597895520E-3,2.796316985E-3
3.603569032E1,1.038632076E-2,-1.597895520E-3,-3.994738800E-4
3.605595907E1,9.321057238E-3,-3.728422802E-3,-1.464737463E-3
3.607622797E1,5.060002208E-3,-2.663159044E-3,-4.660528619E-3
3.609649678E1,2.929474926E-3,-1.597895520E-3,-3.595264861E-3
3.611689678E1,1.864211401E-3,-1.597895520E-3,-1.464737463E-3
3.613703454E1,2.929474926E-3,-1.597895520E-3,-2.530001104E-3
3.615730344E1,1.864211401E-3,-2.663159044E-3,-1.464737463E-3
3.617757230E1,-2.663159103E-4,-1.597895520E-3,-1.464737463E-3
3.619784120E1,7.989477599E-4,2.663159044E-3,-1.464737463E-3
3.621811011E1,2.929474926E-3,2.663159044E-3,-1.464737463E-3
3.623837902E1,1.864211401E-3,4.793686327E-3,-1.464737463E-3
3.625864792E1,-2.396843163E-3,6.924213842E-3,6.657897611E-4
3.627891683E1,-3.462106921E-3,5.858949851E-3,6.657897611E-4
3.629918573E1,-1.331579522E-3,1.597895520E-3,6.657897611E-4
3.631958573E1,1.864211401E-3,-5.326318205E-4,6.657897611E-4
3.633972349E1,7.989477599E-4,-5.326318205E-4,-1.464737463E-3
3.635999240E1,-2.396843163E-3,1.597895520E-3,-1.464737463E-3
3.638026125E1,-3.462106921E-3,2.663159044E-3,-3.994738800E-4
3.640053016E1,-4.527370445E-3,2.663159044E-3,6.657897611E-4
3.642093016E1,-4.527370445E-3,3.728422802E-3,1.731053460E-3
3.644106797E1,-2.396843163E-3,6.924213842E-3,2.796316985E-3
3.646133688E1,-2.396843163E-3,6.924213842E-3,2.796316985E-3
3.648160579E1,-1.331579522E-3,4.793686327E-3,1.731053460E-3
3.650187469E1,-2.663159103E-4,4.793686327E-3,2.796316985E-3
3.652227469E1,-2.663159103E-4,4.793686327E-3,3.861580743E-3
3.654241250E1,7.989477599E-4,1.597895520E-3,2.796316985E-3
3.656268141E1,7.989477599E-4,5.326318205E-4,6.657897611E-4
3.658295032E1,-2.663159103E-4,2.663159044E-3,-3.994738800E-4
3.660321922E1,-2.663159103E-4,1.597895520E-3,-3.994738800E-4
3.662348813E1,-2.396843163E-3,1.597895520E-3,-3.994738800E-4
3.664375704E1,-1.331579522E-3,2.663159044E-3,6.657897611E-4
3.666402594E1,-2.663159103E-4,5.326318205E-4,1.731053460E-3
3.668429485E1,-3.462106921E-3,5.326318205E-4,6.657897611E-4
3.670456375E1,-3.462106921E-3,2.663159044E-3,1.731053460E-3
3.672483266E1,-4.527370445E-3,4.793686327E-3,2.796316985E-3
3.674523266E1,-4.527370445E-3,4.793686327E-3,2.796316985E-3
3.676537047E1,-3.462106921E-3,3.728422802E-3,1.731053460E-3
3.678563938E1,7.989477599E-4,5.326318205E-4,1.731053460E-3
3.680590829E1,3.994738683E-3,-4.793686327E-3,6.657897611E-4
3.682617719E1,-2.663159103E-4,-4.793686327E-3,-1.464737463E-3
3.684644610E1,-1.331579522E-3,-1.597895520E-3,-2.530001104E-3
3.686671495E1,-1.331579522E-3,-4.793686327E-3,-1.464737463E-3
3.688698391E1,7.989477599E-4,-7.989477366E-3,-3.994738800E-4
3.690725276E1,3.994738683E-3,-6.924213842E-3,2.796316985E-3
3.692752172E1,2.929474926E-3,-5.326318205E-4,3.861580743E-3
3.694779058E1,7.989477599E-4,4.793686327E-3,5.992108025E-3
3.696805948E1,-3.462106921E-3,2.663159044E-3,8.122635074E-3
3.698832839E1,-3.462106921E-3,5.326318205E-4,8.122635074E-3
3.700859730E1,5.060002208E-3,1.597895520E-3,4.926844500E-3
3.702886620E1,8.255792782E-3,3.728422802E-3,6.657897611E-4
3.704913511E1,-2.663159103E-4,-1.597895520E-3,-1.464737463E-3
3.706940402E1,-5.592633970E-3,-5.326318205E-4,-4.660528619E-3
3.708967292E1,-6.657897960E-3,-5.326318205E-4,-3.595264861E-3
3.710994183E1,-3.462106921E-3,5.326318205E-4,-2.530001104E-3
3.713021073E1,7.989477599E-4,1.597895520E-3,6.657897611E-4
3.715047964E1,3.994738683E-3,1.597895520E-3,2.796316985E-3
3.717074855E1,6.125265732E-3,-5.326318205E-4,3.861580743E-3
3.719101740E1,5.060002208E-3,-1.597895520E-3,2.796316985E-3
3.721128631E1,-2.663159103E-4,5.326318205E-4,-3.994738800E-4
3.723155521E1,-6.657897960E-3,4.793686327E-3,-3.595264861E-3
3.725182412E1,-7.723161485E-3,5.858949851E-3,-4.660528619E-3
3.727209303E1,-3.462106921E-3,3.728422802E-3,-3.595264861E-3
3.729236193E1,1.864211401E-3,-5.326318205E-4,-1.464737463E-3
3.731263079E1,2.929474926E-3,-2.663159044E-3,-1.464737463E-3
3.733289969E1,5.060002208E-3,-5.326318205E-4,-1.464737463E-3
3.735316860E1,7.190529723E-3,2.663159044E-3,-1.464737463E-3
3.737343750E1,6.125265732E-3,5.326318205E-4,-3.994738800E-4
3.739370641E1,1.864211401E-3,-3.728422802E-3,6.657897611E-4
3.741410641E1,-1.331579522E-3,-1.597895520E-3,-3.595264861E-3
3.743424417E1,-2.396843163E-3,4.793686327E-3,-5.725792143E-3
3.745451313E1,-2.396843163E-3,6.924213842E-3,-4.660528619E-3
3.747478204E1,-2.396843163E-3,3.728422802E-3,-3.595264861E-3
3.749505089E1,-1.331579522E-3,-5.326318205E-4,-3.994738800E-4
3.751545089E1,1.864211401E-3,-5.326318205E-4,6.657897611E-4
3.753558870E1,3.994738683E-3,5.326318205E-4,6.657897611E-4
3.755585761E1,7.989477599E-4,5.326318205E-4,1.731053460E-3
3.757625761E1,-5.592633970E-3,2.663159044E-3,1.731053460E-3
3.759639542E1,-9.853689000E-3,6.924213842E-3,1.731053460E-3
3.761679542E1,-5.592633970E-3,5.858949851E-3,1.731053460E-3
3.763693323E1,1.864211401E-3,5.326318205E-4,6.657897611E-4
3.765720209E1,6.125265732E-3,-2.663159044E-3,6.657897611E-4
3.767747099E1,3.994738683E-3,-4.793686327E-3,1.731053460E-3
3.769773985E1,7.989477599E-4,-3.728422802E-3,2.796316985E-3
3.771813985E1,-2.396843163E-3,-5.326318205E-4,1.731053460E-3
3.773827771E1,-2.396843163E-3,5.326318205E-4,1.731053460E-3
3.775854662E1,-1.331579522E-3,-5.326318205E-4,2.796316985E-3
3.777881552E1,7.989477599E-4,5.326318205E-4,1.731053460E-3
3.779908443E1,2.929474926E-3,-5.326318205E-4,1.731053460E-3
3.781935334E1,1.864211401E-3,-5.326318205E-4,6.657897611E-4
3.783962219E1,-2.663159103E-4,-5.326318205E-4,1.731053460E-3
3.785989110E1,-2.396843163E-3,-5.326318205E-4,1.731053460E-3
3.788016000E1,-2.663159103E-4,-5.326318205E-4,1.731053460E-3
3.790042886E1,1.864211401E-3,1.597895520E-3,6.657897611E-4
3.792082886E1,2.929474926E-3,1.597895520E-3,-3.994738800E-4
3.794096672E1,2.929474926E-3,5.326318205E-4,-3.994738800E-4
3.796123563E1,2.929474926E-3,5.326318205E-4,6.657897611E-4
3.798163563E1,3.994738683E-3,1.597895520E-3,6.657897611E-4
3.800177339E1,1.864211401E-3,-2.663159044E-3,6.657897611E-4
3.802204230E1,7.989477599E-4,-5.858949851E-3,6.657897611E-4
3.804231120E1,1.864211401E-3,-5.858949851E-3,6.657897611E-4
3.806258011E1,3.994738683E-3,4.793686327E-3,-2.530001104E-3
3.808284902E1,7.190529723E-3,7.989477366E-3,6.657897611E-4
3.810311792E1,3.994738683E-3,-5.326318205E-4,3.861580743E-3
3.812338683E1,6.125265732E-3,-9.054740891E-3,7.057371549E-3
3.814365573E1,1.145158429E-2,-4.793686327E-3,2.796316985E-3
3.816392464E1,9.321057238E-3,4.793686327E-3,6.657897611E-4
3.818419355E1,2.929474926E-3,3.728422802E-3,6.657897611E-4
3.820446240E1,-5.592633970E-3,2.663159044E-3,-3.994738800E-4
3.822473125E1,-6.657897960E-3,3.728422802E-3,-2.530001104E-3
3.824500021E1,7.989477599E-4,5.858949851E-3,-2.530001104E-3
3.826526912E1,8.255792782E-3,2.663159044E-3,-2.530001104E-3
3.828553802E1,8.255792782E-3,-5.858949851E-3,1.731053460E-3
3.830580693E1,3.994738683E-3,-1.225053146E-2,5.992108025E-3
3.832607584E1,-2.396843163E-3,-5.858949851E-3,1.731053460E-3
3.834634469E1,-6.657897960E-3,1.597895520E-3,-2.530001104E-3
3.836661360E1,-9.853689000E-3,5.326318205E-4,-2.530001104E-3
3.838688250E1,-8.788425475E-3,-2.663159044E-3,6.657897611E-4
3.840715141E1,-3.462106921E-3,-3.728422802E-3,2.796316985E-3
3.842742032E1,7.989477599E-4,-3.728422802E-3,6.657897611E-4
3.844768922E1,7.989477599E-4,-3.728422802E-3,-3.994738800E-4
3.846795813E1,-4.527370445E-3,-3.728422802E-3,-3.994738800E-4
3.848822698E1,-6.657897960E-3,-1.597895520E-3,6.657897611E-4
3.850849589E1,1.864211401E-3,5.326318205E-4,3.861580743E-3
3.852876480E1,1.251684781E-2,-5.858949851E-3,8.122635074E-3
3.854903370E1,1.571263932E-2,-1.012000442E-2,5.992108025E-3
3.856930256E1,1.358211134E-2,-5.858949851E-3,2.796316985E-3
3.858957152E1,7.190529723E-3,5.326318205E-4,-3.595264861E-3
3.860984042E1,-2.396843163E-3,6.924213842E-3,-6.791055668E-3
3.863010933E1,-6.657897960E-3,4.793686327E-3,-3.595264861E-3
3.865037818E1,-4.527370445E-3,-5.326318205E-4,-1.464737463E-3
3.867064709E1,-3.462106921E-3,1.597895520E-3,-4.660528619E-3
3.869091599E1,-2.663159103E-4,5.858949851E-3,-5.725792143E-3
3.871118490E1,5.060002208E-3,7.989477366E-3,-1.464737463E-3
3.873145381E1,7.190529723E-3,2.663159044E-3,4.926844500E-3
3.875172271E1,7.190529723E-3,-1.597895520E-3,4.926844500E-3
3.877199157E1,6.125265732E-3,2.663159044E-3,-1.464737463E-3
3.879226047E1,5.060002208E-3,6.924213842E-3,-5.725792143E-3
3.881252938E1,7.989477599E-4,4.793686327E-3,-5.725792143E-3
3.883279829E1,-3.462106921E-3,5.858949851E-3,-5.725792143E-3
3.885319829E1,-8.788425475E-3,1.118526794E-2,-6.791055668E-3
3.887333610E1,-7.723161485E-3,1.544632297E-2,-1.105211023E-2
3.889360495E1,1.864211401E-3,1.118526794E-2,-9.986846708E-3
3.891400495E1,3.994738683E-3,2.663159044E-3,-7.856319658E-3
3.893414277E1,-2.396843163E-3,6.924213842E-3,-1.105211023E-2
3.895441167E1,-5.592633970E-3,1.757685095E-2,-1.105211023E-2
3.897468058E1,-5.592633970E-3,1.544632297E-2,-4.660528619E-3
3.899494943E1,-6.657897960E-3,7.989477366E-3,-3.994738800E-4
3.901534943E1,-3.462106921E-3,3.728422802E-3,6.657897611E-4
3.903548724E1,7.989477599E-4,5.858949851E-3,-3.994738800E-4
3.905575610E1,-2.663159103E-4,7.989477366E-3,-1.464737463E-3
3.907602495E1,-8.788425475E-3,1.012000442E-2,-4.660528619E-3
3.909629391E1,-1.731053367E-2,1.225053146E-2,-3.595264861E-3
3.911669391E1,-1.518000662E-2,1.012000442E-2,3.861580743E-3
3.913683172E1,-6.657897960E-3,5.858949851E-3,1.131842658E-2
3.915710063E1,7.989477599E-4,3.728422802E-3,1.238369010E-2
3.917736948E1,2.929474926E-3,5.326318205E-4,1.025316212E-2
3.919763849E1,7.989477599E-4,5.326318205E-4,1.025316212E-2
3.921782870E1,-1.331579522E-3,1.597895520E-3,7.057371549E-3
3.923817610E1,-4.527370445E-3,2.663159044E-3,5.992108025E-3
3.925844495E1,-4.527370445E-3,-5.326318205E-4,5.992108025E-3
3.927871391E1,2.929474926E-3,-2.663159044E-3,3.861580743E-3
3.929898282E1,1.571263932E-2,-1.597895520E-3,4.926844500E-3
3.931938282E1,1.997369342E-2,-5.858949851E-3,7.057371549E-3
3.933952058E1,1.358211134E-2,-4.793686327E-3,2.796316985E-3
3.935978948E1,7.190529723E-3,5.326318205E-4,6.657897611E-4
3.938005839E1,7.190529723E-3,5.858949851E-3,2.796316985E-3
3.940032730E1,9.321057238E-3,-5.326318205E-4,7.057371549E-3
3.942072730E1,6.125265732E-3,5.326318205E-4,7.057371549E-3
3.944086511E1,7.190529723E-3,4.793686327E-3,8.122635074E-3
3.946113402E1,3.994738683E-3,3.728422802E-3,7.057371549E-3
3.948140287E1,-9.853689000E-3,9.054740891E-3,6.657897611E-4
3.950167178E1,-1.411474310E-2,1.544632297E-2,-2.530001104E-3
3.952194068E1,-1.091895252E-2,1.864211448E-2,-3.595264861E-3
3.954220959E1,-1.411474310E-2,1.118526794E-2,-3.994738800E-4
3.956247844E1,-1.411474310E-2,5.858949851E-3,2.796316985E-3
3.958274735E1,-4.527370445E-3,5.858949851E-3,7.057371549E-3
3.960301625E1,-2.663159103E-4,1.012000442E-2,8.122635074E-3
3.962328516E1,-3.462106921E-3,1.118526794E-2,5.992108025E-3
3.964355402E1,-7.723161485E-3,6.924213842E-3,3.861580743E-3
3.966382292E1,-1.304947957E-2,-1.597895520E-3,6.657897611E-4
3.968409183E1,-1.304947957E-2,-1.544632297E-2,-2.530001104E-3
3.970436068E1,-3.462106921E-3,-1.331579592E-2,-7.856319658E-3
3.972462959E1,1.038632076E-2,5.858949851E-3,-7.856319658E-3
3.974489849E1,1.677790284E-2,2.663159044E-3,3.861580743E-3
3.976516740E1,7.190529723E-3,-1.864211448E-2,1.131842658E-2
3.978543625E1,7.190529723E-3,-3.036001325E-2,1.344895363E-2
3.980570516E1,1.038632076E-2,-6.924213842E-3,2.796316985E-3
3.982597402E1,7.190529723E-3,2.290316857E-2,-3.595264861E-3
3.984624292E1,-3.462106921E-3,1.331579592E-2,-3.994738800E-4
3.986651183E1,-1.304947957E-2,-5.858949851E-3,3.861580743E-3
3.988678073E1,-7.723161485E-3,-1.012000442E-2,7.057371549E-3
3.990704959E1,-1.331579522E-3,-2.663159044E-3,4.926844500E-3
3.992731849E1,-5.592633970E-3,1.118526794E-2,-2.530001104E-3
3.994758740E1,-1.518000662E-2,1.864211448E-2,-2.530001104E-3
3.996785625E1,-1.731053367E-2,6.924213842E-3,8.122635074E-3
3.998812516E1,-1.304947957E-2,-4.793686327E-3,1.664474420E-2
4.000839407E1,-7.723161485E-3,-4.793686327E-3,1.238369010E-2
4.002866292E1,-7.723161485E-3,3.728422802E-3,1.731053460E-3
4.004893183E1,-1.304947957E-2,1.438105945E-2,-3.595264861E-3
4.006920063E1,-1.731053367E-2,1.225053146E-2,1.731053460E-3
4.008946959E1,-1.731053367E-2,1.597895520E-3,8.122635074E-3
4.010973849E1,-1.411474310E-2,-2.663159044E-3,1.025316212E-2
4.013000735E1,-8.788425475E-3,-5.326318205E-4,5.992108025E-3
4.015027625E1,-2.396843163E-3,2.663159044E-3,3.861580743E-3
4.017054516E1,-1.331579522E-3,6.924213842E-3,2.796316985E-3
4.019081402E1,-7.723161485E-3,1.118526794E-2,1.731053460E-3
4.021108292E1,-1.411474310E-2,1.331579592E-2,3.861580743E-3
4.023135183E1,-1.624527015E-2,4.793686327E-3,7.057371549E-3
4.025162068E1,-1.304947957E-2,-5.858949851E-3,1.131842658E-2
4.027188959E1,-5.592633970E-3,-3.728422802E-3,1.025316212E-2
4.029215844E1,1.864211401E-3,6.924213842E-3,9.187898599E-3
4.031242735E1,6.125265732E-3,6.924213842E-3,8.122635074E-3
4.033269625E1,3.994738683E-3,1.597895520E-3,5.992108025E-3
