"Time (s)","Acceleration x (m/s^2)","Acceleration y (m/s^2)","Acceleration z (m/s^2)"
2.152338900E-2,-2.250449657E0,3.839882135E0,8.012965202E0
4.160943000E-2,-2.063809633E0,3.643670797E0,9.214759827E0
6.188364900E-2,-2.214557409E0,3.454637766E0,9.760921478E0
8.215739900E-2,-2.379662037E0,3.308675528E0,9.416355133E0
1.024284410E-1,-2.592623234E0,3.287140131E0,8.910871506E0
1.228384410E-1,-2.530410051E0,3.129213810E0,8.662017822E0
1.431231280E-1,-2.295913219E0,3.200998545E0,8.781659126E0
1.632402640E-1,-1.939382792E0,3.308675528E0,9.145368576E0
1.835138570E-1,-1.936989903E0,3.215355396E0,8.910871506E0
2.037870860E-1,-2.126022816E0,3.200998545E0,8.571090698E0
2.240582320E-1,-2.367697954E0,3.200998545E0,8.676374435E0
2.444598470E-1,-2.307877541E0,3.186641455E0,9.152546883E0
2.646035970E-1,-2.042274237E0,3.124428272E0,9.286544800E0
2.848758360E-1,-1.718644857E0,3.145963669E0,9.016156197E0
3.051478680E-1,-1.677966833E0,3.234498024E0,8.872586250E0
3.254197430E-1,-1.730608940E0,3.068794966E0,9.040083885E0
3.456915140E-1,-1.682752490E0,2.903690338E0,9.390034676E0
3.659631800E-1,-1.913061738E0,2.690729141E0,8.987442017E0
3.862348470E-1,-1.831705689E0,2.867797852E0,8.280961037E0
4.065063050E-1,-1.012762189E0,3.109472990E0,7.680362701E0
4.267777640E-1,-5.216353536E-1,2.946761131E0,7.155735970E0
4.470491700E-1,-1.938186288E-1,2.597409010E0,6.588637352E0
4.673205760E-1,-2.105683982E-1,2.118844509E0,7.354938507E0
4.875919300E-1,-5.120640397E-1,1.955534339E0,8.422736168E0
5.078632840E-1,-7.896314561E-2,-2.691925503E-2,1.769073677E1
5.281346390E-1,1.213759303E0,-2.136192322E0,1.782951927E1
5.484059930E-1,-1.797608018E0,1.718644857E0,9.409176826E0
5.686772950E-1,-2.584248483E-1,3.315854073E0,9.940383911E0
5.889484930E-1,-5.024927482E-2,7.060023308E0,6.232106686E0
6.092197950E-1,1.525424480E0,6.176473618E0,8.870193481E0
6.294910450E-1,2.650649309E0,3.595814228E0,8.283353806E0
6.497623990E-1,1.307677627E0,2.128415823E0,9.231510162E0
6.700336490E-1,1.108475089E0,1.656431437E0,9.526425362E0
6.903048990E-1,1.451246977E0,2.621337175E0,8.539983749E0
7.105761490E-1,3.279961586E0,3.624528170E0,8.032107353E0
7.308473990E-1,1.355534077E0,5.640480995E0,8.652446747E0
7.511186490E-1,5.318048596E-1,5.958726406E0,9.693922997E0
7.715187010E-1,6.394818425E-1,4.127020836E0,9.863813400E0
7.916612010E-1,5.413761139E-1,3.629313707E0,9.777671814E0
8.120612010E-1,2.375474691E0,3.988237143E0,9.008976936E0
8.322037010E-1,3.373281717E0,3.849453449E0,8.563912392E0
8.524749510E-1,3.455235958E0,3.665206194E0,9.507282257E0
8.727462010E-1,3.771088600E0,3.492922783E0,9.425926208E0
8.930174510E-1,3.948157310E0,3.552743435E0,8.652446747E0
9.132887010E-1,3.627519131E0,4.283152580E0,8.544769287E0
9.335599510E-1,2.619542599E0,5.182853699E0,8.310273170E0
9.538311490E-1,1.948953986E0,5.733801365E0,7.721040249E0
9.741023990E-1,1.266401410E0,5.740979671E0,7.275975227E0
9.943736490E-1,-2.440679073E-1,5.094319344E0,7.237092018E0
1.014644899E0,8.853443712E-2,4.333401680E0,6.018547058E0
1.034916097E0,5.503492057E-2,2.592623234E0,6.351747513E0
1.055187347E0,5.629115105E-1,1.352542996E0,6.533602238E0
1.075458597E0,-4.697110653E0,-1.166501045E0,1.617248917E1
1.095729847E0,-6.580262184E-1,-8.428717852E-1,6.171687603E0
1.116001045E0,4.946562767E0,1.323829174E0,1.689931035E0
1.136272295E0,9.984052777E-1,-1.585245013E0,1.182712460E1
1.156543493E0,-1.409970760E0,-2.213360928E-2,6.047261238E0
1.176814743E0,3.858426511E-1,-5.042275429E0,7.314260483E0
1.197085993E0,9.912267923E-1,-2.911466837E0,4.409972191E0
1.217357191E0,1.341177106E0,-4.108476639E0,4.052843571E0
1.237628441E0,9.816554785E-1,-4.984847546E0,5.482554913E0
1.257899639E0,2.940180779E0,-5.629115105E0,7.064808846E0
1.278170889E0,4.858027935E0,-6.023931026E0,9.662816048E0
1.298442139E0,6.754340172E0,-3.864408493E0,9.890133858E0
1.318842139E0,7.457829952E0,-1.850848317E0,9.291330338E0
1.338984586E0,6.527021885E0,-1.015154958E0,1.057507992E1
1.359255784E0,5.619544029E0,-1.031904817E0,1.158544922E1
1.379527034E0,6.043073654E0,-2.207378894E-1,1.031366348E1
1.399798232E0,6.169893265E0,6.029912829E-1,9.066405296E0
1.420198232E0,6.062216282E0,3.278166950E-1,7.689933777E0
1.440340680E0,6.131608009E0,1.363908947E-1,8.180462837E0
1.460611878E0,7.438687325E0,-1.752742529E-1,8.647661209E0
1.480883076E0,7.515257835E0,-7.998009920E-1,7.043273449E0
1.501154326E0,6.454638958E0,-1.149751306E0,7.076773167E0
1.521554326E0,5.765506268E0,-1.649851203E0,7.582256794E0
1.541696722E0,5.980860233E0,-2.222334146E0,8.175676346E0
1.561967920E0,6.165107727E0,-2.152942181E0,7.883752346E0
1.582239170E0,5.794219971E0,-2.320439816E0,7.816753387E0
1.602510368E0,5.736792088E0,-2.602792740E0,8.228319168E0
1.622781566E0,6.560521603E0,-2.655434847E0,8.201997757E0
1.643052764E0,7.022336483E0,-2.679363251E0,8.142177582E0
1.663323961E0,7.834101200E0,-2.657827854E0,7.675576687E0
1.683595159E0,8.712865829E0,-2.413759947E0,6.159723759E0
1.703866357E0,1.015394306E1,-2.566900492E0,5.461019516E0
1.724137607E0,1.108534908E1,-2.454437733E0,5.767300606E0
1.744408805E0,1.193061352E1,-2.581257343E0,5.685945034E0
1.764679951E0,1.320897961E1,-2.583650351E0,4.582255363E0
1.784951201E0,1.426481247E1,-2.310868502E0,3.528815269E0
1.805222399E0,1.478166199E1,-2.272583246E0,2.815155745E0
1.825493597E0,1.426959801E1,-2.349153519E0,2.092523336E0
1.845764795E0,1.327358532E1,-2.083550215E0,1.170688510E0
1.866035993E0,1.266281700E1,-1.872383714E0,2.943171859E-1
1.886307191E0,1.193300629E1,-1.709671736E0,-4.863412082E-1
1.906578389E0,1.125284672E1,-1.463211060E0,-9.672985673E-1
1.926849586E0,1.071446133E1,-1.300499082E0,-1.379462242E0
1.947120784E0,1.058704376E1,-1.192822099E0,-1.441675663E0
1.967391982E0,1.032622623E1,-8.955138922E-1,-1.436890006E0
1.987663180E0,1.010130119E1,-4.695914388E-1,-2.133799553E0
2.007934378E0,9.339784622E0,-7.280163169E-1,-3.383451223E0
2.028205576E0,9.567103386E0,-1.642672777E0,-3.574877024E0
2.048605576E0,9.957731247E0,-1.848455548E0,-2.698505640E0
2.068747972E0,9.804591179E0,-1.652244091E0,-1.915454507E0
2.089019170E0,8.820542336E0,-1.362712502E0,-1.982453585E0
2.109290368E0,9.622735977E0,-1.951346874E0,-1.702493310E0
2.129561566E0,9.468997002E0,-1.996810555E0,-1.448854089E0
2.149832764E0,9.129216194E0,-2.001596212E0,-1.554138303E0
2.170103961E0,8.602795601E0,-1.800599098E0,-2.619542599E0
2.190375159E0,8.250452042E0,-1.702493310E0,-3.751945972E0
2.210646357E0,8.626724243E0,-1.668993831E0,-2.940180779E0
2.230917607E0,8.631509781E0,-1.855633974E0,-1.838884234E0
2.251188805E0,9.291928291E0,-1.944168448E0,-8.476574421E-1
2.271460003E0,1.018026352E1,-1.910668850E0,-8.524430394E-1
2.291731201E0,1.040279675E1,-1.767099500E0,-1.441675663E0
2.312002399E0,8.568697929E0,-1.676172256E0,-3.326023579E0
2.332273649E0,8.916254997E0,-1.475175142E0,-3.759124279E0
2.352544847E0,1.035015392E1,-1.826920033E0,-2.411366940E0
2.372816045E0,1.070967579E1,-1.881955028E0,-1.530210137E0
2.393087243E0,1.151127148E1,-1.960918188E0,-1.357926846E0
2.413358493E0,1.000558758E1,-1.012762189E0,-2.564507723E0
2.433629691E0,1.016829967E1,-8.955138922E-1,-1.733600020E0
2.453900941E0,9.675378799E0,-1.269392371E0,-4.719842672E-1
2.474172139E0,8.662615776E0,-1.049252748E0,-1.444068432E0
2.494443336E0,7.426723480E0,-5.557330847E-1,-1.946561217E0
2.514714586E0,6.897909641E0,-6.275177598E-1,-7.088736892E-1
2.534985784E0,7.922635555E0,-6.753742099E-1,2.153540403E-2
2.555257034E0,7.757531166E0,-3.667000830E-1,-6.466603279E-1
2.575528232E0,7.872386456E0,-1.178465188E-1,-1.173679471E0
2.595799430E0,8.145168304E0,5.982056633E-2,-1.812563181E0
2.616199430E0,8.992825508E0,2.416750938E-1,-1.501496196E0
2.636341930E0,9.059824944E0,2.512463629E-1,-7.782655358E-1
2.656613180E0,8.947361946E0,2.679961324E-1,1.674975827E-2
2.676884378E0,8.930612564E0,2.129612118E-1,2.009970993E-1
2.697155628E0,9.088538170E0,3.110669553E-1,7.896314561E-2
2.717426878E0,1.032383347E1,2.177468538E-1,2.871387079E-2
2.737698128E0,1.097527885E1,4.259224236E-1,-1.022333503E0
2.757969378E0,1.091067314E1,7.513462901E-1,-2.047059774E0
2.778240628E0,9.864411354E0,3.924229145E-1,-1.331605792E0
2.798511826E0,1.076949692E1,-2.303091735E-1,2.249253243E-1
2.818911826E0,1.072403336E1,-3.140579760E-1,-2.805584669E-1
2.839054326E0,1.025444126E1,-3.260220885E-1,-1.243071318E0
2.859325576E0,1.033819008E1,-5.198407173E-1,-9.098708034E-1
2.879596826E0,1.001037312E1,-5.365904570E-1,-1.221535921E0
2.899868076E0,9.885947227E0,-3.260220885E-1,-1.525424480E0
2.920268076E0,1.002712345E1,-1.465603858E-1,-1.257428288E0
2.940410576E0,1.033579731E1,-2.877369225E-1,-1.161715388E0
2.960681826E0,9.948160172E0,3.254238665E-1,-2.018345833E0
2.980953128E0,1.023290634E1,3.708875179E-1,-2.143370867E0
3.001224326E0,1.051525879E1,4.522434771E-1,-2.013560295E0
3.021624326E0,9.778269768E0,7.704889178E-1,-1.922633052E0
3.041766878E0,8.882756233E0,9.571290612E-1,-1.532602906E0
3.062038128E0,8.248059273E0,8.446664214E-1,-1.336391449E0
3.082309378E0,9.074181557E0,9.906286001E-1,-1.585245013E0
3.102580628E0,9.380462646E0,1.816750646E0,-2.109871387E0
3.122980628E0,8.849256516E0,-8.356932998E-1,-7.160521746E-1
3.143123180E0,8.607581139E0,-1.479960799E0,-1.432104349E0
3.163394430E0,9.984052658E0,-6.203392744E-1,-3.531806231E0
3.183665680E0,1.089153004E1,1.100698411E-1,-1.869990945E0
3.203936930E0,9.945767403E0,1.196411327E-1,-1.367498159E0
3.224208180E0,1.033101177E1,2.033899277E-1,-1.487139225E0
3.244479482E0,9.514460564E0,6.173482537E-1,-2.581257343E0
3.264750732E0,8.700901031E0,4.115654826E-1,-2.387438774E0
3.285021982E0,9.122037888E0,-8.673982322E-2,-1.573280931E0
3.305293284E0,1.024008465E1,-5.341976285E-1,-1.680957913E0
3.325564534E0,8.880363464E0,-7.016952634E-1,-2.892324448E0
3.345835784E0,8.523234367E0,-9.529415965E-1,-2.392224550E0
3.366107086E0,7.371688366E0,-6.562315822E-1,-2.822932482E0
3.386378336E0,7.280761242E0,-5.916253924E-1,-2.243869543E0
3.406649639E0,1.155434227E1,-2.051845312E0,-1.936989903E0
3.426920889E0,1.118345451E1,-1.259821177E0,-2.408974171E0
3.447192139E0,1.127438164E1,-1.795813441E0,-2.229512453E0
3.467463441E0,9.181859016E0,-1.580459356E0,-2.877967358E0
3.487734691E0,7.877171993E0,-1.269392371E0,-1.207179070E0
3.508005941E0,8.770293236E0,-3.141776085E0,-2.068595171E0
3.528277243E0,9.098110199E0,-3.156133175E0,-2.325225353E0
3.548548493E0,8.135597229E0,-2.461616278E0,-2.944966555E0
3.568819795E0,1.084606647E1,-3.342773199E0,-2.779861689E0
3.589091045E0,1.000080204E1,-1.678565025E0,-2.112264156E0
3.609362347E0,8.532805443E0,-1.259821177E0,-5.916253924E-1
3.629633597E0,8.904291153E0,-3.321237803E0,1.553540111E0
3.649904847E0,9.416355133E0,-2.657827854E0,-1.063609719E0
3.670176149E0,8.386843681E0,-1.386640668E0,-3.119642496E0
3.690447399E0,1.637887120E0,4.476971149E0,-3.976871252E0
3.710718649E0,5.787041664E0,-3.601198196E0,2.611765862E0
3.730989951E0,1.078385353E1,-6.352345943E0,6.723831892E-1
3.751261201E0,1.250249863E1,-8.370692253E0,-2.621935368E0
3.771532451E0,1.042672443E1,-9.603593826E0,-8.090133667E0
3.791803753E0,5.379663467E0,-8.952147484E0,-4.893920422E0
3.812075003E0,5.204987526E0,-1.084367371E1,-2.241476536E0
3.832346253E0,7.747959614E0,-1.041535854E1,-2.184048891E0
3.852617555E0,9.004789352E0,-9.806983948E0,-2.846860647E0
3.872888805E0,8.295916557E0,-6.181857109E0,-2.959323406E0
3.893160055E0,6.988836765E0,-3.818944931E0,-2.595614433E0
3.913431357E0,7.070192814E0,-4.936991215E0,-1.776670814E0
3.933702607E0,7.510472298E0,-5.593223095E0,-2.097907305E0
3.953973857E0,7.383652687E0,-5.121238708E0,-2.968894720E0
3.974245107E0,6.617949009E0,-5.954539299E0,-2.614757061E0
3.994516409E0,5.478367329E0,-7.185048103E0,-2.102692842E0
4.014787659E0,5.679364681E0,-7.101299286E0,-2.732005358E0
4.035058909E0,6.905087948E0,-5.631507874E0,-2.619542599E0
4.055330159E0,7.438687325E0,-5.937789440E0,-1.982453585E0
4.075601409E0,6.821339130E0,-7.415357590E0,-1.645065546E0
4.095872711E0,4.728815556E0,-9.603593826E0,-2.554936409E0
4.116143961E0,4.515854359E0,-9.845269203E0,-2.109871387E0
4.136415211E0,4.436891556E0,-9.299106598E0,-1.685743570E0
4.156686409E0,5.271986485E0,-8.109275818E0,-2.717648268E0
4.176957711E0,5.039882660E0,-6.476772785E0,-1.984846354E0
4.197228961E0,3.388236761E0,-2.935395241E0,-1.152144074E0
4.217500264E0,3.787838221E0,-6.756732941E0,-2.222334146E0
4.237771514E0,3.021536827E0,-7.786244869E0,-2.370688915E0
4.258042764E0,3.102892876E0,-8.861220360E0,-1.207179070E0
4.278313961E0,2.767897606E0,-7.865208149E0,-1.214357495E0
4.298721930E0,1.712064624E0,-7.829315662E0,-1.903490424E0
4.319005107E0,2.485544443E0,-9.272786140E0,-2.423331022E0
4.339120889E0,3.021536827E0,-1.126481056E1,-1.951346874E0
4.359393545E0,4.528416991E-1,-1.595294857E1,-1.412961721E0
4.379665889E0,1.697707653E0,-1.279741383E1,-2.947359324E0
4.399937034E0,4.624129832E-1,-8.686544418E0,-2.724826813E0
4.420337972E0,-6.053841114E-1,-9.143573761E0,-2.923431158E0
4.440481201E0,-2.075773716E0,-8.930612564E0,-3.390629768E0
4.460753024E0,-3.067000389E0,-9.428917885E0,-2.468794823E0
4.481024691E0,-2.606980324E0,-9.165108681E0,-2.830111027E0
4.501295941E0,-2.952144861E0,-9.179466248E0,-4.408177376E0
4.521696357E0,-2.161915302E0,-1.053739262E1,-4.281357765E0
4.541839066E0,-1.780858278E0,-9.246464729E0,-3.342773199E0
4.562110576E0,-2.810370207E0,-8.035098076E0,-3.594019651E0
4.582381982E0,-3.411566973E0,-7.633104324E0,-4.200001717E0
4.602653336E0,-3.425923824E0,-9.102895737E0,-4.082155228E0
4.622924691E0,-2.037488461E0,-1.087717342E1,-3.235096216E0
4.643196045E0,-1.658824325E0,-1.065942669E1,-3.074178934E0
4.663467399E0,-7.752745152E-1,-9.224929810E0,-2.937788010E0
4.683738649E0,-1.354935765E0,-9.785448074E0,-3.134597778E0
4.704009951E0,-1.711466432E0,-1.068096161E1,-2.849253654E0
4.724281253E0,-1.756929994E0,-1.013240719E1,-2.633899450E0
4.744552399E0,-2.537588358E0,-8.330014229E0,-2.870789051E0
4.764823701E0,-2.861217737E0,-7.141977310E0,-2.475973129E0
4.785094899E0,-2.006381750E0,-7.975277901E0,-1.070788145E0
4.805366149E0,-2.057827413E-1,-9.299106598E0,7.417750359E-2
4.825637399E0,2.153540403E-1,-1.027836990E1,-2.213360928E-2
4.845908649E0,8.859425783E-1,-1.087717342E1,-5.150550604E-1
4.866179899E0,1.041476011E0,-1.091067314E1,-1.290927768E0
4.886451097E0,7.232306600E-1,-1.051585770E1,-1.506281853E0
4.906722347E0,1.028913707E-1,-9.414560318E0,-1.379462242E0
4.926993545E0,-5.120640397E-1,-8.990432739E0,-1.012762189E0
4.947264795E0,-7.130611539E-1,-9.270393372E0,-7.519445419E-1
4.967536045E0,-9.002995491E-1,-9.742377281E0,-9.457631707E-1
4.987807243E0,-8.500502706E-1,-9.634700775E0,-1.350748420E0
5.008078389E0,-1.187438250E0,-9.351749420E0,-1.420140266E0
5.028349586E0,-1.493719578E0,-9.270393372E0,-1.216750264E0
5.048620889E0,-1.725823283E0,-9.122037888E0,-1.147358418E0
5.068892086E0,-1.603789330E0,-9.124430656E0,-1.262213945E0
5.089163284E0,-1.405185103E0,-9.189037323E0,-1.245464206E0
5.109434534E0,-1.132403374E0,-9.246464729E0,-1.417747378E0
5.129705732E0,-6.556333899E-1,-9.560523033E0,-1.791027784E0
5.149976930E0,-6.221338734E-2,-9.871589661E0,-1.788634896E0
5.170248076E0,1.459621787E-1,-9.907482147E0,-1.762313843E0
5.190519326E0,-6.221338734E-2,-9.546165466E0,-1.623530149E0
5.210790524E0,-2.775674164E-1,-9.412167549E0,-1.580459356E0
5.231061774E0,-4.929214716E-1,-9.649057388E0,-1.680957913E0
5.251332972E0,-6.747759581E-1,-1.024247742E1,-1.733600020E0
5.271604170E0,-1.316052526E-1,-1.182772255E1,-1.027119160E0
5.291875368E0,2.997010350E-1,-1.304866028E1,1.914258152E-1
5.312275368E0,-1.063011408E0,-1.276630688E1,-1.128215909E0
5.332417764E0,-1.905883193E0,-1.220339584E1,-2.758326292E0
5.352688961E0,-2.743371248E0,-1.206939697E1,-2.487937450E0
5.372960159E0,-4.924428940E0,-1.136291695E1,-2.234298229E0
5.393231357E0,-6.411568165E0,-1.146879864E1,-1.642672777E0
5.413502555E0,-3.387638569E0,-1.252463150E1,-1.396211982E0
5.433773753E0,-5.838487148E-1,-1.332144165E1,-2.866003275E0
5.454044951E0,-1.914258115E-2,-1.061635590E1,-3.285345554E0
5.474316149E0,-2.392822690E-2,-7.103692055E0,-2.892324448E0
5.494587347E0,3.403790295E-1,-5.145166874E0,-1.590030670E0
5.514858545E0,4.911268353E-1,-3.802195072E0,-5.294120312E-1
5.535129743E0,4.695914388E-1,-2.392224550E0,-1.070788145E0
5.555400941E0,9.361918569E-1,-1.707278967E0,-2.394617319E0
5.575672139E0,1.141974568E0,-2.822932482E0,-3.028715372E0
5.595943336E0,8.117650747E-1,-3.744767427E0,-2.959323406E0
5.616214534E0,2.685943544E-1,-4.422534466E0,-3.083750248E0
5.636485732E0,-1.411765367E-1,-5.832505226E0,-3.507878065E0
5.656756930E0,-2.703889608E-1,-8.204988480E0,-3.100499868E0
5.677028128E0,4.719842672E-1,-1.003430176E1,-2.282154560E0
5.697299274E0,3.284149170E-1,-9.258428574E0,-3.004786968E0
5.717570420E0,-6.125625968E-1,-7.396214962E0,-2.909074068E0
5.737841618E0,-2.377269268E0,-6.900302410E0,-1.747956991E0
5.758112868E0,-4.041477680E0,-7.235297680E0,-1.302891970E0
5.778384014E0,-5.391627789E0,-7.022336483E0,-2.583650351E0
5.798655159E0,-6.461817741E0,-7.125227451E0,-3.445664644E0
5.819055159E0,-6.772884369E0,-1.089153004E1,-3.369094372E0
5.839197555E0,-4.517649174E0,-1.546182156E1,-1.276570916E0
5.859468701E0,1.043868899E0,-1.890509415E1,-5.394618511E0
5.879739899E0,4.645066738E0,-2.077209282E1,-1.176072359E0
5.900011045E0,3.011965513E0,-1.305583858E1,1.387837082E-1
5.920411045E0,1.984846354E0,-5.686542988E0,-1.061216831E0
5.940553441E0,1.060618639E0,-2.956930637E0,9.738788009E-1
5.960824586E0,-2.271985054E0,-7.206583500E0,-4.528416991E-1
5.981095784E0,-1.338186026E0,-1.306780243E1,-4.043870449E0
6.001366930E0,9.768698215E-1,-1.341476154E1,-4.386641979E0
6.021766930E0,1.389033556E0,-1.243310642E1,-4.400999069E0
6.041909274E0,1.355534077E0,-1.032622623E1,-3.771088600E0
6.062180472E0,6.490531564E-1,-6.888338089E0,-3.605983734E0
6.082451618E0,4.384847581E-1,-4.628317356E0,-2.688934565E0
6.102722816E0,-5.264210105E-1,-3.177668571E0,-1.822134495E0
6.123122816E0,-2.451446772E0,-4.365106583E0,-1.666600943E0
6.143265159E0,-2.044667006E0,-5.375475883E0,-1.922633052E0
6.163536305E0,-1.582253933E0,-7.278966427E0,-2.822932482E0
6.183807503E0,-1.913061738E0,-1.171047401E1,-3.945764542E0
6.204078649E0,-2.049452543E0,-1.657508278E1,-3.268595695E0
6.224349847E0,-2.750549555E0,-2.382952309E1,-5.322834015E0
6.244620993E0,-1.984846354E0,-2.593879509E1,-6.510272026E0
6.264892139E0,-1.737787485E0,-1.354696560E1,-5.246263504E0
6.285163336E0,-1.963310957E0,-6.924230576E0,-4.250251293E0
6.305434482E0,-1.230509043E0,-4.956133842E0,-4.434498787E0
6.325705680E0,1.962114573E-1,-2.394617319E0,-4.901099205E0
6.345976826E0,1.302891970E0,-6.490531564E-1,-5.078167915E0
6.366247972E0,1.654636860E0,-7.160521746E-1,-4.252644062E0
6.386519118E0,2.212164640E0,-1.934597135E0,-3.512663603E0
6.406790316E0,2.667398930E0,-5.392225742E0,-2.174477577E0
6.427061461E0,3.744767427E0,-1.085563850E1,-8.356932998E-1
6.447332659E0,2.164308071E0,-1.151186943E1,-1.324427366E0
6.467603805E0,-2.145165443E0,-8.930612564E0,-5.006981492E-1
6.487874951E0,-3.196212769E0,-6.438487530E0,-2.308475733E0
6.508146149E0,-1.999203324E0,-5.215157032E0,-4.372285366E0
6.528409378E0,-3.722633839E0,-4.267001152E0,-4.219144344E0
6.548611514E0,-9.119645119E0,-7.261618614E0,-4.654638290E0
6.568960836E0,-1.118106174E1,-1.350329685E1,-5.676971674E-1
6.589231722E0,-5.269593716E0,-1.885963058E1,-1.247856975E0
6.609502711E0,3.634697676E0,-2.395215416E1,1.529611826E0
6.629773753E0,4.494318962E0,-2.150010872E1,-2.710469961E0
6.650044743E0,3.251247883E0,-7.925028801E0,-2.588435888E0
6.670315836E0,7.447660565E-1,-3.076571703E0,2.090130568E0
6.690586982E0,-1.094118118E0,-4.444069862E0,1.292124242E-1
6.710858024E0,-2.866003275E0,-1.102552891E1,-3.955335855E0
6.731129118E0,-1.841277003E0,-1.332622719E1,-6.424130440E0
6.751400264E0,1.316052526E-1,-1.303669643E1,-3.007179976E0
6.771671409E0,1.211366415E0,-1.177747345E1,-1.657029629E0
6.791942555E0,-4.187439680E-1,-8.075776100E0,-4.963312149E0
6.812342503E0,-1.711466432E0,-3.833301783E0,-4.314857483E0
6.832484795E0,-2.851048231E0,-1.901097536E0,-3.869194269E0
6.852755941E0,-2.472982168E0,-1.616351724E0,-1.812563181E0
6.873027086E0,-9.361918569E-1,-3.187239647E0,-9.098708034E-1
6.893298232E0,2.129612118E-1,-5.665007591E0,6.939185411E-2
6.913569378E0,2.997010350E-1,-9.668199539E0,-1.063609719E0
6.933840472E0,6.227321029E-1,-1.886441612E1,-3.718446493E0
6.954111670E0,-2.855833769E0,-2.464607239E1,-6.560521603E0
6.974382816E0,4.049852192E-1,-1.706142426E1,-4.558925152E0
6.994653961E0,9.553344250E-1,-1.060917759E1,-3.431307554E0
7.014925055E0,1.367498159E0,-9.785448074E0,-3.273381472E0
7.035196253E0,1.962114573E-1,-8.066205025E0,-3.632304668E0
7.055467399E0,-2.176272154E0,-5.147559643E0,-3.227917671E0
7.075738545E0,-2.831905603E0,-2.930609465E0,-3.007179976E0
7.096009691E0,-1.371685624E0,-3.964907169E0,-3.594019651E0
7.116409691E0,-3.302095234E-1,-5.600401402E0,-4.055834293E0
7.136551930E0,3.451646566E-1,-6.326025009E0,-3.701696634E0
7.156823128E0,1.137188911E0,-7.319644451E0,-2.521436930E0
7.177094274E0,8.189435601E-1,-8.787042618E0,-1.668993831E0
7.197369378E0,-7.854440212E-1,-9.634700775E0,-2.267797709E0
7.217675107E0,-3.189034462E0,-8.892327309E0,-3.294916868E0
7.237907139E0,-2.365305185E0,-8.447261810E0,-5.655436516E0
7.258178389E0,-6.915257573E-1,-6.546164513E0,-4.446462631E0
7.278449639E0,3.828516230E-2,-5.361119270E0,-1.791027784E0
7.298720784E0,-2.082952023E0,-7.252047062E0,-1.197607756E0
7.319120889E0,-8.032107353E0,-1.261316681E1,-1.575673699E0
7.339263232E0,-7.759325504E0,-1.892184258E1,-3.582055569E0
7.359534430E0,2.897109985E0,-2.397847557E1,-2.368296146E0
7.379805576E0,6.413960934E0,-1.984607124E1,-3.129213810E0
7.400076722E0,2.020738840E0,-1.014676476E1,-1.355534077E0
7.420476722E0,9.385846853E-1,-6.615556240E0,1.687538147E0
7.440619014E0,-2.748156786E0,-8.030312538E0,1.051047325E0
7.460890159E0,-5.370092392E0,-9.536594391E0,-3.261417150E0
7.481161357E0,-2.873181820E0,-9.579665184E0,-3.692125320E0
7.501432451E0,2.733799815E-1,-9.737591743E0,-1.336391449E0
7.521832451E0,7.782655358E-1,-9.677771568E0,-5.892325640E-1
7.541974743E0,-1.323829174E0,-7.963313580E0,-2.913859844E0
7.562245836E0,-2.618944407E0,-6.373881340E0,-5.193023205E0
7.582516982E0,-1.994417667E0,-5.629115105E0,-3.969692707E0
7.602788128E0,-4.785645287E-3,-4.604389191E0,-2.073380709E0
7.623059274E0,3.882354796E-1,-4.077369690E0,-6.873382926E-1
7.643330420E0,4.791627228E-1,-5.765506268E0,-1.393819153E-1
7.663601514E0,1.652244091E0,-8.305487633E0,-1.386640668E0
7.683872659E0,1.860419631E0,-8.349156380E0,-1.566102386E0
7.704143753E0,9.337990284E-1,-7.228118896E0,-2.681756020E0
7.724414899E0,-4.211367965E-1,-8.166703224E0,-4.180859566E0
7.744686045E0,-1.007976532E0,-1.196889877E1,-4.463212490E0
7.764957086E0,-1.582253933E0,-1.551446342E1,-3.481556892E0
7.785228284E0,-2.133201361E0,-2.162692833E1,-5.607579708E0
7.805499378E0,-2.410768747E0,-2.131107712E1,-5.832505226E0
7.825770472E0,-1.822134495E0,-9.469595909E0,-5.739185333E0
7.846041618E0,-1.453041553E0,-4.925027370E0,-4.139583111E0
7.866312711E0,-7.369893789E-1,-4.671388149E0,-2.184048891E0
7.886583857E0,-7.274180651E-1,-3.536591768E0,-2.440080881E0
7.906854951E0,-1.084546804E0,-2.674577475E0,-3.381058455E0
7.927126045E0,-9.505487680E-1,-3.608376503E0,-4.060619831E0
7.947397191E0,1.339980662E-1,-5.087738991E0,-3.900300980E0
7.967668284E0,1.329213023E0,-7.889136314E0,-3.431307554E0
7.987939378E0,2.636292458E0,-1.178465176E1,-3.211168051E0
8.008210472E0,2.643470764E0,-1.171047401E1,-4.058227062E0
8.028481618E0,3.236292601E-1,-8.612366676E0,-2.109871387E0
8.048752711E0,-1.551147223E0,-5.008776188E0,-1.226321608E-1
8.069023805E0,-3.327818155E0,-3.064607620E0,-6.993024349E-1
8.089294899E0,-7.663612843E0,-5.650650501E0,-5.178666592E0
8.109565993E0,-9.459425926E0,-1.376231956E1,-3.232703447E0
8.129837139E0,8.739784956E-1,-2.454557419E1,-1.508674622E0
8.150108232E0,3.416950703E0,-2.449053955E1,-3.993621111E0
8.170379326E0,2.947359324E0,-1.383171082E1,-3.979264021E0
8.190650420E0,-5.814558864E-1,-8.566903114E0,1.914856315E0
8.210921514E0,-2.928216696E0,-8.827720642E0,2.910868645E0
8.231192607E0,-4.529613495E0,-8.123632431E0,-1.331605792E0
8.251463701E0,-2.470589399E0,-8.339585304E0,-3.306880951E0
8.271734795E0,4.624129832E-1,-1.123370457E1,-4.948955536E0
8.292005889E0,-2.392822653E-1,-1.100399303E1,-5.301298618E0
8.312276982E0,-1.204187989E0,-7.580461979E0,-3.969692707E0
8.332548076E0,-1.189831018E0,-4.963312149E0,-2.806182861E0
8.352819118E0,-1.247258782E0,-2.753540754E0,-1.343569875E0
8.373090159E0,-8.835497499E-1,-2.495115757E0,-1.319641709E0
8.393361253E0,-2.512463629E-1,-5.087738991E0,-1.972882271E0
8.413632347E0,2.153540403E-1,-6.304489613E0,-1.012762189E0
8.433903441E0,-3.708875179E-1,-7.336394310E0,-1.147358418E0
8.454174534E0,-1.331007600E0,-1.064746284E1,-3.728017569E0
8.474445576E0,-2.851048231E0,-1.543071461E1,-4.317250252E0
8.494716670E0,-4.249652863E0,-2.111965179E1,-5.760720730E0
8.514987764E0,-2.157129526E0,-2.434936333E1,-5.475974560E0
8.535258857E0,-1.244866014E0,-1.527757454E1,-4.307679176E0
8.555529951E0,-1.770688742E-1,-7.578069210E0,-5.619544029E0
8.575800993E0,7.178467698E-3,-5.032704353E0,-4.365106583E0
8.596072086E0,-1.698904037E-1,-4.467998028E0,-1.786242127E0
8.616343180E0,-8.500502706E-1,-3.433700562E0,-1.377069473E0
8.636614274E0,-1.479362607E0,-3.400201082E0,-2.138585329E0
8.656885316E0,-1.019940615E0,-4.802993298E0,-2.911466837E0
8.677156409E0,-1.100698411E-1,-6.634698868E0,-3.285345554E0
8.697435472E0,8.691928387E-1,-9.059824944E0,-2.777468920E0
8.717775732E0,7.663014531E-1,-9.455238342E0,-2.921038151E0
8.737968597E0,-1.546361685E0,-7.063014030E0,-4.278964996E0
8.758239847E0,-3.825525284E0,-6.067001820E0,-1.776670814E0
8.778511097E0,-2.341377020E0,-6.952944279E0,-1.551745534E0
8.798782086E0,-6.867401004E-1,-6.775875568E0,-2.925823927E0
8.819182243E0,-5.335994363E-1,-6.059823513E0,-3.591626883E0
8.839324586E0,-4.034298897E0,-7.580461979E0,-4.843671322E0
8.859595732E0,-7.859824181E0,-1.227039433E1,-2.387438774E0
8.879866878E0,-6.198606968E0,-1.841157341E1,-5.059025288E0
8.900137920E0,8.356932998E-1,-2.510848618E1,2.621337175E0
8.920537972E0,7.484150887E0,-2.200798607E1,-5.401797295E0
8.940680159E0,3.634697676E0,-9.739984512E0,-3.694518089E0
8.960951305E0,1.206580877E0,-4.601995945E0,1.685145378E0
8.981222399E0,-5.886343718E-1,-6.924230576E0,1.723430514E0
9.001493441E0,-4.931607246E0,-1.074317551E1,5.934200287E-1
9.021893441E0,-4.867001057E0,-1.041296577E1,-2.487937450E0
9.042035628E0,-2.995215654E0,-9.639486313E0,-3.146561861E0
9.062306670E0,-2.225325108E-1,-9.409774780E0,-1.793420553E0
9.082577711E0,9.332008660E-2,-8.320442200E0,-2.992822886E0
9.102848805E0,-4.474578202E-1,-5.956932068E0,-4.932205677E0
9.123248805E0,-4.307080805E-2,-4.807778835E0,-4.886742115E0
9.143390941E0,2.279163599E0,-4.530211449E0,-2.531008244E0
9.163662034E0,2.976073265E0,-4.630710125E0,-1.197607756E0
9.183933076E0,8.620143533E-1,-5.633901119E0,-1.000798106E0
9.204204118E0,-7.513462901E-1,-6.251847267E0,-1.769492388E0
9.224475211E0,-6.699903607E-1,-6.493522644E0,-2.949752092E0
9.244746253E0,-4.905286431E-1,-9.749555588E0,-4.901099205E0
9.265017347E0,-1.378864050E0,-1.569452381E1,-4.048655987E0
9.285288389E0,-4.216153622E0,-2.122493553E1,-4.434498787E0
9.305559482E0,-1.292722464E0,-2.388216400E1,-4.956133842E0
9.325830524E0,-1.101296663E0,-1.533500195E1,-3.723232031E0
9.346101566E0,-1.865205288E0,-8.856434822E0,-4.795814991E0
9.366372659E0,-2.539981127E0,-5.322834015E0,-4.817350388E0
9.386643701E0,-2.504088879E0,-3.364308596E0,-3.105285645E0
9.406914795E0,-1.855633974E0,-2.698505640E0,-2.492722988E0
9.427185836E0,-1.264008522E0,-4.221537113E0,-2.825325251E0
9.447456878E0,-1.074975610E0,-5.777470112E0,-3.023929596E0
9.467727972E0,-5.407779217E-1,-7.334001541E0,-2.394617319E0
9.487999014E0,9.912267923E-1,-8.449654579E0,-1.975275040E0
9.508270107E0,1.917847395E0,-7.177869797E0,-2.885145903E0
9.528541149E0,-2.344966233E-1,-6.035895348E0,-4.795814991E0
9.548812191E0,-3.413959742E0,-7.566105366E0,-2.382653236E0
9.569083284E0,-2.599801779E0,-7.690532207E0,-4.528416991E-1
9.589354326E0,-4.115654826E-1,-5.197809219E0,-1.164108157E0
9.609625420E0,-3.160320520E0,-5.003990173E0,-5.229514122E0
9.629896461E0,-9.801599503E0,-1.080060291E1,-1.542174220E0
9.650167555E0,-6.016752720E0,-1.578784370E1,1.170688510E0
9.670438545E0,7.878368497E-1,-2.397369003E1,-6.672984123E0
9.690709691E0,5.080560684E0,-2.604946327E1,-6.818946362E0
9.710980732E0,4.362115860E0,-1.478465271E1,-2.605185747E0
9.731251826E0,2.925823927E0,-1.013001442E1,3.579064369E0
9.751522868E0,5.581258535E-1,-8.307880402E0,3.086741269E-1
9.771793961E0,-3.837489367E0,-9.651450157E0,-2.810968399E0
9.792065003E0,-3.708276987E0,-8.073383331E0,-3.076571703E0
9.812465003E0,-1.486541033E0,-7.800601959E0,2.727817893E-1
9.832607139E0,-2.512463629E-1,-7.206583500E0,8.925228715E-1
9.852878180E0,-2.671586514E0,-5.428118229E0,-2.100300074E0
9.873149274E0,-4.496113777E0,-4.345963955E0,-4.108476639E0
9.893420316E0,-3.803989887E0,-5.339583874E0,-1.910668850E0
9.913691357E0,-1.455434322E0,-6.768697262E0,-4.600201547E-1
9.933962451E0,5.772684813E-1,-8.332406998E0,-1.554138303E0
9.954233493E0,3.062214851E0,-9.534201622E0,-2.894717216E0
9.974504586E0,4.029513359E0,-8.571688652E0,-2.234298229E0
9.994775628E0,3.924229145E0,-6.998407841E0,-1.278963685E0
1.001504667E1,2.550150633E0,-6.830910206E0,-5.294120312E-1
1.003531776E1,2.013560295E0,-9.136395454E0,-1.738385677E0
1.005558881E1,-1.027119160E0,-1.364267826E1,-9.672985673E-1
1.007585990E1,-5.106881618E0,-1.562752438E1,7.657032609E-1
1.009613094E1,-5.312664509E0,-2.115075684E1,7.824530005E-1
1.011640203E1,-3.734597921E0,-2.559901428E1,1.359721422E0
1.013667308E1,-1.311864972E0,-2.459582329E1,-7.806583643E-1
1.015694412E1,-9.744769931E-1,-1.875913048E1,-2.119442701E0
1.017721521E1,-1.816750646E0,-1.529671669E1,-2.015953064E-1
1.019748625E1,-2.425125837E0,-1.335015583E1,1.137188911E0
1.021788625E1,-2.439482689E0,-1.182532978E1,1.948355794E0
1.023802839E1,-1.685145378E0,-1.021615601E1,1.778465390E0
1.025829943E1,-1.225723386E0,-8.351549149E0,1.969891191E0
1.027857052E1,-1.783251047E0,-6.570092678E0,2.417947292E0
1.029884157E1,-2.752942562E0,-4.805386066E0,2.267199516E0
1.031924157E1,-3.236890793E0,-3.184846878E0,1.819143414E0
1.033938365E1,-3.490530014E0,-1.891526341E0,1.204187989E0
1.035965474E1,-4.649254322E0,-1.915454507E0,2.656033039E-1
1.037992584E1,-5.140381336E0,-4.611567497E0,-2.212762833E0
1.040019688E1,-4.141975880E0,-9.407382011E0,-5.997610092E0
1.042059688E1,-2.935395241E0,-1.409492207E1,-8.849256516E0
1.044073901E1,-4.448257446E0,-1.421216965E1,-7.515855789E0
1.046101006E1,-3.143570662E0,-1.066899776E1,-7.211369038E0
1.048128105E1,7.471588850E-1,-8.521439552E0,-5.509474277E0
1.050155219E1,7.567301393E-1,-1.273280716E1,5.647061467E-1
1.052195219E1,-4.491328239E0,-1.830389595E1,9.858429432E-1
1.054209427E1,-5.779264927E0,-1.557907009E1,-5.114060402E0
1.056236537E1,8.428717852E-1,-5.605186939E0,4.307080805E-2
1.058263641E1,3.546163082E0,-2.672184706E0,2.097309113E0
1.060290745E1,2.114058733E0,-4.338785648E0,3.753740549E0
1.062317854E1,-3.589234129E-2,-9.318249702E0,3.909274101E0
1.064344959E1,-5.886343718E-1,-1.670967865E1,1.362114310E0
1.066372063E1,-8.309076428E-1,-1.888355827E1,-3.237488985E0
1.068399167E1,-4.534399033E0,-1.362353611E1,-4.702494621E0
1.070426276E1,-4.699503899E0,-7.834101200E0,-2.712862730E0
1.072453380E1,-3.222533941E0,-6.864409924E0,-2.781656384E-1
1.074480485E1,-2.889931440E0,-5.844469070E0,-4.606183618E-2
1.076507589E1,-2.846262455E0,-5.346762180E0,-2.547757864E0
1.078534698E1,-8.093722463E-1,-7.508677483E0,-2.444866419E0
1.080561802E1,-7.657032460E-2,-9.088538170E0,-3.786641955E-1
1.082588907E1,-9.744769931E-1,-9.184251785E0,2.416750938E-1
1.084616011E1,-1.838884234E0,-8.856434822E0,-6.514459848E-1
1.086643115E1,-1.982453585E0,-8.794221878E0,-1.302891970E0
1.088670224E1,-1.486541033E0,-9.227322578E0,-9.098708034E-1
1.090697328E1,-7.106683254E-1,-1.026161957E1,-2.350948304E-1
1.092724433E1,-3.206382394E-1,-1.188754272E1,-7.686942816E-1
1.094751537E1,4.695914388E-1,-1.257248878E1,-2.039881229E0
1.096778641E1,1.688136339E0,-1.282134151E1,-2.928216696E0
1.098805745E1,2.490330219E0,-1.260598755E1,-3.071786165E0
1.100832849E1,2.466402054E0,-1.154058361E1,-2.480758905E0
1.102859953E1,2.851646423E0,-1.151426220E1,-2.231905222E0
1.104887063E1,3.790230989E0,-1.230389404E1,-4.313062727E-1
1.106914167E1,1.499103427E0,-1.024726295E1,1.771286964E0
1.108941271E1,-1.804786444E0,-9.570094109E0,1.938784599E0
1.110968375E1,-4.922036171E0,-1.198564816E1,2.092523336E0
1.112995480E1,-7.146762848E0,-1.407577896E1,1.711466432E0
1.115022584E1,-7.228118896E0,-1.629512215E1,-0.000000000E0
1.117049683E1,-4.405186653E0,-1.651047707E1,-2.566302419E-1
1.119076792E1,-1.101296663E0,-1.431745434E1,2.392822690E-2
1.121103896E1,-2.823530734E-1,-1.194497108E1,6.963114142E-1
1.123131000E1,-1.024726272E0,-9.553344727E0,8.542376757E-1
1.125158110E1,-2.197807550E0,-7.448856831E0,6.460621357E-1
1.127185209E1,-3.040679455E0,-5.080560684E0,-1.256231871E-2
1.129212318E1,-2.755335331E0,-2.267797709E0,-2.172084808E0
1.131239417E1,-1.584646821E0,-3.547359705E-1,-2.909074068E0
1.133266521E1,-5.168496966E-1,-4.504488707E-1,-1.865205288E0
1.135293630E1,-5.240281820E-1,-1.266999602E0,-8.333004713E-1
1.137320730E1,-1.661217093E0,-2.047059774E0,-1.137787223E0
1.139347839E1,-2.496910334E0,-3.378665686E0,-1.925025821E0
1.141374943E1,-2.449054003E0,-4.635495663E0,-3.098107100E0
1.143402042E1,-2.042274237E0,-6.716054916E0,-3.517449379E0
1.145429146E1,-8.189435601E-1,-1.013240719E1,-2.339582443E0
1.147456250E1,-2.632105052E-1,-1.228475189E1,-1.003190875E0
1.149483354E1,-1.165902853E0,-1.149990559E1,-1.389033556E0
1.151510459E1,-2.082952023E0,-9.689735413E0,-2.538186550E0
1.153537558E1,-2.305484533E0,-7.994420528E0,-2.578864574E0
1.155564662E1,-2.336591244E0,-6.603592396E0,-2.361117840E0
1.157591766E1,-5.109274387E0,-7.867600918E0,-1.499103427E0
1.159618870E1,-7.338188648E0,-1.280937767E1,-2.107478619E0
1.161658870E1,-2.585444927E0,-2.118425751E1,-7.515855789E0
1.163673073E1,1.280758262E0,-2.703590393E1,-1.996810555E0
1.165700177E1,3.306282759E0,-1.486361599E1,-3.419343472E0
1.167727282E1,2.178664923E0,-7.216155052E0,-7.016952634E-1
1.169754386E1,-6.245267391E-1,-5.166702271E0,3.713062525E0
1.171794386E1,-7.489534616E-1,-6.266204357E0,1.991426587E0
1.173808584E1,-2.329412937E0,-1.009651470E1,-2.564507723E0
1.175835688E1,-3.169891834E0,-1.146162033E1,-3.775874138E0
1.177862787E1,-1.999203324E0,-1.217946720E1,-4.271786690E0
1.179889891E1,8.069794178E-1,-1.179422283E1,-3.148954630E0
1.181929891E1,3.978067636E-1,-7.740781307E0,-3.538984776E0
1.183944094E1,-4.354937077E-1,-4.300500393E0,-2.595614433E0
1.185971198E1,-7.393822074E-1,-1.295713425E0,-1.144965649E0
1.187998297E1,-2.575873613E0,-1.728814393E-1,-8.117650747E-1
1.190025401E1,-2.382055044E0,-3.768695593E0,-8.189435601E-1
1.192065401E1,-5.216353536E-1,-5.964110374E0,-5.270192027E-1
1.194079599E1,-9.816554785E-1,-7.896314621E0,-3.213560820E0
1.196106703E1,-1.780858278E0,-1.197368431E1,-4.019941807E0
1.198133797E1,-3.950550079E0,-1.634776497E1,-4.070191383E0
1.200160907E1,-4.331008911E0,-2.150728798E1,-4.980062008E0
1.202200907E1,-1.637288928E0,-2.545544624E1,-4.601995945E0
1.204215104E1,-7.633104324E-1,-1.884288025E1,-3.787838221E0
1.206242209E1,-9.816554785E-1,-7.738388538E0,-5.839683533E0
1.208269308E1,-2.697907448E0,-6.071787357E0,-4.460819721E0
1.210296407E1,-2.930609465E0,-2.849253654E0,-1.523031592E0
1.212336407E1,-2.707478762E0,-8.434699476E-2,-2.748754978E0
1.214350604E1,-1.240080357E0,3.589234129E-2,-3.622733593E0
1.216377709E1,5.796613097E-1,-1.369890928E0,-3.031108141E0
1.218404808E1,1.499103427E0,-3.584448338E0,-1.776670814E0
1.220431907E1,2.411366940E0,-6.969694138E0,-1.489532113E0
1.222459006E1,3.433700562E0,-9.369096756E0,-2.705684185E0
1.224486104E1,1.479960799E0,-1.117866898E1,-1.831705689E0
1.226513203E1,-1.723430514E0,-9.838089943E0,-1.250249863E0
1.228540302E1,-6.636493683E0,-6.314060688E0,-4.546961308E0
1.230567401E1,-7.323832035E0,-3.311666489E0,-5.080560684E0
1.232594500E1,-9.363713264E0,-5.559723377E0,-4.506283283E0
1.234621599E1,-8.688339233E0,-1.266102314E1,-2.356332064E0
1.236648698E1,2.490330219E0,-2.033181381E1,1.674975902E-1
1.238675797E1,5.621936798E0,-2.775853729E1,5.910272002E-1
1.240702896E1,4.429712772E0,-2.014038849E1,-5.164309502E0
1.242729995E1,2.700898647E0,-7.795815945E0,-9.625129104E-1
1.244757089E1,-3.069393158E0,-7.640282631E0,2.817548752E0
1.246784183E1,-4.429114819E0,-8.968897820E0,2.398804665E0
1.248811282E1,-5.288736343E0,-1.075992489E1,-1.676172256E0
1.250838381E1,-2.102094650E0,-1.225843048E1,-5.056632519E0
1.252865480E1,-1.161117196E0,-1.062592697E1,-4.810171604E0
1.254892578E1,-1.951346874E0,-7.781459332E0,-5.137988567E0
1.256919672E1,-2.976073265E0,-4.858027935E0,-4.369892120E0
1.258946771E1,-1.596610904E0,-3.052643538E0,-2.612364054E0
1.260973870E1,-4.833501875E-1,-1.802991867E0,1.076770201E-1
1.263000964E1,-1.089332461E0,-1.144965649E0,3.421736360E-1
1.265028063E1,-1.850848317E0,-3.287738323E0,-7.663014531E-1
1.267055162E1,-1.661217093E0,-7.007979393E0,-1.527817249E0
1.269082256E1,-2.181057930E0,-1.389871025E1,-2.796611547E0
1.271109354E1,-3.330210924E0,-2.280718994E1,-7.275975227E0
1.273136448E1,9.218349457E-1,-2.577608299E1,-6.921837807E0
1.275163547E1,1.733600020E0,-1.826321793E1,-4.434498787E0
1.277190641E1,-1.938186288E-1,-9.658628464E0,-4.365106583E0
1.279217740E1,-1.271187067E0,-5.720042706E0,-3.771088600E0
1.281244834E1,-1.555932879E0,-2.887538671E0,-2.851646423E0
1.283271927E1,-1.242473125E0,-3.954139352E-1,-3.040679455E0
1.285299026E1,-6.460621357E-1,-4.127619043E-2,-3.747160196E0
1.287326120E1,3.236292601E-1,-2.581257343E0,-3.479164124E0
1.289353214E1,2.185843468E0,-8.547760963E0,-1.463211060E0
1.291380313E1,3.649054527E0,-1.328554916E1,-1.609173268E-1
1.293407407E1,1.794617027E-1,-1.047517967E1,-7.519445419E-1
1.295434500E1,-4.630111694E0,-5.763113499E0,-1.012762189E0
1.297461594E1,-7.091728210E0,-2.373081923E0,-4.240679741E0
1.299488688E1,-4.591826439E0,-8.021938205E-1,-6.143572330E0
1.301515782E1,-2.693121910E0,-4.558925152E0,-4.499104977E0
1.303542880E1,-5.638088226E0,-1.359242916E1,-2.160120726E0
1.305569974E1,-8.548358679E-1,-2.623610306E1,4.307080805E-2
1.307597068E1,2.626721144E0,-3.070111084E1,2.081755698E-1
1.309624162E1,6.845267296E0,-1.406860065E1,-4.824528694E0
1.311651256E1,3.068794906E-1,-6.244668961E0,1.694716692E0
1.313678349E1,-1.704287887E0,-6.828517437E0,2.709871531E0
1.315705443E1,-5.525625706E0,-9.617950439E0,1.948355794E0
1.317732537E1,-7.409973621E0,-1.299841118E1,-4.582853794E0
1.319759631E1,-2.947359324E0,-1.487079430E1,-6.323632240E0
1.321799631E1,1.542174220E0,-1.247916794E1,-3.622733593E0
1.323813813E1,-1.076770201E-1,-8.720044136E0,-3.615555048E0
1.325840907E1,-3.349951804E-1,-7.616354465E0,-3.739981890E0
1.327868000E1,-1.122832060E0,-5.921039581E0,-3.850051641E0
1.329895094E1,-1.872383714E0,-4.267001152E0,-2.767897606E0
1.331935094E1,-1.445863128E0,-4.544568539E0,-2.119442701E0
1.333949276E1,-2.201396823E-1,-5.700900078E0,-1.266999602E0
1.335976370E1,1.172483116E-1,-6.196214199E0,-7.974081635E-1
1.338003464E1,4.528416991E-1,-6.167500496E0,-9.026923180E-1
1.340030552E1,-5.264209956E-2,-6.306882381E0,-2.507079840E0
1.342070552E1,-1.139581800E0,-8.327621460E0,-4.281357765E0
1.344084740E1,-1.211366415E0,-1.235653591E1,-4.518247128E0
1.346111828E1,-3.661018610E-1,-1.833500290E1,-5.473581791E0
1.348138917E1,-3.327818155E0,-2.478246498E1,-6.634698868E0
1.350166011E1,-2.212164640E0,-1.676710701E1,-6.862017155E0
1.352206011E1,-1.879562140E0,-7.374679565E0,-5.574080467E0
1.354220193E1,-1.529611826E0,-5.188237667E0,-3.177668571E0
1.356247287E1,-1.122832060E0,-3.873979807E0,-2.669791937E0
1.358274375E1,-8.117650747E-1,-3.687339783E0,-3.503092289E0
1.360301469E1,-3.828516304E-1,-4.889134884E0,-4.115654945E0
1.362328558E1,-2.608176768E-1,-5.590830326E0,-4.345963955E0
1.364355646E1,4.307080805E-2,-6.670591354E0,-3.531806231E0
1.366382740E1,9.960124493E-1,-8.940183640E0,-1.958525300E0
1.368409828E1,1.915454507E0,-9.625128746E0,-1.503889084E0
1.370436917E1,2.829512656E-1,-6.940980434E0,-2.049452543E0
1.372464011E1,-1.670788407E0,-4.867599487E0,-1.934597135E0
1.374491099E1,-2.049452543E0,-6.136393547E0,-3.716053486E0
1.376518188E1,-2.178664923E0,-5.913861275E0,-4.108476639E0
1.378545276E1,-3.674777269E0,-4.374678135E0,-3.692125320E0
1.380572365E1,-5.604588985E0,-5.073382378E0,-3.912265062E0
1.382599459E1,-7.591827869E0,-1.107817078E1,-2.464009047E0
1.384626547E1,-6.069394588E0,-1.782772446E1,-1.128215909E0
1.386653636E1,-4.067798555E-1,-2.477767754E1,-4.233501434E0
1.388680724E1,4.439284325E0,-2.486142731E1,-3.393022537E0
1.390707813E1,4.084548473E0,-1.245703506E1,-3.534198999E0
1.392734901E1,1.463211060E0,-6.177071571E0,2.274377823E0
1.394761990E1,3.882354796E-1,-6.239883423E0,3.661018610E-1
1.396789078E1,-4.089334011E0,-9.527023315E0,-7.136593461E-1
1.398816167E1,-3.547957659E0,-1.047757244E1,-2.224726915E0
1.400843256E1,-1.409970760E0,-1.046321487E1,-1.769492388E0
1.402870344E1,2.829512656E-1,-1.040100193E1,1.076770201E-1
1.404897427E1,-6.556333899E-1,-9.083752632E0,-1.929811478E0
1.406924516E1,-3.634099483E0,-6.282954216E0,-5.810969830E0
1.408951605E1,-4.876572609E0,-5.270191669E0,-6.239284992E0
1.410978688E1,-3.055036306E0,-4.759922504E0,-2.925823927E0
1.413005782E1,4.767699242E-1,-4.779065132E0,-1.357926846E0
1.415032870E1,2.542972326E0,-4.719244480E0,-7.423732281E-1
1.417059953E1,2.085345030E0,-4.719244480E0,-2.781656384E-1
1.419087042E1,1.707278967E0,-6.661019802E0,-1.262213945E0
1.421114125E1,1.345962763E0,-7.781459332E0,-2.552543640E0
1.423141214E1,-2.799602449E-1,-1.161715412E1,-4.019941807E0
1.425168302E1,-1.527219057E0,-1.640519142E1,-4.329214573E0
1.427195391E1,-4.175475597E0,-2.091147614E1,-5.418546677E0
1.429222474E1,-3.057429075E0,-2.190270233E1,-5.475974560E0
1.431262474E1,-3.637090325E-1,-1.451605892E1,-4.051048756E0
1.433276651E1,-1.185045362E0,-1.291466236E1,-4.125226021E0
1.435303735E1,-2.870789051E0,-1.487557983E1,-6.311667919E0
1.437330823E1,-3.253640652E0,-1.229671574E1,-6.224927902E0
1.439357907E1,-2.650051117E0,-8.420941353E0,-3.617947817E0
1.441384990E1,-1.879562140E0,-5.507081509E0,-2.015953064E0
1.443412078E1,-8.668000102E-1,-3.536591768E0,-1.377069473E0
1.445439162E1,2.488535494E-1,-2.320439816E0,-1.154536963E0
1.447466250E1,9.864411354E-1,-1.970489502E0,-1.759921074E0
1.449493328E1,7.639086246E-1,-2.509472847E0,-2.827718258E0
1.451520417E1,7.178467698E-3,-3.117249727E0,-3.165704250E0
1.453547500E1,-2.512463629E-1,-4.031906128E0,-2.298904419E0
1.455574589E1,1.986042857E-1,-6.905087948E0,-2.135594189E-1
1.457601672E1,-1.363908947E-1,-1.067378330E1,7.633104324E-1
1.459628756E1,-2.836691141E0,-1.054217815E1,1.172483116E-1
1.461655839E1,-4.821537495E0,-8.483154297E0,-2.839682341E0
1.463682922E1,-4.036691666E0,-8.930612564E0,-6.811768055E0
1.465710006E1,-4.395615101E0,-7.779066563E0,-6.335596085E0
1.467737089E1,-4.273581028E0,-7.254439831E0,-3.871587038E0
1.469764172E1,-3.416352510E0,-7.137191772E0,-2.210369825E0
1.471804172E1,-2.863610506E0,-6.862017155E0,-1.858026743E0
1.473818339E1,-3.406781197E0,-7.597211838E0,-2.444866419E0
1.475845422E1,-3.753740549E0,-1.105424213E1,-1.463211060E0
1.477872506E1,-3.571886063E0,-1.540678692E1,-4.755136967E0
1.479899589E1,-9.332008660E-2,-2.479442787E1,-4.322035789E0
1.481939589E1,2.964108944E0,-2.483510590E1,-2.200798512E0
1.483953750E1,5.727221012E0,-1.342433357E1,-6.538986206E0
1.485980839E1,9.571290761E-2,-8.295916557E0,3.433102369E0
1.488007917E1,9.912267923E-1,-1.032622623E1,4.417150497E0
1.490035000E1,-2.463410854E0,-1.448973751E1,4.527220249E0
1.492075000E1,-5.867799282E0,-1.138205910E1,-3.092723191E-1
1.494089162E1,-5.650052547E0,-7.367500782E0,-4.635495663E0
1.496116245E1,-2.640479803E0,-8.380263329E0,-1.319641709E0
1.498143328E1,-2.367697954E0,-8.571688652E0,7.465606928E-1
1.500169224E1,-3.780061483E0,-6.421737671E0,2.703889608E-1
1.502184521E1,-4.352544308E0,-5.145166874E0,-8.907282352E-1
1.504224292E1,-2.894717216E0,-6.259026051E0,-2.767897606E0
1.506251391E1,-3.206382394E-1,-7.369893551E0,-2.193620205E0
1.508278526E1,1.017547846E0,-8.267202377E0,-1.881955028E0
1.510305599E1,2.128415823E0,-8.626724243E0,-2.588435888E0
1.512345646E1,3.028715372E0,-8.377870560E0,-4.479962349E0
1.514359839E1,1.800599098E0,-7.175477028E0,-5.466403484E0
1.516386948E1,8.380861282E-1,-6.177071571E0,-1.575673699E0
1.518414047E1,1.408176184E0,-4.996811867E0,4.402793646E-1
1.520441146E1,2.085345030E0,-4.491926193E0,5.886343718E-1
1.522468245E1,1.846062660E0,-6.615556240E0,-8.285148144E-1
1.524495328E1,-1.172483116E-1,-8.564510345E0,-1.460818172E0
1.526522412E1,-1.572682738E0,-8.660223007E0,-3.412165165E0
1.528549500E1,-2.697907448E0,-9.208179474E0,-4.743172646E0
1.530576589E1,-4.017549038E0,-1.155015469E1,-3.737588882E0
1.532603672E1,-4.488935471E0,-1.425763416E1,-3.809373617E0
1.534630756E1,-4.630111694E0,-1.993221283E1,-6.021538258E0
1.536657834E1,-1.137188911E0,-2.438047028E1,-4.716851711E0
1.538684912E1,-8.452646136E-1,-2.142114639E1,-4.592424870E0
1.540711990E1,-2.786442041E0,-1.427677631E1,-6.835696220E0
1.542739073E1,-3.756133318E0,-9.393025398E0,-5.782256126E0
1.544766162E1,-3.062214851E0,-6.565307140E0,-3.909872293E0
1.546793240E1,-1.596610904E0,-5.978467464E0,-2.734398127E0
1.548820313E1,-2.464607358E-1,-5.693721294E0,-1.707278967E0
1.550847396E1,1.674975827E-2,-4.975276470E0,-1.012762189E0
1.552874469E1,1.316052526E-1,-3.290131092E0,-1.479960799E0
1.554901547E1,-4.091726840E-1,-2.459223509E0,-2.672184706E0
1.556928625E1,-9.074779749E-1,-3.011965513E0,-2.660220623E0
1.558955703E1,2.392822690E-2,-5.178666592E0,-1.647458434E0
1.560982782E1,1.676172256E0,-6.897909641E0,-8.907282352E-1
1.563009860E1,1.362712502E0,-6.155536175E0,-5.324030295E-2
1.565036938E1,-2.255235434E0,-5.322834015E0,-1.027119160E0
1.567064011E1,-3.167499065E0,-7.680960655E0,-4.434498787E0
1.569091089E1,-3.320639610E0,-6.775875568E0,-5.978467464E0
1.571118167E1,-5.556732178E0,-4.503890514E0,-3.847658873E0
1.573145245E1,-6.636493683E0,-3.639483213E0,-2.655434847E0
1.575172318E1,-9.018548965E0,-7.281359196E0,-3.663411379E0
1.577199396E1,-6.820741177E0,-1.290030479E1,2.219342947E0
1.579226469E1,-1.053440213E0,-1.652722549E1,3.679563046E0
1.581253547E1,5.059025288E0,-2.531426811E1,-1.063310528E1
1.583280625E1,5.937789440E0,-2.475374985E1,-2.301297188E0
1.585307698E1,4.354937077E0,-1.467936897E1,-1.499103427E0
1.587334776E1,2.930609465E0,-1.018744278E1,2.102094650E0
1.589361849E1,8.374879509E-2,-1.128156090E1,1.924427629E0
1.591388927E1,-3.428316593E0,-1.202393341E1,-1.972882271E0
1.593416006E1,-3.370888948E0,-1.058285618E1,-3.864408493E0
1.595443078E1,-6.771687865E-1,-1.010369396E1,-1.506281853E0
1.597470151E1,5.270192027E-1,-9.244071960E0,-4.671986103E-1
1.599497230E1,-1.433898926E0,-7.697710514E0,-1.755135417E0
1.601524302E1,-3.919443607E0,-5.758327484E0,-3.613162279E0
1.603551375E1,-4.718646049E0,-5.193023205E0,-4.005585194E0
1.605578453E1,-2.441875458E0,-6.440880299E0,-4.484747887E0
1.607605526E1,3.714857101E-1,-7.501499176E0,-3.136990547E0
1.609632599E1,2.550150633E0,-7.511070251E0,-9.577272534E-1
1.611672599E1,2.844467878E0,-6.088537216E0,-5.916253924E-1
1.613686750E1,2.027917147E0,-3.754338741E0,-1.592423439E0
1.615713823E1,2.471187592E0,-3.294916868E0,-2.502294302E0
1.617740896E1,2.715255499E0,-6.088537216E0,-1.333998680E0
1.619767969E1,2.123630047E0,-9.071788788E0,-1.307677627E0
1.621807969E1,-1.889133453E0,-1.315394402E1,-1.869990945E0
1.623822115E1,-3.423531055E0,-1.602712631E1,-4.097708762E-1
1.625849193E1,-1.709073544E0,-2.230948257E1,7.944171429E-1
1.627876266E1,-4.582255363E0,-3.009273529E1,-3.835694790E0
1.629903339E1,-9.648459435E0,-2.558465767E1,-5.947360516E0
1.631943339E1,-6.007181168E0,-1.393460274E1,-3.220739365E0
1.633957485E1,-1.331007600E0,-1.114516926E1,-3.206382275E0
1.635984558E1,1.747956991E0,-1.096570778E1,-4.097708762E-1
1.638011630E1,2.454437733E0,-9.933803558E0,9.332008660E-2
1.640038703E1,1.363908947E-1,-1.001276588E1,-4.887340367E-1
1.642078703E1,-1.445863128E0,-8.566903114E0,1.579262912E-1
1.644092855E1,-1.249651670E0,-6.242276192E0,2.560320199E-1
1.646119927E1,-2.305484533E0,-3.816552162E0,-3.523431420E-1
1.648147000E1,-3.342175007E0,-1.999203324E0,-9.146564603E-1
1.650174073E1,-4.141975880E0,-1.513460279E0,-1.250249863E0
1.652214073E1,-4.141975880E0,-1.728814363E0,-2.772683144E0
1.654228219E1,-2.909074068E0,-3.244667530E0,-4.755136967E0
1.656255292E1,-4.833501875E-1,-6.517450809E0,-5.282155991E0
1.658282365E1,2.018345833E0,-1.365942764E1,-4.625924587E0
1.660309438E1,2.791825771E0,-2.027917099E1,-5.763113499E0
1.662336511E1,-2.755335331E0,-1.611805344E1,-5.559723377E0
1.664363584E1,-3.524029493E0,-9.067003250E0,-8.285148144E-1
1.666390657E1,-3.957728624E0,-4.501497746E0,-1.446461320E0
1.668417730E1,-5.389235020E0,-1.053978539E1,-6.138786316E0
1.670444802E1,-4.476971149E0,-1.465065479E1,-6.452844620E0
1.672471875E1,2.116451740E0,-1.253898907E1,-3.523431420E-1
1.674498948E1,1.743171334E0,-9.761520386E0,1.898106575E0
1.676526021E1,1.791027784E0,-7.412964344E0,2.382055044E0
1.678553094E1,2.319841623E0,-6.033502102E0,7.130611539E-1
1.680580167E1,1.531406492E-1,-7.307680130E0,-2.518445849E-1
1.682607240E1,-1.520040631E0,-9.912267685E0,-1.029511929E0
1.684634318E1,-2.482553482E0,-1.215314579E1,-2.502294302E0
1.686661391E1,-2.102094650E0,-1.221775246E1,-2.602792740E0
1.688688459E1,-1.223330617E0,-9.356534958E0,-1.774278045E0
1.690715537E1,-1.283151150E0,-7.922635555E0,-4.265206456E-1
1.692742610E1,-2.049452543E0,-7.958528042E0,-2.781656384E-1
1.694769683E1,-2.293520451E0,-8.729615211E0,-2.470589429E-1
1.696796756E1,-1.520040631E0,-9.519845009E0,6.867401004E-1
1.698823828E1,-5.623133183E-1,-1.004148006E1,8.542376757E-1
1.700850901E1,-3.900300860E-1,-1.019462109E1,3.517449200E-1
1.702877974E1,-6.987041831E-1,-1.030947590E1,-7.471588850E-1
1.704917974E1,-6.101697683E-1,-1.078624630E1,-2.049452543E0
1.706932125E1,-2.775674164E-1,-1.089392376E1,-2.626721144E0
1.708959198E1,-2.344966233E-1,-1.043450165E1,-2.655434847E0
1.710986271E1,-5.264210105E-1,-9.838089943E0,-2.080559254E0
1.713013344E1,-7.854440212E-1,-9.002396584E0,-1.019940615E0
1.715040417E1,-3.541377485E-1,-8.856434822E0,7.082754970E-1
1.717067490E1,1.086939692E0,-1.200957680E1,1.733001828E0
1.719094568E1,2.456830740E0,-1.508375549E1,2.324627161E0
1.721121641E1,-1.914258152E-1,-1.290030479E1,1.448255897E0
1.723148714E1,-4.187439442E0,-1.003190899E1,-8.763712645E-1
1.725175787E1,-6.480959892E0,-8.621937752E0,-1.441675663E0
1.727202860E1,-7.022336483E0,-9.696913719E0,-4.719842672E-1
1.729229933E1,-4.651647091E0,-1.198086262E1,3.637090325E-1
1.731257011E1,-8.374879509E-2,-1.266102314E1,9.690931439E-1
1.733284084E1,3.625126362E0,-1.297926807E1,6.005984545E-1
1.735311157E1,4.987240791E0,-1.298405361E1,1.842473447E-1
1.737338230E1,2.918645382E0,-1.184447193E1,8.350951076E-1
1.739365308E1,1.125224829E0,-1.056132126E1,1.342971683E0
1.741392380E1,-3.397808075E-1,-9.289535522E0,1.687538147E0
1.743419453E1,-1.082154036E0,-8.815756798E0,1.302293777E0
1.745446521E1,-2.111665964E0,-9.093324661E0,7.944171429E-1
1.747473604E1,-3.177070379E0,-9.747162819E0,6.771687865E-1
1.749500677E1,-3.792025566E0,-9.835697174E0,9.332008660E-2
1.751527750E1,-3.502494097E0,-9.167501450E0,-7.615157962E-1
1.753554823E1,-2.851048231E0,-7.948956966E0,-2.143370867E0
1.755581896E1,-2.425125837E0,-6.608377934E0,-3.632304668E0
1.757608974E1,-2.501696110E0,-5.954539299E0,-3.663411379E0
1.759636047E1,-1.893919110E0,-6.172286034E0,-3.239881754E0
1.761663120E1,-1.692323804E0,-7.499105930E0,-3.476771355E0
1.763690193E1,-4.618147612E-1,-9.591629982E0,-4.980062008E0
1.765717266E1,8.644071817E-1,-9.577272415E0,-6.421737671E0
1.767744339E1,5.605186820E-1,-8.464012146E0,-5.306084156E0
1.769771412E1,-4.642075896E-1,-6.955337048E0,-3.023929596E0
1.771811412E1,5.246263742E-1,-5.109274387E0,-4.649852753E0
1.773825563E1,1.146760225E0,-9.768698692E0,-7.208976269E0
1.775852636E1,4.911268353E-1,-2.634138870E1,1.520040631E0
1.777879709E1,1.724028707E0,-2.242194366E1,2.642872572E0
1.779906782E1,-8.135596663E-2,-8.375477791E0,-4.785645287E-3
1.781946782E1,-2.331805706E0,-1.633101463E0,5.000999570E-1
1.783960927E1,-3.078964472E0,-1.029511929E0,1.347757339E0
1.785988006E1,-2.137987137E0,-3.747160196E0,2.288734913E0
1.788015078E1,-3.342175007E0,-1.017787075E1,3.430709362E0
1.790042151E1,-5.429912567E0,-1.627119446E1,2.041675806E0
1.792082151E1,-2.995215654E0,-1.368096352E1,-4.231108665E0
1.794096297E1,-8.356932998E-1,-9.409774780E0,-3.589233875E0
1.796123370E1,-6.125625968E-1,-7.800601959E0,-1.913061738E0
1.798150438E1,-1.610967875E0,-7.441678524E0,-3.427718580E-1
1.800177516E1,-2.085345030E0,-7.846065521E0,2.464607358E-1
1.802217516E1,-9.912267923E-1,-8.791828156E0,4.857429862E-1
1.804231667E1,4.025924206E-1,-1.030469036E1,3.541377485E-1
1.806258740E1,3.427718580E-1,-1.091067314E1,2.392822690E-2
1.808285813E1,-6.771687865E-1,-1.006540871E1,-4.959124923E-1
1.810312886E1,-1.496112347E0,-9.325428009E0,-9.840483069E-1
1.812352886E1,-2.664407969E0,-9.088538170E0,-1.465603828E0
1.814367032E1,-3.380460262E0,-9.416953087E0,-1.570888042E0
1.816394104E1,-2.877967358E0,-1.004626560E1,-1.534995675E0
1.818421177E1,-1.608574986E0,-1.008215809E1,-1.688136339E0
1.820448250E1,-3.828516304E-1,-9.833304405E0,-2.215155602E0
1.822475323E1,1.268195957E-1,-9.553344727E0,-2.353939295E0
1.824502396E1,4.025924206E-1,-9.503094673E0,-1.475175142E0
1.826529469E1,1.197009563E0,-1.119781208E1,4.857429862E-1
1.828556542E1,2.264806747E0,-1.372403431E1,1.680359721E0
1.830583615E1,1.580459356E0,-1.343869019E1,1.627717614E0
1.832610688E1,-1.783251047E0,-1.087956619E1,-9.457631707E-1
1.834637761E1,-4.283152580E0,-8.799007416E0,-2.827718258E0
1.836664834E1,-5.025525570E0,-8.188239098E0,-2.015953064E0
1.838691907E1,-4.424329281E0,-9.222537041E0,-4.935196638E-1
1.840718980E1,-2.875574589E0,-1.126002502E1,1.196411327E-1
1.842746052E1,-4.594219327E-1,-1.296251869E1,3.158525825E-1
1.844773125E1,7.950153351E-1,-1.386042500E1,2.656033039E-1
1.846800198E1,4.049852192E-1,-1.386281776E1,-1.269392371E0
1.848827271E1,8.853443712E-2,-1.122652531E1,-1.012762189E0
1.850854339E1,-2.009970993E-1,-9.356534958E0,-8.668000102E-1
1.852881412E1,-6.436693072E-1,-8.734400749E0,-7.734799385E-1
1.854908485E1,-1.658824325E0,-8.373085022E0,-7.926225066E-1
1.856935558E1,-2.750549555E0,-8.281558990E0,-1.377069473E0
1.858962630E1,-3.617349625E0,-8.047062874E0,-2.200798512E0
1.860989703E1,-3.430709362E0,-7.405786037E0,-2.966501951E0
1.863016776E1,-1.889133453E0,-6.069394588E0,-3.424129248E0
1.865043849E1,-6.795616150E-1,-4.915455818E0,-3.040679455E0
1.867070922E1,-4.067798331E-2,-4.451248169E0,-2.487937450E0
1.869097990E1,-2.991028428E-1,-4.592424870E0,-2.150549412E0
1.871125063E1,-9.050851464E-1,-5.490331650E0,-2.020738840E0
1.873152136E1,-1.158724308E0,-6.759125710E0,-2.495115757E0
1.875179209E1,-1.386042476E0,-8.188239098E0,-3.050250769E0
1.877206282E1,-1.163509965E0,-9.586843491E0,-2.949752092E0
1.879233354E1,-5.670989752E-1,-9.296713829E0,-2.102692842E0
1.881273354E1,-7.417750359E-2,-7.745566845E0,-6.753742099E-1
1.883287500E1,-2.871387079E-2,-6.546164513E0,1.100698411E-1
1.885314568E1,-2.392822653E-1,-6.179464340E0,-1.130608693E-1
1.887341641E1,-1.208973646E0,-6.565307140E0,-1.176072359E0
1.889368714E1,-2.563909531E0,-7.439285755E0,-2.478366137E0
1.891395787E1,-3.693919897E0,-6.795018196E0,-3.488735437E0
1.893422860E1,-4.472185612E0,-5.765506268E0,-3.768695593E0
1.895449933E1,-5.070989609E0,-5.856433392E0,-4.582853794E0
1.897477006E1,-6.827919483E0,-9.957731247E0,-5.425725460E0
1.899504078E1,-4.931607246E0,-1.719542122E1,5.407779217E-1
1.901531151E1,-2.049452543E0,-2.067398834E1,1.771286964E0
1.903558224E1,2.588435888E0,-3.077528763E1,-7.266404152E0
1.905585297E1,7.927421570E0,-2.110529327E1,9.116654396E-1
1.907612365E1,5.365306377E0,-7.539783955E0,-2.112264156E0
1.909639438E1,2.171486616E0,-4.800600529E0,3.177070379E0
1.911666511E1,-1.339980662E-1,-8.145168304E0,3.567100286E0
1.913693584E1,-6.100501537E0,-1.319940758E1,2.487339020E0
1.915720657E1,-7.934001446E0,-1.212921810E1,-3.376272678E0
1.917747730E1,-3.823132277E0,-1.153819084E1,-4.051048756E0
1.919774802E1,-7.878368497E-1,-1.000080204E1,-6.538388133E-1
1.921814802E1,-2.535195589E0,-7.905886173E0,1.818545163E-1
1.923828948E1,-4.201796532E0,-5.286941528E0,1.004985452E0
1.925856021E1,-5.487340450E0,-3.668197155E0,-0.000000000E0
1.927883094E1,-3.540779352E0,-5.545366287E0,-2.298904419E0
1.929910167E1,2.033899277E-1,-9.035896301E0,-2.645863533E0
1.931950167E1,2.511865616E0,-1.092263699E1,-2.452044964E0
1.933964313E1,3.651447296E0,-1.073121166E1,-3.996013880E0
1.935991386E1,2.250449657E0,-8.169096947E0,-5.188237667E0
1.938018459E1,1.027119160E0,-6.261418819E0,-2.815753937E0
1.940045532E1,1.735992789E0,-5.703292847E0,-1.286142230E0
1.942085532E1,2.559721947E0,-5.322834015E0,-8.907282352E-1
1.944099672E1,2.782254457E0,-5.363512039E0,-9.649057388E-1
1.946126745E1,2.190629244E0,-7.177869797E0,-1.168893814E0
1.948153818E1,1.170688510E0,-8.602795601E0,-1.341177106E0
1.950180891E1,-1.986042857E-1,-9.258428574E0,-2.246262312E0
1.952220891E1,-9.936196208E-1,-9.256035805E0,-2.478366137E0
1.954235037E1,-1.435693540E-2,-8.588438988E0,-2.075773716E0
1.956262110E1,-7.369893789E-1,-9.150752068E0,-2.925823927E0
1.958289183E1,-3.028715372E0,-1.230628681E1,-3.220739365E0
1.960316256E1,-4.079762459E0,-1.539960861E1,-1.623530149E0
1.962343328E1,-5.930012703E0,-2.310928345E1,-6.165107727E0
1.964370401E1,-4.539184570E0,-2.852483940E1,-7.972885132E0
1.966397474E1,-1.491326690E0,-1.688196182E1,-6.842874527E0
1.968424547E1,-1.352542996E0,-1.066899776E1,-4.865206718E0
1.970451620E1,-5.886343718E-1,-8.418548584E0,-2.992822886E0
1.972478693E1,-5.527420044E-1,-6.381059647E0,-3.857230186E0
1.974505766E1,-9.337990284E-1,-4.523033142E0,-4.439284325E0
1.976532834E1,-5.431707501E-1,-3.806980848E0,-3.357130051E0
1.978559907E1,1.363908947E-1,-3.536591768E0,-1.733600020E0
1.980586980E1,-3.349951804E-1,-3.156133175E0,-1.542174220E0
1.982614052E1,-9.792626500E-1,-2.753540754E0,-2.035095692E0
1.984641125E1,-1.211366415E0,-2.681756020E0,-2.075773716E0
1.986668198E1,-6.221339107E-1,-3.802195072E0,-1.070788145E0
1.988695271E1,8.691928387E-1,-6.637091637E0,9.571290761E-2
1.990722339E1,8.955138922E-1,-8.257631302E0,6.915257573E-1
1.992749412E1,-7.106683254E-1,-8.712865829E0,-8.237292171E-1
1.994776485E1,-2.105683982E-1,-1.026161957E1,-6.167500496E0
1.996803558E1,-7.345965505E-1,-1.072881889E1,-8.051848412E0
1.998830631E1,-3.086143017E0,-8.636295319E0,-4.599603176E0
2.000857703E1,-4.589433670E0,-6.172286034E0,-5.437689424E-1
2.002884776E1,-3.720241070E0,-5.080560684E0,4.211367965E-1
2.004911844E1,-4.261617184E0,-4.281357765E0,-2.992822886E0
2.006938922E1,-6.306283951E0,-6.929016113E0,-7.678567886E0
2.008965990E1,-6.167500496E0,-1.420020580E1,-4.247858524E0
2.010993063E1,-3.124428272E0,-1.920419693E1,-2.966501951E0
2.013020136E1,4.465605259E0,-2.519223595E1,-2.090130568E0
2.015047209E1,4.623531342E0,-2.359024048E1,6.460621208E-2
2.017074276E1,6.603592396E0,-1.180379391E1,-5.109274387E0
2.019101349E1,3.016751051E0,-7.477570534E0,2.183450699E0
2.021128422E1,3.093321562E0,-1.008455086E1,2.111665964E0
2.023155495E1,-1.905883193E0,-1.484925938E1,1.280758262E0
2.025182568E1,-4.335794449E0,-1.264188004E1,-6.394818425E-1
2.027209636E1,-3.763311863E0,-9.462417603E0,-1.989632010E0
2.029236709E1,-1.374078393E0,-8.866005898E0,-2.614158690E-1
2.031263782E1,-1.984846354E0,-8.059026718E0,-6.969096065E-1
2.033290855E1,-3.607778311E0,-6.076572895E0,-1.496710539E0
2.035317927E1,-4.046263218E0,-4.922634602E0,-1.590030670E0
2.037344995E1,-2.894717216E0,-5.602794170E0,-2.550150633E0
2.039372068E1,-5.742774606E-1,-7.077371120E0,-2.404188633E0
2.041399141E1,2.305484533E0,-7.341179848E0,-1.240678549E0
2.043426209E1,2.353939295E0,-6.493522644E0,-1.984846354E0
2.045453282E1,-3.110669553E-1,-5.248656273E0,-2.918645382E0
2.047480354E1,-5.670989752E-1,-5.178666592E0,-1.144965649E0
2.049507427E1,9.242277741E-1,-5.901896954E0,-3.332005441E-1
2.051534495E1,1.403390527E0,-7.211369038E0,-8.476574421E-1
2.053561568E1,9.170492887E-1,-9.260822296E0,-1.843669891E0
2.055588641E1,5.503492057E-2,-9.967302322E0,-3.081357241E0
2.057615709E1,-1.316052526E-1,-9.486345291E0,-3.780659676E0
2.059642782E1,-5.551348329E-1,-9.577272415E0,-2.961716175E0
2.061682782E1,-1.749751568E0,-1.147837067E1,-2.944966555E0
2.063696917E1,-1.879562140E0,-1.290509033E1,-3.062214851E0
2.065723995E1,-1.515254974E0,-1.862214279E1,-6.388238430E0
2.067751063E1,-2.183450699E0,-2.610449791E1,-7.889136314E0
2.069778136E1,-3.272783279E0,-2.161257172E1,-4.939383984E0
2.071818136E1,-1.913061738E0,-1.164586735E1,-3.833301783E0
2.073832276E1,-7.058826685E-1,-9.900303841E0,-4.544568539E0
2.075859349E1,-9.505487680E-1,-1.027597713E1,-4.465605259E0
2.077886417E1,-1.532004714E0,-9.327820778E0,-4.570889473E0
2.079913490E1,-1.865205288E0,-7.453642368E0,-3.579662561E0
2.081953490E1,-1.323829174E0,-5.420939922E0,-2.282154560E0
2.083967625E1,-1.520040631E0,-3.742374659E0,-1.838884234E0
2.085994698E1,-7.178468108E-1,-2.344367981E0,-2.284547329E0
2.088021766E1,2.368894368E-1,-2.875574589E0,-2.641077995E0
2.090048839E1,-1.531406492E-1,-2.461616278E0,-9.218349457E-1
2.092088839E1,-4.402793646E-1,-2.401795626E0,1.363908947E-1
2.094102980E1,7.417750359E-2,-5.825326920E0,4.402793646E-1
2.096130047E1,9.092725813E-2,-9.167501450E0,-7.375875711E-1
2.098157115E1,-2.919243574E-1,-1.076471043E1,-4.204787731E0
2.100184188E1,-7.537391186E-1,-1.032383347E1,-6.761518478E0
2.102211256E1,-2.810370207E0,-7.996813297E0,-5.935396671E0
2.104238328E1,-4.113262177E0,-6.378666878E0,-3.787838221E0
2.106265396E1,-4.821537495E0,-5.808577061E0,-1.542174220E0
2.108292464E1,-4.838287354E0,-5.607579708E0,-2.350948304E-1
2.110319136E1,-4.474578381E0,-5.475974560E0,-2.210369825E0
2.112342740E1,-4.156332970E0,-6.162714481E0,-4.965705395E0
2.114373724E1,-4.182653904E0,-9.088538170E0,-5.087738991E0
2.116400787E1,-3.658027649E0,-1.497368622E1,-2.767897606E0
2.118427844E1,-5.750551224E0,-1.750409508E1,-3.337987661E0
2.120454901E1,1.613958836E0,-2.200320053E1,-5.023132801E0
2.122481969E1,5.401198864E0,-2.304228401E1,-2.973082066E-1
2.124509032E1,5.693721294E0,-1.428634739E1,-3.400201082E0
2.126536094E1,3.742374659E0,-8.243273735E0,2.827120066E0
2.128563157E1,4.491926193E0,-9.732806206E0,7.561319470E-1
2.130590224E1,-7.950153351E-1,-1.516989708E1,1.115653515E0
2.132617287E1,-4.536791801E0,-1.281655598E1,-8.691928387E-1
2.134644360E1,-5.410770416E0,-9.424132347E0,-3.816552162E0
2.136671433E1,-4.409972191E0,-7.776673794E0,-3.714857101E-1
2.138698495E1,-3.148356438E0,-6.960123062E0,-8.434699476E-2
2.140725563E1,-3.315854073E0,-5.193023205E0,-2.011167526E0
2.142752630E1,-2.942573547E0,-5.564508915E0,-2.492722988E0
2.144779698E1,-5.790630579E-1,-7.300501823E0,-2.665006161E0
2.146806766E1,1.254437327E0,-7.767102242E0,-1.453639746E0
2.148833834E1,2.614757061E0,-8.779864311E0,-1.235892892E0
2.150860901E1,3.414557934E0,-9.452845573E0,-2.576471806E0
2.152887969E1,2.166700840E0,-8.743971825E0,-4.869992256E0
2.154915037E1,-5.359922647E-1,-6.842874527E0,-3.988835335E0
2.156942105E1,4.408775866E-1,-5.617151260E0,-1.867598057E0
2.158969172E1,1.194616675E0,-3.981656790E0,-1.657029688E-1
2.160996235E1,1.172483116E-1,-2.645863533E0,-3.649054468E-2
2.163023302E1,-8.117650747E-1,-5.229514122E0,-7.878368497E-1
2.165050370E1,-5.910272002E-1,-8.574081421E0,-2.063809633E0
2.167077438E1,1.196411345E-2,-9.083752632E0,-2.035095692E0
2.169104506E1,9.601200819E-1,-9.327820778E0,-3.196810961E0
2.171131573E1,-2.512463629E-1,-1.142273712E1,-5.566901684E0
2.173158636E1,-1.285543919E0,-1.467458344E1,-2.037488461E0
2.175185698E1,-1.118046403E0,-2.076252174E1,-3.321237803E0
2.177212766E1,-4.278367043E0,-3.210150909E1,-6.735197544E0
2.179239834E1,-4.369294167E0,-2.100479507E1,-6.586842537E0
2.181266901E1,-4.620540619E0,-1.087478065E1,-5.251049519E0
2.183293969E1,-2.595016241E0,-1.035494041E1,-4.343571186E0
2.185321032E1,-1.424327731E0,-9.531808853E0,-3.524627686E0
2.187348099E1,-4.331009090E-1,-7.817351341E0,-4.202394962E0
2.189375167E1,-6.029912829E-1,-5.724828243E0,-4.039084435E0
2.191402235E1,2.853440940E-1,-4.357928276E0,-2.729612350E0
2.193429302E1,9.960124493E-1,-3.503092289E0,-2.186441660E0
2.195456365E1,4.791627228E-1,-2.475973129E0,-2.511865616E0
2.197483433E1,-2.967100143E-1,-2.490330219E0,-2.870789051E0
2.199510500E1,1.268195957E-1,-3.040679455E0,-2.528615236E0
2.201537563E1,1.585245013E0,-4.664209366E0,-5.102694035E-1
2.203564630E1,3.838087559E0,-9.098110199E0,7.800601721E-1
2.205591693E1,-4.953143001E-1,-8.349156380E0,9.547362328E-1
2.207618761E1,-4.871787071E0,-8.466404915E0,-2.001596212E0
2.209645823E1,-3.957728624E0,-9.704092026E0,-7.180262566E0
2.211672891E1,-1.637288928E0,-8.557332039E0,-7.046264648E0
2.213699953E1,-2.511267424E0,-7.302894592E0,-5.327619553E0
2.215727016E1,-2.662015200E0,-7.319644451E0,-3.426522017E0
2.217754084E1,-2.047059774E0,-6.799803734E0,-1.948953986E0
2.219781146E1,-2.578266382E0,-6.407381058E0,-2.263011932E0
2.221821146E1,-4.007977962E0,-7.300501823E0,-2.913859844E0
2.223835276E1,-4.711467743E0,-1.064267731E1,-3.689732552E0
2.225862344E1,-5.219344616E0,-1.454237938E1,-8.572286963E-1
2.227889407E1,-2.973680258E0,-1.739881134E1,-3.385843992E0
2.229916469E1,4.118047714E0,-2.058306122E1,-4.788636208E0
2.231956469E1,5.070989609E0,-1.750648880E1,3.732205153E0
2.233970599E1,4.249652863E0,-1.103270721E1,-2.270190477E0
2.235997662E1,5.037489891E0,-6.854838848E0,-1.810170293E0
2.238024724E1,1.645065546E0,-8.748757362E0,-7.878368497E-1
2.240051792E1,-2.271985054E0,-1.255334568E1,-1.389033556E0
2.242091792E1,-2.592623234E0,-1.070489025E1,-1.814955950E0
2.244105917E1,-3.363710403E0,-8.176275253E0,-2.492722988E0
2.246132974E1,-3.267997503E0,-8.238488197E0,-1.637887120E0
2.248160047E1,-2.226521492E0,-8.380263329E0,-2.224726915E0
2.250187110E1,-1.987239242E0,-7.661818027E0,-4.173680782E0
2.252227110E1,-1.342971683E0,-6.763911247E0,-4.252644062E0
2.254241235E1,7.896314561E-2,-5.401797295E0,-2.983251572E0
2.256268297E1,3.164508045E-1,-4.482355118E0,-1.305284739E0
2.258295365E1,-3.397808075E-1,-4.645066738E0,-1.322034448E-1
2.260322427E1,-8.763712645E-1,-7.058228493E0,-7.040880919E-1
2.262349490E1,-3.254238665E-1,-8.428119659E0,-2.619542599E0
2.264376547E1,2.392822690E-2,-6.909873486E0,-3.050250769E0
2.266403615E1,-1.220339537E-1,-6.467201233E0,-1.917847395E0
2.268430677E1,-2.111665964E0,-8.839685440E0,-3.804588079E0
2.270457740E1,-2.099701881E0,-1.300080395E1,-3.347558975E0
2.272484802E1,-3.196212769E0,-1.828236198E1,-4.831707001E0
2.274511865E1,-4.687539577E0,-2.719143867E1,-7.295716286E0
2.276538927E1,-3.224926710E0,-2.072423744E1,-5.822933674E0
2.278565990E1,-1.115653515E0,-1.002473068E1,-5.598008633E0
2.280593052E1,-3.110669553E-1,-7.752745152E0,-3.644268990E0
2.282620115E1,-8.620143533E-1,-7.110870838E0,-2.023131609E0
2.284647177E1,-1.249651670E0,-5.535795212E0,-1.960918188E0
2.286674240E1,-1.132403374E0,-4.192823410E0,-2.215155602E0
2.288701297E1,-7.034898400E-1,-3.438486099E0,-2.207977057E0
2.290728360E1,-3.613162339E-1,-3.424129248E0,-2.212762833E0
2.292755422E1,-2.153540403E-1,-4.153940201E0,-2.602792740E0
2.294782485E1,5.676971674E-1,-6.234499454E0,-2.459223509E0
2.296809547E1,1.482353687E0,-7.781459332E0,-2.114656925E0
2.298836610E1,-1.292124242E-1,-7.324429989E0,-2.011167526E0
2.300863672E1,-3.016751051E0,-6.646663189E0,-2.365903378E0
2.302890730E1,-4.003192425E0,-9.095717430E0,-3.732803345E0
2.304917792E1,-2.236092806E0,-9.615557671E0,-6.290132523E0
2.306944854E1,-2.243271112E0,-5.968895912E0,-5.722435474E0
2.308971912E1,-3.086143017E0,-4.513461590E0,-1.202393413E0
2.310998974E1,-6.457031727E0,-8.755936623E0,-1.010369420E0
2.313026037E1,-9.808777809E0,-1.376471233E1,-2.901895761E0
2.315053094E1,-3.600599766E0,-2.091865349E1,-6.629913330E0
2.317080157E1,5.152345181E0,-2.496013069E1,9.667003751E-1
2.319107219E1,7.139584541E0,-1.699442482E1,-2.665006161E0
2.321134276E1,4.268795490E0,-8.822935104E0,-9.768698215E-1
2.323161339E1,4.628317356E0,-8.207381248E0,7.130611539E-1
2.325188401E1,1.989632010E0,-1.329033470E1,1.746760458E-1
2.327215459E1,-1.948953986E0,-1.300558949E1,-1.561316848E-1
2.329242516E1,-2.925823927E0,-9.236893654E0,-2.971287489E0
2.331282516E1,-3.538386583E0,-7.613961697E0,-1.810170293E0
2.333296636E1,-3.772883177E0,-7.240083218E0,-5.676971674E-1
2.335323698E1,-4.608576298E0,-6.002395630E0,-2.653042078E0
2.337350756E1,-4.821537495E0,-4.465605259E0,-4.642673969E0
2.339377818E1,-3.086143017E0,-4.089334011E0,-3.605983734E0
2.341404875E1,-4.067798555E-1,-4.625924587E0,-1.630708575E0
2.343431938E1,6.179464459E-1,-4.867599487E0,-2.733799815E-1
2.345458995E1,6.897311211E-1,-6.112465382E0,-4.169493318E-1
2.347486058E1,1.317248821E0,-7.232904434E0,-1.436890006E0
2.349513115E1,9.696913958E-1,-6.637091637E0,-2.042274237E0
2.351540172E1,-9.810572863E-2,-7.683353424E0,-3.249453068E0
2.353567235E1,-5.335994363E-1,-1.165783215E1,-4.101297855E0
2.355594292E1,-1.216152072E0,-1.557667732E1,-3.591626883E0
2.357621349E1,-2.985644341E0,-2.171067810E1,-5.681757450E0
2.359648412E1,-2.489732027E0,-2.246262169E1,-4.824528694E0
2.361675469E1,-2.250449657E0,-1.413799286E1,-4.640281200E0
2.363702526E1,-1.908276081E0,-9.625128746E0,-5.528616905E0
2.365729584E1,-2.518445730E0,-8.586046219E0,-4.326821327E0
2.367756641E1,-2.757728100E0,-7.707281590E0,-3.139383316E0
2.369783703E1,-2.458625317E0,-6.460022926E0,-2.344367981E0
2.371823703E1,-2.362912416E0,-5.475974560E0,-2.406581402E0
2.373837818E1,-9.720842242E-1,-5.411368370E0,-2.954537868E0
2.375864875E1,1.938186288E-1,-5.051846981E0,-3.357130051E0
2.377891933E1,1.312463164E0,-4.877170563E0,-2.674577475E0
2.379918995E1,2.264806747E0,-5.720042706E0,-1.005583763E0
2.381958995E1,2.545365095E0,-6.646663189E0,-3.332005441E-1
2.383973110E1,7.328019142E-1,-5.954539299E0,-1.178465128E0
2.386000167E1,-1.869990945E0,-5.590830326E0,-2.452044964E0
2.388027224E1,-2.654836655E0,-8.681758881E0,-3.541377544E0
2.390054282E1,-2.921038151E0,-8.082955360E0,-4.654638290E0
2.392094282E1,-3.031108141E0,-4.948955536E0,-4.652245522E0
2.394108391E1,-3.777668715E0,-6.000002861E0,-2.710469961E0
2.396135448E1,-4.362115860E0,-1.216989613E1,4.713860750E-1
2.398162506E1,-4.689932346E0,-1.549292850E1,1.917249203E0
2.400189563E1,-4.244867325E0,-1.884766579E1,-4.648058116E-1
2.402216620E1,-3.948157430E-1,-1.802632904E1,-6.637091637E0
2.404243672E1,-2.003988981E0,-1.636212158E1,-4.489533424E0
2.406270724E1,-1.196411327E-1,-1.376471233E1,1.314257860E0
2.408297782E1,3.571287692E-1,-1.223689461E1,3.282354355E0
2.410324839E1,1.429711580E0,-1.058285618E1,2.879761934E0
2.412351896E1,-1.818545163E-1,-8.916254997E0,4.546362907E-2
2.414378948E1,-4.197010994E0,-7.948956966E0,-2.121835470E0
2.416406006E1,-5.767300606E0,-8.171489716E0,-1.764706731E0
2.418433063E1,-5.078167915E0,-7.960920811E0,-1.487139225E0
2.420460115E1,-3.361317635E0,-7.489534855E0,-2.239083767E0
2.422487172E1,-1.319043517E0,-8.094919205E0,-1.860419631E0
2.424514224E1,-4.187439680E-1,-8.307880402E0,-3.244667530E0
2.426541282E1,-3.613162339E-1,-7.592426300E0,-4.690530777E0
2.428568339E1,3.714857101E-1,-7.264011383E0,-3.732803345E0
2.430595391E1,9.433703423E-1,-6.931408882E0,-1.412961721E0
2.432622448E1,1.546959877E0,-5.739185333E0,-8.691928387E-1
2.434649500E1,2.097309113E0,-4.901099205E0,-2.397010088E0
2.436676552E1,3.258426189E0,-5.705685616E0,-2.825325251E0
2.438703610E1,3.388236761E0,-6.778268337E0,-1.238285661E0
2.440730667E1,1.192223907E0,-8.839685440E0,-1.283749342E0
2.442757719E1,-4.737788737E-1,-1.318026543E1,-1.343569875E0
2.444784771E1,-1.039083242E0,-1.558624840E1,2.919243574E-1
2.446811828E1,-1.560718536E0,-1.871845245E1,-1.495514158E-2
2.448838875E1,-9.361918569E-1,-2.720100975E1,-2.593221426E0
2.450865933E1,-4.637290478E0,-2.653520584E1,-4.673780918E0
2.452892990E1,-4.381258488E0,-1.385803223E1,-3.170490026E0
2.454920042E1,9.332008660E-2,-1.072163963E1,-2.112264156E0
2.456947094E1,2.066202402E0,-1.330469227E1,-9.984052777E-1
2.458974151E1,6.921239495E-1,-1.508375549E1,-1.365105271E0
2.461001203E1,-1.177866936E0,-1.450170135E1,-2.430509567E0
2.463028256E1,-1.733001828E0,-1.093699455E1,-2.255833626E0
2.465055313E1,-2.693121910E0,-6.531807423E0,7.896314561E-2
2.467082365E1,-2.614158630E0,-3.842873096E0,3.756731451E-1
2.469109417E1,-2.666800737E0,-2.880360365E0,-2.135594189E-1
2.471136469E1,-2.561516523E0,-2.598007202E0,-8.261220455E-1
2.473163521E1,-3.504886866E0,-2.961716175E0,-1.834098577E0
2.475190573E1,-3.602992773E0,-4.195216179E0,-3.857230186E0
2.477217625E1,-2.267199516E0,-5.952146530E0,-5.385047436E0
2.479244683E1,-9.912267923E-1,-9.172286987E0,-6.000002861E0
2.481271735E1,8.955138922E-1,-1.378385448E1,-4.735994339E0
2.483298787E1,9.672985673E-1,-1.614198112E1,-5.032704353E0
2.485325839E1,-1.208973646E0,-1.016351414E1,-3.093321562E0
2.487352891E1,-2.195414782E0,-4.132404804E0,2.536391914E-1
2.489379938E1,-4.438685894E0,-5.389832854E-1,-4.319643021E0
2.491406995E1,-1.012223816E1,-8.832506180E0,-9.694520950E0
2.493434047E1,-4.895715237E0,-2.450968170E1,-4.000799656E0
2.495461099E1,5.834897995E0,-2.427040100E1,2.578266382E0
2.497488146E1,9.888339639E-1,-1.034536839E1,1.876571178E0
2.499515198E1,1.034297585E0,-4.566103935E0,2.512463629E-1
2.501542250E1,5.389832854E-1,-2.806182861E0,-4.815555513E-1
2.503569302E1,-4.953143001E-1,-4.130012035E0,-1.080359459E0
2.505596354E1,-7.902296782E-1,-8.137989998E0,1.579262912E-1
2.507623407E1,-1.661217093E0,-1.373121262E1,-5.700899959E-1
2.509650459E1,-9.457631707E-1,-1.440598869E1,-2.971287489E0
2.511690459E1,8.931210637E-1,-1.097049332E1,-2.856431961E0
2.513704558E1,-9.332008660E-2,-8.173882484E0,-1.795813441E0
2.515731610E1,-2.358126640E0,-6.771090031E0,-1.731207132E0
2.517758662E1,-3.349353552E0,-7.211369038E0,-2.609971285E0
2.519785709E1,-2.099701881E0,-8.607581139E0,-2.440080881E0
2.521825709E1,-4.785645287E-3,-9.720842361E0,-1.341177106E0
2.523839813E1,3.954139352E-1,-1.000319481E1,-8.548358679E-1
2.525866860E1,-7.106683254E-1,-9.445667267E0,-1.310070395E0
2.527893912E1,-1.457827210E0,-9.306285858E0,-2.059023857E0
2.529920964E1,-1.980060697E0,-9.260822296E0,-1.874776483E0
2.531960964E1,-2.453839540E0,-9.119645119E0,-1.360319614E0
2.533975063E1,-2.633301258E0,-9.088538170E0,-8.069794178E-1
2.536002115E1,-2.556730986E0,-9.119645119E0,-2.327020019E-1
2.538029167E1,-2.398804665E0,-9.028717995E0,2.871387079E-2
2.540056214E1,-2.075773716E0,-8.911469460E0,-1.130608693E-1
2.542096214E1,-1.393221021E0,-9.086145401E0,-8.195417374E-2
2.544110318E1,-6.580262184E-1,-9.675378799E0,5.024927482E-2
2.546137365E1,-1.220339537E-1,-1.011087227E1,-2.931207791E-2
2.548164417E1,4.336991012E-1,-1.067856884E1,-2.422732860E-1
2.550191469E1,7.974081635E-1,-1.123131084E1,-1.704886109E-1
2.552231469E1,9.170492887E-1,-1.113081264E1,-2.207378894E-1
2.554245568E1,4.839483798E-1,-1.054217815E1,-5.365904570E-1
2.556272620E1,5.581258535E-1,-9.955338478E0,-8.715856671E-1
2.558299662E1,1.168295622E0,-9.756733894E0,-9.194421172E-1
2.560326719E1,2.432902336E0,-1.104467106E1,-9.870393574E-2
2.562353766E1,3.011965513E0,-1.284048462E1,9.954141974E-1
2.564380818E1,1.518245935E0,-1.230867958E1,1.637288928E0
2.566407865E1,-1.460219979E0,-1.184207916E1,9.786644578E-1
2.568434917E1,-3.878167391E0,-1.063789082E1,7.513462901E-1
2.570461964E1,-5.425127029E0,-1.022572803E1,9.164510965E-1
2.572489016E1,-6.612565517E0,-1.100160027E1,1.634896040E0
2.574516063E1,-5.915655613E0,-1.263709450E1,1.256830096E0
2.576543115E1,-3.931407690E0,-1.312523079E1,3.876372576E-1
2.578570162E1,-1.476969719E0,-1.386042500E1,1.268794179E0
2.580597214E1,1.163509965E0,-1.464826202E1,1.065404296E0
2.582624261E1,1.422533035E0,-1.403510094E1,1.156331539E0
2.584651308E1,5.940182209E-1,-1.174397373E1,5.862415433E-1
2.586678360E1,2.560320199E-1,-9.902696609E0,-4.289134443E-1
2.588705407E1,-1.268794179E0,-1.032383347E1,-2.781656384E-1
2.590732459E1,-2.793620348E0,-9.332606316E0,-5.802594870E-2
2.592759506E1,-3.646063566E0,-7.826922894E0,-7.016952634E-1
2.594786558E1,-2.709871531E0,-6.007181168E0,-1.951346874E0
2.596813604E1,-8.189435601E-1,-3.790230989E0,-2.784647465E0
2.598840651E1,5.126622319E-1,-1.604387641E0,-3.052643538E0
2.600867698E1,4.815555513E-1,-1.482353687E0,-2.478366137E0
2.602894750E1,-2.033899277E-1,-2.160120726E0,-1.587637782E0
2.604921797E1,-1.106082320E0,-3.696911097E0,-1.307677627E0
2.606948844E1,-1.409970760E0,-5.397011280E0,-1.850848317E0
2.608975896E1,-2.207378864E0,-6.589235306E0,-3.119642496E0
2.611002943E1,-2.523231506E0,-7.350750923E0,-4.132404804E0
2.613029990E1,-2.081755698E-1,-8.516654015E0,-3.876372576E0
2.615057037E1,3.116651475E-1,-9.217751503E0,-2.717648268E0
2.617084089E1,-8.404789567E-1,-8.552546501E0,-2.167299032E0
2.619111136E1,-1.630110383E0,-7.003193855E0,-2.559721947E0
2.621138183E1,-2.652443886E0,-6.273382664E0,-2.949752092E0
2.623165230E1,-3.390031576E0,-6.345167637E0,-2.976073265E0
2.625192276E1,-3.823132277E0,-6.976872444E0,-3.266202927E0
2.627219328E1,-4.656432629E0,-8.003992081E0,-4.355535507E0
2.629246375E1,-7.524828911E0,-1.047517967E1,-4.783850670E0
2.631273422E1,-9.148359299E0,-1.606062508E1,-4.604389191E0
2.633300469E1,-5.401198864E0,-2.211805534E1,-8.195417404E0
2.635327516E1,6.850052834E0,-2.464607239E1,1.108475089E0
2.637354563E1,6.505486488E0,-1.691785431E1,2.683550596E0
2.639381615E1,3.833301783E0,-8.868398666E0,-3.194418192E0
2.641408662E1,3.196212769E0,-5.361119270E0,3.521636724E0
2.643435709E1,4.204189301E0,-6.783053875E0,1.223330617E0
2.645462756E1,5.222335458E-1,-1.252463150E1,-2.212762833E0
2.647489802E1,-1.520040631E0,-1.208854008E1,-1.858026743E0
2.649516849E1,-2.480160713E0,-1.006062317E1,-1.331605792E0
2.651543896E1,-2.250449657E0,-9.732806206E0,-6.251249313E-1
2.653570943E1,-1.615753531E0,-9.002396584E0,-2.087737799E0
2.655597990E1,-1.548754454E0,-7.747959614E0,-3.290131092E0
2.657625037E1,-1.735394597E0,-7.201797962E0,-2.720041037E0
2.659652084E1,-1.165902853E0,-6.689733982E0,-2.162513494E0
2.661679131E1,-4.594219327E-1,-7.244868755E0,-2.063809633E0
2.663706172E1,7.782655358E-1,-8.952147484E0,-2.049452543E0
2.665733219E1,1.353141189E0,-9.289535522E0,-1.898704767E0
2.667760266E1,1.628315806E0,-7.922635555E0,-2.339582443E0
2.669787308E1,1.642672777E0,-7.122834682E0,-3.067000389E0
2.671827308E1,1.941775560E0,-6.689733982E0,-2.428116798E0
2.673841401E1,2.190629244E0,-6.328417778E0,-1.302891970E0
2.675868448E1,9.409775138E-1,-6.474380016E0,-8.404789567E-1
2.677895495E1,2.536391914E-1,-7.609176159E0,-1.290927768E0
2.679922542E1,8.356932998E-1,-7.802994728E0,-2.377867460E0
2.681962542E1,1.735992789E0,-7.506284714E0,-2.298904419E0
2.683976630E1,1.963310957E0,-9.148359299E0,-2.767897606E0
2.686003677E1,3.451646566E-1,-1.313001633E1,-3.263810158E0
2.688030724E1,-1.522433400E0,-1.515554047E1,-1.855633974E0
2.690057771E1,-1.063011408E0,-1.721217155E1,-3.184846878E0
2.692097771E1,-2.666800737E0,-2.403829575E1,-5.197809219E0
2.694111860E1,-4.208974838E0,-2.165803528E1,-5.906682491E0
2.696138907E1,-3.186641455E0,-1.132223892E1,-4.601995945E0
2.698165953E1,-7.806583643E-1,-9.479166985E0,-5.157131195E0
2.700193000E1,4.193421602E-1,-1.078863907E1,-5.246263504E0
2.702233000E1,8.859425783E-1,-9.728020668E0,-4.755136967E0
2.704247089E1,3.906283081E-1,-7.298109055E0,-4.592424870E0
2.706274136E1,6.777670383E-1,-5.810969830E0,-3.083750248E0
2.708301183E1,1.818545163E-1,-5.404190063E0,-1.724028707E0
2.710328230E1,-8.380861282E-1,-4.171288013E0,-1.554138303E0
2.712355271E1,-1.536790371E0,-3.194418192E0,-1.503889084E0
2.714382318E1,-2.025524378E0,-2.557329178E0,-1.834098577E0
2.716409365E1,-2.408375978E0,-2.322832584E0,-2.119442701E0
2.718436407E1,-1.723430514E0,-3.464807272E0,-1.826920033E0
2.720463453E1,1.076770201E-1,-6.816553593E0,-7.950153351E-1
2.722490495E1,1.120439172E0,-1.021376324E1,-1.106680483E-1
2.724517542E1,2.321037948E-1,-1.104467106E1,-1.537388563E0
2.726544589E1,-2.355733871E0,-9.479166985E0,-4.362713814E0
2.728584589E1,-3.485744476E0,-7.647460938E0,-5.990431309E0
2.730598677E1,-2.892324448E0,-6.455237389E0,-4.113262177E0
2.732625714E1,-1.721037745E0,-6.625127792E0,-2.590828657E0
2.734652766E1,-2.216950178E0,-6.145965099E0,-1.958525300E0
2.736679808E1,-8.715856671E-1,-5.708078384E0,-2.404188633E0
2.738706854E1,-2.252842426E0,-8.581260681E0,-5.571687698E0
2.740733896E1,-3.919443607E0,-1.601037598E1,-2.380260229E0
2.742760943E1,-1.658824325E0,-1.774158287E1,-9.720842242E-1
2.744787985E1,1.530210137E0,-1.731506348E1,-9.601200819E-1
2.746815026E1,7.762316704E0,-1.890270042E1,-4.944169998E0
2.748842073E1,4.206582069E0,-1.503350639E1,-8.739784956E-1
2.750869115E1,3.129213810E0,-1.236371422E1,-3.797409534E0
2.752896157E1,1.268794179E0,-1.289073372E1,5.790630579E-1
2.754923203E1,-2.870789051E0,-1.287159157E1,1.697109461E0
2.756950245E1,-4.393222332E0,-1.058285618E1,-1.429711580E0
2.758977292E1,-4.027120590E0,-8.303094864E0,-2.203191519E0
2.761004334E1,-1.599003673E0,-8.327621460E0,3.062812984E-1
2.763031375E1,-1.225723386E0,-8.385048866E0,9.619147182E-1
2.765058417E1,-2.640479803E0,-6.845267296E0,-5.964110494E-1
2.767085464E1,-3.929014683E0,-5.411368370E0,-2.684148788E0
2.769112506E1,-3.796811342E0,-5.039882660E0,-4.420141697E0
2.771139547E1,-1.307079315E0,-5.234299660E0,-3.486342669E0
2.773166589E1,1.597209096E0,-5.861218929E0,-3.236292601E-1
2.775193636E1,2.679363251E0,-5.320441246E0,6.604190469E-1
2.777220677E1,2.775076151E0,-4.982454777E0,-7.399803996E-1
2.779247719E1,2.044667006E0,-6.483951092E0,-2.880360365E0
2.781287719E1,9.888339639E-1,-6.897909641E0,-2.772683144E0
2.783301797E1,1.722832322E-1,-7.688138962E0,-1.992024899E0
2.785328844E1,-2.392822653E-1,-9.294321060E0,-1.984846354E0
2.787355886E1,-1.905883193E0,-1.191864967E1,-3.172882795E0
2.789382933E1,-2.911466837E0,-1.474876022E1,-2.641077995E0
2.791409974E1,-4.723432064E0,-1.924248123E1,-3.139383316E0
2.793437016E1,-3.227319479E0,-2.308296204E1,-5.207380295E0
2.795464058E1,-2.494517565E0,-2.029831505E1,-5.385047436E0
2.797491099E1,-2.566302299E0,-1.158126163E1,-4.881956577E0
2.799518141E1,-2.142772675E0,-7.405786037E0,-3.962514400E0
2.801545183E1,-1.984846354E0,-6.217749596E0,-2.454437733E0
2.803572224E1,-9.098708034E-1,-5.104488850E0,-1.977667928E0
2.805599266E1,-8.614161611E-2,-4.678566456E0,-1.743171334E0
2.807626308E1,4.863412082E-1,-4.420141697E0,-1.302891970E0
2.809653355E1,7.543373108E-1,-4.161716938E0,-1.685743570E0
2.811680396E1,6.490531564E-1,-4.444069862E0,-2.073380709E0
2.813707438E1,5.868397355E-1,-5.346762180E0,-1.877169371E0
2.815734480E1,1.642672777E0,-7.489534855E0,-1.305284739E0
2.817761516E1,1.130010486E0,-8.315058708E0,-2.107478619E0
2.819788558E1,-2.386840582E0,-6.988836765E0,-3.071786165E0
2.821828558E1,-6.576673031E0,-7.122834682E0,-2.899502754E0
2.823842641E1,-6.200999737E0,-7.750352383E0,-5.440082073E0
2.825869683E1,-3.007179976E0,-6.086144447E0,-6.924230576E0
2.827896724E1,-3.543172121E0,-7.994420528E0,-2.473580360E0
2.829923766E1,-6.019145489E0,-1.194975662E1,-5.246263742E-1
2.831963766E1,-5.729015827E0,-1.580220032E1,-3.761517286E0
2.833977844E1,1.767099500E0,-1.996331978E1,7.178468257E-2
2.836004886E1,5.961717606E0,-2.143071747E1,-1.781456470E0
2.838031927E1,4.642673969E0,-1.544985771E1,-2.497508526E0
2.840058969E1,4.153940201E0,-1.062831974E1,-0.000000000E0
2.842098969E1,2.063809633E0,-1.216511059E1,1.074975610E0
2.844113047E1,-5.216353536E-1,-1.209811115E1,1.100698411E-1
2.846140084E1,-1.326221943E0,-9.586843491E0,-1.944168448E0
2.848167125E1,-2.580659151E0,-8.221738815E0,-2.253440619E0
2.850194167E1,-3.413959742E0,-8.411369324E0,-1.659422517E0
2.852234167E1,-3.543172121E0,-7.996813297E0,-2.145763636E0
2.854248245E1,-4.541577339E0,-6.438487530E0,-4.601995945E0
2.856275287E1,-4.249652863E0,-4.948955536E0,-5.353940487E0
2.858302328E1,-8.237292171E-1,-4.755136967E0,-3.244667530E0
2.860329365E1,1.434497118E0,-4.511068821E0,-1.046261668E0
2.862356407E1,1.405783296E0,-3.799802303E0,-1.066002488E0
2.864383443E1,5.222335458E-1,-5.949753284E0,-1.322034478E0
2.866410485E1,9.529415965E-1,-7.429714203E0,-1.307677627E0
2.868437526E1,1.659422517E0,-6.926623344E0,-1.616351724E0
2.870464563E1,1.798206210E0,-7.295716286E0,-1.204786181E0
2.872491599E1,-2.656033039E-1,-9.967302322E0,-4.139583111E0
2.874518641E1,-6.077769399E-1,-1.458604908E1,-4.869992256E0
2.876545677E1,-4.084548473E0,-1.827996826E1,-4.070191383E0
2.878572719E1,-6.078966141E0,-2.278326035E1,-6.050251961E0
2.880599756E1,-6.588637352E0,-1.900080681E1,-4.590032101E0
2.882626792E1,-5.394020557E0,-1.106142044E1,-5.023132801E0
2.884653834E1,-2.836691141E0,-9.622735977E0,-6.100501537E0
2.886680870E1,-1.613360643E0,-9.718449593E0,-4.805386066E0
2.888707907E1,-7.465606928E-1,-8.137989998E0,-3.452843189E0
2.890734943E1,-2.799602449E-1,-6.692126751E0,-2.755933523E0
2.892761985E1,1.579262912E-1,-6.328417778E0,-2.478366137E0
2.894789021E1,2.614158690E-1,-5.679364681E0,-2.729612350E0
2.896816063E1,-5.982056633E-2,-5.133202553E0,-3.141776085E0
2.898843099E1,-3.828516304E-1,-5.559723377E0,-3.126821041E0
2.900870136E1,2.488535494E-1,-6.026323795E0,-2.435295343E0
2.902897172E1,1.603191197E-1,-5.715256691E0,-1.166501045E0
2.904924214E1,-7.369893789E-1,-5.013561726E0,-1.872383654E-1
2.906951250E1,-2.628515720E0,-6.280561447E0,-1.841277003E0
2.908978287E1,-3.751347780E0,-9.574879646E0,-3.421736479E0
2.911005323E1,-3.375674486E0,-9.804591179E0,-5.387440205E0
2.913032360E1,-2.104487419E0,-7.295716286E0,-5.497509956E0
2.915059396E1,-1.113260746E0,-5.830112457E0,-2.327618122E0
2.917086433E1,-1.953739643E0,-5.777470112E0,3.110669367E-2
2.919113469E1,-3.789632797E0,-8.641080856E0,-1.140179992E0
2.921140506E1,-4.984847546E0,-1.306062412E1,-2.564507723E0
2.923167542E1,-2.011167526E0,-1.564666748E1,-2.909074068E0
2.925194578E1,4.439284325E0,-1.723609924E1,-1.183250785E0
2.927221615E1,7.476972580E0,-1.875195312E1,-3.543770313E0
2.929248651E1,2.746362209E0,-1.344347572E1,-6.179464459E-1
2.931275688E1,4.625924587E0,-1.100638580E1,-2.799004316E0
2.933302724E1,4.161118507E0,-1.247378445E1,6.269195080E-1
2.935329761E1,1.901097536E0,-1.238764286E1,1.359721422E0
2.937356797E1,-4.642075896E-1,-9.400203705E0,3.972085714E-1
2.939383828E1,-4.400400639E0,-6.352345943E0,-1.235892892E0
2.941410860E1,-6.368497372E0,-5.787041664E0,-9.002995491E-1
2.943437896E1,-5.800800323E0,-8.228917122E0,-9.481559992E-1
2.945464933E1,-3.854238987E0,-9.577272415E0,-3.021536827E0
2.947491969E1,-2.341377020E0,-8.339585304E0,-3.718446493E0
2.949519006E1,1.459621787E-1,-6.145965099E0,-2.822932482E0
2.951546042E1,1.472782373E0,-5.456831932E0,-1.747956991E0
2.953573073E1,1.936989903E0,-5.298905849E0,-9.960124493E-1
2.955600110E1,1.917847395E0,-6.088537216E0,-1.073180914E0
2.957627146E1,1.353141189E0,-6.414559364E0,-1.812563181E0
2.959654183E1,6.586244106E-1,-6.040680885E0,-3.160918713E0
2.961694183E1,-5.240281820E-1,-7.908278942E0,-4.542175770E0
2.963708250E1,-1.268195957E-1,-1.249831104E1,-3.998406649E0
2.965735287E1,-8.428717852E-1,-1.580698681E1,-3.220739365E0
2.967762318E1,-8.715856671E-1,-2.057348824E1,-4.836492538E0
2.969789355E1,3.451646566E-1,-1.974497414E1,-3.713660717E0
2.971829354E1,-2.116451740E0,-1.349851036E1,-4.637888432E0
2.973843422E1,-3.825525284E0,-1.029272652E1,-6.833303452E0
2.975870459E1,-3.540779352E0,-9.850054741E0,-6.996015072E0
2.977897490E1,-1.999203324E0,-1.036690426E1,-5.540580750E0
2.979924526E1,-2.632105052E-1,-9.828518867E0,-4.240679741E0
2.981964526E1,4.791627228E-1,-8.281558990E0,-3.668197155E0
2.983978594E1,1.487139225E0,-7.141977310E0,-3.400201082E0
2.986005625E1,1.310070395E0,-5.593223095E0,-3.081357241E0
2.988032662E1,1.746760458E-1,-4.405784607E0,-2.600399971E0
2.990059693E1,-1.043868899E0,-3.986442566E0,-2.380260229E0
2.992099693E1,-1.106082320E0,-4.024727821E0,-2.569293261E0
2.994113761E1,-2.871387303E-1,-5.684150219E0,-1.798206210E0
2.996140792E1,5.389832854E-1,-8.082955360E0,-1.054038405E0
2.998167823E1,-9.810572863E-2,-7.688138962E0,-1.209571838E0
3.000194860E1,-1.197009563E0,-6.357131481E0,-1.886740685E0
3.002221891E1,-2.319841623E0,-7.365108013E0,-1.817348838E0
3.004248927E1,-3.174677372E0,-8.566903114E0,-2.428116798E0
3.006275959E1,-3.000001431E0,-8.039883614E0,-3.933800459E0
3.008302990E1,-1.865205288E0,-6.952944279E0,-4.255036831E0
3.010330026E1,-2.250449657E0,-6.436094761E0,-4.343571186E0
3.012357058E1,-3.940979004E0,-7.582854748E0,-4.043870449E0
3.014384089E1,-4.953741074E0,-1.116909790E1,-2.444866419E0
3.016411120E1,-5.353342533E0,-1.363310719E1,-4.504488707E-1
3.018438151E1,-1.151545882E0,-2.046820450E1,-8.471190453E0
3.020465188E1,3.653840065E0,-2.421297264E1,-3.280559778E0
3.022492219E1,5.082953453E0,-1.505504227E1,-1.508674622E0
3.024519250E1,3.112463951E0,-7.848458290E0,2.070987940E0
3.026546677E1,3.620340586E0,-7.360322475E0,3.356531858E0
3.028577167E1,9.696913958E-1,-1.223928738E1,-8.913264424E-2
3.030600287E1,-3.390031576E0,-1.260598755E1,-1.168893814E0
3.032627328E1,-3.897309780E0,-9.332606316E0,-3.235096216E0
3.034654370E1,-3.244069338E0,-8.497511864E0,-7.232306600E-1
3.036681407E1,-2.834298372E0,-8.739186287E0,6.005984545E-1
3.038708443E1,-3.509672642E0,-7.094120979E0,-1.659422517E0
3.040735480E1,-4.101297855E0,-5.279763222E0,-3.558127165E0
3.042762516E1,-4.295116425E0,-5.126024246E0,-3.730410576E0
3.044789552E1,-2.250449657E0,-5.583651543E0,-3.414557934E0
3.046816584E1,1.314856052E0,-5.892325878E0,-2.265404940E0
3.048843615E1,2.245664120E0,-6.352345943E0,-1.609173179E0
3.050870651E1,8.524430394E-1,-6.376274109E0,-1.812563181E0
3.052897683E1,6.035895348E-1,-6.486343861E0,-2.416152716E0
3.054924714E1,5.102694035E-1,-6.828517437E0,-2.973680258E0
3.056951745E1,1.446461320E0,-7.334001541E0,-1.862812400E0
3.058978771E1,1.554138303E0,-8.913862228E0,-2.717648268E0
3.061005808E1,5.772684813E-1,-1.274237919E1,-3.905086517E0
3.063032839E1,-8.356932998E-1,-1.689153290E1,-3.026322365E0
3.065059870E1,-3.890131474E0,-2.320499611E1,-5.746363640E0
3.067086901E1,-4.565505505E0,-2.329352951E1,-6.787839413E0
3.069113927E1,-2.990430117E0,-1.236132145E1,-5.499902725E0
3.071140959E1,-3.972085714E-1,-9.871589661E0,-5.885147095E0
3.073167990E1,2.081755698E-1,-1.141795158E1,-5.461617470E0
3.075195016E1,-1.674975902E-1,-1.024726295E1,-4.355535507E0
3.077222047E1,-3.924229145E-1,-7.585247993E0,-3.613162279E0
3.079249078E1,-5.886343718E-1,-5.789434433E0,-2.755933523E0
3.081276110E1,-3.972085714E-1,-5.140381336E0,-1.673779488E0
3.083303136E1,-2.201396823E-1,-4.183252335E0,-1.345962763E0
3.085330167E1,-5.312066078E-1,-2.787040234E0,-1.721635938E0
3.087357193E1,-1.488933921E0,-1.951346874E0,-2.516651154E0
3.089384224E1,-1.723430514E0,-1.831705689E0,-2.509472847E0
3.091411256E1,-2.967100143E-1,-3.560520172E0,-1.173679471E0
3.093438282E1,1.688136339E0,-7.384250641E0,-1.920240223E-1
3.095465313E1,1.542174220E0,-9.541379929E0,-7.088736892E-1
3.097492344E1,-1.266401410E0,-9.945767403E0,-2.772683144E0
3.099519370E1,-2.585444927E0,-1.175115204E1,-5.806184292E0
3.101546401E1,-4.922036171E0,-1.019940662E1,-6.126822472E0
3.103573427E1,-6.256034851E0,-7.094120979E0,-4.151547432E0
3.105600459E1,-6.433103561E0,-7.673782349E0,-1.700100541E0
3.107627485E1,-9.040083885E0,-1.134616661E1,-4.439284325E0
3.109654516E1,-7.780860901E0,-1.240678501E1,-4.444069862E0
3.111681542E1,2.063809633E0,-1.601994705E1,-2.685943544E-1
3.113708573E1,7.819744587E0,-1.982932091E1,-9.433703423E-1
3.115735599E1,4.357329845E0,-1.620180130E1,-5.394618511E0
3.117762625E1,4.724030018E0,-1.090828037E1,-1.494317770E0
3.119789657E1,3.390629768E0,-1.031904793E1,1.342971683E0
3.121829657E1,8.135596663E-2,-1.269930840E1,1.086939692E0
3.123843714E1,-1.309472203E0,-1.132702446E1,-1.757528186E0
3.125870740E1,-2.427518606E0,-9.294321060E0,-3.225524902E0
3.127897766E1,-2.492124796E0,-9.143573761E0,-2.805584669E-1
3.129924797E1,-3.000001431E0,-8.140382767E0,3.708875179E-1
3.131964797E1,-4.319045067E0,-5.916254044E0,-1.891526341E0
3.133978849E1,-5.166702271E0,-4.257429600E0,-3.864408493E0
3.136005875E1,-3.643670797E0,-4.836492538E0,-4.374678135E0
3.138032907E1,0.000000000E0,-7.022336483E0,-1.941775560E0
3.140059933E1,2.954537868E0,-7.446464062E0,1.036690354E0
3.142099933E1,3.457628727E0,-5.279763222E0,8.518448472E-1
3.144113990E1,1.611566067E0,-4.374678135E0,-3.016751051E0
3.146141016E1,7.112665176E-1,-7.288537979E0,-4.336392879E0
3.148168042E1,1.365105271E0,-8.356334686E0,-1.085145116E0
3.150195068E1,1.613958836E0,-9.284749985E0,2.632104978E-2
3.152235068E1,1.386640668E0,-1.317069435E1,-1.630708575E0
3.154249120E1,-1.144367456E0,-1.488754463E1,-2.246262312E0
3.156276146E1,-2.173879385E0,-1.641954803E1,-2.973082066E-1
3.158303172E1,-1.709073544E0,-1.958226204E1,1.007378340E0
3.160330203E1,-3.038286448E0,-2.347299194E1,-1.034895778E-1
3.162357230E1,-5.618945599E0,-2.337967110E1,-3.584448338E0
3.164384256E1,-3.406781197E0,-1.787079620E1,-4.807778835E0
3.166411282E1,1.206580877E0,-1.476311779E1,-3.119642496E0
3.168438308E1,3.124428272E0,-1.420259857E1,-9.152546525E-2
3.170465334E1,2.178664923E0,-1.346261883E1,1.350150228E0
3.172492360E1,4.313062727E-1,-1.175833035E1,1.591825247E0
3.174519386E1,-8.763712645E-1,-9.055039406E0,1.835893154E0
3.176546412E1,-2.465803623E0,-6.287739754E0,2.176272154E0
3.178573438E1,-3.418745279E0,-4.386641979E0,2.154736757E0
3.180600464E1,-4.058227062E0,-2.837289333E0,8.709874153E-1
3.182627490E1,-4.141975880E0,-1.666600943E0,-7.902296782E-1
3.184654516E1,-3.397209883E0,-1.688136339E0,-2.035095692E0
3.186681542E1,-1.756929994E0,-2.799004316E0,-2.688934565E0
3.188708568E1,-3.637090325E-1,-6.232106686E0,-3.455235958E0
3.190735594E1,-1.170688510E0,-1.095852947E1,-4.432105541E0
3.192762620E1,-3.655634880E0,-1.480858135E1,-5.284548759E0
3.194789646E1,-5.815157413E0,-1.285962677E1,-4.470390797E0
3.196816672E1,-5.788836002E0,-7.173084259E0,-3.907479286E0
3.198843698E1,-5.578267574E0,-8.528617859E0,-3.804588079E0
3.200870724E1,-7.369295597E0,-1.617308807E1,-1.164108157E0
3.202897750E1,-6.580262184E-1,-1.696571159E1,-2.578864574E0
3.204924776E1,1.623530149E0,-9.692128181E0,9.762716293E-1
3.206951797E1,2.626721144E0,-6.809374809E0,2.736192703E0
3.208978818E1,3.560520172E0,-6.371488571E0,1.459621787E-1
3.211005844E1,2.315055847E0,-8.748757362E0,-3.786641955E-1
3.213032870E1,-6.460621208E-2,-1.169851017E1,1.124626622E-1
3.215059896E1,-2.416750938E-1,-1.277109241E1,-2.392224550E0
3.217086922E1,-1.515254974E0,-1.169133186E1,-2.665006161E0
3.219113948E1,-3.583850145E0,-9.119645119E0,-1.697707653E0
3.221140980E1,-3.579064369E0,-7.489534855E0,-7.567301393E-1
3.223168000E1,-2.743371248E0,-6.943373203E0,-5.341976285E-1
3.225195021E1,-2.166700840E0,-7.570890903E0,-6.275177598E-1
3.227222047E1,-1.670788407E0,-9.155537605E0,4.067798331E-2
3.229249073E1,-1.103689432E0,-1.006062317E1,1.579262912E-1
3.231289073E1,-8.644071817E-1,-1.012522888E1,-2.566302419E-1
3.233303125E1,-8.452646136E-1,-9.775876999E0,-4.217349887E-1
3.235330146E1,-1.235294700E0,-9.649057388E0,-9.816554785E-1
3.237357172E1,-1.481755376E0,-9.570094109E0,-1.520638824E0
3.239384198E1,-1.273579836E0,-9.351749420E0,-1.422533035E0
3.241411224E1,-1.560718536E0,-8.995218277E0,-1.219143152E0
3.243438250E1,-1.965703845E0,-9.023932457E0,-1.056431174E0
3.245465271E1,-1.749751568E0,-9.610772133E0,-2.056631088E0
3.247492297E1,-1.108475089E0,-1.027119160E1,-3.570091486E0
3.249519323E1,-5.934200287E-1,-1.052303600E1,-2.746362209E0
3.251546750E1,1.400997639E0,-1.179183006E1,2.392822644E-3
3.253577224E1,3.208176851E0,-1.456690598E1,3.565305769E-1
3.255600339E1,2.808575630E0,-1.363789272E1,5.647061467E-1
3.257627380E1,-1.531406492E-1,-1.116909790E1,-1.345962733E-1
3.259654412E1,-3.681955814E0,-1.013479996E1,-5.126622319E-1
3.261681443E1,-5.166702271E0,-1.201196957E1,1.575075507E0
3.263708474E1,-4.565505505E0,-1.342911911E1,1.792822361E0
3.265735500E1,-1.199402332E0,-1.408774376E1,5.264210105E-1
3.267762526E1,1.786242127E0,-1.430788326E1,8.111668825E-1
3.269789552E1,2.197807550E0,-1.479422379E1,3.014956415E-1
3.271829558E1,6.825526357E-1,-1.273041439E1,1.196411345E-2
3.273843610E1,9.332008660E-2,-1.034058285E1,2.608176768E-1
3.275870636E1,-5.479564071E-1,-9.481559753E0,1.914258152E-1
3.277897662E1,-1.889133453E0,-8.655437469E0,-2.518445849E-1
3.279924688E1,-2.959323406E0,-7.091728210E0,-9.960124493E-1
3.281964688E1,-3.320639610E0,-5.346762180E0,-1.640279889E0
3.283978735E1,-3.145963669E0,-4.475176334E0,-1.879562140E0
3.286005761E1,-2.063809633E0,-3.251846075E0,-2.126621008E0
3.288032787E1,-1.165902853E0,-2.633899450E0,-2.559721947E0
3.290059813E1,-9.888339639E-1,-3.517449379E0,-2.676970243E0
3.292099813E1,-1.237687469E0,-4.755136967E0,-2.483151674E0
3.294113860E1,-1.479362607E0,-6.649055958E0,-2.215155602E0
3.296140886E1,-1.539183140E0,-8.519046783E0,-2.356332064E0
3.298167907E1,-2.204986095E0,-9.921838760E0,-3.016751051E0
3.300194933E1,-2.549552441E0,-9.263215065E0,-2.992822886E0
3.302221959E1,-1.649253011E0,-7.465606689E0,-2.015953064E0
3.304248980E1,-1.342971683E0,-5.813362598E0,-1.247856975E0
3.306276006E1,-1.067797065E0,-5.332405090E0,-1.183250785E0
3.308303026E1,-7.082754970E-1,-5.406582832E0,-1.470389485E0
3.310330052E1,-5.886343718E-1,-6.002395630E0,-1.848455548E0
3.312357078E1,-9.242277741E-1,-7.017550468E0,-1.908276081E0
3.314384099E1,-2.781656265E0,-7.982456207E0,-2.008774519E0
3.316411125E1,-6.799205780E0,-1.122652531E1,-3.431307554E0
3.318438151E1,-9.160323143E0,-1.720020676E1,-3.991228104E0
3.320465172E1,-6.174678802E0,-2.020977974E1,-7.633104324E0
3.322492198E1,8.452646136E-1,-2.143071747E1,-9.409774780E0
3.324519224E1,1.700100541E0,-1.474158192E1,4.919643402E0
3.326546245E1,3.009572744E0,-1.023769188E1,8.685946465E-1
3.328573271E1,4.388436794E0,-8.746364594E0,1.900499344E0
3.330600292E1,3.840480328E0,-1.373121262E1,-2.820539713E0
3.332627318E1,-1.674975827E-2,-1.579502201E1,-1.764706731E0
3.334654339E1,-1.101296663E0,-1.150708389E1,-5.557330847E-1
3.336681365E1,-2.439482689E0,-9.145966530E0,-7.280163169E-1
3.338708391E1,-3.955335855E0,-8.856434822E0,1.818545163E-1
3.340735412E1,-4.027120590E0,-7.182655334E0,-2.781656384E-1
3.342762438E1,-5.176273346E0,-5.507081509E0,-2.578864574E0
3.344789459E1,-5.343770981E0,-5.087738991E0,-3.000001431E0
3.346816485E1,-3.837489367E0,-5.806184292E0,-2.349153519E0
3.348843511E1,-1.685145378E0,-7.091728210E0,-1.446461320E0
3.350870532E1,4.121637046E-1,-8.619544983E0,-1.817348838E0
3.352897558E1,2.564507723E0,-9.222537041E0,-3.574877024E0
3.354924578E1,2.502294302E0,-8.447261810E0,-4.122833252E0
3.356951604E1,1.343569875E0,-6.938587666E0,-2.509472847E0
3.358978625E1,1.621137381E0,-6.167500496E0,-1.771885157E0
3.361005646E1,2.976073265E0,-6.457630157E0,-1.570888042E0
3.363032672E1,4.366901398E0,-7.877171993E0,-9.146564603E-1
3.365059698E1,4.003192425E0,-8.605188370E0,-3.212364316E-1
3.367086724E1,1.590030670E0,-8.882756233E0,-5.413761139E-1
3.369113745E1,-3.230310678E-1,-9.203393936E0,-2.818146944E0
3.371140771E1,-1.448255897E0,-8.748757362E0,-3.897907972E0
3.373167792E1,-2.374876499E0,-9.179466248E0,-3.055036306E0
3.375194818E1,-3.256033421E0,-1.140359497E1,-2.861217737E0
3.377221839E1,-4.259224415E0,-1.477268887E1,-3.134597778E0
3.379248860E1,-5.980860233E0,-1.864607048E1,-3.759124279E0
3.381275886E1,-5.807978630E0,-2.053281021E1,-5.161916733E0
3.383302912E1,-2.894717216E0,-1.555753422E1,-5.643472195E0
3.385329927E1,-1.161117196E0,-1.288355541E1,-6.050251961E0
3.387356953E1,4.743770957E-1,-1.109492016E1,-5.059025288E0
3.389383980E1,4.360919297E-1,-9.780662537E0,-3.873979807E0
3.391411000E1,-1.483550072E-1,-8.130811691E0,-2.483151674E0
3.393438026E1,-8.021938205E-1,-5.483152866E0,-1.345962763E0
3.395465047E1,-1.113260746E0,-3.168097258E0,-4.695914388E-1
3.397492073E1,-1.204187989E0,-1.195214868E0,-1.034297585E0
3.399519094E1,-1.378864050E0,-6.514459848E-1,-2.406581402E0
3.401546115E1,-1.711466432E0,-1.329213023E0,-3.292523861E0
3.403573141E1,-1.610967875E0,-1.834098577E0,-2.341975212E0
3.405600162E1,-6.245267391E-1,-3.661018610E0,-5.437689424E-1
3.407627188E1,-4.785645287E-3,-8.085348129E0,-3.170489892E-2
3.409654209E1,-1.108475089E0,-1.209332561E1,-3.906283081E-1
3.411694209E1,-2.135594130E0,-1.357567883E1,-3.251846075E0
3.413708256E1,-2.181057930E0,-1.155972576E1,-8.442476273E0
3.415735276E1,-2.796013355E0,-7.489534855E0,-8.392227173E0
3.417762302E1,-4.297509670E0,-8.411369324E0,-2.406581402E0
3.419789323E1,-5.712265968E0,-1.314915848E1,5.312066078E-1
3.421829323E1,-4.958526611E0,-1.411884975E1,-3.527020693E0
3.423843370E1,2.736790895E0,-1.342194080E1,-8.572286963E-1
3.425870391E1,5.739185333E0,-1.651526260E1,-1.841277003E0
3.427897412E1,3.943371773E0,-1.660379601E1,-6.280561447E0
3.429924433E1,1.173081279E0,-1.286441231E1,-1.719243050E0
3.431964433E1,-2.374876499E0,-1.127198887E1,1.625324726E0
3.433978480E1,-3.193820000E0,-1.025922680E1,-7.495517135E-1
3.436005500E1,-9.481559992E-1,-1.094656563E1,-3.208775282E0
3.438032526E1,1.091725349E0,-1.101356411E1,-2.013560295E0
3.440059547E1,2.709871531E-1,-1.070249748E1,-7.399803996E-1
3.442099547E1,-2.001596212E0,-9.241679192E0,-4.456632137E-1
3.444113589E1,-3.777668715E0,-6.622735023E0,-1.551745534E0
3.446140615E1,-4.871787071E0,-4.649852753E0,-2.313261271E0
3.448167636E1,-3.725026608E0,-4.927420139E0,-2.160120726E0
3.450194657E1,-8.428717852E-1,-6.850052834E0,-2.227119684E0
3.452234657E1,1.453639746E0,-8.507082939E0,-2.442473650E0
3.454248703E1,2.528615236E0,-8.732007980E0,-2.968894720E0
3.456275724E1,3.004786968E0,-7.941778183E0,-3.052643538E0
3.458302745E1,2.204986095E0,-7.079763889E0,-2.660220623E0
3.460329766E1,1.324427366E0,-6.527021885E0,-2.483151674E0
3.462356787E1,9.433703423E-1,-6.546164513E0,-2.612364054E0
3.464383808E1,1.290329576E0,-6.651448727E0,-2.179263115E0
3.466410834E1,1.247258782E0,-7.230511665E0,-1.231107235E0
3.468437854E1,-1.764108539E0,-1.021615601E1,-3.318845034E0
3.470464875E1,-4.433900356E0,-1.338844109E1,-3.153740168E0
3.472491896E1,-5.788836002E0,-1.574477291E1,-3.491128206E0
3.474518917E1,-6.191428661E0,-1.997049713E1,-7.566105366E0
3.476546339E1,-4.706682205E0,-1.975992966E1,-5.650650501E0
3.478576813E1,-6.293123364E-1,-1.340279770E1,-4.278964996E0
3.480599927E1,4.408775866E-1,-1.176790142E1,-4.800600529E0
3.482626964E1,8.614161611E-2,-1.193779182E1,-3.890729666E0
3.484653990E1,-3.421736360E-1,-1.019701385E1,-3.177668571E0
3.486681021E1,-5.479564071E-1,-8.075776100E0,-2.870789051E0
3.488708042E1,-1.022333503E0,-6.242276192E0,-2.148156643E0
3.490735068E1,-1.189831018E0,-4.489533424E0,-1.970489502E0
3.492762094E1,-1.362114310E0,-3.412165165E0,-2.124228239E0
3.494789115E1,-1.472184181E0,-2.550150633E0,-2.854039192E0
3.496816141E1,-1.096511006E0,-1.793420553E0,-2.906681299E0
3.498843162E1,-4.785645381E-2,-1.848455548E0,-1.410568953E0
3.500870188E1,6.442674994E-1,-3.450450182E0,9.092725813E-2
3.502897209E1,-6.939185411E-2,-5.899504185E0,-1.609173268E-1
3.504924230E1,-1.084546804E0,-9.622735977E0,-2.020738840E0
3.506951250E1,-3.589234054E-1,-1.308455276E1,-5.727221012E0
3.508978271E1,-1.053440213E0,-1.010847950E1,-7.372286797E0
3.511005297E1,-2.183450699E0,-5.346762180E0,-4.724030018E0
3.513032318E1,-4.331008911E0,-4.858027935E0,-1.834098577E0
3.515059339E1,-9.059226990E0,-9.160323143E0,-2.286940336E0
3.517086360E1,-1.132463169E1,-1.402074432E1,-2.267797709E0
3.519113380E1,-1.822134495E0,-1.606541061E1,1.240080357E0
3.521140401E1,6.775875568E0,-1.429831123E1,-3.188436031E-1
3.523167417E1,6.208178520E0,-1.622812271E1,-6.055037498E0
3.525194438E1,1.848455548E0,-1.644347763E1,2.295913219E0
3.527221459E1,2.173879385E0,-1.636451340E1,1.866401732E-1
3.529248480E1,4.785645381E-2,-1.301037502E1,5.359922647E-1
3.531275500E1,-1.625324726E0,-1.007737255E1,-5.700899959E-1
3.533302516E1,-3.964907169E0,-8.322834969E0,-1.936989903E0
3.535329537E1,-4.689932346E0,-8.727222443E0,-1.767099500E0
3.537356558E1,-4.161118507E0,-9.287142754E0,-2.406581402E0
3.539383578E1,-3.818346739E0,-8.550153732E0,-3.675375462E0
3.541410594E1,-2.224128723E0,-7.127620220E0,-4.712066174E0
3.543437615E1,-2.727817893E-1,-5.815755367E0,-4.460819721E0
3.545464636E1,-2.440679073E-1,-4.783850670E0,-3.268595695E0
3.547491651E1,-2.153540403E-2,-3.986442566E0,-1.920240164E0
3.549518672E1,1.363908947E-1,-3.522234917E0,-1.039083242E0
3.551545693E1,9.332008660E-2,-4.628317356E0,-1.810170293E0
3.553572709E1,9.122636318E-1,-6.582056999E0,-1.513460279E0
3.555599730E1,1.285543919E0,-9.826126099E0,-3.021536827E0
3.557626750E1,1.192223907E0,-1.465065479E1,-2.767897606E0
3.559653766E1,-2.130808592E0,-1.713320923E1,-2.377867460E0
3.561680787E1,-1.225723386E0,-2.060938072E1,-5.260620594E0
3.563707808E1,1.268195957E-1,-1.929990959E1,-5.099703312E0
3.565734823E1,-3.302095234E-1,-1.294098282E1,-5.552545071E0
3.567761844E1,-1.500898004E0,-9.308678627E0,-5.657829285E0
3.569788865E1,-2.331805706E0,-6.761518478E0,-3.835694790E0
3.571828865E1,-2.169093609E0,-4.110869408E0,-2.717648268E0
3.573842901E1,-1.292722464E0,-2.633899450E0,-2.595614433E0
3.575869917E1,-5.288137794E-1,-2.779861689E0,-2.562114954E0
3.577896938E1,-2.991028428E-1,-4.046263218E0,-2.172084808E0
3.579923953E1,-3.613162339E-1,-6.076572895E0,-1.580459356E0
3.581963953E1,2.733799815E-1,-8.906683922E0,-5.676971674E-1
3.583977990E1,6.011967063E-1,-1.034776115E1,-7.806583643E-1
3.586005011E1,-2.216950178E0,-7.290930748E0,-2.121835470E0
3.588032026E1,-4.680361271E0,-5.846862316E0,-2.837289333E0
3.590059042E1,-5.523232937E0,-6.909873486E0,-3.574877024E0
3.592099042E1,-3.698705673E0,-6.242276192E0,-5.207380295E0
3.594113078E1,-3.105285645E0,-7.389036179E0,-6.876374245E0
3.596140099E1,-5.202594757E0,-1.224407387E1,-5.956932068E0
3.598167115E1,-6.308676720E0,-1.545464325E1,2.566302299E0
3.600194130E1,-1.266401410E0,-1.722892189E1,3.928416491E0
3.602234131E1,4.252045631E0,-1.944108582E1,-3.785445452E0
3.604248167E1,2.602792740E0,-1.801197243E1,-2.420938253E0
3.606275183E1,1.290329576E0,-1.291466236E1,-2.435295343E0
3.608302203E1,-1.488933921E0,-1.148554897E1,1.541576028E0
3.610329219E1,-6.460621357E-1,-1.004865837E1,1.029511929E0
3.612356235E1,-1.196411345E-2,-8.789435387E0,-2.358724833E0
3.614383250E1,-1.960918188E0,-8.901898384E0,-3.275774240E0
3.616410271E1,-3.636492252E0,-9.610772133E0,-1.683350682E0
3.618437287E1,-3.679563046E0,-8.885149002E0,-5.557330847E-1
3.620464302E1,-4.232903481E0,-6.857231617E0,-1.649851203E0
3.622491318E1,-3.636492252E0,-5.274977684E0,-2.008774519E0
3.624518339E1,-1.182652593E0,-5.655436516E0,-3.055036306E0
3.626545354E1,1.722832322E-1,-6.495915413E0,-4.379463673E0
3.628572370E1,9.720842242E-1,-7.403393269E0,-2.856431961E0
3.630599386E1,2.159522533E0,-7.932207108E0,-7.088736892E-1
3.632626401E1,2.140379906E0,-6.483951092E0,-6.203392744E-1
3.634653417E1,1.435693651E-1,-5.286941528E0,-2.373081923E0
3.636680433E1,-3.565305769E-1,-6.254240036E0,-3.184846878E0
3.638707448E1,8.644071817E-1,-7.298109055E0,-2.435295343E0
3.640734464E1,1.307677627E0,-8.985647202E0,-2.148156643E0
3.642761480E1,1.674975902E-1,-1.251745319E1,-2.877967358E0
3.644788490E1,-1.891526341E0,-1.622812271E1,-2.480758905E0
3.646815506E1,-4.938786030E0,-1.990349960E1,-4.377070904E0
3.648842526E1,-4.807180882E0,-1.959661865E1,-4.903491974E0
3.650869542E1,-3.952943087E0,-1.423131275E1,-4.070191383E0
3.652896558E1,-3.919443607E0,-1.087238789E1,-5.609972477E0
3.654923573E1,-2.709871531E0,-8.276773453E0,-6.112465382E0
3.656950589E1,-1.170688510E0,-7.048657417E0,-5.018347263E0
3.658977604E1,-7.178468257E-2,-7.220940590E0,-3.259024382E0
3.661004620E1,3.284149170E-1,-6.840481758E0,-1.858026743E0
3.663031636E1,8.715856671E-1,-6.028716564E0,-1.166501045E0
3.665058651E1,7.591229677E-1,-4.618745804E0,-1.633101463E0
3.667085662E1,-3.254238665E-1,-4.067798615E0,-2.739183664E0
3.669112672E1,-1.180259824E0,-4.345963955E0,-3.230310678E0
3.671139688E1,-7.058826685E-1,-4.960919380E0,-2.665006161E0
3.673166709E1,1.240080357E0,-8.085348129E0,-1.398604870E0
3.675193724E1,1.491924882E0,-9.816555023E0,-8.213363886E-1
3.677220740E1,-1.185045362E0,-7.439285755E0,-1.554138303E0
3.679247756E1,-3.047857761E0,-7.293323517E0,-3.809373617E0
3.681287750E1,-2.843869686E0,-8.276773453E0,-5.485546112E0
3.683301776E1,-4.003192425E0,-6.986443996E0,-4.726422787E0
3.685328782E1,-5.470590591E0,-8.334799767E0,-3.541377544E0
3.687355802E1,-6.921239376E0,-1.229193020E1,-4.499104977E0
3.689382818E1,-6.679564476E0,-1.444188118E1,-1.889133453E0
3.691409834E1,-5.599204898E-1,-1.608934021E1,2.392822653E-1
3.693436839E1,4.606781960E0,-1.906302071E1,2.153540403E-1
3.695463860E1,3.567698479E0,-1.710688782E1,-2.063809633E0
3.697490875E1,3.019144058E0,-1.141795158E1,-2.025524378E0
3.699517886E1,6.562315822E-1,-1.080778122E1,1.594218135E0
3.701544901E1,-1.173081279E0,-1.199761295E1,1.924427629E0
3.703571917E1,-1.553540111E0,-1.167936707E1,-9.170492887E-1
3.705598927E1,-1.884347796E0,-9.991230965E0,-2.540579557E0
3.707625943E1,-2.671586514E0,-9.122037888E0,-1.149751306E0
3.709652959E1,-2.899502754E0,-8.248059273E0,-5.341976285E-1
3.711679969E1,-3.241676569E0,-6.519843578E0,-2.650649309E0
3.713706985E1,-3.729812384E0,-5.387440205E0,-3.280559778E0
3.715733995E1,-2.690729141E0,-6.016752720E0,-3.136990547E0
3.717761011E1,-4.833501875E-1,-6.806982040E0,-2.851646423E0
3.719788021E1,5.198407173E-1,-7.134799004E0,-1.604387641E0
3.721828021E1,1.223330617E0,-6.488736629E0,-4.767699242E-1
3.723842052E1,1.738385677E0,-5.087738991E0,-6.873382926E-1
3.725869063E1,1.113260746E0,-5.109274387E0,-2.160120726E0
3.727896073E1,7.184450030E-1,-7.022336483E0,-2.743969440E0
3.729923089E1,1.108475089E0,-8.341978073E0,-2.109871387E0
3.731963089E1,2.006381750E0,-9.215357780E0,-1.927418590E0
3.733977115E1,1.872383714E0,-1.073599720E1,-2.581257343E0
3.736004125E1,-6.221338734E-2,-1.326401424E1,-3.603590965E0
3.738031141E1,-2.121237278E0,-1.440359592E1,-4.286143780E0
3.740058151E1,-3.770490170E0,-1.549292850E1,-4.561318398E0
3.742098151E1,-3.224926710E0,-1.633340645E1,-5.516652584E0
3.744112177E1,-7.154539824E-1,-1.585962868E1,-5.066203594E0
3.746139188E1,-8.021938205E-1,-1.439881039E1,-4.367499352E0
3.748166198E1,-9.361918569E-1,-1.164586735E1,-4.637888432E0
3.750193214E1,-4.977070987E-1,-9.852447510E0,-4.814957142E0
3.752233214E1,-2.488535494E-1,-8.202595711E0,-3.888336897E0
3.754247240E1,-2.057827413E-1,-6.354738712E0,-2.827718258E0
3.756274250E1,-5.982056633E-2,-4.838885784E0,-2.112264156E0
3.758301261E1,2.805584669E-1,-3.122633457E0,-1.920240164E0
3.760328276E1,1.316052526E-1,-1.391426325E0,-2.741576433E0
3.762355287E1,-2.392822644E-3,-1.429711580E0,-3.529413462E0
3.764382292E1,-4.785645287E-3,-2.550150633E0,-2.734398127E0
3.766409313E1,2.153540403E-1,-5.420939922E0,-1.019940615E0
3.768436323E1,4.121637046E-1,-1.109731293E1,-8.763712645E-1
3.770463334E1,-9.720842242E-1,-1.370728493E1,-4.132404804E0
3.772490344E1,-1.359721422E0,-1.147837067E1,-6.503093719E0
3.774517360E1,-4.594219327E-1,-7.984848976E0,-4.616353035E0
3.776544370E1,-1.053440213E0,-5.600401402E0,1.268195957E-1
3.778571380E1,-4.874179840E0,-5.751149178E0,-6.227321029E-1
3.780598391E1,-1.172423267E1,-9.902696609E0,-3.220739365E0
3.782625401E1,-9.521639824E0,-1.446820259E1,-4.000799656E0
3.784652412E1,8.261220455E-1,-1.628315735E1,5.982056856E-1
3.786679422E1,4.858027935E0,-1.379342651E1,-5.653043270E0
3.788706438E1,3.378067255E0,-1.520100403E1,-1.922633052E0
3.790733448E1,2.547757864E0,-1.423849106E1,4.307080805E-2
3.792760459E1,3.799802303E0,-1.241157150E1,-9.816554785E-1
3.794787469E1,3.878765583E0,-9.991230965E0,-5.341976285E-1
3.796814480E1,1.922633052E0,-9.531808853E0,-2.219941139E0
3.798841490E1,-9.649057388E-1,-8.743971825E0,-1.676172256E0
3.800868500E1,-3.490530014E0,-8.133204460E0,-1.623530149E0
3.802895511E1,-4.268795490E0,-8.149953842E0,-1.941775560E0
3.804922521E1,-2.937788010E0,-8.073383331E0,-2.056631088E0
3.806949532E1,-1.393221021E0,-7.915457249E0,-3.151347399E0
3.808976542E1,-2.392822644E-3,-7.704888821E0,-4.017549038E0
3.811003552E1,1.867598057E0,-7.590033531E0,-3.419343472E0
3.813030563E1,2.784647465E0,-7.764709473E0,-1.793420553E0
3.815057573E1,2.447259426E0,-7.254439831E0,-1.054038405E0
3.817084584E1,1.709671736E0,-6.395416737E0,-2.330011129E0
3.819111594E1,1.836491346E0,-5.894718647E0,-2.732005358E0
3.821138605E1,1.422533035E0,-6.656234264E0,-4.983053207E-1
3.823165615E1,-8.404789567E-1,-1.047517967E1,2.703889608E-1
3.825192620E1,-3.713062525E0,-1.290987682E1,4.331009090E-1
3.827219630E1,-4.091726780E0,-1.543071461E1,-4.121637046E-1
3.829246641E1,-1.754537225E0,-2.072902298E1,-8.883354068E-1
3.831273651E1,-1.548754454E0,-2.544108772E1,-1.307677627E0
3.833300662E1,-3.698705673E0,-2.028635025E1,-2.851646423E0
3.835327672E1,-1.865205288E0,-1.337887001E1,-3.083750248E0
3.837354683E1,1.616351724E0,-1.296251869E1,-3.206382275E0
3.839381693E1,1.611566067E0,-1.369292736E1,-8.979067206E-1
3.841408698E1,-1.022333503E0,-1.307019520E1,1.938186288E-1
3.843435709E1,-2.788834810E0,-1.141077328E1,2.416750938E-1
3.845462714E1,-2.743371248E0,-9.007183075E0,6.436693072E-1
3.847489724E1,-3.105285645E0,-6.414559364E0,1.043868899E0
3.849516735E1,-3.861417532E0,-4.166502476E0,1.206580877E0
3.851543745E1,-4.407579422E0,-2.454437733E0,7.010970116E-1
3.853570756E1,-4.319045067E0,-1.671386600E0,-4.959124923E-1
3.855597761E1,-3.174677372E0,-2.535793781E0,-3.402593851E0
3.857624771E1,-8.811569214E-1,-5.121238708E0,-6.181857109E0
3.859651782E1,2.440679073E-1,-9.455238342E0,-5.858826160E0
3.861691782E1,-3.212962627E0,-1.558385563E1,-6.938587666E0
3.863705797E1,-8.039285660E0,-1.508854103E1,-6.354738712E0
3.865732808E1,-9.717850685E0,-1.151426220E1,-4.348356724E0
3.867759818E1,-5.731408596E0,-1.338365555E1,-1.190429211E0
3.869786818E1,-8.500502706E-1,-9.785448074E0,-2.822932482E0
3.871826818E1,-1.051047325E0,-6.212964058E0,-3.531806231E0
3.873840844E1,2.507079840E0,-7.645068169E0,1.043868899E0
3.875867849E1,3.751945972E0,-1.030229759E1,1.630110383E0
3.877894860E1,3.361317635E0,-1.144487095E1,5.814558864E-1
3.879921865E1,2.550150633E0,-1.046082211E1,1.529611826E0
3.881961865E1,6.059823632E-1,-9.143573761E0,2.057827413E-1
3.883975880E1,-3.948157430E-1,-9.471988678E0,-1.456032634E0
3.886002891E1,-2.930609465E0,-1.058046341E1,-2.598007202E0
3.888029896E1,-5.197809219E0,-9.529416084E0,-2.260619164E0
3.890056907E1,-3.717848301E0,-8.408976555E0,-1.915454507E0
3.892096907E1,-2.283949137E0,-8.051848412E0,-9.409775138E-1
3.894110922E1,-6.987041831E-1,-8.964112282E0,3.038884699E-1
3.896137927E1,-1.986042857E-1,-9.546165466E0,1.034297585E0
3.898164933E1,-7.417750359E-1,-9.167501450E0,6.149554253E-1
3.900191943E1,-1.225723386E0,-9.277571678E0,-7.112665176E-1
3.902218948E1,-6.867401004E-1,-1.030229759E1,-2.181656122E0
3.904245959E1,-4.091726840E-1,-1.045603657E1,-1.743171334E0
3.906272964E1,-3.254238665E-1,-1.001515961E1,-7.956135273E-2
3.908299969E1,-4.498506486E-1,-1.002712345E1,3.493520916E-1
3.910326980E1,-8.859425783E-1,-9.610772133E0,-5.509474277E-1
3.912353985E1,-1.968096614E0,-9.275178909E0,-1.685743570E0
3.914380990E1,-2.044667006E0,-9.483952522E0,-2.196012974E0
3.916408000E1,-1.046261668E0,-1.016590691E1,-2.282154560E0
3.918435006E1,-7.417750359E-2,-1.098245811E1,-2.607578516E0
3.920462011E1,8.787640929E-1,-1.119063377E1,-2.911466837E0
3.922489021E1,2.231307030E0,-1.250070381E1,-7.974081635E-1
3.924516026E1,3.589233875E0,-1.426241970E1,8.877372146E-1
3.926543032E1,2.600399971E0,-1.200957680E1,1.960319996E0
3.928570037E1,-1.139581800E0,-1.056132126E1,5.216353536E-1
3.930597047E1,-4.907679081E0,-9.924231529E0,-1.041476011E0
3.932624052E1,-7.009773731E0,-1.153819084E1,-3.188436031E-1
3.934651058E1,-5.513661385E0,-1.292423344E1,1.474576950E0
3.936678063E1,-4.546363056E-1,-1.387717533E1,1.862214208E0
3.938705068E1,4.010370731E0,-1.424327660E1,9.619147182E-1
3.940732078E1,4.244867325E0,-1.354696560E1,1.268195957E-1
3.942759084E1,2.188236237E0,-1.095613670E1,5.192425251E-1
3.944786089E1,9.314061999E-1,-9.565308571E0,9.140582681E-1
3.946813094E1,-5.982056856E-1,-8.961718559E0,1.465005636E0
3.948840099E1,-1.594218135E0,-8.437690735E0,1.000199914E0
3.950867104E1,-2.805584431E0,-7.874779224E0,1.627119333E-1
3.952894110E1,-4.175475597E0,-7.046264648E0,-7.178467698E-3
3.954921120E1,-4.670789719E0,-6.059823513E0,-6.753742099E-1
3.956948125E1,-3.076571703E0,-5.763113499E0,-1.982453585E0
3.958975130E1,-1.570289850E0,-6.395416737E0,-3.641875982E0
3.961002136E1,-8.931210637E-1,-7.848458290E0,-4.532604218E0
3.963029141E1,-1.433898926E0,-1.018265629E1,-4.525425911E0
3.965056146E1,-2.025524378E0,-1.162911797E1,-4.345963955E0
3.967083151E1,-1.326221943E0,-9.546165466E0,-5.130809784E0
3.969110157E1,1.244866014E0,-6.577271461E0,-3.900300980E0
3.971137162E1,3.370888948E0,-4.331607342E0,-2.133799553E0
3.973164167E1,4.139583111E0,-5.552545071E0,-4.783850670E0
3.975191167E1,1.929811478E0,-1.805265045E1,9.068797827E-1
3.977218167E1,1.275972724E0,-2.477528572E1,3.270390272E0
3.979245167E1,9.571290761E-2,-1.441077423E1,-4.274179459E0
3.981272177E1,-3.784847260E0,-4.984847546E0,-1.178465188E-1
3.983299183E1,-5.523232937E0,-1.879562140E0,2.365305185E0
3.985326188E1,-4.299902439E0,-2.483151674E0,1.823929071E0
3.987353193E1,-4.982454777E0,-6.143572330E0,4.522434771E-1
3.989380198E1,-5.063810825E0,-1.217468166E1,-1.133001566E0
3.991407209E1,-1.419542074E0,-1.473201084E1,-1.977667928E0
3.993434209E1,1.065404296E0,-1.269452190E1,-3.040679455E0
3.995461209E1,1.374676585E0,-9.847661972E0,-2.282154560E0
3.997488214E1,5.557330847E-1,-8.001599312E0,-8.237292171E-1
3.999515219E1,-9.672985673E-1,-7.963313580E0,3.134597540E-1
4.001542224E1,-2.181057930E0,-8.720044136E0,5.168496966E-1
4.003569224E1,-1.740180254E0,-9.476774216E0,2.943171859E-1
4.005596230E1,-9.122636318E-1,-9.960124016E0,4.522434771E-1
4.007623235E1,-1.338186026E0,-9.512666702E0,-3.619144261E-1
4.009650240E1,-1.744965911E0,-9.337391853E0,-2.176870346E0
4.011677240E1,-1.589432478E0,-9.780662537E0,-3.694518089E0
4.013704245E1,-6.915257573E-1,-1.005583763E1,-4.503890514E0
4.015731250E1,2.321037948E-1,-1.045603657E1,-3.400201082E0
4.017758250E1,5.341976285E-1,-1.089153004E1,-9.266205430E-1
4.019785256E1,3.403790295E-1,-1.205264759E1,4.211367965E-1
4.021825256E1,-1.070189953E0,-1.226321602E1,2.823530734E-1
4.023839261E1,-2.638087034E0,-1.146640587E1,-2.708076954E0
4.025866266E1,-2.966501951E0,-1.095613670E1,-4.424927235E0
4.027893271E1,-2.726621389E0,-1.052064323E1,-3.213560820E0
4.029920271E1,-2.992822886E0,-1.114995575E1,-1.420140266E0
4.031960271E1,-3.205784082E0,-1.152861977E1,-1.417747438E-1
4.033974282E1,-2.501696110E0,-1.182293701E1,-2.452643216E-2
4.036001282E1,-1.610967875E0,-1.187318611E1,-8.644071817E-1
4.038028287E1,-2.847459018E-1,-1.141316605E1,-1.561316729E0
4.040055292E1,-2.392822690E-2,-9.902696609E0,-2.210369825E0
4.042095292E1,-2.823530734E-1,-7.578069210E0,-1.987239242E0
4.044109297E1,-1.031904817E0,-5.461617470E0,-1.377069473E0
4.046136297E1,-2.204986095E0,-4.139583111E0,-8.069794178E-1
4.048163302E1,-2.877967358E0,-2.564507723E0,-4.624129832E-1
4.050190302E1,-2.547159672E0,-1.769492388E0,-1.412961721E0
4.052230302E1,-1.319043517E0,-3.000001431E0,-2.992822886E0
4.054244313E1,-5.934200287E-1,-4.235894203E0,-3.393022537E0
4.056271313E1,-6.125625968E-1,-5.645864964E0,-2.913859844E0
4.058298318E1,-1.235294700E0,-7.891529083E0,-2.650649309E0
4.060325318E1,-1.680359721E0,-1.026401234E1,-2.545365095E0
4.062352323E1,-2.161915302E0,-1.034297562E1,-2.633899450E0
4.064379328E1,-1.369292736E0,-8.385048866E0,-2.559721947E0
4.066406328E1,-5.838487148E-1,-6.735197544E0,-2.554936409E0
4.068433334E1,-7.704889178E-1,-6.385845661E0,-1.479960799E0
4.070460334E1,-1.144367456E0,-6.694519520E0,-2.494517565E-1
4.072487334E1,-2.274377823E0,-7.146762848E0,-1.872383714E0
4.074514339E1,-6.023931026E0,-1.069053364E1,-5.137988567E0
4.076541339E1,-7.704290867E0,-1.582134342E1,-4.853242397E0
4.078568344E1,-4.015156269E0,-1.691785431E1,-1.374676585E0
4.080595344E1,1.671386600E0,-1.844268036E1,-7.312466145E0
4.082622349E1,2.430509567E0,-1.732942009E1,-1.345962733E-1
4.084649349E1,1.244866014E0,-1.256291676E1,1.074975610E0
4.086676349E1,2.978466034E0,-9.172286987E0,-1.010967568E-1
4.088703354E1,2.111665964E0,-1.054935646E1,1.584646821E0
4.090730355E1,-1.242473125E0,-1.379581928E1,-8.500502706E-1
4.092757354E1,-2.535195589E0,-1.262273788E1,-1.580459356E0
4.094784355E1,-2.114058733E0,-9.972088814E0,-2.152942181E0
4.096811360E1,-1.792822361E0,-9.390632629E0,-1.130608678E0
4.098838360E1,-2.310270309E0,-8.528617859E0,-8.476574421E-1
4.100865360E1,-2.988037348E0,-6.122036934E0,-2.985644341E0
4.102892365E1,-3.811168194E0,-4.582853794E0,-4.053441525E0
4.104919365E1,-2.870789051E0,-5.181059361E0,-3.919443607E0
4.106946365E1,-4.067798555E-1,-5.375475883E0,-3.294916868E0
4.108973370E1,6.825526357E-1,-6.328417778E0,-1.908276081E0
4.111000370E1,1.989632010E0,-7.910671711E0,-9.577272534E-1
4.113027370E1,2.894717216E0,-8.157132149E0,-6.490531564E-1
4.115054370E1,2.183450699E0,-7.144370079E0,-2.370688915E0
4.117081375E1,1.189831018E0,-6.917052269E0,-2.954537868E0
4.119108375E1,9.912267923E-1,-8.166703224E0,-2.184048891E0
4.121135375E1,6.777670383E-1,-9.543772697E0,-2.105085611E0
4.123162375E1,9.768698215E-1,-8.698508263E0,-2.212762833E0
