"Time (s)","Acceleration x (m/s^2)","Acceleration y (m/s^2)","Acceleration z (m/s^2)"
4.160943000E-2,-2.433943272E0,3.450028181E0,8.851192474E0
6.188364900E-2,-2.371417522E0,3.357879639E0,8.903449059E0
8.215739900E-2,-2.319525719E0,3.308689117E0,8.935477257E0
1.024284410E-1,-2.282334566E0,3.278323174E0,8.956222534E0
1.228384410E-1,-2.252860546E0,3.244824409E0,8.975863457E0
1.431231280E-1,-2.213195801E0,3.209140778E0,8.998531342E0
1.632402640E-1,-2.157830238E0,3.184777260E0,9.020606041E0
1.835138570E-1,-2.098685265E0,3.173431396E0,9.038541794E0
2.037870860E-1,-2.048221588E0,3.153750658E0,9.056988716E0
2.240582320E-1,-2.015472651E0,3.112239122E0,9.078668594E0
2.444598470E-1,-1.977228880E0,3.062301874E0,9.104024887E0
2.646035970E-1,-1.931685209E0,3.025237799E0,9.126166344E0
2.848758360E-1,-1.878507257E0,2.999230623E0,9.145831108E0
3.051478680E-1,-1.835989833E0,2.958818436E0,9.167602539E0
3.254197430E-1,-1.805124164E0,2.898025751E0,9.193114281E0
3.456915140E-1,-1.772719026E0,2.835108519E0,9.219002724E0
3.659631800E-1,-1.724862456E0,2.786415339E0,9.242895126E0
3.862348470E-1,-1.637400150E0,2.743102789E0,9.271714211E0
4.065063050E-1,-1.498948097E0,2.671000242E0,9.316077232E0
4.267777640E-1,-1.345018744E0,2.528912544E0,9.379014969E0
4.470491700E-1,-1.164018393E0,2.291870356E0,9.463761330E0
4.673205760E-1,-8.996365070E-1,1.964040875E0,9.565751076E0
4.875919300E-1,-5.451242924E-1,1.591129184E0,9.661341667E0
5.078632840E-1,-8.878409117E-2,1.258997917E0,9.725092888E0
5.281346390E-1,7.169027328E-1,1.566016912E0,9.654223442E0
5.484059930E-1,6.406828761E-1,2.433140278E0,9.478383064E0
5.686772950E-1,1.133571506E0,2.992968798E0,9.269710541E0
5.889484930E-1,1.303337812E0,3.327420950E0,9.132358551E0
6.092197950E-1,1.517117023E0,3.441826582E0,9.056631088E0
6.294910450E-1,1.695476651E0,3.448105097E0,9.022543907E0
6.497623990E-1,1.849033117E0,3.370915890E0,9.021551132E0
6.700336490E-1,1.974540949E0,3.259856701E0,9.035757065E0
6.903048990E-1,2.172405243E0,3.116564274E0,9.040910721E0
7.105761490E-1,2.373252392E0,2.959629536E0,9.043154716E0
7.308473990E-1,2.581762314E0,2.843772411E0,9.023183823E0
7.511186490E-1,2.723943710E0,2.801389933E0,8.994594574E0
7.715187010E-1,2.802596092E0,2.811215401E0,8.967324257E0
7.916612010E-1,2.892464399E0,2.832210541E0,8.932111740E0
8.120612010E-1,3.019339561E0,2.846597910E0,8.885430336E0
8.322037010E-1,3.184407949E0,2.833942652E0,8.831686974E0
8.524749510E-1,3.446837902E0,2.746855736E0,8.760392189E0
8.727462010E-1,3.726313591E0,2.614310026E0,8.686217308E0
8.930174510E-1,3.886021852E0,2.483863831E0,8.654458046E0
9.132887010E-1,3.896809578E0,2.403079987E0,8.672396660E0
9.335599510E-1,3.748650789E0,2.390607357E0,8.740880966E0
9.538311490E-1,3.487542152E0,2.433560848E0,8.836584091E0
9.741023990E-1,3.138012886E0,2.518559694E0,8.943160057E0
9.943736490E-1,2.691650391E0,2.640633106E0,9.052760124E0
1.014644899E0,2.074193001E0,2.806094408E0,9.164820671E0
1.034916097E0,1.244028687E0,3.015883923E0,9.248092651E0
1.055187347E0,2.774020135E-1,3.267405987E0,9.242158890E0
1.075458597E0,-5.682902336E-1,3.601564884E0,9.103634834E0
1.095729847E0,3.928879201E-1,3.572026491E0,9.124508858E0
1.116001045E0,5.788291097E-1,3.263864517E0,9.229438782E0
1.136272295E0,6.051274538E-1,2.856337547E0,9.361919403E0
1.156543493E0,9.757157564E-1,2.493843079E0,9.433934212E0
1.176814743E0,1.205129027E0,2.120822430E0,9.498429298E0
1.197085993E0,1.516383767E0,1.657100320E0,9.545940399E0
1.217357191E0,1.864503741E0,1.021817088E0,9.573395729E0
1.237628441E0,2.176934481E0,2.486628294E-1,9.558740616E0
1.257899639E0,2.336300611E0,-5.415521860E-1,9.508880615E0
1.278170889E0,2.472234249E0,-1.181415558E0,9.416088104E0
1.298442139E0,2.671111584E0,-1.573753715E0,9.303702354E0
1.318842139E0,2.808326960E0,-1.796453118E0,9.222605705E0
1.338984586E0,3.004405975E0,-1.958569765E0,9.127318382E0
1.359255784E0,3.249712467E0,-2.022089243E0,9.028892517E0
1.379527034E0,3.558517456E0,-2.004843712E0,8.915600777E0
1.399798232E0,3.887119293E0,-1.929063797E0,8.794282913E0
1.420198232E0,4.351493835E0,-1.815645099E0,8.598740578E0
1.440340680E0,5.002646923E0,-1.662861824E0,8.269147873E0
1.460611878E0,5.767927170E0,-1.471277714E0,7.793377399E0
1.480883076E0,6.396027565E0,-1.265600920E0,7.325263023E0
1.501154326E0,6.833651543E0,-1.105810642E0,6.946132660E0
1.521554326E0,7.231514931E0,-1.001043558E0,6.547785282E0
1.541696722E0,7.631508350E0,-9.307509065E-1,6.088035107E0
1.561967920E0,7.974693775E0,-8.809624910E-1,5.639022350E0
1.582239170E0,8.223880768E0,-8.811472654E-1,5.268942833E0
1.602510368E0,8.457160950E0,-9.313541651E-1,4.876412392E0
1.622781566E0,8.737174034E0,-9.761070609E-1,4.345042229E0
1.643052764E0,9.009101868E0,-1.001569390E0,3.742103100E0
1.663323961E0,9.234852791E0,-1.060903430E0,3.124477148E0
1.683595159E0,9.372777939E0,-1.213823795E0,2.616877556E0
1.703866357E0,9.438637733E0,-1.446936846E0,2.233578444E0
1.724137607E0,9.475538254E0,-1.682378650E0,1.885250449E0
1.744408805E0,9.487945557E0,-1.894800663E0,1.599690318E0
1.764679951E0,9.468458176E0,-2.104234695E0,1.445986152E0
1.784951201E0,9.423308372E0,-2.303320885E0,1.437482953E0
1.805222399E0,9.381128311E0,-2.433549881E0,1.497552276E0
1.825493597E0,9.365772247E0,-2.469317198E0,1.534663916E0
1.845764795E0,9.363887787E0,-2.463866949E0,1.554783344E0
1.866035993E0,9.371078491E0,-2.446935654E0,1.538113832E0
1.886307191E0,9.399708748E0,-2.412177086E0,1.413244724E0
1.906578389E0,9.452667236E0,-2.355672121E0,1.126174569E0
1.926849586E0,9.506153107E0,-2.289016724E0,7.508858442E-1
1.947120784E0,9.543991089E0,-2.217072010E0,4.089265764E-1
1.967391982E0,9.564293861E0,-2.163429499E0,1.194025427E-1
1.987663180E0,9.574016571E0,-2.110873222E0,-2.298269570E-1
2.007934378E0,9.564840317E0,-2.048900127E0,-6.972939968E-1
2.028205576E0,9.527572632E0,-1.978558064E0,-1.216989160E0
2.048605576E0,9.492411613E0,-1.912676454E0,-1.551183939E0
2.068747972E0,9.479217529E0,-1.864266753E0,-1.685031295E0
2.089019170E0,9.480258942E0,-1.831771135E0,-1.714550495E0
2.109290368E0,9.479909897E0,-1.789417386E0,-1.760586381E0
2.129561566E0,9.479964256E0,-1.728532434E0,-1.820120931E0
2.149832764E0,9.472220421E0,-1.693508625E0,-1.891942263E0
2.170103961E0,9.458267212E0,-1.670591593E0,-1.980070233E0
2.190375159E0,9.445145607E0,-1.654863119E0,-2.054515600E0
2.210646357E0,9.441051483E0,-1.641883254E0,-2.083544970E0
2.230917607E0,9.444022179E0,-1.642062426E0,-2.069894791E0
2.251188805E0,9.445474625E0,-1.650565863E0,-2.056463957E0
2.271460003E0,9.451528549E0,-1.640652776E0,-2.036481380E0
2.291731201E0,9.471557617E0,-1.581826329E0,-1.989426255E0
2.312002399E0,9.496130943E0,-1.525560856E0,-1.914823413E0
2.332273649E0,9.506198883E0,-1.548197031E0,-1.845441699E0
2.352544847E0,9.512433052E0,-1.576038480E0,-1.788879752E0
2.372816045E0,9.533503532E0,-1.552218556E0,-1.695088029E0
2.393087243E0,9.561761856E0,-1.468109727E0,-1.608653188E0
2.413358493E0,9.594638824E0,-1.374943733E0,-1.490915656E0
2.433629691E0,9.625477791E0,-1.300088406E0,-1.352895260E0
2.453900941E0,9.661592484E0,-1.179574370E0,-1.196914315E0
2.474172139E0,9.697556496E0,-1.029094934E0,-1.033806205E0
2.494443336E0,9.727331161E0,-8.980462551E-1,-8.619375825E-1
2.514714586E0,9.745480537E0,-8.296586871E-1,-7.125039101E-1
2.534985784E0,9.754838943E0,-7.795233727E-1,-6.370626688E-1
2.555257034E0,9.760130882E0,-6.963426471E-1,-6.521791816E-1
2.575528232E0,9.763924599E0,-5.962322950E-1,-6.932978034E-1
2.595799430E0,9.767404556E0,-4.951967895E-1,-7.231733203E-1
2.616199430E0,9.773415565E0,-4.077937007E-1,-6.960179806E-1
2.636341930E0,9.782047272E0,-3.371555507E-1,-6.068475842E-1
2.656613180E0,9.789067268E0,-2.737975121E-1,-5.192284584E-1
2.676884378E0,9.790985107E0,-2.245713621E-1,-5.065248013E-1
2.697155628E0,9.787834167E0,-1.993302256E-1,-5.735598207E-1
2.717426878E0,9.780119896E0,-1.978027523E-1,-6.931924820E-1
2.737698128E0,9.770322800E0,-1.843910068E-1,-8.229188919E-1
2.757969378E0,9.764906883E0,-1.392086595E-1,-8.930780888E-1
2.778240628E0,9.766435623E0,-1.117772684E-1,-8.801302314E-1
2.798511826E0,9.768098831E0,-1.266342402E-1,-8.594153523E-1
2.818911826E0,9.763948441E0,-1.176417395E-1,-9.065666795E-1
2.839054326E0,9.754006386E0,-1.080976203E-1,-1.008985877E0
2.859325576E0,9.738919258E0,-9.789821506E-2,-1.146408200E0
2.879596826E0,9.720385551E0,-8.242055029E-2,-1.295260191E0
2.899868076E0,9.706152916E0,-8.020928502E-2,-1.398052931E0
2.920268076E0,9.696228981E0,-8.328787982E-2,-1.465122461E0
2.940410576E0,9.685423851E0,-6.517834961E-2,-1.535808444E0
2.960681826E0,9.666908264E0,-1.790967770E-2,-1.649531722E0
2.980953128E0,9.655198097E0,1.675682329E-2,-1.716755629E0
3.001224326E0,9.656339645E0,5.111279339E-2,-1.709643006E0
3.021624326E0,9.661822319E0,1.159977764E-1,-1.675145864E0
3.041766878E0,9.669061661E0,1.780429482E-1,-1.627245069E0
3.062038128E0,9.671256065E0,1.966044456E-1,-1.611994982E0
3.082309378E0,9.668980598E0,1.821899563E-1,-1.627272725E0
3.102580628E0,9.661165237E0,1.929813921E-1,-1.671838164E0
3.122980628E0,9.658844948E0,1.907013208E-1,-1.685451031E0
3.143123180E0,9.646851540E0,1.575030088E-1,-1.756083250E0
3.163394430E0,9.627606392E0,1.219278350E-1,-1.861373663E0
3.183665680E0,9.614024162E0,1.315316260E-1,-1.929670334E0
3.203936930E0,9.608537674E0,1.007411778E-1,-1.958632588E0
3.224208180E0,9.609504700E0,1.426140405E-2,-1.956423402E0
3.244479482E0,9.599802017E0,-8.546200395E-2,-2.001725912E0
3.264750732E0,9.588639259E0,-2.126398385E-1,-2.045275927E0
3.285021982E0,9.580791473E0,-3.861479461E-1,-2.056624889E0
3.305293284E0,9.566821098E0,-5.385380387E-1,-2.087177992E0
3.325564534E0,9.546909332E0,-6.581440568E-1,-2.143302679E0
3.345835784E0,9.523195267E0,-8.057805896E-1,-2.197692156E0
3.366107086E0,9.488009453E0,-9.995912313E-1,-2.269112349E0
3.386378336E0,9.421979904E0,-1.293049932E0,-2.392638206E0
3.406649639E0,9.347576141E0,-1.600352407E0,-2.496416330E0
3.426920889E0,9.306374550E0,-1.806356430E0,-2.509750605E0
3.447192139E0,9.302520752E0,-1.977438569E0,-2.392332077E0
3.467463441E0,9.301531792E0,-2.115427017E0,-2.275270939E0
3.487734691E0,9.290047646E0,-2.259981394E0,-2.181258202E0
3.508005941E0,9.275064468E0,-2.462871790E0,-2.019365788E0
3.528277243E0,9.263270378E0,-2.636365891E0,-1.847101092E0
3.548548493E0,9.227046013E0,-2.833876610E0,-1.732382655E0
3.568819795E0,9.172201157E0,-3.072482586E0,-1.612752914E0
3.589091045E0,9.139348030E0,-3.275507212E0,-1.383388400E0
3.609362347E0,9.077965736E0,-3.506449938E0,-1.210676908E0
3.629633597E0,8.971184731E0,-3.780422449E0,-1.181794763E0
3.649904847E0,8.856082916E0,-3.994839191E0,-1.334703565E0
3.670176149E0,8.713062286E0,-4.167592049E0,-1.698267579E0
3.690447399E0,8.486195564E0,-4.420196056E0,-2.148655176E0
3.710718649E0,8.197880745E0,-4.892776966E0,-2.241849184E0
3.730989951E0,7.983899593E0,-5.062238693E0,-2.607963085E0
3.751261201E0,7.827251434E0,-5.181020260E0,-2.839288235E0
3.771532451E0,7.686360359E0,-5.366890430E0,-2.878667593E0
3.791803753E0,7.607550144E0,-5.518122673E0,-2.801048756E0
3.812075003E0,7.502375603E0,-5.658571720E0,-2.804516077E0
3.832346253E0,7.432742596E0,-5.772045135E0,-2.758301258E0
3.852617555E0,7.437353611E0,-5.820625782E0,-2.641300917E0
3.872888805E0,7.483443260E0,-5.836011410E0,-2.471727133E0
3.893160055E0,7.495039463E0,-5.883491039E0,-2.319334984E0
3.913431357E0,7.431093216E0,-5.971536160E0,-2.299997568E0
3.933702607E0,7.338011742E0,-6.066173077E0,-2.350642920E0
3.953973857E0,7.255599976E0,-6.152324677E0,-2.382343054E0
3.974245107E0,7.150071621E0,-6.280582428E0,-2.366675615E0
3.994516409E0,6.910469055E0,-6.555830002E0,-2.331710339E0
4.014787659E0,6.498975754E0,-6.955426693E0,-2.357059479E0
4.035058909E0,6.004611492E0,-7.361822128E0,-2.432818890E0
4.055330159E0,5.584493160E0,-7.691899300E0,-2.412158251E0
4.075601409E0,5.304987907E0,-7.903367996E0,-2.358869791E0
4.095872711E0,5.129721165E0,-8.034407616E0,-2.303182602E0
4.116143961E0,4.986980915E0,-8.131803513E0,-2.274682522E0
4.136415211E0,4.827373505E0,-8.222834587E0,-2.291689634E0
4.156686409E0,4.736642361E0,-8.287188530E0,-2.248803377E0
4.176957711E0,4.743496895E0,-8.292519569E0,-2.214438915E0
4.197228961E0,4.676537037E0,-8.309388161E0,-2.292262554E0
4.217500264E0,4.401773453E0,-8.452219963E0,-2.314033985E0
4.237771514E0,4.084673405E0,-8.620114326E0,-2.275840044E0
4.258042764E0,3.694520712E0,-8.793662071E0,-2.278684139E0
4.278313961E0,3.271007299E0,-8.969843864E0,-2.238931417E0
4.298721930E0,2.766510963E0,-9.155539513E0,-2.166307449E0
4.319005107E0,2.256324291E0,-9.300089836E0,-2.141896725E0
4.339120889E0,1.806911945E0,-9.388991356E0,-2.179975033E0
4.359393545E0,1.259303808E0,-9.473582268E0,-2.199042082E0
4.379665889E0,6.122400165E-1,-9.550390244E0,-2.141399145E0
4.399937034E0,1.215516403E-1,-9.577210426E0,-2.105386496E0
4.420337972E0,-3.747782111E-1,-9.573330879E0,-2.093143702E0
4.440481201E0,-8.144842386E-1,-9.542042732E0,-2.111023903E0
4.460753024E0,-1.175879598E0,-9.478033066E0,-2.225888968E0
4.481024691E0,-1.502086282E0,-9.394740105E0,-2.377599239E0
4.501295941E0,-1.675618768E0,-9.342009544E0,-2.467700720E0
4.521696357E0,-1.698833704E0,-9.333362579E0,-2.484488010E0
4.541839066E0,-1.645876884E0,-9.342650414E0,-2.485228300E0
4.562110576E0,-1.633794665E0,-9.343904495E0,-2.488484144E0
4.582381982E0,-1.695501447E0,-9.334967613E0,-2.480735540E0
4.602653336E0,-1.802711606E0,-9.313772202E0,-2.484803438E0
4.622924691E0,-1.891541243E0,-9.291974068E0,-2.500338316E0
4.643196045E0,-1.910253167E0,-9.283366203E0,-2.518021345E0
4.663467399E0,-1.873732686E0,-9.292264938E0,-2.512635946E0
4.683738649E0,-1.800247073E0,-9.317897797E0,-2.471089125E0
4.704009951E0,-1.700234652E0,-9.349638939E0,-2.421536922E0
4.724281253E0,-1.559560180E0,-9.391937256E0,-2.351523876E0
4.744552399E0,-1.406741023E0,-9.440324783E0,-2.252049923E0
4.764823701E0,-1.298664808E0,-9.481886864E0,-2.139551878E0
4.785094899E0,-1.268612266E0,-9.511708260E0,-2.021984339E0
4.805366149E0,-1.362546682E0,-9.521323204E0,-1.912659407E0
4.825637399E0,-1.425578356E0,-9.528035164E0,-1.831573844E0
4.845908649E0,-1.446078062E0,-9.536012650E0,-1.773047686E0
4.866179899E0,-1.428931236E0,-9.548279762E0,-1.720140338E0
4.886451097E0,-1.385118842E0,-9.566865921E0,-1.651337981E0
4.906722347E0,-1.333905458E0,-9.588787079E0,-1.564045787E0
4.926993545E0,-1.299381614E0,-9.609121323E0,-1.465188384E0
4.947264795E0,-1.298479676E0,-9.624674797E0,-1.360142589E0
4.967536045E0,-1.331191897E0,-9.632919312E0,-1.266956568E0
4.987807243E0,-1.381542802E0,-9.635830879E0,-1.188484550E0
5.008078389E0,-1.435306311E0,-9.636299133E0,-1.118935585E0
5.028349586E0,-1.485194206E0,-9.636870384E0,-1.046561241E0
5.048620889E0,-1.527238607E0,-9.639093399E0,-9.621909857E-1
5.068892086E0,-1.559037924E0,-9.643300056E0,-8.640251756E-1
5.089163284E0,-1.580381632E0,-9.648830414E0,-7.568640709E-1
5.109434534E0,-1.597661138E0,-9.653595924E0,-6.526510119E-1
5.129705732E0,-1.617368221E0,-9.656475067E0,-5.540668964E-1
5.149976930E0,-1.632486582E0,-9.658516884E0,-4.673689604E-1
5.170248076E0,-1.634804845E0,-9.661069870E0,-4.019031525E-1
5.190519326E0,-1.620284915E0,-9.665097237E0,-3.618587554E-1
5.210790524E0,-1.593687773E0,-9.670282364E0,-3.408503532E-1
5.231061774E0,-1.568876028E0,-9.674247742E0,-3.434150815E-1
5.251332972E0,-1.558000088E0,-9.674983978E0,-3.710645735E-1
5.271604170E0,-1.547668934E0,-9.672784805E0,-4.607916176E-1
5.291875368E0,-1.486002922E0,-9.673632622E0,-6.188899279E-1
5.312275368E0,-1.352314949E0,-9.675271034E0,-8.548513651E-1
5.332417764E0,-1.156951427E0,-9.656393051E0,-1.259343743E0
5.352688961E0,-8.740707040E-1,-9.599536896E0,-1.804236412E0
5.372960159E0,-5.709402561E-1,-9.513139725E0,-2.311836004E0
5.393231357E0,-3.871492147E-1,-9.419108391E0,-2.702018976E0
5.413502555E0,-2.531079650E-1,-9.340799332E0,-2.975870848E0
5.433773753E0,-9.153300524E-2,-9.267206192E0,-3.206384182E0
5.454044951E0,7.829323411E-2,-9.181943893E0,-3.443277597E0
5.474316149E0,2.386641204E-1,-9.102168083E0,-3.641974926E0
5.494587347E0,3.756727278E-1,-9.047022820E0,-3.765720606E0
5.514858545E0,4.603558183E-1,-9.013280869E0,-3.836563349E0
5.535129743E0,4.482148290E-1,-8.998270035E0,-3.873064756E0
5.555400941E0,3.290236890E-1,-9.005990028E0,-3.867075682E0
5.575672139E0,1.587789506E-1,-9.041745186E0,-3.793683052E0
5.595943336E0,-5.957466085E-3,-9.094565392E0,-3.668682814E0
5.616214534E0,-1.568425745E-1,-9.153375626E0,-3.515894175E0
5.636485732E0,-3.293398917E-1,-9.206680298E0,-3.361395836E0
5.656756930E0,-5.431113839E-1,-9.252355576E0,-3.204577684E0
5.677028128E0,-7.293423414E-1,-9.296147346E0,-3.036461353E0
5.697299274E0,-7.650880814E-1,-9.337815285E0,-2.896589041E0
5.717570420E0,-7.263505459E-1,-9.378067970E0,-2.773920298E0
5.737841618E0,-7.026171684E-1,-9.432645798E0,-2.588803768E0
5.758112868E0,-7.243064046E-1,-9.498286247E0,-2.329879284E0
5.778384014E0,-8.472887278E-1,-9.550858498E0,-2.057569265E0
5.798655159E0,-1.077984810E0,-9.563545227E0,-1.883335471E0
5.819055159E0,-1.377997637E0,-9.527992249E0,-1.867851496E0
5.839197555E0,-1.599004626E0,-9.474758148E0,-1.960241199E0
5.859468701E0,-1.552706718E0,-9.448882103E0,-2.116154432E0
5.879739899E0,-1.206223845E0,-9.446299553E0,-2.341543913E0
5.900011045E0,-7.523898482E-1,-9.477655411E0,-2.403819323E0
5.920411045E0,-4.304535687E-1,-9.468640327E0,-2.515940189E0
5.940553441E0,-3.530385494E-1,-9.451135635E0,-2.592638254E0
5.960824586E0,-5.199884176E-1,-9.458365440E0,-2.537581682E0
5.981095784E0,-8.173229694E-1,-9.469380379E0,-2.415202856E0
6.001366930E0,-9.809404612E-1,-9.480306625E0,-2.309096813E0
6.021766930E0,-8.854761720E-1,-9.515897751E0,-2.198639154E0
6.041909274E0,-6.997113228E-1,-9.561870575E0,-2.061895370E0
6.062180472E0,-5.418785214E-1,-9.596398354E0,-1.945738077E0
6.082451618E0,-4.145684838E-1,-9.606863976E0,-1.925271869E0
6.102722816E0,-3.194326758E-1,-9.587460518E0,-2.036899328E0
6.123122816E0,-2.955623269E-1,-9.536357880E0,-2.267360449E0
6.143265159E0,-2.787429392E-1,-9.454576492E0,-2.589147329E0
6.163536305E0,-2.229411900E-1,-9.331754684E0,-3.006501675E0
6.183807503E0,-1.050322205E-1,-9.157147408E0,-3.507992744E0
6.204078649E0,1.457187980E-1,-8.975506783E0,-3.948346615E0
6.224349847E0,5.400777459E-1,-8.829075813E0,-4.233925819E0
6.244620993E0,8.165515661E-1,-8.696343422E0,-4.458390236E0
6.264892139E0,9.297278523E-1,-8.616042137E0,-4.590188026E0
6.285163336E0,1.036143661E0,-8.621135712E0,-4.557718754E0
6.305434482E0,1.062248230E0,-8.672145844E0,-4.453750610E0
6.325705680E0,9.565821886E-1,-8.755260468E0,-4.312860966E0
6.345976826E0,7.741172314E-1,-8.867626190E0,-4.115377426E0
6.366247972E0,4.766657352E-1,-8.988185883E0,-3.893032074E0
6.386519118E0,3.829598427E-2,-9.099411964E0,-3.656449556E0
6.406790316E0,-5.013317466E-1,-9.175078392E0,-3.425926924E0
6.427061461E0,-1.020798802E0,-9.227210045E0,-3.160212040E0
6.447332659E0,-1.296671748E0,-9.286106110E0,-2.873543739E0
6.467603805E0,-1.340854526E0,-9.352231026E0,-2.628358603E0
6.487874951E0,-1.347825289E0,-9.416918755E0,-2.382312298E0
6.508146149E0,-1.294193745E0,-9.467604637E0,-2.204521656E0
6.528409378E0,-1.144335866E0,-9.511295319E0,-2.096699476E0
6.548611514E0,-1.059528351E0,-9.522789955E0,-2.089083195E0
6.568960836E0,-1.292002201E0,-9.473867416E0,-2.178750992E0
6.589231722E0,-1.580601335E0,-9.405472755E0,-2.282363415E0
6.609502711E0,-1.448074579E0,-9.407896042E0,-2.359015703E0
6.629773753E0,-1.035763502E0,-9.456416130E0,-2.381968975E0
6.650044743E0,-7.026752234E-1,-9.441480637E0,-2.556380749E0
6.670315836E0,-6.571722031E-1,-9.416893005E0,-2.657184601E0
6.690586982E0,-7.977740169E-1,-9.414366722E0,-2.627480268E0
6.710858024E0,-1.057695270E0,-9.418263435E0,-2.519520044E0
6.731129118E0,-1.291769862E0,-9.422089577E0,-2.392894983E0
6.751400264E0,-1.348986864E0,-9.441539764E0,-2.282094717E0
6.771671409E0,-1.320201397E0,-9.494270325E0,-2.070329428E0
6.791942555E0,-1.268056750E0,-9.530150414E0,-1.933558822E0
6.812342503E0,-1.209612846E0,-9.517463684E0,-2.031035185E0
6.832484795E0,-1.178848743E0,-9.469243050E0,-2.261446953E0
6.852755941E0,-1.149105668E0,-9.417383194E0,-2.482507706E0
6.873027086E0,-1.082108617E0,-9.374814034E0,-2.666889906E0
6.893298232E0,-9.488450289E-1,-9.315847397E0,-2.912914276E0
6.913569378E0,-7.482505441E-1,-9.221083641E0,-3.253017664E0
6.933840472E0,-4.403512180E-1,-9.073472977E0,-3.694396973E0
6.954111670E0,-1.597898453E-1,-8.942389488E0,-4.022255898E0
6.974382816E0,1.300931573E-1,-8.852790833E0,-4.216817856E0
6.994653961E0,3.657818735E-1,-8.758283615E0,-4.396483898E0
7.014925055E0,4.975832105E-1,-8.662516594E0,-4.569859505E0
7.035196253E0,5.045784712E-1,-8.620100975E0,-4.648616791E0
7.055467399E0,4.812148809E-1,-8.632896423E0,-4.627302170E0
7.075738545E0,4.166560769E-1,-8.684708595E0,-4.535705090E0
7.096009691E0,2.505677342E-1,-8.779644966E0,-4.361816883E0
7.116409691E0,-2.309571579E-2,-8.906299591E0,-4.104591846E0
7.136551930E0,-3.576615155E-1,-9.027379036E0,-3.814300299E0
7.156823128E0,-7.219005823E-1,-9.117237091E0,-3.539099693E0
7.177094274E0,-1.074394464E0,-9.181175232E0,-3.274460316E0
7.197369378E0,-1.335544109E0,-9.234480858E0,-3.018453121E0
7.217675107E0,-1.491249681E0,-9.280119896E0,-2.797486544E0
7.237907139E0,-1.561048627E0,-9.314976692E0,-2.639077425E0
7.258178389E0,-1.486727834E0,-9.347032547E0,-2.567686558E0
7.278449639E0,-1.331617475E0,-9.408818245E0,-2.423083544E0
7.298720784E0,-1.172339201E0,-9.464924812E0,-2.282806396E0
7.319120889E0,-1.186847568E0,-9.468073845E0,-2.262161255E0
7.339263232E0,-1.372621894E0,-9.420163155E0,-2.355170012E0
7.359534430E0,-1.327609658E0,-9.395010948E0,-2.478229761E0
7.379805576E0,-9.513227344E-1,-9.433495522E0,-2.504903793E0
7.400076722E0,-6.389170289E-1,-9.442037582E0,-2.571010590E0
7.420476722E0,-6.235718131E-1,-9.424441338E0,-2.638456106E0
7.440619014E0,-7.822462916E-1,-9.423260689E0,-2.600121498E0
7.460890159E0,-1.049893022E0,-9.431997299E0,-2.470936298E0
7.481161357E0,-1.278511167E0,-9.440007210E0,-2.328533173E0
7.501432451E0,-1.396562576E0,-9.458804131E0,-2.179681540E0
7.521832451E0,-1.412232876E0,-9.496989250E0,-1.995787263E0
7.541974743E0,-1.396594524E0,-9.529743195E0,-1.844968915E0
7.562245836E0,-1.401474357E0,-9.536830902E0,-1.804193616E0
7.582516982E0,-1.405058503E0,-9.534660339E0,-1.812855124E0
7.602788128E0,-1.364090323E0,-9.536328316E0,-1.835236788E0
7.623059274E0,-1.351863384E0,-9.527089119E0,-1.891409278E0
7.643330420E0,-1.403674245E0,-9.501701355E0,-1.979331613E0
7.663601514E0,-1.450194240E0,-9.463944435E0,-2.121573687E0
7.683872659E0,-1.403169990E0,-9.415547371E0,-2.355622768E0
7.704143753E0,-1.258053660E0,-9.351582527E0,-2.671253681E0
7.724414899E0,-1.026515484E0,-9.263380051E0,-3.050648451E0
7.744686045E0,-7.093531489E-1,-9.147227287E0,-3.463443995E0
7.764957086E0,-2.912060618E-1,-9.025039673E0,-3.825472355E0
7.785228284E0,1.221883968E-1,-8.925443649E0,-4.061023712E0
7.805499378E0,3.822614253E-1,-8.843478203E0,-4.221038342E0
7.825770472E0,5.457446575E-1,-8.764577866E0,-4.365171432E0
7.846041618E0,6.033596396E-1,-8.736704826E0,-4.413199902E0
7.866312711E0,5.830975771E-1,-8.767127037E0,-4.355211735E0
7.886583857E0,5.163368583E-1,-8.829684258E0,-4.235617638E0
7.906854951E0,3.661159873E-1,-8.914663315E0,-4.070028782E0
7.927126045E0,1.096065268E-1,-9.018486977E0,-3.850358486E0
7.947397191E0,-2.286124676E-1,-9.127507210E0,-3.578649521E0
7.967668284E0,-6.174477339E-1,-9.225808144E0,-3.267048359E0
7.987939378E0,-9.825911522E-1,-9.307569504E0,-2.928148031E0
8.008210472E0,-1.162764907E0,-9.376235962E0,-2.627655745E0
8.028481618E0,-1.198621392E0,-9.427853584E0,-2.418526888E0
8.048752711E0,-1.184045553E0,-9.473031044E0,-2.242791414E0
8.069023805E0,-1.142030239E0,-9.512865067E0,-2.090829849E0
8.089294899E0,-1.201736808E0,-9.504075050E0,-2.097325563E0
8.109565993E0,-1.476751685E0,-9.417862892E0,-2.300745964E0
8.129837139E0,-1.554445624E0,-9.365102768E0,-2.459457397E0
8.150108232E0,-1.213085651E0,-9.407427788E0,-2.489798784E0
8.170379326E0,-8.935462832E-1,-9.419767380E0,-2.576806068E0
8.190650420E0,-8.394190669E-1,-9.405200958E0,-2.647253990E0
8.210921514E0,-9.616340995E-1,-9.412766457E0,-2.577882051E0
8.231192607E0,-1.159577489E0,-9.437865257E0,-2.398433208E0
8.251463701E0,-1.374363422E0,-9.448574066E0,-2.237400293E0
8.271734795E0,-1.459480166E0,-9.466664314E0,-2.102991819E0
8.292005889E0,-1.408194065E0,-9.508795738E0,-1.941692352E0
8.312276982E0,-1.301844358E0,-9.551236153E0,-1.802633047E0
8.332548076E0,-1.163713813E0,-9.566927910E0,-1.813850045E0
8.352819118E0,-1.084051013E0,-9.552919388E0,-1.933120728E0
8.373090159E0,-1.118851304E0,-9.517848015E0,-2.080653429E0
8.393361253E0,-1.209116697E0,-9.458025932E0,-2.292195082E0
8.413632347E0,-1.216571808E0,-9.385743141E0,-2.568688869E0
8.433903441E0,-1.135740876E0,-9.300774574E0,-2.894144773E0
8.454174534E0,-9.699403048E-1,-9.177824974E0,-3.316191196E0
8.474445576E0,-7.152299285E-1,-9.025942802E0,-3.767121077E0
8.494716670E0,-3.987879753E-1,-8.910021782E0,-4.077115059E0
8.514987764E0,-6.170590594E-2,-8.828907013E0,-4.268136024E0
8.535258857E0,1.600850970E-1,-8.740224838E0,-4.444459915E0
8.555529951E0,2.318794429E-1,-8.662941933E0,-4.590213299E0
8.575800993E0,1.867859960E-1,-8.645690918E0,-4.624664783E0
8.596072086E0,1.130746603E-1,-8.684709549E0,-4.553397655E0
8.616343180E0,7.584531792E-3,-8.760023117E0,-4.408210754E0
8.636614274E0,-1.920360178E-1,-8.865730286E0,-4.187166214E0
8.656885316E0,-5.079256296E-1,-8.989409447E0,-3.886247635E0
8.677156409E0,-9.041737318E-1,-9.106673241E0,-3.524394989E0
8.697435472E0,-1.261390805E0,-9.196599960E0,-3.162565231E0
8.717775732E0,-1.450596213E0,-9.276276588E0,-2.831402063E0
8.737968597E0,-1.508492351E0,-9.340378761E0,-2.579178333E0
8.758239847E0,-1.540906549E0,-9.375364304E0,-2.428692341E0
8.778511097E0,-1.561450124E0,-9.411438942E0,-2.270919561E0
8.798782086E0,-1.526487112E0,-9.448093414E0,-2.138632059E0
8.819182243E0,-1.438093424E0,-9.489750862E0,-2.011694193E0
8.839324586E0,-1.348235011E0,-9.519511223E0,-1.931721091E0
8.859595732E0,-1.401229262E0,-9.504690170E0,-1.966676950E0
8.879866878E0,-1.556455374E0,-9.457918167E0,-2.072588205E0
8.900137920E0,-1.516254306E0,-9.444085121E0,-2.163473845E0
8.920537972E0,-1.241066813E0,-9.479511261E0,-2.183803558E0
8.940680159E0,-9.259697199E-1,-9.463176727E0,-2.400261641E0
8.960951305E0,-9.646878242E-1,-9.428008080E0,-2.520403862E0
8.981222399E0,-1.146737814E0,-9.408656120E0,-2.516460180E0
9.001493441E0,-1.365778685E0,-9.416364670E0,-2.374258518E0
9.021893441E0,-1.593838334E0,-9.434136391E0,-2.151080132E0
9.042035628E0,-1.684582114E0,-9.456687927E0,-1.975760579E0
9.062306670E0,-1.707614541E0,-9.494083405E0,-1.765447259E0
9.082577711E0,-1.722403765E0,-9.525039673E0,-1.573957801E0
9.102848805E0,-1.731927633E0,-9.532094002E0,-1.519868970E0
9.123248805E0,-1.701490521E0,-9.532011032E0,-1.554375529E0
9.143390941E0,-1.585476875E0,-9.544275284E0,-1.601077795E0
9.163662034E0,-1.455007911E0,-9.554396629E0,-1.663380384E0
9.183933076E0,-1.398872375E0,-9.529330254E0,-1.845377445E0
9.204204118E0,-1.348272204E0,-9.469787598E0,-2.162325382E0
9.224475211E0,-1.230510831E0,-9.387271881E0,-2.556437969E0
9.244746253E0,-1.021380186E0,-9.270869255E0,-3.029547215E0
9.265017347E0,-7.038980126E-1,-9.148254395E0,-3.461841106E0
9.285288389E0,-3.800590932E-1,-9.068086624E0,-3.714261293E0
9.305559482E0,-1.415902376E-1,-8.989262581E0,-3.917078733E0
9.325830524E0,3.387835622E-2,-8.879029274E0,-4.163179874E0
9.346101566E0,1.212426871E-1,-8.789082527E0,-4.348302364E0
9.366372659E0,1.552792639E-1,-8.757761955E0,-4.409974575E0
9.386643701E0,1.637246460E-1,-8.778497696E0,-4.368244171E0
9.406914795E0,1.130499616E-1,-8.839672089E0,-4.244736671E0
9.427185836E0,-3.623197973E-2,-8.934768677E0,-4.042151928E0
9.447456878E0,-3.078858256E-1,-9.047175407E0,-3.771501780E0
9.467727972E0,-6.838434339E-1,-9.142314911E0,-3.481497049E0
9.487999014E0,-1.069127917E0,-9.205913544E0,-3.206010342E0
9.508270107E0,-1.349015117E0,-9.255669594E0,-2.946715117E0
9.528541149E0,-1.538430810E0,-9.289819717E0,-2.739135981E0
9.548812191E0,-1.640784383E0,-9.307872772E0,-2.615667582E0
9.569083284E0,-1.674563050E0,-9.344179153E0,-2.460190296E0
9.589354326E0,-1.651674509E0,-9.402772903E0,-2.242815495E0
9.609625420E0,-1.595624804E0,-9.447648048E0,-2.089573383E0
9.629896461E0,-1.729849458E0,-9.418758392E0,-2.113056898E0
9.650167555E0,-1.956796288E0,-9.362870216E0,-2.162864923E0
9.670438545E0,-2.057539701E0,-9.322275162E0,-2.243234873E0
9.690709691E0,-1.879925847E0,-9.303351402E0,-2.466562033E0
9.710980732E0,-1.736344457E0,-9.308698654E0,-2.550221920E0
9.731251826E0,-1.748511314E0,-9.305409431E0,-2.553907156E0
9.751522868E0,-1.909412742E0,-9.325063705E0,-2.359600067E0
9.771793961E0,-2.088666677E0,-9.368863106E0,-2.008044243E0
9.792065003E0,-2.220778942E0,-9.401633263E0,-1.687549829E0
9.812465003E0,-2.328768015E0,-9.419602394E0,-1.420674205E0
9.832607139E0,-2.421405554E0,-9.436474800E0,-1.122557044E0
9.852878180E0,-2.540278912E0,-9.434577942E0,-8.403075337E-1
9.873149274E0,-2.704929352E0,-9.402102470E0,-6.739621162E-1
9.893420316E0,-2.924923182E0,-9.340433121E0,-6.095307469E-1
9.913691357E0,-3.148234844E0,-9.266831398E0,-6.203572750E-1
9.933962451E0,-3.331011772E0,-9.198842049E0,-6.753141284E-1
9.954233493E0,-3.441964865E0,-9.151610374E0,-7.558416724E-1
9.974504586E0,-3.532548666E0,-9.106356621E0,-8.750661612E-1
9.994775628E0,-3.661384106E0,-9.038138390E0,-1.037647128E0
1.001504667E1,-3.831964970E0,-8.944602966E0,-1.216760635E0
1.003531776E1,-3.945709467E0,-8.847913742E0,-1.521899819E0
1.005558881E1,-3.871992588E0,-8.795015335E0,-1.955956340E0
1.007585990E1,-3.608110666E0,-8.808886528E0,-2.356996059E0
1.009613094E1,-3.147049665E0,-8.875699043E0,-2.736497641E0
1.011640203E1,-2.620091915E0,-8.969543457E0,-2.975361586E0
1.013667308E1,-2.239262581E0,-9.024392128E0,-3.117119074E0
1.015694412E1,-1.939614177E0,-9.047009468E0,-3.249602318E0
1.017721521E1,-1.609999180E0,-9.073786736E0,-3.353308678E0
1.019748625E1,-1.260601282E0,-9.115166664E0,-3.390428305E0
1.021788625E1,-1.000476599E0,-9.159150124E0,-3.358484268E0
1.023802839E1,-8.592154980E-1,-9.190896988E0,-3.310522556E0
1.025829943E1,-7.614743710E-1,-9.208404541E0,-3.285701036E0
1.027857052E1,-6.959216595E-1,-9.216551781E0,-3.277383804E0
1.029884157E1,-7.199776173E-1,-9.218523026E0,-3.266624928E0
1.031924157E1,-8.363907933E-1,-9.220001221E0,-3.234565020E0
1.033938365E1,-1.007311821E0,-9.223237038E0,-3.176098347E0
1.035965474E1,-1.216280222E0,-9.228100777E0,-3.087588310E0
1.037992584E1,-1.528587580E0,-9.221833229E0,-2.965062857E0
1.040019688E1,-1.957148552E0,-9.167174339E0,-2.881467581E0
1.042059688E1,-2.352826834E0,-9.041949272E0,-2.979555368E0
1.044073901E1,-2.550003767E0,-8.915336609E0,-3.191339970E0
1.046101006E1,-2.602978706E0,-8.843764305E0,-3.344056606E0
1.048128105E1,-2.445868254E0,-8.804625511E0,-3.559029102E0
1.050155219E1,-1.953676939E0,-8.818396568E0,-3.819609404E0
1.052195219E1,-1.426693320E0,-8.903460503E0,-3.855298996E0
1.054209427E1,-1.423288465E0,-8.872205734E0,-3.927923918E0
1.056236537E1,-1.657442093E0,-8.750047684E0,-4.106086731E0
1.058263641E1,-1.700247765E0,-8.727216721E0,-4.137054443E0
1.060290745E1,-1.665156007E0,-8.804831505E0,-3.984040737E0
1.062317854E1,-1.799080491E0,-8.905230522E0,-3.691958904E0
1.064344959E1,-2.101507902E0,-8.970453262E0,-3.359316349E0
1.066372063E1,-2.311892271E0,-8.989436150E0,-3.164738894E0
1.068399167E1,-2.364239216E0,-9.065232277E0,-2.898676634E0
1.070426276E1,-2.359100819E0,-9.173112869E0,-2.541463852E0
1.072453380E1,-2.386502981E0,-9.237511635E0,-2.267899752E0
1.074480485E1,-2.469954729E0,-9.274723053E0,-2.012265682E0
1.076507589E1,-2.598617315E0,-9.295616150E0,-1.734673381E0
1.078534698E1,-2.718569756E0,-9.304115295E0,-1.487683773E0
1.080561802E1,-2.789384842E0,-9.316111565E0,-1.264823556E0
1.082588907E1,-2.819857836E0,-9.334566116E0,-1.041473508E0
1.084616011E1,-2.825840950E0,-9.353823662E0,-8.312606215E-1
1.086643115E1,-2.826576948E0,-9.368067741E0,-6.481934190E-1
1.088670224E1,-2.841152668E0,-9.373024940E0,-4.946069419E-1
1.090697328E1,-2.867700577E0,-9.371701241E0,-3.433583081E-1
1.092724433E1,-2.896576643E0,-9.367554665E0,-1.707279235E-1
1.094751537E1,-2.901902437E0,-9.367395401E0,-3.533951193E-2
1.096778641E1,-2.875402451E0,-9.375595093E0,2.570631914E-2
1.098805745E1,-2.820291042E0,-9.392343521E0,1.571482234E-2
1.100832849E1,-2.757756948E0,-9.410688400E0,-6.397391111E-2
1.102859953E1,-2.692278147E0,-9.426672935E0,-2.446765751E-1
1.104887063E1,-2.580906153E0,-9.446068764E0,-5.301859975E-1
1.106914167E1,-2.418694496E0,-9.460122108E0,-9.090630412E-1
1.108941271E1,-2.216623545E0,-9.451082230E0,-1.390689850E0
1.110968375E1,-1.963502049E0,-9.415969849E0,-1.911689520E0
1.112995480E1,-1.677107930E0,-9.377911568E0,-2.326470613E0
1.115022584E1,-1.388968825E0,-9.340365410E0,-2.645507812E0
1.117049683E1,-1.091614127E0,-9.299368858E0,-2.915561914E0
1.119076792E1,-7.278350592E-1,-9.249872208E0,-3.174982309E0
1.121103896E1,-3.446726501E-1,-9.182648659E0,-3.424988031E0
1.123131000E1,-2.713645436E-2,-9.096232414E0,-3.664452553E0
1.125158110E1,1.752072275E-1,-8.992515564E0,-3.908242464E0
1.127185209E1,2.495972365E-1,-8.896238327E0,-4.118863106E0
1.129212318E1,2.372165471E-1,-8.852334023E0,-4.213108540E0
1.131239417E1,2.167345881E-1,-8.866297722E0,-4.184754372E0
1.133266521E1,1.553936601E-1,-8.898628235E0,-4.118330956E0
1.135293630E1,5.887511186E-3,-8.946865082E0,-4.015465260E0
1.137320730E1,-1.973857433E-1,-9.021150589E0,-3.840609074E0
1.139347839E1,-4.704889059E-1,-9.097229958E0,-3.631726027E0
1.141374943E1,-8.193379641E-1,-9.152179718E0,-3.425882339E0
1.143402042E1,-1.150069714E0,-9.180988312E0,-3.249180555E0
1.145429146E1,-1.365054369E0,-9.207261086E0,-3.087612152E0
1.147456250E1,-1.450626135E0,-9.251995087E0,-2.909749746E0
1.149483354E1,-1.487076283E0,-9.312444687E0,-2.690235615E0
1.151510459E1,-1.545102239E0,-9.366880417E0,-2.458581209E0
1.153537558E1,-1.628028393E0,-9.407520294E0,-2.240194798E0
1.155564662E1,-1.711001277E0,-9.435789108E0,-2.051518917E0
1.157591766E1,-1.799076676E0,-9.435637474E0,-1.975466251E0
1.159618870E1,-1.971388578E0,-9.398335457E0,-1.988791466E0
1.161658870E1,-2.024338245E0,-9.349966049E0,-2.156520844E0
1.163673073E1,-1.754580259E0,-9.357675552E0,-2.350689173E0
1.165700177E1,-1.320954919E0,-9.428363800E0,-2.351900339E0
1.167727282E1,-9.953317642E-1,-9.459455490E0,-2.387132645E0
1.169754386E1,-9.663038850E-1,-9.474979401E0,-2.336960793E0
1.171794386E1,-1.202103019E0,-9.482913017E0,-2.190819025E0
1.173808584E1,-1.588798165E0,-9.444359779E0,-2.109545469E0
1.175835688E1,-1.948963642E0,-9.398344994E0,-2.010734081E0
1.177862787E1,-2.088136673E0,-9.415736198E0,-1.775944352E0
1.179889891E1,-2.016949415E0,-9.477340698E0,-1.510734081E0
1.181929891E1,-1.861453056E0,-9.537119865E0,-1.322391748E0
1.183944094E1,-1.672194004E0,-9.570923805E0,-1.331002235E0
1.185971198E1,-1.465788007E0,-9.586414337E0,-1.456892729E0
1.187998297E1,-1.380615234E0,-9.576201439E0,-1.600205183E0
1.190025401E1,-1.479028702E0,-9.526933670E0,-1.794543743E0
1.192065401E1,-1.549388409E0,-9.457665443E0,-2.079026937E0
1.194079599E1,-1.526118755E0,-9.354134560E0,-2.518239737E0
1.196106703E1,-1.375376821E0,-9.179892540E0,-3.163587093E0
1.198133797E1,-1.145117879E0,-8.969810486E0,-3.794942379E0
1.200160907E1,-8.529676795E-1,-8.811574936E0,-4.218882084E0
1.202200907E1,-4.653712809E-1,-8.692483902E0,-4.516030788E0
1.204215104E1,-2.098482996E-1,-8.572919846E0,-4.757248402E0
1.206242209E1,-8.662275970E-2,-8.509949684E0,-4.872745037E0
1.208269308E1,-5.963520333E-2,-8.593479156E0,-4.724294186E0
1.210296407E1,1.471183263E-3,-8.731303215E0,-4.464833260E0
1.212336407E1,1.593327709E-2,-8.893093109E0,-4.133161545E0
1.214350604E1,-7.770986110E-2,-9.052327156E0,-3.770905495E0
1.216377709E1,-3.119562864E-1,-9.189262390E0,-3.410355568E0
1.218404808E1,-6.738682389E-1,-9.285527229E0,-3.081443548E0
1.220431907E1,-1.125392079E0,-9.336601257E0,-2.780601978E0
1.222459006E1,-1.513795257E0,-9.362891197E0,-2.493006229E0
1.224486104E1,-1.695423961E0,-9.399890900E0,-2.222156525E0
1.226513203E1,-1.669035673E0,-9.472158432E0,-1.913879037E0
1.228540302E1,-1.548775673E0,-9.537911415E0,-1.673300266E0
1.230567401E1,-1.489518046E0,-9.565482140E0,-1.566300631E0
1.232594500E1,-1.494314432E0,-9.545648575E0,-1.678691983E0
1.234621599E1,-1.650526285E0,-9.485793114E0,-1.861687541E0
1.236648698E1,-1.729225874E0,-9.437446594E0,-2.028489590E0
1.238675797E1,-1.437169313E0,-9.476628304E0,-2.073269606E0
1.240702896E1,-1.101236343E0,-9.487880707E0,-2.222114325E0
1.242729995E1,-9.746506810E-1,-9.471713066E0,-2.346722603E0
1.244757089E1,-1.072847366E0,-9.479451180E0,-2.271428823E0
1.246784183E1,-1.274776936E0,-9.511703491E0,-2.018127441E0
1.248811282E1,-1.553811550E0,-9.539061546E0,-1.662034869E0
1.250838381E1,-1.708362341E0,-9.557339668E0,-1.381715894E0
1.252865480E1,-1.643238664E0,-9.586429596E0,-1.253204226E0
1.254892578E1,-1.578443885E0,-9.600250244E0,-1.230488062E0
1.256919672E1,-1.514971495E0,-9.593935966E0,-1.353383422E0
1.258946771E1,-1.439792514E0,-9.566361427E0,-1.606892705E0
1.260973870E1,-1.320147991E0,-9.531830788E0,-1.889914036E0
1.263000964E1,-1.163159370E0,-9.484211922E0,-2.206164122E0
1.265028063E1,-9.755375385E-1,-9.395576477E0,-2.634744167E0
1.267055162E1,-7.224202752E-1,-9.254362106E0,-3.163110971E0
1.269082256E1,-4.367564023E-1,-9.067564964E0,-3.709298611E0
1.271109354E1,-2.134177238E-1,-8.904760361E0,-4.102449417E0
1.273136448E1,1.529356372E-2,-8.788866997E0,-4.350400448E0
1.275163547E1,2.197222561E-1,-8.710134506E0,-4.500628471E0
1.277190641E1,2.886950970E-1,-8.669974327E0,-4.573684692E0
1.279217740E1,2.542966306E-1,-8.700180054E0,-4.518028736E0
1.281244834E1,1.718454063E-1,-8.797319412E0,-4.329897881E0
1.283271927E1,4.601809010E-2,-8.926063538E0,-4.061236858E0
1.285299026E1,-2.258162796E-1,-9.060643196E0,-3.744882107E0
1.287326120E1,-6.676091552E-1,-9.175279617E0,-3.396901131E0
1.289353214E1,-1.153264880E0,-9.247005463E0,-3.055040359E0
1.291380313E1,-1.480452776E0,-9.302618027E0,-2.727628469E0
1.293407407E1,-1.573857069E0,-9.363353729E0,-2.453765392E0
1.295434500E1,-1.562472224E0,-9.420969009E0,-2.230334997E0
1.297461594E1,-1.537747502E0,-9.466786385E0,-2.045887470E0
1.299488688E1,-1.520196080E0,-9.484256744E0,-1.976936579E0
1.301515782E1,-1.418251157E0,-9.494729042E0,-2.002265930E0
1.303542880E1,-1.413135648E0,-9.476275444E0,-2.091322422E0
1.305569974E1,-1.455255151E0,-9.438419342E0,-2.229094982E0
1.307597068E1,-1.259407997E0,-9.432888985E0,-2.367464066E0
1.309624162E1,-9.464155436E-1,-9.377288818E0,-2.709454298E0
1.311651256E1,-8.687799573E-1,-9.314011574E0,-2.943603039E0
1.313678349E1,-9.420916438E-1,-9.304976463E0,-2.949617863E0
1.315705443E1,-1.018850565E0,-9.350109100E0,-2.776292801E0
1.317732537E1,-1.201881528E0,-9.400864601E0,-2.519842386E0
1.319759631E1,-1.280818343E0,-9.432312965E0,-2.358252048E0
1.321799631E1,-1.215725899E0,-9.487528801E0,-2.163142443E0
1.323813813E1,-1.204654336E0,-9.536220551E0,-1.944144964E0
1.325840907E1,-1.256844282E0,-9.544191360E0,-1.870600939E0
1.327868000E1,-1.296034694E0,-9.525013924E0,-1.940305233E0
1.329895094E1,-1.332737207E0,-9.507674217E0,-1.999583244E0
1.331935094E1,-1.350409985E0,-9.505446434E0,-1.998315930E0
1.333949276E1,-1.328413129E0,-9.494424820E0,-2.064364195E0
1.335976370E1,-1.251979828E0,-9.452522278E0,-2.291888714E0
1.338003464E1,-1.091450691E0,-9.379318237E0,-2.647171974E0
1.340030552E1,-8.249516487E-1,-9.274273872E0,-3.078585386E0
1.342070552E1,-5.132541060E-1,-9.117129326E0,-3.575598478E0
1.344084740E1,-2.033571601E-1,-8.939743996E0,-4.026164055E0
1.346111828E1,1.337436587E-1,-8.791142464E0,-4.343767643E0
1.348138917E1,3.504719138E-1,-8.665698051E0,-4.577471733E0
1.350166011E1,4.206641018E-1,-8.556949615E0,-4.772005081E0
1.352206011E1,4.427678287E-1,-8.516299248E0,-4.842208862E0
1.354220193E1,4.059002995E-1,-8.544611931E0,-4.795335770E0
1.356247287E1,2.975937724E-1,-8.613706589E0,-4.678236485E0
1.358274375E1,1.270122826E-1,-8.705644608E0,-4.512870312E0
1.360301469E1,-1.185296252E-1,-8.808301926E0,-4.309309483E0
1.362328558E1,-4.355173409E-1,-8.920222282E0,-4.050968647E0
1.364355646E1,-7.983441949E-1,-9.027545929E0,-3.746525049E0
1.366382740E1,-1.119049430E0,-9.120114326E0,-3.426605225E0
1.368409828E1,-1.294075251E0,-9.212529182E0,-3.102428675E0
1.370436917E1,-1.361907959E0,-9.295261383E0,-2.813132048E0
1.372464011E1,-1.447517276E0,-9.354681969E0,-2.562227488E0
1.374491099E1,-1.506892443E0,-9.403122902E0,-2.341141701E0
1.376518188E1,-1.495890021E0,-9.438632011E0,-2.201118469E0
1.378545276E1,-1.473712802E0,-9.469383240E0,-2.080706835E0
1.380572365E1,-1.474425912E0,-9.489131927E0,-1.988171816E0
1.382599459E1,-1.555113316E0,-9.478541374E0,-1.977189898E0
1.384626547E1,-1.633088350E0,-9.454452515E0,-2.028974771E0
1.386653636E1,-1.509260893E0,-9.439087868E0,-2.190006495E0
1.388680724E1,-1.185330033E0,-9.437241554E0,-2.388273954E0
1.390707813E1,-9.300999641E-1,-9.435778618E0,-2.504272223E0
1.392734901E1,-9.466297626E-1,-9.418284416E0,-2.563240051E0
1.394761990E1,-1.124681950E0,-9.403278351E0,-2.546336412E0
1.396789078E1,-1.306187391E0,-9.412652016E0,-2.422031879E0
1.398816167E1,-1.414800763E0,-9.448586464E0,-2.212002039E0
1.400843256E1,-1.389943719E0,-9.499539375E0,-1.999299884E0
1.402870344E1,-1.345355868E0,-9.554129601E0,-1.754708648E0
1.404897427E1,-1.288147807E0,-9.595490456E0,-1.561287999E0
1.406924516E1,-1.272841454E0,-9.595245361E0,-1.575290203E0
1.408951605E1,-1.350434065E0,-9.556220055E0,-1.739358425E0
1.410978688E1,-1.385873556E0,-9.525138855E0,-1.876562238E0
1.413005782E1,-1.334397793E0,-9.520431519E0,-1.936786771E0
1.415032870E1,-1.266736627E0,-9.512024879E0,-2.021671534E0
1.417059953E1,-1.241873264E0,-9.480961800E0,-2.177043438E0
1.419087042E1,-1.298205972E0,-9.431844711E0,-2.350605488E0
1.421114125E1,-1.273776650E0,-9.379545212E0,-2.563592196E0
1.423141214E1,-1.116787791E0,-9.303767204E0,-2.891900063E0
1.425168302E1,-8.444998860E-1,-9.195691109E0,-3.300978184E0
1.427195391E1,-5.571390986E-1,-9.090936661E0,-3.635225058E0
1.429222474E1,-2.687322497E-1,-9.012369156E0,-3.856862783E0
1.431262474E1,5.326113850E-2,-8.936296463E0,-4.038582325E0
1.433276651E1,2.302206159E-1,-8.848728180E0,-4.221066475E0
1.435303735E1,2.998749912E-1,-8.776263237E0,-4.365508556E0
1.437330823E1,3.670936525E-1,-8.729098320E0,-4.454038620E0
1.439357907E1,3.989603519E-1,-8.710430145E0,-4.487717628E0
1.441384990E1,3.809728026E-1,-8.721722603E0,-4.467303753E0
1.443412078E1,3.182651103E-1,-8.751639366E0,-4.413380146E0
1.445439162E1,2.050789148E-1,-8.790873528E0,-4.341529369E0
1.447466250E1,4.439634457E-2,-8.843968391E0,-4.237057209E0
1.449493328E1,-1.924072653E-1,-8.911103249E0,-4.089696407E0
1.451520417E1,-5.094144940E-1,-8.992089272E0,-3.879846334E0
1.453547500E1,-8.641846776E-1,-9.075365067E0,-3.614045858E0
1.455574589E1,-1.236456156E0,-9.142550468E0,-3.324955940E0
1.457601672E1,-1.537832022E0,-9.203506470E0,-3.016776323E0
1.459628756E1,-1.709968567E0,-9.279035568E0,-2.673181534E0
1.461655839E1,-1.830694318E0,-9.359498978E0,-2.284452200E0
1.463682922E1,-1.924391031E0,-9.407749176E0,-1.990320444E0
1.465710006E1,-1.943311453E0,-9.426716805E0,-1.879082322E0
1.467737089E1,-1.881887794E0,-9.452162743E0,-1.812597275E0
1.469764172E1,-1.796927571E0,-9.483512878E0,-1.733328342E0
1.471804172E1,-1.769652128E0,-9.501900673E0,-1.659098148E0
1.473818339E1,-1.822226882E0,-9.498427391E0,-1.621650100E0
1.475845422E1,-1.915264130E0,-9.477586746E0,-1.636309028E0
1.477872506E1,-1.987285256E0,-9.454659462E0,-1.682409167E0
1.479899589E1,-1.887231827E0,-9.462504387E0,-1.752073169E0
1.481939589E1,-1.471041083E0,-9.526551247E0,-1.803121924E0
1.483953750E1,-1.005898237E0,-9.576607704E0,-1.856648445E0
1.485980839E1,-8.736407757E-1,-9.577981949E0,-1.915567040E0
1.488007917E1,-1.055091619E0,-9.556499481E0,-1.931450129E0
1.490035000E1,-1.270971298E0,-9.556068420E0,-1.799050212E0
1.492075000E1,-1.395013809E0,-9.595162392E0,-1.468730688E0
1.494089162E1,-1.430604815E0,-9.631114960E0,-1.168489695E0
1.496116245E1,-1.442871332E0,-9.654985428E0,-9.326124787E-1
1.498143328E1,-1.483301759E0,-9.664286613E0,-7.561517358E-1
1.500169224E1,-1.536023378E0,-9.663725853E0,-6.507092118E-1
1.502184521E1,-1.630120993E0,-9.653907776E0,-5.613851547E-1
1.504224292E1,-1.748261213E0,-9.637964249E0,-4.728858471E-1
1.506251391E1,-1.833569884E0,-9.624476433E0,-4.217327535E-1
1.508278526E1,-1.875342846E0,-9.617695808E0,-3.916510940E-1
1.510305599E1,-1.864062309E0,-9.620350838E0,-3.801668882E-1
1.512345646E1,-1.783134818E0,-9.634474754E0,-4.095312655E-1
1.514359839E1,-1.666441560E0,-9.648946762E0,-5.396175385E-1
1.516386948E1,-1.563978791E0,-9.654108047E0,-7.228741646E-1
1.518414047E1,-1.480558157E0,-9.654279709E0,-8.793192506E-1
1.520441146E1,-1.434677839E0,-9.651878357E0,-9.763905406E-1
1.522468245E1,-1.424525261E0,-9.644295692E0,-1.062398791E0
1.524495328E1,-1.400641203E0,-9.633687019E0,-1.183492899E0
1.526522412E1,-1.331091762E0,-9.612409592E0,-1.414268732E0
1.528549500E1,-1.171210527E0,-9.556102753E0,-1.865353346E0
1.530576589E1,-9.247141480E-1,-9.446117401E0,-2.467011452E0
1.532603672E1,-6.412336826E-1,-9.329582214E0,-2.952641487E0
1.534630756E1,-3.358738124E-1,-9.223930359E0,-3.313108921E0
1.536657834E1,-1.386262774E-1,-9.118396759E0,-3.606385231E0
1.538684912E1,-2.352128550E-2,-9.012744904E0,-3.865263462E0
1.540711990E1,6.641844660E-2,-8.921890259E0,-4.070116520E0
1.542739073E1,1.342325062E-1,-8.852849007E0,-4.216566086E0
1.544766162E1,1.746524572E-1,-8.839788437E0,-4.242406368E0
1.546793240E1,2.019328624E-1,-8.862493515E0,-4.193543911E0
1.548820313E1,1.594559103E-1,-8.896582603E0,-4.122593403E0
1.550847396E1,-1.059991866E-2,-8.930353165E0,-4.052042961E0
1.552874469E1,-2.817233205E-1,-8.972609520E0,-3.947567701E0
1.554901547E1,-6.272149682E-1,-9.039977074E0,-3.749106646E0
1.556928625E1,-1.007110476E0,-9.119712830E0,-3.462217331E0
1.558955703E1,-1.369799852E0,-9.194969177E0,-3.121951103E0
1.560982782E1,-1.602949023E0,-9.272170067E0,-2.761845350E0
1.563009860E1,-1.721228361E0,-9.351926804E0,-2.397751331E0
1.565036938E1,-1.825064182E0,-9.424028397E0,-2.006793261E0
1.567064011E1,-1.917390227E0,-9.467402458E0,-1.691828847E0
1.569091089E1,-1.926788330E0,-9.486771584E0,-1.568129659E0
1.571118167E1,-1.877790451E0,-9.497776985E0,-1.560936093E0
1.573145245E1,-1.784077287E0,-9.515924454E0,-1.560328484E0
1.575172318E1,-1.794611573E0,-9.502970695E0,-1.625824690E0
1.577199396E1,-1.987059712E0,-9.444263458E0,-1.740077019E0
1.579226469E1,-2.082120180E0,-9.408889771E0,-1.818778753E0
1.581253547E1,-1.971350431E0,-9.381323814E0,-2.067591667E0
1.583280625E1,-1.595585465E0,-9.352657318E0,-2.480384350E0
1.585307698E1,-1.381592035E0,-9.394963264E0,-2.448724031E0
1.587334776E1,-1.360952973E0,-9.406435966E0,-2.416018724E0
1.589361849E1,-1.432886720E0,-9.436063766E0,-2.253427267E0
1.591388927E1,-1.469031453E0,-9.504113197E0,-1.919424415E0
1.593416006E1,-1.492031932E0,-9.556116104E0,-1.620148182E0
1.595443078E1,-1.546007752E0,-9.582173347E0,-1.400788426E0
1.597470151E1,-1.569066286E0,-9.605907440E0,-1.197899222E0
1.599497230E1,-1.588398337E0,-9.622369766E0,-1.028295875E0
1.601524302E1,-1.637381792E0,-9.622836113E0,-9.436029792E-1
1.603551375E1,-1.761869669E0,-9.601875305E0,-9.328479171E-1
1.605578453E1,-1.942879200E0,-9.562595367E0,-9.758947492E-1
1.607605526E1,-2.128341198E0,-9.515265465E0,-1.048936963E0
1.609632599E1,-2.281929016E0,-9.473457336E0,-1.103088617E0
1.611672599E1,-2.405716181E0,-9.440735817E0,-1.120461226E0
1.613686750E1,-2.522536755E0,-9.408781052E0,-1.132268071E0
1.615713823E1,-2.660430908E0,-9.365637779E0,-1.173598051E0
1.617740896E1,-2.798170567E0,-9.314383507E0,-1.258131862E0
1.619767969E1,-2.890298128E0,-9.262660027E0,-1.421160340E0
1.621807969E1,-2.878349543E0,-9.213598251E0,-1.730636835E0
1.623822115E1,-2.733925819E0,-9.155707359E0,-2.206593275E0
1.625849193E1,-2.388521194E0,-9.157158852E0,-2.571342468E0
1.627876266E1,-1.851731062E0,-9.240386963E0,-2.712329865E0
1.629903339E1,-1.312465072E0,-9.266326904E0,-2.929677725E0
1.631943339E1,-9.626515508E-1,-9.258516312E0,-3.086028099E0
1.633957485E1,-6.916606426E-1,-9.257682800E0,-3.160270214E0
1.635984558E1,-3.920693398E-1,-9.249920845E0,-3.233516216E0
1.638011630E1,-7.779633999E-2,-9.236759186E0,-3.293419361E0
1.640038703E1,1.189121827E-1,-9.206948280E0,-3.374662399E0
1.642078703E1,1.072861403E-1,-9.166450500E0,-3.483541250E0
1.644092855E1,-3.342394531E-2,-9.127924919E0,-3.584725142E0
1.646119927E1,-1.929360926E-1,-9.079233170E0,-3.701443911E0
1.648147000E1,-3.551989794E-1,-9.010259628E0,-3.854796886E0
1.650174073E1,-5.318250060E-1,-8.942332268E0,-3.990269184E0
1.652214073E1,-7.775230408E-1,-8.949325562E0,-3.933880091E0
1.654228219E1,-1.052340627E0,-9.026075363E0,-3.686858177E0
1.656255292E1,-1.301479578E0,-9.100577354E0,-3.414095163E0
1.658282365E1,-1.515991449E0,-9.149083138E0,-3.188484430E0
1.660309438E1,-1.618350863E0,-9.176935196E0,-3.055351734E0
1.662336511E1,-1.670831203E0,-9.107421875E0,-3.230105162E0
1.664363584E1,-1.740432143E0,-8.968650818E0,-3.564349890E0
1.666390657E1,-1.592341304E0,-8.932413101E0,-3.721135378E0
1.668417730E1,-1.364125013E0,-9.052369118E0,-3.516271114E0
1.670444802E1,-1.396779418E0,-9.125338554E0,-3.308717489E0
1.672471875E1,-1.510220170E0,-9.122092247E0,-3.267575026E0
1.674498948E1,-1.523050547E0,-9.123710632E0,-3.257088423E0
1.676526021E1,-1.634968758E0,-9.123728752E0,-3.202316523E0
1.678553094E1,-1.917965531E0,-9.128565788E0,-3.026728868E0
1.680580167E1,-2.139273405E0,-9.157107353E0,-2.782317400E0
1.682607240E1,-2.255349398E0,-9.197741508E0,-2.546633959E0
1.684634318E1,-2.310894728E0,-9.240364075E0,-2.333628893E0
1.686661391E1,-2.355608225E0,-9.284916878E0,-2.100431204E0
1.688688459E1,-2.392300606E0,-9.319479942E0,-1.895941615E0
1.690715537E1,-2.444165945E0,-9.335317612E0,-1.745937347E0
1.692742610E1,-2.506235361E0,-9.341395378E0,-1.620957971E0
1.694769683E1,-2.585157871E0,-9.338292122E0,-1.511173725E0
1.696796756E1,-2.686511517E0,-9.327772141E0,-1.394885063E0
1.698823828E1,-2.784101963E0,-9.319611549E0,-1.250600100E0
1.700850901E1,-2.847093821E0,-9.321626663E0,-1.082468033E0
1.702877974E1,-2.879165649E0,-9.331979752E0,-8.916064501E-1
1.704917974E1,-2.896562576E0,-9.343674660E0,-6.899685264E-1
1.706932125E1,-2.902096748E0,-9.353584290E0,-5.085930228E-1
1.708959198E1,-2.905810118E0,-9.359580994E0,-3.533935249E-1
1.710986271E1,-2.918937206E0,-9.359642982E0,-2.174440324E-1
1.713013344E1,-2.941414595E0,-9.354563713E0,-1.029184908E-1
1.715040417E1,-2.978991985E0,-9.343102455E0,-4.928635061E-2
1.717067490E1,-3.014415503E0,-9.331647873E0,-6.367216259E-2
1.719094568E1,-2.979077339E0,-9.342669487E0,-1.000749841E-1
1.721121641E1,-2.817776442E0,-9.391076088E0,-1.954791993E-1
1.723148714E1,-2.576234341E0,-9.454380035E0,-3.848485649E-1
1.725175787E1,-2.301986456E0,-9.506002426E0,-7.121580243E-1
1.727202860E1,-2.037022829E0,-9.529409409E0,-1.100584388E0
1.729229933E1,-1.813967347E0,-9.525867462E0,-1.462103486E0
1.731257011E1,-1.641043305E0,-9.506106377E0,-1.763890862E0
1.733284084E1,-1.483600259E0,-9.479680061E0,-2.026080132E0
1.735311157E1,-1.245536685E0,-9.449843407E0,-2.306402445E0
1.737338230E1,-9.857019782E-1,-9.415252686E0,-2.559647322E0
1.739365308E1,-7.791961432E-1,-9.384718895E0,-2.736839056E0
1.741392380E1,-6.162035465E-1,-9.357799530E0,-2.867453098E0
1.743419453E1,-5.207682252E-1,-9.328355789E0,-2.980094910E0
1.745446521E1,-4.915404618E-1,-9.288895607E0,-3.105672836E0
1.747473604E1,-4.709434807E-1,-9.237278938E0,-3.259027004E0
1.749500677E1,-4.042283595E-1,-9.170222282E0,-3.451669216E0
1.751527750E1,-3.110548258E-1,-9.088652611E0,-3.670153141E0
1.753554823E1,-2.572962940E-1,-9.024361610E0,-3.829501629E0
1.755581896E1,-2.639116943E-1,-9.016374588E0,-3.847819567E0
1.757608974E1,-2.877133489E-1,-9.044278145E0,-3.780030727E0
1.759636047E1,-3.584128618E-1,-9.070726395E0,-3.709965229E0
1.761663120E1,-4.714540243E-1,-9.091537476E0,-3.645828485E0
1.763690193E1,-6.097761393E-1,-9.106595993E0,-3.587264299E0
1.765717266E1,-8.421109915E-1,-9.075476646E0,-3.618973732E0
1.767744339E1,-1.080804944E0,-9.005935669E0,-3.727649212E0
1.769771412E1,-1.032353163E0,-9.000378609E0,-3.754706144E0
1.771811412E1,-9.562581778E-1,-9.060907364E0,-3.627107382E0
1.773825563E1,-8.828381896E-1,-9.109100342E0,-3.523532391E0
1.775852636E1,-6.556959152E-1,-9.180137634E0,-3.386076450E0
1.777879709E1,-4.496973753E-1,-9.348196983E0,-2.929057360E0
1.779906782E1,-3.331528902E-1,-9.468573570E0,-2.530913830E0
1.781946782E1,-4.365841746E-1,-9.484056473E0,-2.456102848E0
1.783960927E1,-7.942455411E-1,-9.436092377E0,-2.549455166E0
1.785988006E1,-1.257576346E0,-9.366172791E0,-2.619866848E0
1.788015078E1,-1.707423091E0,-9.308063507E0,-2.571975231E0
1.790042151E1,-1.990867853E0,-9.311217308E0,-2.346930265E0
1.792082151E1,-2.006992817E0,-9.364790916E0,-2.107858181E0
1.794096297E1,-1.951716781E0,-9.414463043E0,-1.931079865E0
1.796123370E1,-1.884921432E0,-9.460846901E0,-1.763469100E0
1.798150438E1,-1.852023721E0,-9.492341042E0,-1.623532295E0
1.800177516E1,-1.900156617E0,-9.500247002E0,-1.518260241E0
1.802217516E1,-2.010848284E0,-9.491522789E0,-1.427535653E0
1.804231667E1,-2.109838247E0,-9.485280991E0,-1.322276235E0
1.806258740E1,-2.139245987E0,-9.496086121E0,-1.190949202E0
1.808285813E1,-2.117745876E0,-9.518515587E0,-1.040864110E0
1.810312886E1,-2.071805000E0,-9.543938637E0,-8.895238638E-1
1.812352886E1,-2.028002024E0,-9.564599037E0,-7.589711547E-1
1.814367032E1,-2.016336918E0,-9.575407028E0,-6.452537179E-1
1.816394104E1,-2.032893419E0,-9.578491211E0,-5.387466550E-1
1.818421177E1,-2.062605381E0,-9.577432632E0,-4.345690906E-1
1.820448250E1,-2.092236757E0,-9.574755669E0,-3.420480490E-1
1.822475323E1,-2.121449709E0,-9.570280075E0,-2.820979059E-1
1.824502396E1,-2.153787851E0,-9.563408852E0,-2.698175311E-1
1.826529469E1,-2.183662415E0,-9.555179596E0,-3.170959353E-1
1.828556542E1,-2.162959337E0,-9.556723595E0,-4.012923837E-1
1.830583615E1,-2.070938587E0,-9.572699547E0,-4.949864745E-1
1.832610688E1,-1.929430366E0,-9.594257355E0,-6.308065653E-1
1.834637761E1,-1.763355017E0,-9.603967667E0,-9.081699848E-1
1.836664834E1,-1.591712952E0,-9.584786415E0,-1.329926729E0
1.838691907E1,-1.402675033E0,-9.541731834E0,-1.777147055E0
1.840718980E1,-1.201853395E0,-9.496989250E0,-2.129118204E0
1.842746052E1,-9.832476974E-1,-9.461016655E0,-2.385952473E0
1.844773125E1,-7.666787505E-1,-9.425136566E0,-2.597958803E0
1.846800198E1,-5.712161064E-1,-9.373452187E0,-2.825329781E0
1.848827271E1,-4.130181670E-1,-9.304921150E0,-3.068918943E0
1.850854339E1,-3.025687337E-1,-9.240571976E0,-3.269661188E0
1.852881412E1,-2.046052366E-1,-9.183401108E0,-3.434190989E0
1.854908485E1,-1.029045358E-1,-9.130857468E0,-3.575925589E0
1.856935558E1,-1.399233937E-2,-9.083798409E0,-3.695238590E0
1.858962630E1,6.937149912E-2,-9.044440269E0,-3.789942503E0
1.860989703E1,1.289980561E-1,-9.026712418E0,-3.830432892E0
1.863016776E1,1.379844844E-1,-9.038899422E0,-3.801268339E0
1.865043849E1,1.094221324E-1,-9.074093819E0,-3.717422247E0
1.867070922E1,3.664379194E-2,-9.114923477E0,-3.617626190E0
1.869097990E1,-1.007910967E-1,-9.150374413E0,-3.525744915E0
1.871125063E1,-2.927661240E-1,-9.179315567E0,-3.438726425E0
1.873152136E1,-5.004864335E-1,-9.201239586E0,-3.355157614E0
1.875179209E1,-6.865756512E-1,-9.219290733E0,-3.271646023E0
1.877206282E1,-8.110038638E-1,-9.243158340E0,-3.174379587E0
1.879233354E1,-8.433594704E-1,-9.280861855E0,-3.053641558E0
1.881273354E1,-8.165660501E-1,-9.325969696E0,-2.920598507E0
1.883287500E1,-7.753081322E-1,-9.374877930E0,-2.771452427E0
1.885314568E1,-7.547959685E-1,-9.427513123E0,-2.592810154E0
1.887341641E1,-7.655186057E-1,-9.480923653E0,-2.386723518E0
1.889368714E1,-8.255851865E-1,-9.526583672E0,-2.175548315E0
1.891395787E1,-9.300082326E-1,-9.556231499E0,-1.995975494E0
1.893422860E1,-1.062533379E0,-9.570167542E0,-1.858303666E0
1.895449933E1,-1.184701443E0,-9.579153061E0,-1.733985543E0
1.897477006E1,-1.259796858E0,-9.574017525E0,-1.709234953E0
1.899504078E1,-1.272168398E0,-9.566295624E0,-1.742974877E0
1.901531151E1,-1.203851581E0,-9.587840080E0,-1.671657443E0
1.903558224E1,-1.043343782E0,-9.595232964E0,-1.735892653E0
1.905585297E1,-6.955191493E-1,-9.562850952E0,-2.058769226E0
1.907612365E1,-3.798930943E-1,-9.517023087E0,-2.335024595E0
1.909639438E1,-4.443718195E-1,-9.477561951E0,-2.479667187E0
1.911666511E1,-5.842556953E-1,-9.498526573E0,-2.367914438E0
1.913693584E1,-6.489034295E-1,-9.586072922E0,-1.963803053E0
1.915720657E1,-7.501859665E-1,-9.654665947E0,-1.547590494E0
1.917747730E1,-8.287250400E-1,-9.673916817E0,-1.378020048E0
1.919774802E1,-8.767828941E-1,-9.683035851E0,-1.280798435E0
1.921814802E1,-8.944582343E-1,-9.691816330E0,-1.199596882E0
1.923828948E1,-8.975625634E-1,-9.706287384E0,-1.073668122E0
1.925856021E1,-9.314739704E-1,-9.723206520E0,-8.729228973E-1
1.927883094E1,-1.038701415E0,-9.724996567E0,-7.182781696E-1
1.929910167E1,-1.158667922E0,-9.716450691E0,-6.468911767E-1
1.931950167E1,-1.225458503E0,-9.711442947E0,-5.970851779E-1
1.933964313E1,-1.208569527E0,-9.713937759E0,-5.909022093E-1
1.935991386E1,-1.131421447E0,-9.717107773E0,-6.841670871E-1
1.938018459E1,-1.073538542E0,-9.713710785E0,-8.134768605E-1
1.940045532E1,-1.029767752E0,-9.708268166E0,-9.270904064E-1
1.942085532E1,-1.014677882E0,-9.698847771E0,-1.035932064E0
1.944099672E1,-1.026147962E0,-9.686914444E0,-1.131857753E0
1.946126745E1,-1.034871936E0,-9.676632881E0,-1.209212184E0
1.948153818E1,-1.021705985E0,-9.671785355E0,-1.258203745E0
1.950180891E1,-1.003969431E0,-9.666290283E0,-1.313498020E0
1.952220891E1,-9.813642502E-1,-9.649048805E0,-1.450229526E0
1.954235037E1,-9.120364189E-1,-9.612452507E0,-1.714453697E0
1.956262110E1,-7.380553484E-1,-9.542806625E0,-2.135530949E0
1.958289183E1,-5.157867074E-1,-9.399256706E0,-2.749239922E0
1.960316256E1,-2.686449289E-1,-9.192036629E0,-3.406564236E0
1.962343328E1,-2.420451120E-2,-9.012066841E0,-3.866838455E0
1.964370401E1,1.927462965E-1,-8.890296936E0,-4.134711742E0
1.966397474E1,5.097439885E-1,-8.820265770E0,-4.255990982E0
1.968424547E1,7.282357216E-1,-8.753396034E0,-4.360974312E0
1.970451620E1,8.295558691E-1,-8.694407463E0,-4.459765911E0
1.972478693E1,8.528491855E-1,-8.654858589E0,-4.531716347E0
1.974505766E1,8.492750525E-1,-8.641193390E0,-4.558388233E0
1.976532834E1,7.498795986E-1,-8.651537895E0,-4.556200504E0
1.978559907E1,5.524337292E-1,-8.682586670E0,-4.525250435E0
1.980586980E1,3.046243191E-1,-8.745068550E0,-4.427342415E0
1.982614052E1,1.545722503E-2,-8.839965820E0,-4.245605469E0
1.984641125E1,-3.196582496E-1,-8.956990242E0,-3.980017900E0
1.986668198E1,-6.727609634E-1,-9.076136589E0,-3.652606249E0
1.988695271E1,-9.734379053E-1,-9.184962273E0,-3.295343399E0
1.990722339E1,-1.181491137E0,-9.282045364E0,-2.935661793E0
1.992749412E1,-1.368483305E0,-9.358334541E0,-2.592144728E0
1.994776485E1,-1.536801219E0,-9.404974937E0,-2.314107418E0
1.996803558E1,-1.552437782E0,-9.435688972E0,-2.174417973E0
1.998830631E1,-1.409032226E0,-9.476729393E0,-2.092037201E0
2.000857703E1,-1.174720168E0,-9.538263321E0,-1.952420592E0
2.002884776E1,-9.890933037E-1,-9.605435371E0,-1.711053133E0
2.004911844E1,-9.443267584E-1,-9.642168999E0,-1.518949270E0
2.006938922E1,-1.127389669E0,-9.613321304E0,-1.575893998E0
2.008965990E1,-1.389629245E0,-9.539066315E0,-1.801535487E0
2.010993063E1,-1.505664945E0,-9.493844032E0,-1.941720963E0
2.013020136E1,-1.276365638E0,-9.513016701E0,-2.010920525E0
2.015047209E1,-7.483389974E-1,-9.559241295E0,-2.057009935E0
2.017074276E1,-3.647307456E-1,-9.566281319E0,-2.126876831E0
2.019101349E1,-2.969701886E-1,-9.544828415E0,-2.231239557E0
2.021128422E1,-5.041768551E-1,-9.537418365E0,-2.225723505E0
2.023155495E1,-7.231264710E-1,-9.570773125E0,-2.011908770E0
2.025182568E1,-8.002504110E-1,-9.632054329E0,-1.659380794E0
2.027209636E1,-7.979052067E-1,-9.681621552E0,-1.341620922E0
2.029236709E1,-8.207887411E-1,-9.711862564E0,-1.084627271E0
2.031263782E1,-8.748097420E-1,-9.724565506E0,-9.153872132E-1
2.033290855E1,-9.394929409E-1,-9.726801872E0,-8.228353858E-1
2.035317927E1,-1.026466370E0,-9.725648880E0,-7.269735336E-1
2.037344995E1,-1.130308270E0,-9.721285820E0,-6.240176558E-1
2.039372068E1,-1.214617729E0,-9.713685036E0,-5.825984478E-1
2.041399141E1,-1.244162321E0,-9.708595276E0,-6.046566963E-1
2.043426209E1,-1.212934256E0,-9.706290245E0,-6.979240775E-1
2.045453282E1,-1.179070592E0,-9.696461678E0,-8.710945249E-1
2.047480354E1,-1.174804568E0,-9.677250862E0,-1.068194985E0
2.049507427E1,-1.170958161E0,-9.658281326E0,-1.231599212E0
2.051534495E1,-1.159656644E0,-9.644553185E0,-1.344686270E0
2.053561568E1,-1.107530117E0,-9.639835358E0,-1.420328975E0
2.055588641E1,-1.005555987E0,-9.634634018E0,-1.527438641E0
2.057615709E1,-8.609075546E-1,-9.610443115E0,-1.751744151E0
2.059642782E1,-6.871724129E-1,-9.551303864E0,-2.114420414E0
2.061682782E1,-5.167825818E-1,-9.431855202E0,-2.635041237E0
2.063696917E1,-3.297233284E-1,-9.250761032E0,-3.238066435E0
2.065723995E1,-1.428925246E-1,-9.062888145E0,-3.743531704E0
2.067751063E1,3.601986170E-2,-8.919187546E0,-4.076419353E0
2.069778136E1,2.972458303E-1,-8.817677498E0,-4.281423569E0
2.071818136E1,5.449538827E-1,-8.745402336E0,-4.403560162E0
2.073832276E1,6.726159453E-1,-8.686615944E0,-4.501187801E0
2.075859349E1,7.935435772E-1,-8.619809151E0,-4.608640671E0
2.077886417E1,8.481022716E-1,-8.568153381E0,-4.694451332E0
2.079913490E1,7.851925492E-1,-8.537839890E0,-4.760161400E0
2.081953490E1,6.094622612E-1,-8.524282455E0,-4.809941769E0
2.083967625E1,3.790248632E-1,-8.532200813E0,-4.819570541E0
2.085994698E1,1.277940571E-1,-8.568014145E0,-4.768981934E0
2.088021766E1,-1.680494547E-1,-8.611544609E0,-4.688650131E0
2.090048839E1,-4.404241443E-1,-8.697916985E0,-4.508066177E0
2.092088839E1,-6.594751477E-1,-8.850136757E0,-4.172598839E0
2.094102980E1,-9.079373479E-1,-9.020931244E0,-3.737488747E0
2.096130047E1,-1.212974906E0,-9.150053024E0,-3.312944412E0
2.098157115E1,-1.526327610E0,-9.220684052E0,-2.969794273E0
2.100184188E1,-1.724064589E0,-9.272382736E0,-2.687174797E0
2.102211256E1,-1.766381502E0,-9.322525978E0,-2.478061199E0
2.104238328E1,-1.748902798E0,-9.355171204E0,-2.364845753E0
2.106265396E1,-1.729741693E0,-9.374184608E0,-2.302836418E0
2.108292464E1,-1.709732652E0,-9.399248123E0,-2.213899374E0
2.110319136E1,-1.678870678E0,-9.435381889E0,-2.079742432E0
2.112342740E1,-1.736119270E0,-9.441926003E0,-2.001578569E0
2.114373724E1,-1.874138474E0,-9.414795876E0,-2.004893780E0
2.116400787E1,-1.992676139E0,-9.378644943E0,-2.059277296E0
2.118427844E1,-2.035673141E0,-9.354707718E0,-2.125058889E0
2.120454901E1,-1.883774638E0,-9.345051765E0,-2.300387859E0
2.122481969E1,-1.346932650E0,-9.362550735E0,-2.588204384E0
2.124509032E1,-8.898426294E-1,-9.391968727E0,-2.677589655E0
2.126536094E1,-7.980173826E-1,-9.411312103E0,-2.638323307E0
2.128563157E1,-9.406847954E-1,-9.424375534E0,-2.542959213E0
2.130590224E1,-1.099187136E0,-9.467947960E0,-2.306543112E0
2.132617287E1,-1.169255733E0,-9.543096542E0,-1.931977034E0
2.134644360E1,-1.163640499E0,-9.599006653E0,-1.635669231E0
2.136671433E1,-1.152503252E0,-9.635044098E0,-1.417055368E0
2.138698495E1,-1.194896340E0,-9.656358719E0,-1.223667026E0
2.140725563E1,-1.270733118E0,-9.661927223E0,-1.096709132E0
2.142752630E1,-1.387766838E0,-9.655256271E0,-1.010213256E0
2.144779698E1,-1.516061187E0,-9.643228531E0,-9.381220937E-1
2.146806766E1,-1.620508313E0,-9.629236221E0,-9.067221284E-1
2.148833834E1,-1.672969818E0,-9.623966217E0,-8.665069342E-1
2.150860901E1,-1.659319043E0,-9.628695488E0,-8.398015499E-1
2.152887969E1,-1.591428161E0,-9.635166168E0,-8.951671124E-1
2.154915037E1,-1.550974846E0,-9.627472878E0,-1.037600040E0
2.156942105E1,-1.515279889E0,-9.613289833E0,-1.207881927E0
2.158969172E1,-1.435728312E0,-9.603930473E0,-1.368793130E0
2.160996235E1,-1.371807933E0,-9.593564987E0,-1.500678539E0
2.163023302E1,-1.368396878E0,-9.579220772E0,-1.592606783E0
2.165050370E1,-1.385308385E0,-9.558419228E0,-1.699388146E0
2.167077438E1,-1.343603730E0,-9.528056145E0,-1.892421603E0
2.169104506E1,-1.159746528E0,-9.481407166E0,-2.219975471E0
2.171131573E1,-8.190866709E-1,-9.382661819E0,-2.732243061E0
2.173158636E1,-4.199021459E-1,-9.224226952E0,-3.302678108E0
2.175185698E1,-8.921716362E-2,-9.077960968E0,-3.708510637E0
2.177212766E1,7.163202018E-2,-8.940715790E0,-4.028504848E0
2.179239834E1,2.565732896E-1,-8.816619873E0,-4.286231995E0
2.181266901E1,5.048936605E-1,-8.768402100E0,-4.362406254E0
2.183293969E1,7.436335087E-1,-8.764729500E0,-4.335540771E0
2.185321032E1,9.672662616E-1,-8.780186653E0,-4.259470940E0
2.187348099E1,1.141112804E0,-8.800050735E0,-4.174608231E0
2.189375167E1,1.201152682E0,-8.809559822E0,-4.137544632E0
2.191402235E1,1.095698595E0,-8.821017265E0,-4.142403126E0
2.193429302E1,8.988886476E-1,-8.853786469E0,-4.119813442E0
2.195456365E1,6.277408004E-1,-8.914871216E0,-4.037497520E0
2.197483433E1,2.709444761E-1,-8.992745399E0,-3.902245283E0
2.199510500E1,-1.865527034E-1,-9.051176071E0,-3.769855738E0
2.201537563E1,-6.104146838E-1,-9.096159935E0,-3.613537312E0
2.203564630E1,-8.720650673E-1,-9.168895721E0,-3.367676497E0
2.205591693E1,-1.059458017E0,-9.265025139E0,-3.034344673E0
2.207618761E1,-1.252244711E0,-9.360273361E0,-2.643399954E0
2.209645823E1,-1.499834776E0,-9.414647102E0,-2.298980713E0
2.211672891E1,-1.591823101E0,-9.447344780E0,-2.093837500E0
2.213699953E1,-1.560635209E0,-9.487402916E0,-1.929762125E0
2.215727016E1,-1.497958302E0,-9.523122787E0,-1.799067259E0
2.217754084E1,-1.444341421E0,-9.544911385E0,-1.725956678E0
2.219781146E1,-1.430978417E0,-9.552059174E0,-1.697310567E0
2.221821146E1,-1.501404881E0,-9.538663864E0,-1.711746693E0
2.223835276E1,-1.639910698E0,-9.494736671E0,-1.825117707E0
2.225862344E1,-1.769639611E0,-9.433359146E0,-2.012583971E0
2.227889407E1,-1.781167865E0,-9.391571045E0,-2.190030336E0
2.229916469E1,-1.566490054E0,-9.375146866E0,-2.413113117E0
2.231956469E1,-1.137904644E0,-9.423044205E0,-2.466130972E0
2.233970599E1,-8.461624980E-1,-9.475795746E0,-2.379847050E0
2.235997662E1,-7.471511960E-1,-9.466663361E0,-2.448352337E0
2.238024724E1,-8.917394876E-1,-9.451456070E0,-2.458694696E0
2.240051792E1,-1.110069036E0,-9.460297585E0,-2.332572699E0
2.242091792E1,-1.219574451E0,-9.491659164E0,-2.142766714E0
2.244105917E1,-1.288285255E0,-9.515335083E0,-1.992263198E0
2.246132974E1,-1.352076530E0,-9.530008316E0,-1.876487494E0
2.248160047E1,-1.409384847E0,-9.546797752E0,-1.744327307E0
2.250187110E1,-1.448325276E0,-9.556807518E0,-1.655343890E0
2.252227110E1,-1.433791637E0,-9.561552048E0,-1.640532494E0
2.254241235E1,-1.379752994E0,-9.569364548E0,-1.641319871E0
2.256268297E1,-1.339131594E0,-9.574470520E0,-1.645180583E0
2.258295365E1,-1.367514849E0,-9.565494537E0,-1.673803568E0
2.260322427E1,-1.459881186E0,-9.540720940E0,-1.736023068E0
2.262349490E1,-1.519856572E0,-9.512304306E0,-1.837520003E0
2.264376547E1,-1.500926852E0,-9.472026825E0,-2.048981190E0
2.266403615E1,-1.371391892E0,-9.408584595E0,-2.401710033E0
2.268430677E1,-1.146041512E0,-9.300598145E0,-2.890647411E0
2.270457740E1,-8.650993109E-1,-9.134526253E0,-3.461563349E0
2.272484802E1,-5.605768561E-1,-8.977372169E0,-3.906781912E0
2.274511865E1,-3.225423694E-1,-8.833331108E0,-4.247187614E0
2.276538927E1,-1.350262761E-1,-8.711860657E0,-4.500627518E0
2.278565990E1,4.692421854E-2,-8.625283241E0,-4.666119099E0
2.280593052E1,1.132240146E-1,-8.574142456E0,-4.758323669E0
2.282620115E1,9.811627865E-2,-8.572089195E0,-4.762356758E0
2.284647177E1,5.008448288E-2,-8.613560677E0,-4.687689781E0
2.286674240E1,-2.819347568E-2,-8.688868523E0,-4.546774864E0
2.288701297E1,-1.884379387E-1,-8.790903091E0,-4.342223167E0
2.290728360E1,-4.248815179E-1,-8.922185898E0,-4.047772408E0
2.292755422E1,-7.357467413E-1,-9.060642242E0,-3.678835392E0
2.294782485E1,-1.104721546E0,-9.179401398E0,-3.269337654E0
2.296809547E1,-1.378894925E0,-9.269979477E0,-2.887302160E0
2.298836610E1,-1.516757250E0,-9.346758842E0,-2.551063776E0
2.300863672E1,-1.623271108E0,-9.411315918E0,-2.227670193E0
2.302890730E1,-1.753142476E0,-9.455404282E0,-1.921510577E0
2.304917792E1,-1.814780354E0,-9.474577904E0,-1.763328433E0
2.306944854E1,-1.727469683E0,-9.488331795E0,-1.777017236E0
2.308971912E1,-1.533740163E0,-9.524501801E0,-1.761215568E0
2.310998974E1,-1.421501517E0,-9.548258781E0,-1.726407051E0
2.313026037E1,-1.577555299E0,-9.502263069E0,-1.840844631E0
2.315053094E1,-1.750097990E0,-9.401311874E0,-2.173219681E0
2.317080157E1,-1.565926313E0,-9.385456085E0,-2.373073339E0
2.319107219E1,-1.179688692E0,-9.455523491E0,-2.317710876E0
2.321134276E1,-9.382884502E-1,-9.479460716E0,-2.330198288E0
2.323161339E1,-9.887353778E-1,-9.474520683E0,-2.329430819E0
2.325188401E1,-1.178387523E0,-9.477558136E0,-2.226581573E0
2.327215459E1,-1.331021309E0,-9.514032364E0,-1.970262885E0
2.329242516E1,-1.386494160E0,-9.557602882E0,-1.703009725E0
2.331282516E1,-1.420278430E0,-9.580767632E0,-1.536912799E0
2.333296636E1,-1.471774340E0,-9.593894958E0,-1.400519371E0
2.335323698E1,-1.535545945E0,-9.598450661E0,-1.297006845E0
2.337350756E1,-1.594228983E0,-9.586754799E0,-1.312612772E0
2.339377818E1,-1.618298531E0,-9.566881180E0,-1.423468947E0
2.341404875E1,-1.655901313E0,-9.536039352E0,-1.578708291E0
2.343431938E1,-1.729559660E0,-9.487679482E0,-1.778470516E0
2.345458995E1,-1.862162471E0,-9.418871880E0,-1.996898532E0
2.347486058E1,-1.980298877E0,-9.343993187E0,-2.222296238E0
2.349513115E1,-2.014330864E0,-9.266329765E0,-2.499594927E0
2.351540172E1,-1.945688367E0,-9.166530609E0,-2.891260862E0
2.353567235E1,-1.737283468E0,-9.041468620E0,-3.376992226E0
2.355594292E1,-1.410556316E0,-8.937376976E0,-3.782064199E0
2.357621349E1,-1.052516103E0,-8.868233681E0,-4.051794052E0
2.359648412E1,-7.456488013E-1,-8.815934181E0,-4.230095387E0
2.361675469E1,-5.319713950E-1,-8.754173279E0,-4.387692451E0
2.363702526E1,-4.357167780E-1,-8.676229477E0,-4.550118446E0
2.365729584E1,-4.157211483E-1,-8.628725052E0,-4.641406059E0
2.367756641E1,-4.172593355E-1,-8.646215439E0,-4.608605385E0
2.369783703E1,-4.178819954E-1,-8.708094597E0,-4.490529537E0
2.371823703E1,-4.500574768E-1,-8.805366516E0,-4.293409348E0
2.373837818E1,-5.326297283E-1,-8.936532974E0,-4.003131390E0
2.375864875E1,-6.657629609E-1,-9.079495430E0,-3.645534992E0
2.377891933E1,-8.761484027E-1,-9.195395470E0,-3.293549061E0
2.379918995E1,-1.162995338E0,-9.275008202E0,-2.965142012E0
2.381958995E1,-1.431043267E0,-9.334888458E0,-2.642414808E0
2.383973110E1,-1.601718307E0,-9.386580467E0,-2.344568729E0
2.386000167E1,-1.718844533E0,-9.429706573E0,-2.072823048E0
2.388027224E1,-1.802225828E0,-9.467944145E0,-1.811190009E0
2.390054282E1,-1.782636762E0,-9.503223419E0,-1.637473345E0
2.392094282E1,-1.705747366E0,-9.535193443E0,-1.530002475E0
2.394108391E1,-1.645528197E0,-9.557218552E0,-1.456771255E0
2.396135448E1,-1.707469940E0,-9.549540520E0,-1.435695529E0
2.398162506E1,-1.840333819E0,-9.527460098E0,-1.418117642E0
2.400189563E1,-1.987294793E0,-9.480938911E0,-1.527358532E0
2.402216620E1,-1.972674847E0,-9.438864708E0,-1.785153985E0
2.404243672E1,-1.873585343E0,-9.428958893E0,-1.937729120E0
2.406270724E1,-1.741199493E0,-9.460330009E0,-1.908080935E0
2.408297782E1,-1.626515746E0,-9.503191948E0,-1.792814016E0
2.410324839E1,-1.562730312E0,-9.550929070E0,-1.583667636E0
2.412351896E1,-1.531047583E0,-9.600502968E0,-1.287097454E0
2.414378948E1,-1.536223054E0,-9.631992340E0,-1.017414808E0
2.416406006E1,-1.613880515E0,-9.639653206E0,-8.017912507E-1
2.418433063E1,-1.741421938E0,-9.629736900E0,-6.371859312E-1
2.420460115E1,-1.871377468E0,-9.612236977E0,-5.227080584E-1
2.422487172E1,-1.982575297E0,-9.594347000E0,-4.339321256E-1
2.424514224E1,-2.075300217E0,-9.577445984E0,-3.688418269E-1
2.426541282E1,-2.168817282E0,-9.556170464E0,-3.824130893E-1
2.428568339E1,-2.267673254E0,-9.529720306E0,-4.609528184E-1
2.430595391E1,-2.358468056E0,-9.503129005E0,-5.464072227E-1
2.432622448E1,-2.434852362E0,-9.480073929E0,-6.083336473E-1
2.434649500E1,-2.510562181E0,-9.456221581E0,-6.688348055E-1
2.436676552E1,-2.580881596E0,-9.428584099E0,-7.818235755E-1
2.438703610E1,-2.622223139E0,-9.400852203E0,-9.582810998E-1
2.440730667E1,-2.634500265E0,-9.359282494E0,-1.278124571E0
2.442757719E1,-2.579380035E0,-9.291708946E0,-1.783630610E0
2.444784771E1,-2.429471493E0,-9.215373993E0,-2.311913967E0
2.446811828E1,-2.165676594E0,-9.147293091E0,-2.794145584E0
2.448838875E1,-1.786198974E0,-9.134311676E0,-3.089373112E0
2.450865933E1,-1.332170010E0,-9.128054619E0,-3.327811241E0
2.452892990E1,-8.952763677E-1,-9.086000443E0,-3.579589128E0
2.454920042E1,-5.194317102E-1,-9.074492455E0,-3.681598425E0
2.456947094E1,-1.437761933E-1,-9.092979431E0,-3.669801474E0
2.458974151E1,2.347933054E-1,-9.110555649E0,-3.621192932E0
2.461001203E1,5.030983686E-1,-9.106489182E0,-3.604045153E0
2.463028256E1,6.668962240E-1,-9.083477974E0,-3.635391712E0
2.465055313E1,7.340590358E-1,-9.059332848E0,-3.682397366E0
2.467082365E1,6.870503426E-1,-9.044475555E0,-3.727708340E0
2.469109417E1,5.861529112E-1,-9.020996094E0,-3.801109076E0
2.471136469E1,4.393405020E-1,-8.984685898E0,-3.905480862E0
2.473163521E1,2.393232137E-1,-8.951691628E0,-3.997540951E0
2.475190573E1,-3.616731986E-2,-8.949523926E0,-4.009375572E0
2.477217625E1,-3.134810925E-1,-8.987689018E0,-3.910696268E0
2.479244683E1,-5.336674452E-1,-9.037930489E0,-3.768475056E0
2.481271735E1,-7.214561105E-1,-9.075773239E0,-3.644203901E0
2.483298787E1,-8.753482103E-1,-9.082942009E0,-3.592258692E0
2.485325839E1,-9.423219562E-1,-9.030268669E0,-3.706299543E0
2.487352891E1,-8.742792606E-1,-8.995057106E0,-3.807224512E0
2.489379938E1,-8.123425245E-1,-9.070614815E0,-3.637914419E0
2.491406995E1,-9.966486692E-1,-9.133586884E0,-3.428509235E0
2.493434047E1,-1.405472040E0,-9.104058266E0,-3.363205433E0
2.495461099E1,-1.344224334E0,-9.149334908E0,-3.263910294E0
2.497488146E1,-1.013666987E0,-9.254663467E0,-3.081247091E0
2.499515198E1,-9.208227992E-1,-9.307482719E0,-2.948426962E0
2.501542250E1,-1.101020813E0,-9.314414024E0,-2.863536596E0
2.503569302E1,-1.448192835E0,-9.291488647E0,-2.782329321E0
2.505596354E1,-1.774667740E0,-9.258420944E0,-2.702331066E0
2.507623407E1,-2.004385233E0,-9.248040199E0,-2.574212074E0
2.509650459E1,-2.110540390E0,-9.273408890E0,-2.391627073E0
2.511690459E1,-2.125794172E0,-9.314268112E0,-2.212643623E0
2.513704558E1,-2.124629021E0,-9.346868515E0,-2.071809292E0
2.515731610E1,-2.143325090E0,-9.370075226E0,-1.943770051E0
2.517758662E1,-2.221819639E0,-9.374252319E0,-1.832290649E0
2.519785709E1,-2.340826988E0,-9.362002373E0,-1.744658470E0
2.521825709E1,-2.429371357E0,-9.356563568E0,-1.650231242E0
2.523839813E1,-2.467770338E0,-9.362635612E0,-1.556135654E0
2.525866860E1,-2.477082968E0,-9.374584198E0,-1.466838121E0
2.527893912E1,-2.470399380E0,-9.389194489E0,-1.382223964E0
2.529920964E1,-2.447569370E0,-9.406318665E0,-1.304201484E0
2.531960964E1,-2.409772158E0,-9.427140236E0,-1.221643925E0
2.533975063E1,-2.373448133E0,-9.448003769E0,-1.127987266E0
2.536002115E1,-2.350827694E0,-9.466471672E0,-1.014842153E0
2.538029167E1,-2.351155281E0,-9.479969978E0,-8.789790273E-1
2.540056214E1,-2.379384279E0,-9.486056328E0,-7.236430049E-1
2.542096214E1,-2.427507162E0,-9.484011650E0,-5.754416585E-1
2.544110318E1,-2.479941368E0,-9.477789879E0,-4.379078150E-1
2.546137365E1,-2.522909880E0,-9.471917152E0,-2.967928946E-1
2.548164417E1,-2.560851097E0,-9.465153694E0,-1.526259035E-1
2.550191469E1,-2.596346140E0,-9.456705093E0,-1.039529592E-2
2.552231469E1,-2.626100302E0,-9.447566986E0,1.320667416E-1
2.554245568E1,-2.652954578E0,-9.437112808E0,2.703921795E-1
2.556272620E1,-2.686453342E0,-9.422957420E0,4.015191495E-1
2.558299662E1,-2.720113754E0,-9.407905579E0,5.125135183E-1
2.560326719E1,-2.733022690E0,-9.400384903E0,5.777061582E-1
2.562353766E1,-2.666359186E0,-9.417661667E0,6.070898175E-1
2.564380818E1,-2.501486063E0,-9.464096069E0,5.863883495E-1
2.566407865E1,-2.288342953E0,-9.523385048E0,4.888768792E-1
2.568434917E1,-2.066806793E0,-9.583294868E0,2.431806326E-1
2.570461964E1,-1.847671628E0,-9.629810333E0,-1.525183022E-1
2.572489016E1,-1.630885839E0,-9.650470734E0,-6.156485677E-1
2.574516063E1,-1.412659407E0,-9.649608612E0,-1.029485345E0
2.576543115E1,-1.153069615E0,-9.638546944E0,-1.392559052E0
2.578570162E1,-8.869313002E-1,-9.614583969E0,-1.715671539E0
2.580597214E1,-6.355203986E-1,-9.570336342E0,-2.043321609E0
2.582624261E1,-3.747331202E-1,-9.491170883E0,-2.438776493E0
2.584651308E1,-1.406053156E-1,-9.375050545E0,-2.873854876E0
2.586678360E1,1.220407784E-1,-9.227139473E0,-3.318941832E0
2.588705407E1,4.075537324E-1,-9.058145523E0,-3.735542297E0
2.590732459E1,6.326571107E-1,-8.916849136E0,-4.032360077E0
2.592759506E1,7.962709069E-1,-8.816954613E0,-4.218726635E0
2.594786558E1,8.782205582E-1,-8.740843773E0,-4.358528614E0
2.596813604E1,8.870183825E-1,-8.677540779E0,-4.481503487E0
2.598840651E1,8.951181769E-1,-8.658537865E0,-4.516510010E0
2.600867698E1,8.526000381E-1,-8.685120583E0,-4.473494530E0
2.602894750E1,7.247768641E-1,-8.726118088E0,-4.415875435E0
2.604921797E1,5.193117261E-1,-8.784291267E0,-4.328616619E0
2.606948844E1,2.483986020E-1,-8.852127075E0,-4.212899685E0
2.608975896E1,-7.221854478E-2,-8.914396286E0,-4.086406231E0
2.611002943E1,-3.920349479E-1,-8.969828606E0,-3.944475651E0
2.613029990E1,-6.346870065E-1,-9.017930984E0,-3.800587416E0
2.615057037E1,-7.505791187E-1,-9.072978020E0,-3.645282745E0
2.617084089E1,-7.998175025E-1,-9.139280319E0,-3.464714527E0
2.619111136E1,-8.588865399E-1,-9.194265366E0,-3.301241159E0
2.621138183E1,-9.394093156E-1,-9.233006477E0,-3.168513775E0
2.623165230E1,-1.036986113E0,-9.267763138E0,-3.033746481E0
2.625192276E1,-1.154581904E0,-9.308593750E0,-2.861365795E0
2.627219328E1,-1.284785509E0,-9.346071243E0,-2.677810431E0
2.629246375E1,-1.455598474E0,-9.349921227E0,-2.574996710E0
2.631273422E1,-1.701954126E0,-9.293609619E0,-2.627269745E0
2.633300469E1,-1.793250561E0,-9.192340851E0,-2.907835245E0
2.635327516E1,-1.364947557E0,-9.192052841E0,-3.132647514E0
2.637354563E1,-5.515284538E-1,-9.361249924E0,-2.869357109E0
2.639381615E1,1.862284094E-1,-9.429896355E0,-2.685659170E0
2.641408662E1,4.646141827E-1,-9.397872925E0,-2.763062000E0
2.643435709E1,1.459981203E-1,-9.379311562E0,-2.859649658E0
2.645462756E1,-3.115429878E-1,-9.376534462E0,-2.855509758E0
2.647489802E1,-5.648217797E-1,-9.400910378E0,-2.733907223E0
2.649516849E1,-6.228866577E-1,-9.451666832E0,-2.539365768E0
2.651543896E1,-6.049997211E-1,-9.504494667E0,-2.338576794E0
2.653570943E1,-5.943654180E-1,-9.543071747E0,-2.178733349E0
2.655597990E1,-5.996895432E-1,-9.565561295E0,-2.076243401E0
2.657625037E1,-6.439402699E-1,-9.576322556E0,-2.012406349E0
2.659652084E1,-7.352783680E-1,-9.582573891E0,-1.950389624E0
2.661679131E1,-8.547866940E-1,-9.581471443E0,-1.906603813E0
2.663706172E1,-9.808459282E-1,-9.574268341E0,-1.881945491E0
2.665733219E1,-1.063768744E0,-9.571263313E0,-1.851941943E0
2.667760266E1,-1.085970759E0,-9.574624062E0,-1.821434140E0
2.669787308E1,-1.078853965E0,-9.573817253E0,-1.829882741E0
2.671827308E1,-1.060572386E0,-9.566731453E0,-1.877022982E0
2.673841401E1,-1.035654306E0,-9.557251930E0,-1.938233733E0
2.675868448E1,-1.020620108E0,-9.546355247E0,-1.998955965E0
2.677895495E1,-1.011931300E0,-9.537896156E0,-2.043260098E0
2.679922542E1,-9.822661877E-1,-9.523285866E0,-2.124282360E0
2.681962542E1,-9.012909532E-1,-9.490869522E0,-2.298144579E0
2.683976630E1,-7.387216687E-1,-9.429851532E0,-2.588931322E0
2.686003677E1,-5.185645819E-1,-9.320995331E0,-3.003421783E0
2.688030724E1,-2.837174833E-1,-9.177654266E0,-3.443913937E0
2.690057771E1,-2.096120268E-2,-9.030749321E0,-3.823023081E0
2.692097771E1,2.032084465E-1,-8.911852837E0,-4.087537766E0
2.694111860E1,4.487963915E-1,-8.835394859E0,-4.231402874E0
2.696138907E1,7.473334074E-1,-8.806665421E0,-4.249063015E0
2.698165953E1,1.005781293E0,-8.802680969E0,-4.203759193E0
2.700193000E1,1.241834164E0,-8.786280632E0,-4.174867153E0
2.702233000E1,1.406629920E0,-8.757616997E0,-4.182814598E0
2.704247089E1,1.444070816E0,-8.742347717E0,-4.201952934E0
2.706274136E1,1.370120764E0,-8.742892265E0,-4.225517273E0
2.708301183E1,1.212481260E0,-8.757874489E0,-4.242629051E0
2.710328230E1,1.022512078E0,-8.790124893E0,-4.225939751E0
2.712355271E1,8.172485828E-1,-8.846106529E0,-4.153179169E0
2.714382318E1,5.895919204E-1,-8.931673050E0,-4.005993366E0
2.716409365E1,3.351269662E-1,-9.037892342E0,-3.791382551E0
2.718436407E1,2.782171965E-2,-9.154811859E0,-3.515542746E0
2.720463453E1,-3.272686601E-1,-9.262816429E0,-3.203674078E0
2.722490495E1,-6.471015215E-1,-9.348572731E0,-2.890644789E0
2.724517542E1,-9.047555327E-1,-9.415508270E0,-2.588438511E0
2.726544589E1,-1.064176917E0,-9.471749306E0,-2.307354450E0
2.728584589E1,-1.137755156E0,-9.512730598E0,-2.093762159E0
2.730598677E1,-1.124235868E0,-9.533835411E0,-2.003114462E0
2.732625714E1,-1.000086546E0,-9.562438011E0,-1.931318164E0
2.734652766E1,-8.929642439E-1,-9.587064743E0,-1.860423207E0
2.736679808E1,-8.610717058E-1,-9.595753670E0,-1.830426216E0
2.738706854E1,-9.391699433E-1,-9.583088875E0,-1.858159304E0
2.740733896E1,-1.088646293E0,-9.540672302E0,-1.990178466E0
2.742760943E1,-1.134842277E0,-9.516747475E0,-2.077023029E0
2.744787985E1,-1.015659928E0,-9.516425133E0,-2.139266253E0
2.746815026E1,-7.042536139E-1,-9.542572021E0,-2.147961617E0
2.748842073E1,-2.841138840E-1,-9.583911896E0,-2.058711767E0
2.750869115E1,-1.404775381E-1,-9.590923309E0,-2.040795326E0
2.752896157E1,-2.680045366E-1,-9.588317871E0,-2.040276051E0
2.754923203E1,-4.979256988E-1,-9.603547096E0,-1.922064781E0
2.756950245E1,-6.795164347E-1,-9.634891510E0,-1.696324229E0
2.758977292E1,-8.353981376E-1,-9.660023689E0,-1.468478441E0
2.761004334E1,-9.640404582E-1,-9.676044464E0,-1.270893455E0
2.763031375E1,-1.046558738E0,-9.689575195E0,-1.089598894E0
2.765058417E1,-1.086930990E0,-9.704340935E0,-9.026353955E-1
2.767085464E1,-1.106751919E0,-9.715114594E0,-7.496937513E-1
2.769112506E1,-1.131008863E0,-9.718960762E0,-6.580382586E-1
2.771139547E1,-1.148653626E0,-9.717066765E0,-6.554328799E-1
2.773166589E1,-1.167906284E0,-9.710359573E0,-7.178469300E-1
2.775193636E1,-1.193646431E0,-9.699567795E0,-8.148508072E-1
2.777220677E1,-1.250678420E0,-9.680829048E0,-9.421967864E-1
2.779247719E1,-1.309226751E0,-9.656929016E0,-1.095464468E0
2.781287719E1,-1.330497622E0,-9.634821892E0,-1.253144026E0
2.783301797E1,-1.302648067E0,-9.613277435E0,-1.434707522E0
2.785328844E1,-1.184293389E0,-9.582768440E0,-1.714172602E0
2.787355886E1,-9.647402763E-1,-9.522410393E0,-2.136204720E0
2.789382933E1,-6.821922064E-1,-9.411332130E0,-2.670551300E0
2.791409974E1,-3.821536005E-1,-9.280145645E0,-3.146941900E0
2.793437016E1,-1.551044732E-1,-9.151618004E0,-3.520541906E0
2.795464058E1,3.209019080E-2,-9.016805649E0,-3.855719328E0
2.797491099E1,1.929724365E-1,-8.894689560E0,-4.125244617E0
2.799518141E1,2.868311107E-1,-8.813198090E0,-4.291344643E0
2.801545183E1,3.481625617E-1,-8.794726372E0,-4.324577808E0
2.803572224E1,4.124989510E-1,-8.830432892E0,-4.245430470E0
2.805599266E1,4.327153265E-1,-8.896136284E0,-4.103888035E0
2.807626308E1,3.434758186E-1,-8.977479935E0,-3.931574106E0
2.809653355E1,1.133601516E-1,-9.071344376E0,-3.724008322E0
2.811680396E1,-2.361139357E-1,-9.173467636E0,-3.458629847E0
2.813707438E1,-6.739490628E-1,-9.265468597E0,-3.141221523E0
2.815734480E1,-1.095877171E0,-9.338637352E0,-2.785554886E0
2.817761516E1,-1.318176150E0,-9.415569305E0,-2.404128551E0
2.819788558E1,-1.354900837E0,-9.493404388E0,-2.051807165E0
2.821828558E1,-1.364362240E0,-9.551602364E0,-1.753797293E0
2.823842641E1,-1.414306641E0,-9.572484970E0,-1.593005300E0
2.825869683E1,-1.388100266E0,-9.565945625E0,-1.654158115E0
2.827896724E1,-1.247054935E0,-9.563900948E0,-1.773989201E0
2.829923766E1,-1.169747949E0,-9.560332298E0,-1.844487667E0
2.831963766E1,-1.234739423E0,-9.508980751E0,-2.055505514E0
2.833977844E1,-1.183574557E0,-9.436529160E0,-2.391959429E0
2.836004886E1,-9.527763128E-1,-9.424123764E0,-2.539386034E0
2.838031927E1,-7.695021033E-1,-9.433568954E0,-2.566328287E0
2.840058969E1,-7.427231073E-1,-9.436675072E0,-2.562792778E0
2.842098969E1,-8.261415958E-1,-9.460799217E0,-2.445636034E0
2.844113047E1,-8.995023966E-1,-9.511711121E0,-2.211025000E0
2.846140084E1,-9.121075273E-1,-9.562865257E0,-1.972323418E0
2.848167125E1,-9.327147007E-1,-9.600502968E0,-1.769395947E0
2.850194167E1,-1.008484602E0,-9.623699188E0,-1.593034148E0
2.852234167E1,-1.100864649E0,-9.634727478E0,-1.459631085E0
2.854248245E1,-1.173940063E0,-9.630559921E0,-1.429884911E0
2.856275287E1,-1.223700404E0,-9.613227844E0,-1.502930760E0
2.858302328E1,-1.229990005E0,-9.597987175E0,-1.592532277E0
2.860329365E1,-1.210097313E0,-9.582590103E0,-1.697063327E0
2.862356407E1,-1.194639564E0,-9.552515984E0,-1.868868113E0
2.864383443E1,-1.276375175E0,-9.492485046E0,-2.105700493E0
2.866410485E1,-1.427494884E0,-9.418896675E0,-2.327450275E0
2.868437526E1,-1.543603420E0,-9.344057083E0,-2.544855356E0
2.870464563E1,-1.569031358E0,-9.250559807E0,-2.852308989E0
2.872491599E1,-1.515873313E0,-9.120516777E0,-3.269355536E0
2.874518641E1,-1.354267597E0,-8.955460548E0,-3.759794950E0
2.876545677E1,-1.086243629E0,-8.827088356E0,-4.131946087E0
2.878572719E1,-7.522161007E-1,-8.731544495E0,-4.400532246E0
2.880599756E1,-4.664420485E-1,-8.632869720E0,-4.628861904E0
2.882626792E1,-2.843955457E-1,-8.557998657E0,-4.780185699E0
2.884653834E1,-8.498814702E-2,-8.534585953E0,-4.829492092E0
2.886680870E1,9.507779777E-2,-8.554724693E0,-4.793540478E0
2.888707907E1,2.162807882E-1,-8.614394188E0,-4.681433201E0
2.890734943E1,2.551538348E-1,-8.704247475E0,-4.510139942E0
2.892761985E1,1.757413894E-1,-8.809200287E0,-4.305519581E0
2.894789021E1,-1.709004937E-5,-8.927697182E0,-4.057907104E0
2.896816063E1,-2.372611612E-1,-9.059537888E0,-3.746849298E0
2.898843099E1,-5.026059151E-1,-9.188249588E0,-3.390256405E0
2.900870136E1,-7.448557019E-1,-9.296184540E0,-3.032578945E0
2.902897172E1,-9.023324251E-1,-9.383949280E0,-2.701418638E0
2.904924214E1,-1.014489889E0,-9.461458206E0,-2.371078968E0
2.906951250E1,-1.141986728E0,-9.518792152E0,-2.063700676E0
2.908978287E1,-1.280871868E0,-9.546195984E0,-1.843881488E0
2.911005323E1,-1.350477695E0,-9.557946205E0,-1.729814172E0
2.913032360E1,-1.296551943E0,-9.574463844E0,-1.678978443E0
2.915059396E1,-1.177600741E0,-9.605163574E0,-1.588863134E0
2.917086433E1,-1.093261600E0,-9.634121895E0,-1.469308376E0
2.919113469E1,-1.124625921E0,-9.639282227E0,-1.410616994E0
2.921140506E1,-1.247562289E0,-9.611969948E0,-1.491308689E0
2.923167542E1,-1.295408607E0,-9.574364662E0,-1.680433273E0
2.925194578E1,-1.103587866E0,-9.571287155E0,-1.828370571E0
2.927221615E1,-6.652339697E-1,-9.610639572E0,-1.833967447E0
2.929248651E1,-2.367169261E-1,-9.646308899E0,-1.750163198E0
2.931275688E1,-5.766328424E-2,-9.650827408E0,-1.740289450E0
2.933302724E1,-6.311374903E-2,-9.642440796E0,-1.785983324E0
2.935329761E1,-2.627894282E-1,-9.637221336E0,-1.795913815E0
2.937356797E1,-4.462749958E-1,-9.631420135E0,-1.790800571E0
2.939383828E1,-5.688183308E-1,-9.635511398E0,-1.733135223E0
2.941410860E1,-7.333424091E-1,-9.645674706E0,-1.610450387E0
2.943437896E1,-9.508427382E-1,-9.651701927E0,-1.452908754E0
2.945464933E1,-1.099816322E0,-9.654420853E0,-1.323990226E0
2.947491969E1,-1.071099281E0,-9.663473129E0,-1.280787230E0
2.949519006E1,-9.909732938E-1,-9.670372009E0,-1.293165326E0
2.951546042E1,-9.475868344E-1,-9.665806770E0,-1.358170748E0
2.953573073E1,-9.365262389E-1,-9.647372246E0,-1.490477443E0
2.955600110E1,-9.619298577E-1,-9.609207153E0,-1.705351710E0
2.957627146E1,-9.547906518E-1,-9.550086975E0,-2.013602972E0
2.959654183E1,-8.257778287E-1,-9.472335815E0,-2.400693655E0
2.961694183E1,-5.795798302E-1,-9.358743668E0,-2.872001410E0
2.963708250E1,-2.391468734E-1,-9.205854416E0,-3.371265173E0
2.965735287E1,1.250775754E-1,-9.063950539E0,-3.741596937E0
2.967762318E1,3.703050613E-1,-8.929070473E0,-4.037941933E0
2.969789355E1,4.738410115E-1,-8.787394524E0,-4.327536106E0
2.971829354E1,5.474435687E-1,-8.648725510E0,-4.590232372E0
2.973843422E1,6.754251122E-1,-8.570867538E0,-4.717458248E0
2.975870459E1,8.517884612E-1,-8.567121506E0,-4.695665359E0
2.977897490E1,1.013243318E0,-8.606756210E0,-4.589931965E0
2.979924526E1,1.088159204E0,-8.664286613E0,-4.462784767E0
2.981964526E1,1.029770136E0,-8.727168083E0,-4.352757454E0
2.983978594E1,8.576146960E-1,-8.792376518E0,-4.257815361E0
2.986005625E1,5.932537317E-1,-8.864710808E0,-4.151546001E0
2.988032662E1,2.354136109E-1,-8.947356224E0,-4.007463932E0
2.990059693E1,-1.909200996E-1,-9.032435417E0,-3.814319134E0
2.992099693E1,-6.613659263E-1,-9.106398582E0,-3.578614235E0
2.994113761E1,-1.090035915E0,-9.165652275E0,-3.312556028E0
2.996140792E1,-1.379272938E0,-9.224195480E0,-3.030215740E0
2.998167823E1,-1.542960286E0,-9.282872200E0,-2.760065079E0
3.000194860E1,-1.655623078E0,-9.339822769E0,-2.489380598E0
3.002221891E1,-1.743507266E0,-9.398731232E0,-2.189616203E0
3.004248927E1,-1.810786724E0,-9.448132515E0,-1.903740644E0
3.006275959E1,-1.851427913E0,-9.477672577E0,-1.707726240E0
3.008302990E1,-1.847723365E0,-9.494381905E0,-1.616480589E0
3.010330026E1,-1.825884223E0,-9.504050255E0,-1.584158182E0
3.012357058E1,-1.843745947E0,-9.496103287E0,-1.610903025E0
3.014384089E1,-1.910844326E0,-9.462759018E0,-1.724891305E0
3.016411120E1,-1.971711755E0,-9.428236008E0,-1.841494203E0
3.018438151E1,-1.925698519E0,-9.396208763E0,-2.042871714E0
3.020465188E1,-1.561569929E0,-9.378829002E0,-2.401971817E0
3.022492219E1,-1.193643093E0,-9.389717102E0,-2.564921618E0
3.024519250E1,-1.113248348E0,-9.386452675E0,-2.612578154E0
3.026546677E1,-1.248739600E0,-9.370693207E0,-2.607902765E0
3.028577167E1,-1.415839314E0,-9.381381035E0,-2.481021166E0
3.030600287E1,-1.486811042E0,-9.437479973E0,-2.212183237E0
3.032627328E1,-1.476233721E0,-9.491578102E0,-1.975112200E0
3.034654370E1,-1.444729686E0,-9.534770966E0,-1.780808091E0
3.036681407E1,-1.448992133E0,-9.573773384E0,-1.553596497E0
3.038708443E1,-1.495214343E0,-9.592818260E0,-1.382948995E0
3.040735480E1,-1.563902378E0,-9.586687088E0,-1.349078536E0
3.042762516E1,-1.646926403E0,-9.571102142E0,-1.360890269E0
3.044789552E1,-1.689798117E0,-9.564971924E0,-1.351400733E0
3.046816584E1,-1.685394287E0,-9.562973976E0,-1.370901465E0
3.048843615E1,-1.658017516E0,-9.558680534E0,-1.432829022E0
3.050870651E1,-1.669727445E0,-9.540344238E0,-1.537602186E0
3.052897683E1,-1.695435047E0,-9.509991646E0,-1.689956903E0
3.054924714E1,-1.700332522E0,-9.467354774E0,-1.910094857E0
3.056951745E1,-1.619678497E0,-9.417627335E0,-2.203481674E0
3.058978771E1,-1.391168714E0,-9.358208656E0,-2.580496073E0
3.061005808E1,-1.024224162E0,-9.257122993E0,-3.070345640E0
3.063032839E1,-5.721142888E-1,-9.114873886E0,-3.572414875E0
3.065059870E1,-2.385020256E-1,-8.984537125E0,-3.923213243E0
3.067086901E1,-1.744510047E-2,-8.873351097E0,-4.175371170E0
3.069113927E1,2.321456671E-1,-8.775463104E0,-4.371240139E0
3.071140959E1,4.260126054E-1,-8.726277351E0,-4.454322815E0
3.073167990E1,5.980498195E-1,-8.705139160E0,-4.475854397E0
3.075195016E1,7.090212703E-1,-8.699526787E0,-4.470560074E0
3.077222047E1,7.559117675E-1,-8.707083702E0,-4.448110104E0
3.079249078E1,6.954715848E-1,-8.713328362E0,-4.445741653E0
3.081276110E1,5.392073393E-1,-8.724640846E0,-4.445253372E0
3.083303136E1,3.407471478E-1,-8.765232086E0,-4.384628773E0
3.085330167E1,1.234565750E-1,-8.846724510E0,-4.229730606E0
3.087357193E1,-1.376827061E-1,-8.958484650E0,-3.987103224E0
3.089384224E1,-4.797258973E-1,-9.072832108E0,-3.691067696E0
3.091411256E1,-8.889887333E-1,-9.171049118E0,-3.357373714E0
3.093438282E1,-1.293651462E0,-9.245602608E0,-3.002614975E0
3.095465313E1,-1.623286963E0,-9.301189423E0,-2.650135279E0
3.097492344E1,-1.892198086E0,-9.346934319E0,-2.285777807E0
3.099519370E1,-2.080927372E0,-9.380719185E0,-1.960160732E0
3.101546401E1,-2.126203537E0,-9.410078049E0,-1.760701537E0
3.103573427E1,-2.081733227E0,-9.433285713E0,-1.688169003E0
3.105600459E1,-2.004554272E0,-9.456599236E0,-1.650721073E0
3.107627485E1,-2.045186996E0,-9.440121651E0,-1.694611907E0
3.109654516E1,-2.217170238E0,-9.345912933E0,-1.976979017E0
3.111681542E1,-2.265368938E0,-9.236761093E0,-2.391805410E0
3.113708573E1,-2.023454666E0,-9.223749161E0,-2.645458460E0
3.115735599E1,-1.702327013E0,-9.232325554E0,-2.834896803E0
3.117762625E1,-1.669568181E0,-9.241361618E0,-2.824917793E0
3.119789657E1,-1.744422078E0,-9.265069962E0,-2.699234009E0
3.121829657E1,-1.857682467E0,-9.320608139E0,-2.417782068E0
3.123843714E1,-1.931268811E0,-9.390922546E0,-2.061839104E0
3.125870740E1,-1.972645044E0,-9.434215546E0,-1.809598684E0
3.127897766E1,-1.984009624E0,-9.471210480E0,-1.590681314E0
3.129924797E1,-1.987794399E0,-9.508862495E0,-1.341859221E0
3.131964797E1,-1.997962832E0,-9.533485413E0,-1.136299491E0
3.133978849E1,-2.052676201E0,-9.534367561E0,-1.026036501E0
3.136005875E1,-2.184766769E0,-9.508786201E0,-9.900335670E-1
3.138032907E1,-2.338595867E0,-9.470872879E0,-1.001954198E0
3.140059933E1,-2.463798046E0,-9.437491417E0,-1.016781092E0
3.142099933E1,-2.550355673E0,-9.415616035E0,-1.006108642E0
3.144113990E1,-2.613489628E0,-9.401451111E0,-9.761006236E-1
3.146141016E1,-2.680643559E0,-9.381030083E0,-9.903635979E-1
3.148168042E1,-2.755233049E0,-9.352516174E0,-1.053331256E0
3.150195068E1,-2.833929062E0,-9.315301895E0,-1.168064713E0
3.152235068E1,-2.874372244E0,-9.269168854E0,-1.410985351E0
3.154249120E1,-2.803074121E0,-9.217162132E0,-1.832230449E0
3.156276146E1,-2.605947971E0,-9.159847260E0,-2.340219498E0
3.158303172E1,-2.295861006E0,-9.137641907E0,-2.720829487E0
3.160330203E1,-1.911948085E0,-9.140162468E0,-2.995373964E0
3.162357230E1,-1.546482205E0,-9.123181343E0,-3.247511387E0
3.164384256E1,-1.233488441E0,-9.090912819E0,-3.464708090E0
3.166411282E1,-9.189775586E-1,-9.080669403E0,-3.587103844E0
3.168438308E1,-6.079692841E-1,-9.094421387E0,-3.618322849E0
3.170465334E1,-3.342777789E-1,-9.122443199E0,-3.583250999E0
3.172492360E1,-1.543785185E-1,-9.155198097E0,-3.511252642E0
3.174519386E1,-6.061790884E-2,-9.189848900E0,-3.422483444E0
3.176546412E1,-4.465870932E-2,-9.225461960E0,-3.325545549E0
3.178573438E1,-1.289875954E-1,-9.260981560E0,-3.223037958E0
3.180600464E1,-2.801035345E-1,-9.290762901E0,-3.126286507E0
3.182627490E1,-4.590342045E-1,-9.297698975E0,-3.084227085E0
3.184654516E1,-6.781216860E-1,-9.277428627E0,-3.104815006E0
3.186681542E1,-1.003582597E0,-9.254572868E0,-3.084813833E0
3.188708568E1,-1.355064154E0,-9.259158134E0,-2.932947874E0
3.190735594E1,-1.631198883E0,-9.271101952E0,-2.748862743E0
3.192762620E1,-1.847787499E0,-9.239680290E0,-2.717419624E0
3.194789646E1,-2.008141279E0,-9.151224136E0,-2.897044897E0
3.196816672E1,-2.045885086E0,-9.045680046E0,-3.187540770E0
3.198843698E1,-1.908298731E0,-9.013434410E0,-3.359580994E0
3.200870724E1,-1.731094003E0,-9.080587387E0,-3.273626328E0
3.202897750E1,-1.691498399E0,-9.128517151E0,-3.159018993E0
3.204924776E1,-1.629823208E0,-9.140298843E0,-3.157372236E0
3.206951797E1,-1.634500623E0,-9.146827698E0,-3.135974884E0
3.208978818E1,-1.782662868E0,-9.163596153E0,-3.003496408E0
3.211005844E1,-1.985334873E0,-9.176619530E0,-2.831694365E0
3.213032870E1,-2.127490997E0,-9.218730927E0,-2.580538750E0
3.215059896E1,-2.147136211E0,-9.288249969E0,-2.299694061E0
3.217086922E1,-2.069382668E0,-9.366405487E0,-2.039238214E0
3.219113948E1,-2.028561592E0,-9.427821159E0,-1.780873060E0
3.221140980E1,-2.064592838E0,-9.457259178E0,-1.571018696E0
3.223168000E1,-2.147956610E0,-9.464324951E0,-1.408262849E0
3.225195021E1,-2.242081881E0,-9.461818695E0,-1.271787286E0
3.227222047E1,-2.323564053E0,-9.460068703E0,-1.130725861E0
3.229249073E1,-2.376712084E0,-9.464827538E0,-9.688402414E-1
3.231289073E1,-2.396292686E0,-9.475634575E0,-8.003253341E-1
3.233303125E1,-2.388722181E0,-9.490297318E0,-6.313787699E-1
3.235330146E1,-2.368321180E0,-9.505889893E0,-4.466489851E-1
3.237357172E1,-2.346989870E0,-9.517917633E0,-2.669948339E-1
3.239384198E1,-2.329438686E0,-9.525440216E0,-1.005626321E-1
3.241411224E1,-2.320195675E0,-9.528081894E0,5.221058428E-2
3.243438250E1,-2.326287508E0,-9.524869919E0,1.887764782E-1
3.245465271E1,-2.342755079E0,-9.518000603E0,2.992630005E-1
3.247492297E1,-2.355227470E0,-9.512661934E0,3.640783429E-1
3.249519323E1,-2.367096663E0,-9.509819031E0,3.613602221E-1
3.251546750E1,-2.382617712E0,-9.509516716E0,2.502570152E-1
3.253577224E1,-2.350885153E0,-9.520534515E0,5.615593120E-2
3.255600339E1,-2.254351377E0,-9.541728020E0,-2.090572864E-1
3.257627380E1,-2.168699980E0,-9.544987679E0,-6.002810597E-1
3.259654412E1,-2.081424236E0,-9.510699272E0,-1.176715851E0
3.261681443E1,-1.944267154E0,-9.438479424E0,-1.818053126E0
3.263708474E1,-1.723792672E0,-9.377121925E0,-2.295323849E0
3.265735500E1,-1.439274311E0,-9.340097427E0,-2.619440794E0
3.267762526E1,-1.138371587E0,-9.298075676E0,-2.901773930E0
3.269789552E1,-8.508526683E-1,-9.239754677E0,-3.173859596E0
3.271829558E1,-6.448010206E-1,-9.153545380E0,-3.459367275E0
3.273843610E1,-5.389436483E-1,-9.054029465E0,-3.728868008E0
3.275870636E1,-4.640105367E-1,-8.957263947E0,-3.965161562E0
3.277897662E1,-3.686329722E-1,-8.874320984E0,-4.157034397E0
3.279924688E1,-2.672872543E-1,-8.812661171E0,-4.293710232E0
3.281964688E1,-1.697959900E-1,-8.782305717E0,-4.360351562E0
3.283978735E1,-8.965613693E-2,-8.787774086E0,-4.351708889E0
3.286005761E1,-7.965173572E-2,-8.819710732E0,-4.286810875E0
3.288032787E1,-1.539473832E-1,-8.864873886E0,-4.190546989E0
3.290059813E1,-3.071464002E-1,-8.916118622E0,-4.071716309E0
3.292099813E1,-5.142952800E-1,-8.970731735E0,-3.928339958E0
3.294113860E1,-7.642033100E-1,-9.019514084E0,-3.772895098E0
3.296140886E1,-1.042870641E0,-9.057560921E0,-3.611564159E0
3.298167907E1,-1.282562256E0,-9.087180138E0,-3.456672192E0
3.300194933E1,-1.412305355E0,-9.120387077E0,-3.315770626E0
3.302221959E1,-1.466979027E0,-9.154795647E0,-3.195007801E0
3.304248980E1,-1.490009427E0,-9.196840286E0,-3.060781240E0
3.306276006E1,-1.489109397E0,-9.244982719E0,-2.912597179E0
3.308303026E1,-1.485788703E0,-9.291852951E0,-2.761210680E0
3.310330052E1,-1.503354073E0,-9.334109306E0,-2.604748011E0
3.312357078E1,-1.545934319E0,-9.368152618E0,-2.453200579E0
3.314384099E1,-1.599488854E0,-9.396491051E0,-2.306075573E0
3.316411125E1,-1.660665870E0,-9.405169487E0,-2.226066828E0
3.318438151E1,-1.722071409E0,-9.378060341E0,-2.292779922E0
3.320465172E1,-1.670874834E0,-9.331619263E0,-2.509869814E0
3.322492198E1,-1.406446099E0,-9.256675720E0,-2.916546345E0
3.324519224E1,-9.776547551E-1,-9.263379097E0,-3.066656828E0
3.326546245E1,-7.754091620E-1,-9.313076019E0,-2.972498178E0
3.328573271E1,-8.125457168E-1,-9.314766884E0,-2.957243204E0
3.330600292E1,-1.033460259E0,-9.318429947E0,-2.875622988E0
3.332627318E1,-1.203604102E0,-9.378292084E0,-2.601797104E0
3.334654339E1,-1.187207222E0,-9.469452858E0,-2.256189585E0
3.336681365E1,-1.075724721E0,-9.549254417E0,-1.955743194E0
3.338708391E1,-1.002899647E0,-9.606352806E0,-1.697816372E0
3.340735412E1,-1.019445419E0,-9.640610695E0,-1.479780555E0
3.342762438E1,-1.090421915E0,-9.652881622E0,-1.342848063E0
3.344789459E1,-1.227761865E0,-9.646817207E0,-1.265661478E0
3.346816485E1,-1.364271760E0,-9.637177467E0,-1.197480798E0
3.348843511E1,-1.488881588E0,-9.625392914E0,-1.142554283E0
3.350870532E1,-1.573649883E0,-9.615847588E0,-1.108819485E0
3.352897558E1,-1.581263542E0,-9.613997459E0,-1.114025474E0
3.354924578E1,-1.516129732E0,-9.615288734E0,-1.190785170E0
3.356951604E1,-1.457972646E0,-9.607687950E0,-1.317969561E0
3.358978625E1,-1.419259906E0,-9.596872330E0,-1.433923244E0
3.361005646E1,-1.396524787E0,-9.587334633E0,-1.517606378E0
3.363032672E1,-1.379631042E0,-9.585707664E0,-1.543125391E0
3.365059698E1,-1.372681499E0,-9.589751244E0,-1.524074197E0
3.367086724E1,-1.371870637E0,-9.592057228E0,-1.510228157E0
3.369113745E1,-1.349317193E0,-9.584179878E0,-1.578996301E0
3.371140771E1,-1.258199930E0,-9.554617882E0,-1.815653443E0
3.373167792E1,-1.076026559E0,-9.495550156E0,-2.201609135E0
3.375194818E1,-8.550605178E-1,-9.400280952E0,-2.659694672E0
3.377221839E1,-6.123287082E-1,-9.266892433E0,-3.149626970E0
3.379248860E1,-3.410128653E-1,-9.125033379E0,-3.576011896E0
3.381275886E1,-1.086547300E-1,-9.016090393E0,-3.855993271E0
3.383302912E1,1.264471114E-1,-8.925858498E0,-4.059982777E0
3.385329927E1,2.983998954E-1,-8.844518661E0,-4.225615978E0
3.387356953E1,4.640269279E-1,-8.795049667E0,-4.313023090E0
3.389383980E1,6.893180013E-1,-8.794513702E0,-4.283895493E0
3.391411000E1,8.669404984E-1,-8.812169075E0,-4.214793682E0
3.393438026E1,9.078739285E-1,-8.824936867E0,-4.179311752E0
3.395465047E1,7.902913690E-1,-8.828208923E0,-4.196253777E0
3.397492073E1,5.758451819E-1,-8.842414856E0,-4.201250553E0
3.399519094E1,3.040654063E-1,-8.907729149E0,-4.090267181E0
3.401546115E1,3.077163920E-2,-9.025433540E0,-3.835490942E0
3.403573141E1,-2.610617280E-1,-9.154761314E0,-3.506076813E0
3.405600162E1,-5.947335362E-1,-9.277708054E0,-3.121026754E0
3.407627188E1,-9.375883937E-1,-9.378567696E0,-2.708097219E0
3.409654209E1,-1.249755263E0,-9.448386192E0,-2.310086966E0
3.411694209E1,-1.497155309E0,-9.487964630E0,-1.976725459E0
3.413708256E1,-1.609481692E0,-9.507872581E0,-1.783346057E0
3.415735276E1,-1.556861758E0,-9.525292397E0,-1.736485124E0
3.417762302E1,-1.346909046E0,-9.560675621E0,-1.717472315E0
3.419789323E1,-1.158543348E0,-9.596814156E0,-1.652059317E0
3.421829323E1,-1.107467890E0,-9.582139969E0,-1.768192530E0
3.423843370E1,-9.863202572E-1,-9.506484985E0,-2.196428537E0
3.425870391E1,-6.689099073E-1,-9.432490349E0,-2.598283768E0
3.427897412E1,-4.833919108E-1,-9.381240845E0,-2.815856934E0
3.429924433E1,-4.783534706E-1,-9.361946106E0,-2.880195379E0
3.431964433E1,-5.465265512E-1,-9.371479988E0,-2.836734533E0
3.433978480E1,-6.563906074E-1,-9.412079811E0,-2.674375534E0
3.436005500E1,-7.439303994E-1,-9.454219818E0,-2.496935844E0
3.438032526E1,-7.478315234E-1,-9.498362541E0,-2.322120190E0
3.440059547E1,-7.044227719E-1,-9.550541878E0,-2.112184763E0
3.442099547E1,-6.868085861E-1,-9.592409134E0,-1.919470429E0
3.444113589E1,-7.050231099E-1,-9.614550591E0,-1.798262000E0
3.446140615E1,-7.872488499E-1,-9.620084763E0,-1.733378053E0
3.448167636E1,-9.183121324E-1,-9.618325233E0,-1.677771807E0
3.450194657E1,-1.035392046E0,-9.617425919E0,-1.613521934E0
3.452234657E1,-1.104989886E0,-9.621338844E0,-1.542467833E0
3.454248703E1,-1.109009624E0,-9.629652977E0,-1.486701131E0
3.456275724E1,-1.066357970E0,-9.637579918E0,-1.466396451E0
3.458302745E1,-1.022710562E0,-9.638212204E0,-1.493093014E0
3.460329766E1,-1.005464196E0,-9.629600525E0,-1.558917522E0
3.462356787E1,-1.018039227E0,-9.611080170E0,-1.661662817E0
3.464383808E1,-1.020110011E0,-9.586276054E0,-1.798075080E0
3.466410834E1,-9.638676047E-1,-9.553369522E0,-1.993612647E0
3.468437854E1,-8.654237986E-1,-9.486619949E0,-2.329263926E0
3.470464875E1,-7.749148607E-1,-9.346673965E0,-2.865236521E0
3.472491896E1,-7.021924257E-1,-9.161406517E0,-3.427234411E0
3.474518917E1,-6.292808056E-1,-8.984962463E0,-3.878767729E0
3.476546339E1,-4.434556365E-1,-8.844948769E0,-4.211960793E0
3.478576813E1,-1.997203231E-1,-8.756644249E0,-4.410406590E0
3.480599927E1,2.752937563E-2,-8.700326920E0,-4.524813652E0
3.482626964E1,1.929238588E-1,-8.653406143E0,-4.609960079E0
3.484653990E1,2.491175830E-1,-8.634126663E0,-4.643294334E0
3.486681021E1,2.270811945E-1,-8.654374123E0,-4.606585979E0
3.488708042E1,1.265431792E-1,-8.715739250E0,-4.493358135E0
3.490735068E1,-4.428873584E-2,-8.813117981E0,-4.300858974E0
3.492762094E1,-2.527037263E-1,-8.941987038E0,-4.018381119E0
3.494789115E1,-4.850197136E-1,-9.084023476E0,-3.662739038E0
3.496816141E1,-7.568517327E-1,-9.207774162E0,-3.288534403E0
3.498843162E1,-1.054777622E0,-9.296098709E0,-2.939455509E0
3.500870188E1,-1.327334881E0,-9.359613419E0,-2.608872414E0
3.502897209E1,-1.574214220E0,-9.411562920E0,-2.261572361E0
3.504924230E1,-1.802267313E0,-9.444803238E0,-1.928189874E0
3.506951250E1,-1.930916667E0,-9.465976715E0,-1.684408188E0
3.508978271E1,-1.902633667E0,-9.490525246E0,-1.574899912E0
3.511005297E1,-1.768929124E0,-9.526231766E0,-1.513997197E0
3.513032318E1,-1.605822682E0,-9.563147545E0,-1.462162852E0
3.515059339E1,-1.546142220E0,-9.566657066E0,-1.502970099E0
3.517086360E1,-1.653344750E0,-9.508733749E0,-1.738053679E0
3.519113380E1,-1.691792488E0,-9.442862511E0,-2.034838915E0
3.521140401E1,-1.503240943E0,-9.452617645E0,-2.135105610E0
3.523167417E1,-1.133584261E0,-9.476039886E0,-2.256109953E0
3.525194438E1,-9.334653020E-1,-9.501761436E0,-2.239542961E0
3.527221459E1,-9.055184722E-1,-9.524773598E0,-2.151535511E0
3.529248480E1,-9.224597812E-1,-9.544727325E0,-2.053685904E0
3.531275500E1,-9.589589238E-1,-9.575838089E0,-1.885239482E0
3.533302516E1,-9.944802523E-1,-9.613976479E0,-1.659174919E0
3.535329537E1,-1.076822877E0,-9.650174141E0,-1.372939706E0
3.537356558E1,-1.178318381E0,-9.675196648E0,-1.082831502E0
3.539383578E1,-1.220387459E0,-9.689186096E0,-8.948261142E-1
3.541410594E1,-1.192824602E0,-9.696209908E0,-8.550263047E-1
3.543437615E1,-1.156282306E0,-9.693759918E0,-9.297353625E-1
3.545464636E1,-1.156068087E0,-9.677765846E0,-1.083853364E0
3.547491651E1,-1.189299703E0,-9.642479897E0,-1.333613157E0
3.549518672E1,-1.212105870E0,-9.590018272E0,-1.653098464E0
3.551545693E1,-1.220362902E0,-9.513959885E0,-2.040996790E0
3.553572709E1,-1.142720103E0,-9.414611816E0,-2.495931625E0
3.555599730E1,-9.674342275E-1,-9.289491653E0,-2.989950657E0
3.557626750E1,-6.637024283E-1,-9.129801750E0,-3.518040180E0
3.559653766E1,-3.631660342E-1,-8.998691559E0,-3.880985975E0
3.561680787E1,-1.443420500E-1,-8.888877869E0,-4.139733791E0
3.563707808E1,3.416129202E-2,-8.761425972E0,-4.405295372E0
3.565734823E1,1.719086915E-1,-8.661721230E0,-4.595151424E0
3.567761844E1,2.522203922E-1,-8.640339851E0,-4.631554604E0
3.569788865E1,3.026308715E-1,-8.681894302E0,-4.550110340E0
3.571828865E1,2.950498164E-1,-8.761117935E0,-4.396149158E0
3.573842901E1,2.119086534E-1,-8.867160797E0,-4.183176517E0
3.575869917E1,3.487146273E-2,-8.994170189E0,-3.908205032E0
3.577896938E1,-2.546933293E-1,-9.123695374E0,-3.586599112E0
3.579923953E1,-6.580971479E-1,-9.237262726E0,-3.226496220E0
3.581963953E1,-1.079773903E0,-9.320399284E0,-2.852126122E0
3.583977990E1,-1.336483002E0,-9.382842064E0,-2.519221783E0
3.586005011E1,-1.454053879E0,-9.436131477E0,-2.239539146E0
3.588032026E1,-1.574396133E0,-9.478560448E0,-1.961773157E0
3.590059042E1,-1.677507639E0,-9.507226944E0,-1.723077178E0
3.592099042E1,-1.713900328E0,-9.521999359E0,-1.601386309E0
3.594113078E1,-1.654237986E0,-9.528887749E0,-1.623019338E0
3.596140099E1,-1.528856874E0,-9.509227753E0,-1.845966697E0
3.598167115E1,-1.462469816E0,-9.478610992E0,-2.046337605E0
3.600194130E1,-1.408817410E0,-9.454918861E0,-2.188636303E0
3.602234131E1,-1.253358245E0,-9.414347649E0,-2.443264484E0
3.604248167E1,-1.090589643E0,-9.374142647E0,-2.665792465E0
3.606275183E1,-1.063412547E0,-9.396401405E0,-2.597533941E0
3.608302203E1,-1.023250699E0,-9.443027496E0,-2.439789295E0
3.610329219E1,-1.015368581E0,-9.504487038E0,-2.191836834E0
3.612356235E1,-1.001003265E0,-9.560694695E0,-1.939456224E0
3.614383250E1,-1.045535326E0,-9.588350296E0,-1.772226214E0
3.616410271E1,-1.146891117E0,-9.602051735E0,-1.629614353E0
3.618437287E1,-1.258258700E0,-9.612462997E0,-1.479099274E0
3.620464302E1,-1.327485681E0,-9.619416237E0,-1.369310260E0
3.622491318E1,-1.374650240E0,-9.619818687E0,-1.319025517E0
3.624518339E1,-1.403917670E0,-9.621109962E0,-1.278139472E0
3.626545354E1,-1.404226899E0,-9.622994423E0,-1.263528466E0
3.628572370E1,-1.393201470E0,-9.624486923E0,-1.264360070E0
3.630599386E1,-1.359160185E0,-9.628686905E0,-1.269435406E0
3.632626401E1,-1.305843115E0,-9.628970146E0,-1.322154045E0
3.634653417E1,-1.283052444E0,-9.614391327E0,-1.444865704E0
3.636680433E1,-1.281637669E0,-9.588609695E0,-1.608214855E0
3.638707448E1,-1.227036834E0,-9.561361313E0,-1.801426411E0
3.640734464E1,-1.068936944E0,-9.528770447E0,-2.056767464E0
3.642761480E1,-8.205787539E-1,-9.470163345E0,-2.411026239E0
3.644788490E1,-5.396925211E-1,-9.371167183E0,-2.839074850E0
3.646815506E1,-3.166574836E-1,-9.244773865E0,-3.256419659E0
3.648842526E1,-1.593713164E-1,-9.109375954E0,-3.628257275E0
3.650869542E1,6.627997849E-3,-8.985531807E0,-3.928175211E0
3.652896558E1,1.533883810E-1,-8.882095337E0,-4.153941154E0
3.654923573E1,3.163774908E-1,-8.812003136E0,-4.291724205E0
3.656950589E1,4.805800915E-1,-8.795177460E0,-4.310950279E0
3.658977604E1,5.897015333E-1,-8.813397408E0,-4.259891987E0
3.661004620E1,5.775243044E-1,-8.836920738E0,-4.212563992E0
3.663031636E1,4.259332716E-1,-8.857687950E0,-4.186923027E0
3.665058651E1,1.754784882E-1,-8.896901131E0,-4.121253490E0
3.667085662E1,-1.370607167E-1,-8.978596687E0,-3.941623926E0
3.669112672E1,-4.871346653E-1,-9.088060379E0,-3.652430534E0
3.671139688E1,-8.683977723E-1,-9.194471359E0,-3.298178196E0
3.673166709E1,-1.196351528E0,-9.283575058E0,-2.924784899E0
3.675193724E1,-1.339755297E0,-9.367658615E0,-2.573407650E0
3.677220740E1,-1.411334991E0,-9.439569473E0,-2.252345800E0
3.679247756E1,-1.507928848E0,-9.488001823E0,-1.968335271E0
3.681287750E1,-1.563181758E0,-9.516755104E0,-1.777139902E0
3.683301776E1,-1.539765358E0,-9.540071487E0,-1.669296741E0
3.685328782E1,-1.460263133E0,-9.564047813E0,-1.602192402E0
3.687355802E1,-1.414370179E0,-9.561144829E0,-1.659655929E0
3.689382818E1,-1.436720133E0,-9.522322655E0,-1.852456689E0
3.691409834E1,-1.396609664E0,-9.476527214E0,-2.101260900E0
3.693436839E1,-1.196047783E0,-9.461921692E0,-2.282956600E0
3.695463860E1,-9.257081747E-1,-9.468716621E0,-2.378415108E0
3.697490875E1,-8.395873308E-1,-9.476703644E0,-2.378566980E0
3.699517886E1,-8.857328296E-1,-9.490338326E0,-2.306369305E0
3.701544901E1,-9.862960577E-1,-9.521803856E0,-2.129049540E0
3.703571917E1,-1.059235692E0,-9.564972878E0,-1.886716366E0
3.705598927E1,-1.092871308E0,-9.598316193E0,-1.687703609E0
3.707625943E1,-1.124777317E0,-9.622937202E0,-1.518008232E0
3.709652959E1,-1.176600575E0,-9.645933151E0,-1.319840908E0
3.711679969E1,-1.239089847E0,-9.659004211E0,-1.157015324E0
3.713706985E1,-1.313528061E0,-9.655951500E0,-1.098919988E0
3.715733995E1,-1.387840986E0,-9.647271156E0,-1.083719015E0
3.717761011E1,-1.418552399E0,-9.642630577E0,-1.085247517E0
3.719788021E1,-1.419241548E0,-9.638495445E0,-1.120510101E0
3.721828021E1,-1.403888345E0,-9.631550789E0,-1.196966767E0
3.723842052E1,-1.387754679E0,-9.619187355E0,-1.309870958E0
3.725869063E1,-1.378924251E0,-9.600336075E0,-1.450001597E0
3.727896073E1,-1.382368326E0,-9.577265739E0,-1.592298865E0
3.729923089E1,-1.374977231E0,-9.560453415E0,-1.696340322E0
3.731963089E1,-1.306990623E0,-9.549858093E0,-1.806205273E0
3.733977115E1,-1.126371026E0,-9.533462524E0,-2.003685951E0
3.736004125E1,-8.577275872E-1,-9.484734535E0,-2.339764595E0
3.738031141E1,-5.583654046E-1,-9.375441551E0,-2.821296930E0
3.740058151E1,-2.879871428E-1,-9.215167999E0,-3.341876030E0
3.742098151E1,-9.921506047E-2,-9.060708046E0,-3.750216246E0
3.744112177E1,1.486388445E-1,-8.947261810E0,-4.011833191E0
3.746139188E1,4.156812727E-1,-8.857824326E0,-4.187666893E0
3.748166198E1,6.121736169E-1,-8.782565117E0,-4.319974422E0
3.750193214E1,7.521882653E-1,-8.716949463E0,-4.429378510E0
3.752233214E1,8.516108394E-1,-8.672313690E0,-4.498456478E0
3.754247240E1,8.920061588E-1,-8.667926788E0,-4.499084473E0
3.756274250E1,8.427627683E-1,-8.700472832E0,-4.445437908E0
3.758301261E1,7.041851282E-1,-8.759577751E0,-4.352506161E0
3.760328276E1,4.789783955E-1,-8.845480919E0,-4.206948280E0
3.762355287E1,1.532571018E-1,-8.949968338E0,-4.005618095E0
3.764382292E1,-2.694862783E-1,-9.054389000E0,-3.757099390E0
3.766409313E1,-7.417001128E-1,-9.144891739E0,-3.462833881E0
3.768436323E1,-1.209398031E0,-9.215617180E0,-3.127320051E0
3.770463334E1,-1.545983195E0,-9.266108513E0,-2.814173698E0
3.772490344E1,-1.693034172E0,-9.309699059E0,-2.575564384E0
3.774517360E1,-1.689797401E0,-9.365318298E0,-2.367656708E0
3.776544370E1,-1.581865311E0,-9.445919037E0,-2.107771873E0
3.778571380E1,-1.490566850E0,-9.519276619E0,-1.825370073E0
3.780598391E1,-1.633954525E0,-9.519269943E0,-1.698260784E0
3.782625401E1,-1.969926238E0,-9.415205956E0,-1.908839941E0
3.784652412E1,-2.003345490E0,-9.346602440E0,-2.190434694E0
3.786679422E1,-1.781050324E0,-9.364472389E0,-2.303238630E0
3.788706438E1,-1.479004741E0,-9.420498848E0,-2.288475037E0
3.790733448E1,-1.244776845E0,-9.478050232E0,-2.188027143E0
3.792760459E1,-1.152536035E0,-9.503288269E0,-2.128276348E0
3.794787469E1,-1.204128623E0,-9.510641098E0,-2.065955877E0
3.796814480E1,-1.372669697E0,-9.507233620E0,-1.974503994E0
3.798841490E1,-1.491321445E0,-9.511151314E0,-1.866645575E0
3.800868500E1,-1.592294335E0,-9.528197289E0,-1.687731266E0
3.802895511E1,-1.718772173E0,-9.535899162E0,-1.510903120E0
3.804922521E1,-1.842569470E0,-9.535621643E0,-1.359132528E0
3.806949532E1,-1.956071734E0,-9.532098770E0,-1.217893600E0
3.808976542E1,-2.069718599E0,-9.520273209E0,-1.118504524E0
3.811003552E1,-2.185632944E0,-9.501207352E0,-1.058514476E0
3.813030563E1,-2.299374342E0,-9.478232384E0,-1.022926807E0
3.815057573E1,-2.413741589E0,-9.452688217E0,-9.954507351E-1
3.817084584E1,-2.529804945E0,-9.421564102E0,-1.002299905E0
3.819111594E1,-2.627277851E0,-9.387383461E0,-1.069964290E0
3.821138605E1,-2.706504583E0,-9.347702980E0,-1.210644603E0
3.823165615E1,-2.756199360E0,-9.302551270E0,-1.426988125E0
3.825192620E1,-2.708553791E0,-9.259939194E0,-1.757167339E0
3.827219630E1,-2.549875975E0,-9.213775635E0,-2.185143471E0
3.829246641E1,-2.268492460E0,-9.190806389E0,-2.559963226E0
3.831273651E1,-1.903745770E0,-9.205563545E0,-2.793516636E0
3.833300662E1,-1.538055778E0,-9.195526123E0,-3.040900707E0
3.835327672E1,-1.269393682E0,-9.157341003E0,-3.271412611E0
3.837354683E1,-1.051339626E0,-9.123630524E0,-3.438668489E0
3.839381693E1,-8.085044026E-1,-9.088192940E0,-3.594642162E0
3.841408698E1,-6.271194816E-1,-9.053259850E0,-3.716933489E0
3.843435709E1,-5.375532508E-1,-9.028201103E0,-3.791172981E0
3.845462714E1,-4.877588451E-1,-9.016192436E0,-3.826323748E0
3.847489724E1,-4.481525123E-1,-9.017636299E0,-3.827763796E0
3.849516735E1,-4.458234012E-1,-9.027469635E0,-3.804787397E0
3.851543745E1,-4.850284159E-1,-9.044614792E0,-3.758999109E0
3.853570756E1,-5.965033770E-1,-9.068120003E0,-3.685615540E0
3.855597761E1,-8.334456682E-1,-9.105681419E0,-3.544335604E0
3.857624771E1,-1.150401473E0,-9.143607140E0,-3.352821589E0
3.859651782E1,-1.414797425E0,-9.169096947E0,-3.177483082E0
3.861691782E1,-1.640305400E0,-9.169190407E0,-3.066875696E0
3.863705797E1,-1.826817274E0,-9.110310555E0,-3.136142254E0
3.865732808E1,-1.917952538E0,-9.002218246E0,-3.384067535E0
3.867759818E1,-1.861586928E0,-8.903037071E0,-3.666170835E0
3.869786818E1,-1.636762142E0,-8.908317566E0,-3.759425879E0
3.871826818E1,-1.590100050E0,-8.966577530E0,-3.639015913E0
3.873840844E1,-1.620040417E0,-9.023968697E0,-3.480494022E0
3.875867849E1,-1.641107321E0,-9.108789444E0,-3.241468191E0
3.877894860E1,-1.754500389E0,-9.175806999E0,-2.982728720E0
3.879921865E1,-1.904794455E0,-9.227890968E0,-2.718121290E0
3.881961865E1,-2.018500566E0,-9.281604767E0,-2.438821316E0
3.883975880E1,-2.086775064E0,-9.316596985E0,-2.239818096E0
3.886002891E1,-2.141462326E0,-9.345160484E0,-2.062159777E0
3.888029896E1,-2.221003771E0,-9.371790886E0,-1.845827341E0
3.890056907E1,-2.255090475E0,-9.400466919E0,-1.648084164E0
3.892096907E1,-2.275008440E0,-9.422168732E0,-1.489109516E0
3.894110922E1,-2.330890894E0,-9.428725243E0,-1.355167389E0
3.896137927E1,-2.386782646E0,-9.434288025E0,-1.211553931E0
3.898164933E1,-2.433339357E0,-9.441617966E0,-1.051244140E0
3.900191943E1,-2.481103420E0,-9.445069313E0,-8.973119259E-1
3.902218948E1,-2.513705254E0,-9.447996140E0,-7.661950588E-1
3.904245959E1,-2.526396990E0,-9.452997208E0,-6.546517015E-1
3.906272964E1,-2.528600454E0,-9.460083008E0,-5.323491096E-1
3.908299969E1,-2.530951738E0,-9.467110634E0,-3.721402287E-1
3.910326980E1,-2.538596630E0,-9.470617294E0,-1.825510114E-1
3.912353985E1,-2.567753077E0,-9.464512825E0,2.519400092E-3
3.914380990E1,-2.629550934E0,-9.446329117E0,1.507166028E-1
3.916408000E1,-2.700274706E0,-9.424263954E0,2.493099123E-1
3.918435006E1,-2.754184246E0,-9.407054901E0,3.035978377E-1
3.920462011E1,-2.776437998E0,-9.400723457E0,2.969430089E-1
3.922489021E1,-2.771310091E0,-9.405436516E0,1.672889441E-1
3.924516026E1,-2.696427107E0,-9.428548813E0,-4.607057944E-2
3.926543032E1,-2.537749767E0,-9.467344284E0,-3.156173527E-1
3.928570037E1,-2.339687109E0,-9.501703262E0,-6.433440447E-1
3.930597047E1,-2.106643677E0,-9.516539574E0,-1.080700994E0
3.932624052E1,-1.846669912E0,-9.500961304E0,-1.578584433E0
3.934651058E1,-1.565174699E0,-9.476146698E0,-1.980718732E0
3.936678063E1,-1.297917843E0,-9.453187943E0,-2.263413191E0
3.938705068E1,-1.026162982E0,-9.421466827E0,-2.520582199E0
3.940732078E1,-6.866801381E-1,-9.369918823E0,-2.811315536E0
3.942759084E1,-3.897280097E-1,-9.299365044E0,-3.088739157E0
3.944786089E1,-2.187957466E-1,-9.234810829E0,-3.292536259E0
3.946813094E1,-1.425313056E-1,-9.188556671E0,-3.423521519E0
3.948840099E1,-1.618280858E-1,-9.161004066E0,-3.495740891E0
3.950867104E1,-2.336995453E-1,-9.139948845E0,-3.546420336E0
3.952894110E1,-2.869575322E-1,-9.113967896E0,-3.608825922E0
3.954921120E1,-2.990962863E-1,-9.080633163E0,-3.690938234E0
3.956948125E1,-3.477708995E-1,-9.054556847E0,-3.750258207E0
3.958975130E1,-4.870730340E-1,-9.068985939E0,-3.699544907E0
3.961002136E1,-6.270145178E-1,-9.124562263E0,-3.538302898E0
3.963029141E1,-7.398978472E-1,-9.186367035E0,-3.351655006E0
3.965056146E1,-8.582960367E-1,-9.219355583E0,-3.230664968E0
3.967083151E1,-9.521093965E-1,-9.192258835E0,-3.281194687E0
3.969110157E1,-1.001330733E0,-9.089943886E0,-3.541277647E0
3.971137162E1,-9.471462965E-1,-8.989229202E0,-3.803557158E0
3.973164167E1,-7.789693475E-1,-9.021293640E0,-3.765614748E0
3.975191167E1,-4.810197949E-1,-9.179750443E0,-3.416312695E0
3.977218167E1,-2.729043663E-1,-9.407655716E0,-2.755346298E0
3.979245167E1,-1.883075237E-1,-9.511320114E0,-2.381119251E0
3.981272177E1,-3.046000004E-1,-9.459896088E0,-2.566707373E0
3.983299183E1,-6.923903227E-1,-9.370606422E0,-2.807617188E0
3.985326188E1,-1.258684635E0,-9.303912163E0,-2.832546711E0
3.987353193E1,-1.733631968E0,-9.285172462E0,-2.636373758E0
3.989380198E1,-1.932081938E0,-9.295706749E0,-2.455052376E0
3.991407209E1,-1.977010846E0,-9.318484306E0,-2.329737663E0
3.993434209E1,-1.957433224E0,-9.354875565E0,-2.196620226E0
3.995461209E1,-1.894842744E0,-9.402690887E0,-2.041902304E0
3.997488214E1,-1.848513722E0,-9.445487022E0,-1.880466938E0
3.999515219E1,-1.854403019E0,-9.472415924E0,-1.733468533E0
4.001542224E1,-1.930597901E0,-9.483265877E0,-1.584561825E0
4.003569224E1,-2.037984610E0,-9.485988617E0,-1.425839782E0
4.005596230E1,-2.119738579E0,-9.493096352E0,-1.248285294E0
4.007623235E1,-2.165044785E0,-9.507406235E0,-1.045081854E0
4.009650240E1,-2.181062460E0,-9.523133278E0,-8.504571319E-1
4.011677240E1,-2.163423061E0,-9.540533066E0,-6.842743754E-1
4.013704245E1,-2.116398335E0,-9.558856964E0,-5.652232766E-1
4.015731250E1,-2.046666384E0,-9.576052666E0,-5.298656225E-1
4.017758250E1,-1.952755690E0,-9.591288567E0,-6.035853624E-1
4.019785256E1,-1.839220881E0,-9.602526665E0,-7.610187531E-1
4.021825256E1,-1.720935583E0,-9.605458260E0,-9.715704918E-1
4.023839261E1,-1.605854988E0,-9.588868141E0,-1.282655954E0
4.025866266E1,-1.438675880E0,-9.537451744E0,-1.771332383E0
4.027893271E1,-1.179203510E0,-9.454761505E0,-2.321065426E0
4.029920271E1,-8.668861389E-1,-9.376633644E0,-2.738179207E0
4.031960271E1,-5.932374597E-1,-9.315844536E0,-3.005575657E0
4.033974282E1,-4.019803107E-1,-9.251070023E0,-3.229011059E0
4.036001282E1,-3.105459809E-1,-9.160524368E0,-3.486939669E0
4.038028287E1,-2.907862663E-1,-9.049983978E0,-3.766113520E0
4.040055292E1,-2.448013574E-1,-8.952370644E0,-3.995686054E0
4.042095292E1,-1.592246592E-1,-8.891357422E0,-4.133860588E0
4.044109297E1,-7.794889063E-2,-8.869836807E0,-4.182141781E0
4.046136297E1,-3.885575384E-2,-8.868269920E0,-4.186007500E0
4.048163302E1,-8.163227141E-2,-8.878615379E0,-4.163401127E0
4.050190302E1,-1.847196668E-1,-8.913229942E0,-4.085411072E0
4.052230302E1,-3.341554105E-1,-8.976748466E0,-3.934046030E0
4.054244313E1,-5.059146285E-1,-9.054285049E0,-3.732878208E0
4.056271313E1,-7.158023119E-1,-9.131303787E0,-3.503896475E0
4.058298318E1,-9.722957611E-1,-9.190917969E0,-3.279031992E0
4.060325318E1,-1.209606767E0,-9.230818748E0,-3.082081795E0
4.062352323E1,-1.342745304E0,-9.262439728E0,-2.928247452E0
4.064379328E1,-1.394518733E0,-9.293077469E0,-2.804355860E0
4.066406328E1,-1.370319605E0,-9.335468292E0,-2.672386169E0
4.068433334E1,-1.314645886E0,-9.387024879E0,-2.515125275E0
4.070460334E1,-1.284334540E0,-9.443531990E0,-2.310972214E0
4.072487334E1,-1.303083897E0,-9.492949486E0,-2.087168694E0
4.074514339E1,-1.399599314E0,-9.495732307E0,-2.010616779E0
4.076541339E1,-1.525028706E0,-9.459219933E0,-2.089937925E0
4.078568344E1,-1.502040267E0,-9.438928604E0,-2.195655346E0
4.080595344E1,-1.256653786E0,-9.447049141E0,-2.311809301E0
4.082622349E1,-8.300347328E-1,-9.442454338E0,-2.514257431E0
4.084649349E1,-5.107561946E-1,-9.467965126E0,-2.503427982E0
4.086676349E1,-4.896012247E-1,-9.465679169E0,-2.516266584E0
4.088703354E1,-6.526315808E-1,-9.452302933E0,-2.529512167E0
4.090730355E1,-8.464175463E-1,-9.469042778E0,-2.406488180E0
4.092757354E1,-9.292651415E-1,-9.519886017E0,-2.163011551E0
4.094784355E1,-9.369495511E-1,-9.573959351E0,-1.905729890E0
4.096811360E1,-9.136402011E-1,-9.613999367E0,-1.704893589E0
4.098838360E1,-9.118703008E-1,-9.642389297E0,-1.537273765E0
4.100865360E1,-9.348519444E-1,-9.656520844E0,-1.431104183E0
4.102892365E1,-9.810891747E-1,-9.656457901E0,-1.400237918E0
4.104919365E1,-1.050755858E0,-9.649659157E0,-1.396564603E0
4.106946365E1,-1.098641276E0,-9.638901711E0,-1.433506727E0
