"Time (s)","Gyroscope x (rad/s)","Gyroscope y (rad/s)","Gyroscope z (rad/s)"
3.149010700E-2,-5.996102691E-1,-6.041376591E-1,1.731053367E-2
5.176104500E-2,-5.713807940E-1,-4.555333555E-1,-1.487374306E-1
7.203219100E-2,-3.190464675E-1,-4.034686089E-1,-2.280995846E-1
9.230323200E-2,-1.470063776E-1,-3.166496158E-1,-1.860216707E-1
1.127032320E-1,-1.438105851E-1,-2.170474678E-1,-9.547425061E-2
1.330035450E-1,-1.912148297E-1,-1.904158741E-1,-1.890842989E-2
1.531174510E-1,-1.853558719E-1,-2.553969622E-1,3.222422674E-2
1.733884930E-1,-9.321057051E-2,-3.150517344E-1,5.060002208E-3
1.936596390E-1,-5.219791830E-2,-3.342264593E-1,-7.629951090E-2
2.139307840E-1,-1.470063776E-1,-2.713759243E-1,-1.242363751E-1
2.343307840E-1,-2.471411675E-1,-2.197106332E-1,-7.683213800E-2
2.544732320E-1,-2.434127480E-1,-2.404832691E-1,-1.944106072E-2
2.747443780E-1,-1.656484902E-1,-2.591253817E-1,2.263685316E-2
2.950155760E-1,-1.608548164E-1,-2.884201407E-1,-4.860265180E-2
3.152867740E-1,-2.556632757E-1,-2.324937880E-1,-1.588574350E-1
3.355580240E-1,-3.126548827E-1,-2.223737836E-1,-1.913479865E-1
3.558292740E-1,-2.727074921E-1,-2.474074811E-1,-1.455416381E-1
3.761005760E-1,-2.327601016E-1,-3.539338410E-1,-1.304947957E-2
3.963717740E-1,-3.057306707E-1,-5.988113284E-1,7.323687524E-2
4.166430240E-1,-5.601955056E-1,-7.926893234E-1,-6.351634115E-2
4.369142220E-1,-9.643298984E-1,-9.263799191E-1,-3.303648829E-1
4.571855240E-1,-1.441035390E0,-1.250619531E0,-6.002760530E-1
4.774567740E-1,-1.784449816E0,-1.788444519E0,-7.787077427E-1
4.977280240E-1,-1.864344478E0,-2.027063608E0,-7.765771747E-1
5.179992740E-1,-4.142543972E-1,-4.100066662E0,-1.006674170E0
5.382705760E-1,3.748263359E0,-1.092960477E0,-9.853688478E-1
5.585418260E-1,3.619899035E0,-1.611610770E0,-2.316948399E-2
5.788130240E-1,2.586859703E0,-1.877393961E0,2.713759243E-1
5.990842740E-1,9.717867374E-1,-5.540702343E-1,7.117292881E-1
6.193555240E-1,3.343596160E-1,-9.476851821E-1,2.127864063E-1
6.396268260E-1,-3.201117218E-1,-1.179779530E0,-5.237102509E-1
6.598980760E-1,-6.757766008E-1,-9.986846447E-1,-8.905603886E-1
6.801693260E-1,-8.526104093E-1,-1.258608937E0,-8.735162020E-1
7.004405760E-1,-9.680583477E-1,-1.277251124E0,-4.944154918E-1
7.207118260E-1,-9.271788597E-1,-1.194693208E0,-3.245059252E-1
7.409830760E-1,-5.309007764E-1,-1.112135291E0,-5.499423668E-2
7.613830760E-1,9.161267430E-2,-4.071970284E-1,6.946850419E-1
7.815255760E-1,4.994754791E-1,-6.578002870E-2,1.306545854E0
8.019255760E-1,6.735129356E-1,-1.211737394E-1,1.826794028E0
8.220680760E-1,7.699192762E-1,3.488738462E-2,2.249037981E0
8.423393260E-1,5.207807422E-1,-5.556681752E-1,2.239983082E0
8.626105760E-1,2.251701057E-1,-9.104009271E-1,2.291115761E0
8.828818260E-1,2.262353599E-1,-5.780386925E-1,2.397642136E0
9.031530760E-1,3.434143662E-1,1.498026997E-1,2.269277811E0
9.234243260E-1,5.857618451E-1,9.448888302E-1,2.028661489E0
9.436955240E-1,8.673909307E-1,1.694701314E0,2.014812946E0
9.639667740E-1,1.157675266E0,2.315483570E0,2.266082048E0
9.842380240E-1,1.449424386E0,2.863961220E0,2.785797596E0
1.004509274E0,1.809350252E0,3.907653332E0,3.684746981E0
1.024780472E0,1.938247204E0,5.171322346E0,4.469047070E0
1.045051722E0,1.936649323E0,6.584527493E0,5.042026043E0
1.065322972E0,1.781120777E0,6.966957569E0,5.062265873E0
1.085594222E0,1.296026349E0,1.522661209E0,4.165047646E0
1.105865420E0,-1.250885844E0,-3.998333931E0,1.291099548E0
1.126136670E0,-1.803091884E0,1.167528987E0,8.827040792E-1
1.146407868E0,-1.960218310E0,-1.221324801E0,1.700560212E0
1.166679118E0,-1.376586914E0,-6.526071429E-1,2.887530327E0
1.186950368E0,-1.525058031E0,-5.577986836E-1,3.995138168E0
1.207221566E0,-1.925597191E0,-8.166577220E-1,4.698611736E0
1.227492816E0,-2.620415449E0,-1.339568973E0,4.969055176E0
1.247764014E0,-2.843055487E0,-1.024250984E0,5.034036636E0
1.268035264E0,-2.577804804E0,-8.315714002E-1,4.471710682E0
1.288306514E0,-1.689108610E0,-1.336905837E0,3.586210012E0
1.308706514E0,-7.162566185E-1,-1.193627954E0,2.722414494E0
1.328848961E0,-5.889576077E-1,-1.065796256E0,1.531849146E0
1.349120159E0,-4.254396558E-1,-1.260206938E0,7.548724413E-1
1.369391409E0,7.936213911E-2,-1.696831822E0,6.414218545E-1
1.389662607E0,3.764375448E-1,-1.733583450E0,4.466117918E-1
1.410062607E0,4.872249663E-1,-2.118010521E0,4.713791609E-2
1.430205055E0,4.227765203E-1,-3.020688295E0,-5.593965650E-1
1.450476253E0,4.680502117E-1,-4.210721016E0,-8.362319469E-1
1.470747451E0,6.544713378E-1,-4.407794476E0,-8.298403621E-1
1.491018701E0,5.958818197E-1,-3.302317381E0,-7.717835307E-1
1.511418701E0,3.615238369E-1,-2.819353342E0,-5.727123618E-1
1.531561097E0,3.316964805E-1,-3.032406092E0,-3.149185777E-1
1.551832295E0,4.344944060E-1,-3.160104513E0,-1.008005738E-1
1.572103545E0,5.410207510E-1,-2.679803848E0,1.739042848E-1
1.592374743E0,6.054692268E-1,-2.301768303E0,4.986765385E-1
1.612645941E0,8.333024979E-1,-2.903509140E0,7.522093058E-1
1.632917139E0,1.289634824E0,-3.505249977E0,7.601987720E-1
1.653188336E0,1.777392387E0,-3.724028587E0,8.757798672E-1
1.673459534E0,2.189116716E0,-3.453052044E0,1.240499496E0
1.693730732E0,2.255163193E0,-2.647845984E0,1.658482313E0
1.714001982E0,2.094841003E0,-2.297507286E0,1.749562383E0
1.734273180E0,2.142777920E0,-2.167012453E0,1.574326515E0
1.754544326E0,2.307760477E0,-1.716539145E0,1.478585958E0
1.774815576E0,2.266348362E0,-9.700556993E-1,1.454617500E0
1.795086774E0,2.026131392E0,-2.916159332E-1,1.253815293E0
1.815357972E0,1.774729252E0,-1.952095628E-1,7.356976867E-1
1.835629170E0,1.639041305E0,-2.735064328E-1,3.454117477E-1
1.855900368E0,1.552754879E0,-3.331612051E-1,2.303632647E-1
1.876171566E0,1.391900063E0,-6.222470999E-1,1.318263710E-1
1.896442764E0,1.072454214E0,-1.307078481E0,-5.020054802E-2
1.916713961E0,6.745781898E-1,-1.912547708E0,-2.158490419E-1
1.936985159E0,2.784332931E-1,-1.947168827E0,-3.143859208E-1
1.957256357E0,-7.190529257E-2,-1.519998074E0,-3.026680350E-1
1.977527555E0,-2.577938139E-1,-1.485510111E0,-2.179795653E-1
1.997798753E0,-2.466085255E-1,-1.940244555E0,-2.510027587E-1
2.018069951E0,-3.430148959E-1,-2.588856936E0,-2.978743315E-1
2.038469951E0,-5.346291661E-1,-2.125999928E0,-2.861564457E-1
2.058612347E0,-5.921534300E-1,-1.019457340E0,-2.030658871E-1
2.078883545E0,-7.412903309E-1,-1.952095628E-1,-6.404897571E-2
2.099154743E0,-8.025429845E-1,-1.731053367E-2,-1.411474310E-2
2.119425941E0,-5.569997430E-1,-1.802958697E-1,-2.014679909E-1
2.139697139E0,-2.551306486E-1,-2.846917212E-1,-2.243711501E-1
2.159968336E0,1.431448013E-1,-4.624575675E-1,-1.684448123E-1
2.180239534E0,3.950796425E-1,-4.773712754E-1,-1.934785098E-1
2.200510732E0,3.098585606E-1,-2.953443527E-1,-1.396826953E-1
2.220781982E0,1.500690132E-1,-2.743053809E-2,-8.428898454E-2
2.241053180E0,2.145174593E-1,2.370211668E-2,-2.210422046E-2
2.261324378E0,5.415533781E-1,-5.139897019E-2,-1.034637317E-1
2.281595576E0,9.014793634E-1,-2.689790726E-2,-3.703122735E-1
2.301866774E0,1.098020554E0,1.498026997E-1,-6.050697565E-1
2.322138024E0,9.153277874E-1,3.372890949E-1,-2.765690684E-1
2.342409222E0,5.127912760E-1,2.041311413E-1,1.025316268E-1
2.362680420E0,6.033387184E-1,3.111901283E-1,-1.050616279E-1
2.382951618E0,1.008538365E0,3.095922470E-1,-4.507396817E-1
2.403222868E0,1.423858047E0,2.675143182E-1,-7.659245729E-1
2.423494066E0,1.166197419E0,5.375586748E-1,-5.546028614E-1
2.443765316E0,7.954856157E-1,6.375603080E-1,-5.944170952E-1
2.464036514E0,8.530098796E-1,7.062698007E-1,-8.234487772E-1
2.484307711E0,7.331677079E-1,7.994803786E-1,-8.303729892E-1
2.504578961E0,4.254396558E-1,8.463519812E-1,-5.519397259E-1
2.524850159E0,3.924165070E-1,5.487439036E-1,-2.723080218E-1
2.545121409E0,6.241113544E-1,6.524740160E-2,-3.846933246E-1
2.565392607E0,7.954856157E-1,-2.213085145E-1,-5.135902166E-1
2.585663805E0,7.187866569E-1,-2.191779912E-1,-5.636576414E-1
2.606063805E0,4.536691606E-1,-2.902843431E-2,-4.933502376E-1
2.626206305E0,1.788311303E-1,3.229080439E-1,-3.990744054E-1
2.646477555E0,3.515370190E-2,4.970786572E-1,-3.218427896E-1
2.666748753E0,1.155811027E-1,2.573943138E-1,-2.856238186E-1
2.687020003E0,3.311638236E-1,-1.717737615E-1,-2.041311413E-1
2.707291253E0,5.138565302E-1,-5.226449966E-1,-6.138581783E-2
2.727562503E0,6.852308512E-1,-6.824344993E-1,-6.298371404E-2
2.747833753E0,6.645913720E-1,-5.546028614E-1,-1.790974438E-1
2.768105003E0,3.556649089E-1,-9.720530361E-2,-2.472743243E-1
2.788376201E0,1.527321786E-1,1.370195299E-1,-9.853689000E-3
2.808776201E0,3.636543751E-1,-8.388951421E-2,-2.929474926E-3
2.828918701E0,6.251766086E-1,-4.141212404E-1,-1.327584833E-1
2.849189951E0,6.129260659E-1,-6.131923795E-1,-1.061268896E-1
2.869461201E0,6.294376254E-1,-7.799061537E-1,-1.631184965E-1
2.889732451E0,5.964145064E-1,-6.552702785E-1,-1.386174262E-1
2.910132451E0,4.328965247E-1,-4.269044101E-1,-4.913528636E-2
2.930274951E0,4.206459820E-1,-3.086601496E-1,-8.695214242E-2
2.950546201E0,5.351617932E-1,-5.093291998E-1,-2.696448565E-1
2.970817503E0,5.607281327E-1,-5.087965727E-1,-3.127880394E-1
2.991088701E0,5.309007764E-1,-1.275653243E-1,-2.323606312E-1
3.011488701E0,4.392880797E-1,1.268995255E-1,-3.202448785E-1
3.031631253E0,3.860249221E-1,2.499374747E-1,-3.990744054E-1
3.051902503E0,3.886880577E-1,1.806953400E-1,-2.739059031E-1
3.072173753E0,4.510059953E-1,7.190529723E-3,-2.956106514E-2
3.092445003E0,5.287702680E-1,-1.611211300E-1,-3.435475379E-2
3.112845003E0,4.350270331E-1,-1.536642760E-1,-1.157142594E-1
3.132987555E0,3.892207146E-1,-1.499358565E-1,-8.788425475E-3
3.153258805E0,7.123950720E-1,-5.029376149E-1,3.648528084E-2
3.173530055E0,6.651239991E-1,-4.093275666E-1,-7.523424178E-2
3.193801305E0,5.452818274E-1,-2.761695981E-1,-1.141163707E-1
3.214072555E0,4.536691606E-1,-3.542001545E-2,2.484727502E-1
3.234343857E0,4.984102249E-1,-9.773793817E-2,3.901528120E-1
3.254615107E0,4.217112362E-1,-2.548643351E-1,4.972118139E-1
3.274886357E0,2.709764242E-1,-1.419463754E-1,7.314366698E-1
3.295157659E0,2.310290486E-1,-8.442214131E-2,8.629966974E-1
3.315428909E0,3.988080621E-1,-2.814959288E-1,5.540702343E-1
3.335700159E0,4.222438633E-1,-2.814959288E-1,5.838976502E-1
3.355971461E0,5.378249884E-1,-3.443464637E-1,7.340998054E-1
3.376242711E0,5.250418186E-1,-5.183839202E-1,1.118526816E0
3.396514014E0,5.250418186E-1,-7.735145688E-1,1.594566464E0
3.416785264E0,5.250418186E-1,-4.454133511E-1,1.157941580E0
3.437056514E0,3.210438192E-1,2.137185186E-1,9.599357247E-1
3.457327816E0,7.829687744E-2,7.094655633E-1,7.894935012E-1
3.477599066E0,-2.663159072E-1,5.657881498E-1,7.799061537E-1
3.497870316E0,-2.950780392E-1,7.147918940E-1,1.021721005E0
3.518141618E0,-5.490102768E-1,1.111070037E0,1.118526816E0
3.538412868E0,-9.968204498E-1,1.107874155E0,1.117994189E0
3.558684170E0,-1.315866947E0,9.443562031E-1,1.488173366E0
3.578955420E0,-1.433045864E0,1.453419089E0,1.441834331E0
3.599226722E0,-1.656085491E0,1.825595617E0,1.439703822E0
3.619497972E0,-1.689641237E0,1.196690559E0,1.651025534E0
3.639769222E0,-7.247787714E-1,-9.400951862E-2,1.540371180E0
3.660040524E0,-1.992042959E-1,-1.301219583E0,1.058339477E0
3.680311774E0,-3.387538493E-1,-2.394979000E0,1.262870073E0
3.700583024E0,-3.669833243E-1,-1.249021649E0,2.412555933E0
3.720854326E0,6.060018539E-1,-1.610012889E0,1.997768760E0
3.741125576E0,5.090628862E-1,-2.682999611E0,3.320959508E-1
3.761396826E0,1.809616536E-1,-9.885646701E-1,9.993504286E-1
3.781668128E0,-5.010733604E-1,9.422256947E-1,1.204280496E0
3.801939378E0,5.326318368E-2,1.002679393E-1,8.017440438E-1
3.822210628E0,8.178561330E-1,-5.844302773E-1,4.109254479E-1
3.842481930E0,8.833698630E-1,-1.552621722E-1,1.595232338E-1
3.862753180E0,6.937529445E-1,3.964112401E-1,-1.215732098E-1
3.883024430E0,3.934817612E-1,9.171919823E-1,5.885581672E-2
3.903295732E0,8.415582776E-2,5.056007504E-1,4.684496820E-1
3.923566982E0,2.663159184E-2,-2.330264151E-1,6.387587190E-1
3.943838232E0,2.448774725E-1,-5.109270811E-1,5.423523784E-1
3.964109482E0,3.988080621E-1,-3.693801761E-1,5.295692086E-1
3.984380784E0,3.961449265E-1,-1.025316268E-1,1.179779530E0
4.004652034E0,1.511342824E-1,-9.028109163E-2,2.418947458E0
4.024923284E0,-2.524674833E-1,-1.462074369E-1,3.292729855E0
4.045194534E0,-2.460758984E-1,-3.755054250E-2,3.230944633E0
4.065465784E0,2.267680019E-1,1.482048035E-1,2.366749525E0
4.085737086E0,5.447492003E-1,-3.869570196E-1,1.249021649E0
4.106008336E0,3.897533417E-1,-1.009337306E-1,8.582029939E-1
4.126279586E0,8.948214352E-2,-2.186453640E-1,8.150598407E-1
4.146550784E0,2.651174963E-1,-4.018706977E-1,7.452850938E-1
4.166822086E0,1.310274303E-1,3.814975321E-1,3.251717389E-1
4.187093336E0,-3.957454562E-1,5.151881576E-1,9.933583438E-2
4.207364639E0,-3.089264631E-1,-3.379548788E-1,1.108406782E0
4.227635889E0,4.121238589E-1,-3.976096511E-1,1.609480262E0
4.247907139E0,1.825595498E-1,-2.042642981E-1,1.956756115E0
4.268178336E0,2.709764242E-1,-6.105292439E-1,2.105360508E0
4.288578336E0,7.299718857E-1,-1.080709934E0,2.283658981E0
4.308878857E0,7.102645040E-1,-1.280446887E0,2.453568459E0
4.328992764E0,1.129179448E-1,-7.175882459E-1,2.435991526E0
4.349263909E0,-6.924213842E-3,-1.397625923E0,2.096305609E0
4.369535055E0,5.229113102E-1,-3.235205650E0,2.578737020E0
4.389806201E0,4.483428299E-1,-2.092444181E0,2.466351748E0
4.410206201E0,1.278316379E-1,-6.712492704E-1,2.324138880E0
4.430348649E0,3.089264594E-2,-7.543398142E-1,2.306562185E0
4.450619847E0,-3.014696240E-1,-1.067926809E-1,1.969539285E0
4.470891045E0,-7.982819676E-1,1.837579720E-2,1.759682417E0
4.491162295E0,-7.199850678E-1,-6.898913383E-1,1.205878496E0
4.511562295E0,-2.519348562E-1,-1.387505829E-1,4.215780795E-1
4.531704691E0,1.214400530E-1,5.631250143E-1,-1.411474310E-2
4.551975941E0,1.203747913E-1,6.364950538E-1,-7.629951090E-2
4.572247191E0,1.399490088E-1,4.597944319E-1,2.202432603E-1
4.592518336E0,1.814942956E-1,6.153228879E-1,5.737776160E-1
4.612789586E0,1.187768951E-1,7.749792933E-1,7.799061537E-1
4.633060836E0,5.805686861E-2,7.829687595E-1,5.013396740E-1
4.653332086E0,1.182442605E-1,7.936214209E-1,1.765674502E-1
4.673603284E0,3.087933064E-1,7.568697929E-1,-7.310371846E-2
4.693874534E0,3.838943839E-1,6.307692528E-1,-2.781669796E-1
4.714145784E0,3.838943839E-1,5.189165473E-1,-4.928175807E-1
4.734416930E0,5.484775901E-1,4.826975763E-1,-7.126613855E-1
4.754688180E0,7.150582075E-1,8.479498625E-1,-5.370260477E-1
4.774959378E0,7.906919122E-1,1.320793748E0,-1.561942846E-1
4.795230628E0,7.129276991E-1,1.169526339E0,4.801675975E-1
4.815501826E0,5.362271070E-1,5.530049801E-1,6.142576337E-1
4.835773076E0,3.535343707E-1,3.372890949E-1,3.214432895E-1
4.856044326E0,2.752375007E-1,1.508679688E-1,1.067926809E-1
4.876315524E0,2.997385561E-1,4.980107397E-2,-9.973530471E-2
4.896586774E0,3.982754350E-1,-5.992107838E-2,-2.185122073E-1
4.916857972E0,4.685828388E-1,-3.222422674E-2,-2.195774615E-1
4.937129170E0,5.277049541E-1,5.619265884E-2,-7.257108390E-2
4.957400420E0,5.122586489E-1,3.222422674E-2,1.083905771E-1
4.977671618E0,4.238417745E-1,-3.542001545E-2,2.223737836E-1
4.997942816E0,3.609912097E-1,-1.818937659E-1,2.708432674E-1
5.018213961E0,3.285006881E-1,-2.079927325E-1,2.410158962E-1
5.038485264E0,3.748396337E-1,-1.861548275E-1,2.149169445E-1
5.058756461E0,4.579302073E-1,-1.153147891E-1,1.712411344E-1
5.079027659E0,5.516734123E-1,5.033370852E-2,1.371526867E-1
5.099298909E0,6.006755233E-1,2.265016884E-1,1.185105816E-1
5.119570107E0,5.974797606E-1,3.223754168E-1,1.302284747E-1
5.139841305E0,5.740439296E-1,3.633880615E-1,1.499358565E-1
5.160112451E0,4.989428520E-1,4.129228294E-1,1.121189967E-1
5.180383701E0,3.593933284E-1,3.367564678E-1,2.849580161E-2
5.200654899E0,2.283658981E-1,2.531332672E-1,-7.150582224E-2
5.220926149E0,1.310274303E-1,2.946785688E-1,-9.760478139E-2
5.241197347E0,2.929474972E-2,3.921501637E-1,-5.765739456E-2
5.261468545E0,-1.272990108E-1,7.115961313E-1,2.743053809E-2
5.281739743E0,-4.920186400E-1,1.053013086E0,-3.968106955E-2
5.302139743E0,-7.886945605E-1,1.223854780E0,-3.857586086E-1
5.322282139E0,-1.344629049E0,1.594566464E0,-6.860297918E-1
5.342553336E0,-2.193910360E0,2.603104830E0,-9.017456770E-1
5.362824534E0,-2.564489126E0,2.838927507E0,-1.131176829E0
5.383095732E0,-2.267413616E0,1.341033816E0,-1.142894745E0
5.403366930E0,-1.757818222E0,7.163897753E-1,-6.423539519E-1
5.423638128E0,-1.297224760E0,6.833665967E-1,-6.162550449E-1
5.443909326E0,-1.280180573E0,3.239732981E-1,-7.744466662E-1
5.464180524E0,-1.215732098E0,9.440898895E-2,-8.761793375E-1
5.484451722E0,-8.797746301E-1,2.376869470E-1,-7.211834788E-1
5.504722920E0,-5.394228697E-1,1.034637317E-1,-5.821665525E-1
5.524994118E0,-2.737727463E-1,-5.961481929E-1,-4.709796906E-1
5.545265316E0,-2.077264152E-2,-1.223455310E0,-1.327584833E-1
5.565536514E0,3.002711833E-1,-1.198421597E0,3.571296334E-1
5.585807711E0,6.129260659E-1,-8.651272058E-1,6.025397182E-1
5.606078909E0,8.008119464E-1,-5.519397259E-1,6.323671341E-1
5.626350107E0,8.791088462E-1,-1.962748319E-1,7.783082724E-1
5.646621305E0,8.327698708E-1,-1.478053331E-1,9.817736149E-1
5.666892503E0,8.311719298E-1,-6.131923795E-1,9.684578180E-1
5.687163701E0,7.960182428E-1,-4.407528341E-1,5.178512931E-1
5.707434847E0,6.693850160E-1,1.013332009E-1,-7.150582224E-2
5.727706045E0,7.928224802E-1,1.226384789E-1,-1.551290154E-1
5.747977243E0,1.181111097E0,2.813627720E-1,-4.647212476E-2
5.768248441E0,1.452087522E0,4.926844314E-2,2.585927546E-1
5.788519586E0,1.214533687E0,-5.040028691E-1,6.797713637E-1
5.808919586E0,4.733765423E-1,-6.494113207E-1,1.136636257E0
5.829061982E0,-2.913496196E-1,-1.062600464E-1,1.363537431E0
5.849333128E0,-4.297007322E-1,1.323456883E0,8.278430104E-1
5.869604326E0,-7.897598147E-1,1.961949348E0,-4.470112622E-1
5.889875472E0,-6.395576596E-1,1.851694465E0,-1.666871309E0
5.910275472E0,-2.812296152E-1,1.114798427E0,-1.772865057E0
5.930417868E0,-6.789724231E-1,-1.061002612E0,-1.284574747E0
5.950689014E0,-2.343579978E-1,-2.753307104E0,-5.455481410E-1
5.970960211E0,4.542017877E-1,-1.802292943E0,8.667251468E-1
5.991231357E0,5.809681416E-1,-4.699144363E-1,1.245825887E0
6.011631357E0,5.442165732E-1,-3.832286000E-1,1.552621722E-1
6.031773701E0,6.198502779E-1,-5.418196917E-1,-9.486172795E-1
6.052044899E0,7.193192840E-1,-6.787061095E-1,-1.008272052E0
6.072316045E0,4.110586047E-1,-3.086601496E-1,-7.669898272E-1
6.092587243E0,-1.661811322E-1,3.814975321E-1,-5.071986318E-1
6.112987243E0,-8.403598666E-1,1.103613138E0,-1.130511016E-1
6.133129586E0,-1.376054287E0,1.964612484E0,3.656517565E-1
6.153400732E0,-1.833984494E0,2.317614317E0,4.167844057E-1
6.173671930E0,-2.451704264E0,1.485909581E0,-9.321057238E-3
6.193943076E0,-2.697647095E0,3.410175145E-1,-8.351666927E-1
6.214214274E0,-2.106558800E0,1.063665748E0,-1.502953887E0
6.234485420E0,-1.634780169E0,1.460343242E0,-1.502953887E0
6.254756566E0,-1.156077385E0,-1.531316489E-1,-1.135437846E0
6.275027764E0,-2.748380303E-1,1.784316637E-2,-6.759097576E-1
6.295298909E0,4.270375669E-1,5.625923872E-1,-2.541985512E-1
6.315570107E0,7.459508777E-1,-5.779055133E-2,2.000032514E-1
6.335841253E0,1.116129994E0,-4.731102288E-1,6.089313030E-1
6.356112399E0,1.338104248E0,-5.993439555E-1,1.049817324E0
6.376383545E0,1.384975910E0,-7.399587631E-1,1.756486535E0
6.396654743E0,1.314135909E0,-7.575356364E-1,2.461557865E0
6.416925889E0,1.220392704E0,-6.616618633E-1,2.832669258E0
6.437197086E0,1.378051639E0,-8.816388249E-1,2.093109846E0
6.457468232E0,1.180045843E0,-1.223987937E0,3.576622605E-1
6.477739378E0,1.061801553E0,-1.398158550E0,-3.777691126E-1
6.498010576E0,1.013332009E0,-1.505217552E0,-4.784365296E-1
6.518281670E0,6.964160800E-1,-6.584661007E-1,-7.616634965E-1
6.538474274E0,6.139913201E-1,1.271791577E0,-6.476802826E-1
6.558823961E0,-9.427583218E-2,2.057822943E0,4.913528562E-1
6.579095107E0,-3.936149180E-1,1.014130950E0,1.778857112E0
6.599366305E0,-5.921534300E-1,9.065393806E-1,9.013462067E-1
6.619637503E0,-9.427583218E-2,1.279781103E0,-1.219061136E0
6.639908649E0,-3.563306928E-1,1.157941580E0,-1.687111259E0
6.660179847E0,-9.989509583E-1,-1.185105801E0,-1.260073781E0
6.680451045E0,-3.616569936E-1,-2.054227829E0,-2.691122293E-1
6.700722191E0,2.773680091E-1,-1.173387885E0,7.367629409E-1
6.720993336E0,6.512755752E-1,-9.205209613E-1,1.156876326E0
6.741264482E0,5.399554968E-1,-4.013380706E-1,7.074682117E-1
6.761535680E0,8.354330063E-1,2.605901062E-1,1.163800508E-1
6.781806826E0,1.070323586E0,-4.986765385E-1,-2.723080218E-1
6.802206826E0,1.219726875E-1,-4.183822870E-1,-3.985417485E-1
6.822349118E0,-8.137282729E-1,2.637858987E-1,-2.328932583E-1
6.842620264E0,-1.101216316E0,9.294425249E-1,3.222422674E-2
6.862891461E0,-7.599324584E-1,1.851161838E0,2.021337748E-1
6.883162607E0,-7.785745859E-1,2.887929678E0,3.454117477E-1
6.903433753E0,-1.245026827E0,3.403916836E0,1.765674502E-1
6.923704847E0,-2.017209768E0,2.478469133E0,-3.857586086E-1
6.943976045E0,-2.294045210E0,7.946866751E-1,-1.467267513E0
6.964247191E0,-1.455949068E0,-9.187898785E-2,-1.551423311E0
6.984518389E0,-1.044757366E0,-1.062600464E-1,-1.612143397E0
7.004789482E0,-1.041028857E0,-8.518114686E-1,-1.444364309E0
7.025060680E0,-7.620629668E-1,-7.527419329E-1,-7.621961236E-1
7.045331826E0,-1.001347825E-1,-5.476786494E-1,-2.201101035E-1
7.065602972E0,3.753722608E-1,-4.322307110E-1,-1.284974217E-1
7.085874118E0,8.178561330E-1,-8.347672224E-1,1.318263710E-1
7.106274118E0,1.286971688E0,-1.017326832E0,7.197187543E-1
7.126416357E0,1.588973880E0,-9.327715039E-1,1.293762684E0
7.146687555E0,1.557016015E0,-6.776408553E-1,1.671265483E0
7.166958701E0,1.367931724E0,-6.073334217E-1,1.809749722E0
7.187229847E0,1.258742094E0,-1.091895223E0,1.337438464E0
7.207540316E0,1.019191027E0,-1.753823400E0,4.997417927E-1
7.227772191E0,8.578035235E-1,-1.535977006E0,1.153147891E-1
7.248043336E0,5.554018021E-1,-4.523375630E-1,-1.375521719E-1
7.268314482E0,6.528734565E-1,7.579351068E-1,-4.262386262E-1
7.288585628E0,1.065529943E0,1.325587392E0,-5.540702343E-1
7.308985628E0,4.723112583E-1,6.897581816E-1,-4.390217662E-1
7.329127920E0,-2.412822098E-1,-3.134538233E-1,4.167844057E-1
7.349399066E0,-7.652587891E-1,1.940111369E-1,7.346324325E-1
7.369670159E0,-3.579285741E-1,4.065312445E-1,-9.368993640E-1
7.389941305E0,-1.576590240E-1,5.934849977E-1,-1.812279820E0
7.410341305E0,-5.585976243E-1,-1.233575344E0,-1.114798427E0
7.430483545E0,-4.099933505E-1,-2.681401730E0,-3.063964546E-1
7.450754691E0,2.699111700E-1,-2.447176933E0,3.928159773E-1
7.471025836E0,6.081323624E-1,-1.602023363E0,9.141293764E-1
7.491296930E0,6.310355663E-1,-8.044071794E-1,6.936197877E-1
7.511696930E0,7.938877344E-1,-2.990727723E-1,3.331612051E-1
7.531839222E0,8.460856676E-1,-5.460807681E-1,-1.519332230E-1
7.552110316E0,4.121238589E-1,-1.206943750E0,-2.925480306E-1
7.572381461E0,-1.544632297E-2,-8.661925197E-1,-1.444763839E-1
7.592652607E0,7.350318879E-2,6.291713119E-1,6.125265732E-3
7.612923701E0,1.065263618E-2,1.323989511E0,9.081372619E-2
7.633194847E0,-2.545980215E-1,1.025848866E0,3.384875357E-1
7.653465941E0,-4.787028432E-1,6.705834866E-1,5.247755051E-1
7.673737086E0,-8.291745782E-1,1.026914120E0,3.422159553E-1
7.694008180E0,-1.211471081E0,1.605219126E0,-4.487423226E-2
7.714279326E0,-1.575125456E0,1.829324007E0,-4.496744275E-1
7.734550472E0,-1.944239259E0,1.451821208E0,-9.571393728E-1
7.754821514E0,-2.138516665E0,9.640635848E-1,-1.656751275E0
7.775092711E0,-1.694435000E0,9.427583218E-1,-2.034919977E0
7.795363805E0,-1.137435198E0,4.012049139E-1,-1.819736600E0
7.815634899E0,-8.840356469E-1,-3.842938542E-1,-1.380981207E0
7.835906045E0,-5.165197253E-1,-5.881586671E-1,-1.002413034E0
7.856177139E0,1.150484756E-1,-5.301018357E-1,-3.671164811E-1
7.876448284E0,5.442165732E-1,-3.059969842E-1,6.364950538E-2
7.896719378E0,8.503466845E-1,-3.581948876E-1,3.635212183E-1
7.916990472E0,1.150750995E0,-7.293061018E-1,7.729819417E-1
7.937261618E0,1.408411741E0,-8.283756375E-1,1.272457361E0
7.957532711E0,1.606018066E0,-7.676556110E-1,1.721865535E0
7.977803805E0,1.686978102E0,-8.337019682E-1,1.886981368E0
7.998074899E0,1.627856016E0,-1.370994329E0,1.208009005E0
8.018346045E0,1.187502623E0,-1.284707904E0,1.872200817E-1
8.038617139E0,8.423572183E-1,-7.809714079E-1,-1.599227041E-1
8.058888232E0,7.970834970E-1,-5.593965650E-1,-3.617901504E-1
8.079159326E0,4.552670419E-1,-8.097335100E-1,-3.777691126E-1
8.099430420E0,-7.231808305E-1,-1.089232087E0,4.434159994E-1
8.119701566E0,-1.184306860E0,-1.126516312E-1,1.302817464E0
8.139972659E0,-4.941491783E-1,4.012049139E-1,-6.705834866E-1
8.160243753E0,-1.544632316E-1,4.038680792E-1,-1.670599699E0
8.180514847E0,-6.992124319E-1,-1.223455310E0,-1.344762206E0
8.200785941E0,-3.589938581E-1,-1.974865675E0,-2.802974880E-1
8.221057034E0,5.175849795E-1,-1.408278584E0,3.821633458E-1
8.241328128E0,8.114646077E-1,-1.137701511E0,8.028092980E-1
8.261599222E0,6.017407775E-1,-1.332112193E0,5.540702343E-1
8.281870316E0,7.464835048E-1,-4.470112622E-1,-7.989477599E-4
8.302141409E0,1.000548840E0,3.830954432E-1,-3.500722647E-1
8.322412503E0,5.777723789E-1,1.092960477E0,-4.565986395E-1
8.342683597E0,-2.327601016E-1,1.265932679E0,-4.177165031E-1
8.362954639E0,-5.878923535E-1,7.675224543E-1,2.423474751E-2
8.383225732E0,-8.179892898E-1,5.519397259E-1,5.210470557E-1
8.403496826E0,-1.096955180E0,1.519465446E0,7.064029574E-1
8.423767920E0,-1.291365862E0,2.389519453E0,4.625907242E-1
8.444039014E0,-1.639041305E0,2.583930016E0,1.712411344E-1
8.464310055E0,-2.314285278E0,1.943839788E0,-4.709796906E-1
8.484581149E0,-2.120939970E0,6.934866309E-1,-1.353284240E0
8.504852243E0,-1.425056458E0,8.191877604E-1,-1.603088617E0
8.525123336E0,-1.094824672E0,4.454133511E-1,-1.460875869E0
8.545394430E0,-9.606015086E-1,-6.893587112E-1,-1.200951576E0
8.565665472E0,-4.840291739E-1,-7.831019163E-1,-4.411523044E-1
8.585936566E0,1.506016403E-1,-1.169126853E-1,3.166496158E-1
8.606207659E0,6.060018539E-1,2.366216928E-1,5.822997093E-1
8.626478753E0,1.023984671E0,-2.298306376E-1,6.653903127E-1
8.646749795E0,1.451554894E0,-9.034767151E-1,9.870999455E-1
8.667020889E0,1.793903947E0,-1.211204767E0,1.473792195E0
8.687291982E0,1.904158711E0,-1.124918461E0,1.747964501E0
8.707641722E0,1.744502425E0,-7.388935089E-1,1.323590040E0
8.727834274E0,1.508013844E0,-9.269125462E-1,3.203780353E-1
8.748105264E0,9.568730593E-1,-5.567334294E-1,-8.255792782E-3
8.768376357E0,7.976161242E-1,2.312953621E-1,1.632516533E-1
8.788647347E0,8.945551515E-1,4.821649492E-1,8.548741043E-2
8.809047347E0,8.040077090E-1,7.494129539E-1,-1.380847991E-1
8.829189534E0,8.700540662E-1,1.146756291E0,-3.165164590E-1
8.849460576E0,3.098585606E-1,1.200951576E0,-6.351634115E-2
8.869731670E0,-2.721748650E-1,4.922849536E-1,6.371608377E-1
8.890002711E0,-6.640587449E-1,4.699144363E-1,6.392913461E-1
8.910402711E0,-2.982738242E-2,1.450755954E0,-3.942807019E-1
8.930544847E0,-4.733765423E-1,1.143560529E0,-1.340501189E0
8.950815941E0,-1.166730046E0,-1.581783295E0,-1.082840443E0
8.971086982E0,-6.251766086E-1,-2.396576881E0,1.510011256E-1
8.991358024E0,1.038632020E-1,-1.383777499E0,5.982787013E-1
9.011758024E0,8.562056422E-1,-1.112135291E0,8.725841045E-1
9.031900159E0,9.329046607E-1,-8.560724854E-1,6.504766345E-1
9.052171201E0,1.014929891E0,2.771016955E-1,2.383527458E-1
9.072442243E0,1.198155284E0,2.009353489E-1,2.010685056E-1
9.092713336E0,6.619281769E-1,-4.077296555E-1,2.157158963E-2
9.113113336E0,-1.065263641E-3,-5.540702343E-1,-8.269108832E-2
9.133255420E0,-7.350318879E-2,5.338302255E-1,-2.504701018E-1
9.153526514E0,2.450106293E-2,1.395894885E0,-3.830954432E-1
9.173797555E0,-4.233091474E-1,9.305077791E-1,-2.637858987E-1
9.194068597E0,-1.238102674E0,6.099966168E-1,-6.298371404E-2
9.214339691E0,-1.685380220E0,1.182309508E0,-1.423458606E-1
9.234610732E0,-1.985251904E0,1.953959823E0,-3.021354079E-1
9.254881826E0,-2.375537872E0,1.667004466E0,-8.431561589E-1
9.275152868E0,-1.848365545E0,7.099981904E-1,-1.641438127E0
9.295423961E0,-1.214666843E0,4.992091656E-1,-1.394297004E0
9.315695003E0,-1.372858524E0,-4.407528341E-1,-1.339435816E0
9.335966045E0,-1.309475303E0,-1.246358514E0,-1.377252698E0
9.356237139E0,-6.384924054E-1,-1.161669970E0,-9.310404062E-1
9.376508180E0,1.438105945E-2,-4.651207328E-1,-4.443480968E-1
9.396779274E0,5.037365556E-1,-7.004108280E-2,-4.527370445E-3
9.417050316E0,9.318393469E-1,-1.914811432E-1,3.906854391E-1
9.437321357E0,1.347159028E0,-4.480765164E-1,9.333041310E-1
9.457592451E0,1.546363354E0,-5.556681752E-1,1.544632316E0
9.477863493E0,1.459011674E0,-8.113313913E-1,1.869404554E0
9.498134586E0,1.245426297E0,-1.432779551E0,1.385375381E0
9.518405628E0,1.048485756E0,-2.168077707E0,6.110618711E-1
9.538676670E0,6.251766086E-1,-1.470596433E0,3.102580309E-1
9.558947764E0,6.294376254E-1,-2.165148407E-1,2.261022031E-1
9.579218805E0,9.627320170E-1,1.167795286E-1,6.258423626E-2
9.599489899E0,1.226784229E0,1.205079481E-1,-2.440785319E-1
9.619760941E0,3.316964805E-1,2.929474926E-3,-1.023984700E-1
9.640032034E0,-3.435475230E-1,3.009369783E-2,1.029710412E0
9.660303024E0,-2.838927507E-1,5.514070988E-1,1.082840443E0
9.680574170E0,-8.131956458E-1,-2.458095849E-1,-6.657897960E-3
9.700845211E0,-6.773745418E-1,9.747162461E-1,-5.743102431E-1
9.721116305E0,-4.057323039E-1,-1.760348231E-1,-2.957438231E-1
9.741387347E0,-2.332927436E-1,-2.950380802E0,-1.913479865E-1
9.761658441E0,7.613971829E-1,-3.728822231E0,4.554001987E-2
9.781929482E0,1.495230675E0,-1.959419250E0,3.320959508E-1
9.802329482E0,1.290167451E0,-7.841671705E-1,4.530033767E-1
9.822471618E0,1.189633131E0,-8.475503922E-1,4.205128253E-1
9.842742659E0,1.201883674E0,-1.537574887E0,3.571296334E-1
9.863013753E0,9.472857118E-1,-1.244227886E0,5.572660565E-1
9.883284795E0,6.187850237E-1,-1.254348010E-1,9.396957159E-1
9.903555836E0,3.801659644E-1,7.446193099E-1,1.243162632E0
9.923826930E0,1.219726875E-1,9.326383471E-1,1.220792174E0
9.944097972E0,-6.018739566E-2,7.078676820E-1,9.679251909E-1
9.964369066E0,-2.604569495E-1,5.322323442E-1,7.037398219E-1
9.984640107E0,-7.226482034E-1,8.815056831E-2,7.522093058E-1
1.000491115E1,-1.198155284E0,-7.133271694E-1,9.040093422E-1
1.002518224E1,-1.691239238E0,-1.074318409E0,8.640619516E-1
1.004545328E1,-2.608697414E0,-9.333041310E-1,1.600558609E-1
1.006572438E1,-2.615621805E0,-3.795001805E-1,-9.970867634E-1
1.008599542E1,-2.036251545E0,9.305077791E-1,-1.758484006E0
1.010626651E1,-1.569266558E0,1.082840443E0,-2.527471066E0
1.012653756E1,-1.537308574E0,-1.098819494E0,-2.845851898E0
1.014680860E1,-1.829190850E0,-3.986083269E0,-3.041327715E0
1.016707969E1,-1.681119204E0,-4.142144680E0,-3.122820377E0
1.018735073E1,-1.110803604E0,-3.239466667E0,-3.116961479E0
1.020775073E1,-6.086649895E-1,-3.295392990E0,-2.970487595E0
1.022789287E1,-3.488738537E-1,-4.328965187E0,-2.678205967E0
1.024816391E1,-4.021370113E-1,-5.183173180E0,-2.491784811E0
1.026843500E1,-4.691154659E-1,-5.235371113E0,-2.366083622E0
1.028870605E1,-4.621912539E-1,-5.219924927E0,-2.053561926E0
1.030910604E1,-3.616569936E-1,-4.913661480E0,-1.427852750E0
1.032924813E1,-1.938779801E-1,-4.218177795E0,-7.675224543E-1
1.034951922E1,-2.822948620E-2,-3.515370131E0,-3.053312004E-1
1.036979032E1,1.367532164E-1,-3.249586821E0,1.201084778E-1
1.039006136E1,5.965476483E-2,-3.736811638E0,7.468829751E-1
1.041046136E1,-6.773745418E-1,-3.847599030E0,1.135038376E0
1.043060349E1,-1.715207577E0,-2.943456650E0,6.989461184E-1
1.045087453E1,-1.554885387E0,-2.280995846E0,-1.673795432E-1
1.047114552E1,-1.099618435E0,-7.101313472E-1,-3.990744054E-1
1.049141667E1,-1.044757366E0,1.571130753E0,-1.058872104E0
1.051181667E1,-4.547344148E-1,3.149984598E0,-1.876195550E0
1.053195875E1,1.346226931E-1,1.263802171E0,-1.257943153E0
1.055222985E1,-1.270060539E0,-1.833718181E0,3.246390820E-1
1.057250089E1,-1.075117350E0,-1.798031926E0,8.335687965E-2
1.059277193E1,1.516669095E-1,-6.307692528E-1,-3.697796464E-1
1.061304302E1,8.609993458E-1,-1.388571143E0,-4.304996729E-1
1.063331407E1,1.075649977E0,-2.743719578E0,2.383527458E-1
1.065358511E1,8.226498365E-1,-2.529202223E0,7.330345511E-1
1.067385615E1,4.451470375E-1,-1.903492928E0,3.435475379E-2
1.069412724E1,1.253415823E0,-2.697380781E0,-8.644614220E-1
1.071439828E1,1.363670588E0,-1.173387885E0,-3.708449006E-1
1.073466933E1,1.010668874E0,-1.170192122E0,-1.251684781E-2
1.075494037E1,9.888309836E-1,-1.661678076E0,1.744369268E-1
1.077521146E1,1.018125772E0,-1.637709737E0,4.050664902E-1
1.079548250E1,8.631298542E-1,-1.227183700E0,3.661843836E-1
1.081575355E1,7.475487590E-1,-1.337971091E0,1.371526867E-1
1.083602459E1,7.214497924E-1,-1.384842753E0,-4.434159771E-2
1.085629563E1,7.155908346E-1,-1.114798427E0,-7.736477256E-2
1.087656672E1,6.502103209E-1,-8.299735188E-1,-5.060002208E-3
1.089683776E1,6.150565743E-1,-5.210470557E-1,1.318263710E-1
1.091710880E1,6.518082023E-1,-7.085334659E-1,2.005358785E-1
1.093737985E1,5.905555487E-1,-9.620662332E-1,1.824263930E-1
1.095765089E1,3.455449045E-1,-7.953524590E-1,5.938844755E-2
1.097792193E1,6.604634225E-2,-4.608596861E-1,-7.576687634E-2
1.099819297E1,-2.924148738E-1,-4.720449448E-1,-1.721732318E-1
1.101846401E1,-7.764440179E-1,-5.498092175E-1,-1.934785098E-1
1.103873511E1,-1.486708522E0,-1.032773137E0,-2.882869840E-1
1.105900615E1,-2.237586260E0,-1.684581280E0,-6.828339696E-1
1.107927719E1,-2.768486977E0,-1.720800281E0,-1.066328883E0
1.109954823E1,-3.064630270E0,-1.130777359E0,-1.377252698E0
1.111981927E1,-2.756769180E0,-4.880239069E-1,-1.629187584E0
1.114009032E1,-1.985784531E0,7.163897902E-2,-1.643568635E0
1.116036130E1,-1.670466542E0,-7.376950979E-2,-1.642503381E0
1.118063240E1,-1.604420185E0,-9.689904451E-1,-2.066877842E0
1.120090344E1,-1.615605474E0,-1.593501210E0,-2.604170084E0
1.122117448E1,-1.506415963E0,-2.332661152E0,-2.814959288E0
1.124144558E1,-1.415469050E0,-3.053178787E0,-2.710163832E0
1.126171657E1,-1.305214286E0,-3.397658348E0,-2.311755180E0
1.128198766E1,-8.126630187E-1,-3.469563723E0,-1.808018684E0
1.130225865E1,2.663159044E-3,-2.954641819E0,-1.334109545E0
1.132252969E1,4.073301852E-1,-1.853958249E0,-7.467498183E-1
1.134280078E1,4.765723348E-1,-1.309208989E0,-1.731053367E-2
1.136307177E1,7.709845304E-1,-9.906951785E-1,5.178512931E-1
1.138334287E1,1.078313112E0,-6.653903127E-1,9.269125462E-1
1.140361391E1,1.130511045E0,-7.468829751E-1,1.363537431E0
1.142388490E1,9.659277797E-1,-1.166996360E0,1.428518534E0
1.144415594E1,7.917572260E-1,-8.246471882E-1,1.208541632E0
1.146442698E1,8.881635666E-1,3.527354300E-1,9.343693852E-1
1.148469802E1,1.148087859E0,9.997498989E-1,5.988113284E-1
1.150496907E1,1.292297959E0,5.466133952E-1,3.896201849E-1
1.152524006E1,1.147022605E0,-3.070622385E-1,2.836264372E-1
1.154551110E1,1.019191027E0,-5.854955316E-1,2.926811874E-1
1.156578214E1,6.635261178E-1,-4.997417927E-1,2.388853729E-1
1.158605318E1,-3.781685978E-2,-6.936197877E-1,4.167844057E-1
1.160645318E1,-4.680502117E-1,-6.419544816E-1,6.313018799E-1
1.162659521E1,-1.147022605E0,3.255712092E-1,-3.585943878E-1
1.164686625E1,-2.450106442E-1,1.839976668E0,-1.464604378E0
1.166713730E1,1.942774504E-1,1.237170577E0,-1.682317615E0
1.168740834E1,-2.993390858E-1,-1.545031786E0,-1.380448580E0
1.170780834E1,1.118526831E-1,-3.103778839E0,-1.450090110E-1
1.172795032E1,3.902859688E-1,-2.284191608E0,1.161669970E0
1.174822136E1,9.534109384E-2,-1.233042717E0,1.790575027E0
1.176849235E1,7.289066315E-1,-1.287903786E0,1.145158410E0
1.178876339E1,1.337571621E0,-1.984053552E-1,6.897582114E-2
1.180916339E1,1.306146383E0,-2.010685056E-1,-5.700492263E-1
1.182930542E1,5.063996911E-1,-1.227716357E-1,-9.065393806E-1
1.184957646E1,-3.542001545E-1,2.840259075E-1,-1.023185730E0
1.186984745E1,-6.635261178E-1,1.695100814E-1,-8.729835749E-1
1.189011849E1,-8.542082906E-1,-2.980075181E-1,-1.304947957E-2
1.191051849E1,-1.172056317E0,4.757733643E-1,6.387587190E-1
1.193066047E1,-1.529851794E0,1.680852890E0,5.077312589E-1
1.195093151E1,-2.473542213E0,2.581799507E0,2.841590643E-1
1.197120245E1,-3.348389864E0,2.280329943E0,-3.628554344E-1
1.199147355E1,-2.932537556E0,4.374238849E-1,-1.226517916E0
1.201187354E1,-2.018141985E0,8.990825415E-1,-1.638774991E0
1.203201552E1,-1.672597051E0,5.226449966E-1,-1.654620767E0
1.205228657E1,-1.240765810E0,-7.143924236E-1,-1.507747531E0
1.207255756E1,1.809616536E-1,-9.848362207E-1,-9.022783041E-1
1.209282855E1,1.237969518E0,2.286322117E-1,-2.504701018E-1
1.211322854E1,1.721599221E0,5.109270811E-1,-7.683213800E-2
1.213337052E1,2.022935629E0,3.159838319E-1,2.660495937E-1
1.215364157E1,2.087383986E0,1.205079481E-1,9.396957159E-1
1.217391256E1,1.876994491E0,-4.407528341E-1,1.483379602E0
1.219418355E1,1.548493862E0,-1.447160602E0,1.796433926E0
1.221445453E1,1.242763162E0,-2.515353680E0,1.728789687E0
1.223472552E1,9.675257206E-1,-3.055309296E0,8.326367140E-1
1.225499651E1,1.027180433E0,-2.522278070E0,-1.332911104E-1
1.227526750E1,1.420129538E0,-7.767103314E-1,-7.824361324E-1
1.229553849E1,1.030376315E0,1.253016293E-1,-6.210486889E-1
1.231580948E1,2.422143221E-1,5.876260400E-1,-2.600574791E-1
1.233608047E1,-6.997450590E-1,1.229713678E0,3.741738498E-1
1.235635146E1,-8.014777303E-1,1.129179478E0,1.110004663E0
1.237662245E1,-6.187850237E-1,1.806953400E-1,-2.201101035E-1
1.239689344E1,-4.808333814E-1,2.382195890E-1,-1.772865057E0
1.241716443E1,-9.478183389E-1,-5.274386406E-1,-1.202549458E0
1.243743542E1,-4.962796867E-1,-2.781536579E0,-6.743118763E-1
1.245770636E1,5.958818197E-1,-1.453552246E0,3.795001805E-1
1.247797735E1,1.556483388E0,-2.767022252E-1,1.117461562E0
1.249824834E1,1.692837119E0,-8.299735188E-1,1.154745817E0
1.251851933E1,1.031441569E0,-3.960117698E-1,3.914843872E-2
1.253879032E1,6.001428962E-1,5.881586671E-1,-2.872217000E-1
1.255906125E1,-6.604634225E-2,4.560659826E-1,-3.197122514E-1
1.257933224E1,-7.269092798E-1,1.307477951E0,-1.870869249E-1
1.259960323E1,-1.092161536E0,2.216547251E0,-1.311605871E-1
1.261987417E1,-1.161403656E0,2.637725830E0,-2.233058959E-1
1.264014516E1,-1.550624371E0,2.850112915E0,-2.392848432E-1
1.266041615E1,-2.247173548E0,3.188866615E0,-2.994722426E-1
1.268068709E1,-2.824945927E0,2.309092045E0,-7.222487330E-1
1.270095808E1,-2.651840687E0,5.796365738E-1,-1.260606408E0
1.272122901E1,-1.837712884E0,5.929523706E-1,-9.544762373E-1
1.274150000E1,-1.210938454E0,9.038761854E-1,-8.026761413E-1
1.276177094E1,-7.119956017E-1,-4.024033546E-1,-1.001347780E0
1.278204193E1,-4.207791388E-2,-7.926893234E-1,-5.071986318E-1
1.280231287E1,7.640603185E-1,-8.139945865E-1,-9.494162351E-2
1.282258380E1,1.372725368E0,-5.141228437E-1,2.372874767E-1
1.284285480E1,1.712544441E0,-5.668534040E-1,7.484808564E-1
1.286312573E1,1.877527118E0,-1.030109882E0,1.552089095E0
1.288339667E1,1.808284998E0,-1.261272192E0,2.195242167E0
1.290366766E1,1.526655912E0,-1.453552246E0,1.946636200E0
1.292393860E1,1.160871029E0,-2.580334902E0,4.354265034E-1
1.294420953E1,7.331677079E-1,-2.928010225E0,-6.711161137E-1
1.296448047E1,8.285087943E-1,-1.995638251E0,-7.691203356E-1
1.298475141E1,6.635261178E-1,-7.809714079E-1,-3.548659384E-1
1.300502235E1,4.408859909E-1,1.156876326E0,-1.881521940E-1
1.302529334E1,4.687159881E-2,2.469946861E0,3.435475379E-2
1.304556427E1,-4.925512671E-1,1.259541154E0,5.870934129E-1
1.306583521E1,-8.749809265E-1,4.757733643E-1,-2.067943066E-1
1.308610615E1,-1.100683689E0,7.094655633E-1,-9.438235760E-1
1.310637709E1,-1.945304513E0,-1.110537291E0,-1.515737057E0
1.312664802E1,-9.515467286E-1,-2.611094236E0,-6.183855534E-1
1.314691896E1,2.075932473E-1,-1.357678533E0,-1.375521719E-1
1.316718990E1,1.170991063E0,-1.669800729E-1,4.364917874E-1
1.318746084E1,1.139565825E0,-6.845650673E-1,6.579334736E-1
1.320786084E1,8.088014126E-1,-4.074633494E-2,-9.334372729E-2
1.322800266E1,1.243295789E0,-1.890842989E-2,-2.238385230E-1
1.324827360E1,8.269109130E-1,-3.768370152E-1,1.153147891E-1
1.326854453E1,-8.522108942E-2,-6.877608299E-1,1.249021590E-1
1.328881547E1,-4.904207587E-1,-8.006787896E-1,3.994738683E-3
1.330921547E1,-3.568633273E-2,1.966743022E-1,1.739042848E-1
1.332935730E1,1.665806025E-1,1.625991821E0,3.379548788E-1
1.334962823E1,-4.440817833E-1,2.172338963E0,2.479401082E-1
1.336989917E1,-1.302551150E0,2.273938417E0,7.989477599E-4
1.339017006E1,-1.767405510E0,2.683532238E0,-3.692470193E-1
1.341057006E1,-2.257826328E0,2.370877504E0,-7.877624631E-1
1.343071193E1,-2.572478533E0,1.368198037E0,-1.171656847E0
1.345098282E1,-2.183257818E0,8.905603886E-1,-1.444364309E0
1.347125370E1,-1.587375998E0,5.721797347E-1,-1.469930649E0
1.349152464E1,-1.372858524E0,-3.169159219E-2,-8.085350990E-1
1.351192464E1,-7.748461366E-1,-4.928175807E-1,-6.498108506E-1
1.353206646E1,1.065263618E-2,-2.900180221E-1,-1.743037701E-1
1.355233740E1,4.989428520E-1,1.210405827E-1,4.423507154E-1
1.357260828E1,8.455530405E-1,-9.187898785E-2,7.207840085E-1
1.359287922E1,1.090563655E0,-5.870934129E-1,8.470177650E-1
1.361315011E1,1.306146383E0,-1.063665748E0,1.065263629E0
1.363342099E1,1.559679151E0,-1.072720528E0,1.430649042E0
1.365369193E1,1.632649660E0,-9.098683000E-1,1.608947515E0
1.367396282E1,1.598028660E0,-9.455546141E-1,1.099884748E0
1.369423370E1,1.451554894E0,-1.397625923E0,1.611211300E-1
1.371450464E1,1.173121572E0,-1.677657127E0,-1.332911104E-1
1.373477552E1,1.108140469E0,-1.316133261E0,4.980107397E-2
1.375504641E1,8.540751338E-1,-9.540767670E-1,-1.503353268E-1
1.377531730E1,5.767071247E-1,-8.230493069E-1,-3.617901504E-1
1.379558818E1,6.422207952E-1,-1.280979514E-1,-2.078595608E-1
1.381585912E1,4.462123215E-1,7.084003091E-1,1.850895584E-1
1.383613000E1,-3.834949061E-2,8.447540402E-1,6.094639897E-1
1.385640089E1,-3.296990991E-1,1.291499019E0,2.388853729E-1
1.387667177E1,-9.664604664E-1,1.365534782E0,-8.346340656E-1
1.389694266E1,-6.518082023E-1,8.026761413E-1,-1.265932679E0
1.391721355E1,-6.054692268E-1,-6.435524225E-1,-7.888277173E-1
1.393748443E1,-3.936149180E-1,-1.980191946E0,1.834916621E-1
1.395775532E1,3.036001325E-2,-2.229863167E0,3.342264593E-1
1.397802620E1,7.337003350E-1,-1.309208989E0,4.476770461E-1
1.399829709E1,1.138500571E0,1.716406047E-1,1.723063886E-1
1.401856797E1,1.241697907E0,6.583329439E-1,-4.966791719E-2
1.403883886E1,1.240632653E0,2.456764281E-1,-1.790974438E-1
1.405910969E1,5.697829127E-1,-1.403484792E-1,-3.032006621E-1
1.407938063E1,-4.771049619E-1,-3.528685868E-1,4.021370411E-2
1.409965146E1,-7.258440256E-1,4.358259737E-1,3.928159773E-1
1.411992235E1,-1.768337637E-1,1.866608262E0,2.495380044E-1
1.414019323E1,-2.663159044E-3,2.145174742E0,1.765674502E-1
1.416046412E1,-4.430165291E-1,1.537042260E0,1.062600464E-1
1.418073500E1,-8.456861973E-1,4.550007284E-1,2.964096069E-1
1.420100584E1,-8.851009011E-1,4.842954874E-1,3.763043880E-1
1.422127672E1,-1.125717402E0,1.829856634E0,6.737792492E-2
1.424154761E1,-1.779656053E0,2.356496334E0,-4.134554565E-1
1.426181849E1,-1.985251904E0,1.487507463E0,-1.095090985E0
1.428208933E1,-1.538906455E0,6.444845200E-1,-1.335707426E0
1.430248933E1,-1.079378366E0,8.926909566E-1,-1.385242224E0
1.432263110E1,-1.070856333E0,4.209122956E-1,-1.296292663E0
1.434290193E1,-9.765804410E-1,-1.249021590E-1,-7.126613855E-1
1.436317282E1,-6.581997871E-1,-1.025316268E-1,-5.205144286E-1
1.438344365E1,-3.376885653E-1,-2.857569754E-1,-5.647228956E-1
1.440371448E1,-2.237053588E-2,-5.982787013E-1,-4.038680792E-1
1.442398537E1,2.459427416E-1,-6.771082282E-1,-1.705753356E-1
1.444425620E1,3.812312186E-1,-8.837693334E-1,4.234423116E-2
1.446452709E1,5.170523524E-1,-1.155278444E0,2.106558830E-1
1.448479787E1,7.289066315E-1,-1.185638428E0,5.407544374E-1
1.450506875E1,9.904288650E-1,-1.149952054E0,1.049284697E0
1.452533959E1,1.306146383E0,-1.050882578E0,1.407745957E0
1.454561047E1,1.422260165E0,-8.640619516E-1,1.672330737E0
1.456588131E1,1.386041164E0,-1.029044628E0,1.559545994E0
1.458615214E1,1.330114841E0,-1.725593925E0,7.149250507E-1
1.460642297E1,1.513872743E0,-2.329998016E0,-4.061317816E-2
1.462669380E1,1.576190710E0,-2.197905302E0,8.788425475E-3
1.464696464E1,9.334372878E-1,-1.107341528E0,1.304947957E-2
1.466723547E1,6.347639561E-1,8.415582776E-1,-2.530001104E-2
1.468750631E1,9.020119905E-1,2.434260607E0,-4.114580899E-2
1.470790631E1,8.855004311E-1,2.399106979E0,6.791055948E-2
1.472804797E1,5.894902945E-1,1.376187444E0,2.703106403E-1
1.474831880E1,1.905490309E-1,6.945518851E-1,4.908202291E-1
1.476858964E1,-2.077264152E-2,5.476786494E-1,5.466133952E-1
1.478886047E1,-1.533979625E-1,7.254445553E-1,2.639190555E-1
1.480926047E1,-8.468846232E-2,1.993374586E0,-9.305077791E-1
1.482940209E1,4.627238810E-1,2.987531900E0,-1.622796059E0
1.484967297E1,-4.073301852E-1,3.900196552E-1,-1.671132326E0
1.486994375E1,-5.277049541E-1,-2.200568438E0,-6.671213359E-2
1.489021459E1,-3.467433155E-1,-3.153180361E0,5.359607935E-1
1.491061459E1,7.331677079E-1,-3.089930296E0,2.692453861E-1
1.493075620E1,1.564472795E0,-1.755421281E0,-2.050632425E-2
1.495102703E1,1.390302181E0,-5.592633970E-3,-1.571263932E-2
1.497129787E1,1.074584723E0,7.696529478E-2,1.318263710E-1
1.499156865E1,5.996102691E-1,-4.407528341E-1,1.504684836E-1
1.501172162E1,3.924165070E-1,-3.789675534E-1,2.527337968E-1
1.503211099E1,5.340965390E-1,7.004108280E-2,5.077312589E-1
1.505238130E1,5.953491926E-1,9.571393728E-1,5.838976502E-1
1.507265209E1,4.712460041E-1,1.237703204E0,4.269044101E-1
1.509292282E1,3.055975139E-1,7.552719116E-1,2.037316710E-1
1.511332282E1,1.500690132E-1,4.496744275E-1,-1.098553166E-1
1.513346443E1,-1.816274524E-1,3.836280704E-1,-4.320975542E-1
1.515373521E1,-6.640587449E-1,6.908234954E-1,-4.757733643E-1
1.517400599E1,-8.515450954E-1,3.617901504E-1,-4.118575454E-1
1.519427677E1,-7.370292544E-1,-4.024033546E-1,-3.111901283E-1
1.521454761E1,-5.543365479E-1,-8.315714002E-1,-1.428784877E-1
1.523481834E1,-5.894902945E-1,-5.572660565E-1,-5.659212917E-2
1.525508912E1,-7.263766527E-1,4.129228294E-1,-1.636511236E-1
1.527535990E1,-1.401620626E0,1.820801854E0,-3.058638275E-1
1.529563073E1,-2.410158873E0,3.119624615E0,-5.316997170E-1
1.531590151E1,-2.778074503E0,2.350104809E0,-8.751140833E-1
1.533617230E1,-2.078861952E0,1.094558358E0,-1.360208511E0
1.535644308E1,-1.769536018E0,1.408145428E0,-9.874994159E-1
1.537671381E1,-1.591104388E0,6.625939608E-1,-5.103944540E-1
1.539698459E1,-1.330780625E0,-2.996053994E-1,-7.313035131E-1
1.541725542E1,-9.659277797E-1,-3.906854391E-1,-7.259771824E-1
1.543752625E1,-4.707133770E-1,2.849580161E-2,-3.756386042E-1
1.545779703E1,1.150484756E-1,4.358259737E-1,-6.085318699E-2
1.547806776E1,3.418164849E-1,2.238385230E-1,6.897582114E-2
1.549833860E1,3.801659644E-1,-8.028092980E-1,1.989379823E-1
1.551860933E1,4.115912318E-1,-1.638242364E0,5.162534118E-1
1.553888011E1,7.805719376E-1,-1.576457024E0,1.021721005E0
1.555915089E1,1.301352739E0,-1.379516363E0,1.416800618E0
1.557942167E1,1.600159168E0,-1.169126868E0,1.628122330E0
1.559969245E1,1.756619692E0,-9.391630292E-1,1.386440635E0
1.561996323E1,1.688575983E0,-1.053013086E0,6.297039986E-1
1.564023401E1,1.612409711E0,-2.007356167E0,5.193160102E-2
1.566050474E1,1.496295929E0,-2.549442291E0,-3.595264629E-2
1.568077552E1,7.587340474E-1,-2.503635883E0,-2.035985142E-1
1.570104630E1,1.544632297E-2,-1.744236112E0,-4.773712754E-1
1.572131709E1,1.134505793E-1,4.576638937E-1,-4.715123177E-1
1.574158782E1,4.696480930E-1,2.564755440E0,-9.760478139E-2
1.576185860E1,-2.668485343E-1,1.867140889E0,7.644598484E-1
1.578212933E1,-3.557980657E-1,1.265932679E0,1.111070037E0
1.580240011E1,-4.233091474E-1,1.071655273E0,3.960117698E-1
1.582267089E1,-1.970870852E0,9.001477957E-1,-8.942888379E-1
1.584294162E1,-7.727156281E-1,1.140897393E0,-1.273922205E0
1.586321240E1,2.075932473E-1,-5.406212807E-2,-4.539354742E-1
1.588348313E1,-1.438105945E-2,-1.632915974E0,-1.013332009E-1
1.590375391E1,1.074584723E0,-1.685646534E0,-6.990792602E-2
1.592402469E1,1.799762964E0,-6.098634377E-2,1.304947957E-2
1.594429542E1,1.343430638E0,2.179795653E-1,2.553969622E-1
1.596456615E1,1.064464688E0,2.316948399E-2,2.596580088E-1
1.598483693E1,8.977509141E-1,-5.455481410E-1,5.086633936E-2
1.600510766E1,6.225134134E-1,-6.174534559E-1,4.021370411E-2
1.602537839E1,2.741722167E-1,-1.882853508E-1,3.150517344E-1
1.604564917E1,4.474107176E-2,2.078595608E-1,7.761777043E-1
1.606591990E1,-9.001477808E-2,7.552719116E-1,1.064198375E0
1.608619063E1,-5.166528746E-2,1.210538983E0,1.110004663E0
1.610659063E1,7.030740380E-2,1.081775188E0,9.514135718E-1
1.612673214E1,4.154528305E-2,2.664490640E-1,7.250450850E-1
1.614700287E1,-1.241032109E-1,-1.563274413E-1,7.239798307E-1
1.616727360E1,-3.472759426E-1,-2.862896025E-1,8.150598407E-1
1.618754433E1,-7.732482553E-1,-4.380896688E-1,7.058703303E-1
1.620794433E1,-1.445829034E0,-8.459525108E-1,2.127864063E-1
1.622808578E1,-2.193377733E0,1.198421605E-2,-3.644533157E-1
1.624835657E1,-2.314817905E0,1.412406445E0,-8.948214650E-1
1.626862730E1,-1.083106756E0,7.659245729E-1,-2.079128265E0
1.628889802E1,-7.673892975E-1,1.167528987E0,-2.852243423E0
1.630929802E1,-1.084172130E0,6.753771305E-1,-2.288851976E0
1.632943948E1,-5.799028873E-1,-4.944154918E-1,-1.785648227E0
1.634971021E1,-4.685828388E-1,-3.496727943E-1,-1.585511804E0
1.636998094E1,-4.637891650E-1,-5.524723530E-1,-1.811214447E0
1.639025167E1,-4.398207366E-1,-1.774063468E0,-2.066877842E0
1.641065167E1,-5.639239550E-1,-3.279946804E0,-1.737178683E0
1.643079318E1,-6.001428962E-1,-4.148536205E0,-1.106276274E0
1.645106391E1,-6.219807863E-1,-4.241613388E0,-8.617982864E-1
1.647133464E1,-8.185219765E-1,-3.533479452E0,-6.428865790E-1
1.649160537E1,-9.723193645E-1,-2.758633375E0,-3.719101548E-1
1.651200537E1,-4.659196734E-1,-2.448774815E0,-7.523424178E-2
1.653214683E1,8.588688374E-1,-2.034520388E0,5.269060135E-1
1.655241756E1,1.484578013E0,-8.001461625E-1,1.073785782E0
1.657268828E1,1.263003230E0,-1.100950003E0,9.359672666E-1
1.659295901E1,7.544729710E-1,-1.618002295E0,5.135902166E-1
1.661322974E1,-2.615222335E-1,-1.441834331E0,-1.284974217E-1
1.663350047E1,-1.901628733E0,-1.384842753E0,-6.990792602E-2
1.665377120E1,-1.751426578E0,-4.066644013E-1,-3.442133069E-1
1.667404193E1,4.909533858E-1,1.235572696E0,-8.831035495E-1
1.669431266E1,1.792306066E0,2.226134777E0,1.030642539E-1
1.671458339E1,6.948181987E-1,9.273120165E-1,1.073253155E0
1.673485412E1,-6.817687303E-2,-2.415485233E-1,2.783001363E-1
1.675512485E1,-1.464737505E-1,-8.006787896E-1,-1.890842989E-2
1.677539558E1,1.043958366E-1,-2.198437929E0,4.631233811E-1
1.679566630E1,4.787028432E-1,-3.312969923E0,4.716454744E-1
1.681593703E1,6.581997871E-1,-2.603637457E0,1.126516312E-1
1.683620782E1,7.571361065E-1,-1.665939212E0,-2.743053809E-2
1.685647854E1,7.097318769E-1,-1.826261401E0,-1.865542978E-1
1.687674922E1,6.395576596E-1,-2.291648388E0,-2.824280262E-1
1.689702000E1,4.366249442E-1,-1.822000265E0,-1.210405827E-1
1.691729073E1,2.890859246E-1,-1.510011196E0,3.222422674E-2
1.693756146E1,2.816290855E-1,-1.138234258E0,1.611211300E-1
1.695783219E1,2.587259114E-1,-1.006141543E0,3.320959508E-1
1.697810292E1,2.193111479E-1,-1.406147957E0,3.848264813E-1
1.699837365E1,2.246374637E-1,-1.873665571E0,2.484727502E-1
1.701864438E1,3.652522564E-1,-1.829457164E0,8.708529919E-2
1.703904438E1,5.554018021E-1,-1.663808703E0,2.743053809E-2
1.705918589E1,6.177197695E-1,-1.459411144E0,2.210422046E-2
1.707945662E1,5.580649972E-1,-1.259674311E0,2.210422046E-2
1.709972735E1,4.605933726E-1,-1.146756291E0,6.524740160E-2
1.711999808E1,3.604585826E-1,-1.110004663E0,1.233042628E-1
1.714026880E1,1.836248189E-1,-9.663273096E-1,1.930790395E-1
1.716053953E1,-2.119874656E-1,-7.340998054E-1,2.942790687E-1
1.718081032E1,-7.285071611E-1,-1.706419230E0,2.122537792E-1
1.720108105E1,-1.133706808E0,-2.296974659E0,-4.065312445E-1
1.722135177E1,-1.189633131E0,-1.551423311E0,-1.107874155E0
1.724162250E1,-1.418132186E0,-3.225085735E-1,-1.459277987E0
1.726189323E1,-1.803091884E0,5.322323442E-1,-1.510943294E0
1.728216396E1,-1.860616088E0,7.627287507E-1,-1.284574747E0
1.730243474E1,-1.687510729E0,5.295692086E-1,-9.496825337E-1
1.732270547E1,-1.623062372E0,-6.153228879E-1,-8.229161501E-1
1.734297620E1,-1.773797154E0,-1.953027725E0,-1.249421120E0
1.736324693E1,-1.890443444E0,-2.703239679E0,-1.914012432E0
1.738351771E1,-1.562342286E0,-3.119757652E0,-1.995505095E0
1.740378844E1,-1.150750995E0,-3.133073568E0,-1.869271398E0
1.742405917E1,-9.542099237E-1,-3.400321484E0,-1.755288124E0
1.744432985E1,-9.165261984E-1,-3.814043283E0,-1.561543345E0
1.746460068E1,-1.030908942E0,-3.843870640E0,-1.424656987E0
1.748487141E1,-1.192829013E0,-3.627755404E0,-1.595099092E0
1.750514214E1,-1.363271117E0,-3.367830992E0,-1.823464990E0
1.752541287E1,-1.264734268E0,-3.177148819E0,-1.808551311E0
1.754568360E1,-5.868270993E-1,-3.024416685E0,-1.445962191E0
1.756595438E1,1.703090221E-1,-2.302833557E0,-9.528783560E-1
1.758622511E1,3.796333373E-1,-1.566869617E0,-4.810996950E-1
1.760649584E1,3.087933064E-1,-1.339036345E0,-5.179844424E-2
1.762676657E1,3.354249001E-1,-9.295756817E-1,2.479401082E-1
1.764703730E1,4.846949503E-2,-1.696831822E0,3.416832983E-1
1.766730802E1,-6.725808382E-1,-3.068624973E0,3.235738277E-1
1.768757875E1,-5.580649972E-1,-6.547376513E-1,2.756369710E-1
1.770797875E1,4.589954615E-1,1.037034154E0,-9.494162351E-2
1.772812026E1,9.302414656E-1,1.311605871E-1,-1.572595388E-1
1.774839099E1,3.327617347E-1,6.412886977E-1,-5.210470557E-1
1.776866172E1,1.416401148E0,1.119592071E0,-8.127961755E-1
1.778893245E1,2.410558462E0,-8.438219428E-1,-1.113733172E0
1.780933245E1,1.127315283E0,-3.036667109E0,-9.709877968E-1
1.782947391E1,-4.392880797E-1,-3.760247469E0,2.149169445E-1
1.784974469E1,-7.450187802E-1,-2.294844151E0,1.575391769E0
1.787001542E1,-3.755054474E-1,-1.152082682E0,2.105360508E0
1.789028615E1,3.109238148E-1,-1.271924734E0,1.681918144E0
1.791068615E1,8.902940750E-1,-2.027063608E0,1.733716577E-1
1.793082761E1,6.980140209E-1,-1.912547708E0,-6.194508076E-1
1.795109834E1,6.809697747E-1,-1.170192122E0,-5.386239290E-1
1.797136901E1,7.001445293E-1,-5.615270734E-1,-3.996070325E-1
1.799163980E1,5.324986577E-1,-3.310306668E-1,-4.274370521E-2
1.801203980E1,3.242396116E-1,-6.131923795E-1,3.448790908E-1
1.803218130E1,1.889511347E-1,-1.218128920E0,4.604602158E-1
1.805245203E1,2.267680019E-1,-1.578054905E0,2.063948363E-1
1.807272276E1,3.359575272E-1,-1.673928618E0,-1.647163928E-1
1.809299349E1,4.094607234E-1,-1.713876009E0,-3.495396376E-1
1.811339349E1,4.057323039E-1,-1.568467498E0,-4.006722867E-1
1.813353495E1,3.647196293E-1,-1.303882718E0,-2.877543271E-1
1.815380568E1,3.886880577E-1,-9.647293687E-1,-7.097318769E-2
1.817407641E1,4.510059953E-1,-5.455481410E-1,9.614004195E-2
1.819434714E1,4.941491783E-1,-3.059969842E-1,1.728390306E-1
1.821461787E1,4.046670198E-1,-2.436790615E-1,1.930790395E-1
1.823488860E1,2.070606202E-1,-1.627190262E-1,2.079927325E-1
1.825515933E1,-6.924213469E-2,5.139897019E-2,2.511359155E-1
1.827543006E1,-4.824312627E-1,-2.937464416E-1,1.675127149E-1
1.829570078E1,-7.812377214E-1,-1.137701511E0,-2.291648388E-1
1.831597151E1,-9.074714780E-1,-1.548227549E0,-6.157223582E-1
1.833624224E1,-1.153414249E0,-8.869651556E-1,-9.145288467E-1
1.835651297E1,-1.733849764E0,3.596596420E-1,-9.097351432E-1
1.837678370E1,-2.133190393E0,1.293096900E0,-8.271772265E-1
1.839705443E1,-1.930390835E0,1.555684447E0,-7.850993276E-1
1.841732516E1,-1.452220678E0,1.361806393E0,-7.920235395E-1
1.843759589E1,-1.239167929E0,4.709796906E-1,-9.949562550E-1
1.845786662E1,-1.251951098E0,-7.831019163E-1,-1.264334798E0
1.847813735E1,-1.448492289E0,-1.619600177E0,-1.416667461E0
1.849840802E1,-1.348890066E0,-2.142511606E0,-1.399623275E0
1.851867875E1,-1.092694163E0,-2.336922169E0,-1.365534782E0
1.853894948E1,-9.309072495E-1,-2.317747355E0,-1.434244394E0
1.855922021E1,-7.823029757E-1,-2.307627439E0,-1.485909581E0
1.857949094E1,-6.305029392E-1,-2.182458878E0,-1.436374903E0
1.859976167E1,-3.914843798E-1,-1.792705536E0,-1.272856951E0
1.862003240E1,2.130527282E-3,-1.423724890E0,-8.692551255E-1
1.864030313E1,3.689807057E-1,-1.174453139E0,-4.635228515E-1
1.866057386E1,5.596628785E-1,-8.901609182E-1,-1.167795286E-1
1.868084453E1,5.388902426E-1,-8.278430104E-1,2.335590571E-1
1.870111526E1,4.744417965E-1,-6.739124060E-1,6.344976425E-1
1.872138599E1,4.392880797E-1,-5.684512854E-1,8.672577739E-1
1.874165672E1,4.179828167E-1,-5.173186660E-1,8.667251468E-1
1.876192745E1,4.323638678E-1,-5.040028691E-1,6.707166433E-1
1.878219818E1,5.442165732E-1,-2.878875136E-1,3.139864504E-1
1.880259818E1,6.512755752E-1,5.992107838E-2,1.624527015E-2
1.882273964E1,7.161234617E-1,3.138532937E-1,-9.600688517E-2
1.884301032E1,8.444877267E-1,3.830954432E-1,-5.392897129E-2
1.886328104E1,1.004277349E0,1.902827173E-1,1.677790284E-2
1.888355177E1,1.082041502E0,-3.187801540E-1,5.992107838E-2
1.890382250E1,9.867004752E-1,-9.986846447E-1,1.478053331E-1
1.892409323E1,7.486140132E-1,-1.140897393E0,2.948117256E-1
1.894436396E1,7.091992497E-1,-4.215780795E-1,5.151881576E-1
1.896463469E1,7.454182506E-1,1.489105463E0,6.270408034E-1
1.898490542E1,2.688459158E-1,3.179279327E0,7.372955680E-1
1.900517615E1,3.556649089E-1,3.359708309E0,3.810980618E-1
1.902544688E1,5.713807940E-1,1.565271735E0,-9.121319652E-2
1.904571761E1,-1.142761588E0,2.541319609E0,-7.520761490E-1
1.906598828E1,-1.448492289E0,1.438505411E0,-1.385774851E0
1.908625901E1,-1.322258472E0,-1.740507603E0,-1.072187901E0
1.910652974E1,-4.265049398E-1,-3.144658327E0,9.560741484E-2
1.912680047E1,1.164066792E0,-1.482314348E0,-2.689790726E-2
1.914707120E1,2.318413258E0,-4.820318148E-2,2.292979956E-1
1.916734193E1,1.564472795E0,-3.648528084E-2,3.848264813E-1
1.918761266E1,5.293028951E-1,-6.680534482E-1,1.850895584E-1
1.920801266E1,3.934817612E-1,-2.649843395E-1,1.158474237E-1
1.922815412E1,4.824312627E-1,5.332975984E-1,3.009369783E-2
1.924842485E1,9.233172536E-1,9.523456693E-1,4.660528526E-2
1.926869558E1,1.118793130E0,1.124918461E0,3.427485824E-1
1.928896631E1,7.044056058E-1,1.083373070E0,6.920219064E-1
1.930936630E1,4.589954615E-1,1.064198375E0,6.446176767E-1
1.932950776E1,3.673827946E-1,9.853688478E-1,3.134538233E-1
1.934977849E1,-0.000000000E0,7.499455810E-1,-1.343563795E-1
1.937004922E1,-4.281028211E-1,1.022120476E0,-2.360890508E-1
1.939031995E1,-4.488754570E-1,1.152082682E0,-1.119858399E-1
1.941071995E1,-4.547344148E-1,8.958867192E-1,-3.994738683E-3
1.943086136E1,-4.920186400E-1,2.435459048E-1,1.126516312E-1
1.945113209E1,-4.589954615E-1,-1.978727281E-1,1.307611167E-1
1.947140282E1,-3.451454341E-1,-2.378201038E-1,2.636527456E-2
1.949167354E1,-2.008021921E-1,3.648528084E-2,-5.126581341E-2
1.951207354E1,-3.669833243E-1,4.597944319E-1,-2.370211668E-2
1.953221500E1,-8.808398843E-1,1.070057273E0,-2.050632425E-2
1.955248573E1,-1.540504336E0,1.962481976E0,-2.398174703E-1
1.957275646E1,-2.487390518E0,2.209623098E0,-6.194508076E-1
1.959302719E1,-3.516701698E0,1.297357917E0,-9.193225503E-1
1.961329792E1,-3.150783539E0,3.538006842E-1,-1.386307478E0
1.963356865E1,-2.080459833E0,-7.590003312E-2,-1.391633749E0
1.965383938E1,-1.113466859E0,1.224920034E0,-1.030109882E0
1.967411011E1,-6.134586930E-1,7.057371736E-1,-1.327718019E0
1.969438084E1,-6.368945241E-1,2.376869470E-1,-8.127961755E-1
1.971465157E1,-4.952144325E-1,-1.302284747E-1,-4.065312445E-1
1.973492230E1,-2.199769467E-1,-3.725759685E-1,-2.877543271E-1
1.975519297E1,5.592634156E-2,-5.791039467E-1,-1.103879437E-1
1.977546370E1,1.676458716E-1,-9.981520176E-1,3.528685868E-1
1.979573443E1,4.126565158E-1,-1.130777359E0,6.893587112E-1
1.981600516E1,8.183888197E-1,-8.960198760E-1,1.036501527E0
1.983627589E1,1.280580044E0,-6.185187101E-1,1.416267991E0
1.985654662E1,1.653954983E0,-2.692453861E-1,1.784716129E0
1.987681735E1,1.865276694E0,2.504701018E-1,1.946636200E0
1.989708802E1,1.852493525E0,-1.494032294E-1,1.357145905E0
1.991735875E1,1.607615948E0,-1.556217074E0,5.253081322E-1
1.993762948E1,1.304548502E0,-2.823614359E0,2.522011697E-1
1.995790021E1,7.768434882E-1,-2.847050190E0,-1.093226820E-1
1.997817094E1,4.494080842E-1,-9.933583736E-1,-5.944170952E-1
1.999844167E1,7.922898531E-1,1.890043974E0,-7.254445553E-1
2.001871240E1,1.422792792E0,3.587142229E0,-5.290365815E-1
2.003898308E1,1.499491692E0,2.425738573E0,-3.042659163E-1
2.005925386E1,5.340965390E-1,-2.719085515E-1,1.920137703E-1
2.007952453E1,-9.335704446E-1,-1.086568952E0,9.870999455E-1
2.009979526E1,-8.403598666E-1,9.992172718E-1,1.237836361E0
2.012006599E1,-1.012000442E-1,2.938529730E0,5.476786494E-1
2.014033672E1,-8.628635854E-2,3.056773901E0,-1.433179021E0
2.016060740E1,2.237053588E-2,1.715340734E0,-1.898033500E0
2.018087813E1,-6.406229138E-1,-1.429051161E0,-1.483246446E0
2.020114886E1,-5.623260736E-1,-3.335340500E0,-1.908153445E-1
2.022141959E1,2.288985252E-1,-3.868371725E0,4.285022914E-1
2.024169032E1,1.302417994E0,-2.507364273E0,1.675127149E-1
2.026196099E1,1.748630285E0,-6.068007946E-1,-6.990792602E-2
2.028223172E1,1.387106419E0,-7.117292881E-1,-1.455416381E-1
2.030250245E1,9.723193645E-1,-1.575924397E0,4.127896577E-2
2.032277318E1,4.856270552E-1,-1.555684447E0,9.028109163E-2
2.034304391E1,3.844270110E-1,-8.592683077E-1,2.213085145E-1
2.036331459E1,5.724460483E-1,-1.078579426E-1,4.125233591E-1
2.038358532E1,5.005407333E-1,3.932154477E-1,4.986765385E-1
2.040385604E1,1.420795321E-1,5.732449889E-1,3.938812315E-1
2.042412672E1,-1.965411454E-1,4.352933466E-1,9.720530361E-2
2.044439745E1,-5.942839384E-1,3.101248741E-1,-1.418132186E-1
2.046466818E1,-9.213199019E-1,2.233058959E-1,-7.896266878E-2
2.048493891E1,-9.467530847E-1,-4.926844314E-2,1.358211134E-2
2.050520959E1,-7.482145429E-1,-2.101232558E-1,-8.788425475E-3
2.052548032E1,-4.494080842E-1,-4.527370445E-3,-7.523424178E-2
2.054575105E1,-3.147853911E-1,6.641919017E-1,-2.685796022E-1
2.056602172E1,-6.336987019E-1,1.091362596E0,-4.331628382E-1
2.058629245E1,-1.342498541E0,1.556749701E0,-5.428850055E-1
2.060669245E1,-2.132125139E0,1.604686499E0,-5.428850055E-1
2.062683380E1,-2.996986151E0,1.312271595E0,-5.944170952E-1
2.064710459E1,-3.104444504E0,6.588655710E-1,-8.554067016E-1
2.066737526E1,-2.290316820E0,-1.930790395E-1,-1.050882578E0
2.068764599E1,-1.608681202E0,2.872217000E-1,-1.143959999E0
2.070804599E1,-9.781783223E-1,7.371624112E-1,-1.341033816E0
2.072818740E1,-5.735113025E-1,-2.335590571E-1,-1.137035728E0
2.074845813E1,-6.193176508E-1,4.873581231E-2,-7.174550891E-1
2.076872881E1,-5.878923535E-1,4.287686199E-2,-5.997434258E-1
2.078899953E1,-3.685812056E-1,-6.313018799E-1,-4.113249183E-1
2.080939953E1,-2.482064217E-1,-1.180312157E0,-5.592633970E-3
2.082954089E1,-9.640636295E-2,-1.482846975E0,3.379548788E-1
2.084981162E1,1.814942956E-1,-1.370994329E0,5.886912942E-1
2.087008230E1,4.451470375E-1,-1.440769076E0,7.538071871E-1
2.089035302E1,6.432861090E-1,-1.471129060E0,9.205209613E-1
2.091075302E1,1.432912707E0,-2.207758874E-1,1.219194293E0
2.093089443E1,2.189649343E0,2.510027587E-1,1.369929075E0
2.095116511E1,2.298705816E0,-5.833650231E-1,1.318263769E0
2.097143578E1,1.783251286E0,-2.026530981E0,1.027047276E0
2.099170651E1,1.201351047E0,-3.151049852E0,4.956139028E-1
2.101197719E1,1.072454214E0,-1.946103573E0,3.169159219E-2
2.103224792E1,8.998814821E-1,-1.563274413E-1,-9.174583107E-2
2.105251860E1,5.910881758E-1,8.474172354E-1,1.091895252E-2
2.107278927E1,5.836313367E-1,1.386840105E0,1.536642760E-1
2.109305995E1,8.940225244E-1,1.622796059E0,1.201084778E-1
2.111329125E1,9.147951603E-1,1.221191645E0,2.085253596E-1
2.113360125E1,4.036017656E-1,8.447540402E-1,6.637924314E-1
2.115387198E1,9.534109384E-2,1.075383663E0,9.349020123E-1
2.117414266E1,-2.556632832E-2,1.445962191E0,7.436871529E-1
2.119441334E1,-8.415582776E-2,2.656368017E0,4.535360038E-1
2.121468407E1,-7.056040168E-1,2.851178169E0,-8.399603963E-1
2.123495474E1,-7.945535183E-1,3.099917173E0,-2.039713621E0
2.125522542E1,-8.735162020E-2,-8.335687965E-2,-1.300021172E0
2.127549610E1,3.834949061E-2,-2.224536896E0,-2.563290596E-1
2.129576677E1,3.860249221E-1,-2.974349260E0,2.575274706E-1
2.131603745E1,1.374323249E0,-2.133456707E0,1.038632076E-2
2.133630818E1,1.792306066E0,-5.711144805E-1,-5.286370963E-2
2.135657891E1,1.274721146E0,1.205079481E-1,-2.062616795E-1
2.137684959E1,1.002679348E0,-3.901528120E-1,-3.328948840E-2
2.139712026E1,7.539403439E-1,-6.675208211E-1,1.605884880E-1
2.141739094E1,4.968123436E-1,-3.731085956E-1,3.779022694E-1
2.143766162E1,5.143891573E-1,1.748363972E-1,6.605966091E-1
2.145793230E1,3.370227814E-1,4.139880836E-1,6.920219064E-1
2.147820297E1,2.012016773E-1,9.600688517E-2,5.103944540E-1
2.149847365E1,1.660479754E-1,-3.629885912E-1,1.909485012E-1
2.151874433E1,-8.415582776E-2,-7.586008906E-1,-1.860216707E-1
2.153901500E1,-5.745765567E-1,-8.145272136E-1,-3.532680571E-1
2.155928568E1,-8.227829933E-1,-3.155843616E-1,-1.444763839E-1
2.157955636E1,-8.046735525E-1,4.022701681E-1,-2.254364192E-1
2.159982698E1,-7.061366439E-1,4.241080880E-1,-3.085269928E-1
2.162009766E1,-5.633913279E-1,1.135837361E-1,-1.727058738E-1
2.164036834E1,-4.478102028E-1,-2.530001104E-2,9.241162241E-2
2.166063901E1,-6.587324142E-1,4.965460002E-1,1.035968885E-1
2.168090969E1,-1.073519468E0,1.662210703E0,-1.593900770E-1
2.170118037E1,-1.760481358E0,2.883668661E0,-6.695181727E-1
2.172145105E1,-2.790324926E0,2.838927507E0,-1.207343221E0
2.174172167E1,-2.714691162E0,1.243562102E0,-1.619067550E0
2.176199235E1,-2.015611887E0,-3.736412227E-1,-1.598827600E0
2.178226302E1,-1.823864460E0,-1.451421678E-1,-9.203878045E-1
2.180253370E1,-9.856351614E-1,2.739059031E-1,-1.343696952E0
2.182280438E1,-9.267793596E-2,5.530049801E-1,-1.213202119E0
2.184307500E1,1.767006069E-1,1.159539461E0,-8.346340656E-1
2.186334568E1,3.956122994E-1,8.074698448E-1,-7.893603444E-1
2.188361636E1,4.211786091E-1,-8.921582997E-2,-8.143940568E-1
2.190388703E1,2.102564126E-1,-1.058872104E0,-3.708449006E-1
2.192415771E1,2.022669315E-1,-1.443964839E0,2.213085145E-1
2.194442834E1,4.328965247E-1,-1.268196344E0,7.186535001E-1
2.196469901E1,7.225150466E-1,-8.917587996E-1,1.327318549E0
2.198496969E1,8.402267098E-1,-9.625988603E-1,1.824130774E0
2.200524032E1,7.006771564E-1,-1.140364766E0,2.067010880E0
2.202551099E1,9.952225685E-1,-5.103944540E-1,1.816673994E0
2.204578162E1,1.355148554E0,-9.146620035E-1,8.107987642E-1
2.206605230E1,1.680053949E0,-1.936516166E0,3.102580309E-1
2.208632292E1,1.709348679E0,-2.974881887E0,2.655169666E-1
2.210659360E1,1.154479504E0,-2.564888477E0,3.640538454E-1
2.212686422E1,9.185235500E-1,-5.828323960E-1,-8.002793044E-2
2.214713485E1,1.096422553E0,1.362339020E0,-4.380896688E-2
2.216740552E1,8.668583035E-1,2.001896620E0,2.849580161E-2
2.218767615E1,5.420860648E-1,1.768603921E0,9.028109163E-2
2.220807615E1,2.528669536E-1,1.135571003E0,2.729738057E-1
2.222821745E1,-1.592569202E-1,4.597944319E-1,5.822997093E-1
2.224848813E1,-8.307724595E-1,4.331628382E-1,7.788408995E-1
2.226875875E1,-6.763092279E-1,1.502953887E0,7.127945423E-1
2.228902938E1,-6.523408294E-1,2.235189438E0,1.723063886E-1
2.230942938E1,-7.098650336E-1,2.073269367E0,-1.104678392E0
2.232957068E1,4.169175625E-1,1.162202597E0,-1.591370702E0
2.234984130E1,-4.261054471E-2,-9.508809447E-1,-1.125850558E0
2.237011193E1,-6.502103209E-1,-3.361439466E0,-6.466150284E-1
2.239038261E1,-5.539371073E-2,-3.612841606E0,2.372874767E-1
2.241078261E1,6.836329699E-1,-1.489238620E0,4.428833723E-1
2.243092386E1,8.050730228E-1,-1.073785782E0,1.291632205E-1
2.245119443E1,4.675175846E-1,-1.353950143E0,-2.929474926E-3
2.247146516E1,4.446144104E-1,-1.442366958E0,-6.125265732E-3
2.249173578E1,4.334291518E-1,-1.602555990E0,-4.487423226E-2
2.251213578E1,1.878858805E-1,-9.119988084E-1,-9.387636185E-2
2.253227703E1,9.693899006E-2,1.876195520E-1,-1.695100814E-1
2.255254766E1,1.431448013E-1,7.526087761E-1,-1.199753210E-1
2.257281834E1,1.225053146E-2,6.142576337E-1,5.725792050E-2
2.259308896E1,-2.769685388E-1,-1.062600464E-1,3.390201628E-1
2.261335959E1,-4.435491562E-1,-3.352917433E-1,4.098601937E-1
2.263363016E1,-6.550039649E-1,4.294344187E-1,2.303632647E-1
2.265390084E1,-1.189100504E0,1.682983398E0,3.328948840E-2
2.267417146E1,-1.786047697E0,2.720816612E0,-2.701774836E-1
2.269444209E1,-2.614556551E0,2.552504778E0,-5.917539597E-1
2.271471271E1,-2.768486977E0,1.328250647E0,-1.170058966E0
2.273498334E1,-2.148104191E0,4.763059914E-1,-1.405482173E0
2.275525396E1,-1.811081290E0,7.792403698E-1,-8.623309135E-1
2.277552459E1,-1.189100504E0,6.407560706E-1,-8.229161501E-1
2.279579521E1,-7.466166615E-1,3.474090993E-1,-5.780386925E-1
2.281606584E1,-3.142527640E-1,2.989396155E-1,5.619265884E-2
2.283633646E1,1.729721874E-1,2.254364192E-1,2.964096069E-1
2.285660709E1,6.171871424E-1,5.086633936E-2,3.257043660E-1
2.287687766E1,9.717867374E-1,-4.805670679E-1,3.763043880E-1
2.289714828E1,1.382845402E0,-9.370325208E-1,6.600639820E-1
2.291741891E1,1.829057693E0,-9.066725373E-1,1.084438443E0
2.293768953E1,2.090579987E0,-9.594030380E-1,1.536110163E0
2.295796016E1,2.051697731E0,-1.042360425E0,1.527588010E0
2.297823078E1,1.715740204E0,-1.108406782E0,7.564703226E-1
2.299850141E1,1.470729589E0,-1.657949686E0,1.195758432E-1
2.301877198E1,1.371127486E0,-1.955690861E0,9.028109163E-2
2.303904261E1,1.012266755E0,-2.099368334E0,1.387505829E-1
2.305931323E1,2.992059290E-1,-6.616618633E-1,-1.881521940E-1
2.307958381E1,3.615238369E-1,2.408161640E0,-3.985417485E-1
2.309985443E1,9.163930416E-1,4.037615299E0,-2.952111959E-1
2.312012506E1,1.075916290E-1,1.944905043E0,2.665822208E-1
2.314039563E1,-1.070323586E0,2.643185556E-1,1.074318409E0
2.316066625E1,-1.631584406E0,1.024783611E0,4.695149362E-1
2.318093688E1,8.628635854E-2,2.190980911E0,-9.198551774E-1
2.320120745E1,2.981406748E-1,1.082840443E0,-1.425189614E0
2.322147808E1,-3.531349003E-1,-1.989246726E0,-7.989477515E-1
2.324174870E1,-2.817622423E-1,-3.961049795E0,-1.130511016E-1
2.326201927E1,4.850944281E-1,-3.140397310E0,3.081275225E-1
2.328228985E1,1.277384281E0,-1.462607026E0,1.664474458E-1
2.330268985E1,1.008005738E0,-9.572725296E-1,-3.968106955E-2
2.332283104E1,5.564671159E-1,-1.075383663E0,-1.837579720E-2
2.334310167E1,4.781702161E-1,-1.319861650E0,3.169159219E-2
2.336337224E1,2.070606202E-1,-8.603335619E-1,1.190432087E-1
2.338364287E1,-2.173137814E-1,4.203796685E-1,1.856221855E-1
2.340391344E1,-3.776359558E-1,1.549292803E0,3.326285779E-1
2.342418407E1,-6.145239472E-1,1.797366023E0,6.009418368E-1
2.344445464E1,-9.191893935E-1,1.144093156E0,7.948198318E-1
2.346472526E1,-1.017593145E0,7.723161578E-1,9.588704109E-1
2.348499584E1,-1.051681519E0,1.021055222E0,7.245124578E-1
2.350526641E1,-1.398424864E0,1.590838075E0,4.221107066E-1
2.352553703E1,-1.967675090E0,2.118543148E0,-3.275685757E-2
2.354580761E1,-2.259424210E0,1.689374924E0,-8.229161501E-1
2.356607818E1,-1.710413933E0,1.273922205E0,-1.418797970E0
2.358634880E1,-1.215199471E0,1.114798427E0,-1.410808563E0
2.360661938E1,-9.771130681E-1,1.013332009E-1,-1.456082225E0
2.362688995E1,-9.707214832E-1,-6.052029133E-1,-1.225452662E0
2.364716052E1,-8.185219765E-1,-6.083986759E-1,-6.402234435E-1
2.366743110E1,-1.933453530E-1,-3.970770240E-1,-3.063964546E-1
2.368770172E1,4.243744016E-1,-1.158474237E-1,-1.279647946E-1
2.370810172E1,8.508793116E-1,-2.298306376E-1,-1.135837361E-1
2.372824287E1,1.323723197E0,-7.436871529E-1,-8.002793044E-2
2.374851344E1,1.811480880E0,-8.582029939E-1,2.063948363E-1
2.376878401E1,1.955291390E0,-6.068007946E-1,6.957502961E-1
2.378905464E1,1.755554438E0,-6.574008465E-1,1.198954225E0
2.380945464E1,1.502687573E0,-1.511076450E0,1.159006834E0
2.382959578E1,1.178980589E0,-2.893921852E0,4.242412448E-1
2.384986636E1,8.743151426E-1,-3.702190638E0,-2.009353489E-1
2.387013693E1,8.040077090E-1,-3.500456333E0,-2.414153665E-1
2.389040750E1,7.800393105E-1,-2.540920019E0,-3.213101327E-1
2.391080750E1,5.958818197E-1,-8.155924678E-1,-4.938828647E-1
2.393094860E1,6.166545153E-1,1.780321896E-1,-4.374238849E-1
2.395121917E1,1.948100924E-1,-6.311687082E-2,-1.306279600E-1
2.397148974E1,-1.965411454E-1,-1.132907867E0,3.699128032E-1
2.399176032E1,-3.568633199E-1,-6.861629486E-1,6.073334217E-1
2.401203089E1,-1.157142639E0,-5.812344551E-1,4.450138807E-1
2.403230146E1,-1.337704778E0,-7.958850861E-1,-5.508744717E-1
2.405257198E1,-2.322274745E-1,3.452785909E-1,-4.661859870E-1
2.407284256E1,3.647196293E-1,4.054659605E-1,-5.546028614E-1
2.409311313E1,4.893554747E-1,-1.054610968E0,-5.965476632E-1
2.411338370E1,8.892288208E-1,-2.443448544E0,-5.647228956E-1
2.413365422E1,1.190165758E0,-2.069008350E0,-3.974764943E-1
2.415392480E1,1.110270977E0,-1.010935187E0,-8.788425475E-3
2.417419537E1,8.588688374E-1,-7.804387808E-1,3.976096511E-1
2.419446589E1,6.395576596E-1,-6.440850496E-1,5.599291921E-1
2.421473646E1,5.101281404E-1,-1.270326823E-1,6.036050320E-1
2.423500698E1,4.829638898E-1,2.583264373E-2,5.450155139E-1
2.425527756E1,2.086585164E-1,-2.218411565E-1,4.913528562E-1
2.427554813E1,-1.539305896E-1,6.045371294E-2,5.487439036E-1
2.429581865E1,-2.780338228E-1,4.928175807E-1,5.807018280E-1
2.431608922E1,-2.737727463E-1,4.368912578E-1,5.301018357E-1
2.433635974E1,-2.684464455E-1,-9.241162241E-2,4.546012580E-1
2.435663026E1,-4.334291518E-1,-2.394180000E-1,4.812328517E-1
2.437690084E1,-7.391598225E-1,-1.616537571E-1,4.205128253E-1
2.439717141E1,-1.330247998E0,-3.661843836E-1,2.122537792E-1
2.441744193E1,-2.243977785E0,-9.773793817E-2,1.331579522E-3
2.443771245E1,-2.911232471E0,1.055942550E-1,-4.565986395E-1
2.445798302E1,-2.798314333E0,1.226384789E-1,-9.784446359E-1
2.447825349E1,-2.197106361E0,7.323687673E-1,-1.447560072E0
2.449852407E1,-1.349422693E0,3.488738462E-2,-2.237719536E0
2.451879464E1,-1.574060202E0,-1.877527237E-1,-2.606833220E0
2.453906516E1,-1.095889926E0,-6.153228879E-1,-2.489654303E0
2.455933568E1,-3.398191035E-1,-1.357145905E0,-2.477403641E0
2.457960625E1,7.456845790E-2,-1.933853030E0,-2.853308678E0
2.459987677E1,1.900164038E-1,-2.813494444E0,-2.957171917E0
2.462014730E1,8.255793154E-2,-3.317763567E0,-2.501904726E0
2.464041787E1,-6.231792271E-2,-3.162767649E0,-2.012549400E0
2.466068839E1,-1.544632297E-2,-3.459976196E0,-1.507747531E0
2.468095891E1,-5.912213027E-2,-3.573959589E0,-1.124785304E0
2.470122943E1,-3.062632978E-1,-3.202715158E0,-7.446193099E-1
2.472149995E1,-4.371575713E-1,-2.827875376E0,-3.793670237E-1
2.474177047E1,-2.354232669E-1,-2.666488171E0,2.743053809E-2
2.476204099E1,3.114564717E-1,-2.271940947E0,5.034702420E-1
2.478231157E1,7.416898012E-1,-1.304415345E0,7.623292804E-1
2.480258209E1,7.123950720E-1,-9.082704186E-1,7.303713560E-1
2.482285261E1,4.179828167E-1,-1.328916430E0,5.034702420E-1
2.484312313E1,-3.318296373E-1,-1.378983736E0,1.206411049E-1
2.486339365E1,-8.291745782E-1,7.749792933E-2,-3.462106921E-3
2.488366412E1,2.187785208E-1,1.261671662E0,-7.683213800E-2
2.490393469E1,1.640639186E0,1.255812645E0,5.061333776E-1
2.492420521E1,8.780435324E-1,1.467267513E0,2.231461048E0
2.494447573E1,3.727091253E-1,2.476338387E0,2.449840069E0
2.496474620E1,9.552751780E-1,1.669134974E0,-8.724509478E-1
2.498501672E1,8.306393027E-1,2.004027218E-1,-1.121589422E0
2.500528724E1,3.151848912E-1,-1.983920336E0,-3.410175145E-1
2.502555776E1,2.396843210E-2,-3.462639570E0,4.679170549E-1
2.504582828E1,-3.036001325E-2,-2.682466984E0,1.089764714E0
2.506609881E1,9.693899006E-2,-1.780454993E0,9.945567846E-1
2.508636933E1,4.110586047E-1,-1.848631859E0,4.418180883E-1
2.510676933E1,6.251766086E-1,-1.656351805E0,-8.482161909E-2
2.512691032E1,4.542017877E-1,-1.725593925E0,-3.335606754E-1
2.514718084E1,2.880206704E-1,-1.802825570E0,-3.697796464E-1
2.516745136E1,2.565953732E-1,-1.781520247E0,-1.684448123E-1
2.518772183E1,1.342232227E-1,-1.722930789E0,2.026664019E-1
2.520812183E1,1.262337416E-1,-1.373124838E0,3.603254259E-1
2.522826287E1,1.910816729E-1,-1.169659495E0,1.936116666E-1
2.524853334E1,5.432844535E-2,-1.574859142E0,-8.801741153E-2
2.526880386E1,-3.834949061E-2,-1.913080335E0,-2.632532716E-1
2.528907438E1,-3.249054030E-2,-1.818804502E0,-3.250385821E-1
2.530947438E1,4.207791388E-2,-1.453019619E0,-3.617901504E-1
2.532961537E1,1.804290265E-1,-1.077514172E0,-3.532680571E-1
2.534988589E1,3.029343486E-1,-8.816388249E-1,-2.739059031E-1
2.537015641E1,4.275701940E-1,-7.841671705E-1,-1.556616426E-1
2.539042688E1,5.569997430E-1,-7.868303657E-1,2.396843163E-3
2.541082688E1,5.900229216E-1,-7.996135354E-1,1.547295451E-1
2.543096792E1,5.202481151E-1,-7.697861195E-1,2.628538013E-1
2.545123839E1,4.962796867E-1,-8.422240615E-1,2.660495937E-1
2.547150891E1,5.138565302E-1,-8.496809006E-1,2.522011697E-1
2.549177943E1,5.170523524E-1,-8.747146130E-1,2.644517124E-1
2.551217943E1,4.787028432E-1,-9.594030380E-1,2.713759243E-1
2.553232042E1,4.499407411E-1,-1.082840443E0,2.447443157E-1
2.555259094E1,4.201133549E-1,-1.128646851E0,2.703106403E-1
2.557286136E1,3.530017436E-1,-1.164333105E0,3.182475269E-1
2.559313193E1,1.420795321E-1,-1.187236309E0,3.289001584E-1
2.561340240E1,-2.753706574E-1,-1.873132944E0,1.669800729E-1
2.563367292E1,-7.029408216E-1,-2.482863188E0,-3.181143403E-1
2.565394339E1,-1.022386789E0,-2.775145054E0,-7.749792933E-1
2.567421391E1,-1.482980132E0,-2.570747375E0,-1.017859459E0
2.569448438E1,-2.067144156E0,-1.737844467E0,-1.149286270E0
2.571475490E1,-2.466618061E0,-7.090660930E-1,-1.238768458E0
2.573502537E1,-2.364885330E0,-7.376950979E-2,-1.207875848E0
2.575529589E1,-1.945304513E0,5.332975984E-1,-1.232376933E0
2.577556636E1,-1.734382391E0,8.681898713E-1,-1.294162154E0
2.579583688E1,-1.711479187E0,-1.467400640E-1,-1.320261121E0
2.581610735E1,-2.087383986E0,-1.731452942E0,-1.632383347E0
2.583637782E1,-2.402702093E0,-2.796982765E0,-2.011484146E0
2.585664834E1,-2.468748569E0,-3.190997124E0,-2.187785149E0
2.587691881E1,-2.378733635E0,-2.722947121E0,-2.572744846E0
2.589718933E1,-1.957555056E0,-2.970088243E0,-2.674477577E0
2.591745980E1,-1.176849961E0,-2.767688036E0,-2.445445776E0
2.593773032E1,-6.821681857E-1,-2.486591578E0,-2.010418892E0
2.595800078E1,-4.834965467E-1,-2.758633375E0,-1.639307618E0
2.597827125E1,-2.034653574E-1,-2.521212816E0,-1.354882240E0
2.599854172E1,3.045322299E-1,-1.678189754E0,-8.042740226E-1
2.601881224E1,4.312986135E-1,-1.124918461E0,-1.066595241E-1
2.603908271E1,4.685828388E-1,-9.231840968E-1,4.631233811E-1
2.605935318E1,6.278397441E-1,-9.885646701E-1,8.139945865E-1
2.607962370E1,7.001445293E-1,-1.131842613E0,1.083373070E0
2.609989417E1,7.459508777E-1,-1.367265940E0,1.118526816E0
2.612016464E1,7.582014203E-1,-1.347025871E0,9.881651998E-1
2.614043511E1,7.129276991E-1,-1.006674170E0,5.849629045E-1
2.616070563E1,8.791088462E-1,-3.081275225E-1,2.655169666E-1
2.618097610E1,9.419593811E-1,5.060002208E-3,2.559295893E-1
2.620124657E1,7.768434882E-1,-2.042642981E-1,2.644517124E-1
2.622151703E1,6.889592409E-1,-1.499358565E-1,3.592601717E-1
2.624178750E1,8.354330063E-1,7.696529478E-2,5.221123695E-1
2.626205802E1,1.062334180E0,2.808301151E-1,6.701840162E-1
2.628232849E1,9.504814744E-1,5.711144805E-1,7.873629928E-1
2.630259896E1,2.981406748E-1,8.271772265E-1,1.201617360E0
2.632286943E1,-6.155892015E-1,1.027979374E0,1.313470125E0
2.634313990E1,-1.398424864E0,2.610561609E0,2.133190483E-1
2.636341037E1,5.703155398E-1,4.534427643E0,-1.819736600E0
2.638368089E1,1.842906117E0,3.902859688E0,-3.019489765E0
2.640395136E1,8.096003532E-2,9.629983306E-1,-2.532797575E0
2.642422183E1,-5.569997430E-1,-3.705919027E0,-8.048067093E-1
2.644449230E1,-2.141179889E-1,-5.101148129E0,9.823062420E-1
2.646476276E1,1.964079887E-1,-2.627073288E0,1.112667918E0
2.648503323E1,8.588688374E-1,9.241162241E-2,7.495461106E-1
2.650530370E1,1.069258332E0,5.279712677E-1,1.169126853E-1
2.652557417E1,8.625972271E-1,-9.322388172E-1,-3.713775277E-1
2.654584464E1,6.438187361E-1,-1.086568952E0,-2.707101107E-1
2.656611511E1,3.870901763E-1,-7.527419329E-1,-1.018658355E-1
2.658638558E1,3.055975139E-1,-5.514070988E-1,2.292979956E-1
2.660665604E1,2.901511788E-1,-1.957421899E-1,4.981439114E-1
2.662692651E1,1.326253265E-1,-4.864259958E-1,5.870934129E-1
2.664719693E1,4.740423337E-2,-8.044071794E-1,4.668518007E-1
2.666746745E1,1.415469050E-1,-4.226433635E-1,2.410158962E-1
2.668773787E1,7.456845790E-2,-3.379548788E-1,1.944106072E-2
2.670813787E1,-1.528653353E-1,-2.804306448E-1,-6.032055244E-2
2.672827881E1,-2.924148738E-1,-1.723063886E-1,-7.470161468E-2
2.674854927E1,-3.691138625E-1,-2.958769798E-1,-1.151816323E-1
2.676881974E1,-3.302317262E-1,-4.736428559E-1,-1.119858399E-1
2.678909021E1,-2.972085476E-1,-2.798980176E-1,-1.130511016E-1
2.680949021E1,-6.091976166E-1,7.323687524E-2,-1.881521940E-1
2.682963110E1,-1.121988893E0,7.084003091E-1,-3.836280704E-1
2.684990157E1,-1.809483409E0,7.792403698E-1,-7.712509036E-1
2.687017203E1,-2.410691738E0,-1.198421605E-2,-1.218528390E0
2.689044250E1,-2.341449499E0,-1.653821766E-1,-1.444896936E0
2.691084250E1,-1.887247682E0,-5.743102431E-1,-1.666871309E0
2.693098339E1,-1.232243776E0,-7.639271617E-1,-1.646231771E0
2.695125386E1,-5.298355222E-1,3.053312004E-1,-1.624926567E0
2.697152433E1,1.532648057E-1,1.093226820E-1,-1.588174939E0
2.699179480E1,2.352901101E-1,1.934785098E-1,-1.327185392E0
2.701219480E1,3.249054030E-2,1.071921512E-1,-1.160471559E0
2.703233568E1,6.711161137E-2,-8.922914863E-1,-1.011467814E0
2.705260615E1,1.081242561E-1,-1.229314208E0,-4.992091656E-1
2.707287662E1,7.989477366E-2,-1.445030093E0,-1.198421605E-2
2.709314709E1,1.751027107E-1,-1.506815434E0,2.506032586E-1
2.711341750E1,3.684480488E-1,-1.165931106E0,4.997417927E-1
2.713368797E1,6.937529445E-1,-8.187882900E-1,7.660577297E-1
2.715395844E1,1.063399434E0,-4.651207328E-1,1.045556307E0
2.717422886E1,1.374323249E0,-1.541969180E-1,1.382179618E0
2.719449933E1,1.598561287E0,-8.815056831E-2,1.770334959E0
2.721476974E1,1.606018066E0,-4.869586527E-1,1.705353975E0
2.723504021E1,1.446761131E0,-1.535977006E0,1.115863681E0
2.725531068E1,1.324788451E0,-2.292181015E0,4.796349406E-1
2.727571068E1,1.282177925E0,-1.369396448E0,2.047969401E-1
2.729585157E1,8.689888120E-1,6.950845569E-2,1.078579426E-1
2.731612193E1,6.012081504E-1,1.836780787E0,-1.464737486E-2
2.733639245E1,7.651256323E-1,3.165431023E0,-9.281109273E-2
2.735666287E1,5.186502337E-1,2.565820694E0,1.025316268E-1
2.737693334E1,1.974732429E-1,7.978824377E-1,2.436790615E-1
2.739720375E1,-4.739091694E-1,-3.779022694E-1,5.167860389E-1
2.741747422E1,-5.649892092E-1,4.081291258E-1,6.984134912E-1
2.743774464E1,-3.105243444E-1,2.043442011E0,2.585927546E-1
2.745801506E1,-4.367581010E-2,7.313035131E-1,-6.737792492E-1
2.747828552E1,1.468732208E-1,3.628554344E-1,-1.879391432E0
2.749855594E1,4.014712274E-1,-6.483460665E-1,-1.638242364E0
2.751882636E1,-1.533979625E-1,-2.741056442E0,-4.571312666E-1
2.753909683E1,4.527370632E-2,-3.815108538E0,2.197106332E-1
2.755936724E1,7.619298100E-1,-2.263418913E0,5.572660565E-1
2.757963771E1,1.155012131E0,-1.241564751E0,5.157207847E-1
2.759990813E1,9.882983565E-1,-1.074851036E0,5.354281664E-1
2.762017854E1,7.938877344E-1,-1.016794205E0,3.938812315E-1
2.764044896E1,7.720498443E-1,-1.303882718E0,1.430116445E-1
2.766071943E1,8.221172094E-1,-9.114661813E-1,-2.743053809E-2
2.768098985E1,7.129276991E-1,-3.861580789E-2,2.210422046E-2
2.770126026E1,4.669849575E-1,9.853688478E-1,1.142495275E-1
2.772153068E1,9.427583218E-2,2.021604061E0,2.607232630E-1
2.774180115E1,-2.119874656E-1,1.883652449E0,3.102580309E-1
2.776207157E1,-4.872249663E-1,7.483476996E-1,3.534012139E-1
2.778234198E1,-7.157239914E-1,-1.424790174E-1,4.040012360E-1
2.780274198E1,-7.130608559E-1,1.737711281E-1,2.889527678E-1
2.782288276E1,-6.874945164E-1,8.117309213E-1,1.483379602E-1
2.784315323E1,-9.451551437E-1,1.357012749E0,-1.183774248E-1
2.786342365E1,-1.529319167E0,2.008288383E0,-5.167860389E-1
2.788369412E1,-2.365417957E0,1.998168230E0,-9.065393806E-1
2.790396453E1,-2.701375484E0,1.391633749E0,-1.264334798E0
2.792423495E1,-2.297240973E0,1.005076289E0,-1.209473729E0
2.794450537E1,-1.942108750E0,2.637858987E-1,-1.029044628E0
2.796477578E1,-1.748763442E0,-5.619265884E-2,-1.073785782E0
2.798504620E1,-1.216264725E0,-3.861580789E-2,-8.133288026E-1
2.800531662E1,-5.697829127E-1,3.222422674E-2,-4.283691347E-1
2.802558703E1,1.267663687E-1,4.976112843E-1,-1.705753356E-1
2.804585745E1,6.198502779E-1,4.619249403E-1,-7.896266878E-2
2.806612787E1,8.711193204E-1,-8.442214131E-2,1.137168929E-1
2.808639834E1,1.048485756E0,-8.294408917E-1,5.316997170E-1
2.810666875E1,1.293895841E0,-1.084438443E0,1.171790004E0
2.812693917E1,1.561277032E0,-1.136103630E0,1.738377094E0
2.814720959E1,1.693902373E0,-1.211737394E0,2.043575048E0
2.816747995E1,1.797632337E0,-1.307078481E0,1.465802789E0
2.818775037E1,1.751826048E0,-1.732518196E0,1.744369268E-1
2.820815037E1,1.449957013E0,-1.863545537E0,-4.672512710E-1
2.822829120E1,1.163001537E0,-1.301752210E0,-2.366216928E-1
2.824856162E1,3.471427858E-1,-2.623211741E-1,4.713791609E-2
2.826883203E1,-3.067959249E-1,1.565804362E0,-2.637858987E-1
2.828910245E1,5.326318089E-3,3.778357029E0,-1.141163707E-1
2.830950245E1,-2.205095738E-1,2.758633375E0,4.641886353E-1
2.832964323E1,-1.516003370E0,1.499758005E0,5.514070988E-1
2.834991365E1,-1.333443761E0,1.229181051E0,-3.671164811E-1
2.837018407E1,-3.877559602E-1,4.234423116E-2,-1.038632035E0
2.839045448E1,-2.109221965E-1,-1.153147936E0,-7.174550891E-1
2.841085448E1,-1.065263618E-2,-2.022802591E0,-2.371543199E-1
2.843099526E1,6.751108170E-1,-2.413621187E0,-9.068056941E-2
2.845126563E1,1.115597367E0,-1.594033837E0,-1.753690243E-1
2.847153604E1,1.043159366E0,-1.024783611E0,-1.956090331E-1
2.849180646E1,9.110667109E-1,-8.624640703E-1,1.837579720E-2
2.851220646E1,7.406245470E-1,-7.570029497E-1,2.852243483E-1
2.853234724E1,4.360923171E-1,-6.558029056E-1,2.463422120E-1
2.855261766E1,-3.462106735E-2,6.311687082E-2,2.399506420E-1
2.857288808E1,-2.439453751E-1,9.992172718E-1,2.404832691E-1
2.859315844E1,-1.917474568E-1,1.885782957E0,3.065296113E-1
2.861342886E1,-4.360923171E-1,1.936383009E0,2.649843395E-1
2.863369922E1,-9.138630629E-1,1.331979036E0,4.103928208E-1
2.865396964E1,-1.206144810E0,3.186469972E-1,7.985482812E-1
2.867424006E1,-1.068193078E0,1.727058738E-1,8.582029939E-1
2.869451042E1,-1.238102674E0,7.605982423E-1,6.744450331E-1
2.871478078E1,-1.811614037E0,7.110635042E-1,1.872200817E-1
2.873505120E1,-2.502304316E0,1.822932363E-1,-4.241080880E-1
2.875532157E1,-2.567152262E0,-1.659148186E-1,-1.302151680E0
2.877559198E1,-1.795102358E0,4.784365296E-1,-1.582315922E0
2.879586235E1,-1.435176492E0,1.001347780E0,-1.512008548E0
2.881613271E1,-1.213601589E0,1.198421605E-2,-1.415069580E0
2.883640313E1,-5.596628785E-1,-6.657897960E-3,-1.175917864E0
2.885667349E1,-2.450106293E-2,7.414234877E-1,-7.941540480E-1
2.887694386E1,4.046670198E-1,9.752488732E-1,-3.692470193E-1
2.889721422E1,7.917572260E-1,7.510108948E-1,-9.760478139E-2
2.891748464E1,1.053812027E0,1.748363972E-1,1.920137703E-1
2.893775500E1,1.245959044E0,-3.720433414E-1,5.679186583E-1
2.895802542E1,1.554352760E0,-6.030724049E-1,8.933567405E-1
2.897829578E1,1.853558779E0,-6.462155581E-1,1.124918461E0
2.899856615E1,1.939845085E0,-5.221123695E-1,1.227183700E0
2.901883651E1,1.791773438E0,-5.183839202E-1,9.285104275E-1
2.903910693E1,1.607615948E0,-8.129293323E-1,4.263717830E-1
2.905937730E1,1.554352760E0,-1.447693229E0,2.303632647E-1
2.907964766E1,1.230512619E0,-1.455682755E0,3.267696202E-1
2.909991802E1,8.114646077E-1,-9.498156905E-1,3.752391040E-1
2.912018839E1,5.681849718E-1,7.424887419E-1,1.126516312E-1
2.914045875E1,8.061382771E-1,3.014163494E0,2.316948399E-2
2.916072912E1,1.047953129E0,3.863977432E0,1.890842989E-2
2.918099948E1,7.757782340E-1,2.318679571E0,1.414137483E-1
2.920126985E1,-3.728422895E-2,7.057371736E-2,3.954791129E-1
2.922154021E1,-6.209155321E-1,5.769734383E-1,5.934849977E-1
2.924181058E1,-7.380945683E-1,2.651574373E0,2.399506420E-1
2.926208094E1,-5.912213027E-2,2.264883757E0,-1.007206798E0
2.928235131E1,2.736395895E-1,1.395894885E0,-2.095639944E0
2.930262167E1,3.599259555E-1,-2.900180221E-1,-1.499225378E0
2.932289203E1,-2.311622053E-1,-2.725610256E0,-7.973498106E-1
2.934316240E1,-2.684464455E-1,-3.675026417E0,-5.605949834E-2
2.936343276E1,-1.693769246E-1,-2.861431360E0,6.563355327E-1
2.938370313E1,2.769685537E-2,-1.906156182E0,2.937464416E-1
2.940397344E1,4.147870243E-1,-1.102015257E0,3.613906801E-1
2.942424381E1,6.932203174E-1,-5.082638860E-1,7.799061537E-1
2.944451417E1,7.486140132E-1,-4.842954874E-1,8.715187907E-1
2.946478453E1,4.909533858E-1,-1.920137703E-1,2.388853729E-1
2.948505490E1,2.012016773E-1,8.570045829E-1,-3.032006621E-1
2.950532526E1,5.858949851E-3,1.420395851E0,-8.162582666E-2
2.952559558E1,-3.376885653E-1,1.499225378E0,1.291632205E-1
2.954586594E1,-7.460840344E-1,1.280313730E0,3.028011918E-1
2.956613630E1,-1.237570047E0,1.070057273E0,3.741738498E-1
2.958640667E1,-1.626258135E0,1.501888633E0,4.181159660E-2
2.960680667E1,-1.991643548E0,2.128663063E0,-4.560659826E-1
2.962694735E1,-2.505500078E0,1.814410329E0,-9.725856781E-1
2.964721771E1,-2.433594704E0,8.250467181E-1,-1.738243937E0
2.966748802E1,-1.806820273E0,9.134636074E-2,-1.702557564E0
2.968775839E1,-1.724794984E0,-2.852243483E-1,-1.098286867E0
2.970815839E1,-1.649161220E0,-1.047154188E0,-9.725856781E-1
2.972829907E1,-1.139565825E0,-5.652555227E-1,-9.400951862E-1
2.974856943E1,-2.530001104E-1,3.601922691E-1,-8.697877526E-1
2.976883974E1,3.455449045E-1,9.028109312E-1,-6.332992315E-1
2.978911011E1,5.852292180E-1,9.805752039E-1,-2.744385600E-1
2.980951011E1,6.209155321E-1,3.825628161E-1,1.174453199E-1
2.982965078E1,5.873597264E-1,-2.399506420E-1,5.657881498E-1
2.984992110E1,6.086649895E-1,-6.073334217E-1,9.625988603E-1
2.987019146E1,7.438203096E-1,-7.532745600E-1,1.402952194E0
2.989046177E1,9.659277797E-1,-9.290430546E-1,1.750095010E0
2.991086177E1,1.175252080E0,-1.096156240E0,1.975398302E0
2.993100245E1,1.293895841E0,-1.080709934E0,2.082989931E0
2.995127276E1,1.395628572E0,-7.490134835E-1,1.743170738E0
2.997154308E1,1.268862128E0,-1.166463733E0,8.107987642E-1
2.999181344E1,1.132108927E0,-1.662210703E0,2.308958918E-1
3.001208375E1,1.272057891E0,-1.332644820E0,1.435442716E-1
3.003235412E1,1.411607504E0,-9.721862078E-1,1.536642760E-1
3.005262443E1,1.278982162E0,-3.294327855E-1,1.813611388E-1
3.007289474E1,8.641951084E-1,3.596596420E-1,1.424790174E-1
3.009316511E1,5.713807940E-1,9.715204239E-1,5.459476262E-2
3.011343542E1,3.045322299E-1,1.008804679E0,7.803056389E-2
3.013370573E1,-2.295643091E-1,4.326302111E-1,2.495380044E-1
3.015397604E1,-6.150565743E-1,5.407544374E-1,4.103928208E-1
3.017424636E1,-3.414169848E-1,1.629720211E0,4.306328297E-1
3.019451672E1,-1.128913164E0,1.602555990E0,-4.368912578E-1
3.021478703E1,-1.206144810E0,2.915626526E0,-1.396427512E0
3.023505735E1,-4.041343927E-1,4.965460002E-1,-9.528783560E-1
3.025532766E1,-5.399554968E-1,-2.245309353E0,-2.478069514E-1
3.027563730E1,-3.137201369E-1,-3.793270588E0,-5.925529078E-2
3.029586834E1,5.719134212E-1,-3.047319889E0,-1.034637317E-1
3.031613865E1,1.245426297E0,-1.200019479E0,-2.520680130E-1
3.033640896E1,9.701888561E-1,-5.908218622E-1,-3.191796243E-1
3.035667922E1,9.062730670E-1,-8.912261724E-1,-3.016027808E-1
3.037694953E1,8.945551515E-1,-1.343830109E0,-1.295626909E-1
3.039721985E1,3.956122994E-1,-1.074318409E0,8.122635633E-2
3.041749016E1,-4.953476042E-2,-5.977460742E-1,2.314285189E-1
3.043776047E1,6.764423847E-2,-6.098634377E-2,2.958769798E-1
3.045803078E1,2.310290486E-1,9.965541363E-1,2.314285189E-1
3.047830110E1,4.580633715E-2,1.314402223E0,1.696432382E-1
3.049857141E1,-2.391516864E-1,9.677920341E-1,1.398158520E-1
3.051884172E1,-5.426186919E-1,5.354281664E-1,2.660495937E-1
3.053911203E1,-8.206524849E-1,4.629902244E-1,2.266348451E-1
3.055938235E1,-1.139565825E0,1.029577255E0,1.254348010E-1
3.057965261E1,-1.389902711E0,1.973134637E0,-2.520680130E-1
3.059992292E1,-1.892574072E0,2.569016457E0,-8.085350990E-1
3.062019323E1,-2.582598448E0,2.258491993E0,-1.486442208E0
3.064046355E1,-2.384592772E0,7.989477515E-1,-1.997635603E0
3.066073386E1,-1.678456068E0,-2.101232558E-1,-1.603088617E0
3.068100412E1,-1.348890066E0,2.430132627E-1,-1.317065358E0
3.070127443E1,-7.743135095E-1,1.034637317E-1,-1.275520086E0
3.072154474E1,-2.620548606E-1,4.976112843E-1,-7.797729969E-1
3.074181500E1,-9.906952083E-2,5.540702343E-1,-5.652555227E-1
3.076208532E1,8.894951642E-2,-6.524740160E-2,-5.178512931E-1
3.078235563E1,1.537974328E-1,-7.293061018E-1,-3.921501637E-1
3.080262594E1,6.977476925E-2,-1.466868043E0,-1.242363751E-1
3.082289620E1,2.177132517E-1,-1.693103433E0,1.589905918E-1
3.084316651E1,6.459492445E-1,-1.433844805E0,4.434159994E-1
3.086343677E1,1.165664792E0,-9.471525550E-1,8.182556629E-1
3.088370709E1,1.538906455E0,-7.506113648E-1,1.270859480E0
3.090397740E1,1.701359153E0,-6.946850419E-1,1.757551908E0
3.092424766E1,1.754489183E0,-9.082704186E-1,1.960484624E0
3.094451797E1,1.556483388E0,-1.924798250E0,1.443964839E0
3.096478828E1,1.249687433E0,-3.569698572E0,6.052029133E-1
3.098505854E1,1.128913164E0,-3.958386421E0,2.990727723E-1
3.100532886E1,9.057404399E-1,-2.806570292E0,1.038632076E-2
3.102559912E1,5.937513113E-1,-8.107987642E-1,-2.957438231E-1
3.104586943E1,5.426186919E-1,1.357545376E0,-2.531332672E-1
3.106613969E1,5.729786754E-1,2.071138859E0,2.370211668E-2
3.108641000E1,-4.941491783E-1,1.160604715E0,7.026745081E-1
3.110668026E1,-1.733849764E0,1.375122190E0,1.050349951E0
3.112695058E1,-1.617735982E0,1.419863224E0,1.323590130E-1
3.114722084E1,-1.029310942E0,8.436887860E-1,-1.336240053E0
3.116749110E1,-5.143891573E-1,-1.451421678E-1,-8.122635484E-1
3.118776141E1,-4.740423337E-2,-1.935983539E0,-2.451438010E-1
3.120816141E1,3.956122994E-1,-2.934934378E0,-1.913479865E-1
3.122830198E1,1.189100504E0,-2.745317459E0,-1.663142890E-1
3.124857224E1,1.137435198E0,-2.722947121E0,-2.989396155E-1
3.126884250E1,6.878939867E-1,-2.103096724E0,-2.909501195E-1
3.128911282E1,7.976161242E-1,-1.906688809E0,-3.122554123E-1
3.130951282E1,8.082687855E-1,-1.977528811E0,-3.085269928E-1
3.132965334E1,5.522060394E-1,-1.566336989E0,-1.514005959E-1
3.134992360E1,2.523343265E-1,-9.880320430E-1,2.926811874E-1
3.137019391E1,1.246358454E-1,6.045371294E-2,7.862977386E-1
3.139046417E1,5.326318368E-2,6.396908164E-1,9.034767151E-1
3.141086417E1,-5.699160323E-2,9.760478139E-2,6.845650673E-1
3.143100474E1,-7.723161578E-2,-8.550072312E-1,3.800328076E-1
3.145127500E1,-1.241032109E-1,-1.078046799E0,2.809632719E-1
3.147154526E1,-3.243727684E-1,-5.540702343E-1,4.045338631E-1
3.149181552E1,-6.182523966E-1,-5.269060135E-1,4.466117918E-1
3.151221552E1,-1.179513216E0,-9.178577662E-1,3.805654347E-1
3.153235604E1,-2.053295612E0,-9.157272577E-1,-8.428898454E-2
3.155262630E1,-2.742920637E0,-1.659148186E-1,-6.892255545E-1
3.157289657E1,-2.553436995E0,1.780321896E-1,-1.269128442E0
3.159316688E1,-1.888845563E0,-1.864211401E-3,-1.858086109E0
3.161343714E1,-1.667803407E0,-6.328997612E-1,-2.311755180E0
3.163370740E1,-1.687510729E0,-1.677124500E0,-2.467283726E0
3.165397766E1,-1.278050065E0,-2.293246269E0,-2.526938438E0
3.167424792E1,-7.263766527E-1,-2.189383030E0,-2.489121675E0
3.169451818E1,-3.046653867E-1,-2.847050190E0,-2.667553425E0
3.171478844E1,1.491369121E-2,-3.826293945E0,-2.719751120E0
3.173505870E1,2.368880063E-1,-4.336954594E0,-2.385791063E0
3.175532896E1,3.673827946E-1,-4.287419796E0,-1.961416721E0
3.177559922E1,4.083954394E-1,-4.358792305E0,-1.465669632E0
3.179586948E1,4.339617789E-1,-4.382228374E0,-9.715204239E-1
3.181613974E1,2.597911656E-1,-4.130426407E0,-6.050697565E-1
3.183641000E1,-1.304948032E-1,-3.721898079E0,-3.191796243E-1
3.185668026E1,-3.265033066E-1,-3.637342691E0,1.494032294E-1
3.187695052E1,8.841688186E-2,-3.792737961E0,6.520745158E-1
3.189722078E1,6.155892015E-1,-2.953576565E0,7.676556110E-1
3.191749105E1,3.556649089E-1,-2.063149452E0,6.877608299E-1
3.193776131E1,-8.185219765E-1,-1.955690861E0,3.965443969E-1
3.195803157E1,-1.705087662E0,-1.658482313E0,-1.784316637E-2
3.197830183E1,-1.330247998E0,3.362238407E-1,-2.648511827E-1
3.199857209E1,2.262353599E-1,2.502437353E0,-2.275669426E-1
3.201884235E1,1.306679010E0,3.332011461E0,6.073334217E-1
3.203911261E1,4.813660085E-1,1.441701174E0,3.688475490E-1
3.205938287E1,-2.471411675E-1,-3.619233072E-1,-2.872217000E-1
3.207965308E1,2.237053588E-2,-1.767139196E0,-9.494162351E-2
3.209992334E1,2.459427416E-1,-2.981273413E0,1.968074590E-1
3.212019360E1,3.806985915E-1,-2.868355513E0,1.595232338E-1
3.214046386E1,9.584709406E-1,-2.212286234E0,-8.535424620E-2
3.216073412E1,1.106009960E0,-1.334242702E0,-5.066660047E-1
3.218100433E1,9.739173055E-1,-1.851294994E0,-8.010782599E-1
3.220127464E1,7.592666745E-1,-2.250635862E0,-4.763059914E-1
3.222154490E1,5.048018098E-1,-1.979659319E0,-3.542001545E-2
3.224181511E1,3.679154217E-1,-1.735713959E0,2.069274634E-1
3.226208537E1,3.375554085E-1,-1.439171195E0,2.745717168E-1
3.228235563E1,4.078628123E-1,-1.444497466E0,2.138516754E-1
3.230275563E1,4.573975801E-1,-1.556749701E0,6.578002870E-2
3.232289615E1,4.605933726E-1,-1.562608600E0,-6.724476814E-2
3.234316636E1,5.170523524E-1,-1.641438127E0,-1.561942846E-1
3.236343662E1,5.793702602E-1,-1.616404414E0,-1.663142890E-1
3.238370688E1,5.724460483E-1,-1.456215382E0,-1.194426864E-1
3.240397714E1,5.399554968E-1,-1.319329023E0,-6.724476814E-2
3.242424740E1,4.861596823E-1,-1.203215241E0,7.190529723E-3
3.244451761E1,3.998733461E-1,-1.209606886E0,9.560741484E-2
3.246478787E1,2.384859025E-1,-1.268728971E0,1.515337527E-1
3.248505813E1,4.953476042E-2,-9.279778004E-1,1.238368973E-1
3.250532839E1,-3.286338449E-1,-3.992075622E-1,1.733716577E-1
3.252563792E1,-9.394294024E-1,-4.428833723E-1,1.616537571E-1
3.254586891E1,-1.611344457E0,-1.667004466E0,-2.153164148E-1
3.256613917E1,-2.217346191E0,-2.333193779E0,-4.209122956E-1
3.258640938E1,-2.765823841E0,-1.155811071E0,-5.024049878E-1
3.260667964E1,-3.259973049E0,5.721797347E-1,-5.157207847E-1
3.262694985E1,-2.880339622E0,1.227583170E0,-7.728487849E-1
3.264722011E1,-1.914411902E0,1.252084255E0,-1.062067866E0
3.266749032E1,-1.581516981E0,6.083986759E-1,-1.351686358E0
3.268776058E1,-1.651291847E0,-6.632598042E-1,-1.699361801E0
3.270816058E1,-1.796700239E0,-2.069008350E0,-2.022669315E0
3.272830110E1,-1.853159308E0,-3.227216244E0,-2.007223129E0
3.274857130E1,-1.715740204E0,-3.779954910E0,-2.002429247E0
3.276884157E1,-1.472993255E0,-3.751192808E0,-2.135587215E0
3.278911183E1,-1.132108927E0,-3.334807873E0,-2.199902534E0
3.280951183E1,-7.050713897E-1,-3.001513481E0,-2.091378927E0
3.282965230E1,-2.167811543E-1,-2.432263136E0,-1.828791380E0
3.284992250E1,2.102564126E-1,-1.893905640E0,-1.296825290E0
3.287019276E1,4.675175846E-1,-1.641438127E0,-6.583329439E-1
3.289046302E1,6.060018539E-1,-1.450356483E0,-6.298371404E-2
3.291086302E1,6.942855716E-1,-1.339568973E0,3.715106845E-1
3.293100349E1,7.677887678E-1,-1.079112053E0,7.564703226E-1
3.295127375E1,7.784414291E-1,-8.688556552E-1,1.092427850E0
3.297154396E1,7.486140132E-1,-8.534093499E-1,1.119059443E0
3.299181422E1,6.608629227E-1,-9.572725296E-1,6.243776679E-1
3.301208448E1,5.458144546E-1,-9.125314951E-1,9.507478029E-2
3.303235469E1,5.607281327E-1,-5.514070988E-1,-7.989477599E-4
3.305262495E1,7.193192840E-1,-2.319611609E-1,-3.595264629E-2
3.307289516E1,8.088014126E-1,1.306279600E-1,8.788425475E-3
3.309316542E1,8.546077609E-1,1.988048255E-1,9.507478029E-2
3.311343568E1,8.008119464E-1,-1.446095407E-1,1.318263710E-1
3.313370589E1,6.756434441E-1,-6.733797789E-1,8.655267209E-2
3.315397615E1,5.330312848E-1,-9.178577662E-1,-2.476738021E-2
3.317424641E1,-4.740423337E-2,-4.858933687E-1,1.062600464E-1
3.319451662E1,-6.113281846E-1,6.418213248E-1,1.339569092E-1
3.321478688E1,-1.270060539E0,1.649960279E0,-2.920154035E-1
3.323505714E1,-1.600691795E0,3.008304596E0,-1.014130950E0
3.325532735E1,3.812312186E-1,2.666488171E0,-8.458193541E-1
3.327559761E1,1.484711170E-1,-4.125233591E-1,-4.283691347E-1
3.329586782E1,-2.849580348E-1,-3.598460674E0,-2.403501123E-1
3.331613808E1,4.904207587E-1,-3.779954910E0,2.000032514E-1
3.333640828E1,1.482980132E0,-1.533846498E0,-7.523424178E-2
3.335667854E1,1.662477016E0,-1.861548275E-1,-4.395544231E-1
3.337694881E1,1.366333723E0,-6.418213248E-2,-6.540718675E-1
3.339721901E1,1.087900519E0,-1.172322631E0,-3.974764943E-1
3.341748927E1,8.125298619E-1,-1.223987937E0,-6.831002980E-2
3.343775948E1,4.989428520E-1,-4.976112843E-1,3.571296334E-1
3.345802974E1,4.579302073E-1,3.047985733E-1,6.792387366E-1
3.347830000E1,5.085302591E-1,1.169126868E0,7.697861195E-1
3.349857021E1,4.158523083E-1,1.098286867E0,7.037398219E-1
3.351884047E1,2.752375007E-1,8.612656593E-1,4.396875799E-1
3.353911068E1,4.154528305E-2,9.464867711E-1,3.328948840E-2
3.355938094E1,-3.557980657E-1,9.267793894E-1,-1.641837656E-1
3.357965115E1,-5.442165732E-1,4.992091656E-1,-1.189100519E-1
3.359992136E1,-4.866923392E-1,1.247690022E-1,-5.659212917E-2
3.362019162E1,-2.956106663E-1,-5.086633936E-2,1.784316637E-2
3.364046188E1,-4.420844093E-2,-2.841590643E-1,3.062633052E-2
3.366073214E1,1.491369121E-2,-5.226449966E-1,1.358211134E-2
3.368100235E1,-1.810948253E-1,-7.676556110E-1,-1.098553166E-1
3.370127261E1,-7.167892456E-1,-1.270326823E-1,-2.744385600E-1
3.372154282E1,-1.427719593E0,1.519465446E0,-4.427502155E-1
3.374181308E1,-1.975664616E0,2.108955622E0,-6.434192657E-1
3.376208328E1,-2.425072670E0,1.463539124E0,-8.644614220E-1
3.378235349E1,-2.535860062E0,7.962845564E-1,-1.231311560E0
3.380262375E1,-1.977262497E0,4.278365076E-1,-1.396960139E0
3.382289401E1,-1.333976388E0,5.327649713E-1,-1.118393660E0
3.384316417E1,-1.021854162E0,3.500722647E-1,-1.121056795E0
3.386343443E1,-7.759113908E-1,5.885581672E-2,-7.957519293E-1
3.388370469E1,-1.938779801E-1,8.564719558E-1,-7.339666486E-1
3.390397490E1,2.470080107E-1,7.568697929E-1,-8.511456251E-1
3.392424516E1,3.226417303E-1,-1.238368973E-1,-7.531414032E-1
3.394451537E1,1.372858584E-1,-1.337438464E0,-4.315649271E-1
3.396478563E1,4.793686420E-2,-1.974865675E0,-5.060002208E-3
3.398505584E1,3.636543751E-1,-1.741572857E0,5.210470557E-1
3.400532605E1,1.158740520E0,-1.149952054E0,9.679251909E-1
3.402559630E1,1.686445475E0,-1.163800508E-1,1.404550076E0
3.404586651E1,1.955824018E0,5.178512931E-1,1.860882401E0
3.406613677E1,2.156626225E0,6.370276809E-1,2.053162575E0
3.408640698E1,2.062350512E0,-2.697780132E-1,1.680852890E0
3.410680698E1,1.626258135E0,-2.099900961E0,9.934915304E-1
3.412694745E1,1.095889926E0,-2.538256884E0,4.375570416E-1
3.414721766E1,6.102629304E-1,-1.016261458E0,-2.583264373E-2
3.416748792E1,5.484775901E-1,2.258491993E0,-3.798996508E-1
3.418775813E1,8.801741004E-1,4.852941513E0,-4.246407151E-1
3.420815813E1,4.158523083E-1,2.960367680E0,-1.514005959E-1
3.422829860E1,-1.385109067E0,1.032240510E0,-8.056056499E-2
3.424856881E1,-2.392582178E0,9.315730333E-1,-8.490151167E-1
3.426883901E1,-1.674727559E0,-7.623292804E-1,-1.582315922E0
3.428910922E1,-7.631282210E-1,-1.459943771E0,-7.510108948E-1
3.430950922E1,-2.290316820E-1,-1.192030072E0,-1.700427085E-1
3.432964969E1,3.918838501E-1,-1.344362736E0,1.358211134E-2
3.434991990E1,8.679235578E-1,-1.331579566E0,1.595232338E-1
3.437019016E1,7.645930052E-1,-1.426920652E0,-9.813741595E-2
3.439046037E1,9.302414656E-1,-6.083986759E-1,-2.552638054E-1
3.441086037E1,1.003744721E0,-5.348954797E-1,-3.074617088E-1
3.443100078E1,7.464835048E-1,-7.649924755E-1,-2.137185186E-1
3.445127104E1,4.515386224E-1,-3.986749053E-1,5.406212807E-2
3.447154125E1,3.253048956E-1,1.061268896E-1,5.082638860E-1
3.449181146E1,3.775027990E-1,4.619249403E-1,6.882934570E-1
3.451221146E1,4.520712495E-1,6.631265879E-1,6.510092616E-1
3.453235193E1,4.600607455E-1,7.419561148E-1,3.842938542E-1
3.455262214E1,3.306311965E-1,6.535392404E-1,7.536740601E-2
3.457289235E1,7.723161578E-2,4.203796685E-1,-9.281109273E-2
3.459316256E1,-1.965411454E-1,9.494162351E-2,-8.961530030E-2
3.461343276E1,-4.217112362E-1,-2.735064328E-1,-1.864211401E-3
3.463370297E1,-6.134586930E-1,-2.942790687E-1,6.844318658E-2
3.465397323E1,-7.737808824E-1,3.458112180E-1,3.462106921E-3
3.467424344E1,-1.184839487E0,1.088166833E0,-1.865542978E-1
3.469451365E1,-2.193377733E0,1.176983118E0,-2.781669796E-1
3.471478386E1,-3.004975557E0,1.114265800E0,-1.966743022E-1
3.473505407E1,-2.763693333E0,3.383543491E-1,-3.490070105E-1
3.475532433E1,-2.226401091E0,-5.060002208E-3,-8.133288026E-1
3.477563381E1,-1.497361183E0,1.215332627E0,-7.350319028E-1
3.479586480E1,-8.238482475E-1,1.257410526E0,-7.153245211E-1
3.481613500E1,-6.065344810E-1,1.099352121E0,-5.826992393E-1
3.483640521E1,-4.265049398E-1,4.214449227E-1,-4.241080880E-1
3.485667542E1,-2.237053588E-2,-4.151864946E-1,-3.138532937E-1
3.487694558E1,4.211786091E-1,-9.954888821E-1,-2.190448344E-1
3.489721578E1,8.663256764E-1,-1.399223804E0,3.755054250E-2
3.491748599E1,1.319994807E0,-1.347558498E0,3.917506933E-1
3.493775615E1,1.785381913E0,-1.065263629E0,6.946850419E-1
3.495802641E1,2.039447308E0,-7.383608818E-1,1.028645158E0
3.497829662E1,1.959552526E0,-3.800328076E-1,1.410409093E0
3.499856683E1,1.772066116E0,-7.803056389E-2,1.529186010E0
3.501883703E1,1.639573932E0,-6.962829232E-1,1.194693208E0
3.503910724E1,1.463805437E0,-2.057423592E0,7.761777043E-1
3.505937745E1,1.088433146E0,-2.682466984E0,5.135902166E-1
3.507964766E1,6.145239472E-1,-2.047303677E0,-6.724476814E-2
3.509991787E1,5.069323182E-1,-5.139897019E-2,-4.677838981E-1
3.512018808E1,7.177214026E-1,1.959818840E0,-5.769734383E-1
3.514045828E1,5.458144546E-1,2.409226894E0,-4.496744275E-1
3.516072849E1,-4.755070508E-1,1.485376954E0,1.786979735E-1
3.518099870E1,-1.356346965E0,1.376187444E0,7.042724490E-1
3.520126891E1,-8.893619776E-1,2.064214706E0,1.968074590E-1
3.522153907E1,-9.693899006E-2,1.342099071E0,-9.800425768E-1
3.524180927E1,-4.893554747E-1,6.281060576E-1,-1.456082225E0
3.526207948E1,2.246374637E-1,-8.853672147E-1,-5.428850055E-1
3.528234969E1,1.985385120E-1,-1.587642312E0,-3.218427896E-1
3.530261990E1,3.545996249E-1,-2.579802275E0,-3.729754388E-1
3.532289006E1,8.008119464E-1,-2.270875692E0,-3.324954212E-1
3.534316026E1,1.226251602E0,-9.567399025E-1,2.583264373E-2
3.536343047E1,1.511742234E0,-4.332959950E-1,3.656517565E-1
3.538370068E1,1.294428468E0,-2.958769798E-1,3.070622385E-1
3.540397084E1,6.677871346E-1,1.358211134E-2,-5.339634046E-2
3.542424104E1,7.936213911E-2,7.504782081E-1,-1.311605871E-1
3.544451125E1,-3.195790946E-1,1.525324345E0,3.382211924E-2
3.546478141E1,-7.338334918E-1,2.013082027E0,3.587275445E-1
3.548505162E1,-1.199220538E0,2.081258774E0,4.519380927E-1
3.550532183E1,-1.558613896E0,1.820801854E0,4.237086177E-1
3.552559198E1,-1.920270920E0,2.210688353E0,3.784348965E-1
3.554586219E1,-2.164083004E0,2.633997440E0,7.430213690E-2
3.556613240E1,-2.571945906E0,2.203231573E0,-4.683165252E-1
3.558640256E1,-2.534262180E0,1.213734746E0,-1.325587392E0
3.560667276E1,-1.645965457E0,4.198470414E-1,-1.246225357E0
3.562694297E1,-1.569799185E0,2.504701018E-1,-9.960215092E-1
3.564721313E1,-1.428252220E0,-5.854955316E-1,-1.188701034E0
3.566748334E1,-6.454166174E-1,-6.526071429E-1,-9.976193905E-1
3.568775354E1,2.017343044E-1,-3.363569975E-1,-6.162550449E-1
3.570815354E1,7.038729787E-1,-4.205128253E-1,-4.310323000E-1
3.572829391E1,1.083639383E0,-7.346324325E-1,-1.812279820E-1
3.574856407E1,1.418531656E0,-8.448871970E-1,2.969422340E-1
3.576883427E1,1.672597051E0,-7.293061018E-1,9.311735630E-1
3.578910443E1,1.823731303E0,-9.034767151E-1,1.543567061E0
3.580950443E1,1.871135592E0,-1.132907867E0,1.922135115E0
3.582964480E1,1.669933915E0,-1.545031786E0,1.465270162E0
3.584991500E1,1.226251602E0,-2.410425186E0,2.479401082E-1
3.587018516E1,9.968204498E-1,-3.039862871E0,-1.913479865E-1
3.589045532E1,9.813741446E-1,-2.826810122E0,-8.641951531E-2
3.591085532E1,7.065361142E-1,-1.876861334E0,-3.914843872E-2
3.593099568E1,3.322291076E-1,-4.672512710E-1,-1.759016514E-1
3.595126589E1,-1.715074480E-1,1.878858805E0,-2.675143182E-1
3.597153604E1,-8.014777303E-1,3.350121021E0,-1.518000662E-2
3.599180620E1,-5.633913279E-1,2.775145054E0,3.134538233E-1
3.601220620E1,-9.048082829E-1,7.488803267E-1,-1.806953400E-1
3.603234657E1,-1.716272831E0,-4.624575675E-1,-1.042360425E0
3.605261672E1,-4.904207587E-1,-1.608947515E0,-6.870950460E-1
3.607288693E1,4.398207366E-1,-9.796430469E-1,-4.880239069E-1
3.609315709E1,8.439550996E-1,-1.096156240E0,-3.788343966E-1
3.611342724E1,1.200818419E0,-1.394962788E0,-3.703122735E-1
3.613369740E1,9.898962379E-1,-1.367265940E0,-2.408827394E-1
3.615396761E1,6.507429481E-1,-1.014130950E0,1.685779691E-1
3.617423776E1,6.651239991E-1,-6.723145247E-1,4.125233591E-1
3.619450792E1,6.709829569E-1,-3.139864504E-1,3.427485824E-1
3.621477808E1,4.233091474E-1,1.556616426E-1,2.292979956E-1
3.623504828E1,2.842922211E-1,1.487374306E-1,1.723063886E-1
3.625531844E1,2.763027549E-1,2.403501123E-1,1.307611167E-1
3.627558860E1,2.091911435E-1,8.516782522E-1,1.094558388E-1
3.629585875E1,1.937448233E-1,1.204679966E0,1.280979514E-1
3.631612891E1,1.544632297E-2,1.029577255E0,-2.636527456E-2
3.633639907E1,-3.840275407E-1,4.161186218E-1,-1.146489978E-1
3.635666922E1,-6.805703044E-1,1.545963883E-1,1.304947957E-2
3.637693938E1,-7.455514073E-1,8.948214650E-1,7.749792933E-2
3.639720953E1,-8.755135536E-1,1.875130296E0,-1.189100519E-1
3.641747969E1,-1.278050065E0,2.492850065E0,-4.896217883E-1
3.643774985E1,-1.945837140E0,2.118010521E0,-8.793751597E-1
3.645801995E1,-2.264750481E0,9.885646701E-1,-1.161536813E0
3.647829016E1,-2.181127310E0,3.569964767E-1,-9.635309577E-1
3.649856032E1,-1.885649800E0,4.342280924E-1,-8.080024719E-1
3.651883047E1,-1.460742712E0,2.984069884E-1,-8.447540402E-1
3.653910063E1,-1.011201501E0,6.121271253E-1,-6.503434777E-1
3.655937078E1,-4.360923171E-1,1.227583170E0,-4.187817574E-1
3.657964094E1,8.628635854E-2,1.380448580E0,-1.615206003E-1
3.659991110E1,2.454101145E-1,7.664572001E-1,4.980107397E-2
3.662018125E1,1.671132296E-1,-3.241064548E-1,3.294327855E-1
3.664045141E1,2.107890397E-1,-1.033838391E0,6.776408553E-1
3.666072157E1,6.767086983E-1,-1.079112053E0,1.099884748E0
3.668099167E1,1.339169502E0,-7.223818898E-1,1.482314348E0
3.670126183E1,1.784316540E0,-4.306328297E-1,1.808151841E0
3.672153198E1,1.963280916E0,-2.165148407E-1,1.950364590E0
3.674180214E1,1.849830270E0,-4.428833723E-1,1.220259547E0
3.676207230E1,1.528786540E0,-1.407213211E0,9.507478029E-2
3.678234245E1,1.309874773E0,-2.128663063E0,-9.813741595E-2
3.680274245E1,1.040496230E0,-1.970604539E0,5.592633970E-3
3.682288271E1,6.825676560E-1,-8.496809006E-1,-1.284974217E-1
3.684315276E1,6.518082023E-1,6.705834866E-1,-2.840259075E-1
3.686342297E1,4.712460041E-1,2.187252522E0,-1.247690022E-1
3.688369313E1,-3.536675274E-1,2.161686182E0,2.031990439E-1
3.690396328E1,-9.680583477E-1,1.917740822E0,3.869570196E-1
3.692423334E1,-1.084172130E0,1.619600177E0,-1.338237375E-1
3.694450354E1,-7.045387626E-1,7.558045387E-1,-1.025848866E0
3.696477370E1,-2.444780022E-1,3.808317333E-2,-8.825709224E-1
3.698504381E1,3.355580568E-2,-1.031175256E0,-2.121206224E-1
3.700531396E1,3.673827946E-1,-1.450356483E0,8.868319541E-2
3.702558412E1,9.451551437E-1,-1.346493244E0,1.872200817E-1
3.704585422E1,1.045822620E0,-1.224520564E0,-3.994738683E-3
3.706612438E1,8.130624890E-1,-8.342345953E-1,-3.275685757E-2
3.708639453E1,8.647277355E-1,-4.768386483E-1,9.400951862E-2
3.710666464E1,9.723193645E-1,-2.767022252E-1,2.079927325E-1
3.712693480E1,6.539387107E-1,2.131858915E-1,2.996053994E-1
3.714720490E1,2.752375007E-1,5.679186583E-1,4.077296555E-1
3.716747506E1,2.347574681E-1,8.889625072E-1,3.603254259E-1
3.718774516E1,1.836248189E-1,1.580718040E0,2.777675092E-1
3.720814516E1,-2.716422267E-2,1.702158093E0,1.968074590E-1
3.722828547E1,-3.036001325E-1,1.345827460E0,1.435442716E-1
3.724855558E1,-5.042691827E-1,9.219856858E-1,1.051947847E-1
3.726882568E1,-5.905555487E-1,8.468846083E-1,1.707084924E-1
3.728909584E1,-4.595280886E-1,1.056741476E0,2.287653685E-1
3.730949584E1,-2.892190814E-1,1.329848528E0,1.632516533E-1
3.732963610E1,-5.021386743E-1,1.795768142E0,-2.051964104E-1
3.734990620E1,-1.127847910E0,1.876195550E0,-7.451519370E-1
3.737017636E1,-2.032522917E0,1.228115797E0,-1.207343221E0
3.739044646E1,-2.718419552E0,6.918887496E-1,-1.425722241E0
3.741084646E1,-2.580467939E0,-8.016108721E-2,-1.306412697E0
3.743098672E1,-1.825995088E0,3.740406930E-1,-1.007739425E0
3.745125683E1,-1.249820590E0,1.194027424E0,-1.013598323E0
3.747152693E1,-9.154609442E-1,8.319709301E-1,-9.592698812E-1
3.749179709E1,-6.992124319E-1,2.728406489E-1,-8.346340656E-1
3.751219709E1,-5.287702680E-1,-8.974846452E-2,-7.526087761E-1
3.753233735E1,-1.800295562E-1,-2.846917212E-1,-5.960150361E-1
3.755260745E1,2.225069404E-1,-6.339650154E-1,-3.356912136E-1
3.757287756E1,5.079975724E-1,-9.848362207E-1,2.956106514E-2
3.759314771E1,7.784414291E-1,-1.153680563E0,4.503402114E-1
3.761341782E1,1.084172130E0,-9.056072235E-1,1.089232087E0
3.763368787E1,1.311472654E0,-5.940176249E-1,1.820935011E0
3.765395808E1,1.470729589E0,-5.764408112E-1,2.235722065E0
3.767422818E1,1.582582355E0,-9.444893599E-1,2.269277811E0
3.769449828E1,1.454218030E0,-2.232526302E0,1.539305925E0
3.771476839E1,9.707214832E-1,-3.267163515E0,2.996053994E-1
3.773503854E1,8.641951084E-1,-2.032922506E0,-1.668469161E-1
3.775530865E1,1.225718975E0,2.280995846E-1,-2.797648609E-1
3.777557875E1,1.672597051E0,1.137168884E0,-4.171838760E-1
3.779584886E1,1.214533687E0,2.898848653E-1,-1.284974217E-1
3.781611896E1,-1.374190152E-1,-4.146538675E-1,1.143027902E0
3.783638907E1,-1.551689625E0,9.123983383E-1,1.361939549E0
3.785665917E1,-7.460840344E-1,1.215332627E0,-1.796300858E-1
3.787692933E1,8.894951642E-2,1.681385517E0,-9.060067534E-1
3.789719943E1,4.898881316E-1,1.149952054E0,-1.092960477E0
3.791746953E1,3.253048956E-1,-5.876260400E-1,-8.596677780E-1
3.793773964E1,-7.190529257E-2,-2.262353659E0,-4.954807460E-1
3.795800974E1,3.675159439E-2,-3.020155668E0,1.190432087E-1
3.797827985E1,1.310274303E-1,-2.449307442E0,3.379548788E-1
3.799854995E1,4.797681272E-1,-1.695233941E0,1.611211300E-1
3.801882006E1,7.427550554E-1,-1.481249094E0,2.500706315E-1
3.803909016E1,5.761744976E-1,-1.511076450E0,3.832286000E-1
3.805936026E1,5.815007687E-1,-1.148886800E0,4.263717830E-1
3.807963037E1,5.639239550E-1,-7.255777121E-1,5.135902166E-1
3.809990047E1,3.908185959E-1,-4.077296555E-1,6.179860830E-1
3.812017058E1,2.427469492E-1,-1.861548275E-1,6.829671264E-1
3.814044068E1,2.929474972E-2,-6.009418368E-1,6.408892274E-1
3.816071078E1,-2.540653646E-1,-1.392299533E0,5.540702343E-1
3.818098089E1,-4.818986356E-1,-1.336373210E0,5.157207847E-1
3.820125099E1,-8.046735525E-1,-1.000815153E0,4.242412448E-1
3.822152110E1,-1.325454235E0,-1.288436413E0,2.830938101E-1
3.824179115E1,-1.934651971E0,-1.480183840E0,-1.668469161E-1
3.826206125E1,-2.298306227E0,-5.274386406E-1,-6.572676897E-1
3.828233136E1,-2.299371481E0,3.649859428E-1,-1.063133121E0
3.830260146E1,-1.676858187E0,6.205160543E-2,-1.642503381E0
3.832287157E1,-1.433578491E0,-4.008054435E-1,-2.137717724E0
3.834314167E1,-1.615605474E0,-1.050882578E0,-2.102031469E0
3.836341177E1,-1.313736439E0,-1.902960300E0,-1.866608262E0
3.838368188E1,-1.177915215E0,-2.086585045E0,-1.960351467E0
3.840395193E1,-1.145957351E0,-2.723479748E0,-2.263818502E0
3.842422203E1,-9.032104015E-1,-3.562241554E0,-2.227599382E0
3.844449209E1,-6.134586930E-1,-3.608580589E0,-1.920404077E0
3.846476219E1,-3.675159514E-1,-3.264500380E0,-1.710014462E0
3.848503230E1,-1.725727171E-1,-3.226150990E0,-1.588174939E0
3.850530240E1,-2.024000883E-2,-3.145190954E0,-1.338370562E0
3.852557250E1,1.288969070E-1,-2.910433531E0,-9.571393728E-1
3.854584256E1,3.796333373E-1,-3.017492533E0,-4.001396596E-1
3.856611266E1,7.241129875E-1,-3.454649925E0,2.095906287E-1
3.858638276E1,7.076013684E-1,-3.160637140E0,4.972118139E-1
3.860678276E1,4.968123436E-1,-2.503635883E0,4.322307110E-1
3.862692292E1,-1.507348120E-1,-1.907221437E0,4.460791349E-1
3.864719302E1,-1.151816368E0,-1.343830109E0,1.174453199E-1
3.866746313E1,-1.648628592E0,1.279647946E-1,1.105211005E-1
3.868773313E1,-7.306377292E-1,2.598311186E0,9.720530361E-2
3.870813313E1,5.980123878E-1,1.963014603E0,-6.884266436E-2
3.872827339E1,8.285087943E-1,3.447459340E-1,3.390201628E-1
3.874854344E1,1.043159366E0,5.210470557E-1,3.917506933E-1
3.876881354E1,1.223588467E0,-4.986765385E-1,3.006706536E-1
3.878908360E1,8.823046088E-1,-1.939711928E0,3.054643571E-1
3.880948360E1,8.285087943E-1,-2.851311207E0,-5.126581341E-2
3.882962375E1,7.182540298E-1,-2.478069544E0,-1.189100519E-1
3.884989386E1,4.557996690E-1,-2.062616825E0,-1.849564016E-1
3.887016391E1,5.287702680E-1,-2.329998016E0,-2.020006180E-1
3.889043401E1,7.885614038E-1,-1.466868043E0,-2.929474926E-3
3.891083401E1,8.380961418E-1,-4.087949097E-1,-3.488738462E-2
3.893097417E1,6.735129356E-1,-1.968074590E-1,2.005358785E-1
3.895124422E1,5.649892092E-1,-3.821633458E-1,3.043990731E-1
3.897151427E1,5.511407852E-1,-7.926893234E-1,2.106558830E-1
3.899178438E1,5.255744457E-1,-1.104678392E0,1.510011256E-1
3.901205443E1,4.408859909E-1,-1.256478429E0,1.446095407E-1
3.903232453E1,3.567301631E-1,-1.135038376E0,7.803056389E-2
3.905259459E1,3.860249221E-1,-7.793735266E-1,3.595264629E-2
3.907286464E1,4.914860129E-1,-8.006787896E-1,1.731053367E-2
3.909313474E1,6.374271512E-1,-1.068992019E0,2.956106514E-2
3.911340480E1,7.145255804E-1,-1.158474207E0,8.442214131E-2
3.913367485E1,6.841655970E-1,-9.482178092E-1,2.522011697E-1
3.915394495E1,4.914860129E-1,-7.809714079E-1,4.050664902E-1
3.917421500E1,2.518016994E-1,-7.410240173E-1,4.231759906E-1
3.919448506E1,4.633896798E-2,-6.776408553E-1,3.102580309E-1
3.921475516E1,-3.845601678E-1,-3.379548788E-1,1.744369268E-1
3.923502521E1,-1.053812027E0,-4.338286221E-1,1.198421605E-2
3.925529526E1,-1.686445475E0,-1.203747869E0,-4.784365296E-1
3.927556532E1,-2.006024599E0,-1.625459194E0,-9.012130499E-1
3.929583542E1,-2.165148258E0,-7.207840085E-1,-1.194027424E0
3.931610547E1,-2.386723280E0,6.153228879E-1,-1.299488425E0
3.933637552E1,-2.189649343E0,1.641970754E0,-1.267530560E0
3.935664558E1,-1.613474965E0,1.451288581E0,-1.180711627E0
3.937691563E1,-1.505350709E0,-2.394180000E-1,-1.311738968E0
3.939718573E1,-1.713077068E0,-1.789509773E0,-1.950231433E0
3.941745578E1,-1.855822444E0,-2.666488171E0,-2.486458540E0
3.943772584E1,-1.520264387E0,-3.176616192E0,-2.248372078E0
3.945799589E1,-1.079378366E0,-3.510043621E0,-1.892707229E0
3.947826594E1,-6.992124319E-1,-3.789009571E0,-1.595099092E0
3.949853599E1,-4.478102028E-1,-3.781552792E0,-1.201484203E0
3.951880605E1,-4.515386224E-1,-3.547860622E0,-1.099352121E0
3.953907615E1,-5.415533781E-1,-3.057439804E0,-1.162069440E0
3.955934620E1,-5.538039207E-1,-2.710696459E0,-1.120524168E0
3.957961625E1,-1.693769246E-1,-2.636660576E0,-6.157223582E-1
3.959988631E1,5.404881239E-1,-2.272473574E0,-9.867004305E-2
3.962015636E1,9.355677962E-1,-1.345427990E0,1.089232042E-1
3.964042641E1,8.210519552E-1,-9.620662332E-1,2.564622164E-1
3.966069646E1,1.862879843E-1,-1.117994189E0,1.696432382E-1
3.968096651E1,-1.017060518E0,-1.603088617E0,-1.412805915E-1
3.970123657E1,-1.769536018E0,-1.479651213E0,-4.763059914E-1
3.972150662E1,-8.110650778E-1,-8.331693411E-1,-8.213182688E-1
3.974177667E1,1.148087859E0,8.080024719E-1,-9.145288467E-1
3.976204667E1,2.599642754E0,1.647829652E0,-8.010782599E-1
3.978231667E1,3.180610895E0,-6.125265732E-3,-7.222487330E-1
3.980258677E1,2.294311523E-1,-2.268745184E0,-6.087981462E-1
3.982285683E1,-1.582049608E0,-3.118692398E0,3.395527899E-1
3.984312688E1,-1.076182604E0,-3.007372379E0,1.607349634E0
3.986339693E1,3.355580568E-2,-3.499923706E0,1.822532892E0
3.988366693E1,6.155892015E-1,-2.627073288E0,9.247819781E-1
3.990393703E1,4.323638678E-1,-1.230912089E0,2.042642981E-1
3.992420709E1,3.977428079E-1,-1.266065836E0,-1.860216707E-1
3.994447709E1,4.941491783E-1,-1.237836361E0,-4.480765164E-1
3.996474714E1,5.884249806E-1,-1.315600634E0,-5.290365815E-1
3.998501719E1,5.394228697E-1,-1.187236309E0,-3.351585865E-1
4.000528724E1,4.494080842E-1,-1.306013227E0,-1.944106072E-2
4.002555724E1,4.243744016E-1,-1.623328686E0,2.346243113E-1
4.004582730E1,4.621912539E-1,-1.647829652E0,2.969422340E-1
4.006609735E1,5.820333958E-1,-1.723996043E0,1.174453199E-1
4.008636740E1,6.480797529E-1,-1.824663401E0,-2.316948399E-2
4.010663740E1,6.070671082E-1,-1.701625466E0,-1.439437568E-1
4.012690745E1,5.351617932E-1,-1.400289059E0,-2.472743243E-1
4.014717750E1,3.125217259E-1,-9.125314951E-1,-3.026680350E-1
4.016744750E1,-1.416800618E-1,-3.976096511E-1,-3.804322779E-1
4.018771756E1,-6.651239991E-1,-1.520663798E-1,-4.747081101E-1
4.020811756E1,-1.110270977E0,-5.759081841E-1,-6.093307734E-1
4.022825761E1,-1.474591136E0,-1.111070037E0,-6.929540038E-1
4.024852766E1,-2.071937799E0,-3.640538454E-1,-7.611308694E-1
4.026879771E1,-2.588457584E0,1.284042120E0,-8.841688037E-1
4.028906771E1,-2.358493805E0,2.210688353E0,-1.046621561E0
4.030946771E1,-1.630519152E0,1.849031329E0,-1.112135291E0
4.032960782E1,-1.257809997E0,1.054078341E0,-9.624657035E-1
4.034987782E1,-1.354749084E0,-6.950845569E-2,-8.394277692E-1
4.037014787E1,-1.611344457E0,-1.257011056E0,-7.435539961E-1
4.039041792E1,-1.550091743E0,-1.885916114E0,-9.054740667E-1
4.041081792E1,-1.108673096E0,-1.502021790E0,-1.053013086E0
4.043095797E1,-5.447492003E-1,-1.229846835E0,-1.073785782E0
4.045122797E1,-1.528653353E-1,-1.234640598E0,-1.000282526E0
4.047149802E1,1.331579592E-2,-1.446095347E0,-7.483476996E-1
4.049176802E1,2.400837988E-1,-1.458878517E0,-3.383543491E-1
4.051216802E1,6.395576596E-1,-1.127048969E0,1.376853287E-1
4.053230813E1,1.004277349E0,-7.271755934E-1,5.546028614E-1
4.055257813E1,1.206677437E0,-3.129211962E-1,8.890956640E-1
4.057284818E1,1.228914738E0,-3.123885691E-1,1.141962647E0
4.059311818E1,1.051681519E0,-7.170555592E-1,1.139299512E0
4.061338823E1,7.789740562E-1,-1.114265800E0,6.163882017E-1
4.063365828E1,5.767071247E-1,-8.821714520E-1,1.824263930E-1
4.065392828E1,6.783066392E-1,3.701791167E-2,8.335687965E-2
4.067419834E1,8.801741004E-1,8.016108871E-1,-1.944106072E-2
4.069446834E1,1.029843569E0,8.474172354E-1,-2.689790726E-2
4.071473834E1,1.207742691E0,3.159838319E-1,2.689790726E-2
4.073500839E1,8.711193204E-1,-4.560659826E-1,9.560741484E-2
4.075527839E1,-2.024000883E-1,-1.146756291E0,3.145190775E-1
4.077554844E1,-5.495429039E-1,2.440785319E-1,3.102580309E-1
4.079581844E1,-1.086568907E-1,2.401770115E0,-9.068056941E-2
4.081608849E1,-6.113281846E-1,2.390052080E0,-1.089764714E0
4.083635849E1,-4.499407411E-1,2.884733915E0,-1.450755954E0
