"Time (s)","Acceleration x (m/s^2)","Acceleration y (m/s^2)","Acceleration z (m/s^2)"
1.751512700E-2,5.352836609E0,-3.001131773E0,6.915651798E0
3.769950200E-2,4.206013680E0,-2.366668463E0,8.074444771E0
5.788418900E-2,3.988141537E0,-2.017114878E0,9.767146111E0
7.806929300E-2,4.577115059E0,-1.636436820E0,9.391256332E0
9.825491800E-2,4.433463097E0,-1.085770488E0,7.787140846E0
1.184411680E-1,3.964199543E0,-9.852139950E-1,6.815094948E0
1.386280430E-1,3.511695385E0,-2.469619036E0,7.159860134E0
1.588156480E-1,5.369596004E0,-5.589263916E0,8.644265175E0
1.790039810E-1,5.307346821E0,-5.905298710E0,9.209297180E0
1.991930430E-1,3.312976599E0,-4.784811974E0,8.831012726E0
2.193827310E-1,3.078344822E0,-4.918887615E0,7.957129478E0
2.395729390E-1,2.865260839E0,-4.847061157E0,8.191761017E0
2.597635640E-1,2.733579874E0,-4.274847031E0,9.168595314E0
2.799545020E-1,2.254739523E0,-3.307589531E0,9.309853554E0
3.001456480E-1,2.680907249E0,-2.328361034E0,8.313865662E0
3.203368980E-1,2.518101692E0,-1.389834046E0,7.595604897E0
3.405389810E-1,2.872443438E0,-5.303156972E-1,7.487865925E0
3.607176270E-1,3.399167776E0,2.189497471E0,7.353790283E0
3.808965850E-1,4.483741283E0,2.285265446E0,7.811082840E0
4.010762730E-1,3.787028551E0,2.270900249E0,7.449558735E0
4.212570020E-1,3.183689594E0,2.426523447E0,6.925228596E0
4.414389810E-1,3.538031578E0,1.025915384E0,6.190208435E0
4.616224180E-1,1.818994761E0,-1.209071875E-1,6.341042995E0
4.818075230E-1,2.712032080E0,-6.787561774E-1,6.242880821E0
5.019942930E-1,2.793434858E0,-1.131260276E0,6.697779179E0
5.221827310E-1,2.903568029E0,-1.114500880E0,8.237251282E0
5.423728350E-1,4.268262863E0,-1.136048675E0,6.910863400E0
5.625643980E-1,4.052784920E0,-1.085770488E0,6.913257599E0
5.827573140E-1,3.262698412E0,1.397016644E0,9.170989990E0
6.029512730E-1,2.788646460E0,2.764105797E0,1.050216579E1
6.231460640E-1,4.376002312E0,-1.315613866E0,8.582015991E0
6.433413770E-1,5.434239388E0,-2.438494444E0,1.150294209E1
6.635368980E-1,4.344877720E0,-2.867056608E0,9.477447510E0
6.837316890E-1,2.824559450E0,-2.079364061E0,7.894880295E0
7.039201270E-1,2.680907249E0,-1.753752708E0,7.574057102E0
7.241084600E-1,3.066373825E0,-2.313995838E0,8.273163795E0
7.442913770E-1,2.539649487E0,-2.740163803E0,9.410409927E0
7.644747100E-1,1.431134105E0,-2.675520420E0,9.810241699E0
7.846585640E-1,4.542997777E-1,-2.495955229E0,9.247604370E0
8.048431480E-1,2.771288455E-1,-2.689885616E0,8.486248016E0
8.250285640E-1,2.819172442E-1,-3.106476784E0,8.218097687E0
8.452149180E-1,2.531868219E-1,-2.711433411E0,9.080010414E0
8.654022100E-1,2.986766696E-1,-2.974795580E0,9.561244011E0
8.855905430E-1,6.937199235E-1,-3.245340347E0,9.628282547E0
9.057798140E-1,1.402403593E0,-3.159149170E0,9.726444244E0
9.259699180E-1,2.003348351E0,-3.173514366E0,1.004487324E1
9.461607520E-1,2.616263866E0,-3.223792553E0,1.048540592E1
9.663522100E-1,3.035249233E0,-3.345896959E0,1.059793377E1
9.865441890E-1,3.368043184E0,-3.178302765E0,1.032738876E1
1.006736481E0,3.686472178E0,-2.706645012E0,9.994594574E0
1.026928981E0,3.995324135E0,-2.412158251E0,9.719262123E0
1.047132314E0,3.925892353E0,-2.364274263E0,9.202114105E0
1.067310960E0,3.954622746E0,-2.237381458E0,8.893261909E0
1.087489918E0,3.937863350E0,-2.254140854E0,8.605957985E0
1.107669606E0,4.105457306E0,-2.613271236E0,8.639476776E0
1.127850335E0,4.359242916E0,-3.139995575E0,8.929175377E0
1.148032314E0,4.900332451E0,-4.466383457E0,8.780735016E0
1.168215752E0,5.096656799E0,-4.480748653E0,9.331400871E0
1.188400856E0,5.046378613E0,-4.875791550E0,9.755174637E0
1.208587627E0,4.917091846E0,-4.973954201E0,9.850942612E0
1.228776064E0,4.804564476E0,-4.643554211E0,9.692925453E0
1.248966168E0,4.754285812E0,-4.449624062E0,9.858125687E0
1.269157731E0,4.680065632E0,-4.396951199E0,1.024838066E1
1.289350648E0,4.682459831E0,-4.463989258E0,1.050934792E1
1.309544606E0,4.701613426E0,-4.557363033E0,1.064821243E1
1.329739398E0,4.644152641E0,-4.550180435E0,1.072243214E1
1.349934710E0,4.545990467E0,-4.538209438E0,1.062666416E1
1.370130231E0,4.464587688E0,-4.516661644E0,1.037766743E1
1.390325127E0,4.407126904E0,-4.411316395E0,1.013106441E1
1.410513460E0,4.292205334E0,-4.145560265E0,9.951498985E0
1.430696377E0,4.335300922E0,-3.805583715E0,9.707290649E0
1.450879710E0,4.028842926E0,-3.171120167E0,9.082404137E0
1.471063668E0,3.011307240E0,-2.618059635E0,8.040925980E0
1.491248356E0,2.137423515E0,-2.529474020E0,7.930793285E0
1.511433877E0,2.111087322E0,-3.044227362E0,9.393650055E0
1.531620335E0,1.818994761E0,-3.946841478E0,1.032260036E1
1.551807731E0,1.804629564E0,-4.715380192E0,9.817423820E0
1.571996064E0,1.996165633E0,-5.007472992E0,8.617929459E0
1.592185335E0,2.467823505E0,-5.069722176E0,8.072051048E0
1.612375439E0,3.119046211E0,-5.639542103E0,7.660248280E0
1.632566273E0,2.958634853E0,-6.068104267E0,7.806294441E0
1.652757731E0,1.847725153E0,-6.180631638E0,7.471106529E0
1.672949710E0,7.942764163E-1,-5.615600109E0,6.487089634E0
1.693142002E0,5.404910445E-1,-5.464765549E0,6.180631638E0
1.713334398E0,1.002571940E0,-5.747281075E0,6.839036942E0
1.733537627E0,1.718438268E0,-5.969942093E0,7.200561523E0
1.753716064E0,2.226009130E0,-6.561309814E0,7.602787495E0
1.773894814E0,2.561197281E0,-6.669048786E0,8.359354973E0
1.794074293E0,2.692878246E0,-6.542156219E0,9.633070946E0
1.814254814E0,2.719214678E0,-5.742492676E0,9.803058624E0
1.834436689E0,3.279457808E0,-4.444835663E0,8.720879555E0
1.854620127E0,5.345654011E0,-2.778470993E0,8.289923668E0
1.874805231E0,5.649717331E0,-3.374627352E0,9.132682800E0
1.894992106E0,2.460640907E0,-3.985148668E0,9.908403397E0
1.915180752E0,-1.987785935E0,-3.520673513E0,8.905233383E0
1.935371064E0,-5.600636482E0,-4.610035419E0,7.801506042E0
1.955562835E0,-6.895899296E0,-3.120841980E0,6.925228596E0
1.975755856E0,-3.869628429E0,-3.058592558E0,7.595604897E0
1.995949918E0,-2.038064241E0,-2.553416014E0,8.943540573E0
2.016144814E0,-1.702875972E0,-2.572569609E0,8.663418770E0
2.036340231E0,-7.523778677E-1,-2.819172382E0,8.507795334E0
2.056535856E0,1.479018092E0,-3.271676540E0,9.376891136E0
2.076730335E0,3.408744574E0,-3.922899485E0,1.031302357E1
2.096918773E0,4.648941040E0,-4.195838451E0,1.090439129E1
2.117101793E0,4.991312027E0,-4.068945885E0,1.045667553E1
2.137285231E0,3.880402327E0,-3.774458885E0,9.360131264E0
2.157469189E0,2.008136749E0,-3.489548922E0,8.404845238E0
2.177653877E0,9.283517003E-1,-3.240551949E0,7.629123688E0
2.197839398E0,4.710591733E-1,-2.819172382E0,7.334636688E0
2.218025856E0,6.578069329E-1,-2.424129248E0,7.485471725E0
2.238213252E0,2.498948097E0,-2.373851061E0,8.220491409E0
2.258401585E0,4.931457043E0,-2.754528999E0,8.503006935E0
2.278590856E0,6.763021469E0,-3.400963545E0,8.692149162E0
2.298780960E0,6.533177853E0,-3.470395327E0,8.462306023E0
2.318971793E0,6.288969517E0,-3.549403906E0,8.435969353E0
2.339163252E0,6.614580631E0,-3.860650301E0,9.712079048E0
2.359355231E0,5.776610374E0,-4.131195068E0,1.056680965E1
2.379547523E0,4.464587688E0,-4.174290657E0,9.985017776E0
2.399739918E0,3.585915565E0,-4.004302502E0,8.898050308E0
2.419943148E0,3.277063608E0,-3.942053080E0,8.273163795E0
2.440121585E0,3.502118587E0,-3.942053080E0,7.928399086E0
2.460300335E0,3.566761971E0,-4.205415249E0,7.621941090E0
2.480479814E0,3.545214176E0,-4.375403404E0,7.250839710E0
2.500660335E0,3.703231573E0,-4.260481834E0,6.470330238E0
2.520842210E0,3.801393747E0,-3.831919909E0,5.345055103E0
2.541025648E0,3.834912539E0,-2.823961020E0,4.552574635E0
2.561210752E0,4.172494888E0,-3.139995575E0,3.365050554E0
2.581397627E0,4.545990467E0,-3.132812977E0,2.567781210E0
2.601586273E0,4.852448463E0,-2.807201385E0,2.730587006E0
2.621776585E0,5.944204330E0,-3.089717388E0,3.587711334E0
2.641968356E0,6.942586422E0,-3.477577925E0,4.435258865E0
2.662161481E0,7.574655533E0,-3.855861902E0,4.854243755E0
2.682355648E0,8.177994728E0,-4.076128483E0,5.194220543E0
2.702550648E0,9.011177063E0,-4.942829609E0,5.402516365E0
2.722746168E0,9.499593735E0,-4.961983204E0,5.244498730E0
2.742941898E0,9.528324127E0,-4.791994572E0,5.117606163E0
2.763136064E0,9.808445930E0,-4.741716385E0,5.158307552E0
2.783324398E0,9.604938507E0,-4.765658379E0,5.017049789E0
2.803507314E0,9.025542259E0,-6.020220280E0,3.360262156E0
2.823690648E0,8.115745544E0,-5.732915878E0,3.209427357E0
2.843874606E0,7.311293602E0,-5.519832134E0,3.863044500E0
2.864059293E0,7.498041153E0,-5.610811710E0,4.131195068E0
2.884244814E0,7.706336498E0,-5.177461147E0,3.968389273E0
2.904431273E0,7.924209118E0,-6.036979675E0,1.727416515E0
2.924618668E0,8.139687538E0,-5.210979939E0,1.092953086E0
2.944807002E0,8.671199799E0,-3.939658880E0,6.404489279E-1
2.964996273E0,9.841964722E0,-3.942053080E0,7.146692276E-1
2.985186377E0,1.055064869E1,-3.427299738E0,9.900023937E-1
3.005377210E0,1.067993546E1,-2.962824583E0,5.135562420E-1
3.025568668E0,9.858723640E0,-2.742558002E0,1.315613866E0
3.045760648E0,8.687959671E0,-2.539050817E0,3.022679567E0
3.065952939E0,7.933785915E0,-2.476801634E0,4.171896458E0
3.086145439E0,7.768586159E0,-2.579752445E0,5.206191540E0
3.106348773E0,7.744644165E0,-2.455253839E0,5.596446514E0
3.126527418E0,7.725490570E0,-2.189497471E0,5.141548157E0
3.146706377E0,7.500435352E0,-1.842338204E0,4.758475780E0
3.166886064E0,7.416638374E0,-1.600523829E0,4.593276024E0
3.187066793E0,7.957727909E0,-1.361103654E0,5.187037945E0
3.207248773E0,8.403049469E0,-1.341950059E0,5.658695698E0
3.227432210E0,8.340800285E0,-1.466448545E0,5.991489887E0
3.247617314E0,8.199542046E0,-1.416170359E0,6.082469463E0
3.267804085E0,8.204330444E0,-1.344344258E0,5.335478306E0
3.287992523E0,8.324040413E0,-1.071405292E0,4.794388771E0
3.308182627E0,8.850765228E0,-1.035492182E0,4.176684856E0
3.328374189E0,9.185953140E0,-1.234210968E0,3.195062160E0
3.348567106E0,9.535507202E0,-9.181763530E-1,2.433706045E0
3.368761064E0,9.767744064E0,-8.248024583E-1,1.164779186E0
3.388955856E0,9.918579102E0,-7.721300721E-1,1.009155989E0
3.409151168E0,4.122216702E0,-5.127182961E0,1.636436820E0
3.429346689E0,6.169259071E0,-1.660378933E0,2.670732021E0
3.449542106E0,1.218349361E1,-1.411381960E0,5.255272985E-1
3.469730543E0,1.079485703E1,-1.114500880E0,1.133654475E0
3.489913564E0,9.853935242E0,-1.418564558E0,3.396175146E0
3.510097002E0,9.418190956E0,-2.388216257E0,5.998672485E0
3.530280960E0,8.929773331E0,-2.665943623E0,8.435969353E0
3.550465648E0,8.628104210E0,-2.371456861E0,9.185355186E0
3.570651168E0,8.110957146E0,-2.069787264E0,8.974664688E0
3.590837627E0,7.620145321E0,-2.366668463E0,8.706514359E0
3.611025023E0,7.277774811E0,-2.551021814E0,8.692149162E0
3.631213356E0,6.925827026E0,-2.732981205E0,8.570044518E0
3.651402627E0,6.320094109E0,-2.776076794E0,8.122329712E0
3.671592731E0,5.812523365E0,-2.469619036E0,7.281964302E0
3.691782186E0,5.640140533E0,-2.134430885E0,6.008249283E0
3.711973645E0,5.884349346E0,-2.067393064E0,4.744110584E0
3.732165624E0,7.409455776E0,-1.997961283E0,1.083376288E0
3.752357915E0,9.621698380E0,-1.195903778E0,-2.936488390E0
3.772550415E0,1.070387745E1,-2.256535053E0,1.349132657E0
3.792753749E0,1.033516979E1,-4.052186489E0,5.390544891E0
3.812932395E0,7.605780125E0,-3.535038710E0,6.872556210E0
3.833111353E0,5.352836609E0,-1.921346903E0,7.542932510E0
3.853291040E0,6.341641903E0,-8.415619135E-1,7.272387505E0
3.873471770E0,1.128806210E1,-7.888894677E-1,6.209362030E0
3.893653749E0,1.392647266E1,-4.177882075E-1,5.079298973E0
3.913837186E0,1.213082123E1,2.190694511E-1,3.913322687E0
3.934022290E0,1.012687492E1,6.093243361E-1,2.579752445E0
3.954209061E0,8.570643425E0,1.176750183E0,1.598129630E0
3.974397499E0,7.431003571E0,1.859097600E0,-2.992752194E-2
3.994587603E0,7.943362713E0,1.875856996E0,3.459621370E-1
4.014779270E0,1.011729813E1,8.726865053E-1,2.108094692E0
4.034972290E0,1.086189461E1,6.452373862E-1,2.970007181E0
4.055166353E0,9.966463089E0,1.112106681E0,1.681926727E0
4.075361249E0,9.628880501E0,1.248576164E0,-6.105214357E-2
4.095556665E0,8.525154114E0,1.363497853E0,-1.361103654E0
4.115752290E0,8.077438354E0,5.686228871E-1,-1.756146908E0
4.135947290E0,8.242637634E0,-8.583213091E-1,-1.837549806E0
4.156135728E0,9.123703957E0,-2.088941097E0,-1.430535555E0
4.176318749E0,9.331999779E0,-2.117671490E0,-1.921346903E0
4.196502186E0,9.399037361E0,-7.601590157E-1,-1.756146908E0
4.216686145E0,9.698312759E0,-3.866635859E-1,-2.424129248E0
4.236870832E0,1.046206284E1,9.301473498E-1,-3.128024578E0
4.257056353E0,1.203026485E1,1.516726732E0,-3.377021551E0
4.277242811E0,1.137904167E1,1.696291924E0,-3.860650301E0
4.297430207E0,1.124975491E1,-4.189852998E-2,-2.879027605E0
4.317618540E0,9.142857552E0,-4.704606235E-1,-1.001973391E0
4.337807811E0,6.992864609E0,-9.253589511E-1,-1.663970202E-1
4.357997915E0,7.636904716E0,-7.074866295E-1,-2.035071515E-2
4.378188749E0,8.664017677E0,-6.643909812E-1,-2.376245260E0
4.398380207E0,9.758167267E0,2.813186944E-1,-3.034650564E0
4.418572186E0,9.829993248E0,9.696517140E-2,-2.871845007E0
4.438764478E0,8.829216957E0,2.885012925E-1,-2.572569609E0
4.458974530E0,9.403825760E0,1.447294950E0,-3.444059134E0
4.479139374E0,8.573038101E0,3.866635859E-1,-7.302315533E-2
4.499305572E0,8.872312546E0,3.339911401E-1,8.319851160E-1
4.519473957E0,1.093611526E1,-6.823474914E-2,-7.242460251E-1
4.539645259E0,1.002153015E1,-4.680664241E-1,-2.790441990E0
4.559820051E0,1.166874027E1,-8.726865053E-1,-1.145625472E0
4.579998749E0,1.188182449E1,-6.093243361E-1,4.201824069E-1
4.600181561E0,1.448192787E1,-1.282094955E0,-1.556231081E-2
4.620368540E0,1.298076344E1,7.386112213E-1,2.047042400E-1
4.640559582E0,1.113004494E1,1.636436820E0,-1.401805043E0
4.660754061E0,1.315075111E1,1.653196216E0,1.640028208E-1
4.680953332E0,-1.549647093E0,1.928529501E0,-4.880579948E0
4.701155415E0,3.624222755E0,-2.190694511E-1,-4.310760021E0
4.721359686E0,3.705625772E0,-5.263652325E0,-1.371757889E1
4.741565415E0,5.735908508E0,-7.926004887E0,-1.049977112E1
4.761771874E0,8.352770805E0,3.149572372E0,9.205705523E-1
4.781977811E0,1.259290218E1,8.514978409E0,1.033097982E0
4.802166353E0,1.012448025E1,5.407304764E0,5.878962040E0
4.822354790E0,9.343970299E0,-1.420958757E0,-1.727416515E0
4.842554061E0,1.390253067E1,-5.589263916E0,-1.304720211E1
4.862731770E0,1.499907494E1,-4.535815239E0,-3.183091164E0
4.882909895E0,9.305663109E0,-5.357026100E0,-6.989871979E0
4.903088749E0,4.273051262E0,-6.278793812E0,-8.790311813E0
4.923268749E0,3.930680752E0,-7.253233910E0,-2.146401882E0
4.943450207E0,8.302493095E0,-4.119224072E0,-1.559822440E0
4.963663020E0,9.746196747E0,-1.985990286E0,-1.267729759E0
4.983862603E0,1.011729813E1,-2.213439465E0,-1.291671872E0
5.004051092E0,9.904213905E0,-1.370680451E0,-2.431311846E0
5.024236822E0,7.749432564E0,-5.159504414E-1,-1.320402265E0
5.044420051E0,6.212354660E0,5.147533491E-2,-1.114500880E0
5.064603749E0,4.565144062E0,-2.286462635E-1,-1.734599113E0
5.084788072E0,4.581903458E0,-4.179079056E0,-1.404199243E0
5.104973176E0,6.025607109E0,-4.691438198E0,-1.799242616E0
5.125159165E0,4.799776077E0,-4.150348663E0,-3.858256102E0
5.145346092E0,6.288969517E0,-7.811082840E0,-4.100070477E0
5.165534009E0,1.103906536E1,-1.305917358E1,-3.187879562E0
5.185722915E0,1.002153015E1,-1.370800209E1,-1.959654093E0
5.205912707E0,8.807669640E0,-1.070806694E1,-1.636436820E0
5.226103280E0,9.679159164E0,-8.668207169E0,-2.898181200E0
5.246294530E0,7.021595001E0,-7.971494675E0,-3.563769341E0
5.266486353E0,5.130175591E0,-8.292317390E0,-3.630806923E0
5.286678592E0,4.483741283E0,-7.574057102E0,-3.080140591E0
5.306871092E0,4.208407879E0,-6.080075264E0,-2.167949677E0
5.327069113E0,6.363189697E0,-7.863755703E0,-3.317166567E0
5.347260259E0,6.631340027E0,-6.314706802E0,-2.958036184E0
5.367439270E0,4.325724125E0,-5.876567841E0,-1.253364563E0
5.387618801E0,3.099892616E0,-6.659471989E0,-4.034229815E-1
5.407799217E0,2.087145329E0,-6.408081055E0,-2.596511841E0
5.427980780E0,2.810194254E0,-7.143100739E0,-3.460818529E0
5.448163697E0,5.649717331E0,-8.740033150E0,3.818751574E-1
5.468348124E0,6.269815922E0,-9.082404137E0,1.411381960E0
5.488534165E0,5.216366768E0,-8.694543839E0,-8.918401599E-1
5.508721874E0,5.127781391E0,-8.529343605E0,-2.510320425E0
5.528911197E0,5.843647957E0,-1.019091988E1,-1.610100627E0
5.549102030E0,4.457405090E0,-1.244865131E1,-3.274070740E0
5.569294270E0,3.545214176E0,-1.194108105E1,-3.807977915E0
5.589487707E0,3.636193752E0,-1.075834560E1,-3.168725967E0
5.609682082E0,3.545214176E0,-9.795876503E0,-1.013944387E0
5.629877134E0,5.422268391E0,-6.271611214E0,-1.077390742E-2
5.650072551E0,7.421426773E0,-4.871003151E0,-2.328361034E0
5.670265363E0,8.407837868E0,-3.357867956E0,1.304839998E-1
5.690455520E0,7.117362976E0,-2.005143881E0,1.428141356E0
5.710651145E0,3.949834347E0,-2.922123194E0,2.124854088E0
5.730841665E0,1.467047095E0,-4.399345398E0,2.438494444E0
5.751021822E0,2.276287317E0,-1.149815369E1,2.519897223E0
5.771202447E0,2.046443939E0,-1.990180206E1,2.366668463E0
5.791383853E0,-4.291606545E-1,-2.068231201E1,2.358288616E-1
5.811566301E0,-3.860051632E0,-1.654513168E1,-4.164713860E0
5.831749947E0,-1.956661344E0,-1.081820011E1,-5.361814499E0
5.851934947E0,1.143231317E-1,-8.823830605E0,-5.400122166E0
5.872121405E0,2.723404467E-1,-8.517372131E0,-6.489483833E0
5.892309322E0,7.368155718E-1,-8.737639427E0,-3.886986494E0
5.912498645E0,3.082534671E-1,-9.319430351E0,-7.266402245E-1
5.932689270E0,4.878185987E-1,-9.374496460E0,8.176198602E-1
5.952900311E0,1.833359957E0,-9.173383713E0,1.502361536E0
5.973100103E0,2.640205860E0,-9.336189270E0,1.569399238E0
5.993288645E0,2.982576847E0,-9.815030098E0,4.776432514E-1
6.013471770E0,2.783858061E0,-1.010472870E1,-1.468842745E0
6.033655311E0,1.723226666E0,-9.949105263E0,-2.879027605E0
6.053839374E0,6.506243348E-1,-9.812635422E0,-2.558204412E0
6.074024165E0,-2.950853705E-1,-9.767146111E0,-1.543063045E0
6.094209790E0,-6.877344251E-1,-9.329007149E0,-3.962403834E-1
6.114396353E0,-5.608417392E-1,-9.185355186E0,1.783680320E-1
6.134583853E0,-1.993172914E-1,-9.463082314E0,8.978256583E-2
6.154772395E0,3.154360652E-1,-9.750386238E0,-2.693476975E-1
6.174961874E0,7.176619768E-1,-9.989806175E0,-7.026981711E-1
6.195152186E0,1.050456047E0,-1.026753426E1,-1.013944387E0
6.215343228E0,1.605910778E0,-1.047104073E1,-1.140837073E0
6.235534895E0,1.874061346E0,-9.968258858E0,-9.636662006E-1
6.255727082E0,1.893214941E0,-9.372102737E0,-9.852139950E-1
6.275919582E0,1.481412292E0,-9.477447510E0,-7.745242715E-1
6.296112290E0,8.110358119E-1,-9.688137054E0,-8.487445116E-1
6.316315832E0,5.141547918E-1,-9.759963036E0,-9.469067454E-1
6.336494895E0,5.165489912E-1,-9.822212219E0,-1.030703783E0
6.356674270E0,6.123170853E-1,-9.736021042E0,-1.073799491E0
6.376854374E0,6.745663285E-1,-9.659406662E0,-1.009155989E0
6.397035520E0,7.128735781E-1,-9.525331497E0,-1.090558887E0
6.417217915E0,7.272387743E-1,-9.434351921E0,-1.576581836E0
6.437401770E0,4.542997777E-1,-9.597157478E0,-1.631648421E0
6.457587186E0,5.069721937E-1,-9.848548889E0,-1.353921056E0
6.477774270E0,9.403226972E-1,-9.915586472E0,-9.014169574E-1
6.497963020E0,1.522113681E0,-9.793481827E0,-7.194576263E-1
6.518153332E0,2.020107746E0,-9.544485092E0,-7.386112213E-1
6.538345103E0,1.814206362E0,-9.147047997E0,-8.391677141E-1
6.558538124E0,1.536478996E0,-9.166201591E0,-1.191115379E0
6.578732186E0,9.642647505E-1,-9.331400871E0,-1.485602140E0
6.598927082E0,1.050456047E0,-9.515754700E0,-9.828197956E-1
6.619122499E0,1.213261724E0,-9.855731010E0,-4.513070285E-1
6.639318124E0,1.344942808E0,-9.874884605E0,-6.584054977E-2
6.659513124E0,1.057638645E0,-9.755174637E0,-1.903390288E-1
6.679701874E0,6.602011323E-1,-9.853337288E0,-3.938461840E-1
6.699890520E0,4.327519536E-1,-9.929951668E0,-4.704606235E-1
6.720073749E0,8.230068088E-1,-1.009275723E1,-2.813186944E-1
6.740257395E0,1.610699177E0,-1.017655468E1,-1.328781992E-1
6.760441561E0,1.002571940E0,-9.685743332E0,-7.721300721E-1
6.780626457E0,-1.568800688E0,-8.601169586E0,-4.920084476E-1
6.800812186E0,-1.073200941E0,-8.984241486E0,9.469067454E-1
6.820998853E0,2.699462473E-1,-9.712079048E0,1.250970364E0
6.841186457E0,1.459864497E0,-1.022922707E1,6.165069342E-1
6.861374999E0,1.862090349E0,-1.039921474E1,-3.531447649E-1
6.881564478E0,1.613093376E0,-1.021007347E1,-1.057040095E0
6.901754790E0,1.194108129E0,-9.817423820E0,-1.023521185E0
6.921945936E0,8.684966564E-1,-9.654618263E0,-4.752490520E-1
6.942137707E0,6.314706802E-1,-9.700108528E0,1.592144072E-1
6.962346561E0,5.261258483E-1,-9.795876503E0,3.339911401E-1
6.982528853E0,6.338648796E-1,-9.850942612E0,5.865794048E-2
7.002711457E0,8.541314602E-1,-9.831789017E0,-1.759738177E-1
7.022894582E0,9.163807034E-1,-9.822212219E0,-2.597708702E-1
7.043078436E0,7.416039705E-1,-9.769539833E0,-3.387795389E-1
7.063263228E0,4.878185987E-1,-9.736021042E0,-2.693476975E-1
7.083449061E0,5.189431906E-1,-9.702502251E0,-7.302315533E-2
7.103635988E0,6.673837304E-1,-9.659406662E0,1.041477770E-1
7.123824061E0,9.020155072E-1,-9.625887871E0,1.663970202E-1
7.144013280E0,1.249174714E0,-9.472659111E0,7.541735470E-2
7.164203592E0,1.378461599E0,-9.439140320E0,-1.256955862E-1
7.184394895E0,1.569997787E0,-9.652224541E0,-2.310404629E-1
7.204587030E0,1.402403593E0,-9.956287384E0,-2.358288616E-1
7.224779790E0,4.902127981E-1,-9.992200851E0,-7.314286232E-1
7.244972967E0,-2.400187254E-1,-9.903614998E0,-7.625532150E-1
7.265166405E0,-3.812766075E-1,-1.000895977E1,-1.807622313E-1
7.285365363E0,-2.064998895E-1,-9.750386238E0,3.699041605E-1
7.305556561E0,3.417722881E-1,-9.513360023E0,5.494692922E-1
7.325734790E0,8.110358119E-1,-9.671378136E0,4.632780254E-1
7.345913592E0,1.060032845E0,-9.704896927E0,2.645592988E-1
7.366093332E0,1.186925530E0,-9.676166534E0,8.978256583E-2
7.386274374E0,1.383249998E0,-9.726444244E0,3.591302549E-3
7.406456978E0,1.579574585E0,-9.791088104E0,-2.035071515E-2
7.426641301E0,1.605910778E0,-9.850942612E0,-3.232172132E-2
7.446827447E0,1.371279001E0,-9.810241699E0,-1.328781992E-1
7.467015467E0,1.019331336E0,-9.724050522E0,-2.023100406E-1
7.487205311E0,8.469488621E-1,-9.695320129E0,-5.386953801E-2
7.507396822E0,8.445546627E-1,-9.695320129E0,1.879448295E-1
7.527589790E0,9.235633016E-1,-9.733627319E0,3.148375154E-1
7.547784009E0,9.690531492E-1,-9.791088104E0,2.382230759E-1
7.567979217E0,9.834183455E-1,-9.752780914E0,6.823474914E-2
7.588175103E0,9.882067442E-1,-9.683348656E0,-5.147533491E-2
7.608371353E0,9.977835417E-1,-9.724050522E0,-2.274491638E-2
7.628567290E0,1.036090732E0,-9.738415718E0,1.089361757E-1
7.648759426E0,1.103128433E0,-9.676166534E0,2.525882721E-1
7.668945467E0,1.268328309E0,-9.652224541E0,3.292027414E-1
7.689129009E0,1.416768909E0,-9.654618263E0,3.411737382E-1
7.709313020E0,1.486200690E0,-9.678560257E0,2.813186944E-1
7.729497655E0,1.356913805E0,-9.719262123E0,1.304839998E-1
7.749683072E0,1.050456047E0,-9.843760490E0,-4.189852998E-2
7.769869374E0,7.248445749E-1,-9.882067680E0,-1.855506301E-1
7.790056613E0,6.218938828E-1,-9.781511307E0,-2.597708702E-1
7.810244790E0,8.277952671E-1,-9.697713852E0,-2.142810524E-1
7.830433905E0,1.100734234E0,-9.695320129E0,-1.041477770E-1
7.850623905E0,1.165377736E0,-9.721655846E0,2.992752194E-2
7.870814686E0,1.048061848E0,-9.712079048E0,1.328781992E-1
7.891006145E0,9.929951429E-1,-9.714473724E0,1.711854190E-1
7.911198176E0,1.119887829E0,-9.721655846E0,1.616086215E-1
7.931390624E0,1.253963113E0,-9.666589737E0,1.424549967E-1
7.951607395E0,1.215655923E0,-9.668983459E0,1.233013868E-1
7.971779270E0,1.095945835E0,-9.697713852E0,6.105214357E-2
7.991951770E0,1.009754539E0,-9.707290649E0,-4.908113554E-2
8.012125520E0,1.002571940E0,-9.716867447E0,-1.089361757E-1
8.032301040E0,1.038484931E0,-9.738415718E0,-8.259996027E-2
8.052478853E0,1.048061848E0,-9.719262123E0,-3.711012751E-2
8.072659270E0,1.115099430E0,-9.692925453E0,-3.950432688E-2
8.092842499E0,1.198896527E0,-9.695320129E0,-5.865794048E-2
8.113028645E0,1.249174714E0,-9.714473724E0,-7.781155407E-2
8.133217707E0,1.227626920E0,-9.709685326E0,-8.499415964E-2
8.153409582E0,1.215655923E0,-9.680954933E0,-1.161187813E-1
8.173604061E0,1.234809518E0,-9.664195061E0,-1.304839998E-1
8.193800728E0,1.203684926E0,-9.671378136E0,-1.376665980E-1
8.213999165E0,1.146224022E0,-9.678560257E0,-1.472434103E-1
8.234198957E0,1.127070427E0,-9.690531731E0,-1.328781992E-1
8.254399582E0,1.127070427E0,-9.702502251E0,-8.978256583E-2
8.274600520E0,1.112705231E0,-9.716867447E0,-4.668693244E-2
8.294799165E0,1.081580639E0,-9.692925453E0,-4.908113554E-2
8.314987915E0,1.105522633E0,-9.680954933E0,-8.978256583E-2
8.335187499E0,1.129464626E0,-9.690531731E0,-1.209071875E-1
8.355365415E0,1.134253025E0,-9.668983459E0,-1.185129806E-1
8.375543749E0,1.127070427E0,-9.707290649E0,-9.935937077E-2
8.395722915E0,1.110311031E0,-9.733627319E0,-7.541735470E-2
8.415903228E0,1.095945835E0,-9.678560257E0,-4.189852998E-2
8.436084999E0,1.122282028E0,-9.668983459E0,-3.711012751E-2
8.456268436E0,1.158195019E0,-9.671378136E0,-7.781155407E-2
8.476453645E0,1.172560334E0,-9.688137054E0,-1.376665980E-1
8.496640728E0,1.213261724E0,-9.738415718E0,-1.592144072E-1
8.516829686E0,1.227626920E0,-9.752780914E0,-1.616086215E-1
8.537020415E0,1.186925530E0,-9.731232643E0,-1.448491961E-1
8.557212811E0,1.179742932E0,-9.697713852E0,-1.304839998E-1
8.577406665E0,1.182137132E0,-9.697713852E0,-8.978256583E-2
8.597601665E0,1.131858826E0,-9.714473724E0,-3.950432688E-2
8.617797499E0,1.081580639E0,-9.692925453E0,-1.316810958E-2
8.637993853E0,1.088763237E0,-9.678560257E0,-3.950432688E-2
8.658190415E0,1.117493629E0,-9.673771858E0,-8.738835901E-2
8.678385520E0,1.119887829E0,-9.671378136E0,-1.328781992E-1
8.698574270E0,1.115099430E0,-9.683348656E0,-1.568202078E-1
8.718757603E0,1.124676228E0,-9.700108528E0,-1.640028208E-1
8.738941353E0,1.158195019E0,-9.714473724E0,-1.233013868E-1
8.759125624E0,1.165377736E0,-9.714473724E0,-6.823474914E-2
8.779310624E0,1.131858826E0,-9.697713852E0,-7.302315533E-2
8.799496457E0,1.146224022E0,-9.695320129E0,-9.696517140E-2
8.819683228E0,1.151012421E0,-9.683348656E0,-1.256955862E-1
8.839870936E0,1.127070427E0,-9.676166534E0,-1.185129806E-1
8.860059582E0,1.112705231E0,-9.724050522E0,-9.935937077E-2
8.880249165E0,1.105522633E0,-9.707290649E0,-8.499415964E-2
8.900439582E0,1.100734234E0,-9.678560257E0,-7.781155407E-2
8.920630728E0,1.122282028E0,-9.683348656E0,-6.344634295E-2
8.940822499E0,1.127070427E0,-9.666589737E0,-8.978256583E-2
8.961033645E0,1.110311031E0,-9.671378136E0,-1.328781992E-1
8.981211770E0,1.141435623E0,-9.719262123E0,-1.472434103E-1
9.001390520E0,1.158195019E0,-9.745597839E0,-1.256955862E-1
9.021570259E0,1.131858826E0,-9.714473724E0,-9.217676520E-2
9.041751301E0,1.143829823E0,-9.690531731E0,-6.823474914E-2
9.061933905E0,1.146224022E0,-9.728838921E0,-7.781155407E-2
9.082118228E0,1.117493629E0,-9.728838921E0,-7.541735470E-2
9.102304374E0,1.095945835E0,-9.716867447E0,-6.344634295E-2
9.122492395E0,1.103128433E0,-9.685743332E0,-7.302315533E-2
9.157826926E0,1.127070427E0,-9.671378136E0,-8.978256583E-2
9.159194738E0,1.117493629E0,-9.690531731E0,-7.541735470E-2
9.178800155E0,1.103128433E0,-9.709685326E0,-5.147533491E-2
9.198402863E0,1.103128433E0,-9.709685326E0,-2.753331885E-2
9.218020884E0,1.127070427E0,-9.700108528E0,-1.795651205E-2
9.237676405E0,1.160589218E0,-9.700108528E0,-2.274491638E-2
9.257389270E0,1.155800819E0,-9.714473724E0,-4.189852998E-2
9.277176197E0,1.141435623E0,-9.724050522E0,-6.584054977E-2
9.297050311E0,1.136647224E0,-9.700108528E0,-8.978256583E-2
9.317020728E0,1.151012421E0,-9.657012939E0,-8.020575345E-2
9.337092290E0,1.170166135E0,-9.690531731E0,-3.232172132E-2
9.357265676E0,1.146224022E0,-9.747992516E0,5.985504016E-3
9.377537395E0,1.103128433E0,-9.714473724E0,-8.379706182E-3
9.397900207E0,1.136647224E0,-9.676166534E0,-4.189852998E-2
9.418300207E0,1.194108129E0,-9.680954933E0,-6.105214357E-2
9.438705624E0,1.184531331E0,-9.690531731E0,-8.978256583E-2
9.459105624E0,1.155800819E0,-9.709685326E0,-1.089361757E-1
9.479502915E0,1.160589218E0,-9.728838921E0,-1.041477770E-1
9.499902915E0,1.155800819E0,-9.728838921E0,-8.020575345E-2
9.520308332E0,1.131858826E0,-9.719262123E0,-4.189852998E-2
9.540708332E0,1.117493629E0,-9.724050522E0,-4.668693244E-2
9.561105624E0,1.098340034E0,-9.724050522E0,-7.062894851E-2
9.581505624E0,1.088763237E0,-9.700108528E0,-8.020575345E-2
9.601911040E0,1.098340034E0,-9.695320129E0,-7.062894851E-2
9.622163801E0,1.112705231E0,-9.685743332E0,-6.105214357E-2
9.642352551E0,1.131858826E0,-9.671378136E0,-4.668693244E-2
9.662538592E0,1.155800819E0,-9.676166534E0,-2.753331885E-2
9.682724842E0,1.170166135E0,-9.700108528E0,-2.753331885E-2
9.702911353E0,1.184531331E0,-9.719262123E0,-6.584054977E-2
9.723098228E0,1.194108129E0,-9.719262123E0,-1.089361757E-1
9.743285520E0,1.189319730E0,-9.709685326E0,-1.185129806E-1
9.763473280E0,1.174954534E0,-9.714473724E0,-1.041477770E-1
9.783661509E0,1.165377736E0,-9.719262123E0,-7.541735470E-2
9.803850207E0,1.136647224E0,-9.700108528E0,-8.020575345E-2
9.824039374E0,1.122282028E0,-9.704896927E0,-9.457096457E-2
9.844229009E0,1.112705231E0,-9.738415718E0,-1.089361757E-1
9.864419009E0,1.074398041E0,-9.714473724E0,-1.089361757E-1
9.884609322E0,1.079186440E0,-9.680954933E0,-1.089361757E-1
9.904799895E0,1.136647224E0,-9.680954933E0,-1.089361757E-1
9.924990624E0,1.146224022E0,-9.690531731E0,-1.041477770E-1
9.945181457E0,1.127070427E0,-9.704896927E0,-8.499415964E-2
9.965377707E0,1.127070427E0,-9.733627319E0,-7.062894851E-2
9.985561613E0,1.155800819E0,-9.738415718E0,-8.978256583E-2
1.000574568E1,1.174954534E0,-9.714473724E0,-1.280897856E-1
1.002593010E1,1.170166135E0,-9.700108528E0,-1.424549967E-1
1.004611505E1,1.160589218E0,-9.704896927E0,-1.280897856E-1
1.006630062E1,1.170166135E0,-9.695320129E0,-1.137245819E-1
1.008648693E1,1.213261724E0,-9.671378136E0,-1.233013868E-1
1.010667406E1,1.246780515E0,-9.666589737E0,-1.280897856E-1
1.012686203E1,1.246780515E0,-9.676166534E0,-1.280897856E-1
1.014705083E1,1.237203717E0,-9.700108528E0,-1.376665980E-1
1.016724047E1,1.218050122E0,-9.709685326E0,-1.520318091E-1
1.018743083E1,1.203684926E0,-9.709685326E0,-1.328781992E-1
1.020762182E1,1.179742932E0,-9.700108528E0,-8.978256583E-2
1.022781333E1,1.141435623E0,-9.690531731E0,-7.541735470E-2
1.024800526E1,1.141435623E0,-9.680954933E0,-1.089361757E-1
1.026819745E1,1.170166135E0,-9.685743332E0,-1.424549967E-1
1.028838974E1,1.184531331E0,-9.676166534E0,-1.376665980E-1
1.030858187E1,1.174954534E0,-9.657012939E0,-1.185129806E-1
1.032877068E1,1.165377736E0,-9.676166534E0,-1.280897856E-1
1.034895943E1,1.165377736E0,-9.685743332E0,-1.376665980E-1
1.036914547E1,1.146224022E0,-9.647436142E0,-1.328781992E-1
1.038933172E1,1.155800819E0,-9.633070946E0,-1.233013868E-1
1.040951823E1,1.208473325E0,-9.661801338E0,-1.280897856E-1
1.042970510E1,1.222838521E0,-9.690531731E0,-1.568202078E-1
1.044989240E1,1.203684926E0,-9.719262123E0,-1.903390288E-1
1.047008016E1,1.198896527E0,-9.733627319E0,-2.382230759E-1
1.049026838E1,1.208473325E0,-9.719262123E0,-2.669534981E-1
1.051045708E1,1.227626920E0,-9.719262123E0,-2.477998734E-1
1.053064625E1,1.222838521E0,-9.724050522E0,-1.855506301E-1
1.055083583E1,1.184531331E0,-9.709685326E0,-1.376665980E-1
1.057102583E1,1.165377736E0,-9.680954933E0,-1.185129806E-1
1.059121614E1,1.184531331E0,-9.666589737E0,-1.328781992E-1
1.061140672E1,1.189319730E0,-9.676166534E0,-1.520318091E-1
1.063159745E1,1.184531331E0,-9.700108528E0,-1.759738177E-1
1.065178828E1,1.184531331E0,-9.719262123E0,-2.047042400E-1
1.067198453E1,1.189319730E0,-9.719262123E0,-2.190694511E-1
1.069216844E1,1.194108129E0,-9.714473724E0,-2.047042400E-1
1.071235250E1,1.189319730E0,-9.695320129E0,-1.759738177E-1
1.073253693E1,1.179742932E0,-9.680954933E0,-1.616086215E-1
1.075272187E1,1.179742932E0,-9.680954933E0,-1.663970202E-1
1.077290745E1,1.198896527E0,-9.695320129E0,-1.807622313E-1
1.079309375E1,1.232415318E0,-9.719262123E0,-1.807622313E-1
1.081328088E1,1.222838521E0,-9.709685326E0,-1.759738177E-1
1.083346885E1,1.189319730E0,-9.676166534E0,-1.855506301E-1
1.085365766E1,1.179742932E0,-9.695320129E0,-1.951274425E-1
1.087384729E1,1.170166135E0,-9.728838921E0,-1.807622313E-1
1.089403766E1,1.131858826E0,-9.704896927E0,-1.568202078E-1
1.091422865E1,1.107916832E0,-9.685743332E0,-1.568202078E-1
1.093442016E1,1.136647224E0,-9.676166534E0,-1.759738177E-1
1.095461208E1,1.165377736E0,-9.680954933E0,-1.951274425E-1
1.097480427E1,1.160589218E0,-9.704896927E0,-2.047042400E-1
1.099499656E1,1.155800819E0,-9.714473724E0,-2.286462635E-1
1.101518870E1,1.174954534E0,-9.714473724E0,-2.717418969E-1
1.103537745E1,1.208473325E0,-9.704896927E0,-2.765302956E-1
1.105556349E1,1.213261724E0,-9.690531731E0,-2.334346622E-1
1.107574974E1,1.194108129E0,-9.671378136E0,-1.855506301E-1
1.109593625E1,1.184531331E0,-9.657012939E0,-1.711854190E-1
1.111612312E1,1.194108129E0,-9.652224541E0,-1.903390288E-1
1.113631042E1,1.203684926E0,-9.652224541E0,-1.951274425E-1
1.115649818E1,1.198896527E0,-9.652224541E0,-1.999158412E-1
1.117668640E1,1.213261724E0,-9.657012939E0,-2.525882721E-1
1.119687510E1,1.294664621E0,-9.661801338E0,-3.339911401E-1
1.121706427E1,1.452681899E0,-9.642647743E0,-3.818751574E-1
1.124236963E1,1.629852772E0,-9.587580681E0,-2.693476975E-1
1.126238713E1,1.476623893E0,-9.640253067E0,-2.094926536E-1
1.128241786E1,1.239597917E0,-9.738415718E0,-2.525882721E-1
1.130246755E1,1.148618221E0,-9.807847023E0,-2.956839204E-1
1.132254109E1,1.196502328E0,-9.817423820E0,-3.268085420E-1
1.134264213E1,1.275510907E0,-9.726444244E0,-3.555389643E-1
1.136277307E1,1.275510907E0,-9.709685326E0,-3.004723191E-1
1.138293505E1,1.206079125E0,-9.827000618E0,-1.903390288E-1
1.140312786E1,1.043273449E0,-9.834183693E0,-1.113303825E-1
1.142335016E1,9.163807034E-1,-9.738415718E0,-5.626374111E-2
1.144359932E1,8.828618526E-1,-9.676166534E0,-5.386953801E-2
1.146389266E1,9.714473486E-1,-9.623494148E0,-1.017535701E-1
1.148420349E1,1.086369038E0,-9.618705750E0,-1.472434103E-1
1.150452620E1,1.107916832E0,-9.671378136E0,-2.070984542E-1
1.152485495E1,1.052850246E0,-9.707290649E0,-2.813186944E-1
1.154515240E1,1.016937137E0,-9.757569313E0,-3.339911401E-1
1.156537906E1,1.040879130E0,-9.786299706E0,-3.363853395E-1
1.158556510E1,1.043273449E0,-9.764751434E0,-3.363853395E-1
1.160574864E1,1.052850246E0,-9.692925453E0,-3.435679376E-1
1.162593266E1,1.076792240E0,-9.645041466E0,-3.483563364E-1
1.164611729E1,1.141435623E0,-9.604340553E0,-3.627215624E-1
1.166630271E1,1.206079125E0,-9.578003883E0,-3.962403834E-1
1.168648901E1,1.220444322E0,-9.609128952E0,-4.728548229E-1
1.170667625E1,1.241992116E0,-9.719262123E0,-5.470750928E-1
1.172686443E1,1.265934110E0,-9.776722908E0,-5.662286878E-1
1.174705354E1,1.297058821E0,-9.759963036E0,-5.039794445E-1
1.176724354E1,1.301847219E0,-9.719262123E0,-4.321534038E-1
1.178743432E1,1.268328309E0,-9.700108528E0,-3.746925592E-1
1.180762578E1,1.179742932E0,-9.697713852E0,-3.244143426E-1
1.182781781E1,1.036090732E0,-9.726444244E0,-2.789244950E-1
1.184801026E1,9.546879530E-1,-9.726444244E0,-2.382230759E-1
1.186820297E1,8.996213078E-1,-9.654618263E0,-1.975216419E-1
1.188840120E1,8.565256596E-1,-9.613917351E0,-1.304839998E-1
1.190859271E1,8.301894665E-1,-9.585186958E0,-8.020575345E-2
1.192877224E1,9.068039060E-1,-9.544485092E0,1.077390742E-2
1.194885255E1,1.045667648E0,-9.475052834E0,1.161187813E-1
1.196884198E1,1.148618221E0,-9.496601105E0,1.280897856E-1
1.198885182E1,1.268328309E0,-9.726444244E0,2.274491638E-2
1.200888838E1,1.234809518E0,-9.838972092E0,-2.549824715E-1
1.202895672E1,1.069609642E0,-9.757569313E0,-4.345476031E-1
1.204906036E1,9.570821524E-1,-9.836577415E0,-4.537012279E-1
1.206920130E1,9.091981053E-1,-9.908403397E0,-4.177882075E-1
1.208938000E1,9.068039060E-1,-9.939528465E0,-3.722983599E-1
1.210959536E1,8.661024570E-1,-9.908403397E0,-2.956839204E-1
1.212984484E1,8.230068088E-1,-9.795876503E0,-2.477998734E-1
1.215012463E1,8.158242106E-1,-9.685743332E0,-2.047042400E-1
1.217042990E1,8.230068088E-1,-9.625887871E0,-1.520318091E-1
1.219075495E1,8.397662640E-1,-9.578003883E0,-1.304839998E-1
1.221109354E1,9.139865041E-1,-9.573215485E0,-1.807622313E-1
1.223143911E1,1.122282028E0,-9.587580681E0,-2.645592988E-1
1.225175208E1,1.376067400E0,-9.695320129E0,-3.244143426E-1
1.227198578E1,1.534084797E0,-9.771934509E0,-4.010287821E-1
1.229217458E1,1.610699177E0,-9.788693428E0,-4.632780254E-1
1.231236062E1,1.608304977E0,-9.747992516E0,-4.345476031E-1
1.233254417E1,1.490989089E0,-9.783905029E0,-3.627215624E-1
1.235272818E1,1.342548609E0,-9.848548889E0,-2.813186944E-1
1.237291281E1,1.249174714E0,-9.882067680E0,-2.525882721E-1
1.239309823E1,1.153406620E0,-9.886856079E0,-2.094926536E-1
1.241328453E1,1.088763237E0,-9.860519409E0,-1.616086215E-1
1.243347177E1,1.103128433E0,-9.750386238E0,-1.089361757E-1
1.245367667E1,1.237203717E0,-9.597157478E0,-2.992752194E-2
1.247387344E1,1.457470298E0,-9.489418030E0,1.185129806E-1
1.249406219E1,1.538873196E0,-9.520543098E0,3.028665185E-1
1.251426177E1,1.416768909E0,-9.573215485E0,4.680664241E-1
1.253443969E1,8.708908558E-1,-9.573215485E0,5.063736439E-1
1.255461802E1,2.412158251E-1,-9.546878815E0,3.794809580E-1
1.257479719E1,-2.112883031E-1,-9.661801338E0,3.004723191E-1
1.259497750E1,-3.501519859E-1,-9.932345390E0,2.118868530E-1
1.261515927E1,-3.716998100E-1,-1.010712242E1,7.302315533E-2
1.263534271E1,-4.890156984E-1,-1.005205631E1,-1.089361757E-1
1.265552792E1,-5.776011348E-1,-9.896432877E0,-3.938461840E-1
1.267571500E1,-3.046621680E-1,-9.781511307E0,-7.003039718E-1
1.269590396E1,3.800795078E-1,-9.920374870E0,-8.319851160E-1
1.271609469E1,1.222838521E0,-1.004008484E1,-6.260837317E-1
1.273628708E1,1.620275974E0,-1.002571964E1,-2.765302956E-1
1.275648094E1,1.514931083E0,-9.891644478E0,-1.304839998E-1
1.277667594E1,1.194108129E0,-9.697713852E0,-7.541735470E-2
1.279687177E1,9.020155072E-1,-9.592369080E0,-2.238578647E-1
1.281706812E1,8.325836658E-1,-9.532513618E0,-4.177882075E-1
1.283726469E1,8.780734539E-1,-9.503783226E0,-4.489128292E-1
1.285745979E1,1.052850246E0,-9.491812706E0,-3.268085420E-1
1.287764854E1,1.395220995E0,-9.355342865E0,-1.496376097E-1
1.289783187E1,1.807023764E0,-9.199720383E0,-1.256955862E-1
1.291801562E1,2.123058319E0,-9.103952408E0,-3.076549172E-1
1.293819990E1,2.226009130E0,-8.996212959E0,-4.560954273E-1
1.295838490E1,1.682525277E0,-9.333795547E0,-5.614402890E-1
1.297857073E1,6.793547273E-1,-9.745597839E0,-7.984662652E-1
1.299875750E1,-2.992752008E-3,-1.004726696E1,-9.181763530E-1
1.301894521E1,-3.357867897E-1,-1.026513958E1,-7.577648163E-1
1.303913385E1,-3.525462151E-1,-1.038006115E1,-3.986345828E-1
1.305932344E1,-3.333925903E-1,-1.038963795E1,1.831564307E-1
1.307951385E1,-1.538274586E-1,-1.012148762E1,7.218518257E-1
1.309970500E1,1.358709484E-1,-9.542090416E0,9.588778019E-1
1.311989677E1,5.093663931E-1,-9.075222015E0,7.960720658E-1
1.314008906E1,1.036090732E0,-9.080010414E0,3.411737382E-1
1.316028167E1,1.541267395E0,-9.448717117E0,-3.794809580E-1
1.318047448E1,1.785475969E0,-9.961075783E0,-1.143231273E0
1.320067812E1,1.704073071E0,-1.032978344E1,-1.648407817E0
1.322085729E1,1.301847219E0,-1.041357994E1,-1.681926727E0
1.324103677E1,7.607575655E-1,-1.021725559E1,-1.318008065E0
1.326121698E1,3.010708690E-1,-9.901221275E0,-8.655039072E-1
1.328139823E1,3.052607179E-2,-9.640253067E0,-4.537012279E-1
1.330158073E1,8.978256024E-3,-9.501389503E0,-1.352723986E-1
1.332176469E1,2.005143911E-1,-9.487024307E0,5.147533491E-2
1.334195021E1,5.189431906E-1,-9.551667213E0,5.626374111E-2
1.336213740E1,7.990648150E-1,-9.652224541E0,-1.711854190E-1
1.338232625E1,9.020155072E-1,-9.736021042E0,-4.584896266E-1
1.340251666E1,8.349778652E-1,-9.743204117E0,-6.811503768E-1
1.342270854E1,7.416039705E-1,-9.755174637E0,-8.008604646E-1
1.344290166E1,7.296329737E-1,-9.728838921E0,-8.008604646E-1
1.346311713E1,7.535749674E-1,-9.704896927E0,-7.098808289E-1
1.348331094E1,7.894880176E-1,-9.750386238E0,-5.853823423E-1
1.350349698E1,7.894880176E-1,-9.752780914E0,-5.111620426E-1
1.352368052E1,7.032967210E-1,-9.745597839E0,-5.398924947E-1
1.354386453E1,6.242880821E-1,-9.721655846E0,-6.117185354E-1
1.356404916E1,5.979518890E-1,-9.724050522E0,-6.500257850E-1
1.358423458E1,5.692214370E-1,-9.721655846E0,-6.619967818E-1
1.360442088E1,5.357026458E-1,-9.733627319E0,-6.715735793E-1
1.362460812E1,4.950011969E-1,-9.759963036E0,-7.266402245E-1
1.364479630E1,5.021837950E-1,-9.781511307E0,-7.984662652E-1
1.366498542E1,6.075286865E-1,-9.750386238E0,-8.271966577E-1
1.368517542E1,7.655459642E-1,-9.726444244E0,-7.745242715E-1
1.370536620E1,8.900445104E-1,-9.716867447E0,-6.189011335E-1
1.372555766E1,8.804676533E-1,-9.695320129E0,-5.159504414E-1
1.374574969E1,7.703344226E-1,-9.673771858E0,-4.872200489E-1
1.376594213E1,6.649895310E-1,-9.747992516E0,-5.303156972E-1
1.378613484E1,5.620388389E-1,-9.781511307E0,-5.949591398E-1
1.380633307E1,4.519055784E-1,-9.791088104E0,-6.667851806E-1
1.382652437E1,3.872621357E-1,-9.800664902E0,-7.410054207E-1
1.384670349E1,3.633201122E-1,-9.819818497E0,-7.721300721E-1
1.386688312E1,3.417722881E-1,-9.807847023E0,-7.601590157E-1
1.388706365E1,3.010708690E-1,-9.738415718E0,-7.074866295E-1
1.390724531E1,2.747346461E-1,-9.692925453E0,-6.165069342E-1
1.392742833E1,3.393780887E-1,-9.661801338E0,-5.590460896E-1
1.394761292E1,4.614823759E-1,-9.613917351E0,-5.877765417E-1
1.396779916E1,6.003460884E-1,-9.573215485E0,-6.619967818E-1
1.398798708E1,7.655459642E-1,-9.589975357E0,-7.194576263E-1
1.400817666E1,8.996213078E-1,-9.714473724E0,-8.439561129E-1
1.402836781E1,9.546879530E-1,-9.853337288E0,-1.001973391E0
1.404856036E1,1.024119735E0,-9.963470459E0,-1.140837073E0
1.406875411E1,1.026513934E0,-9.996989250E0,-1.296460271E0
1.408894880E1,9.091981053E-1,-9.934740067E0,-1.351526856E0
1.410914416E1,7.248445749E-1,-9.788693428E0,-1.282094955E0
1.412933990E1,5.333084464E-1,-9.671378136E0,-1.076193690E0
1.414953562E1,3.010708690E-1,-9.534908295E0,-7.793126702E-1
1.416972781E1,3.585317135E-1,-9.491812706E0,-4.010287821E-1
1.418991385E1,6.314706802E-1,-9.539696693E0,-3.387795389E-1
1.421009740E1,7.870938182E-1,-9.623494148E0,-7.601590157E-1
1.423028141E1,6.625953317E-1,-9.757569313E0,-1.231816769E0
1.425046604E1,6.003460884E-1,-9.733627319E0,-1.351526856E0
1.427065146E1,6.913257241E-1,-9.534908295E0,-1.272518158E0
1.429083776E1,8.876502514E-1,-9.453505516E0,-1.037886381E0
1.431102500E1,1.100734234E0,-9.515754700E0,-7.218518257E-1
1.433121318E1,1.167771935E0,-9.628282547E0,-6.189011335E-1
1.435140229E1,1.136647224E0,-9.750386238E0,-7.218518257E-1
1.437159229E1,1.028908134E0,-9.788693428E0,-9.828197956E-1
1.439178307E1,8.038532138E-1,-9.783905029E0,-1.219845772E0
1.441197453E1,5.835866928E-1,-9.755174637E0,-1.248576164E0
1.443216656E1,5.309142470E-1,-9.704896927E0,-1.193509579E0
1.445238042E1,6.003460884E-1,-9.623494148E0,-1.143231273E0
1.447255854E1,7.224503756E-1,-9.563638687E0,-1.078587890E0
1.449273708E1,8.062474132E-1,-9.635464668E0,-1.073799491E0
1.451291635E1,8.852560520E-1,-9.783905029E0,-1.131260276E0
1.453312521E1,9.091981053E-1,-9.939528465E0,-1.217451572E0
1.455331833E1,9.283517003E-1,-9.987412453E0,-1.195903778E0
1.457350703E1,8.373720646E-1,-9.771934509E0,-1.131260276E0
1.459368604E1,6.793547273E-1,-9.396044731E0,-1.080982089E0
1.461386557E1,5.740098357E-1,-9.340977669E0,-1.061828494E0
1.463404599E1,6.386532784E-1,-9.657012939E0,-1.116895080E0
1.465422760E1,7.607575655E-1,-9.891644478E0,-1.181538582E0
1.467441062E1,8.804676533E-1,-9.795876503E0,-1.241393566E0
1.469459521E1,9.522937536E-1,-9.539696693E0,-1.253364563E0
1.471478146E1,9.714473486E-1,-9.398438454E0,-1.236605167E0
1.473496937E1,1.048061848E0,-9.429563522E0,-1.282094955E0
1.475515896E1,1.131858826E0,-9.539696693E0,-1.217451572E0
1.477535010E1,1.189319730E0,-9.606734276E0,-1.045069098E0
1.479554266E1,1.112705231E0,-9.817423820E0,-1.009155989E0
1.481573640E1,9.379284978E-1,-9.917980194E0,-1.037886381E0
1.483593109E1,7.200561762E-1,-9.757569313E0,-1.210268974E0
1.485612646E1,5.859808922E-1,-9.578003883E0,-1.368286252E0
1.487632219E1,6.123170853E-1,-9.522936821E0,-1.358709455E0
1.489651792E1,7.416039705E-1,-9.604340553E0,-1.286883354E0
1.491671010E1,9.163807034E-1,-9.685743332E0,-1.200692177E0
1.493689880E1,1.079186440E0,-9.678560257E0,-1.195903778E0
1.495709375E1,1.172560334E0,-9.645041466E0,-1.296460271E0
1.497727615E1,1.287482023E0,-9.630676270E0,-1.420958757E0
1.499745875E1,1.409586191E0,-9.685743332E0,-1.418564558E0
1.501764177E1,1.476623893E0,-9.712079048E0,-1.308431268E0
1.503782542E1,1.335366011E0,-9.637859344E0,-1.224634171E0
1.505800990E1,1.052850246E0,-9.503783226E0,-1.205480576E0
1.507819531E1,8.589198589E-1,-9.446322441E0,-1.255758762E0
1.509838177E1,9.139865041E-1,-9.463082314E0,-1.313219666E0
1.511856937E1,1.064821243E0,-9.573215485E0,-1.356315255E0
1.513875812E1,1.160589218E0,-9.702502251E0,-1.315613866E0
1.515894792E1,1.194108129E0,-9.664195061E0,-1.181538582E0
1.517913864E1,1.129464626E0,-9.518148422E0,-1.078587890E0
1.519933021E1,1.072003841E0,-9.482235909E0,-1.078587890E0
1.521952250E1,1.088763237E0,-9.621099472E0,-1.124077678E0
1.523971531E1,1.060032845E0,-9.762357712E0,-1.080982089E0
1.525990844E1,1.012148738E0,-9.755174637E0,-1.078587890E0
1.528010166E1,1.014542937E0,-9.728838921E0,-1.100135684E0
1.530028948E1,1.057638645E0,-9.700108528E0,-1.092953086E0
1.532047750E1,1.076792240E0,-9.678560257E0,-1.073799491E0
1.534066573E1,1.002571940E0,-9.692925453E0,-1.025915384E0
1.536085417E1,8.254010081E-1,-9.654618263E0,-9.732429981E-1
1.538104281E1,7.152677774E-1,-9.676166534E0,-9.947907925E-1
1.540123167E1,7.368155718E-1,-9.736021042E0,-9.612720013E-1
1.542142073E1,9.522937536E-1,-9.764751434E0,-9.014169574E-1
1.544161000E1,1.146224022E0,-9.762357712E0,-8.870517015E-1
1.546181437E1,1.031302333E0,-9.712079048E0,-9.780313969E-1
1.548198411E1,6.386532784E-1,-9.578003883E0,-9.923965931E-1
1.550215495E1,4.830302000E-1,-9.549273491E0,-9.397241473E-1
1.552232755E1,7.056909800E-1,-9.587580681E0,-1.085770488E0
1.554250250E1,1.024119735E0,-9.630676270E0,-1.320402265E0
1.556268026E1,1.201290727E0,-9.649829865E0,-1.370680451E0
1.558286114E1,1.273116708E0,-9.762357712E0,-1.255758762E0
1.560304531E1,1.246780515E0,-9.822212219E0,-1.133654475E0
1.562323281E1,1.160589218E0,-9.728838921E0,-1.140837073E0
1.564342354E1,1.131858826E0,-9.688137054E0,-1.174355984E0
1.566361729E1,1.067215443E0,-9.678560257E0,-1.164779186E0
1.568381375E1,9.522937536E-1,-9.666589737E0,-1.109712481E0
1.570401250E1,9.068039060E-1,-9.661801338E0,-9.923965931E-1
1.572421307E1,7.966706157E-1,-9.604340553E0,-9.708487988E-1
1.574441490E1,6.937199235E-1,-9.589975357E0,-1.092953086E0
1.576461740E1,6.625953317E-1,-9.664195061E0,-1.143231273E0
1.578481833E1,7.152677774E-1,-9.745597839E0,-1.061828494E0
1.580501224E1,7.368155718E-1,-9.695320129E0,-9.516952038E-1
1.582520630E1,7.463923693E-1,-9.649829865E0,-8.463503122E-1
1.584539500E1,8.086416125E-1,-9.597157478E0,-8.367735147E-1
1.586557312E1,9.020155072E-1,-9.575610161E0,-9.397241473E-1
1.588575182E1,9.594763517E-1,-9.613917351E0,-1.006761789E0
1.590593146E1,9.642647505E-1,-9.649829865E0,-9.828197956E-1
1.592611240E1,1.086369038E0,-9.676166534E0,-8.942343593E-1
1.594629490E1,1.215655923E0,-9.633070946E0,-7.553706169E-1
1.596647911E1,1.007360339E0,-9.628282547E0,-7.841010690E-1
1.598666516E1,8.062474132E-1,-9.771934509E0,-8.056488633E-1
1.600685307E1,7.655459642E-1,-9.850942612E0,-7.960720658E-1
1.602704281E1,6.625953317E-1,-9.716867447E0,-7.505822182E-1
1.604723427E1,5.548562407E-1,-9.592369080E0,-5.446808934E-1
1.606742729E1,5.596446395E-1,-9.630676270E0,-4.058171809E-1
1.608762161E1,6.913257241E-1,-9.728838921E0,-5.087678432E-1
1.610781693E1,8.541314602E-1,-9.786299706E0,-7.745242715E-1
1.612801292E1,9.738415480E-1,-9.803058624E0,-9.253589511E-1
1.614820927E1,1.052850246E0,-9.726444244E0,-9.085995555E-1
1.616840505E1,1.007360339E0,-9.700108528E0,-8.128314614E-1
1.618859693E1,9.666589499E-1,-9.736021042E0,-7.553706169E-1
1.620878286E1,1.052850246E0,-9.817423820E0,-8.511387110E-1
1.622896630E1,1.258751512E0,-9.812635422E0,-9.708487988E-1
1.624915021E1,1.340154409E0,-9.647436142E0,-9.900023937E-1
1.626933474E1,1.148618221E0,-9.594763756E0,-7.841010690E-1
1.628952005E1,8.373720646E-1,-9.542090416E0,-5.758054852E-1
1.630970625E1,7.392097712E-1,-9.633070946E0,-4.848258495E-1
1.632989338E1,8.038532138E-1,-9.707290649E0,-5.494692922E-1
1.635008146E1,7.679402232E-1,-9.736021042E0,-7.003039718E-1
1.637027047E1,7.296329737E-1,-9.752780914E0,-7.888894677E-1
1.639046036E1,6.386532784E-1,-9.721655846E0,-8.248024583E-1
1.641065104E1,5.404910445E-1,-9.690531731E0,-7.960720658E-1
1.643084240E1,5.117605925E-1,-9.704896927E0,-6.835445762E-1
1.645106161E1,5.165489912E-1,-9.688137054E0,-6.236895323E-1
1.647123818E1,5.404910445E-1,-9.721655846E0,-6.572083831E-1
1.649141516E1,6.003460884E-1,-9.731232643E0,-7.410054207E-1
1.651159297E1,6.961141229E-1,-9.707290649E0,-8.008604646E-1
1.653177203E1,7.679402232E-1,-9.688137054E0,-7.505822182E-1
1.655195276E1,7.583633661E-1,-9.702502251E0,-5.805938840E-1
1.657213536E1,5.476736426E-1,-9.714473724E0,-4.345476031E-1
1.659232005E1,2.196680009E-1,-9.618705750E0,-4.153940082E-1
1.661250682E1,-2.992752008E-3,-9.757569313E0,-4.872200489E-1
1.663269568E1,1.382651478E-1,-9.903614998E0,-8.463503122E-1
1.665288651E1,2.244564146E-1,-9.879673004E0,-1.315613866E0
1.667307922E1,4.399345517E-1,-9.903614998E0,-1.303642869E0
1.669327349E1,6.793547273E-1,-9.738415718E0,-9.493009448E-1
1.671346911E1,5.500678420E-1,-9.475052834E0,-7.481880188E-1
1.673366568E1,3.561375141E-1,-9.484629631E0,-6.284779310E-1
1.675386286E1,2.771288455E-1,-9.678560257E0,-5.901707411E-1
1.677406036E1,3.202244639E-1,-9.927556992E0,-6.524199843E-1
1.679425651E1,4.806360006E-1,-1.001374817E1,-7.553706169E-1
1.681444516E1,5.117605925E-1,-9.831789017E0,-8.391677141E-1
1.683464463E1,4.016273320E-1,-9.640253067E0,-8.511387110E-1
1.685482245E1,3.274070919E-1,-9.563638687E0,-7.577648163E-1
1.687500068E1,3.752911091E-1,-9.561244011E0,-6.572083831E-1
1.689517974E1,5.237316489E-1,-9.628282547E0,-6.763619781E-1
1.691535995E1,6.218938828E-1,-9.781511307E0,-8.319851160E-1
1.693554161E1,6.697779298E-1,-9.915586472E0,-1.011550188E0
1.695572495E1,6.410474777E-1,-9.915586472E0,-1.169567585E0
1.697591005E1,5.740098357E-1,-9.846154213E0,-1.270123959E0
1.699609703E1,6.123170853E-1,-9.800664902E0,-1.303642869E0
1.701628588E1,6.937199235E-1,-9.781511307E0,-1.238999367E0
1.703647651E1,6.793547273E-1,-9.843760490E0,-1.021126986E0
1.705666880E1,4.854243994E-1,-1.003050804E1,-7.601590157E-1
1.707686245E1,2.053027898E-1,-1.004247856E1,-6.189011335E-1
1.709705724E1,2.436100245E-1,-9.776722908E0,-7.146692276E-1
1.711725286E1,4.399345517E-1,-9.558850288E0,-8.535329103E-1
1.713744901E1,5.093663931E-1,-9.539696693E0,-8.248024583E-1
1.715764536E1,4.686649740E-1,-9.585186958E0,-6.619967818E-1
1.717784068E1,4.614823759E-1,-9.601945877E0,-4.728548229E-1
1.719802932E1,4.806360006E-1,-9.594763756E0,-3.315969408E-1
1.721821255E1,5.476736426E-1,-9.613917351E0,-2.693476975E-1
1.723839620E1,5.859808922E-1,-9.601945877E0,-3.100491166E-1
1.725858036E1,6.482301354E-1,-9.613917351E0,-3.914519846E-1
1.727876526E1,6.841431260E-1,-9.664195061E0,-4.967968464E-1
1.729895099E1,6.434416771E-1,-9.774328232E0,-6.189011335E-1
1.731913766E1,5.261258483E-1,-9.805453300E0,-7.721300721E-1
1.733932526E1,4.854243994E-1,-9.786299706E0,-9.229647517E-1
1.735951380E1,5.309142470E-1,-9.817423820E0,-1.006761789E0
1.737970328E1,6.242880821E-1,-9.860519409E0,-1.018732786E0
1.739989359E1,6.673837304E-1,-9.853337288E0,-9.445125461E-1
1.742008463E1,6.434416771E-1,-9.872490883E0,-8.176198602E-1
1.744027630E1,6.051344872E-1,-9.910798073E0,-6.931213737E-1
1.746048885E1,6.266822815E-1,-9.953893661E0,-6.667851806E-1
1.748066297E1,7.104793787E-1,-9.970652580E0,-7.386112213E-1
1.750083786E1,7.727286220E-1,-9.903614998E0,-8.343793154E-1
1.752101406E1,7.535749674E-1,-9.783905029E0,-8.678981066E-1
1.754119203E1,7.032967210E-1,-9.597157478E0,-7.888894677E-1
1.756137213E1,6.889315248E-1,-9.467870712E0,-6.117185354E-1
1.758155463E1,7.056909800E-1,-9.477447510E0,-3.866635859E-1
1.760173969E1,6.745663285E-1,-9.510966301E0,-2.501940727E-1
1.762192734E1,6.171054840E-1,-9.522936821E0,-2.765302956E-1
1.764211755E1,6.506243348E-1,-9.522936821E0,-3.866635859E-1
1.766231010E1,8.277952671E-1,-9.527725220E0,-4.752490520E-1
1.768250474E1,1.045667648E0,-9.503783226E0,-5.351040959E-1
1.770270115E1,1.179742932E0,-9.515754700E0,-5.805938840E-1
1.772289890E1,1.182137132E0,-9.573215485E0,-6.117185354E-1
1.774309760E1,1.079186440E0,-9.680954933E0,-7.026981711E-1
1.776329682E1,9.762357473E-1,-9.776722908E0,-8.439561129E-1
1.778349510E1,9.594763517E-1,-9.817423820E0,-8.966285586E-1
1.780368797E1,9.211691022E-1,-9.877279282E0,-8.200140595E-1
1.782388193E1,7.368155718E-1,-9.901221275E0,-7.266402245E-1
1.784407057E1,5.117605925E-1,-9.920374870E0,-6.643909812E-1
1.786424870E1,4.159925580E-1,-9.884461403E0,-6.356605291E-1
1.788442740E1,5.740098357E-1,-9.726444244E0,-6.141127348E-1
1.790460703E1,8.158242106E-1,-9.613917351E0,-6.308721304E-1
1.792478797E1,9.068039060E-1,-9.736021042E0,-7.122750282E-1
1.794497047E1,8.301894665E-1,-9.862914085E0,-7.362170219E-1
1.796515469E1,5.668272376E-1,-9.692925453E0,-5.973533392E-1
1.798534073E1,4.662707746E-1,-9.527725220E0,-3.507505357E-1
1.800552865E1,6.194996834E-1,-9.501389503E0,-3.124433160E-1
1.802571838E1,8.517372608E-1,-9.601945877E0,-3.938461840E-1
1.804590979E1,1.028908134E0,-9.783905029E0,-4.297592044E-1
1.806610266E1,1.105522633E0,-9.884461403E0,-5.087678432E-1
1.808629677E1,1.091157436E0,-9.860519409E0,-6.643909812E-1
1.810649187E1,9.858125448E-1,-9.747992516E0,-7.505822182E-1
1.812668766E1,9.211691022E-1,-9.719262123E0,-6.548141837E-1
1.814688380E1,9.642647505E-1,-9.740809441E0,-5.087678432E-1
1.816707953E1,1.014542937E0,-9.697713852E0,-4.010287821E-1
1.818727146E1,1.009754539E0,-9.642647743E0,-4.225766063E-1
1.820745740E1,9.187749028E-1,-9.661801338E0,-5.231330991E-1
1.822764083E1,7.918822169E-1,-9.740809441E0,-6.165069342E-1
1.824782474E1,7.056909800E-1,-9.788693428E0,-6.212953329E-1
1.826800927E1,6.769605279E-1,-9.755174637E0,-5.518634915E-1
1.828819458E1,6.817489266E-1,-9.678560257E0,-4.872200489E-1
1.830838078E1,7.176619768E-1,-9.601945877E0,-5.063736439E-1
1.832856792E1,8.421604633E-1,-9.623494148E0,-5.877765417E-1
1.834875599E1,1.016937137E0,-9.752780914E0,-6.548141837E-1
1.836894500E1,1.076792240E0,-9.827000618E0,-6.476315856E-1
1.838913490E1,1.004966140E0,-9.767146111E0,-5.781996846E-1
1.840932557E1,9.906009436E-1,-9.709685326E0,-5.087678432E-1
1.842951693E1,1.026513934E0,-9.704896927E0,-4.991910458E-1
1.844974052E1,1.052850246E0,-9.731232643E0,-5.422866940E-1
1.846991177E1,1.067215443E0,-9.745597839E0,-5.758054852E-1
1.849008365E1,1.045667648E0,-9.757569313E0,-6.284779310E-1
1.851025677E1,1.043273449E0,-9.745597839E0,-6.212953329E-1
1.853043177E1,9.953893423E-1,-9.783905029E0,-5.374982953E-1
1.855060906E1,8.996213078E-1,-9.783905029E0,-4.680664241E-1
1.857078906E1,8.158242106E-1,-9.714473724E0,-4.465186298E-1
1.859097198E1,8.062474132E-1,-9.611522675E0,-4.608838260E-1
1.861115792E1,8.804676533E-1,-9.539696693E0,-4.967968464E-1
1.863134687E1,9.475052953E-1,-9.570821762E0,-5.446808934E-1
1.865153875E1,9.427168965E-1,-9.700108528E0,-5.542576909E-1
1.867173323E1,8.828618526E-1,-9.747992516E0,-5.518634915E-1
1.869193000E1,9.044097066E-1,-9.692925453E0,-5.207388401E-1
1.871212864E1,9.906009436E-1,-9.649829865E0,-4.800374508E-1
1.873232865E1,1.024119735E0,-9.666589737E0,-5.207388401E-1
1.875252948E1,1.009754539E0,-9.716867447E0,-6.236895323E-1
1.877273062E1,1.007360339E0,-9.745597839E0,-6.667851806E-1
1.879292916E1,1.028908134E0,-9.716867447E0,-6.452373862E-1
1.881311771E1,1.052850246E0,-9.743204117E0,-5.877765417E-1
1.883331708E1,1.019331336E0,-9.774328232E0,-5.566518903E-1
1.885349490E1,9.666589499E-1,-9.743204117E0,-5.542576909E-1
1.887367312E1,9.570821524E-1,-9.695320129E0,-6.045359373E-1
1.889385208E1,9.762357473E-1,-9.668983459E0,-6.117185354E-1
1.891403219E1,1.014542937E0,-9.671378136E0,-5.590460896E-1
1.893421375E1,1.014542937E0,-9.692925453E0,-5.374982953E-1
1.895439698E1,9.858125448E-1,-9.695320129E0,-5.542576909E-1
1.897458198E1,9.307458997E-1,-9.678560257E0,-6.189011335E-1
1.899476885E1,9.139865041E-1,-9.714473724E0,-6.907271743E-1
1.901495760E1,9.738415480E-1,-9.752780914E0,-6.667851806E-1
1.903514812E1,9.642647505E-1,-9.721655846E0,-5.590460896E-1
1.905534031E1,8.613140583E-1,-9.702502251E0,-5.063736439E-1
1.907553396E1,8.397662640E-1,-9.661801338E0,-5.422866940E-1
1.909572875E1,8.852560520E-1,-9.604340553E0,-5.829881430E-1
1.911592437E1,9.379284978E-1,-9.623494148E0,-5.853823423E-1
1.913612052E1,9.714473486E-1,-9.783905029E0,-6.045359373E-1
1.915631687E1,1.002571940E0,-9.848548889E0,-6.189011335E-1
1.917651198E1,1.026513934E0,-9.786299706E0,-5.758054852E-1
1.919670062E1,1.014542937E0,-9.728838921E0,-5.542576909E-1
1.921688916E1,9.570821524E-1,-9.724050522E0,-5.614402890E-1
1.923707229E1,9.259575009E-1,-9.714473724E0,-5.614402890E-1
1.925725583E1,9.211691022E-1,-9.666589737E0,-5.470750928E-1
1.927743990E1,9.139865041E-1,-9.609128952E0,-5.303156972E-1
1.929762469E1,9.163807034E-1,-9.652224541E0,-5.183446407E-1
1.931781031E1,8.924387097E-1,-9.707290649E0,-4.967968464E-1
1.933799687E1,8.708908558E-1,-9.733627319E0,-4.824316502E-1
1.935818437E1,9.068039060E-1,-9.755174637E0,-5.063736439E-1
1.937837281E1,9.786299467E-1,-9.752780914E0,-5.734112859E-1
1.939856219E1,1.009754539E0,-9.728838921E0,-6.452373862E-1
1.941875240E1,9.977835417E-1,-9.724050522E0,-6.619967818E-1
1.943894333E1,9.355342984E-1,-9.726444244E0,-5.805938840E-1
1.945913490E1,8.948329091E-1,-9.695320129E0,-5.063736439E-1
1.947932698E1,9.068039060E-1,-9.704896927E0,-4.991910458E-1
1.949951937E1,9.044097066E-1,-9.716867447E0,-5.351040959E-1
1.951971198E1,9.091981053E-1,-9.724050522E0,-5.997475386E-1
1.953991542E1,9.403226972E-1,-9.724050522E0,-6.380547285E-1
1.956009469E1,9.642647505E-1,-9.728838921E0,-6.165069342E-1
1.958027427E1,9.666589499E-1,-9.709685326E0,-5.638344884E-1
1.960045448E1,9.642647505E-1,-9.707290649E0,-5.183446407E-1
1.962063562E1,9.618705511E-1,-9.709685326E0,-5.135562420E-1
1.964081802E1,9.522937536E-1,-9.716867447E0,-5.470750928E-1
1.966100187E1,9.762357473E-1,-9.721655846E0,-5.925649405E-1
1.968118729E1,9.834183455E-1,-9.700108528E0,-6.069301367E-1
1.970137437E1,9.834183455E-1,-9.716867447E0,-6.069301367E-1
1.972156302E1,9.594763517E-1,-9.709685326E0,-6.117185354E-1
1.974175323E1,9.690531492E-1,-9.657012939E0,-6.045359373E-1
1.976194490E1,9.929951429E-1,-9.671378136E0,-6.045359373E-1
1.978213781E1,1.014542937E0,-9.704896927E0,-5.997475386E-1
1.980233177E1,9.666589499E-1,-9.704896927E0,-5.829881430E-1
1.982252646E1,9.235633016E-1,-9.688137054E0,-5.638344884E-1
1.984272167E1,9.594763517E-1,-9.666589737E0,-5.351040959E-1
1.986291708E1,9.738415480E-1,-9.676166534E0,-5.111620426E-1
1.988311146E1,9.666589499E-1,-9.707290649E0,-5.542576909E-1
1.990330000E1,9.594763517E-1,-9.714473724E0,-6.452373862E-1
1.992348312E1,9.498994946E-1,-9.716867447E0,-6.715735793E-1
1.994366667E1,9.690531492E-1,-9.714473724E0,-6.428431273E-1
1.996386833E1,9.977835417E-1,-9.707290649E0,-5.925649405E-1
1.998405146E1,9.858125448E-1,-9.702502251E0,-5.710170865E-1
2.000423490E1,9.570821524E-1,-9.692925453E0,-5.590460896E-1
2.002441880E1,9.666589499E-1,-9.690531731E0,-5.781996846E-1
2.004460333E1,9.786299467E-1,-9.700108528E0,-6.117185354E-1
2.006478864E1,9.666589499E-1,-9.712079048E0,-6.045359373E-1
2.008497484E1,9.618705511E-1,-9.704896927E0,-5.853823423E-1
2.010516198E1,9.690531492E-1,-9.709685326E0,-5.542576909E-1
2.012535005E1,9.475052953E-1,-9.716867447E0,-5.351040959E-1
2.014553906E1,9.068039060E-1,-9.704896927E0,-5.446808934E-1
2.016572896E1,8.900445104E-1,-9.716867447E0,-5.781996846E-1
2.018591963E1,9.115923047E-1,-9.733627319E0,-6.045359373E-1
2.020611099E1,9.403226972E-1,-9.714473724E0,-6.093243361E-1
2.022630286E1,9.355342984E-1,-9.680954933E0,-6.093243361E-1
2.024649510E1,9.522937536E-1,-9.700108528E0,-5.997475386E-1
2.026668755E1,9.498994946E-1,-9.712079048E0,-5.662286878E-1
2.028688547E1,9.091981053E-1,-9.683348656E0,-5.135562420E-1
2.030707604E1,9.115923047E-1,-9.680954933E0,-5.303156972E-1
2.032725406E1,9.953893423E-1,-9.712079048E0,-5.853823423E-1
2.034743266E1,1.055244446E0,-9.719262123E0,-6.212953329E-1
2.036761219E1,1.052850246E0,-9.707290649E0,-6.452373862E-1
2.038779302E1,1.019331336E0,-9.697713852E0,-6.428431273E-1
2.040797542E1,9.977835417E-1,-9.688137054E0,-6.380547285E-1
2.042815953E1,9.977835417E-1,-9.683348656E0,-6.069301367E-1
2.044834547E1,9.642647505E-1,-9.704896927E0,-5.566518903E-1
2.046853328E1,8.900445104E-1,-9.740809441E0,-5.470750928E-1
2.048872292E1,8.397662640E-1,-9.740809441E0,-5.614402890E-1
2.050891422E1,8.684966564E-1,-9.743204117E0,-5.662286878E-1
2.052910703E1,9.139865041E-1,-9.771934509E0,-5.710170865E-1
2.054930114E1,9.091981053E-1,-9.769539833E0,-5.853823423E-1
2.056949625E1,8.852560520E-1,-9.726444244E0,-5.973533392E-1
2.058969203E1,9.068039060E-1,-9.714473724E0,-5.997475386E-1
2.060988818E1,9.283517003E-1,-9.707290649E0,-5.758054852E-1
2.063008385E1,9.091981053E-1,-9.678560257E0,-5.542576909E-1
2.065027568E1,9.163807034E-1,-9.657012939E0,-5.446808934E-1
2.067046151E1,9.522937536E-1,-9.654618263E0,-5.446808934E-1
2.069064484E1,9.283517003E-1,-9.666589737E0,-5.470750928E-1
2.071082865E1,8.780734539E-1,-9.714473724E0,-5.686228871E-1
2.073101307E1,8.637082577E-1,-9.764751434E0,-6.141127348E-1
2.075119828E1,8.589198589E-1,-9.747992516E0,-6.500257850E-1
2.077138437E1,8.493430614E-1,-9.712079048E0,-6.596025825E-1
2.079157141E1,8.756792545E-1,-9.740809441E0,-6.691793799E-1
2.081175937E1,8.972271085E-1,-9.757569313E0,-6.524199843E-1
2.083194828E1,9.115923047E-1,-9.728838921E0,-6.212953329E-1
2.085213807E1,9.307458997E-1,-9.683348656E0,-5.949591398E-1
2.087232864E1,9.283517003E-1,-9.692925453E0,-5.734112859E-1
2.089251990E1,9.355342984E-1,-9.716867447E0,-5.638344884E-1
2.091271172E1,9.522937536E-1,-9.726444244E0,-5.566518903E-1
2.093290396E1,9.690531492E-1,-9.736021042E0,-5.781996846E-1
2.095311708E1,9.546879530E-1,-9.709685326E0,-6.021417379E-1
2.097329208E1,9.091981053E-1,-9.690531731E0,-6.212953329E-1
2.099346760E1,8.780734539E-1,-9.690531731E0,-6.308721304E-1
2.101364406E1,8.732850552E-1,-9.721655846E0,-6.236895323E-1
2.103382198E1,9.115923047E-1,-9.757569313E0,-6.236895323E-1
2.105400166E1,9.906009436E-1,-9.788693428E0,-6.069301367E-1
2.107418344E1,1.072003841E0,-9.776722908E0,-6.165069342E-1
2.109436750E1,1.072003841E0,-9.697713852E0,-6.548141837E-1
2.111455396E1,1.076792240E0,-9.664195061E0,-6.667851806E-1
2.113474271E1,1.091157436E0,-9.654618263E0,-6.619967818E-1
2.115493375E1,1.014542937E0,-9.597157478E0,-6.380547285E-1
2.117512687E1,9.211691022E-1,-9.628282547E0,-5.877765417E-1
2.119532177E1,8.493430614E-1,-9.668983459E0,-6.476315856E-1
2.121551812E1,7.392097712E-1,-9.635464668E0,-7.673416734E-1
2.123571552E1,6.865373254E-1,-9.690531731E0,-7.769184709E-1
2.125591364E1,7.559691668E-1,-9.738415718E0,-6.380547285E-1
2.127611208E1,8.254010081E-1,-9.637859344E0,-5.183446407E-1
2.129630833E1,8.637082577E-1,-9.542090416E0,-5.063736439E-1
2.131649687E1,9.546879530E-1,-9.613917351E0,-6.284779310E-1
2.133669625E1,1.055244446E0,-9.688137054E0,-7.625532150E-1
2.135687396E1,1.131858826E0,-9.726444244E0,-7.960720658E-1
2.137705208E1,1.146224022E0,-9.714473724E0,-7.170634270E-1
2.139723094E1,1.062427044E0,-9.709685326E0,-6.236895323E-1
2.141741094E1,1.028908134E0,-9.755174637E0,-5.686228871E-1
2.143759240E1,1.014542937E0,-9.743204117E0,-5.590460896E-1
2.145777552E1,1.026513934E0,-9.683348656E0,-6.189011335E-1
2.147796042E1,1.045667648E0,-9.649829865E0,-6.619967818E-1
2.149814719E1,1.072003841E0,-9.690531731E0,-6.404489279E-1
2.151833583E1,1.040879130E0,-9.745597839E0,-5.973533392E-1
2.153852625E1,1.007360339E0,-9.736021042E0,-6.021417379E-1
2.155871833E1,1.004966140E0,-9.714473724E0,-5.781996846E-1
2.157891187E1,1.024119735E0,-9.719262123E0,-5.303156972E-1
2.159910656E1,1.036090732E0,-9.712079048E0,-5.231330991E-1
2.161930208E1,9.906009436E-1,-9.668983459E0,-5.422866940E-1
2.163949812E1,1.000177741E0,-9.680954933E0,-5.734112859E-1
2.165969437E1,1.031302333E0,-9.767146111E0,-5.973533392E-1
2.167989010E1,9.906009436E-1,-9.779116631E0,-5.877765417E-1
2.170007864E1,9.379284978E-1,-9.709685326E0,-5.614402890E-1
2.172026177E1,9.882067442E-1,-9.690531731E0,-5.781996846E-1
2.174044531E1,1.072003841E0,-9.738415718E0,-5.805938840E-1
2.176062937E1,1.052850246E0,-9.750386238E0,-5.590460896E-1
2.178081417E1,9.714473486E-1,-9.726444244E0,-5.422866940E-1
2.180099979E1,9.475052953E-1,-9.714473724E0,-5.398924947E-1
2.182118635E1,9.929951429E-1,-9.716867447E0,-5.231330991E-1
2.184137385E1,1.009754539E0,-9.724050522E0,-4.920084476E-1
2.186156229E1,9.570821524E-1,-9.721655846E0,-4.776432514E-1
2.188175167E1,8.924387097E-1,-9.709685326E0,-4.920084476E-1
2.190194187E1,8.948329091E-1,-9.661801338E0,-4.800374508E-1
2.192213281E1,9.379284978E-1,-9.657012939E0,-4.489128292E-1
2.194232437E1,9.858125448E-1,-9.680954933E0,-4.369418025E-1
2.196253328E1,9.882067442E-1,-9.719262123E0,-5.015852451E-1
2.198271385E1,1.021725535E0,-9.764751434E0,-5.566518903E-1
2.200289484E1,1.036090732E0,-9.750386238E0,-5.614402890E-1
2.202307651E1,9.762357473E-1,-9.640253067E0,-5.662286878E-1
2.204325911E1,9.307458997E-1,-9.690531731E0,-6.021417379E-1
2.206344286E1,9.546879530E-1,-9.803058624E0,-6.356605291E-1
2.208362792E1,9.858125448E-1,-9.776722908E0,-5.662286878E-1
2.210381437E1,1.019331336E0,-9.685743332E0,-4.537012279E-1
2.212400224E1,9.882067442E-1,-9.642647743E0,-4.082113802E-1
2.214419146E1,8.996213078E-1,-9.642647743E0,-4.177882075E-1
2.216438198E1,9.115923047E-1,-9.657012939E0,-4.417302012E-1
2.218457364E1,1.014542937E0,-9.745597839E0,-5.255272985E-1
2.220476630E1,1.055244446E0,-9.757569313E0,-6.572083831E-1
2.222495974E1,1.000177741E0,-9.716867447E0,-7.505822182E-1
2.224515370E1,8.996213078E-1,-9.702502251E0,-7.817068696E-1
2.226534797E1,8.517372608E-1,-9.707290649E0,-7.338228226E-1
2.228554776E1,9.403226972E-1,-9.707290649E0,-6.332663298E-1
2.230573922E1,1.081580639E0,-9.707290649E0,-5.973533392E-1
2.232591713E1,1.139041424E0,-9.709685326E0,-6.236895323E-1
2.234609562E1,1.103128433E0,-9.692925453E0,-6.284779310E-1
2.236627505E1,1.095945835E0,-9.680954933E0,-6.308721304E-1
2.238645578E1,1.103128433E0,-9.688137054E0,-6.428431273E-1
2.240663807E1,1.050456047E0,-9.683348656E0,-6.596025825E-1
2.242682208E1,9.642647505E-1,-9.697713852E0,-6.715735793E-1
2.244700792E1,8.421604633E-1,-9.733627319E0,-6.835445762E-1
2.246719562E1,7.320271730E-1,-9.721655846E0,-6.476315856E-1
2.248738516E1,6.362590790E-1,-9.721655846E0,-5.805938840E-1
2.250757641E1,7.128735781E-1,-9.726444244E0,-5.135562420E-1
2.252776922E1,8.325836658E-1,-9.700108528E0,-5.279214978E-1
2.254796333E1,8.924387097E-1,-9.695320129E0,-6.093243361E-1
2.256815844E1,9.570821524E-1,-9.759963036E0,-6.596025825E-1
2.258835422E1,9.738415480E-1,-9.786299706E0,-6.404489279E-1
2.260855036E1,9.451110959E-1,-9.724050522E0,-5.997475386E-1
2.262874630E1,9.331400990E-1,-9.621099472E0,-5.781996846E-1
2.264893833E1,1.038484931E0,-9.616311073E0,-6.021417379E-1
2.266912406E1,1.182137132E0,-9.680954933E0,-6.476315856E-1
2.268930729E1,1.287482023E0,-9.707290649E0,-7.074866295E-1
2.270949104E1,1.277905107E0,-9.685743332E0,-7.338228226E-1
2.272967547E1,1.191713929E0,-9.666589737E0,-7.003039718E-1
2.274986068E1,1.098340034E0,-9.659406662E0,-6.739677787E-1
2.277004677E1,1.105522633E0,-9.714473724E0,-6.859387755E-1
2.279023380E1,1.165377736E0,-9.755174637E0,-7.194576263E-1
2.281042177E1,1.067215443E0,-9.683348656E0,-7.290344238E-1
2.283061068E1,9.786299467E-1,-9.640253067E0,-7.457938194E-1
2.285080047E1,9.762357473E-1,-9.683348656E0,-7.290344238E-1
2.287099104E1,9.427168965E-1,-9.781511307E0,-6.883329749E-1
2.289118229E1,9.163807034E-1,-9.877279282E0,-6.308721304E-1
2.291137411E1,9.331400990E-1,-9.920374870E0,-5.566518903E-1
2.293156635E1,9.307458997E-1,-9.877279282E0,-5.135562420E-1
2.295178380E1,8.301894665E-1,-9.752780914E0,-5.710170865E-1
2.297195422E1,7.679402232E-1,-9.537302017E0,-7.649474144E-1
2.299212526E1,9.020155072E-1,-9.357737541E0,-8.559271097E-1
2.301229766E1,1.227626920E0,-9.417592049E0,-7.074866295E-1
2.303247203E1,1.493383288E0,-9.680954933E0,-5.087678432E-1
2.305264880E1,1.414374709E0,-9.709685326E0,-5.901707411E-1
2.307282838E1,1.091157436E0,-9.525331497E0,-8.439561129E-1
2.309301099E1,9.977835417E-1,-9.556455612E0,-9.445125461E-1
2.311319672E1,1.172560334E0,-9.731232643E0,-8.343793154E-1
2.313338557E1,1.232415318E0,-9.815030098E0,-8.224082589E-1
2.315357745E1,1.036090732E0,-9.752780914E0,-8.104372621E-1
2.317377203E1,7.463923693E-1,-9.733627319E0,-6.835445762E-1
2.319396901E1,6.266822815E-1,-9.661801338E0,-6.141127348E-1
2.321416797E1,6.362590790E-1,-9.601945877E0,-6.715735793E-1
2.323436838E1,7.392097712E-1,-9.661801338E0,-7.553706169E-1
2.325456974E1,8.134300113E-1,-9.707290649E0,-9.062053561E-1
2.327477151E1,8.756792545E-1,-9.625887871E0,-1.045069098E0
2.329497005E1,1.000177741E0,-9.623494148E0,-1.069011092E0
2.331515859E1,1.045667648E0,-9.738415718E0,-9.971849918E-1
2.333534703E1,9.810241461E-1,-9.771934509E0,-9.516952038E-1
2.335554630E1,9.522937536E-1,-9.740809441E0,-9.157821536E-1
2.337572401E1,1.019331336E0,-9.767146111E0,-8.128314614E-1
2.339590213E1,1.048061848E0,-9.762357712E0,-6.715735793E-1
2.341608099E1,1.012148738E0,-9.671378136E0,-5.901707411E-1
2.343626099E1,9.929951429E-1,-9.599552155E0,-5.949591398E-1
2.345644245E1,9.738415480E-1,-9.628282547E0,-6.572083831E-1
2.347662557E1,9.403226972E-1,-9.668983459E0,-7.745242715E-1
2.349681047E1,8.996213078E-1,-9.721655846E0,-8.702923059E-1
2.351699724E1,9.044097066E-1,-9.776722908E0,-8.152256608E-1
2.353718588E1,9.187749028E-1,-9.740809441E0,-6.619967818E-1
2.355737630E1,9.379284978E-1,-9.664195061E0,-5.590460896E-1
2.357756838E1,1.007360339E0,-9.635464668E0,-5.925649405E-1
2.359776193E1,1.083974838E0,-9.668983459E0,-6.404489279E-1
2.361795661E1,1.136647224E0,-9.709685326E0,-7.098808289E-1
2.363815213E1,1.086369038E0,-9.743204117E0,-7.841010690E-1
2.365834818E1,9.594763517E-1,-9.762357712E0,-7.841010690E-1
2.367854443E1,8.565256596E-1,-9.738415718E0,-7.410054207E-1
2.369873974E1,8.541314602E-1,-9.721655846E0,-6.835445762E-1
2.371892828E1,8.996213078E-1,-9.685743332E0,-6.356605291E-1
2.373911672E1,9.283517003E-1,-9.642647743E0,-6.380547285E-1
2.375929974E1,9.714473486E-1,-9.659406662E0,-6.763619781E-1
2.377948318E1,1.009754539E0,-9.685743332E0,-6.907271743E-1
2.379966724E1,9.786299467E-1,-9.731232643E0,-7.146692276E-1
2.381985203E1,8.924387097E-1,-9.719262123E0,-7.146692276E-1
2.384003766E1,8.445546627E-1,-9.704896927E0,-6.883329749E-1
2.386022422E1,9.020155072E-1,-9.683348656E0,-6.308721304E-1
2.388041172E1,1.014542937E0,-9.668983459E0,-5.758054852E-1
2.390060016E1,1.100734234E0,-9.685743332E0,-5.614402890E-1
2.392078953E1,1.110311031E0,-9.666589737E0,-6.212953329E-1
2.394097974E1,1.045667648E0,-9.613917351E0,-6.356605291E-1
2.396119318E1,9.929951429E-1,-9.652224541E0,-6.260837317E-1
2.398137536E1,9.379284978E-1,-9.805453300E0,-6.069301367E-1
2.400155786E1,8.900445104E-1,-9.872490883E0,-6.572083831E-1
2.402174088E1,8.780734539E-1,-9.803058624E0,-7.673416734E-1
2.404192463E1,9.834183455E-1,-9.721655846E0,-8.343793154E-1
2.406210927E1,1.074398041E0,-9.659406662E0,-7.936778665E-1
2.408229490E1,1.050456047E0,-9.642647743E0,-6.619967818E-1
2.410248161E1,1.012148738E0,-9.671378136E0,-5.542576909E-1
2.412266948E1,9.953893423E-1,-9.707290649E0,-5.303156972E-1
2.414285844E1,9.738415480E-1,-9.712079048E0,-5.853823423E-1
2.416304844E1,9.594763517E-1,-9.678560257E0,-6.715735793E-1
2.418323937E1,9.331400990E-1,-9.613917351E0,-6.907271743E-1
2.420343109E1,9.163807034E-1,-9.616311073E0,-6.212953329E-1
2.422362344E1,9.331400990E-1,-9.657012939E0,-5.327098966E-1
2.424381625E1,9.211691022E-1,-9.688137054E0,-5.111620426E-1
2.426400937E1,9.187749028E-1,-9.683348656E0,-6.117185354E-1
2.428420802E1,9.451110959E-1,-9.697713852E0,-7.912836671E-1
2.430439922E1,1.064821243E0,-9.779116631E0,-9.205705523E-1
2.432457771E1,1.107916832E0,-9.824606895E0,-9.038111567E-1
2.434475672E1,1.091157436E0,-9.733627319E0,-8.271966577E-1
2.436493661E1,1.024119735E0,-9.628282547E0,-7.386112213E-1
2.438511771E1,1.019331336E0,-9.628282547E0,-6.452373862E-1
2.440530026E1,1.033696532E0,-9.685743332E0,-6.117185354E-1
2.442548443E1,1.019331336E0,-9.738415718E0,-6.404489279E-1
2.444567031E1,9.906009436E-1,-9.781511307E0,-6.763619781E-1
2.446585797E1,9.498994946E-1,-9.769539833E0,-6.907271743E-1
2.448604734E1,8.661024570E-1,-9.692925453E0,-6.596025825E-1
2.450623833E1,7.846996188E-1,-9.664195061E0,-6.141127348E-1
2.452643078E1,8.445546627E-1,-9.695320129E0,-5.949591398E-1
2.454662448E1,9.163807034E-1,-9.714473724E0,-6.069301367E-1
2.456681917E1,9.379284978E-1,-9.726444244E0,-6.955155730E-1
2.458701453E1,9.906009436E-1,-9.733627319E0,-7.793126702E-1
2.460721026E1,1.083974838E0,-9.740809441E0,-7.673416734E-1
2.462740604E1,1.122282028E0,-9.728838921E0,-7.003039718E-1
2.464759812E1,1.074398041E0,-9.702502251E0,-5.853823423E-1
2.466778385E1,9.642647505E-1,-9.661801338E0,-4.896142483E-1
2.468796708E1,8.900445104E-1,-9.652224541E0,-4.776432514E-1
2.470815078E1,8.876502514E-1,-9.664195061E0,-5.829881430E-1
2.472833510E1,9.163807034E-1,-9.747992516E0,-7.194576263E-1
2.474852021E1,9.259575009E-1,-9.805453300E0,-8.080430627E-1
2.476870620E1,9.068039060E-1,-9.764751434E0,-7.912836671E-1
2.478889312E1,8.948329091E-1,-9.659406662E0,-6.859387755E-1
2.480908099E1,8.972271085E-1,-9.621099472E0,-5.710170865E-1
2.482926979E1,9.163807034E-1,-9.635464668E0,-5.087678432E-1
2.484945948E1,9.786299467E-1,-9.625887871E0,-5.159504414E-1
2.486965000E1,1.064821243E0,-9.578003883E0,-5.446808934E-1
2.488984125E1,1.196502328E0,-9.628282547E0,-5.997475386E-1
2.491003307E1,1.364096403E0,-9.702502251E0,-6.739677787E-1
2.493022531E1,1.495777488E0,-9.707290649E0,-7.146692276E-1
2.495044724E1,1.543661594E0,-9.623494148E0,-7.266402245E-1
2.497061359E1,1.502960086E0,-9.563638687E0,-7.050924301E-1
2.499078078E1,1.455076098E0,-9.618705750E0,-6.667851806E-1
2.501094963E1,1.337760210E0,-9.704896927E0,-6.308721304E-1
2.503113057E1,1.129464626E0,-9.709685326E0,-6.117185354E-1
2.505131370E1,8.708908558E-1,-9.676166534E0,-6.356605291E-1
2.507149917E1,6.985083222E-1,-9.707290649E0,-6.739677787E-1
2.509168698E1,6.649895310E-1,-9.807847023E0,-7.003039718E-1
2.511187703E1,7.416039705E-1,-9.824606895E0,-7.146692276E-1
2.513206916E1,7.918822169E-1,-9.762357712E0,-6.763619781E-1
2.515226318E1,7.535749674E-1,-9.690531731E0,-5.710170865E-1
2.517245880E1,7.679402232E-1,-9.752780914E0,-5.231330991E-1
2.519266901E1,9.115923047E-1,-9.805453300E0,-5.662286878E-1
2.521287516E1,1.040879130E0,-9.733627319E0,-6.165069342E-1
2.523306370E1,1.153406620E0,-9.645041466E0,-6.500257850E-1
2.525325213E1,1.287482023E0,-9.601945877E0,-6.500257850E-1
2.527345141E1,1.383249998E0,-9.613917351E0,-5.805938840E-1
2.529362901E1,1.321000814E0,-9.654618263E0,-5.255272985E-1
2.531380703E1,1.129464626E0,-9.716867447E0,-5.853823423E-1
2.533398588E1,8.996213078E-1,-9.807847023E0,-6.931213737E-1
2.535416588E1,7.559691668E-1,-9.795876503E0,-7.410054207E-1
2.537434734E1,7.032967210E-1,-9.700108528E0,-7.362170219E-1
2.539453047E1,7.439981699E-1,-9.654618263E0,-6.715735793E-1
2.541471536E1,8.493430614E-1,-9.637859344E0,-5.925649405E-1
2.543490213E1,1.021725535E0,-9.661801338E0,-5.662286878E-1
2.545509078E1,1.189319730E0,-9.683348656E0,-5.566518903E-1
2.547528120E1,1.261145711E0,-9.719262123E0,-5.686228871E-1
2.549547328E1,1.234809518E0,-9.747992516E0,-6.236895323E-1
2.551566682E1,1.191713929E0,-9.747992516E0,-6.428431273E-1
2.553586151E1,1.112705231E0,-9.671378136E0,-6.356605291E-1
2.555605703E1,1.062427044E0,-9.654618263E0,-6.404489279E-1
2.557625307E1,1.007360339E0,-9.712079048E0,-6.404489279E-1
2.559644932E1,9.235633016E-1,-9.779116631E0,-6.380547285E-1
2.561664443E1,8.397662640E-1,-9.774328232E0,-6.500257850E-1
2.563683286E1,8.541314602E-1,-9.716867447E0,-6.428431273E-1
2.565701588E1,9.379284978E-1,-9.657012939E0,-6.380547285E-1
2.567719932E1,9.810241461E-1,-9.645041466E0,-6.093243361E-1
2.569738328E1,1.014542937E0,-9.695320129E0,-6.069301367E-1
2.571756797E1,1.040879130E0,-9.709685326E0,-6.404489279E-1
2.573775349E1,1.093551636E0,-9.652224541E0,-6.931213737E-1
2.575793995E1,1.237203717E0,-9.642647743E0,-7.003039718E-1
2.577812734E1,1.371279001E0,-9.659406662E0,-6.931213737E-1
2.579831568E1,1.431134105E0,-9.680954933E0,-7.290344238E-1
2.581850495E1,1.414374709E0,-9.676166534E0,-7.457938194E-1
2.583869505E1,1.289876223E0,-9.668983459E0,-7.003039718E-1
2.585888588E1,1.119887829E0,-9.649829865E0,-6.332663298E-1
2.587907734E1,9.882067442E-1,-9.611522675E0,-6.308721304E-1
2.589926932E1,9.906009436E-1,-9.589975357E0,-6.859387755E-1
2.591946161E1,1.139041424E0,-9.645041466E0,-7.074866295E-1
2.593965411E1,1.268328309E0,-9.695320129E0,-6.667851806E-1
2.595985745E1,1.265934110E0,-9.697713852E0,-6.572083831E-1
2.598003661E1,1.182137132E0,-9.702502251E0,-6.739677787E-1
2.600021609E1,1.091157436E0,-9.697713852E0,-6.883329749E-1
2.602039620E1,1.081580639E0,-9.736021042E0,-7.242460251E-1
2.604057724E1,1.158195019E0,-9.764751434E0,-7.553706169E-1
2.606075953E1,1.186925530E0,-9.769539833E0,-7.529764175E-1
2.608094328E1,1.206079125E0,-9.738415718E0,-7.362170219E-1
2.610112859E1,1.232415318E0,-9.728838921E0,-6.883329749E-1
2.612131557E1,1.244386315E0,-9.685743332E0,-6.476315856E-1
2.614150422E1,1.201290727E0,-9.606734276E0,-6.500257850E-1
2.616169443E1,1.129464626E0,-9.534908295E0,-6.979097724E-1
2.618188609E1,1.155800819E0,-9.522936821E0,-7.457938194E-1
2.620207901E1,1.227626920E0,-9.599552155E0,-7.122750282E-1
2.622227297E1,1.213261724E0,-9.625887871E0,-6.500257850E-1
2.624246766E1,1.131858826E0,-9.688137054E0,-6.308721304E-1
2.626266276E1,1.079186440E0,-9.728838921E0,-6.165069342E-1
2.628285807E1,1.031302333E0,-9.740809441E0,-5.877765417E-1
2.630305172E1,9.953893423E-1,-9.757569313E0,-5.853823423E-1
2.632324016E1,8.804676533E-1,-9.740809441E0,-5.829881430E-1
2.634342318E1,8.254010081E-1,-9.676166534E0,-5.949591398E-1
2.636360661E1,8.924387097E-1,-9.654618263E0,-5.997475386E-1
2.638379057E1,1.040879130E0,-9.671378136E0,-5.853823423E-1
2.640397526E1,1.208473325E0,-9.685743332E0,-6.236895323E-1
2.642416078E1,1.352125406E0,-9.673771858E0,-6.739677787E-1
2.644434724E1,1.431134105E0,-9.645041466E0,-7.218518257E-1
2.646453463E1,1.426345706E0,-9.594763756E0,-7.888894677E-1
2.648472297E1,1.397615194E0,-9.587580681E0,-8.487445116E-1
2.650491224E1,1.423951507E0,-9.645041466E0,-8.774749041E-1
2.652512614E1,1.450287700E0,-9.700108528E0,-8.583213091E-1
2.654531161E1,1.421557307E0,-9.747992516E0,-8.104372621E-1
2.656549724E1,1.309029818E0,-9.783905029E0,-7.864952683E-1
2.658568312E1,1.177348733E0,-9.743204117E0,-7.697358727E-1
2.660586937E1,1.072003841E0,-9.688137054E0,-7.026981711E-1
2.662605604E1,9.690531492E-1,-9.657012939E0,-6.212953329E-1
2.664624318E1,9.068039060E-1,-9.676166534E0,-5.853823423E-1
2.666643083E1,9.594763517E-1,-9.697713852E0,-5.949591398E-1
2.668661901E1,1.050456047E0,-9.685743332E0,-6.332663298E-1
2.670680771E1,1.117493629E0,-9.685743332E0,-6.763619781E-1
2.672699687E1,1.093551636E0,-9.661801338E0,-7.338228226E-1
2.674718646E1,1.028908134E0,-9.609128952E0,-7.362170219E-1
2.676737640E1,1.021725535E0,-9.637859344E0,-7.170634270E-1
2.678756661E1,1.091157436E0,-9.707290649E0,-6.955155730E-1
2.680775698E1,1.170166135E0,-9.712079048E0,-6.979097724E-1
2.682794745E1,1.280299306E0,-9.731232643E0,-7.649474144E-1
2.684814338E1,1.383249998E0,-9.704896927E0,-8.200140595E-1
2.686833318E1,1.414374709E0,-9.673771858E0,-8.008604646E-1
2.688851156E1,1.359308004E0,-9.606734276E0,-7.362170219E-1
2.690869047E1,1.311424017E0,-9.570821762E0,-7.098808289E-1
2.692887026E1,1.349731207E0,-9.601945877E0,-7.290344238E-1
2.694905125E1,1.502960086E0,-9.637859344E0,-7.745242715E-1
2.696923370E1,1.603516579E0,-9.659406662E0,-7.936778665E-1
2.698941781E1,1.603516579E0,-9.657012939E0,-7.457938194E-1
2.700960370E1,1.433528304E0,-9.668983459E0,-6.596025825E-1
2.702979135E1,1.170166135E0,-9.676166534E0,-5.805938840E-1
2.704998073E1,9.714473486E-1,-9.750386238E0,-5.422866940E-1
2.707017172E1,9.091981053E-1,-9.793481827E0,-5.422866940E-1
2.709036416E1,8.972271085E-1,-9.731232643E0,-5.470750928E-1
2.711055786E1,9.115923047E-1,-9.683348656E0,-5.949591398E-1
2.713075255E1,9.475052953E-1,-9.645041466E0,-6.667851806E-1
2.715094792E1,1.012148738E0,-9.690531731E0,-6.979097724E-1
2.717114364E1,1.052850246E0,-9.690531731E0,-7.026981711E-1
2.719133937E1,1.081580639E0,-9.657012939E0,-7.505822182E-1
2.721153141E1,1.182137132E0,-9.594763756E0,-8.056488633E-1
2.723171713E1,1.347337008E0,-9.625887871E0,-7.960720658E-1
2.725190036E1,1.452681899E0,-9.621099472E0,-7.410054207E-1
2.727208406E1,1.450287700E0,-9.587580681E0,-7.817068696E-1
2.729226838E1,1.400009394E0,-9.604340553E0,-8.487445116E-1
2.731245349E1,1.361702204E0,-9.623494148E0,-8.583213091E-1
2.733263948E1,1.304241419E0,-9.654618263E0,-8.271966577E-1
2.735282641E1,1.206079125E0,-9.695320129E0,-7.960720658E-1
2.737301427E1,1.091157436E0,-9.702502251E0,-7.601590157E-1
2.739320307E1,1.062427044E0,-9.666589737E0,-7.697358727E-1
2.741339276E1,1.107916832E0,-9.661801338E0,-7.625532150E-1
2.743358323E1,1.146224022E0,-9.676166534E0,-7.673416734E-1
2.745377437E1,1.162983418E0,-9.680954933E0,-7.793126702E-1
2.747396609E1,1.218050122E0,-9.642647743E0,-7.793126702E-1
2.749415823E1,1.282693505E0,-9.647436142E0,-7.529764175E-1
2.751437916E1,1.309029818E0,-9.635464668E0,-7.338228226E-1
2.753454614E1,1.321000814E0,-9.618705750E0,-7.505822182E-1
2.755471396E1,1.297058821E0,-9.561244011E0,-7.697358727E-1
2.757488333E1,1.292270422E0,-9.503783226E0,-8.008604646E-1
2.759505500E1,1.390432596E0,-9.537302017E0,-8.343793154E-1
2.761522958E1,1.512536883E0,-9.616311073E0,-8.774749041E-1
2.763540750E1,1.560420990E0,-9.657012939E0,-8.966285586E-1
2.765558906E1,1.517325282E0,-9.649829865E0,-8.726865053E-1
2.767577437E1,1.376067400E0,-9.594763756E0,-8.487445116E-1
2.769596344E1,1.249174714E0,-9.640253067E0,-8.607155085E-1
2.771615604E1,1.182137132E0,-9.695320129E0,-8.918401599E-1
2.773635187E1,1.129464626E0,-9.692925453E0,-8.846575022E-1
2.775655052E1,1.158195019E0,-9.716867447E0,-8.367735147E-1
2.777675146E1,1.237203717E0,-9.721655846E0,-7.841010690E-1
2.779695406E1,1.206079125E0,-9.661801338E0,-7.314286232E-1
2.781715771E1,1.064821243E0,-9.568427086E0,-7.290344238E-1
2.783736177E1,9.834183455E-1,-9.513360023E0,-7.553706169E-1
2.785756083E1,1.021725535E0,-9.568427086E0,-7.625532150E-1
2.787774927E1,1.086369038E0,-9.690531731E0,-7.481880188E-1
2.789793760E1,1.107916832E0,-9.767146111E0,-7.912836671E-1
2.791813677E1,1.088763237E0,-9.736021042E0,-8.750807047E-1
2.793831448E1,1.110311031E0,-9.683348656E0,-9.157821536E-1
2.795849260E1,1.210867524E0,-9.724050522E0,-8.942343593E-1
2.797867146E1,1.309029818E0,-9.769539833E0,-8.248024583E-1
2.799885146E1,1.297058821E0,-9.757569313E0,-7.745242715E-1
2.801903292E1,1.186925530E0,-9.724050522E0,-7.386112213E-1
2.803921604E1,1.091157436E0,-9.736021042E0,-7.026981711E-1
2.805940094E1,1.028908134E0,-9.747992516E0,-6.835445762E-1
2.807958771E1,9.594763517E-1,-9.774328232E0,-5.949591398E-1
2.809977635E1,9.427168965E-1,-9.781511307E0,-4.872200489E-1
2.811996677E1,8.756792545E-1,-9.661801338E0,-5.566518903E-1
2.814015875E1,8.565256596E-1,-9.594763756E0,-7.386112213E-1
2.816035208E1,8.086416125E-1,-9.609128952E0,-8.655039072E-1
2.818054656E1,7.463923693E-1,-9.726444244E0,-7.433996201E-1
2.820074187E1,8.924387097E-1,-9.819818497E0,-6.596025825E-1
2.822093771E1,1.148618221E0,-9.759963036E0,-6.763619781E-1
2.824113375E1,1.347337008E0,-9.666589737E0,-6.979097724E-1
2.826132896E1,1.373673201E0,-9.587580681E0,-7.003039718E-1
2.828151740E1,1.218050122E0,-9.657012939E0,-7.577648163E-1
2.830170573E1,1.000177741E0,-9.771934509E0,-7.601590157E-1
2.832188864E1,8.852560520E-1,-9.755174637E0,-7.505822182E-1
2.834207198E1,9.475052953E-1,-9.668983459E0,-7.098808289E-1
2.836225594E1,1.038484931E0,-9.635464668E0,-6.284779310E-1
2.838244062E1,1.067215443E0,-9.640253067E0,-5.518634915E-1
2.840262615E1,1.024119735E0,-9.664195061E0,-5.422866940E-1
2.842281260E1,9.690531492E-1,-9.728838921E0,-5.805938840E-1
2.844300000E1,9.858125448E-1,-9.781511307E0,-7.242460251E-1
2.846318833E1,1.014542937E0,-9.786299706E0,-8.798691034E-1
2.848337760E1,1.043273449E0,-9.726444244E0,-8.942343593E-1
2.850356771E1,1.055244446E0,-9.688137054E0,-7.721300721E-1
2.852378302E1,1.134253025E0,-9.716867447E0,-5.710170865E-1
2.854396172E1,1.364096403E0,-9.625887871E0,-4.896142483E-1
2.856414094E1,1.419163108E0,-9.446322441E0,-5.398924947E-1
2.858432104E1,1.359308004E0,-9.585186958E0,-5.231330991E-1
2.860450234E1,1.297058821E0,-9.874884605E0,-3.722983599E-1
2.862468505E1,1.093551636E0,-9.908403397E0,-3.411737382E-1
2.864486932E1,7.775170207E-1,-9.810241699E0,-4.465186298E-1
2.866505526E1,4.973953962E-1,-9.752780914E0,-5.494692922E-1
2.868524286E1,4.159925580E-1,-9.743204117E0,-5.566518903E-1
2.870543213E1,5.380968451E-1,-9.702502251E0,-4.776432514E-1
2.872562297E1,7.152677774E-1,-9.671378136E0,-3.770867586E-1
2.874581521E1,8.277952671E-1,-9.671378136E0,-3.435679376E-1
2.876600865E1,8.972271085E-1,-9.668983459E0,-3.938461840E-1
2.878620302E1,9.882067442E-1,-9.678560257E0,-4.776432514E-1
2.880639807E1,1.098340034E0,-9.712079048E0,-5.542576909E-1
2.882659349E1,1.230021119E0,-9.719262123E0,-6.572083831E-1
2.884678890E1,1.361702204E0,-9.647436142E0,-7.457938194E-1
2.886698073E1,1.505354285E0,-9.592369080E0,-7.553706169E-1
2.888717448E1,1.586757183E0,-9.587580681E0,-7.026981711E-1
2.890736286E1,1.514931083E0,-9.654618263E0,-6.691793799E-1
2.892754068E1,1.356913805E0,-9.704896927E0,-7.290344238E-1
2.894771906E1,1.208473325E0,-9.700108528E0,-7.553706169E-1
2.896789838E1,1.095945835E0,-9.700108528E0,-7.673416734E-1
2.898807901E1,1.036090732E0,-9.724050522E0,-8.559271097E-1
2.900826120E1,1.024119735E0,-9.657012939E0,-9.253589511E-1
2.902844510E1,1.052850246E0,-9.649829865E0,-8.966285586E-1
2.904863083E1,1.095945835E0,-9.740809441E0,-7.912836671E-1
2.906881844E1,1.076792240E0,-9.695320129E0,-6.500257850E-1
2.908900786E1,1.093551636E0,-9.604340553E0,-5.590460896E-1
2.910919901E1,1.177348733E0,-9.625887871E0,-5.758054852E-1
2.912939172E1,1.244386315E0,-9.668983459E0,-6.572083831E-1
2.914958573E1,1.222838521E0,-9.709685326E0,-7.290344238E-1
2.916978073E1,1.184531331E0,-9.700108528E0,-7.553706169E-1
2.918997641E1,1.151012421E0,-9.690531731E0,-7.266402245E-1
2.921017245E1,1.110311031E0,-9.700108528E0,-6.715735793E-1
2.923036812E1,1.081580639E0,-9.728838921E0,-6.404489279E-1
2.925055995E1,1.064821243E0,-9.724050522E0,-6.284779310E-1
2.927074833E1,1.076792240E0,-9.678560257E0,-6.308721304E-1
2.929093396E1,1.110311031E0,-9.664195061E0,-6.428431273E-1
2.931111708E1,1.115099430E0,-9.671378136E0,-6.212953329E-1
2.933130068E1,1.057638645E0,-9.697713852E0,-6.141127348E-1
2.935148490E1,1.009754539E0,-9.707290649E0,-6.260837317E-1
2.937166990E1,1.004966140E0,-9.695320129E0,-6.404489279E-1
2.939185578E1,1.019331336E0,-9.673771858E0,-6.380547285E-1
2.941204260E1,1.031302333E0,-9.685743332E0,-6.356605291E-1
2.943223036E1,1.024119735E0,-9.719262123E0,-6.308721304E-1
2.945241906E1,9.953893423E-1,-9.697713852E0,-6.165069342E-1
2.947260870E1,1.007360339E0,-9.640253067E0,-6.260837317E-1
2.949279916E1,1.072003841E0,-9.657012939E0,-6.524199843E-1
2.951291969E1,1.141435623E0,-9.657012939E0,-6.524199843E-1
2.953297578E1,1.179742932E0,-9.652224541E0,-6.548141837E-1
2.955304594E1,1.227626920E0,-9.671378136E0,-6.596025825E-1
2.957313432E1,1.222838521E0,-9.688137054E0,-6.835445762E-1
2.959324422E1,1.165377736E0,-9.678560257E0,-7.146692276E-1
2.961337792E1,1.100734234E0,-9.668983459E0,-7.146692276E-1
2.963353666E1,1.074398041E0,-9.707290649E0,-6.643909812E-1
2.965372068E1,1.074398041E0,-9.709685326E0,-6.380547285E-1
2.967392911E1,1.064821243E0,-9.697713852E0,-6.572083831E-1
2.969416016E1,1.057638645E0,-9.697713852E0,-6.500257850E-1
2.971441120E1,1.024119735E0,-9.690531731E0,-6.069301367E-1
2.973467896E1,9.858125448E-1,-9.704896927E0,-5.877765417E-1
2.975495958E1,1.000177741E0,-9.700108528E0,-6.165069342E-1
2.977524885E1,1.045667648E0,-9.668983459E0,-6.619967818E-1
2.979554240E1,1.091157436E0,-9.676166534E0,-6.667851806E-1
2.981580906E1,1.122282028E0,-9.700108528E0,-6.524199843E-1
2.983602260E1,1.131858826E0,-9.704896927E0,-6.572083831E-1
2.985621635E1,1.146224022E0,-9.707290649E0,-6.811503768E-1
2.987640474E1,1.155800819E0,-9.704896927E0,-7.003039718E-1
2.989658255E1,1.119887829E0,-9.707290649E0,-7.026981711E-1
2.991676094E1,1.040879130E0,-9.676166534E0,-7.050924301E-1
2.993694026E1,1.000177741E0,-9.685743332E0,-7.050924301E-1
2.995712088E1,9.858125448E-1,-9.740809441E0,-6.596025825E-1
2.997730307E1,9.259575009E-1,-9.726444244E0,-6.212953329E-1
2.999748698E1,8.517372608E-1,-9.692925453E0,-6.572083831E-1
3.001768937E1,8.900445104E-1,-9.724050522E0,-7.457938194E-1
3.003790625E1,9.858125448E-1,-9.731232643E0,-7.769184709E-1
3.005809458E1,1.026513934E0,-9.738415718E0,-7.649474144E-1
3.007827750E1,1.038484931E0,-9.736021042E0,-7.625532150E-1
3.009846083E1,1.038484931E0,-9.704896927E0,-8.080430627E-1
3.011864469E1,1.100734234E0,-9.678560257E0,-8.271966577E-1
3.013882927E1,1.160589218E0,-9.671378136E0,-8.080430627E-1
3.015901469E1,1.170166135E0,-9.640253067E0,-7.553706169E-1
3.017920104E1,1.112705231E0,-9.623494148E0,-7.314286232E-1
3.019938833E1,1.079186440E0,-9.633070946E0,-7.386112213E-1
3.021957656E1,1.081580639E0,-9.647436142E0,-7.529764175E-1
3.023976573E1,1.083974838E0,-9.647436142E0,-7.577648163E-1
3.025995573E1,1.105522633E0,-9.654618263E0,-7.242460251E-1
3.028014646E1,1.112705231E0,-9.676166534E0,-6.643909812E-1
3.030033781E1,1.086369038E0,-9.659406662E0,-6.308721304E-1
3.032052969E1,1.048061848E0,-9.642647743E0,-6.596025825E-1
3.034072187E1,1.000177741E0,-9.664195061E0,-7.146692276E-1
3.036091427E1,9.882067442E-1,-9.712079048E0,-7.290344238E-1
3.038111750E1,9.762357473E-1,-9.700108528E0,-7.074866295E-1
3.040129646E1,1.000177741E0,-9.688137054E0,-7.266402245E-1
3.042147573E1,1.069609642E0,-9.740809441E0,-7.793126702E-1
3.044165573E1,1.083974838E0,-9.716867447E0,-7.721300721E-1
3.046183667E1,1.048061848E0,-9.683348656E0,-7.218518257E-1
3.048201885E1,1.038484931E0,-9.645041466E0,-6.691793799E-1
3.050220250E1,1.040879130E0,-9.657012939E0,-6.619967818E-1
3.052238771E1,1.036090732E0,-9.688137054E0,-7.242460251E-1
3.054257458E1,1.026513934E0,-9.719262123E0,-7.841010690E-1
3.056276312E1,1.048061848E0,-9.733627319E0,-8.080430627E-1
3.058295323E1,1.055244446E0,-9.685743332E0,-7.769184709E-1
3.060314479E1,1.040879130E0,-9.688137054E0,-7.410054207E-1
3.062333760E1,1.043273449E0,-9.680954933E0,-7.122750282E-1
3.064353146E1,1.048061848E0,-9.657012939E0,-6.859387755E-1
3.066372604E1,1.033696532E0,-9.664195061E0,-7.170634270E-1
3.068392104E1,1.024119735E0,-9.700108528E0,-7.817068696E-1
3.070411625E1,1.014542937E0,-9.724050522E0,-8.008604646E-1
3.072431000E1,1.009754539E0,-9.685743332E0,-7.553706169E-1
3.074449833E1,1.000177741E0,-9.647436142E0,-7.122750282E-1
3.076468125E1,1.014542937E0,-9.647436142E0,-6.907271743E-1
3.078486458E1,1.043273449E0,-9.700108528E0,-6.835445762E-1
3.080504844E1,1.064821243E0,-9.714473724E0,-6.835445762E-1
3.082523302E1,1.014542937E0,-9.704896927E0,-6.907271743E-1
3.084541844E1,9.714473486E-1,-9.668983459E0,-7.290344238E-1
3.086560479E1,9.594763517E-1,-9.654618263E0,-7.505822182E-1
3.088579208E1,1.024119735E0,-9.714473724E0,-7.553706169E-1
3.090598031E1,1.074398041E0,-9.757569313E0,-7.481880188E-1
3.092616948E1,1.036090732E0,-9.709685326E0,-7.314286232E-1
3.094635948E1,1.024119735E0,-9.649829865E0,-7.338228226E-1
3.096655021E1,1.067215443E0,-9.661801338E0,-7.242460251E-1
3.098674156E1,1.074398041E0,-9.697713852E0,-7.074866295E-1
3.100693344E1,1.038484931E0,-9.707290649E0,-7.074866295E-1
3.102713916E1,1.019331336E0,-9.719262123E0,-7.218518257E-1
3.104731932E1,1.019331336E0,-9.712079048E0,-7.410054207E-1
3.106749995E1,1.019331336E0,-9.712079048E0,-7.625532150E-1
3.108768130E1,1.036090732E0,-9.700108528E0,-7.481880188E-1
3.110786359E1,1.012148738E0,-9.704896927E0,-6.859387755E-1
3.112804703E1,9.379284978E-1,-9.719262123E0,-6.356605291E-1
3.114823177E1,9.020155072E-1,-9.714473724E0,-6.165069342E-1
3.116841792E1,9.091981053E-1,-9.690531731E0,-6.548141837E-1
3.118860552E1,9.379284978E-1,-9.661801338E0,-6.739677787E-1
3.120879453E1,9.953893423E-1,-9.659406662E0,-6.859387755E-1
3.122898484E1,1.045667648E0,-9.690531731E0,-6.931213737E-1
3.124917635E1,1.060032845E0,-9.688137054E0,-6.835445762E-1
3.126936890E1,1.033696532E0,-9.697713852E0,-6.619967818E-1
3.128956229E1,9.906009436E-1,-9.721655846E0,-6.524199843E-1
3.130975625E1,9.858125448E-1,-9.719262123E0,-6.859387755E-1
3.132995052E1,1.024119735E0,-9.707290649E0,-7.242460251E-1
3.135015031E1,1.033696532E0,-9.633070946E0,-7.050924301E-1
3.137034177E1,1.062427044E0,-9.628282547E0,-6.811503768E-1
3.139051969E1,1.076792240E0,-9.721655846E0,-6.715735793E-1
3.141069818E1,1.014542937E0,-9.779116631E0,-6.691793799E-1
3.143087760E1,9.546879530E-1,-9.743204117E0,-6.859387755E-1
3.145105828E1,9.858125448E-1,-9.676166534E0,-6.883329749E-1
3.147124047E1,1.050456047E0,-9.654618263E0,-6.452373862E-1
3.149142437E1,1.079186440E0,-9.661801338E0,-6.236895323E-1
3.151161010E1,1.033696532E0,-9.683348656E0,-6.619967818E-1
3.153179771E1,9.762357473E-1,-9.695320129E0,-7.122750282E-1
3.155198713E1,9.738415480E-1,-9.683348656E0,-7.481880188E-1
3.157217823E1,9.786299467E-1,-9.692925453E0,-7.673416734E-1
3.159237078E1,9.810241461E-1,-9.702502251E0,-7.601590157E-1
3.161256458E1,9.906009436E-1,-9.700108528E0,-7.386112213E-1
3.163275937E1,1.026513934E0,-9.680954933E0,-7.218518257E-1
3.165295484E1,1.062427044E0,-9.671378136E0,-7.433996201E-1
3.167315068E1,1.050456047E0,-9.664195061E0,-8.008604646E-1
3.169334615E1,1.031302333E0,-9.676166534E0,-8.367735147E-1
3.171353781E1,1.009754539E0,-9.695320129E0,-8.224082589E-1
3.173372344E1,1.007360339E0,-9.695320129E0,-8.128314614E-1
3.175390656E1,1.012148738E0,-9.680954933E0,-7.864952683E-1
3.177409016E1,1.012148738E0,-9.690531731E0,-7.841010690E-1
3.179427437E1,1.028908134E0,-9.690531731E0,-7.864952683E-1
3.181445937E1,1.028908134E0,-9.678560257E0,-7.817068696E-1
3.183464526E1,1.000177741E0,-9.637859344E0,-7.888894677E-1
3.185483208E1,9.882067442E-1,-9.685743332E0,-8.008604646E-1
3.187501984E1,9.882067442E-1,-9.714473724E0,-8.008604646E-1
3.189520854E1,9.570821524E-1,-9.666589737E0,-7.625532150E-1
3.191539812E1,9.475052953E-1,-9.657012939E0,-7.290344238E-1
3.193558849E1,9.858125448E-1,-9.680954933E0,-7.146692276E-1
3.195577953E1,1.016937137E0,-9.692925453E0,-7.194576263E-1
3.197597115E1,1.016937137E0,-9.719262123E0,-7.290344238E-1
3.199616318E1,9.882067442E-1,-9.731232643E0,-7.529764175E-1
3.201637740E1,9.594763517E-1,-9.702502251E0,-7.697358727E-1
3.203655073E1,9.570821524E-1,-9.700108528E0,-7.888894677E-1
3.205672458E1,9.738415480E-1,-9.707290649E0,-7.817068696E-1
3.207689958E1,9.810241461E-1,-9.707290649E0,-7.410054207E-1
3.209707614E1,9.858125448E-1,-9.692925453E0,-7.026981711E-1
3.211725469E1,9.714473486E-1,-9.683348656E0,-7.098808289E-1
3.213743552E1,9.570821524E-1,-9.692925453E0,-7.697358727E-1
3.215761885E1,9.666589499E-1,-9.721655846E0,-8.104372621E-1
3.217780479E1,9.738415480E-1,-9.740809441E0,-8.032546639E-1
3.219799333E1,9.618705511E-1,-9.731232643E0,-7.793126702E-1
3.221818437E1,9.498994946E-1,-9.704896927E0,-7.601590157E-1
3.223837771E1,9.522937536E-1,-9.709685326E0,-7.505822182E-1
3.225857302E1,9.427168965E-1,-9.714473724E0,-7.362170219E-1
3.227877000E1,9.355342984E-1,-9.719262123E0,-7.218518257E-1
3.229896823E1,8.876502514E-1,-9.676166534E0,-7.266402245E-1
3.231916719E1,8.684966564E-1,-9.666589737E0,-7.888894677E-1
3.233936646E1,8.924387097E-1,-9.728838921E0,-8.439561129E-1
3.235956354E1,8.948329091E-1,-9.726444244E0,-8.367735147E-1
3.237975187E1,8.469488621E-1,-9.680954933E0,-8.104372621E-1
3.239995104E1,8.708908558E-1,-9.659406662E0,-7.888894677E-1
3.242012844E1,9.570821524E-1,-9.657012939E0,-7.505822182E-1
3.244030625E1,1.002571940E0,-9.657012939E0,-7.146692276E-1
3.246048490E1,9.786299467E-1,-9.683348656E0,-7.122750282E-1
3.248066469E1,9.642647505E-1,-9.673771858E0,-7.338228226E-1
3.250084594E1,9.570821524E-1,-9.657012939E0,-7.553706169E-1
3.252102885E1,9.810241461E-1,-9.645041466E0,-7.601590157E-1
3.254121354E1,9.762357473E-1,-9.680954933E0,-7.242460251E-1
3.256140010E1,9.427168965E-1,-9.712079048E0,-6.907271743E-1
3.258158854E1,9.235633016E-1,-9.704896927E0,-6.883329749E-1
3.260177875E1,9.906009436E-1,-9.738415718E0,-7.003039718E-1
3.262197062E1,1.072003841E0,-9.759963036E0,-7.026981711E-1
3.264216396E1,1.115099430E0,-9.728838921E0,-7.386112213E-1
3.266235844E1,1.119887829E0,-9.666589737E0,-7.410054207E-1
3.268255375E1,1.007360339E0,-9.633070946E0,-7.433996201E-1
3.270274958E1,8.110358119E-1,-9.738415718E0,-7.577648163E-1
3.272294562E1,6.793547273E-1,-9.817423820E0,-7.625532150E-1
3.274314114E1,6.673837304E-1,-9.831789017E0,-7.912836671E-1
3.276332937E1,7.320271730E-1,-9.750386238E0,-8.415619135E-1
3.278351219E1,8.038532138E-1,-9.642647743E0,-8.774749041E-1
3.280369542E1,8.996213078E-1,-9.652224541E0,-8.942343593E-1
3.282387927E1,9.977835417E-1,-9.714473724E0,-8.678981066E-1
3.284406385E1,1.038484931E0,-9.719262123E0,-8.200140595E-1
3.286424927E1,1.002571940E0,-9.700108528E0,-8.295909166E-1
3.288443562E1,9.666589499E-1,-9.724050522E0,-8.535329103E-1
3.290462292E1,1.038484931E0,-9.692925453E0,-8.798691034E-1
3.292481114E1,1.153406620E0,-9.613917351E0,-8.798691034E-1
3.294500031E1,1.225232720E0,-9.587580681E0,-8.128314614E-1
3.296519031E1,1.237203717E0,-9.623494148E0,-7.505822182E-1
3.298538104E1,1.131858826E0,-9.657012939E0,-7.338228226E-1
3.300557240E1,9.690531492E-1,-9.630676270E0,-7.601590157E-1
3.302578182E1,8.469488621E-1,-9.530119896E0,-8.583213091E-1
3.304596083E1,8.038532138E-1,-9.453505516E0,-1.013944387E0
3.306614036E1,8.349778652E-1,-9.479841232E0,-1.157596469E0
3.308632073E1,8.517372608E-1,-9.618705750E0,-1.162384868E0
3.310650219E1,7.846996188E-1,-9.831789017E0,-9.756371975E-1
3.312668500E1,6.554127336E-1,-9.949105263E0,-6.045359373E-1
3.314686932E1,5.620388389E-1,-9.817423820E0,-2.621650994E-1
3.316705526E1,6.506243348E-1,-9.563638687E0,-9.217676520E-2
3.318724286E1,8.828618526E-1,-9.408015251E0,-1.304839998E-1
3.320743208E1,1.162983418E0,-9.475052834E0,-4.034229815E-1
3.322762281E1,1.390432596E0,-9.673771858E0,-7.218518257E-1
3.324781490E1,1.438316703E0,-9.913191795E0,-8.535329103E-1
3.326800812E1,1.251568913E0,-9.985017776E0,-7.457938194E-1
3.328820224E1,8.780734539E-1,-9.925163269E0,-5.614402890E-1
3.330839698E1,4.758476019E-1,-9.831789017E0,-4.153940082E-1
3.332859208E1,2.029085904E-1,-9.740809441E0,-3.459621370E-1
3.334878666E1,2.460042238E-1,-9.736021042E0,-3.627215624E-1
3.336897776E1,5.045779943E-1,-9.781511307E0,-4.321534038E-1
3.338917140E1,7.966706157E-1,-9.838972092E0,-5.063736439E-1
3.340935969E1,8.876502514E-1,-9.827000618E0,-5.925649405E-1
3.342953740E1,7.344213724E-1,-9.774328232E0,-7.625532150E-1
3.344971568E1,5.955576897E-1,-9.762357712E0,-9.373299479E-1
3.346989490E1,5.309142470E-1,-9.803058624E0,-9.636662006E-1
3.349007542E1,5.716156363E-1,-9.834183693E0,-8.032546639E-1
3.351025750E1,6.482301354E-1,-9.812635422E0,-6.548141837E-1
3.353044130E1,6.793547273E-1,-9.724050522E0,-6.596025825E-1
3.355062693E1,6.865373254E-1,-9.649829865E0,-7.338228226E-1
3.357081443E1,7.583633661E-1,-9.623494148E0,-7.457938194E-1
3.359100375E1,8.780734539E-1,-9.654618263E0,-6.907271743E-1
3.361119479E1,9.906009436E-1,-9.642647743E0,-6.404489279E-1
3.363138740E1,1.060032845E0,-9.652224541E0,-6.212953329E-1
3.365158130E1,1.095945835E0,-9.623494148E0,-6.380547285E-1
3.367177620E1,1.083974838E0,-9.606734276E0,-6.859387755E-1
3.369197177E1,1.055244446E0,-9.649829865E0,-7.003039718E-1
3.371216771E1,1.004966140E0,-9.661801338E0,-7.481880188E-1
3.373236323E1,9.403226972E-1,-9.625887871E0,-7.673416734E-1
3.375255490E1,9.594763517E-1,-9.592369080E0,-7.577648163E-1
3.377274318E1,1.028908134E0,-9.637859344E0,-6.619967818E-1
3.379292870E1,1.014542937E0,-9.652224541E0,-5.638344884E-1
3.381311172E1,8.780734539E-1,-9.628282547E0,-5.734112859E-1
3.383329521E1,7.942764163E-1,-9.601945877E0,-6.883329749E-1
3.385347932E1,8.110358119E-1,-9.563638687E0,-8.702923059E-1
3.387366422E1,8.996213078E-1,-9.491812706E0,-1.045069098E0
3.389385000E1,9.115923047E-1,-9.403226852E0,-1.191115379E0
3.391403672E1,8.230068088E-1,-9.340977669E0,-1.332373261E0
3.393422437E1,6.099228859E-1,-9.554061890E0,-1.248576164E0
3.395441297E1,2.890998423E-1,-1.010712242E1,-8.966285586E-1
3.397460245E1,1.550245583E-1,-1.041118622E1,-5.207388401E-1
3.399479276E1,1.885433793E-1,-1.020528507E1,-3.196259141E-1
3.401501000E1,5.524620414E-1,-9.946710587E0,-4.201824069E-1
3.403519052E1,8.014590144E-1,-9.903614998E0,-6.165069342E-1
3.405537125E1,5.285200477E-1,-9.906009674E0,-8.918401599E-1
3.407555250E1,-3.094505668E-1,-9.503783226E0,9.588778019E-1
3.409573458E1,1.251568913E0,-9.671378136E0,-2.310404629E-1
3.411591771E1,1.711255670E0,-9.731232643E0,-2.476801634E0
3.413610198E1,1.555632591E0,-9.726444244E0,-2.699462414E0
3.415628760E1,3.872621357E-1,-9.664195061E0,-1.294066072E0
3.417647458E1,-2.735375464E-1,-9.613917351E0,-3.794809580E-1
3.419666292E1,-1.586158574E-1,-9.637859344E0,2.573766708E-1
3.421685250E1,4.614823759E-1,-9.719262123E0,2.789244950E-1
3.423704323E1,8.637082577E-1,-9.800664902E0,-1.472434103E-1
3.425723500E1,9.738415480E-1,-9.908403397E0,-6.955155730E-1
3.427742760E1,8.613140583E-1,-9.829395294E0,-1.258152962E0
3.429762083E1,6.985083222E-1,-9.657012939E0,-1.447294950E0
3.431781448E1,6.985083222E-1,-9.613917351E0,-1.143231273E0
3.433800833E1,8.182184100E-1,-9.707290649E0,-4.944026470E-1
3.435821302E1,7.894880176E-1,-9.750386238E0,-5.626374111E-2
3.437839083E1,6.147112846E-1,-9.697713852E0,-1.209071875E-1
3.439856906E1,5.045779943E-1,-9.692925453E0,-3.914519846E-1
3.441874802E1,5.404910445E-1,-9.781511307E0,-5.686228871E-1
3.443892812E1,5.476736426E-1,-9.786299706E0,-6.452373862E-1
3.445910958E1,4.950011969E-1,-9.757569313E0,-5.422866940E-1
3.447929260E1,5.452794433E-1,-9.786299706E0,-3.842693865E-1
3.449947740E1,6.817489266E-1,-9.793481827E0,-3.483563364E-1
3.451966396E1,7.679402232E-1,-9.743204117E0,-3.363853395E-1
3.453985229E1,7.583633661E-1,-9.702502251E0,-3.555389643E-1
3.456004240E1,7.009025216E-1,-9.707290649E0,-4.704606235E-1
3.458023406E1,6.386532784E-1,-9.767146111E0,-6.404489279E-1
3.460042708E1,6.745663285E-1,-9.841365814E0,-6.739677787E-1
3.462062125E1,9.091981053E-1,-9.779116631E0,-4.704606235E-1
3.464081625E1,1.028908134E0,-9.611522675E0,-1.592144072E-1
3.466101177E1,9.690531492E-1,-9.570821762E0,-3.471592441E-2
3.468120750E1,8.373720646E-1,-9.621099472E0,-2.023100406E-1
3.470140281E1,7.487865686E-1,-9.707290649E0,-4.273650050E-1
3.472159104E1,8.038532138E-1,-9.762357712E0,-4.848258495E-1
3.474177385E1,8.756792545E-1,-9.757569313E0,-3.603273630E-1
3.476195708E1,8.756792545E-1,-9.692925453E0,-2.717418969E-1
3.478214083E1,8.684966564E-1,-9.697713852E0,-2.908954918E-1
3.480232531E1,8.469488621E-1,-9.745597839E0,-4.058171809E-1
3.482251062E1,8.206126094E-1,-9.807847023E0,-5.925649405E-1
3.484269687E1,8.469488621E-1,-9.850942612E0,-6.835445762E-1
3.486288406E1,9.091981053E-1,-9.831789017E0,-6.356605291E-1
3.488307219E1,8.948329091E-1,-9.712079048E0,-5.111620426E-1
3.490326125E1,8.086416125E-1,-9.649829865E0,-4.297592044E-1
3.492345114E1,7.176619768E-1,-9.714473724E0,-3.770867586E-1
3.494364177E1,6.937199235E-1,-9.743204117E0,-3.172317147E-1
3.496383302E1,7.009025216E-1,-9.700108528E0,-2.956839204E-1
3.498402479E1,7.128735781E-1,-9.649829865E0,-3.938461840E-1
3.500421687E1,7.463923693E-1,-9.642647743E0,-4.967968464E-1
3.502442521E1,7.799112201E-1,-9.692925453E0,-5.111620426E-1
3.504459260E1,8.038532138E-1,-9.738415718E0,-4.632780254E-1
3.506476120E1,8.110358119E-1,-9.747992516E0,-4.273650050E-1
3.508493172E1,8.325836658E-1,-9.728838921E0,-4.417302012E-1
3.510510479E1,8.804676533E-1,-9.745597839E0,-4.967968464E-1
3.512528094E1,9.283517003E-1,-9.781511307E0,-5.446808934E-1
3.514546052E1,9.235633016E-1,-9.800664902E0,-5.758054852E-1
3.516564375E1,8.996213078E-1,-9.747992516E0,-5.566518903E-1
3.518583068E1,8.708908558E-1,-9.680954933E0,-5.159504414E-1
3.520602120E1,8.828618526E-1,-9.712079048E0,-4.920084476E-1
3.522621510E1,8.756792545E-1,-9.755174637E0,-4.680664241E-1
3.524641203E1,8.349778652E-1,-9.695320129E0,-4.896142483E-1
3.526661151E1,8.828618526E-1,-9.645041466E0,-5.183446407E-1
3.528681297E1,9.810241461E-1,-9.690531731E0,-5.183446407E-1
3.530701578E1,1.012148738E0,-9.733627319E0,-4.920084476E-1
3.532721932E1,9.259575009E-1,-9.745597839E0,-5.135562420E-1
3.534742083E1,8.349778652E-1,-9.714473724E0,-5.542576909E-1
3.536761458E1,7.966706157E-1,-9.678560257E0,-5.374982953E-1
3.538780823E1,8.134300113E-1,-9.688137054E0,-4.848258495E-1
3.540799646E1,8.732850552E-1,-9.726444244E0,-4.776432514E-1
3.542817406E1,9.355342984E-1,-9.719262123E0,-5.207388401E-1
3.544835224E1,9.546879530E-1,-9.688137054E0,-5.590460896E-1
3.546853135E1,9.211691022E-1,-9.697713852E0,-5.590460896E-1
3.548871177E1,8.852560520E-1,-9.714473724E0,-5.398924947E-1
3.550889375E1,8.852560520E-1,-9.702502251E0,-5.566518903E-1
3.552907745E1,9.139865041E-1,-9.712079048E0,-5.901707411E-1
3.554926297E1,9.498994946E-1,-9.721655846E0,-6.236895323E-1
3.556945036E1,9.403226972E-1,-9.733627319E0,-6.356605291E-1
3.558963958E1,8.684966564E-1,-9.709685326E0,-6.236895323E-1
3.560983052E1,7.559691668E-1,-9.661801338E0,-6.069301367E-1
3.563002302E1,6.506243348E-1,-9.611522675E0,-5.781996846E-1
3.565021682E1,6.721721292E-1,-9.525331497E0,-5.255272985E-1
3.567041166E1,7.655459642E-1,-9.673771858E0,-4.872200489E-1
3.569060729E1,6.865373254E-1,-9.819818497E0,-4.824316502E-1
3.571080333E1,5.692214370E-1,-9.731232643E0,-4.106055796E-1
3.573099906E1,6.003460884E-1,-9.534908295E0,-3.387795389E-1
3.575119078E1,7.559691668E-1,-9.494206429E0,-2.932897210E-1
3.577137620E1,8.661024570E-1,-9.611522675E0,-3.076549172E-1
3.579155911E1,9.163807034E-1,-9.747992516E0,-4.058171809E-1
3.581174255E1,9.331400990E-1,-9.815030098E0,-5.781996846E-1
3.583192667E1,9.618705511E-1,-9.862914085E0,-7.864952683E-1
3.585211156E1,9.618705511E-1,-9.877279282E0,-8.846575022E-1
3.587229734E1,9.714473486E-1,-9.860519409E0,-7.912836671E-1
3.589248406E1,9.618705511E-1,-9.846154213E0,-5.925649405E-1
3.591267172E1,9.115923047E-1,-9.824606895E0,-4.680664241E-1
3.593286031E1,8.301894665E-1,-9.743204117E0,-4.608838260E-1
3.595304979E1,7.631517649E-1,-9.659406662E0,-5.135562420E-1
3.597324005E1,7.248445749E-1,-9.606734276E0,-5.135562420E-1
3.599343099E1,6.985083222E-1,-9.613917351E0,-4.704606235E-1
3.601365328E1,6.745663285E-1,-9.657012939E0,-3.842693865E-1
3.603382578E1,6.506243348E-1,-9.712079048E0,-3.603273630E-1
3.605402385E1,6.673837304E-1,-9.769539833E0,-4.177882075E-1
3.607419266E1,7.655459642E-1,-9.779116631E0,-4.513070285E-1
3.609436255E1,8.852560520E-1,-9.767146111E0,-4.249708056E-1
3.611453422E1,9.307458997E-1,-9.750386238E0,-3.651157618E-1
3.613470828E1,8.684966564E-1,-9.757569313E0,-3.244143426E-1
3.615488521E1,7.966706157E-1,-9.759963036E0,-3.268085420E-1
3.617506531E1,7.655459642E-1,-9.736021042E0,-3.627215624E-1
3.619524880E1,7.320271730E-1,-9.767146111E0,-4.106055796E-1
3.621543573E1,6.530185342E-1,-9.767146111E0,-4.129997790E-1
3.623562604E1,5.931634903E-1,-9.716867447E0,-3.842693865E-1
3.625581953E1,5.955576897E-1,-9.678560257E0,-3.483563364E-1
3.627601583E1,6.602011323E-1,-9.716867447E0,-3.411737382E-1
3.629621448E1,6.961141229E-1,-9.752780914E0,-3.699041605E-1
3.631641495E1,6.745663285E-1,-9.807847023E0,-3.986345828E-1
3.633661672E1,6.386532784E-1,-9.824606895E0,-3.866635859E-1
3.635681922E1,6.099228859E-1,-9.824606895E0,-3.507505357E-1
3.637702000E1,6.003460884E-1,-9.831789017E0,-3.555389643E-1
3.639721354E1,6.386532784E-1,-9.824606895E0,-3.866635859E-1
3.641740719E1,6.793547273E-1,-9.779116631E0,-4.082113802E-1
3.643759542E1,6.937199235E-1,-9.724050522E0,-3.962403834E-1
3.645777302E1,6.721721292E-1,-9.695320129E0,-3.531447649E-1
3.647795120E1,6.386532784E-1,-9.697713852E0,-2.861070931E-1
3.649813031E1,6.434416771E-1,-9.688137054E0,-2.549824715E-1
3.651832599E1,6.673837304E-1,-9.683348656E0,-2.430114746E-1
3.653853099E1,6.458359361E-1,-9.716867447E0,-2.765302956E-1
3.655871922E1,6.194996834E-1,-9.750386238E0,-3.196259141E-1
3.657890203E1,6.194996834E-1,-9.762357712E0,-3.052607179E-1
3.659908526E1,6.362590790E-1,-9.767146111E0,-2.908954918E-1
3.661926901E1,6.410474777E-1,-9.788693428E0,-3.028665185E-1
3.663945349E1,6.362590790E-1,-9.788693428E0,-3.315969408E-1
3.665963880E1,6.362590790E-1,-9.762357712E0,-3.914519846E-1
3.667982505E1,6.602011323E-1,-9.803058624E0,-4.177882075E-1
3.670001224E1,6.697779298E-1,-9.831789017E0,-4.106055796E-1
3.672020036E1,6.410474777E-1,-9.767146111E0,-4.106055796E-1
3.674038943E1,6.338648796E-1,-9.733627319E0,-4.034229815E-1
3.676057932E1,6.961141229E-1,-9.716867447E0,-4.106055796E-1
3.678076995E1,7.320271730E-1,-9.695320129E0,-4.249708056E-1
3.680096120E1,7.080851793E-1,-9.671378136E0,-3.866635859E-1
3.682115297E1,6.506243348E-1,-9.649829865E0,-3.292027414E-1
3.684134505E1,6.314706802E-1,-9.630676270E0,-2.717418969E-1
3.686153724E1,6.171054840E-1,-9.654618263E0,-2.501940727E-1
3.688174026E1,6.075286865E-1,-9.728838921E0,-2.717418969E-1
3.690191859E1,5.907692909E-1,-9.736021042E0,-3.220201433E-1
3.692209724E1,6.051344872E-1,-9.702502251E0,-3.818751574E-1
3.694227661E1,6.075286865E-1,-9.724050522E0,-4.034229815E-1
3.696245703E1,5.787982345E-1,-9.738415718E0,-3.986345828E-1
3.698263880E1,5.668272376E-1,-9.750386238E0,-4.082113802E-1
3.700282213E1,6.123170853E-1,-9.781511307E0,-4.680664241E-1
3.702300713E1,6.721721292E-1,-9.822212219E0,-5.327098966E-1
3.704319380E1,7.104793787E-1,-9.815030098E0,-5.781996846E-1
3.706338213E1,7.128735781E-1,-9.779116631E0,-5.686228871E-1
3.708357213E1,7.200561762E-1,-9.719262123E0,-5.303156972E-1
3.710376359E1,7.416039705E-1,-9.678560257E0,-4.537012279E-1
3.712395630E1,7.368155718E-1,-9.673771858E0,-3.770867586E-1
3.714415005E1,6.913257241E-1,-9.702502251E0,-3.507505357E-1
3.716434463E1,6.649895310E-1,-9.774328232E0,-3.651157618E-1
3.718453974E1,6.649895310E-1,-9.774328232E0,-3.962403834E-1
3.720473505E1,6.338648796E-1,-9.714473724E0,-4.273650050E-1
3.722492974E1,6.458359361E-1,-9.724050522E0,-4.417302012E-1
3.724511797E1,7.080851793E-1,-9.736021042E0,-4.776432514E-1
3.726530078E1,7.320271730E-1,-9.724050522E0,-5.183446407E-1
3.728548401E1,7.248445749E-1,-9.726444244E0,-5.303156972E-1
3.730566776E1,7.080851793E-1,-9.738415718E0,-4.944026470E-1
3.732585224E1,6.937199235E-1,-9.726444244E0,-4.441244006E-1
3.734603755E1,7.032967210E-1,-9.743204117E0,-4.153940082E-1
3.736622380E1,7.296329737E-1,-9.752780914E0,-4.297592044E-1
3.738641099E1,7.487865686E-1,-9.738415718E0,-4.537012279E-1
3.740659911E1,7.320271730E-1,-9.707290649E0,-4.584896266E-1
3.742678818E1,6.985083222E-1,-9.707290649E0,-4.489128292E-1
3.744697807E1,6.769605279E-1,-9.719262123E0,-4.441244006E-1
3.746716870E1,6.769605279E-1,-9.738415718E0,-4.513070285E-1
3.748735995E1,6.961141229E-1,-9.757569313E0,-4.680664241E-1
3.750755172E1,7.032967210E-1,-9.745597839E0,-4.776432514E-1
3.752779364E1,6.937199235E-1,-9.726444244E0,-4.800374508E-1
3.754794083E1,7.009025216E-1,-9.740809441E0,-4.848258495E-1
3.756808958E1,7.200561762E-1,-9.762357712E0,-4.728548229E-1
3.758824146E1,7.176619768E-1,-9.791088104E0,-4.728548229E-1
3.760839781E1,6.961141229E-1,-9.740809441E0,-4.656722248E-1
3.762855969E1,6.817489266E-1,-9.678560257E0,-4.608838260E-1
3.764872792E1,7.056909800E-1,-9.738415718E0,-4.345476031E-1
3.766890302E1,6.889315248E-1,-9.733627319E0,-4.129997790E-1
3.768908531E1,6.123170853E-1,-9.695320129E0,-4.225766063E-1
3.770927469E1,6.218938828E-1,-9.692925453E0,-4.441244006E-1
3.772947083E1,6.913257241E-1,-9.736021042E0,-4.608838260E-1
3.774967312E1,7.104793787E-1,-9.755174637E0,-4.560954273E-1
3.776988083E1,6.506243348E-1,-9.764751434E0,-4.489128292E-1
3.779009292E1,6.171054840E-1,-9.752780914E0,-4.393360019E-1
3.781030823E1,6.290764809E-1,-9.733627319E0,-4.273650050E-1
3.783052552E1,6.554127336E-1,-9.726444244E0,-4.106055796E-1
3.785074364E1,6.482301354E-1,-9.750386238E0,-4.010287821E-1
3.787095187E1,6.171054840E-1,-9.726444244E0,-4.010287821E-1
3.789114010E1,6.099228859E-1,-9.700108528E0,-4.034229815E-1
3.791133916E1,6.290764809E-1,-9.704896927E0,-4.106055796E-1
3.793151646E1,6.578069329E-1,-9.719262123E0,-4.082113802E-1
3.795169416E1,6.482301354E-1,-9.752780914E0,-4.393360019E-1
3.797187271E1,6.554127336E-1,-9.759963036E0,-4.489128292E-1
3.799205240E1,6.554127336E-1,-9.736021042E0,-4.537012279E-1
3.801223354E1,6.362590790E-1,-9.716867447E0,-3.818751574E-1
3.803241635E1,5.883750916E-1,-9.697713852E0,-2.238578647E-1
3.805260094E1,4.830302000E-1,-9.779116631E0,-9.696517140E-2
3.807278740E1,5.380968451E-1,-9.937133789E0,1.616086215E-1
3.809297573E1,5.141547918E-1,-9.917980194E0,4.668693244E-2
3.811316583E1,5.644330382E-1,-9.733627319E0,-1.687912196E-1
3.813335760E1,8.325836658E-1,-9.724050522E0,-2.932897210E-1
3.815355083E1,1.153406620E0,-9.719262123E0,-3.794809580E-1
3.817374521E1,1.309029818E0,-9.578003883E0,-4.345476031E-1
3.819394042E1,1.318606615E0,-9.460687637E0,-3.555389643E-1
3.821413615E1,1.263539910E0,-9.467870712E0,8.499415964E-2
3.823433208E1,1.067215443E0,-9.431957245E0,3.268085420E-1
3.825452750E1,6.937199235E-1,-9.566033363E0,-2.274491638E-2
3.827471562E1,3.154360652E-1,-9.743204117E0,-5.901707411E-1
3.829489833E1,4.489128292E-2,-9.922768593E0,-1.033097982E0
3.831508146E1,1.382651478E-1,-9.985017776E0,-1.133654475E0
3.833526521E1,1.071405262E-1,-9.783905029E0,-1.009155989E0
3.835544969E1,3.202244639E-1,-9.446322441E0,-8.702923059E-1
3.837563500E1,4.327519536E-1,-9.487024307E0,-8.750807047E-1
3.839582125E1,6.171054840E-1,-9.697713852E0,-8.583213091E-1
3.841600844E1,5.428852439E-1,-9.743204117E0,-6.811503768E-1
3.843619656E1,2.962824702E-1,-9.582792282E0,-5.734112859E-1
3.845638562E1,6.883329898E-2,-9.690531731E0,-6.356605291E-1
3.847657552E1,4.489128292E-2,-9.783905029E0,-9.133879542E-1
3.849676614E1,-3.890577704E-2,-9.633070946E0,-1.296460271E0
3.851695740E1,2.005143911E-1,-9.566033363E0,-1.365892053E0
3.853714916E1,4.351461530E-1,-1.011191082E1,-1.406593442E0
3.855734125E1,8.804676533E-1,-1.038245583E1,-1.969230890E0
3.857753344E1,9.355342984E-1,-1.004726696E1,-2.555810213E0
3.859773646E1,1.301847219E0,-9.769539833E0,-2.412158251E0
3.861791479E1,1.380855799E0,-9.463082314E0,-1.808819413E0
3.863809344E1,1.426345706E0,-9.369708061E0,-1.368286252E0
3.865827281E1,1.390432596E0,-9.561244011E0,-1.387439847E0
3.867845323E1,1.459864497E0,-1.000177765E1,-1.528697729E0
3.869863500E1,1.349731207E0,-9.956287384E0,-7.841010690E-1
3.871881823E1,1.036090732E0,-9.747992516E0,-6.284779310E-1
3.873900312E1,6.530185342E-1,-1.010951710E1,-8.942343593E-1
3.875918969E1,-3.597288132E-1,-9.884461403E0,-5.063736439E-1
3.877937792E1,-4.147954583E-1,-9.695320129E0,-4.058171809E-1
3.879956781E1,-3.645172119E-1,-1.004966164E1,-2.908954918E-1
3.881975916E1,-3.022679687E-1,-1.024838066E1,-5.829881430E-1
3.883995187E1,-5.249287486E-1,-1.049019432E1,-1.054645896E0
3.886014562E1,-8.265981078E-1,-9.692925453E0,-2.098517895E0
3.888034021E1,-8.337807655E-1,-9.166201591E0,-2.989160776E0
3.890053531E1,-7.284358740E-1,-9.398438454E0,-2.230198860E0
3.892073062E1,-2.615665495E-1,-9.800664902E0,-8.295909166E-1
3.894092573E1,-5.327098817E-2,-9.080010414E0,-1.616086215E-1
3.896111385E1,4.662707746E-1,-8.534132004E0,-3.699041605E-1
3.898129656E1,5.357026458E-1,-9.264363289E0,-1.028309584E0
3.900147969E1,8.158242106E-1,-9.894038200E0,-1.363497853E0
3.902166333E1,1.115099430E0,-1.032738876E1,-1.435323954E0
3.904184771E1,1.158195019E0,-9.566033363E0,-1.392228246E0
3.906203292E1,1.567603588E0,-9.163806915E0,-1.578976035E0
3.908221906E1,1.862090349E0,-8.850166321E0,-1.547851443E0
3.910240614E1,1.553238392E0,-9.429563522E0,-1.406593442E0
3.912259427E1,1.093551636E0,-1.006402683E1,-1.461660147E0
3.914278333E1,1.069609642E0,-1.027471638E1,-1.528697729E0
3.916297323E1,8.637082577E-1,-9.582792282E0,-1.490390539E0
3.918316385E1,3.681085110E-1,-8.977059364E0,-1.416170359E0
3.920335510E1,3.609259129E-1,-9.276334763E0,-1.236605167E0
3.922354687E1,1.215057373E-1,-9.211690903E0,-1.243787766E0
3.924373896E1,-5.566519126E-2,-9.724050522E0,-1.351526856E0
3.926393125E1,-5.345055461E-1,-1.058117485E1,-1.188721180E0
3.928413437E1,-9.750386477E-1,-1.077031612E1,-8.295909166E-1
3.930431292E1,-6.278793812E-1,-1.037287903E1,-7.457938194E-1
3.932449177E1,-3.172317147E-2,-9.719262123E0,-6.284779310E-1
3.934467135E1,5.333084464E-1,-9.350554466E0,-6.141127348E-1
3.936485198E1,6.554127336E-1,-9.774328232E0,-1.080982089E0
3.938503385E1,1.028908134E0,-9.853337288E0,-1.428141356E0
3.940521719E1,1.383249998E0,-8.900444984E0,-1.377863050E0
3.942540208E1,5.285200477E-1,-8.766369820E0,-9.804255962E-1
3.944558864E1,2.364274114E-1,-9.142259598E0,-1.052251697E0
3.946577687E1,1.981201917E-1,-9.987412453E0,-1.243787766E0
3.948596666E1,-1.227028370E-1,-1.070567322E1,-1.241393566E0
3.950615792E1,-4.369417951E-2,-1.052371311E1,-1.124077678E0
3.952635042E1,2.723404467E-1,-1.032738876E1,-9.109937549E-1
3.954654396E1,2.100912035E-1,-9.664195061E0,-8.271966577E-1
3.956673833E1,3.920505345E-1,-9.391256332E0,-6.883329749E-1
3.958693323E1,7.631517649E-1,-9.400833130E0,-6.763619781E-1
3.960712833E1,9.546879530E-1,-9.257181168E0,-9.133879542E-1
3.962731802E1,8.325836658E-1,-9.958682060E0,-8.822633028E-1
3.964750781E1,5.883750916E-1,-1.007839203E1,-9.133879542E-1
3.966770844E1,1.861491799E-1,-9.925163269E0,-8.104372621E-1
3.968788833E1,-2.992752008E-3,-8.921992302E0,-8.415619135E-1
3.970806854E1,-1.083376259E-1,-8.775946617E0,-5.398924947E-1
3.972824937E1,-3.411737457E-2,-9.312247276E0,-2.501940727E-1
3.974843104E1,2.483984232E-1,-9.463082314E0,-4.273650050E-1
3.976861375E1,5.165489912E-1,-9.566033363E0,-7.912836671E-1
3.978879771E1,6.913257241E-1,-9.740809441E0,-1.124077678E0
3.980898302E1,8.062474132E-1,-1.016218948E1,-1.437718153E0
3.982916979E1,7.775170207E-1,-1.006163311E1,-1.502361536E0
3.984935802E1,8.421604633E-1,-9.973047256E0,-1.423352957E0
3.986954760E1,1.119887829E0,-1.003290176E1,-1.258152962E0
3.988973844E1,1.258751512E0,-1.006402683E1,-9.062053561E-1
3.990993042E1,1.162983418E0,-9.621099472E0,-6.021417379E-1
3.993012333E1,8.062474132E-1,-9.637859344E0,-5.374982953E-1
3.995031698E1,5.045779943E-1,-9.817423820E0,-7.697358727E-1
3.997051104E1,6.003460884E-1,-9.283516884E0,-9.612720013E-1
3.999070531E1,-2.974795699E-1,-9.319430351E0,-9.014169574E-1
4.001089906E1,-5.632359385E-1,-9.910798073E0,-5.183446407E-1
4.003108729E1,-7.571662664E-1,-1.020767879E1,-2.669534981E-1
4.005127542E1,-5.153518915E-1,-1.040160942E1,-2.142810524E-1
4.007145812E1,-4.842272997E-1,-1.080622959E1,-3.339911401E-1
4.009164125E1,-5.105634928E-1,-1.024598598E1,-6.404489279E-1
4.011182500E1,-5.129576921E-1,-1.004008484E1,-1.394622445E0
4.013200948E1,-5.823895931E-1,-1.014782429E1,-1.657984734E0
4.015219479E1,-7.858967185E-1,-9.906009674E0,-1.813607812E0
4.017238104E1,-7.140706778E-1,-9.544485092E0,-1.863885999E0
4.019256823E1,-2.992752008E-3,-9.068038940E0,-1.672349930E0
4.021275635E1,1.717839688E-1,-9.214085579E0,-1.499967337E0
4.023294542E1,-4.171896577E-1,-9.664195061E0,-1.416170359E0
4.025313531E1,-1.003769040E0,-9.697713852E0,-1.401805043E0
4.027332594E1,-1.300650120E0,-9.496601105E0,-1.320402265E0
4.029351719E1,-1.654991984E0,-9.338583946E0,-1.404199243E0
4.031370896E1,-1.951872945E0,-9.329007149E0,-1.550245643E0
4.033390104E1,-1.769913554E0,-9.388861656E0,-1.569399238E0
4.035409323E1,-1.654991984E0,-9.484629631E0,-1.397016644E0
4.037429625E1,-2.260725021E0,-9.587580681E0,-1.353921056E0
4.039447437E1,-3.227982521E0,-9.317035675E0,-1.210268974E0
4.041465281E1,-3.848080635E0,-8.998606682E0,-1.018732786E0
4.043483198E1,-3.632602453E0,-8.984241486E0,-9.612720013E-1
4.045501219E1,-3.357269287E0,-8.898050308E0,-1.231816769E0
4.047519375E1,-3.204040527E0,-8.924386978E0,-1.499967337E0
4.049537687E1,-3.077147722E0,-9.010578156E0,-1.586158633E0
4.051556166E1,-2.631826162E0,-8.972270966E0,-1.722628117E0
4.053574823E1,-2.588730574E0,-8.763975143E0,-1.906981707E0
4.055593656E1,-2.885611534E0,-8.790311813E0,-1.921346903E0
4.057612656E1,-3.271078110E0,-8.807070732E0,-1.665167332E0
4.059631812E1,-2.354098797E0,-7.686584473E0,-1.344344258E0
4.061651104E1,-8.265981078E-1,-8.895656586E0,-1.854309201E0
4.063670500E1,-1.887229443E0,-9.874884605E0,-1.689109325E0
4.065689979E1,-2.413953781E0,-1.037287903E1,-1.401805043E0
4.067709510E1,-2.940678120E0,-9.800664902E0,-1.638831019E0
4.069729062E1,-3.156156301E0,-8.831012726E0,-1.590947032E0
4.071748521E1,-3.840898037E0,-8.280346870E0,-5.087678432E-1
4.073767333E1,-5.401917458E0,-8.129511833E0,4.824316502E-1
4.075785604E1,-6.474519730E0,-8.481459618E0,8.607155085E-1
4.077803916E1,-6.153697014E0,-8.823830605E0,8.224082589E-1
4.079822292E1,-2.548029184E0,-9.525331497E0,-4.691438198E0
4.081840740E1,-8.720879555E-1,-1.074158573E1,-5.474342346E0
4.083859271E1,-2.287061214E0,-1.047104073E1,-5.386953801E-2
4.085877896E1,-2.495356798E0,-1.030823517E1,2.230198860E0
4.087896614E1,-2.897582531E0,-9.985017776E0,2.440888643E0
4.089915427E1,-4.279036999E0,-9.724050522E0,1.657984734E0
