"Time (s)","Acceleration x (m/s^2)","Acceleration y (m/s^2)","Acceleration z (m/s^2)"
5.788418900E-2,4.445526600E0,-2.640619516E0,8.332755089E0
7.806929300E-2,4.247305870E0,-2.612000942E0,8.444419861E0
9.825491800E-2,4.059804916E0,-2.599445105E0,8.539979935E0
1.184411680E-1,3.774416208E0,-2.597247839E0,8.670552254E0
1.386280430E-1,3.469281912E0,-2.585549593E0,8.800533295E0
1.588156480E-1,3.379704714E0,-2.591286659E0,8.833641052E0
1.790039810E-1,3.500884056E0,-2.535208464E0,8.802664757E0
1.991930430E-1,3.556639671E0,-2.374098539E0,8.825211525E0
2.193827310E-1,3.543852091E0,-2.162373781E0,8.884573936E0
2.395729390E-1,3.492944956E0,-1.907625675E0,8.962738991E0
2.597635640E-1,3.481396437E0,-1.575228453E0,9.031551361E0
2.799545020E-1,3.596921682E0,-1.120195508E0,9.054154396E0
3.001456480E-1,3.804647446E0,-5.209280252E-1,9.023507118E0
3.203368980E-1,4.024015427E0,2.022239417E-1,8.940737724E0
3.405389810E-1,4.168632507E0,9.751147628E-1,8.822813988E0
3.607176270E-1,4.240011692E0,1.588774323E0,8.698763847E0
3.808965850E-1,4.123438358E0,1.899845958E0,8.692422867E0
4.010762730E-1,3.993705034E0,2.025588989E0,8.724545479E0
4.212570020E-1,3.986509323E0,1.991295576E0,8.735723495E0
4.414389810E-1,4.090022564E0,1.805025578E0,8.728343964E0
4.616224180E-1,4.160847187E0,1.504711747E0,8.751775742E0
4.818075230E-1,4.290759087E0,1.200220585E0,8.736088753E0
5.019942930E-1,4.461166382E0,9.838151932E-1,8.677585602E0
5.221827310E-1,4.497377872E0,8.358835578E-1,8.674403191E0
5.423728350E-1,4.224885464E0,6.236219406E-1,8.827900887E0
5.625643980E-1,3.856530905E0,3.622198105E-1,9.009237289E0
5.827573140E-1,3.561171293E0,8.311647922E-2,9.136822701E0
6.029512730E-1,3.406305313E0,-2.504130602E-1,9.192647934E0
6.231460640E-1,3.123904943E0,-5.617819428E-1,9.278793335E0
6.433413770E-1,2.899761200E0,-6.841711998E-1,9.343108177E0
6.635368980E-1,2.898173809E0,-6.965700388E-1,9.342684746E0
6.837316890E-1,2.968781710E0,-7.265632153E-1,9.318199158E0
7.039201270E-1,2.994549751E0,-8.297316432E-1,9.301322937E0
7.241084600E-1,2.992820740E0,-1.009942770E0,9.284040451E0
7.442913770E-1,2.963685989E0,-1.214635611E0,9.268851280E0
7.644747100E-1,2.946010113E0,-1.382512569E0,9.250949860E0
7.846585640E-1,2.967418671E0,-1.516753554E0,9.223029137E0
8.048431480E-1,3.039091110E0,-1.659291506E0,9.175024033E0
8.250285640E-1,3.154727459E0,-1.851631045E0,9.098876953E0
8.452149180E-1,3.272112370E0,-2.093074083E0,9.004593849E0
8.654022100E-1,3.367029905E0,-2.350380182E0,8.905570984E0
8.855905430E-1,3.504123688E0,-2.612070560E0,8.778871536E0
9.057798140E-1,3.661117792E0,-2.877716303E0,8.630490303E0
9.259699180E-1,3.807934523E0,-3.162513733E0,8.465726852E0
9.461607520E-1,3.913644075E0,-3.445148468E0,8.305704117E0
9.663522100E-1,3.985663414E0,-3.695847273E0,8.162449837E0
9.865441890E-1,4.030438423E0,-3.904708862E0,8.042337418E0
1.006736481E0,4.058621407E0,-4.081435204E0,7.939764977E0
1.026928981E0,4.065784931E0,-4.220451355E0,7.863050938E0
1.047132314E0,4.057178974E0,-4.341930866E0,7.801109791E0
1.067310960E0,4.024955750E0,-4.451954365E0,7.755656719E0
1.087489918E0,3.985999823E0,-4.564132690E0,7.710440636E0
1.107669606E0,3.940524578E0,-4.687522888E0,7.659619808E0
1.127850335E0,3.886586428E0,-4.807422161E0,7.612721443E0
1.148032314E0,3.862190008E0,-4.932153702E0,7.545046806E0
1.168215752E0,3.862632751E0,-5.054106712E0,7.463676453E0
1.188400856E0,3.858752966E0,-5.151660442E0,7.398702621E0
1.208587627E0,3.836113453E0,-5.214233398E0,7.366571903E0
1.228776064E0,3.808943987E0,-5.247491360E0,7.357048035E0
1.248966168E0,3.802551031E0,-5.263897419E0,7.348630905E0
1.269157731E0,3.813577890E0,-5.257014751E0,7.347842693E0
1.289350648E0,3.830954790E0,-5.222343445E0,7.363511086E0
1.309544606E0,3.847337484E0,-5.155975819E0,7.401642323E0
1.329739398E0,3.867121458E0,-5.053643227E0,7.461665154E0
1.349934710E0,3.901079178E0,-4.919333458E0,7.533400536E0
1.370130231E0,3.951701641E0,-4.751546383E0,7.614279747E0
1.390325127E0,4.014097691E0,-4.552052498E0,7.703001499E0
1.410513460E0,4.063396931E0,-4.325819492E0,7.806821823E0
1.430696377E0,4.073299885E0,-4.077453136E0,7.934291840E0
1.450879710E0,4.028428555E0,-3.824830055E0,8.081635475E0
1.471063668E0,3.850033522E0,-3.616300106E0,8.262566566E0
1.491248356E0,3.492264986E0,-3.500744581E0,8.468721390E0
1.511433877E0,3.099358797E0,-3.442889929E0,8.643545151E0
1.531620335E0,2.826200962E0,-3.365601301E0,8.766737938E0
1.551807731E0,2.697374344E0,-3.246380329E0,8.851868629E0
1.571996064E0,2.626171589E0,-3.136702061E0,8.912615776E0
1.592185335E0,2.540146351E0,-3.059721947E0,8.964159012E0
1.612375439E0,2.428841114E0,-3.009619951E0,9.011842728E0
1.632566273E0,2.272151232E0,-2.966332436E0,9.066895485E0
1.652757731E0,2.030496359E0,-2.906707287E0,9.143222809E0
1.672949710E0,1.712258101E0,-2.866902113E0,9.220598221E0
1.693142002E0,1.389981151E0,-2.892075300E0,9.266835213E0
1.713334398E0,1.167155147E0,-2.978973389E0,9.270051956E0
1.733537627E0,1.052214742E0,-3.118244886E0,9.237953186E0
1.753716064E0,9.617284536E-1,-3.307812691E0,9.181712151E0
1.773894814E0,7.706525326E-1,-3.524008274E0,9.119091988E0
1.794074293E0,4.825759828E-1,-3.720700741E0,9.060567856E0
1.814254814E0,2.831631303E-1,-3.846776247E0,9.016237259E0
1.834436689E0,1.949182898E-1,-3.949181080E0,8.974205971E0
1.854620127E0,3.364936635E-2,-4.077345848E0,8.918772697E0
1.874805231E0,-2.548799217E-1,-4.220873833E0,8.848143578E0
1.894992106E0,-5.034896135E-1,-4.327724934E0,8.785651207E0
1.915180752E0,-5.904850960E-1,-4.395943165E0,8.746278763E0
1.935371064E0,-4.680087566E-1,-4.438179016E0,8.732349396E0
1.955562835E0,-3.931338191E-1,-4.450804710E0,8.729614258E0
1.975755856E0,-3.887899518E-1,-4.501049995E0,8.704009056E0
1.995949918E0,-2.718122602E-1,-4.537885666E0,8.689310074E0
2.016144814E0,-2.788777277E-2,-4.546985626E0,8.688758850E0
2.036340231E0,3.032601178E-1,-4.568595886E0,8.672159195E0
2.056535856E0,6.993750334E-1,-4.603208542E0,8.630860329E0
2.076730335E0,1.134401083E0,-4.624040604E0,8.573317528E0
2.096918773E0,1.501486301E0,-4.596725941E0,8.531473160E0
2.117101793E0,1.731920004E0,-4.506497383E0,8.535943031E0
2.137285231E0,1.827536464E0,-4.377080441E0,8.583219528E0
2.157469189E0,1.826365471E0,-4.240902901E0,8.651560783E0
2.177653877E0,1.781623244E0,-4.126863003E0,8.715802193E0
2.197839398E0,1.759388566E0,-4.051753521E0,8.755468369E0
2.218025856E0,1.852952242E0,-4.025507927E0,8.748270988E0
2.238213252E0,2.203727722E0,-4.038033485E0,8.660731316E0
2.258401585E0,2.834614754E0,-4.037163258E0,8.475650787E0
2.278590856E0,3.617041826E0,-3.995720387E0,8.192777634E0
2.298780960E0,4.328208923E0,-3.913479090E0,7.881731033E0
2.318971793E0,4.840631008E0,-3.839132547E0,7.615756512E0
2.339163252E0,5.199221611E0,-3.755024433E0,7.418778419E0
2.359355231E0,5.489136696E0,-3.603110075E0,7.284049511E0
2.379547523E0,5.732974529E0,-3.398191214E0,7.194141865E0
2.399739918E0,5.936582565E0,-3.196098566E0,7.121258736E0
2.419943148E0,6.126734734E0,-3.030357838E0,7.032100201E0
2.440121585E0,6.329752922E0,-2.896437645E0,6.907623291E0
2.460300335E0,6.525499344E0,-2.787391901E0,6.768950462E0
2.480479814E0,6.686679363E0,-2.703304768E0,6.644609928E0
2.500660335E0,6.832813740E0,-2.637603045E0,6.521204472E0
2.520842210E0,6.994244099E0,-2.590681314E0,6.367048264E0
2.541025648E0,7.156987190E0,-2.566365957E0,6.193681717E0
2.561210752E0,7.327663898E0,-2.587619305E0,5.981634140E0
2.581397627E0,7.497223377E0,-2.686699629E0,5.722208500E0
2.601586273E0,7.621055126E0,-2.875996351E0,5.460636616E0
2.621776585E0,7.696668148E0,-3.129381657E0,5.209478378E0
2.641968356E0,7.759539604E0,-3.391692400E0,4.945335865E0
2.662161481E0,7.832762718E0,-3.635306597E0,4.647877216E0
2.682355648E0,7.903480053E0,-3.851542711E0,4.344075680E0
2.702550648E0,7.950479984E0,-4.040740967E0,4.078314781E0
2.722746168E0,7.979612827E0,-4.196557045E0,3.858119488E0
2.742941898E0,7.994166851E0,-4.317670822E0,3.690718412E0
2.763136064E0,8.020098686E0,-4.385518551E0,3.551850796E0
2.783324398E0,8.067383766E0,-4.375852108E0,3.455375910E0
2.803507314E0,8.123363495E0,-4.354382038E0,3.349735737E0
2.823690648E0,8.153781891E0,-4.340530396E0,3.293330193E0
2.843874606E0,8.164237976E0,-4.330793381E0,3.280218840E0
2.864059293E0,8.184181213E0,-4.316146374E0,3.249684811E0
2.884244814E0,8.220440865E0,-4.254108906E0,3.239952803E0
2.904431273E0,8.259381294E0,-4.194142818E0,3.219032049E0
2.924618668E0,8.292253494E0,-4.135368347E0,3.210550308E0
2.944807002E0,8.334507942E0,-4.066651344E0,3.188841343E0
2.964996273E0,8.398097992E0,-3.970701218E0,3.142587185E0
2.985186377E0,8.441183090E0,-3.836861134E0,3.193011284E0
3.005377210E0,8.413641930E0,-3.696363211E0,3.423141718E0
3.025568668E0,8.318751335E0,-3.565377235E0,3.775825500E0
3.045760648E0,8.216423035E0,-3.423669338E0,4.115735054E0
3.065952939E0,8.133479118E0,-3.278816938E0,4.389335155E0
3.086145439E0,8.054252625E0,-3.142426968E0,4.628667831E0
3.106348773E0,7.979127884E0,-2.999833584E0,4.848184586E0
3.126527418E0,7.929732800E0,-2.844239235E0,5.019962788E0
3.146706377E0,7.896282196E0,-2.680123568E0,5.161012650E0
3.166886064E0,7.858740330E0,-2.525116682E0,5.294751167E0
3.187066793E0,7.828715324E0,-2.375529051E0,5.407259464E0
3.207248773E0,7.816150188E0,-2.233799458E0,5.485281467E0
3.227432210E0,7.839305878E0,-2.110849619E0,5.500907898E0
3.247617314E0,7.914048195E0,-1.987357497E0,5.439544678E0
3.267804085E0,8.041461945E0,-1.854354024E0,5.297795773E0
3.287992523E0,8.212277412E0,-1.722506046E0,5.075614452E0
3.308182627E0,8.404444695E0,-1.596884608E0,4.794336319E0
3.328374189E0,8.578905106E0,-1.497899652E0,4.508776665E0
3.348567106E0,8.702900887E0,-1.440651417E0,4.284205914E0
3.368761064E0,8.776565552E0,-1.410550475E0,4.141573906E0
3.388955856E0,8.810129166E0,-1.399368167E0,4.073544502E0
3.409151168E0,8.782220840E0,-1.465940356E0,4.110231400E0
3.429346689E0,8.716379166E0,-1.608988881E0,4.195980549E0
3.449542106E0,8.717193604E0,-1.715533495E0,4.151851654E0
3.469730543E0,8.682929993E0,-1.790662289E0,4.191736698E0
3.489913564E0,8.592520714E0,-1.860151052E0,4.344974041E0
3.510097002E0,8.490436554E0,-1.903660655E0,4.523156643E0
3.530280960E0,8.411423683E0,-1.892067671E0,4.673161030E0
3.550465648E0,8.381872177E0,-1.809356093E0,4.758240223E0
3.570651168E0,8.398349762E0,-1.688107848E0,4.773719311E0
3.590837627E0,8.403117180E0,-1.554920554E0,4.810431480E0
3.611025023E0,8.358133316E0,-1.412016392E0,4.931349277E0
3.631213356E0,8.289823532E0,-1.251725674E0,5.087474346E0
3.651402627E0,8.224729538E0,-1.082768798E0,5.229896545E0
3.671592731E0,8.185534477E0,-9.253440499E-1,5.320822239E0
3.691782082E0,8.200491905E0,-8.073679209E-1,5.316998959E0
3.711973645E0,8.265812874E0,-7.593402863E-1,5.222078800E0
3.732165624E0,8.363916397E0,-7.957283854E-1,5.057875633E0
3.752357915E0,8.443765640E0,-9.443554878E-1,4.897080898E0
3.772550415E0,8.424201965E0,-1.101417661E0,4.897967815E0
3.792753749E0,8.336754799E0,-1.140387416E0,5.036707401E0
3.812932395E0,8.300571442E0,-1.101146460E0,5.104739189E0
3.833111353E0,8.345263481E0,-1.064006090E0,5.039330959E0
3.853291040E0,8.458631516E0,-1.073690653E0,4.844494820E0
3.873471770E0,8.648694038E0,-1.082302332E0,4.494339943E0
3.893653749E0,8.891462326E0,-9.920216799E-1,4.015988350E0
3.913837186E0,9.104488373E0,-8.060958385E-1,3.553716898E0
3.934022290E0,9.259588242E0,-5.899724364E-1,3.175272226E0
3.954209061E0,9.383634567E0,-4.048041403E-1,2.820268393E0
3.974397499E0,9.491953850E0,-3.102778494E-1,2.444777489E0
3.994587603E0,9.577197075E0,-2.936140597E-1,2.088414907E0
4.014779270E0,9.642736435E0,-2.817885876E-1,1.763127446E0
4.034972290E0,9.709796906E0,-1.905666888E-1,1.361584306E0
4.055166353E0,9.768014908E0,-7.937590778E-2,8.660094142E-1
4.075361249E0,9.801592827E0,2.233534586E-3,3.148843944E-1
4.095556665E0,9.804843903E0,2.537161484E-2,-1.864428222E-1
4.115752290E0,9.789279938E0,-2.976458147E-2,-5.826480985E-1
4.135947290E0,9.767261505E0,-1.409519762E-1,-8.666779399E-1
4.156135728E0,9.739975929E0,-2.579861581E-1,-1.112074494E0
4.176318749E0,9.707422256E0,-3.548632562E-1,-1.345517993E0
4.196502186E0,9.669750214E0,-4.221322536E-1,-1.577377319E0
4.216686145E0,9.620589256E0,-4.685952067E-1,-1.842573643E0
4.236870832E0,9.564075470E0,-5.054038763E-1,-2.107945919E0
4.257056353E0,9.512487411E0,-4.725647867E-1,-2.336588144E0
4.277242811E0,9.499576569E0,-3.814322054E-1,-2.404775620E0
4.297430207E0,9.520027161E0,-2.250510454E-1,-2.342826128E0
4.317618540E0,9.541173935E0,-1.853157580E-2,-2.266284704E0
4.337807811E0,9.560374260E0,1.290332824E-1,-2.180136681E0
4.357997915E0,9.567770004E0,2.027891129E-1,-2.141736984E0
4.378188749E0,9.561669350E0,2.384145111E-1,-2.165187359E0
4.398380207E0,9.561185837E0,2.735338807E-1,-2.163166285E0
4.418572186E0,9.581033707E0,3.287558556E-1,-2.065454245E0
4.438764478E0,9.611368179E0,4.071541727E-1,-1.904267669E0
4.458974530E0,9.643364906E0,5.099989176E-1,-1.707574248E0
4.479139374E0,9.672286987E0,6.125221252E-1,-1.497353435E0
4.499305572E0,9.692947388E0,6.564549208E-1,-1.336497068E0
4.519473957E0,9.700961113E0,6.611973643E-1,-1.274572134E0
4.539645259E0,9.701790810E0,6.115099192E-1,-1.292948365E0
4.559820051E0,9.699554443E0,5.589545369E-1,-1.332892418E0
4.579998749E0,9.696583748E0,5.204852223E-1,-1.369573593E0
4.600181561E0,9.700122833E0,4.780022204E-1,-1.359969497E0
4.620368540E0,9.672050476E0,5.364223719E-1,-1.527767181E0
4.640559582E0,9.608191490E0,5.889587998E-1,-1.872477055E0
4.660754061E0,9.529456139E0,7.314997315E-1,-2.196536064E0
4.680953332E0,9.535555840E0,6.625545025E-1,-2.191939354E0
4.701155415E0,9.446850777E0,2.962183654E-1,-2.615272045E0
4.721359686E0,8.737071991E0,-4.487935901E-1,-4.430861950E0
4.741565415E0,7.817697048E0,-1.517914176E0,-5.722756386E0
4.761771874E0,7.621246338E0,-2.345400572E0,-5.708422184E0
4.781977811E0,7.858343601E0,-2.809987307E0,-5.149833679E0
4.802166353E0,8.263653755E0,-2.893651724E0,-4.416921139E0
4.822354790E0,8.282538414E0,-3.055979252E0,-4.269769192E0
4.842554061E0,8.379132271E0,-3.103011847E0,-4.041268826E0
4.862731770E0,8.724247932E0,-2.907851696E0,-3.406212807E0
4.882909895E0,8.996834755E0,-2.692295790E0,-2.824693918E0
4.903088749E0,9.171014786E0,-2.549757004E0,-2.358311176E0
4.923268749E0,9.215675354E0,-2.556724787E0,-2.169075012E0
4.943450207E0,9.213657379E0,-2.610625505E0,-2.112707615E0
4.963663020E0,9.196233749E0,-2.676238060E0,-2.106517792E0
4.983862603E0,9.176766396E0,-2.795964241E0,-2.034678936E0
5.004051092E0,9.163748741E0,-2.903697491E0,-1.940267920E0
5.024236822E0,9.118037224E0,-3.037281752E0,-1.951076150E0
5.044420051E0,9.006585121E0,-3.308333158E0,-2.026511192E0
5.064603749E0,8.793751717E0,-3.758852720E0,-2.170561314E0
5.084788072E0,8.478960991E0,-4.373132229E0,-2.270088673E0
5.104973176E0,8.076985359E0,-5.071444988E0,-2.283227921E0
5.125159165E0,7.581787109E0,-5.776489258E0,-2.306306124E0
5.145346092E0,7.019611359E0,-6.400896549E0,-2.433920383E0
5.165534009E0,6.585280418E0,-6.799444675E0,-2.563595057E0
5.185722915E0,6.331410408E0,-7.039890289E0,-2.554130793E0
5.205912707E0,6.138199329E0,-7.230291843E0,-2.493144989E0
5.226103280E0,6.036509037E0,-7.342731953E0,-2.411480188E0
5.246294530E0,6.001595974E0,-7.392052650E0,-2.347084045E0
5.266486353E0,5.963426113E0,-7.437146664E0,-2.301477194E0
5.286678592E0,5.917033672E0,-7.476500511E0,-2.293695688E0
5.306871092E0,5.846539497E0,-7.541097641E0,-2.262791634E0
5.327069113E0,5.778253078E0,-7.590592861E0,-2.272680521E0
5.347260259E0,5.764572620E0,-7.595410347E0,-2.291251183E0
5.367439270E0,5.755332947E0,-7.605404854E0,-2.281304836E0
5.387618801E0,5.700548172E0,-7.660752296E0,-2.233161449E0
5.407799217E0,5.551159382E0,-7.799291134E0,-2.127456903E0
5.427980780E0,5.298128128E0,-7.995819092E0,-2.041347027E0
5.448163697E0,5.022846222E0,-8.186786652E0,-1.979369044E0
5.468348124E0,4.790676594E0,-8.352927208E0,-1.856992006E0
5.488534165E0,4.641765118E0,-8.476509094E0,-1.665289998E0
5.508721874E0,4.583507061E0,-8.542593002E0,-1.478499055E0
5.528911197E0,4.565276623E0,-8.579092979E0,-1.314453125E0
5.549102030E0,4.385658741E0,-8.699707985E0,-1.118685603E0
5.569294270E0,3.988557816E0,-8.888500214E0,-1.120868921E0
5.589487707E0,3.588225126E0,-9.028657913E0,-1.333554387E0
5.609682082E0,3.303108692E0,-9.093295097E0,-1.603692770E0
5.629877134E0,3.106118679E0,-9.105904579E0,-1.898660183E0
5.650072551E0,3.080640793E0,-9.088357925E0,-2.020343304E0
5.670265363E0,3.136850834E0,-9.038242340E0,-2.154237986E0
5.690455520E0,3.240001440E0,-8.991991043E0,-2.194738626E0
5.710651145E0,3.265096664E0,-8.995677948E0,-2.141801834E0
5.730841665E0,2.975159883E0,-9.124076843E0,-2.017433167E0
5.751021822E0,2.563887596E0,-9.286961555E0,-1.830085635E0
5.771202447E0,2.242697477E0,-9.428186417E0,-1.500002742E0
5.791383853E0,2.090893507E0,-9.521762848E0,-1.065163493E0
5.811566301E0,1.966760993E0,-9.571892738E0,-8.253024220E-1
5.831749947E0,1.811147332E0,-9.607391357E0,-7.669062018E-1
5.851934947E0,1.700269222E0,-9.631851196E0,-7.119861841E-1
5.872121405E0,1.602120280E0,-9.646142960E0,-7.453305125E-1
5.892309322E0,1.483034968E0,-9.652997017E0,-8.891901970E-1
5.912498645E0,1.356666207E0,-9.657418251E0,-1.031555533E0
5.932689270E0,1.221839905E0,-9.665282249E0,-1.122410178E0
5.952900311E0,1.092210531E0,-9.676283836E0,-1.160601139E0
5.973100103E0,9.745098948E-1,-9.690320969E0,-1.148218989E0
5.993288645E0,8.905864954E-1,-9.706700325E0,-1.075745225E0
6.013471770E0,8.607273102E-1,-9.720833778E0,-9.669113755E-1
6.033655311E0,8.614126444E-1,-9.729315758E0,-8.767988086E-1
6.053839374E0,8.807270527E-1,-9.731268883E0,-8.349258900E-1
6.074024165E0,8.970073462E-1,-9.730250359E0,-8.294550776E-1
6.094209790E0,9.061387777E-1,-9.729080200E0,-8.332443237E-1
6.114396353E0,9.090629816E-1,-9.729393005E0,-8.263797760E-1
6.134583853E0,8.945178390E-1,-9.732056618E0,-8.107391596E-1
6.154772395E0,8.650392294E-1,-9.736280441E0,-7.917904854E-1
6.174961874E0,8.354459405E-1,-9.740636826E0,-7.696963549E-1
6.195152186E0,8.159635663E-1,-9.744139671E0,-7.458831072E-1
6.215343228E0,8.096199632E-1,-9.745783806E0,-7.311662436E-1
6.235534895E0,8.150843978E-1,-9.744945526E0,-7.362553477E-1
6.255727082E0,8.293173313E-1,-9.741834641E0,-7.611094713E-1
6.275919582E0,8.535040021E-1,-9.736739159E0,-7.986412644E-1
6.296112290E0,8.662837148E-1,-9.733460426E0,-8.244386315E-1
6.316315832E0,8.669230938E-1,-9.732938766E0,-8.298935890E-1
6.336494895E0,8.618137240E-1,-9.733858109E0,-8.244212270E-1
6.356674270E0,8.536362648E-1,-9.734401703E0,-8.265110850E-1
6.376854374E0,8.457511663E-1,-9.733994484E0,-8.393148184E-1
6.397035520E0,8.397409916E-1,-9.733983994E0,-8.454332948E-1
6.417217915E0,8.493106365E-1,-9.733977318E0,-8.359128237E-1
6.437401770E0,8.617855310E-1,-9.734166145E0,-8.208065033E-1
6.457587186E0,8.644739389E-1,-9.734688759E0,-8.117330074E-1
6.477774270E0,8.599681854E-1,-9.734741211E0,-8.158755302E-1
6.497963020E0,8.523080945E-1,-9.734331131E0,-8.287063241E-1
6.518153332E0,8.385391831E-1,-9.734972000E0,-8.352022171E-1
6.538345103E0,8.055351973E-1,-9.739471436E0,-8.149895668E-1
6.558538124E0,7.669074535E-1,-9.745856285E0,-7.749353051E-1
6.578732186E0,7.428467870E-1,-9.750506401E0,-7.390551567E-1
6.598927082E0,7.356294990E-1,-9.752678871E0,-7.172884941E-1
6.619122499E0,7.393552661E-1,-9.753482819E0,-7.023730278E-1
6.639318124E0,7.507789135E-1,-9.754561424E0,-6.747217774E-1
6.659513124E0,7.673069835E-1,-9.755828857E0,-6.367250681E-1
6.679701874E0,7.822096348E-1,-9.756865501E0,-6.017571688E-1
6.699890520E0,7.938694954E-1,-9.757715225E0,-5.719779134E-1
6.720073749E0,8.086448312E-1,-9.758522987E0,-5.363703966E-1
6.740257395E0,8.358691335E-1,-9.759889603E0,-4.650274813E-1
6.760441561E0,8.760862947E-1,-9.761189461E0,-3.493276834E-1
6.780626457E0,8.548886776E-1,-9.765585899E0,-2.699819505E-1
6.800812186E0,8.113389015E-1,-9.769852638E0,-2.491886020E-1
6.820998853E0,7.828807235E-1,-9.772010803E0,-2.555158436E-1
6.841186457E0,7.599199414E-1,-9.773434639E0,-2.699709535E-1
6.861374999E0,7.439941168E-1,-9.774291992E0,-2.829493284E-1
6.881564478E0,7.326105237E-1,-9.775160789E0,-2.826641202E-1
6.901754790E0,7.302009463E-1,-9.775734901E0,-2.686964571E-1
6.921945936E0,7.363063693E-1,-9.775577545E0,-2.575332224E-1
6.942137707E0,7.453354597E-1,-9.774943352E0,-2.556247413E-1
6.962346561E0,7.586256266E-1,-9.773975372E0,-2.535489798E-1
6.982528853E0,7.759298682E-1,-9.772737503E0,-2.488403916E-1
7.002711457E0,7.958091497E-1,-9.771286011E0,-2.429665476E-1
7.022894582E0,8.204602003E-1,-9.769383430E0,-2.374318391E-1
7.043078436E0,8.504024148E-1,-9.766814232E0,-2.377958745E-1
7.063263228E0,8.797634840E-1,-9.764058113E0,-2.441124320E-1
7.083449061E0,9.070224762E-1,-9.761411667E0,-2.500939071E-1
7.103635988E0,9.303364754E-1,-9.759140968E0,-2.530191243E-1
7.123824061E0,9.489658475E-1,-9.757412910E0,-2.504805923E-1
7.144013280E0,9.703236818E-1,-9.755451202E0,-2.450137287E-1
7.164203592E0,9.988002777E-1,-9.752862930E0,-2.333614826E-1
7.184394895E0,1.046308756E0,-9.748624802E0,-1.998420954E-1
7.204587030E0,1.116107106E0,-9.742243767E0,-1.156975850E-1
7.224779790E0,1.179080248E0,-9.735509872E0,-9.266267298E-4
7.244972967E0,1.206233144E0,-9.731823921E0,8.365060389E-2
7.265166405E0,1.215778112E0,-9.730302811E0,1.161024868E-1
7.285365363E0,1.214931130E0,-9.730566978E0,1.019016132E-1
7.305556561E0,1.197258949E0,-9.733044624E0,6.938081980E-2
7.325734790E0,1.169274330E0,-9.736598015E0,4.276345670E-2
7.345913592E0,1.143158674E0,-9.739762306E0,2.466640063E-2
7.366093332E0,1.120622396E0,-9.742404938E0,1.115825772E-2
7.386274374E0,1.101421595E0,-9.744601250E0,1.307818340E-3
7.406456978E0,1.090270996E0,-9.745854378E0,-4.970021546E-3
7.426641301E0,1.087892532E0,-9.746120453E0,-4.456434399E-3
7.446827447E0,1.090270638E0,-9.745854378E0,4.066037945E-3
7.467015467E0,1.095781207E0,-9.745225906E0,1.500505581E-2
7.487205311E0,1.103740931E0,-9.744312286E0,2.289626747E-2
7.507396822E0,1.115372658E0,-9.742960930E0,3.248554841E-2
7.527589790E0,1.129746437E0,-9.741240501E0,4.806920141E-2
7.547784009E0,1.146089077E0,-9.739215851E0,6.728059798E-2
7.567979217E0,1.162231207E0,-9.737186432E0,8.252357692E-2
7.588175103E0,1.171574235E0,-9.736000061E0,9.012629092E-2
7.608371353E0,1.170421958E0,-9.736123085E0,9.167394787E-2
7.628567290E0,1.161060929E0,-9.737272263E0,8.859132230E-2
7.648759426E0,1.148343325E0,-9.738847733E0,8.086382598E-2
7.668945467E0,1.136667490E0,-9.740291595E0,7.133833319E-2
7.689129009E0,1.129748225E0,-9.741133690E0,6.610988826E-2
7.709313020E0,1.130589962E0,-9.741030693E0,6.679961085E-2
7.729497655E0,1.136805534E0,-9.740298271E0,6.815006584E-2
7.749683072E0,1.141402721E0,-9.739771843E0,6.662288308E-2
7.769869374E0,1.135952473E0,-9.740436554E0,6.232393160E-2
7.790056613E0,1.126135230E0,-9.741628647E0,5.371712521E-2
7.810244790E0,1.121246815E0,-9.742251396E0,4.180195928E-2
7.830433905E0,1.123164177E0,-9.742072105E0,3.026101738E-2
7.850623905E0,1.125745535E0,-9.741799355E0,2.075411752E-2
7.870814686E0,1.122629285E0,-9.742173195E0,1.195131335E-2
7.891006145E0,1.114881992E0,-9.743069649E0,4.350590520E-3
7.911198176E0,1.108616233E0,-9.743784904E0,-2.201455180E-3
7.931390624E0,1.106272697E0,-9.744048119E0,-8.433056064E-3
7.951607395E0,1.102828026E0,-9.744435310E0,-1.152749639E-2
7.971779270E0,1.096068740E0,-9.745199203E0,-1.095481589E-2
7.991951770E0,1.087471724E0,-9.746161461E0,-1.099117380E-2
8.012125520E0,1.080521822E0,-9.746931076E0,-1.377228461E-2
8.032301040E0,1.077361703E0,-9.747275352E0,-1.746397465E-2
8.052478853E0,1.076633334E0,-9.747348785E0,-2.080472559E-2
8.072659270E0,1.077935696E0,-9.747195244E0,-2.507185936E-2
8.092842499E0,1.080831766E0,-9.746855736E0,-3.141694143E-2
8.113028645E0,1.085208774E0,-9.746339798E0,-3.972182423E-2
8.133217707E0,1.089842200E0,-9.745787621E0,-4.751298949E-2
8.153409582E0,1.095129848E0,-9.745153427E0,-5.544795096E-2
8.173604061E0,1.101747155E0,-9.744355202E0,-6.373648345E-2
8.193800728E0,1.108219028E0,-9.743569374E0,-7.129707187E-2
8.213999165E0,1.112670183E0,-9.743012428E0,-7.781548798E-2
8.234198957E0,1.116014481E0,-9.742588043E0,-8.297169209E-2
8.254399582E0,1.118716478E0,-9.742244720E0,-8.681898564E-2
8.274600520E0,1.120703340E0,-9.741991043E0,-8.940666914E-2
8.294799165E0,1.121166468E0,-9.741918564E0,-9.159643948E-2
8.314987915E0,1.121530533E0,-9.741854668E0,-9.404271841E-2
8.335187499E0,1.121955276E0,-9.741779327E0,-9.671367705E-2
8.355365415E0,1.122336984E0,-9.741716385E0,-9.844274819E-2
8.375543749E0,1.121931791E0,-9.741768837E0,-9.791589528E-2
8.395722915E0,1.120383978E0,-9.741959572E0,-9.676647931E-2
8.415903228E0,1.117599726E0,-9.742298126E0,-9.477363527E-2
8.436084999E0,1.114861488E0,-9.742645264E0,-9.131155908E-2
8.456268436E0,1.112532735E0,-9.742945671E0,-8.761946857E-2
8.476453645E0,1.110765338E0,-9.743157387E0,-8.635958284E-2
8.496640728E0,1.111624837E0,-9.743044853E0,-8.812040836E-2
8.516829686E0,1.114809155E0,-9.742640495E0,-9.240233153E-2
8.537020415E0,1.118558645E0,-9.742158890E0,-9.781849384E-2
8.557212811E0,1.122994661E0,-9.741594315E0,-1.030082852E-1
8.577406665E0,1.127181649E0,-9.741079330E0,-1.059568673E-1
8.597601665E0,1.129004955E0,-9.740863800E0,-1.062975004E-1
8.617797499E0,1.128631473E0,-9.740922928E0,-1.047994867E-1
8.637993853E0,1.126881123E0,-9.741147995E0,-1.027430594E-1
8.658190415E0,1.124923825E0,-9.741390228E0,-1.012027264E-1
8.678385520E0,1.122715831E0,-9.741649628E0,-1.008061618E-1
8.698574270E0,1.120593667E0,-9.741893768E0,-1.008651778E-1
8.718757603E0,1.119026661E0,-9.742069244E0,-1.013367102E-1
8.738941353E0,1.118993521E0,-9.742070198E0,-1.015862450E-1
8.759125624E0,1.119799852E0,-9.741981506E0,-1.011916846E-1
8.779310624E0,1.120615602E0,-9.741889954E0,-1.009449214E-1
8.799496457E0,1.122579217E0,-9.741666794E0,-1.006817818E-1
8.819683228E0,1.124587178E0,-9.741428375E0,-1.012998596E-1
8.839870936E0,1.125575542E0,-9.741311073E0,-1.016221493E-1
8.860059582E0,1.126175165E0,-9.741248131E0,-1.009073928E-1
8.880249165E0,1.126572132E0,-9.741212845E0,-9.996040910E-2
8.900439582E0,1.125984907E0,-9.741289139E0,-9.904459864E-2
8.920630728E0,1.125171661E0,-9.741406441E0,-9.688915312E-2
8.940822499E0,1.124585509E0,-9.741497040E0,-9.444079548E-2
8.961033645E0,1.124264002E0,-9.741544724E0,-9.334123135E-2
8.981211770E0,1.125834465E0,-9.741364479E0,-9.327629209E-2
9.001390520E0,1.128439307E0,-9.741064072E0,-9.327016026E-2
9.021570259E0,1.130820155E0,-9.740791321E0,-9.280431271E-2
9.041751301E0,1.133493185E0,-9.740497589E0,-9.104046971E-2
9.061933905E0,1.135902524E0,-9.740231514E0,-8.941246569E-2
9.082118228E0,1.137793899E0,-9.740018845E0,-8.862491697E-2
9.102304374E0,1.139147282E0,-9.739862442E0,-8.834297955E-2
9.122492395E0,1.140396118E0,-9.739717484E0,-8.835238218E-2
9.157826926E0,1.142384171E0,-9.739474297E0,-8.925200254E-2
9.159194738E0,1.141831279E0,-9.739543915E0,-8.882293850E-2
9.178800155E0,1.141677380E0,-9.739571571E0,-8.777496964E-2
9.198402863E0,1.141724706E0,-9.739585876E0,-8.559063077E-2
9.218020884E0,1.142402053E0,-9.739530563E0,-8.279003203E-2
9.237676405E0,1.143962622E0,-9.739371300E0,-7.993944734E-2
9.257389270E0,1.144854546E0,-9.739287376E0,-7.738912851E-2
9.277176197E0,1.145000339E0,-9.739282608E0,-7.566041499E-2
9.297050311E0,1.144683957E0,-9.739326477E0,-7.491975278E-2
9.317020728E0,1.144635320E0,-9.739341736E0,-7.362844050E-2
9.337092290E0,1.144489408E0,-9.739381790E0,-7.051256299E-2
9.357265676E0,1.143308997E0,-9.739548683E0,-6.637509912E-2
9.377537395E0,1.141263127E0,-9.739809990E0,-6.334634125E-2
9.397900207E0,1.140542746E0,-9.739908218E0,-6.105965003E-2
9.418300207E0,1.141733527E0,-9.739786148E0,-5.831705034E-2
9.438705624E0,1.143145323E0,-9.739630699E0,-5.667435378E-2
9.459105624E0,1.144305348E0,-9.739492416E0,-5.697865039E-2
9.479502915E0,1.146345377E0,-9.739244461E0,-5.838626996E-2
9.499902915E0,1.148795485E0,-9.738947868E0,-5.951251462E-2
9.520308332E0,1.150823951E0,-9.738710403E0,-5.927487835E-2
9.540708332E0,1.152074099E0,-9.738561630E0,-5.924276635E-2
9.561105624E0,1.152446508E0,-9.738512039E0,-6.039844081E-2
9.581505624E0,1.152189732E0,-9.738530159E0,-6.236882508E-2
9.601911040E0,1.151466966E0,-9.738602638E0,-6.419398636E-2
9.622163801E0,1.150464535E0,-9.738712311E0,-6.555604190E-2
9.642352551E0,1.149579763E0,-9.738813400E0,-6.611599028E-2
9.662538592E0,1.149091840E0,-9.738875389E0,-6.540713459E-2
9.682724842E0,1.148787737E0,-9.738917351E0,-6.450223923E-2
9.702911353E0,1.149286509E0,-9.738854408E0,-6.509569287E-2
9.723098228E0,1.151100636E0,-9.738623619E0,-6.762292981E-2
9.743285520E0,1.153563499E0,-9.738308907E0,-7.083956152E-2
9.763473280E0,1.156281352E0,-9.737965584E0,-7.376247644E-2
9.783661509E0,1.158782601E0,-9.737653732E0,-7.555256039E-2
9.803850207E0,1.160527825E0,-9.737430573E0,-7.749609649E-2
9.824039374E0,1.161319375E0,-9.737316132E0,-8.003226668E-2
9.844229009E0,1.161448359E0,-9.737272263E0,-8.336902410E-2
9.864419009E0,1.160013556E0,-9.737409592E0,-8.724322170E-2
9.884609322E0,1.158721685E0,-9.737531662E0,-9.072473645E-2
9.904799895E0,1.158766866E0,-9.737504005E0,-9.302917868E-2
9.924990624E0,1.159088373E0,-9.737453461E0,-9.430762380E-2
9.945181457E0,1.159310102E0,-9.737423897E0,-9.461403638E-2
9.965377707E0,1.160409451E0,-9.737297058E0,-9.420824051E-2
9.985561613E0,1.163406253E0,-9.736943245E0,-9.389418364E-2
1.000574568E1,1.167034984E0,-9.736495972E0,-9.518501908E-2
1.002593010E1,1.169648528E0,-9.736157417E0,-9.773375094E-2
1.004611505E1,1.171043515E0,-9.735960007E0,-1.006044373E-1
1.006630062E1,1.172540545E0,-9.735749245E0,-1.035811156E-1
1.008648693E1,1.175081253E0,-9.735401154E0,-1.074090004E-1
1.010667406E1,1.178243279E0,-9.734966278E0,-1.120469421E-1
1.012686203E1,1.181656957E0,-9.734498978E0,-1.166479364E-1
1.014705083E1,1.185353279E0,-9.733998299E0,-1.208229512E-1
1.016724047E1,1.188891768E0,-9.733513832E0,-1.250633448E-1
1.018743083E1,1.192294478E0,-9.733042717E0,-1.292887777E-1
1.020762182E1,1.195058227E0,-9.732664108E0,-1.321899593E-1
1.022781333E1,1.195880294E0,-9.732542992E0,-1.337050349E-1
1.024800526E1,1.195875049E0,-9.732521057E0,-1.353293955E-1
1.026819745E1,1.196184158E0,-9.732443810E0,-1.380670518E-1
1.028838974E1,1.196991682E0,-9.732299805E0,-1.412138641E-1
1.030858187E1,1.197305083E0,-9.732224464E0,-1.436711997E-1
1.032877068E1,1.196175814E0,-9.732342720E0,-1.451655328E-1
1.034895943E1,1.194036126E0,-9.732591629E0,-1.460919380E-1
1.036914547E1,1.190899253E0,-9.732977867E0,-1.459144652E-1
1.038933172E1,1.187627196E0,-9.733416557E0,-1.432533264E-1
1.040951823E1,1.185058117E0,-9.733798981E0,-1.385196745E-1
1.042970510E1,1.182303548E0,-9.734187126E0,-1.346590370E-1
1.044989240E1,1.178872943E0,-9.734621048E0,-1.334229708E-1
1.047008016E1,1.176560998E0,-9.734873772E0,-1.353692263E-1
1.049026838E1,1.176580429E0,-9.734810829E0,-1.397030950E-1
1.051045708E1,1.178324461E0,-9.734524727E0,-1.448148936E-1
1.053064625E1,1.180276871E0,-9.734230042E0,-1.486377865E-1
1.055083583E1,1.180925012E0,-9.734113693E0,-1.510573179E-1
1.057102583E1,1.180974841E0,-9.734083176E0,-1.526549011E-1
1.059121614E1,1.181468010E0,-9.733992577E0,-1.546006799E-1
1.061140672E1,1.182050824E0,-9.733883858E0,-1.570129991E-1
1.063159745E1,1.182760239E0,-9.733752251E0,-1.597531736E-1
1.065178828E1,1.183998227E0,-9.733549118E0,-1.629778892E-1
1.067198453E1,1.186230779E0,-9.733209610E0,-1.668916643E-1
1.069216844E1,1.189238071E0,-9.732775688E0,-1.707604676E-1
1.071235250E1,1.192286849E0,-9.732349396E0,-1.738528311E-1
1.073253693E1,1.194749117E0,-9.732008934E0,-1.759591103E-1
1.075272187E1,1.196483731E0,-9.731759071E0,-1.780221760E-1
1.077290745E1,1.198094010E0,-9.731507301E0,-1.809121221E-1
1.079309375E1,1.200209498E0,-9.731177330E0,-1.845933050E-1
1.081328088E1,1.202340961E0,-9.730827332E0,-1.890811324E-1
1.083346885E1,1.203833699E0,-9.730543137E0,-1.941936016E-1
1.085365766E1,1.204737544E0,-9.730332375E0,-1.990934610E-1
1.087384729E1,1.204832792E0,-9.730225563E0,-2.036851943E-1
1.089403766E1,1.204002380E0,-9.730241776E0,-2.077494413E-1
1.091422865E1,1.202888131E0,-9.730316162E0,-2.107333988E-1
1.093442016E1,1.202396393E0,-9.730336189E0,-2.126204520E-1
1.095461208E1,1.202447772E0,-9.730279922E0,-2.148524970E-1
1.097480427E1,1.201802611E0,-9.730287552E0,-2.181206197E-1
1.099499656E1,1.200730085E0,-9.730319023E0,-2.225514948E-1
1.101518870E1,1.200548530E0,-9.730212212E0,-2.281493098E-1
1.103537745E1,1.201609850E0,-9.729949951E0,-2.336540073E-1
1.105556349E1,1.202515960E0,-9.729745865E0,-2.374459952E-1
1.107574974E1,1.202215672E0,-9.729748726E0,-2.388430834E-1
1.109593625E1,1.200999141E0,-9.729905128E0,-2.386354506E-1
1.111612312E1,1.199306488E0,-9.730136871E0,-2.376607656E-1
1.113631042E1,1.196538210E0,-9.730542183E0,-2.350055873E-1
1.115649818E1,1.191614747E0,-9.731278419E0,-2.294843495E-1
1.117668640E1,1.183598757E0,-9.732430458E0,-2.219771147E-1
1.119687510E1,1.174807549E0,-9.733654022E0,-2.149171531E-1
1.121706427E1,1.170613170E0,-9.734226227E0,-2.118760198E-1
1.124236963E1,1.175016880E0,-9.733609200E0,-2.158454955E-1
1.126238713E1,1.178470373E0,-9.733041763E0,-2.224957049E-1
1.128241786E1,1.172644019E0,-9.733549118E0,-2.309134603E-1
1.130246755E1,1.163642168E0,-9.734454155E0,-2.381552458E-1
1.132254109E1,1.158653140E0,-9.734987259E0,-2.407008260E-1
1.134264213E1,1.161885977E0,-9.734535217E0,-2.433738261E-1
1.136277307E1,1.169091702E0,-9.733522415E0,-2.493008971E-1
1.138293505E1,1.177334189E0,-9.732360840E0,-2.558099031E-1
1.140312786E1,1.182381153E0,-9.731578827E0,-2.621673048E-1
1.142335016E1,1.182202220E0,-9.731469154E0,-2.670294046E-1
1.144359932E1,1.176928759E0,-9.732065201E0,-2.685416639E-1
1.146389266E1,1.169074059E0,-9.733036995E0,-2.676609755E-1
1.148420349E1,1.161855817E0,-9.733962059E0,-2.654379606E-1
1.150452620E1,1.156270504E0,-9.734705925E0,-2.625358999E-1
1.152485495E1,1.151398897E0,-9.735297203E0,-2.620372176E-1
1.154515240E1,1.146369815E0,-9.735773087E0,-2.663892508E-1
1.156537906E1,1.141919255E0,-9.736095428E0,-2.736152709E-1
1.158556510E1,1.137352347E0,-9.736419678E0,-2.810129523E-1
1.160574864E1,1.133410096E0,-9.736662865E0,-2.883838713E-1
1.162593266E1,1.130500197E0,-9.736790657E0,-2.954317629E-1
1.164611729E1,1.129686236E0,-9.736701965E0,-3.013788462E-1
1.166630271E1,1.130483747E0,-9.736489296E0,-3.052383959E-1
1.168648901E1,1.130478740E0,-9.736394882E0,-3.082371652E-1
1.170667625E1,1.131081462E0,-9.736193657E0,-3.123660982E-1
1.172686443E1,1.134945393E0,-9.735517502E0,-3.193357587E-1
1.174705354E1,1.142108679E0,-9.734388351E0,-3.281072676E-1
1.176724354E1,1.150516868E0,-9.733123779E0,-3.361504376E-1
1.178743432E1,1.158479095E0,-9.731932640E0,-3.432298005E-1
1.180762578E1,1.165934563E0,-9.730818748E0,-3.494805396E-1
1.182781781E1,1.169076800E0,-9.730251312E0,-3.547458351E-1
1.184801026E1,1.168065906E0,-9.730216026E0,-3.590548635E-1
1.186820297E1,1.162916183E0,-9.730796814E0,-3.600175381E-1
1.188840120E1,1.152378917E0,-9.732205391E0,-3.557982445E-1
1.190859271E1,1.139229417E0,-9.734093666E0,-3.463734388E-1
1.192877224E1,1.126199245E0,-9.736149788E0,-3.308245242E-1
1.194885255E1,1.114564538E0,-9.738279343E0,-3.066701293E-1
1.196884198E1,1.099420667E0,-9.740931511E0,-2.755280435E-1
1.198885182E1,1.081749439E0,-9.743879318E0,-2.387934774E-1
1.200888838E1,1.070423841E0,-9.745842934E0,-2.076791674E-1
1.202895672E1,1.063555360E0,-9.747024536E0,-1.864420027E-1
1.204906036E1,1.060382843E0,-9.747606277E0,-1.736152768E-1
1.206920130E1,1.058605194E0,-9.747884750E0,-1.687854975E-1
1.208938000E1,1.054916024E0,-9.748247147E0,-1.709222347E-1
1.210959536E1,1.044360876E0,-9.749277115E0,-1.769257039E-1
1.212984484E1,1.025392652E0,-9.751131058E0,-1.855085045E-1
1.215012463E1,1.003511906E0,-9.753232956E0,-1.944181621E-1
1.217042990E1,9.834278822E-1,-9.755165100E0,-2.000622153E-1
1.219075495E1,9.662324190E-1,-9.756883621E0,-2.000337392E-1
1.221109354E1,9.525971413E-1,-9.758301735E0,-1.961949319E-1
1.223143911E1,9.464277625E-1,-9.758976936E0,-1.924576908E-1
1.225175208E1,9.505659938E-1,-9.758625984E0,-1.898368895E-1
1.227198578E1,9.631538391E-1,-9.757410049E0,-1.888606846E-1
1.229217458E1,9.809467196E-1,-9.755606651E0,-1.904469579E-1
1.231236062E1,9.997983575E-1,-9.753637314E0,-1.932877302E-1
1.233254417E1,1.014415503E0,-9.752058029E0,-1.967802644E-1
1.235272818E1,1.023328066E0,-9.751037598E0,-2.011259347E-1
1.237291281E1,1.026901126E0,-9.750474930E0,-2.099997699E-1
1.239309823E1,1.024900436E0,-9.750366211E0,-2.243240774E-1
1.241328453E1,1.021873593E0,-9.750329971E0,-2.392280400E-1
1.243347177E1,1.020246267E0,-9.750279427E0,-2.480727285E-1
1.245367667E1,1.019650817E0,-9.750332832E0,-2.483886182E-1
1.247387344E1,1.024314165E0,-9.750040054E0,-2.405819744E-1
1.249406219E1,1.036022902E0,-9.749154091E0,-2.259706557E-1
1.251426177E1,1.054147482E0,-9.747708321E0,-2.033231556E-1
1.253443969E1,1.063458562E0,-9.747340202E0,-1.696819663E-1
1.255461802E1,1.051118493E0,-9.749308586E0,-1.285775602E-1
1.257479719E1,1.014618278E0,-9.753642082E0,-8.606523275E-2
1.259497750E1,1.007285714E0,-9.754605293E0,-5.869111419E-2
1.261515927E1,1.005575895E0,-9.754849434E0,-4.594996199E-2
1.263534271E1,1.009899020E0,-9.754392624E0,-4.819081724E-2
1.265552792E1,1.012666106E0,-9.754026413E0,-6.208933890E-2
1.267571500E1,1.009781003E0,-9.754172325E0,-8.269792050E-2
1.269590396E1,1.002111912E0,-9.754689217E0,-1.103867739E-1
1.271609469E1,9.987828135E-1,-9.754549026E0,-1.469522417E-1
1.273628708E1,1.005273938E0,-9.753181458E0,-1.877651513E-1
1.275648094E1,1.015821099E0,-9.751195908E0,-2.295223325E-1
1.277667594E1,1.028934598E0,-9.748885155E0,-2.663366497E-1
1.279687177E1,1.042686224E0,-9.746602058E0,-2.948487997E-1
1.281706812E1,1.055096149E0,-9.744410515E0,-3.219036758E-1
1.283726469E1,1.066254377E0,-9.742291451E0,-3.482190967E-1
1.285745979E1,1.074740767E0,-9.740601540E0,-3.687759638E-1
1.287764854E1,1.076766610E0,-9.740030289E0,-3.778328300E-1
1.289783187E1,1.068974972E0,-9.741026878E0,-3.742742240E-1
1.291801562E1,1.043594003E0,-9.744235039E0,-3.621888161E-1
1.293819990E1,9.956145287E-1,-9.749915123E0,-3.439418375E-1
1.295838490E1,9.411619902E-1,-9.756409645E0,-3.115602434E-1
1.297857073E1,8.939743042E-1,-9.762129784E0,-2.683913708E-1
1.299875750E1,8.508695364E-1,-9.766967773E0,-2.296815962E-1
1.301894521E1,8.073753715E-1,-9.771102905E0,-2.099414170E-1
1.303913385E1,7.622701526E-1,-9.774554253E0,-2.178000659E-1
1.305932344E1,7.098912001E-1,-9.777695656E0,-2.512392104E-1
1.307951385E1,6.548431516E-1,-9.780357361E0,-2.935592830E-1
1.309970500E1,6.138284802E-1,-9.782044411E0,-3.243370950E-1
1.311989677E1,5.891123414E-1,-9.783299446E0,-3.322416842E-1
1.314008906E1,5.725561976E-1,-9.784705162E0,-3.195621669E-1
1.316028167E1,5.650500059E-1,-9.785795212E0,-2.988398075E-1
1.318047448E1,5.687467456E-1,-9.786031723E0,-2.837067842E-1
1.320067812E1,5.827244520E-1,-9.785288811E0,-2.809813023E-1
1.322085729E1,6.056414247E-1,-9.783577919E0,-2.918989062E-1
1.324103677E1,6.317217350E-1,-9.781164169E0,-3.164414167E-1
1.326121698E1,6.506756544E-1,-9.778729439E0,-3.513753116E-1
1.328139823E1,6.553223133E-1,-9.776987076E0,-3.891729414E-1
1.330158073E1,6.485688090E-1,-9.776070595E0,-4.221279919E-1
1.332176469E1,6.363108158E-1,-9.775854111E0,-4.451714754E-1
1.334195021E1,6.227555871E-1,-9.776139259E0,-4.578880966E-1
1.336213740E1,6.093245149E-1,-9.776625633E0,-4.655083120E-1
1.338232625E1,5.996230841E-1,-9.776844025E0,-4.734466970E-1
1.340251666E1,5.940266252E-1,-9.776736259E0,-4.826474488E-1
1.342270854E1,5.906230211E-1,-9.776479721E0,-4.919357300E-1
1.344290166E1,5.875480175E-1,-9.776242256E0,-5.002608895E-1
1.346311713E1,5.841700435E-1,-9.776000023E0,-5.088898540E-1
1.348331094E1,5.792437196E-1,-9.775805473E0,-5.181668401E-1
1.350349698E1,5.744809508E-1,-9.775670052E0,-5.259731412E-1
1.352368052E1,5.702328086E-1,-9.775621414E0,-5.314663053E-1
1.354386453E1,5.666086078E-1,-9.775549889E0,-5.366418362E-1
1.356404916E1,5.643879771E-1,-9.775328636E0,-5.429770350E-1
1.358423458E1,5.632830262E-1,-9.775005341E0,-5.498800874E-1
1.360442088E1,5.619719028E-1,-9.774685860E0,-5.568567514E-1
1.362460812E1,5.593791604E-1,-9.774418831E0,-5.641208291E-1
1.364479630E1,5.567477345E-1,-9.774060249E0,-5.728487372E-1
1.366498542E1,5.560391545E-1,-9.773423195E0,-5.843117833E-1
1.368517542E1,5.582861304E-1,-9.772495270E0,-5.975218415E-1
1.370536620E1,5.734055042E-1,-9.770883560E0,-6.094444394E-1
1.372555766E1,5.914047956E-1,-9.769487381E0,-6.145952344E-1
1.374574969E1,6.070360541E-1,-9.768437386E0,-6.160669923E-1
1.376594213E1,6.182376742E-1,-9.767600060E0,-6.181972623E-1
1.378613484E1,6.254316568E-1,-9.766850471E0,-6.227836013E-1
1.380633307E1,6.280854940E-1,-9.766164780E0,-6.308181882E-1
1.382652437E1,6.278299689E-1,-9.765393257E0,-6.428846121E-1
1.384670349E1,6.269494891E-1,-9.764377594E0,-6.589674950E-1
1.386688312E1,6.260995269E-1,-9.763128281E0,-6.780274510E-1
1.388706365E1,6.228703260E-1,-9.761953354E0,-6.976372004E-1
1.390724531E1,6.161040068E-1,-9.761237144E0,-7.134831548E-1
1.392742833E1,6.084038019E-1,-9.760946274E0,-7.239894271E-1
1.394761292E1,6.029790044E-1,-9.760688782E0,-7.319582701E-1
1.396779916E1,6.015428305E-1,-9.760229111E0,-7.392343283E-1
1.398798708E1,6.033682227E-1,-9.759764671E0,-7.438462377E-1
1.400817666E1,6.064543128E-1,-9.759372711E0,-7.464973927E-1
1.402836781E1,6.135174632E-1,-9.758799553E0,-7.482068539E-1
1.404856036E1,6.325328946E-1,-9.757682800E0,-7.469437122E-1
1.406875411E1,6.615095139E-1,-9.755496979E0,-7.503842115E-1
1.408894880E1,6.906799078E-1,-9.752659798E0,-7.609165907E-1
1.410914416E1,7.123279572E-1,-9.749803543E0,-7.773704529E-1
1.412933990E1,7.261913419E-1,-9.747337341E0,-7.952649593E-1
1.414953562E1,7.286770940E-1,-9.745749474E0,-8.122740388E-1
1.416972781E1,7.278424501E-1,-9.745316505E0,-8.181960583E-1
1.418991385E1,7.322071195E-1,-9.744920731E0,-8.190143704E-1
1.421009740E1,7.387976050E-1,-9.742881775E0,-8.371520638E-1
1.423028141E1,7.379191518E-1,-9.739279747E0,-8.788065910E-1
1.425046604E1,7.332093716E-1,-9.735411644E0,-9.244114161E-1
1.427065146E1,7.338157296E-1,-9.731584549E0,-9.634216428E-1
1.429083776E1,7.425035238E-1,-9.727823257E0,-9.942549467E-1
1.431102500E1,7.595769763E-1,-9.724678040E0,-1.011961222E0
1.433121318E1,7.788369060E-1,-9.722481728E0,-1.018402457E0
1.435140229E1,7.966763377E-1,-9.720961571E0,-1.019118071E0
1.437159229E1,8.116530776E-1,-9.719308853E0,-1.023055792E0
1.439178307E1,8.193951249E-1,-9.717302322E0,-1.035861492E0
1.441197453E1,8.188765645E-1,-9.715884209E0,-1.049488664E0
1.443216656E1,8.168053031E-1,-9.715162277E0,-1.057745337E0
1.445238042E1,8.153456450E-1,-9.714597702E0,-1.064050794E0
1.447255854E1,8.165348172E-1,-9.713716507E0,-1.071155071E0
1.449273708E1,8.195906281E-1,-9.712590218E0,-1.079005957E0
1.451291635E1,8.258197308E-1,-9.711112022E0,-1.087522388E0
1.453312521E1,8.370197415E-1,-9.708831787E0,-1.099259257E0
1.455331833E1,8.558872342E-1,-9.705513000E0,-1.113944530E0
1.457350703E1,8.788700700E-1,-9.701394081E0,-1.131782293E0
1.459368604E1,8.959498405E-1,-9.697596550E0,-1.150770068E0
1.461386557E1,8.980956078E-1,-9.695885658E0,-1.163447261E0
1.463404599E1,8.908411264E-1,-9.696035385E0,-1.167766213E0
1.465422760E1,8.858083487E-1,-9.696450233E0,-1.168159366E0
1.467441062E1,8.891474605E-1,-9.695518494E0,-1.173335910E0
1.469459521E1,8.975850940E-1,-9.693327904E0,-1.184949160E0
1.471478146E1,9.047051668E-1,-9.691323280E0,-1.195883512E0
1.473496937E1,9.121863842E-1,-9.689818382E0,-1.202381492E0
1.475515896E1,9.239418507E-1,-9.688629150E0,-1.202992439E0
1.477535010E1,9.421195984E-1,-9.687512398E0,-1.197862506E0
1.479554266E1,9.585807920E-1,-9.686111450E0,-1.196150064E0
1.481573640E1,9.683678746E-1,-9.684953690E0,-1.197627187E0
1.483593109E1,9.723175168E-1,-9.683952332E0,-1.202516437E0
1.485612646E1,9.721136093E-1,-9.682793617E0,-1.211978316E0
1.487632219E1,9.700201154E-1,-9.681606293E0,-1.223095655E0
1.489651792E1,9.670121670E-1,-9.680628777E0,-1.233162999E0
1.491671010E1,9.655670524E-1,-9.679940224E0,-1.239685774E0
1.493689880E1,9.702981710E-1,-9.679106712E0,-1.242495775E0
1.495709375E1,9.826642275E-1,-9.677666664E0,-1.243994117E0
1.497727615E1,1.006530404E0,-9.675105095E0,-1.244836569E0
1.499745875E1,1.039003491E0,-9.671653748E0,-1.244976759E0
1.501764177E1,1.071422458E0,-9.668141365E0,-1.244784594E0
1.503782542E1,1.094799757E0,-9.665316582E0,-1.246376634E0
1.505800990E1,1.104836345E0,-9.663908958E0,-1.248434067E0
1.507819531E1,1.102238774E0,-9.664036751E0,-1.249742985E0
1.509838177E1,1.095341682E0,-9.664827347E0,-1.249691129E0
1.511856937E1,1.088900208E0,-9.665713310E0,-1.248471618E0
1.513875812E1,1.082956791E0,-9.666769028E0,-1.245456338E0
1.515894792E1,1.077141881E0,-9.668336868E0,-1.238312840E0
1.517913864E1,1.068503380E0,-9.670865059E0,-1.225991368E0
1.519933021E1,1.055949688E0,-9.674420357E0,-1.208699584E0
1.521952250E1,1.044581532E0,-9.678102493E0,-1.188933969E0
1.523971531E1,1.035162807E0,-9.681891441E0,-1.166110039E0
1.525990844E1,1.023846030E0,-9.685527802E0,-1.145721793E0
1.528010166E1,1.010796070E0,-9.688603401E0,-1.131212711E0
1.530028948E1,1.001164436E0,-9.690903664E0,-1.120014429E0
1.532047750E1,9.971911907E-1,-9.692300797E0,-1.111445904E0
1.534066573E1,9.966911674E-1,-9.692922592E0,-1.106450915E0
1.536085417E1,9.940268397E-1,-9.694016457E0,-1.099249005E0
1.538104281E1,9.887866378E-1,-9.695517540E0,-1.090693235E0
1.540123167E1,9.820533395E-1,-9.697196007E0,-1.081824064E0
1.542142073E1,9.800882339E-1,-9.698776245E0,-1.069369793E0
1.544161000E1,9.864686131E-1,-9.700012207E0,-1.052150249E0
1.546181437E1,9.926733971E-1,-9.700837135E0,-1.038629770E0
1.548198411E1,9.841201901E-1,-9.702126503E0,-1.034714341E0
1.550215495E1,9.644576311E-1,-9.704316139E0,-1.032691240E0
1.552232755E1,9.456116557E-1,-9.706212997E0,-1.032297969E0
1.554250250E1,9.345949292E-1,-9.706317902E0,-1.041302800E0
1.556268026E1,9.321581125E-1,-9.705021858E0,-1.055475473E0
1.558286114E1,9.354824424E-1,-9.703605652E0,-1.065505028E0
1.560304531E1,9.432718754E-1,-9.702237129E0,-1.071084142E0
1.562323281E1,9.528314471E-1,-9.700425148E0,-1.079003692E0
1.564342354E1,9.644891024E-1,-9.698253632E0,-1.088130951E0
1.566361729E1,9.772865176E-1,-9.696321487E0,-1.093904853E0
1.568381375E1,9.860407114E-1,-9.695282936E0,-1.095259666E0
1.570401250E1,9.909450412E-1,-9.695440292E0,-1.089423776E0
1.572421307E1,9.903502464E-1,-9.696794510E0,-1.077852845E0
1.574441490E1,9.854720831E-1,-9.698674202E0,-1.065342188E0
1.576461740E1,9.776200652E-1,-9.700917244E0,-1.052080989E0
1.578481833E1,9.671161771E-1,-9.703636169E0,-1.036594510E0
1.580501224E1,9.514941573E-1,-9.706693649E0,-1.022326112E0
1.582520630E1,9.316712022E-1,-9.710035324E0,-1.008760452E0
1.584539500E1,9.144953489E-1,-9.713131905E0,-9.945632219E-1
1.586557312E1,9.024744034E-1,-9.715763092E0,-9.797400236E-1
1.588575182E1,8.959150314E-1,-9.717987061E0,-9.635553360E-1
1.590593146E1,8.914752603E-1,-9.720249176E0,-9.446811676E-1
1.592611240E1,8.937812448E-1,-9.722428322E0,-9.197421670E-1
1.594629490E1,9.099220634E-1,-9.724626541E0,-8.798147440E-1
1.596647911E1,9.239237309E-1,-9.727692604E0,-8.299094439E-1
1.598666516E1,9.275969863E-1,-9.731524467E0,-7.793517709E-1
1.600685307E1,9.280111790E-1,-9.734944344E0,-7.348929644E-1
1.602704281E1,9.216318727E-1,-9.737685204E0,-7.060232162E-1
1.604723427E1,9.033803344E-1,-9.740409851E0,-6.918920875E-1
1.606742729E1,8.770580888E-1,-9.743053436E0,-6.885193586E-1
1.608762161E1,8.497145176E-1,-9.745189667E0,-6.925667524E-1
1.610781693E1,8.256357908E-1,-9.746436119E0,-7.040615678E-1
1.612801292E1,8.060882092E-1,-9.746982574E0,-7.189862728E-1
1.614820927E1,7.928599119E-1,-9.747227669E0,-7.302921414E-1
1.616840505E1,7.788906097E-1,-9.748019218E0,-7.347370386E-1
1.618859693E1,7.634516954E-1,-9.749255180E0,-7.345445156E-1
1.620878286E1,7.528947592E-1,-9.749878883E0,-7.371582389E-1
1.622896630E1,7.545759082E-1,-9.749348640E0,-7.424355745E-1
1.624915021E1,7.661142349E-1,-9.748276711E0,-7.446889281E-1
1.626933474E1,7.771057487E-1,-9.748010635E0,-7.367274761E-1
1.628952005E1,7.786738276E-1,-9.749278069E0,-7.180806994E-1
1.630970625E1,7.732619643E-1,-9.751403809E0,-6.946811080E-1
1.632989338E1,7.662931681E-1,-9.753368378E0,-6.745201349E-1
1.635008146E1,7.546043992E-1,-9.755054474E0,-6.632270217E-1
1.637027047E1,7.414901257E-1,-9.756355286E0,-6.588613987E-1
1.639046036E1,7.273530960E-1,-9.757470131E0,-6.581222415E-1
1.641065104E1,7.111909986E-1,-9.758669853E0,-6.580089927E-1
1.643084240E1,6.951199770E-1,-9.760112762E0,-6.537579298E-1
1.645106161E1,6.769604087E-1,-9.761795044E0,-6.476536989E-1
1.647123818E1,6.565994620E-1,-9.763453484E0,-6.436070204E-1
1.649141516E1,6.375008225E-1,-9.764827728E0,-6.419722438E-1
1.651159297E1,6.226365566E-1,-9.765676498E0,-6.436433792E-1
1.653177203E1,6.106441617E-1,-9.766305923E0,-6.455795765E-1
1.655195276E1,5.982850194E-1,-9.767341614E0,-6.414697170E-1
1.657213536E1,5.789687634E-1,-9.769046783E0,-6.331813335E-1
1.659232005E1,5.501636267E-1,-9.770644188E0,-6.342098117E-1
1.661250682E1,5.098332167E-1,-9.771577835E0,-6.532298923E-1
1.663269568E1,4.762618542E-1,-9.769898415E0,-7.018830776E-1
1.665288651E1,4.573142827E-1,-9.764398575E0,-7.859823704E-1
1.667307922E1,4.542673826E-1,-9.756687164E0,-8.781095147E-1
1.669327349E1,4.680108130E-1,-9.750066757E0,-9.420948625E-1
1.671346911E1,4.795862138E-1,-9.746635437E0,-9.713311195E-1
1.673366568E1,4.776462615E-1,-9.746458054E0,-9.740588665E-1
1.675386286E1,4.659057558E-1,-9.747965813E0,-9.646084309E-1
1.677406036E1,4.461059868E-1,-9.749706268E0,-9.563518763E-1
1.679425651E1,4.233592749E-1,-9.751175880E0,-9.517017007E-1
1.681444516E1,4.004605114E-1,-9.753012657E0,-9.427415729E-1
1.683464463E1,3.755763471E-1,-9.756026268E0,-9.215666652E-1
1.685482245E1,3.526537120E-1,-9.760376930E0,-8.837811351E-1
1.687500068E1,3.367378712E-1,-9.765445709E0,-8.325038552E-1
1.689517974E1,3.302391469E-1,-9.770080566E0,-7.790057063E-1
1.691535995E1,3.317578435E-1,-9.773332596E0,-7.364078164E-1
1.693554161E1,3.403591514E-1,-9.775016785E0,-7.096422315E-1
1.695572495E1,3.561532199E-1,-9.775463104E0,-6.956059337E-1
1.697591005E1,3.770114779E-1,-9.775410652E0,-6.852637529E-1
1.699609703E1,4.041639864E-1,-9.775070190E0,-6.745718122E-1
1.701628588E1,4.375589192E-1,-9.774147987E0,-6.670605540E-1
1.703647651E1,4.720204175E-1,-9.772627831E0,-6.658253074E-1
1.705666880E1,5.005078912E-1,-9.770732880E0,-6.728018522E-1
1.707686245E1,5.177799463E-1,-9.768790245E0,-6.877737045E-1
1.709705724E1,5.342573524E-1,-9.766072273E0,-7.132971883E-1
1.711725286E1,5.556277633E-1,-9.762290955E0,-7.478873730E-1
1.713744901E1,5.766778588E-1,-9.758465767E0,-7.811445594E-1
1.715764536E1,5.924499035E-1,-9.755706787E0,-8.034778833E-1
1.717784068E1,6.030430794E-1,-9.754351616E0,-8.120096922E-1
1.719802932E1,6.085147262E-1,-9.754319191E0,-8.083007932E-1
1.721821255E1,6.112713218E-1,-9.755323410E0,-7.939721346E-1
1.723839620E1,6.119937301E-1,-9.757029533E0,-7.721518278E-1
1.725858036E1,6.120803356E-1,-9.759030342E0,-7.463669777E-1
1.727876526E1,6.121622324E-1,-9.761039734E0,-7.195541263E-1
1.729895099E1,6.119264960E-1,-9.762953758E0,-6.932969689E-1
1.731913766E1,6.107215881E-1,-9.764613152E0,-6.706283689E-1
1.733932526E1,6.114526987E-1,-9.765602112E0,-6.553944945E-1
1.735951380E1,6.159800887E-1,-9.765711784E0,-6.494864225E-1
1.737970328E1,6.270388365E-1,-9.764792442E0,-6.527195573E-1
1.739989359E1,6.447168589E-1,-9.763010025E0,-6.620824933E-1
1.742008463E1,6.648521423E-1,-9.760770798E0,-6.750677824E-1
1.744027630E1,6.830683947E-1,-9.758505821E0,-6.894584298E-1
1.746048885E1,7.004815340E-1,-9.756136894E0,-7.053346634E-1
1.748066297E1,7.220897079E-1,-9.753171921E0,-7.242941856E-1
1.750083786E1,7.503209710E-1,-9.749183655E0,-7.488681674E-1
1.752101406E1,7.821328044E-1,-9.744147301E0,-7.811886072E-1
1.754119203E1,8.146884441E-1,-9.738310814E0,-8.197292686E-1
1.756137213E1,8.453949094E-1,-9.732554436E0,-8.561986685E-1
1.758155463E1,8.721562624E-1,-9.728240013E0,-8.781169057E-1
1.760173969E1,8.892456293E-1,-9.726570129E0,-8.794660568E-1
1.762192734E1,8.927810788E-1,-9.727502823E0,-8.654565215E-1
1.764211755E1,8.863224387E-1,-9.730058670E0,-8.430645466E-1
1.766231010E1,8.782725334E-1,-9.733119965E0,-8.157084584E-1
1.768250474E1,8.739238977E-1,-9.736110687E0,-7.840827703E-1
1.770270115E1,8.707993627E-1,-9.739156723E0,-7.489447594E-1
1.772289890E1,8.648765087E-1,-9.742478371E0,-7.116928697E-1
1.774309760E1,8.577126265E-1,-9.745660782E0,-6.758857369E-1
1.776329682E1,8.530319929E-1,-9.747983932E0,-6.477150917E-1
1.778349510E1,8.546750546E-1,-9.749122620E0,-6.281040907E-1
1.780368797E1,8.618300557E-1,-9.749366760E0,-6.144116521E-1
1.782388193E1,8.660849333E-1,-9.749522209E0,-6.058921814E-1
1.784407057E1,8.629825115E-1,-9.750138283E0,-6.003903747E-1
1.786424870E1,8.558627963E-1,-9.751257896E0,-5.923353434E-1
1.788442740E1,8.550937176E-1,-9.752323151E0,-5.756635070E-1
1.790460703E1,8.664459586E-1,-9.752781868E0,-5.503642559E-1
1.792478797E1,8.796096444E-1,-9.752908707E0,-5.267230272E-1
1.794497047E1,8.852105141E-1,-9.752777100E0,-5.197449327E-1
1.796515469E1,8.770195842E-1,-9.752891541E0,-5.313379765E-1
1.798534073E1,8.611423969E-1,-9.753785133E0,-5.408186913E-1
1.800552865E1,8.447903395E-1,-9.755090714E0,-5.430857539E-1
1.802571838E1,8.320072293E-1,-9.756052971E0,-5.455082655E-1
1.804590979E1,8.248453140E-1,-9.756431580E0,-5.496066809E-1
1.806610266E1,8.220966458E-1,-9.756417274E0,-5.539571643E-1
1.808629677E1,8.231887817E-1,-9.755933762E0,-5.608034730E-1
1.810649187E1,8.260419965E-1,-9.755143166E0,-5.702911019E-1
1.812668766E1,8.302659392E-1,-9.754507065E0,-5.750179291E-1
1.814688380E1,8.402740359E-1,-9.753882408E0,-5.710467696E-1
1.816707953E1,8.555766344E-1,-9.753151894E0,-5.607052445E-1
1.818727146E1,8.718128800E-1,-9.752400398E0,-5.486558080E-1
1.820745740E1,8.831976056E-1,-9.751935959E0,-5.386193991E-1
1.822764083E1,8.870436549E-1,-9.751834869E0,-5.340892076E-1
1.824782474E1,8.847386241E-1,-9.752042770E0,-5.341171026E-1
1.826800927E1,8.786711693E-1,-9.752480507E0,-5.361500978E-1
1.828819458E1,8.692951202E-1,-9.753219604E0,-5.379761457E-1
1.830838078E1,8.578835130E-1,-9.754131317E0,-5.397712588E-1
1.832856792E1,8.487926126E-1,-9.754822731E0,-5.416409969E-1
1.834875599E1,8.468638062E-1,-9.754929543E0,-5.427330136E-1
1.836894500E1,8.511553407E-1,-9.754482269E0,-5.440514088E-1
1.838913490E1,8.575011492E-1,-9.753878593E0,-5.449273586E-1
1.840932557E1,8.659666181E-1,-9.753264427E0,-5.425066948E-1
1.842951693E1,8.769746423E-1,-9.752593040E0,-5.368766785E-1
1.844974052E1,8.907517195E-1,-9.751631737E0,-5.316252708E-1
1.846991177E1,9.078446031E-1,-9.750264168E0,-5.277774334E-1
1.849008365E1,9.262468815E-1,-9.748583794E0,-5.268477201E-1
1.851025677E1,9.438654780E-1,-9.746743202E0,-5.296331644E-1
1.853043177E1,9.572085738E-1,-9.745227814E0,-5.335434675E-1
1.855060906E1,9.650475979E-1,-9.744256020E0,-5.371718407E-1
1.857078906E1,9.682507515E-1,-9.743720055E0,-5.411147475E-1
1.859097198E1,9.693691730E-1,-9.743394852E0,-5.449324846E-1
1.861115792E1,9.705272317E-1,-9.743087769E0,-5.483711958E-1
1.863134687E1,9.712477326E-1,-9.742778778E0,-5.525653362E-1
1.865153875E1,9.688341022E-1,-9.742806435E0,-5.562933683E-1
1.867173323E1,9.628582597E-1,-9.743315697E0,-5.577530265E-1
1.869193000E1,9.580968618E-1,-9.743842125E0,-5.567604899E-1
1.871212864E1,9.569496512E-1,-9.744185448E0,-5.527051091E-1
1.873232865E1,9.564598799E-1,-9.744563103E0,-5.468769073E-1
1.875252948E1,9.555552602E-1,-9.744894028E0,-5.425452590E-1
1.877273062E1,9.558276534E-1,-9.744991302E0,-5.403026342E-1
1.879292916E1,9.583972096E-1,-9.744868279E0,-5.379567146E-1
1.881311771E1,9.625599384E-1,-9.744607925E0,-5.352275372E-1
1.883331708E1,9.652670026E-1,-9.744319916E0,-5.356022716E-1
1.885349490E1,9.661636353E-1,-9.744072914E0,-5.384761095E-1
1.887367312E1,9.666743875E-1,-9.743771553E0,-5.429899693E-1
1.889385208E1,9.674659967E-1,-9.743417740E0,-5.479144454E-1
1.891403219E1,9.690706730E-1,-9.743113518E0,-5.504727960E-1
1.893421375E1,9.705291986E-1,-9.742883682E0,-5.519822240E-1
1.895439698E1,9.707845449E-1,-9.742806435E0,-5.528956652E-1
1.897458198E1,9.693549275E-1,-9.742896080E0,-5.538194180E-1
1.899476885E1,9.673128724E-1,-9.742950439E0,-5.564370155E-1
1.901495760E1,9.682493806E-1,-9.742639542E0,-5.602244139E-1
1.903514812E1,9.688575268E-1,-9.742429733E0,-5.628150702E-1
1.905534031E1,9.650164843E-1,-9.742794991E0,-5.630898476E-1
1.907553396E1,9.598181844E-1,-9.743341446E0,-5.625236034E-1
1.909572875E1,9.559813738E-1,-9.743747711E0,-5.620265007E-1
1.911592437E1,9.533940554E-1,-9.744153023E0,-5.593707561E-1
1.913612052E1,9.519926906E-1,-9.744467735E0,-5.562874675E-1
1.915631687E1,9.538698792E-1,-9.744185448E0,-5.580195785E-1
1.917651198E1,9.584094882E-1,-9.743467331E0,-5.627598763E-1
1.919670062E1,9.629027843E-1,-9.742733002E0,-5.677661896E-1
1.921688916E1,9.651599526E-1,-9.742229462E0,-5.725464225E-1
1.923707229E1,9.669562578E-1,-9.741805077E0,-5.767306685E-1
1.925725583E1,9.693721533E-1,-9.741393089E0,-5.796265602E-1
1.927743990E1,9.711878896E-1,-9.741143227E0,-5.807793736E-1
1.929762469E1,9.715679884E-1,-9.741180420E0,-5.795159936E-1
1.931781031E1,9.683909416E-1,-9.741680145E0,-5.764294267E-1
1.933799687E1,9.621148705E-1,-9.742603302E0,-5.713289976E-1
1.935818437E1,9.564736485E-1,-9.743570328E0,-5.642505288E-1
1.937837281E1,9.545661211E-1,-9.744053841E0,-5.591059923E-1
1.939856219E1,9.557662010E-1,-9.743956566E0,-5.587557554E-1
1.941875240E1,9.572126269E-1,-9.743574142E0,-5.629290938E-1
1.943894333E1,9.562500715E-1,-9.743449211E0,-5.667208433E-1
1.945913490E1,9.532283545E-1,-9.743749619E0,-5.666409731E-1
1.947932698E1,9.499668479E-1,-9.744150162E0,-5.652217865E-1
1.949951937E1,9.459056854E-1,-9.744569778E0,-5.648126006E-1
1.951971198E1,9.414724708E-1,-9.744877815E0,-5.668978095E-1
1.953991542E1,9.394223094E-1,-9.744814873E0,-5.713700652E-1
1.956009469E1,9.396526814E-1,-9.744504929E0,-5.762630105E-1
1.958027427E1,9.409038424E-1,-9.744194984E0,-5.794419646E-1
1.960045448E1,9.421838522E-1,-9.743999481E0,-5.806505680E-1
1.962063562E1,9.433869720E-1,-9.743875504E0,-5.807853937E-1
1.964081802E1,9.446716309E-1,-9.743741989E0,-5.809292197E-1
1.966100187E1,9.471176863E-1,-9.743427277E0,-5.822169781E-1
1.968118729E1,9.499673843E-1,-9.742997169E0,-5.847644806E-1
1.970137437E1,9.528290033E-1,-9.742537498E0,-5.877681971E-1
1.972156302E1,9.541135430E-1,-9.742159843E0,-5.919293165E-1
1.974175323E1,9.549731016E-1,-9.741783142E0,-5.967263579E-1
1.976194490E1,9.554759860E-1,-9.741495132E0,-6.006194353E-1
1.978213781E1,9.562770724E-1,-9.741160393E0,-6.047384143E-1
1.980233177E1,9.556641579E-1,-9.740960121E0,-6.089339852E-1
1.982252646E1,9.540759325E-1,-9.741035461E0,-6.102023721E-1
1.984272167E1,9.535658956E-1,-9.741228104E0,-6.079212427E-1
1.986291708E1,9.527987838E-1,-9.741656303E0,-6.022371650E-1
1.988311146E1,9.509261847E-1,-9.742202759E0,-5.963242054E-1
1.990330000E1,9.492149353E-1,-9.742510796E0,-5.940174460E-1
1.992348312E1,9.483366013E-1,-9.742528915E0,-5.951266289E-1
1.994366667E1,9.490188956E-1,-9.742348671E0,-5.969910622E-1
1.996386833E1,9.509117007E-1,-9.742147446E0,-5.972591639E-1
1.998405146E1,9.518722296E-1,-9.742103577E0,-5.964420438E-1
2.000423490E1,9.510031939E-1,-9.742217064E0,-5.959720612E-1
2.002441880E1,9.497426152E-1,-9.742362022E0,-5.956236124E-1
2.004460333E1,9.491292238E-1,-9.742415428E0,-5.957055688E-1
2.006478864E1,9.486311674E-1,-9.742487907E0,-5.953265429E-1
2.008497484E1,9.484142661E-1,-9.742596626E0,-5.938853621E-1
2.010516198E1,9.486908913E-1,-9.742731094E0,-5.912536383E-1
2.012535005E1,9.485732317E-1,-9.742953300E0,-5.877443552E-1
2.014553906E1,9.469656348E-1,-9.743346214E0,-5.838183761E-1
2.016572896E1,9.443041682E-1,-9.743772507E0,-5.810190439E-1
2.018591963E1,9.420599937E-1,-9.744072914E0,-5.796345472E-1
2.020611099E1,9.411536455E-1,-9.744166374E0,-5.795242190E-1
2.022630286E1,9.404572845E-1,-9.744174957E0,-5.805137753E-1
2.024649510E1,9.397559762E-1,-9.744179726E0,-5.815449953E-1
2.026668755E1,9.383612275E-1,-9.744260788E0,-5.824512243E-1
2.028688547E1,9.355074167E-1,-9.744596481E0,-5.814202428E-1
2.030707604E1,9.320007563E-1,-9.745124817E0,-5.782054067E-1
2.032725406E1,9.311033487E-1,-9.745350838E0,-5.758315325E-1
2.034743266E1,9.330016375E-1,-9.745177269E0,-5.756832361E-1
2.036761219E1,9.369447827E-1,-9.744619370E0,-5.787070990E-1
2.038779302E1,9.418764710E-1,-9.743892670E0,-5.829342008E-1
2.040797542E1,9.478670955E-1,-9.743093491E0,-5.865841508E-1
2.042815953E1,9.548150301E-1,-9.742309570E0,-5.883166194E-1
2.044834547E1,9.607685804E-1,-9.741841316E0,-5.863888860E-1
2.046853328E1,9.628224373E-1,-9.741922379E0,-5.816375017E-1
2.048872292E1,9.607802033E-1,-9.742425919E0,-5.765705705E-1
2.050891422E1,9.574556351E-1,-9.742954254E0,-5.731470585E-1
2.052910703E1,9.539701939E-1,-9.743397713E0,-5.714265108E-1
2.054930114E1,9.502102733E-1,-9.743686676E0,-5.727695823E-1
2.056949625E1,9.468168616E-1,-9.743757248E0,-5.771713257E-1
2.058969203E1,9.449815750E-1,-9.743582726E0,-5.830975175E-1
2.060988818E1,9.443473816E-1,-9.743342400E0,-5.881181955E-1
2.063008385E1,9.426657557E-1,-9.743338585E0,-5.908698440E-1
2.065027568E1,9.402148128E-1,-9.743526459E0,-5.916593671E-1
2.067046151E1,9.380308390E-1,-9.743765831E0,-5.912033319E-1
2.069064484E1,9.344798326E-1,-9.744178772E0,-5.900112391E-1
2.071082865E1,9.287768006E-1,-9.744812965E0,-5.885448456E-1
2.073101307E1,9.225875735E-1,-9.745400429E0,-5.885390639E-1
2.075119828E1,9.167954922E-1,-9.745795250E0,-5.910673141E-1
2.077138437E1,9.120445251E-1,-9.746047020E0,-5.942323804E-1
2.079157141E1,9.097753763E-1,-9.746053696E0,-5.976139307E-1
2.081175937E1,9.099076390E-1,-9.745796204E0,-6.015978456E-1
2.083194828E1,9.114281535E-1,-9.745350838E0,-6.064832211E-1
2.085213807E1,9.134753942E-1,-9.744846344E0,-6.114899516E-1
2.087232864E1,9.142699838E-1,-9.744535446E0,-6.152400374E-1
2.089251990E1,9.149442315E-1,-9.744321823E0,-6.176175475E-1
2.091271172E1,9.163361192E-1,-9.744120598E0,-6.187227368E-1
2.093290396E1,9.187055826E-1,-9.743804932E0,-6.201825142E-1
2.095311708E1,9.212466478E-1,-9.743386269E0,-6.229965091E-1
2.097329208E1,9.226620793E-1,-9.742992401E0,-6.270394921E-1
2.099346760E1,9.227259159E-1,-9.742694855E0,-6.315726638E-1
2.101364406E1,9.233877659E-1,-9.742420197E0,-6.348161101E-1
2.103382198E1,9.276532531E-1,-9.741955757E0,-6.357279420E-1
2.105400166E1,9.381682277E-1,-9.741073608E0,-6.338071227E-1
2.107418344E1,9.537937045E-1,-9.739641190E0,-6.324966550E-1
2.109436750E1,9.686796665E-1,-9.738001823E0,-6.351165175E-1
2.111455396E1,9.817070365E-1,-9.736445427E0,-6.389519572E-1
2.113474271E1,9.945700169E-1,-9.734975815E0,-6.414552927E-1
2.115493375E1,1.003857255E0,-9.733818054E0,-6.445389390E-1
2.117512687E1,1.007573247E0,-9.733246803E0,-6.473714113E-1
2.119532177E1,1.007175207E0,-9.733066559E0,-6.506910324E-1
2.121551812E1,1.001001358E0,-9.733362198E0,-6.557818055E-1
2.123571552E1,9.910645485E-1,-9.734132767E0,-6.594217420E-1
2.125591364E1,9.825043082E-1,-9.735153198E0,-6.571532488E-1
2.127611208E1,9.756076932E-1,-9.736318588E0,-6.501203775E-1
2.129630833E1,9.669569135E-1,-9.737765312E0,-6.413261294E-1
2.131649687E1,9.591100812E-1,-9.739122391E0,-6.324337721E-1
2.133669625E1,9.560520649E-1,-9.739871025E0,-6.255186796E-1
2.135687396E1,9.582880139E-1,-9.739968300E0,-6.205471158E-1
2.137705208E1,9.625844955E-1,-9.739807129E0,-6.164255738E-1
2.139723094E1,9.628182650E-1,-9.740118027E0,-6.111175418E-1
2.141741094E1,9.610202909E-1,-9.740730286E0,-6.041360497E-1
2.143759240E1,9.583142996E-1,-9.741470337E0,-5.964677930E-1
2.145777552E1,9.566738605E-1,-9.741995811E0,-5.905027986E-1
2.147796042E1,9.568520784E-1,-9.742164612E0,-5.874065161E-1
2.149814719E1,9.594264030E-1,-9.742077827E0,-5.846389532E-1
2.151833583E1,9.624093771E-1,-9.742039680E0,-5.803626180E-1
2.153852625E1,9.653083682E-1,-9.741937637E0,-5.772552490E-1
2.155871833E1,9.682209492E-1,-9.741780281E0,-5.750274658E-1
2.157891187E1,9.713074565E-1,-9.741734505E0,-5.705760717E-1
2.159910656E1,9.748974442E-1,-9.741756439E0,-5.640497208E-1
2.161930208E1,9.769417048E-1,-9.741855621E0,-5.587744117E-1
2.163949812E1,9.782761931E-1,-9.741932869E0,-5.550741553E-1
2.165969437E1,9.798383117E-1,-9.741877556E0,-5.533028245E-1
2.167989010E1,9.816001058E-1,-9.741662979E0,-5.539267063E-1
2.170007864E1,9.830121994E-1,-9.741493225E0,-5.544168949E-1
2.172026177E1,9.860011935E-1,-9.741159439E0,-5.549690723E-1
2.174044531E1,9.915133119E-1,-9.740508080E0,-5.565955639E-1
2.176062937E1,9.969063997E-1,-9.739841461E0,-5.586147904E-1
2.178081417E1,9.995719194E-1,-9.739463806E0,-5.604396462E-1
2.180099979E1,1.000840902E0,-9.739212036E0,-5.625460744E-1
2.182118635E1,1.002929330E0,-9.738839149E0,-5.652612448E-1
2.184137385E1,1.004971504E0,-9.738417625E0,-5.689016581E-1
2.186156229E1,1.005083561E0,-9.738171577E0,-5.728955865E-1
2.188175167E1,1.003478765E0,-9.738133430E0,-5.763399601E-1
2.190194187E1,1.002347708E0,-9.738165855E0,-5.777703524E-1
2.192213281E1,1.002179623E0,-9.738279343E0,-5.761482716E-1
2.194232437E1,1.002495170E0,-9.738544464E0,-5.710823536E-1
2.196253328E1,1.002005696E0,-9.738935471E0,-5.652567744E-1
2.198271385E1,1.002434492E0,-9.739155769E0,-5.606778264E-1
2.200289484E1,1.003993154E0,-9.739124298E0,-5.584279299E-1
2.202307651E1,1.003014207E0,-9.739151001E0,-5.597280860E-1
2.204325911E1,9.979981184E-1,-9.739541054E0,-5.618970394E-1
2.206344286E1,9.941211939E-1,-9.739701271E0,-5.659705400E-1
2.208362792E1,9.929409623E-1,-9.739340782E0,-5.741969943E-1
2.210381437E1,9.932900667E-1,-9.738904953E0,-5.809388161E-1
2.212400224E1,9.915288687E-1,-9.739048958E0,-5.815240741E-1
2.214419146E1,9.860292077E-1,-9.739898682E0,-5.766277909E-1
2.216438198E1,9.796938300E-1,-9.741030693E0,-5.682423115E-1
2.218457364E1,9.768687487E-1,-9.741872787E0,-5.586043596E-1
2.220476630E1,9.780299067E-1,-9.741998672E0,-5.543490052E-1
2.222495974E1,9.797978997E-1,-9.741609573E0,-5.580535531E-1
2.224515370E1,9.777580500E-1,-9.741212845E0,-5.684583783E-1
2.226534797E1,9.718726277E-1,-9.741003990E0,-5.819744468E-1
2.228554776E1,9.664592147E-1,-9.740819931E0,-5.939406157E-1
2.230573922E1,9.655538797E-1,-9.740345001E0,-6.031251550E-1
2.232591713E1,9.694593549E-1,-9.739439964E0,-6.114422679E-1
2.234609562E1,9.757103920E-1,-9.738389015E0,-6.181920767E-1
2.236627505E1,9.846286178E-1,-9.737210274E0,-6.225926876E-1
2.238645578E1,9.954590797E-1,-9.735929489E0,-6.254077554E-1
2.240663807E1,1.005402207E0,-9.734732628E0,-6.281231046E-1
2.242682208E1,1.012172818E0,-9.733880997E0,-6.304333210E-1
2.244700792E1,1.012928009E0,-9.733572960E0,-6.339755654E-1
2.246719562E1,1.006591201E0,-9.733816147E0,-6.402850747E-1
2.248738516E1,9.930543900E-1,-9.734772682E0,-6.468447447E-1
2.250757641E1,9.801373482E-1,-9.735895157E0,-6.496498585E-1
2.252776922E1,9.716501832E-1,-9.736801147E0,-6.488389969E-1
2.254796333E1,9.665786624E-1,-9.737356186E0,-6.480736136E-1
2.256815844E1,9.656394124E-1,-9.737366676E0,-6.493328810E-1
2.258835422E1,9.665303230E-1,-9.737074852E0,-6.523736715E-1
2.260855036E1,9.666051269E-1,-9.736829758E0,-6.559042931E-1
2.262874630E1,9.657009840E-1,-9.736744881E0,-6.584972143E-1
2.264893833E1,9.660075903E-1,-9.736621857E0,-6.598404646E-1
2.266912406E1,9.706458449E-1,-9.736069679E0,-6.611839533E-1
2.268930729E1,9.801076651E-1,-9.734894753E0,-6.645218134E-1
2.270949104E1,9.910379052E-1,-9.733425140E0,-6.698161960E-1
2.272967547E1,1.000159025E0,-9.732200623E0,-6.740516424E-1
2.274986068E1,1.004920959E0,-9.731570244E0,-6.760675907E-1
2.277004677E1,1.008792520E0,-9.731067657E0,-6.775305867E-1
2.279023380E1,1.016092420E0,-9.730086327E0,-6.807027459E-1
2.281042177E1,1.022793293E0,-9.728988647E0,-6.863260269E-1
2.283061068E1,1.027602077E0,-9.727988243E0,-6.932949424E-1
2.285080047E1,1.032441378E0,-9.727025032E0,-6.996033192E-1
2.287099104E1,1.035309315E0,-9.726379395E0,-7.043165565E-1
2.289118229E1,1.037281394E0,-9.725889206E0,-7.081672549E-1
2.291137411E1,1.041313887E0,-9.725097656E0,-7.131073475E-1
2.293156635E1,1.041930079E0,-9.724599838E0,-7.189783454E-1
2.295178380E1,1.027001977E0,-9.725828171E0,-7.238186598E-1
2.297195422E1,1.000941515E0,-9.728273392E0,-7.274533510E-1
2.299212526E1,9.822790027E-1,-9.729756355E0,-7.330523729E-1
2.301229766E1,9.821904898E-1,-9.729191780E0,-7.406214476E-1
2.303247203E1,9.955058694E-1,-9.727806091E0,-7.410490513E-1
2.305264880E1,1.008448839E0,-9.726706505E0,-7.379786968E-1
2.307282838E1,1.012055278E0,-9.726344109E0,-7.378072143E-1
2.309301099E1,1.011608243E0,-9.726077080E0,-7.419388890E-1
2.311319672E1,1.016458750E0,-9.725416183E0,-7.439564466E-1
2.313338557E1,1.025081158E0,-9.724349976E0,-7.460640669E-1
2.315357745E1,1.027760625E0,-9.723636627E0,-7.516636848E-1
2.317377203E1,1.018147588E0,-9.724449158E0,-7.542231679E-1
2.319396901E1,1.002445102E0,-9.726585388E0,-7.476845384E-1
2.321416797E1,9.856578112E-1,-9.729174614E0,-7.362250686E-1
2.323436838E1,9.722122550E-1,-9.731513023E0,-7.230900526E-1
2.325456974E1,9.639236927E-1,-9.732890129E0,-7.156051993E-1
2.327477151E1,9.619462490E-1,-9.732814789E0,-7.192901373E-1
2.329497005E1,9.667837024E-1,-9.731598854E0,-7.291767597E-1
2.331515859E1,9.733604193E-1,-9.730313301E0,-7.375343442E-1
2.333534703E1,9.763690233E-1,-9.729652405E0,-7.422649264E-1
2.335554630E1,9.752198458E-1,-9.729499817E0,-7.457640767E-1
2.337572401E1,9.740323424E-1,-9.729439735E0,-7.481157184E-1
2.339590213E1,9.734750390E-1,-9.729621887E0,-7.464432716E-1
2.341608099E1,9.724479914E-1,-9.730179787E0,-7.404983640E-1
2.343626099E1,9.717057347E-1,-9.730851173E0,-7.326038480E-1
2.345644245E1,9.711715579E-1,-9.731429100E0,-7.256070971E-1
2.347662557E1,9.703338742E-1,-9.731772423E0,-7.221084833E-1
2.349681047E1,9.684697390E-1,-9.731880188E0,-7.231613398E-1
2.351699724E1,9.654123783E-1,-9.731936455E0,-7.264906764E-1
2.353718588E1,9.621883631E-1,-9.732191086E0,-7.273514867E-1
2.355737630E1,9.592291117E-1,-9.732882500E0,-7.219988704E-1
2.357756838E1,9.587413669E-1,-9.733461380E0,-7.147969007E-1
2.359776193E1,9.611909389E-1,-9.733669281E0,-7.086610794E-1
2.361795661E1,9.670951962E-1,-9.733436584E0,-7.037994266E-1
2.363815213E1,9.735403657E-1,-9.732804298E0,-7.036523819E-1
2.365834818E1,9.775867462E-1,-9.732106209E0,-7.076828480E-1
2.367854443E1,9.786330462E-1,-9.731685638E0,-7.120032310E-1
2.369873974E1,9.787294269E-1,-9.731495857E0,-7.144687176E-1
2.371892828E1,9.796553850E-1,-9.731344223E0,-7.152644396E-1
2.373911672E1,9.805327058E-1,-9.731352806E0,-7.139564157E-1
2.375929974E1,9.822601676E-1,-9.731333733E0,-7.118331790E-1
2.377948318E1,9.854727387E-1,-9.731129646E0,-7.101775408E-1
2.379966724E1,9.887264967E-1,-9.730846405E0,-7.095451951E-1
2.381985203E1,9.889823198E-1,-9.730860710E0,-7.089678645E-1
2.384003766E1,9.860202670E-1,-9.731258392E0,-7.076445818E-1
2.386022422E1,9.826102257E-1,-9.731812477E0,-7.047643661E-1
2.388041172E1,9.810429811E-1,-9.732320786E0,-6.999179125E-1
2.390060016E1,9.817625880E-1,-9.732780457E0,-6.924530864E-1
2.392078953E1,9.844923615E-1,-9.733015060E0,-6.852710247E-1
2.394097974E1,9.866982102E-1,-9.733261108E0,-6.785783768E-1
2.396119318E1,9.868198633E-1,-9.733699799E0,-6.720731854E-1
2.398137536E1,9.841983318E-1,-9.734364510E0,-6.662458777E-1
2.400155786E1,9.806078076E-1,-9.734905243E0,-6.636423469E-1
2.402174088E1,9.771059155E-1,-9.734938622E0,-6.683059931E-1
2.404192463E1,9.771566391E-1,-9.734194756E0,-6.789630055E-1
2.406210927E1,9.822016954E-1,-9.732823372E0,-6.912447214E-1
2.408229490E1,9.877837300E-1,-9.731637001E0,-6.999350190E-1
2.410248161E1,9.911468029E-1,-9.731025696E0,-7.036741376E-1
2.412266948E1,9.917744398E-1,-9.730974197E0,-7.035044432E-1
2.414285844E1,9.903246760E-1,-9.731307983E0,-7.009210587E-1
2.416304844E1,9.883559942E-1,-9.731718063E0,-6.980143189E-1
2.418323937E1,9.868514538E-1,-9.732091904E0,-6.949138641E-1
2.420343109E1,9.858388305E-1,-9.732678413E0,-6.881038547E-1
2.422362344E1,9.860957265E-1,-9.733569145E0,-6.749957204E-1
2.424381625E1,9.857282639E-1,-9.734787941E0,-6.577458978E-1
2.426400937E1,9.841423035E-1,-9.735979080E0,-6.423047781E-1
2.428420802E1,9.816972017E-1,-9.736799240E0,-6.335681677E-1
2.430439922E1,9.820989370E-1,-9.736743927E0,-6.337882280E-1
2.432457771E1,9.839378595E-1,-9.736260414E0,-6.383578181E-1
2.434475672E1,9.874785542E-1,-9.735630035E0,-6.424917579E-1
2.436493661E1,9.903379679E-1,-9.735126495E0,-6.456988454E-1
2.438511771E1,9.923425317E-1,-9.734869957E0,-6.464866996E-1
2.440530026E1,9.936209917E-1,-9.734881401E0,-6.443501115E-1
2.442548443E1,9.945762157E-1,-9.734926224E0,-6.422136426E-1
2.444567031E1,9.952192903E-1,-9.734859467E0,-6.422013044E-1
2.446585797E1,9.961274266E-1,-9.734619141E0,-6.444465518E-1
2.448604734E1,9.958988428E-1,-9.734459877E0,-6.471885443E-1
2.450623833E1,9.921799302E-1,-9.734850883E0,-6.470289826E-1
2.452643078E1,9.888103604E-1,-9.735362053E0,-6.444903016E-1
2.454662448E1,9.872347116E-1,-9.735702515E0,-6.417558789E-1
2.456681917E1,9.858724475E-1,-9.735719681E0,-6.435838938E-1
2.458701453E1,9.853347540E-1,-9.735113144E0,-6.534992456E-1
2.460721026E1,9.871783853E-1,-9.734080315E0,-6.659931540E-1
2.462740604E1,9.914648533E-1,-9.733073235E0,-6.743068695E-1
2.464759812E1,9.964084625E-1,-9.732297897E0,-6.781824231E-1
2.466778385E1,9.992229939E-1,-9.731984138E0,-6.785439849E-1
2.468796708E1,9.994139671E-1,-9.732239723E0,-6.745801568E-1
2.470815078E1,9.974903464E-1,-9.732605934E0,-6.721508503E-1
2.472833510E1,9.941280484E-1,-9.732711792E0,-6.755814552E-1
2.474852021E1,9.896544814E-1,-9.732526779E0,-6.847674251E-1
2.476870620E1,9.849415421E-1,-9.732200623E0,-6.960961223E-1
2.478889312E1,9.803640246E-1,-9.732005119E0,-7.052277923E-1
2.480908099E1,9.759922624E-1,-9.732197762E0,-7.086203694E-1
2.482926979E1,9.717738032E-1,-9.732827187E0,-7.057700753E-1
2.484945948E1,9.698780775E-1,-9.733421326E0,-7.001692057E-1
2.486965000E1,9.703987241E-1,-9.733854294E0,-6.933855414E-1
2.488984125E1,9.733220339E-1,-9.734142303E0,-6.851992011E-1
2.491003307E1,9.791592360E-1,-9.734008789E0,-6.787518859E-1
2.493022531E1,9.899292588E-1,-9.733101845E0,-6.761322618E-1
2.495044724E1,1.005958557E0,-9.731491089E0,-6.756566763E-1
2.497061359E1,1.025094509E0,-9.729620934E0,-6.738238335E-1
2.499078078E1,1.046235561E0,-9.727748871E0,-6.683438420E-1
2.501094963E1,1.066891432E0,-9.726100922E0,-6.596130133E-1
2.503113057E1,1.081335783E0,-9.725204468E0,-6.492296457E-1
2.505131370E1,1.083647490E0,-9.725679398E0,-6.381642818E-1
2.507149917E1,1.075442314E0,-9.727159500E0,-6.294128895E-1
2.509168698E1,1.063766003E0,-9.728715897E0,-6.251993179E-1
2.511187703E1,1.055691838E0,-9.729598045E0,-6.251555085E-1
2.513206916E1,1.050395608E0,-9.729982376E0,-6.281073689E-1
2.515226318E1,1.042847037E0,-9.730654716E0,-6.302598715E-1
2.517245880E1,1.034127474E0,-9.731712341E0,-6.282882690E-1
2.519266901E1,1.030547380E0,-9.732264519E0,-6.256068945E-1
2.521287516E1,1.032171488E0,-9.732108116E0,-6.253535748E-1
2.523306370E1,1.036921740E0,-9.731482506E0,-6.272505522E-1
2.525325213E1,1.045940042E0,-9.730307579E0,-6.304883361E-1
2.527345141E1,1.060164332E0,-9.728782654E0,-6.302554011E-1
2.529362901E1,1.075771332E0,-9.727511406E0,-6.233953238E-1
2.531380703E1,1.086438298E0,-9.726816177E0,-6.156997681E-1
2.533398588E1,1.087837100E0,-9.726799965E0,-6.134896874E-1
2.535416588E1,1.081656575E0,-9.727328300E0,-6.160185337E-1
2.537434734E1,1.069416642E0,-9.728338242E0,-6.214213371E-1
2.539453047E1,1.055337429E0,-9.729433060E0,-6.283244491E-1
2.541471536E1,1.044563174E0,-9.730327606E0,-6.324518919E-1
2.543490213E1,1.042033434E0,-9.730596542E0,-6.324871182E-1
2.545509078E1,1.048477769E0,-9.730039597E0,-6.303985119E-1
2.547528120E1,1.059706688E0,-9.729057312E0,-6.267724633E-1
2.549547328E1,1.070900321E0,-9.727982521E0,-6.244324446E-1
2.551566682E1,1.080868602E0,-9.726822853E0,-6.253226995E-1
2.553586151E1,1.088496685E0,-9.725765228E0,-6.285371184E-1
2.555605703E1,1.093255043E0,-9.724995613E0,-6.321824193E-1
2.557625307E1,1.095142365E0,-9.724564552E0,-6.355212927E-1
2.559644932E1,1.094094038E0,-9.724479675E0,-6.386286616E-1
2.561664443E1,1.090183735E0,-9.724626541E0,-6.430624723E-1
2.563683286E1,1.085305333E0,-9.724920273E0,-6.468660235E-1
2.565701588E1,1.081725955E0,-9.725119591E0,-6.498451233E-1
2.567719932E1,1.078455925E0,-9.725374222E0,-6.514758468E-1
2.569738328E1,1.076443434E0,-9.725540161E0,-6.523194909E-1
2.571756797E1,1.076677322E0,-9.725386620E0,-6.542267203E-1
2.573775349E1,1.077495933E0,-9.725080490E0,-6.574230194E-1
2.575793995E1,1.081066847E0,-9.724502563E0,-6.600964665E-1
2.577812734E1,1.087496042E0,-9.723743439E0,-6.607378125E-1
2.579831568E1,1.097658157E0,-9.722511292E0,-6.620405912E-1
2.581850495E1,1.111884236E0,-9.720643044E0,-6.657318473E-1
2.583869505E1,1.125725627E0,-9.718724251E0,-6.704602242E-1
2.585888588E1,1.134539485E0,-9.717493057E0,-6.734525561E-1
2.587907734E1,1.137217522E0,-9.717168808E0,-6.736066937E-1
2.589926932E1,1.137060523E0,-9.717284203E0,-6.722079515E-1
2.591946161E1,1.139014006E0,-9.717114449E0,-6.713660955E-1
2.593965411E1,1.144779325E0,-9.716578484E0,-6.693031788E-1
2.595985745E1,1.150849700E0,-9.716061592E0,-6.663946509E-1
2.598003661E1,1.154593110E0,-9.715764046E0,-6.642338634E-1
2.600021609E1,1.155272245E0,-9.715778351E0,-6.628596187E-1
2.602039620E1,1.154787540E0,-9.715815544E0,-6.631560922E-1
2.604057724E1,1.156967402E0,-9.715311050E0,-6.667430997E-1
2.606075953E1,1.159986496E0,-9.714470863E0,-6.736901999E-1
2.608094328E1,1.162477136E0,-9.713476181E0,-6.836889386E-1
2.610112859E1,1.164796948E0,-9.712502480E0,-6.935006380E-1
2.612131557E1,1.167630196E0,-9.711575508E0,-7.016582489E-1
2.614150422E1,1.171250939E0,-9.710603714E0,-7.090300918E-1
2.616169443E1,1.175091147E0,-9.709600449E0,-7.163798809E-1
2.618188609E1,1.180025697E0,-9.708463669E0,-7.236361504E-1
2.620207901E1,1.186698556E0,-9.707324028E0,-7.280061841E-1
2.622227297E1,1.192808151E0,-9.706640244E0,-7.271417975E-1
2.624246766E1,1.194423556E0,-9.706749916E0,-7.230195999E-1
2.626266276E1,1.192156553E0,-9.707438469E0,-7.174813747E-1
2.628285807E1,1.187081575E0,-9.708595276E0,-7.102062106E-1
2.630305172E1,1.181137919E0,-9.709884644E0,-7.024458051E-1
2.632324016E1,1.171547055E0,-9.711483002E0,-6.963872313E-1
2.634342318E1,1.159442067E0,-9.713251114E0,-6.919878721E-1
2.636360661E1,1.148147941E0,-9.714994431E0,-6.863132119E-1
2.638379057E1,1.139964938E0,-9.716612816E0,-6.769667268E-1
2.640397526E1,1.136675119E0,-9.717693329E0,-6.669234633E-1
2.642416078E1,1.139094234E0,-9.717934608E0,-6.592426896E-1
2.644434724E1,1.145875335E0,-9.717469215E0,-6.543284059E-1
2.646453463E1,1.153313398E0,-9.716634750E0,-6.536577344E-1
2.648472297E1,1.159506798E0,-9.715808868E0,-6.549853086E-1
2.650491224E1,1.165913582E0,-9.714913368E0,-6.568706632E-1
2.652512614E1,1.174816728E0,-9.713683128E0,-6.592005491E-1
2.654531161E1,1.185862541E0,-9.712017059E0,-6.639482379E-1
2.656549724E1,1.196503639E0,-9.710215569E0,-6.711828113E-1
2.658568312E1,1.204865813E0,-9.708595276E0,-6.796041727E-1
2.660586937E1,1.209957480E0,-9.707437515E0,-6.870586872E-1
2.662605604E1,1.210607409E0,-9.706974030E0,-6.924465895E-1
2.664624318E1,1.207353473E0,-9.707129478E0,-6.959289908E-1
2.666643083E1,1.203505635E0,-9.707453728E0,-6.980685592E-1
2.668661901E1,1.200937271E0,-9.707668304E0,-6.995038390E-1
2.670680771E1,1.200022697E0,-9.707757950E0,-6.998178363E-1
2.672699687E1,1.197624683E0,-9.707901955E0,-7.019482851E-1
2.674718646E1,1.192078710E0,-9.708344460E0,-7.052483559E-1
2.676737640E1,1.183675051E0,-9.709198952E0,-7.076415420E-1
2.678756661E1,1.176013589E0,-9.709952354E0,-7.100658417E-1
2.680775698E1,1.172021866E0,-9.710190773E0,-7.133988142E-1
2.682794745E1,1.173824072E0,-9.709565163E0,-7.189309597E-1
2.684814338E1,1.182048678E0,-9.707980156E0,-7.268278599E-1
2.686833318E1,1.194020748E0,-9.705832481E0,-7.358710766E-1
2.688851156E1,1.205875754E0,-9.703760147E0,-7.438380122E-1
2.690869047E1,1.214918971E0,-9.702215195E0,-7.492603660E-1
2.692887026E1,1.220877886E0,-9.701281548E0,-7.516459823E-1
2.694905125E1,1.228521824E0,-9.700227737E0,-7.527922392E-1
2.696923370E1,1.241007447E0,-9.698464394E0,-7.550321221E-1
2.698941781E1,1.258733273E0,-9.696007729E0,-7.572304010E-1
2.700960370E1,1.276878715E0,-9.693685532E0,-7.565894127E-1
2.702979135E1,1.287518024E0,-9.692691803E0,-7.512803078E-1
2.704998073E1,1.288132429E0,-9.693295479E0,-7.423727512E-1
2.707017172E1,1.282531977E0,-9.694613457E0,-7.348216176E-1
2.709036416E1,1.274642825E0,-9.695883751E0,-7.317878604E-1
2.711055786E1,1.266752005E0,-9.696869850E0,-7.324265838E-1
2.713075255E1,1.259211183E0,-9.697683334E0,-7.346473336E-1
2.715094792E1,1.252792358E0,-9.698252678E0,-7.380950451E-1
2.717114364E1,1.247921824E0,-9.698657036E0,-7.410327792E-1
2.719133937E1,1.243711829E0,-9.698936462E0,-7.444506884E-1
2.721153141E1,1.241174221E0,-9.698843956E0,-7.498660684E-1
2.723171713E1,1.241783261E0,-9.698347092E0,-7.552567720E-1
2.725190036E1,1.246023774E0,-9.697628975E0,-7.574908137E-1
2.727208406E1,1.251741529E0,-9.696809769E0,-7.585554719E-1
2.729226838E1,1.256775022E0,-9.695928574E0,-7.615073919E-1
2.731245349E1,1.260350108E0,-9.695181847E0,-7.650874257E-1
2.733263948E1,1.262525558E0,-9.694657326E0,-7.681419849E-1
2.735282641E1,1.261882782E0,-9.694439888E0,-7.719315290E-1
2.737301427E1,1.257613540E0,-9.694759369E0,-7.748809457E-1
2.739320307E1,1.251987934E0,-9.695275307E0,-7.775301933E-1
2.741339276E1,1.247575760E0,-9.695637703E0,-7.800943851E-1
2.743358323E1,1.244190812E0,-9.695867538E0,-7.826345563E-1
2.745377437E1,1.240804434E0,-9.695950508E0,-7.869753242E-1
2.747396609E1,1.238366365E0,-9.695754051E0,-7.932206392E-1
2.749415823E1,1.236768603E0,-9.695533752E0,-7.983892560E-1
2.751437916E1,1.235351682E0,-9.695510864E0,-8.008540273E-1
2.753454614E1,1.233984590E0,-9.695596695E0,-8.019149899E-1
2.755471396E1,1.230966210E0,-9.695953369E0,-8.022373319E-1
2.757488333E1,1.225337744E0,-9.696750641E0,-8.012186289E-1
2.759505500E1,1.220395446E0,-9.697691917E0,-7.973582745E-1
2.761522958E1,1.220295072E0,-9.698171616E0,-7.916652560E-1
2.763540750E1,1.225455284E0,-9.698114395E0,-7.843694687E-1
2.765558906E1,1.232493758E0,-9.697901726E0,-7.759183049E-1
2.767577437E1,1.235761881E0,-9.698111534E0,-7.680513263E-1
2.769596344E1,1.232251287E0,-9.699122429E0,-7.608963251E-1
2.771615604E1,1.225208640E0,-9.700432777E0,-7.555496097E-1
2.773635187E1,1.216269732E0,-9.701828957E0,-7.520576715E-1
2.775655052E1,1.207757831E0,-9.703156471E0,-7.486505508E-1
2.777675146E1,1.203002453E0,-9.704060555E0,-7.445730567E-1
2.779695406E1,1.199494123E0,-9.704953194E0,-7.385702729E-1
2.781715771E1,1.192806840E0,-9.706386566E0,-7.305131555E-1
2.783736177E1,1.181593299E0,-9.708458900E0,-7.211436033E-1
2.785756083E1,1.167900801E0,-9.710931778E0,-7.100715637E-1
2.787774927E1,1.153091431E0,-9.713674545E0,-6.966325045E-1
2.789793760E1,1.138286352E0,-9.716294289E0,-6.843274236E-1
2.791813677E1,1.124161124E0,-9.718410492E0,-6.776161194E-1
2.793831448E1,1.111216307E0,-9.719950676E0,-6.768567562E-1
2.795849260E1,1.100889802E0,-9.720952988E0,-6.793343425E-1
2.797867146E1,1.094056129E0,-9.721433640E0,-6.834917665E-1
2.799885146E1,1.087860346E0,-9.721680641E0,-6.898301840E-1
2.801903292E1,1.079844952E0,-9.721992493E0,-6.979960203E-1
2.803921604E1,1.070168376E0,-9.722358704E0,-7.077158689E-1
2.805940094E1,1.060836434E0,-9.722305298E0,-7.223623395E-1
2.807958771E1,1.048741937E0,-9.722455978E0,-7.378144860E-1
2.809977635E1,1.037406802E0,-9.723146439E0,-7.447078824E-1
2.811996677E1,1.026309371E0,-9.724623680E0,-7.407945991E-1
2.814015875E1,1.016443729E0,-9.726219177E0,-7.334055305E-1
2.816035208E1,1.006113768E0,-9.727379799E0,-7.322503924E-1
2.818054656E1,9.913586974E-1,-9.729104042E0,-7.294747233E-1
2.820074187E1,9.790691137E-1,-9.730793953E0,-7.235035300E-1
2.822093771E1,9.749873877E-1,-9.731340408E0,-7.216723561E-1
2.824113375E1,9.807641506E-1,-9.730644226E0,-7.232322097E-1
2.826132896E1,9.920012951E-1,-9.729616165E0,-7.217257619E-1
2.828151740E1,1.001110315E0,-9.728827477E0,-7.197765112E-1
2.830170573E1,1.004914045E0,-9.728393555E0,-7.203457355E-1
2.832188864E1,1.006422400E0,-9.728000641E0,-7.235375047E-1
2.834207198E1,1.010486841E0,-9.727527618E0,-7.242391109E-1
2.836225594E1,1.016980052E0,-9.727235794E0,-7.190346122E-1
2.838244062E1,1.025043726E0,-9.727097511E0,-7.093947530E-1
2.840262615E1,1.032672524E0,-9.727117538E0,-6.979741454E-1
2.842281260E1,1.038074613E0,-9.727479935E0,-6.847654581E-1
2.844300000E1,1.043069601E0,-9.727601051E0,-6.754030585E-1
2.846318833E1,1.048097134E0,-9.727031708E0,-6.758168340E-1
2.848337760E1,1.053852439E0,-9.725769997E0,-6.849759221E-1
2.850356771E1,1.060243130E0,-9.724365234E0,-6.949804425E-1
2.852378302E1,1.069472313E0,-9.723402977E0,-6.943068504E-1
2.854396172E1,1.090307832E0,-9.721902847E0,-6.828135252E-1
2.856414094E1,1.118790746E0,-9.719667435E0,-6.684032083E-1
2.858432104E1,1.145663977E0,-9.717221260E0,-6.583751440E-1
2.860450234E1,1.168707132E0,-9.714970589E0,-6.510381699E-1
2.862468505E1,1.185034752E0,-9.713493347E0,-6.435324550E-1
2.864486932E1,1.188483119E0,-9.713409424E0,-6.384068131E-1
2.866505526E1,1.175724864E0,-9.714936256E0,-6.387902498E-1
2.868524286E1,1.152303815E0,-9.717394829E0,-6.440719366E-1
2.870543213E1,1.128691673E0,-9.719818115E0,-6.492930055E-1
2.872562297E1,1.109574318E0,-9.721994400E0,-6.496634483E-1
2.874581521E1,1.093502879E0,-9.724147797E0,-6.446533799E-1
2.876600865E1,1.079391003E0,-9.726297379E0,-6.359609365E-1
2.878620302E1,1.067388415E0,-9.728276253E0,-6.258675456E-1
2.880639807E1,1.058400035E0,-9.729924202E0,-6.154383421E-1
2.882659349E1,1.054492354E0,-9.730959892E0,-6.056950688E-1
2.884678890E1,1.056258559E0,-9.731266975E0,-5.976227522E-1
2.886698073E1,1.063784719E0,-9.730813026E0,-5.916318297E-1
2.888717448E1,1.076286674E0,-9.729655266E0,-5.880469084E-1
2.890736286E1,1.088998437E0,-9.728450775E0,-5.845723152E-1
2.892754068E1,1.098264098E0,-9.727479935E0,-5.833903551E-1
2.894771906E1,1.103158951E0,-9.726783752E0,-5.857546926E-1
2.896789838E1,1.102989554E0,-9.726613998E0,-5.888880491E-1
2.898807901E1,1.098955035E0,-9.726676941E0,-5.953437686E-1
2.900826120E1,1.094573140E0,-9.726366997E0,-6.083337069E-1
2.902844510E1,1.091040373E0,-9.725756645E0,-6.242512465E-1
2.904863083E1,1.088896275E0,-9.725097656E0,-6.380962729E-1
2.906881844E1,1.086753845E0,-9.724711418E0,-6.475523710E-1
2.908900786E1,1.084943771E0,-9.724694252E0,-6.508563757E-1
2.910919901E1,1.084705830E0,-9.724818230E0,-6.493878365E-1
2.912939172E1,1.087165713E0,-9.724630356E0,-6.480976939E-1
2.914958573E1,1.091055393E0,-9.724133492E0,-6.490119100E-1
2.916978073E1,1.095620155E0,-9.723380089E0,-6.525866985E-1
2.918997641E1,1.099292874E0,-9.722594261E0,-6.581113935E-1
2.921017245E1,1.100927353E0,-9.722115517E0,-6.624235511E-1
2.923036812E1,1.100301504E0,-9.721971512E0,-6.655777693E-1
2.925055995E1,1.098475695E0,-9.721943855E0,-6.689864397E-1
2.927074833E1,1.097045541E0,-9.721849442E0,-6.727088690E-1
2.929093396E1,1.097305298E0,-9.721509933E0,-6.771679521E-1
2.931111708E1,1.098798871E0,-9.721125603E0,-6.802489161E-1
2.933130068E1,1.099013209E0,-9.721004486E0,-6.816381812E-1
2.935148490E1,1.097182631E0,-9.721131325E0,-6.827869415E-1
2.937166990E1,1.094861507E0,-9.721286774E0,-6.842908859E-1
2.939185578E1,1.093077779E0,-9.721435547E0,-6.850364208E-1
2.941204260E1,1.091582656E0,-9.721599579E0,-6.850752234E-1
2.943223036E1,1.089892030E0,-9.721744537E0,-6.857070327E-1
2.945241906E1,1.087360382E0,-9.722066879E0,-6.851648688E-1
2.947260870E1,1.085432291E0,-9.722468376E0,-6.825177073E-1
2.949279916E1,1.086149096E0,-9.722586632E0,-6.796917915E-1
2.951291969E1,1.089865327E0,-9.722304344E0,-6.777647138E-1
2.953297578E1,1.094855070E0,-9.721871376E0,-6.759293675E-1
2.955304594E1,1.100960255E0,-9.721345901E0,-6.735792160E-1
2.957313432E1,1.107108712E0,-9.720781326E0,-6.716346145E-1
2.959324422E1,1.111453772E0,-9.720355034E0,-6.706401110E-1
2.961337792E1,1.112817049E0,-9.720147133E0,-6.713840365E-1
2.963353666E1,1.111799598E0,-9.720244408E0,-6.716654301E-1
2.965372068E1,1.109594703E0,-9.720549583E0,-6.708964109E-1
2.967392911E1,1.107144117E0,-9.720864296E0,-6.703831553E-1
2.969416016E1,1.104776740E0,-9.721204758E0,-6.693574786E-1
2.971441120E1,1.101302624E0,-9.721785545E0,-6.666436195E-1
2.973467896E1,1.095356107E0,-9.722758293E0,-6.622332335E-1
2.975495958E1,1.088681698E0,-9.723777771E0,-6.582679152E-1
2.977524885E1,1.082758307E0,-9.724582672E0,-6.561398506E-1
2.979554240E1,1.078400731E0,-9.725212097E0,-6.539876461E-1
2.981580906E1,1.076215982E0,-9.725626945E0,-6.514068842E-1
2.983602260E1,1.075632572E0,-9.725821495E0,-6.494598985E-1
2.985621635E1,1.076184154E0,-9.725793839E0,-6.489638090E-1
2.987640474E1,1.077880383E0,-9.725543976E0,-6.498778462E-1
2.989658255E1,1.079490185E0,-9.725234032E0,-6.518657207E-1
2.991676094E1,1.079223514E0,-9.725075722E0,-6.546500921E-1
2.993694026E1,1.077326417E0,-9.725066185E0,-6.579036117E-1
2.995712088E1,1.074173927E0,-9.725227356E0,-6.606857181E-1
2.997730307E1,1.068600178E0,-9.725760460E0,-6.618582010E-1
2.999748698E1,1.059284091E0,-9.726727486E0,-6.626440287E-1
3.001768937E1,1.049107194E0,-9.727551460E0,-6.667061448E-1
3.003790625E1,1.042188883E0,-9.727806091E0,-6.738110781E-1
3.005809458E1,1.038157701E0,-9.727718353E0,-6.812452674E-1
3.007827750E1,1.035891175E0,-9.727414131E0,-6.890149713E-1
3.009846083E1,1.034282684E0,-9.726827621E0,-6.996318102E-1
3.011864469E1,1.034817338E0,-9.725879669E0,-7.119005322E-1
3.013882927E1,1.038541317E0,-9.724564552E0,-7.243403792E-1
3.015901469E1,1.043473005E0,-9.723233223E0,-7.350383997E-1
3.017920104E1,1.046543479E0,-9.722251892E0,-7.436204553E-1
3.019938833E1,1.047499061E0,-9.721557617E0,-7.512854338E-1
3.021957656E1,1.048295021E0,-9.720964432E0,-7.578377128E-1
3.023976573E1,1.049419284E0,-9.720488548E0,-7.623726130E-1
3.025995573E1,1.051356196E0,-9.720119476E0,-7.643991113E-1
3.028014646E1,1.053671002E0,-9.719920158E0,-7.637566328E-1
3.030033781E1,1.056018233E0,-9.719958305E0,-7.600187659E-1
3.032052969E1,1.057245612E0,-9.720207214E0,-7.551037669E-1
3.034072187E1,1.056156516E0,-9.720612526E0,-7.514234781E-1
3.036091427E1,1.053506494E0,-9.721127510E0,-7.484672666E-1
3.038111750E1,1.050004959E0,-9.721716881E0,-7.457131147E-1
3.040129646E1,1.046548963E0,-9.722284317E0,-7.431796193E-1
3.042147573E1,1.044924140E0,-9.722445488E0,-7.433500886E-1
3.044165573E1,1.044605851E0,-9.722300529E0,-7.456980348E-1
3.046183667E1,1.044089556E0,-9.722324371E0,-7.460929751E-1
3.048201885E1,1.043360829E0,-9.722641945E0,-7.429891229E-1
3.050220250E1,1.042026997E0,-9.723135948E0,-7.383690476E-1
3.052238771E1,1.040152431E0,-9.723601341E0,-7.348650098E-1
3.054257458E1,1.038009405E0,-9.723879814E0,-7.342312336E-1
3.056276312E1,1.037708998E0,-9.723792076E0,-7.357994914E-1
3.058295323E1,1.038651586E0,-9.723566055E0,-7.374708056E-1
3.060314479E1,1.038746357E0,-9.723499298E0,-7.382072210E-1
3.062333760E1,1.038525343E0,-9.723524094E0,-7.381927371E-1
3.064353146E1,1.039342165E0,-9.723505974E0,-7.372806668E-1
3.066372604E1,1.039555669E0,-9.723592758E0,-7.358381152E-1
3.068392104E1,1.038945794E0,-9.723586082E0,-7.367856503E-1
3.070411625E1,1.037986040E0,-9.723466873E0,-7.397040129E-1
3.072431000E1,1.037377715E0,-9.723387718E0,-7.415934801E-1
3.074449833E1,1.036120176E0,-9.723519325E0,-7.416306734E-1
3.076468125E1,1.034212112E0,-9.723861694E0,-7.398191094E-1
3.078486458E1,1.032934666E0,-9.724323273E0,-7.355048060E-1
3.080504844E1,1.033186316E0,-9.724737167E0,-7.296548486E-1
3.082523302E1,1.032247066E0,-9.725281715E0,-7.237061262E-1
3.084541844E1,1.029335260E0,-9.725901604E0,-7.195093632E-1
3.086560479E1,1.025366783E0,-9.726528168E0,-7.167019844E-1
3.088579208E1,1.023340344E0,-9.726912498E0,-7.143745422E-1
3.090598031E1,1.023716688E0,-9.726927757E0,-7.136313915E-1
3.092616948E1,1.024001122E0,-9.726872444E0,-7.139859796E-1
3.094635948E1,1.024308443E0,-9.726818085E0,-7.142684460E-1
3.096655021E1,1.025963306E0,-9.726655006E0,-7.141245604E-1
3.098674156E1,1.028163552E0,-9.726522446E0,-7.127638459E-1
3.100693344E1,1.029477358E0,-9.726514816E0,-7.109664679E-1
3.102713916E1,1.030370355E0,-9.726459503E0,-7.104393244E-1
3.104731932E1,1.031390071E0,-9.726336479E0,-7.106330395E-1
3.106749995E1,1.032732487E0,-9.726148605E0,-7.112492323E-1
3.108768130E1,1.034615159E0,-9.725811005E0,-7.131308317E-1
3.110786359E1,1.035930753E0,-9.725554466E0,-7.147139311E-1
3.112804703E1,1.033988237E0,-9.725831032E0,-7.137691379E-1
3.114823177E1,1.028463840E0,-9.726653099E0,-7.105444074E-1
3.116841792E1,1.020853519E0,-9.727671623E0,-7.075638175E-1
3.118860552E1,1.012454033E0,-9.728777885E0,-7.044132948E-1
3.120879453E1,1.005938292E0,-9.729635239E0,-7.019094229E-1
3.122898484E1,1.002244353E0,-9.730147362E0,-7.000934482E-1
3.124917635E1,1.001154900E0,-9.730396271E0,-6.981757283E-1
3.126936890E1,1.000850558E0,-9.730608940E0,-6.956601739E-1
3.128956229E1,9.996136427E-1,-9.730887413E0,-6.935331821E-1
3.130975625E1,9.981364608E-1,-9.731042862E0,-6.934847832E-1
3.132995052E1,9.982030392E-1,-9.730782509E0,-6.970252991E-1
3.135015031E1,9.994630814E-1,-9.730314255E0,-7.017412186E-1
3.137034177E1,1.001619339E0,-9.729784012E0,-7.060066462E-1
3.139051969E1,1.004912138E0,-9.729111671E0,-7.105830908E-1
3.141069818E1,1.007375598E0,-9.728555679E0,-7.146914005E-1
3.143087760E1,1.007401228E0,-9.728275299E0,-7.184564471E-1
3.145105828E1,1.007200122E0,-9.727990150E0,-7.225931883E-1
3.147124047E1,1.008390188E0,-9.727687836E0,-7.250005603E-1
3.149142437E1,1.010964394E0,-9.727420807E0,-7.249882221E-1
3.151161010E1,1.012258530E0,-9.727302551E0,-7.247831225E-1
3.153179771E1,1.011309266E0,-9.727382660E0,-7.250269651E-1
3.155198713E1,1.009476066E0,-9.727531433E0,-7.255804539E-1
3.157217823E1,1.006526947E0,-9.727767944E0,-7.265262604E-1
3.159237078E1,1.002609611E0,-9.728064537E0,-7.279540300E-1
3.161256458E1,9.986898303E-1,-9.728358269E0,-7.294155955E-1
3.163275937E1,9.962732196E-1,-9.728534698E0,-7.303690314E-1
3.165295484E1,9.961216450E-1,-9.728487968E0,-7.312082648E-1
3.167315068E1,9.971591830E-1,-9.728225708E0,-7.332725525E-1
3.169334615E1,9.986662865E-1,-9.727787971E0,-7.370083332E-1
3.171353781E1,9.998937249E-1,-9.727341652E0,-7.412256598E-1
3.173372344E1,1.001107812E0,-9.726860046E0,-7.458924651E-1
3.175390656E1,1.002211809E0,-9.726424217E0,-7.500799894E-1
3.177409016E1,1.002806425E0,-9.726044655E0,-7.542108893E-1
3.179427437E1,1.004161835E0,-9.725603104E0,-7.580795884E-1
3.181445937E1,1.006316662E0,-9.725129128E0,-7.612963319E-1
3.183464526E1,1.008014202E0,-9.724772453E0,-7.636131644E-1
3.185483208E1,1.008736372E0,-9.724575996E0,-7.651574016E-1
3.187501984E1,1.008661628E0,-9.724395752E0,-7.675440907E-1
3.189520854E1,1.006845713E0,-9.724427223E0,-7.695230246E-1
3.191539812E1,1.003667831E0,-9.724827766E0,-7.686066628E-1
3.193558849E1,1.000631452E0,-9.725399017E0,-7.653368711E-1
3.195577953E1,9.985972643E-1,-9.725908279E0,-7.615003586E-1
3.197597115E1,9.972551465E-1,-9.726349831E0,-7.576278448E-1
3.199616318E1,9.956440330E-1,-9.726711273E0,-7.550934553E-1
3.201637740E1,9.935538173E-1,-9.727005005E0,-7.540580034E-1
3.203655073E1,9.912733436E-1,-9.727199554E0,-7.545594573E-1
3.205672458E1,9.889111519E-1,-9.727316856E0,-7.561439872E-1
3.207689958E1,9.871025085E-1,-9.727395058E0,-7.575026751E-1
3.209707614E1,9.860350490E-1,-9.727544785E0,-7.569543123E-1
3.211725469E1,9.844463468E-1,-9.727815628E0,-7.555531263E-1
3.213743552E1,9.822705984E-1,-9.728025436E0,-7.556831241E-1
3.215761885E1,9.807296991E-1,-9.728047371E0,-7.573974133E-1
3.217780479E1,9.799625874E-1,-9.727937698E0,-7.597938776E-1
3.219799333E1,9.792992473E-1,-9.727799416E0,-7.624135017E-1
3.221818437E1,9.784480929E-1,-9.727681160E0,-7.649973631E-1
3.223837771E1,9.777691364E-1,-9.727505684E0,-7.681047916E-1
3.225857302E1,9.772981405E-1,-9.727355003E0,-7.706114650E-1
3.227877000E1,9.772325158E-1,-9.727226257E0,-7.723037601E-1
3.229896823E1,9.760900140E-1,-9.727193832E0,-7.741741538E-1
3.231916719E1,9.740468860E-1,-9.727132797E0,-7.774949074E-1
3.233936646E1,9.722610116E-1,-9.726835251E0,-7.834264636E-1
3.235956354E1,9.711560607E-1,-9.726305008E0,-7.913537621E-1
3.237975187E1,9.684739709E-1,-9.726061821E0,-7.976074815E-1
3.239995104E1,9.653231502E-1,-9.726046562E0,-8.015994430E-1
3.242012844E1,9.641773105E-1,-9.725992203E0,-8.036426306E-1
3.244030625E1,9.649580121E-1,-9.725996971E0,-8.026340008E-1
3.246048490E1,9.652972221E-1,-9.726200104E0,-7.997636199E-1
3.248066469E1,9.655792117E-1,-9.726393700E0,-7.970651984E-1
3.250084594E1,9.653000832E-1,-9.726633072E0,-7.944810390E-1
3.252102885E1,9.650931358E-1,-9.726903915E0,-7.914099097E-1
3.254121354E1,9.635211825E-1,-9.727447510E0,-7.866364121E-1
3.256140010E1,9.597383738E-1,-9.728467941E0,-7.785872817E-1
3.258158854E1,9.539801478E-1,-9.729807854E0,-7.688644528E-1
3.260177875E1,9.481624365E-1,-9.731107712E0,-7.595490217E-1
3.262197062E1,9.448727369E-1,-9.732068062E0,-7.512978315E-1
3.264216396E1,9.466004372E-1,-9.732331276E0,-7.456904054E-1
3.266235844E1,9.506651759E-1,-9.732288361E0,-7.410830259E-1
3.268255375E1,9.518057108E-1,-9.732491493E0,-7.369340658E-1
3.270274958E1,9.472616911E-1,-9.733148575E0,-7.340920568E-1
3.272294562E1,9.381362796E-1,-9.734174728E0,-7.322106361E-1
3.274314114E1,9.257057905E-1,-9.735360146E0,-7.322675586E-1
3.276332937E1,9.123427272E-1,-9.736294746E0,-7.366100550E-1
3.278351219E1,9.006872177E-1,-9.736795425E0,-7.442865968E-1
3.280369542E1,8.954011202E-1,-9.736675262E0,-7.521958351E-1
3.282387927E1,8.981871605E-1,-9.735823631E0,-7.598578930E-1
3.284406385E1,9.061905742E-1,-9.734464645E0,-7.677237391E-1
3.286424927E1,9.147201777E-1,-9.733040810E0,-7.756128907E-1
3.288443562E1,9.205391407E-1,-9.731945038E0,-7.824465632E-1
3.290462292E1,9.263851643E-1,-9.730775833E0,-7.900580764E-1
3.292481114E1,9.341692328E-1,-9.729247093E0,-7.996630073E-1
3.294500031E1,9.443018436E-1,-9.727569580E0,-8.081336021E-1
3.296519031E1,9.567033648E-1,-9.725982666E0,-8.126239181E-1
3.298538104E1,9.673044086E-1,-9.724768639E0,-8.146159053E-1
3.300557240E1,9.708873630E-1,-9.724426270E0,-8.144417405E-1
3.302578182E1,9.671868682E-1,-9.724865913E0,-8.135768175E-1
3.304596083E1,9.601055384E-1,-9.725482941E0,-8.146064281E-1
3.306614036E1,9.532839656E-1,-9.725848198E0,-8.182393312E-1
3.308632073E1,9.477785230E-1,-9.725965500E0,-8.232213855E-1
3.310650219E1,9.402974248E-1,-9.726459503E0,-8.259730339E-1
3.312668500E1,9.278468490E-1,-9.728242874E0,-8.190116286E-1
3.314686932E1,9.104273915E-1,-9.731707573E0,-7.971024513E-1
3.316705526E1,8.884215951E-1,-9.736379623E0,-7.642093301E-1
3.318724286E1,8.621300459E-1,-9.741633415E0,-7.264357805E-1
3.320743208E1,8.385660052E-1,-9.746279716E0,-6.908103228E-1
3.322762281E1,8.262041211E-1,-9.749149323E0,-6.647140384E-1
3.324781490E1,8.284159303E-1,-9.749984741E0,-6.495445967E-1
3.326800812E1,8.387681246E-1,-9.749790192E0,-6.390956640E-1
3.328820224E1,8.445485234E-1,-9.750017166E0,-6.279328465E-1
3.330839698E1,8.364202976E-1,-9.751477242E0,-6.160241961E-1
3.332859208E1,8.131236434E-1,-9.754204750E0,-6.039153337E-1
3.334878666E1,7.857366800E-1,-9.757179260E0,-5.920036435E-1
3.336897776E1,7.660747766E-1,-9.759379387E0,-5.814165473E-1
3.338917140E1,7.593279481E-1,-9.760311127E0,-5.745818615E-1
3.340935969E1,7.602666020E-1,-9.760490417E0,-5.702818632E-1
3.342953740E1,7.570808530E-1,-9.760797501E0,-5.692566633E-1
3.344971568E1,7.485479116E-1,-9.761116028E0,-5.750485063E-1
3.346989490E1,7.382022738E-1,-9.761181831E0,-5.871595144E-1
3.349007542E1,7.296707034E-1,-9.761139870E0,-5.984186530E-1
3.351025750E1,7.236473560E-1,-9.761155128E0,-6.054513454E-1
3.353044130E1,7.194679379E-1,-9.760957718E0,-6.135640740E-1
3.355062693E1,7.174863219E-1,-9.760339737E0,-6.256019473E-1
3.357081443E1,7.192466259E-1,-9.759410858E0,-6.379560232E-1
3.359100375E1,7.259823084E-1,-9.758384705E0,-6.459615231E-1
3.361119479E1,7.371018529E-1,-9.757336617E0,-6.492033005E-1
3.363138740E1,7.497134209E-1,-9.756339073E0,-6.497305036E-1
3.365158130E1,7.625302076E-1,-9.755417824E0,-6.486552954E-1
3.367177620E1,7.751348615E-1,-9.754561424E0,-6.466087103E-1
3.369197177E1,7.875783443E-1,-9.753865242E0,-6.420483589E-1
3.371216771E1,7.996832728E-1,-9.753246307E0,-6.364632249E-1
3.373236323E1,8.080016375E-1,-9.752903938E0,-6.311751604E-1
3.375255490E1,8.139569163E-1,-9.752739906E0,-6.260408759E-1
3.377274318E1,8.203485608E-1,-9.752731323E0,-6.177743077E-1
3.379292870E1,8.269212246E-1,-9.752877235E0,-6.066097021E-1
3.381311172E1,8.299362063E-1,-9.753260612E0,-5.962314606E-1
3.383329521E1,8.291826844E-1,-9.753633499E0,-5.911648273E-1
3.385347932E1,8.256088495E-1,-9.753499031E0,-5.983436108E-1
3.387366422E1,8.187289238E-1,-9.752006531E0,-6.312198639E-1
3.389385000E1,8.018625379E-1,-9.748878479E0,-6.976952553E-1
3.391403672E1,7.733993530E-1,-9.743578911E0,-7.968041301E-1
3.393422437E1,7.374927402E-1,-9.736512184E0,-9.092984200E-1
3.395441297E1,7.013664246E-1,-9.730249405E0,-1.000355601E0
3.397460245E1,6.859178543E-1,-9.725808144E0,-1.052881956E0
3.399479276E1,6.843473911E-1,-9.723964691E0,-1.070782423E0
3.401501000E1,6.935207248E-1,-9.722950935E0,-1.074082136E0
3.403519052E1,7.168562412E-1,-9.721664429E0,-1.070402026E0
3.405537125E1,7.295970917E-1,-9.721623421E0,-1.062130928E0
3.407555250E1,7.129544616E-1,-9.726910591E0,-1.024354339E0
3.409573458E1,6.835958958E-1,-9.735383034E0,-9.619750381E-1
3.411591771E1,6.829061508E-1,-9.740456581E0,-9.096803069E-1
3.413610198E1,6.928738952E-1,-9.741988182E0,-8.854358792E-1
3.415628760E1,7.047397494E-1,-9.742504120E0,-8.702543974E-1
3.417647458E1,7.071508169E-1,-9.745904922E0,-8.292528391E-1
3.419666292E1,6.920787692E-1,-9.751880646E0,-7.695712447E-1
3.421685250E1,6.638274789E-1,-9.758996010E0,-7.012324929E-1
3.423704323E1,6.373919249E-1,-9.765614510E0,-6.300024986E-1
3.425723500E1,6.191828847E-1,-9.771437645E0,-5.531798005E-1
3.427742760E1,6.150310040E-1,-9.775518417E0,-4.809963107E-1
3.429762083E1,6.232659221E-1,-9.777267456E0,-4.323990345E-1
3.431781448E1,6.369736195E-1,-9.777259827E0,-4.121122956E-1
3.433800833E1,6.531899571E-1,-9.776548386E0,-4.035357237E-1
3.435821302E1,6.710019112E-1,-9.775897980E0,-3.898358643E-1
3.437839083E1,6.875358820E-1,-9.775364876E0,-3.740630448E-1
3.439856906E1,6.993297935E-1,-9.774874687E0,-3.648982644E-1
3.441874802E1,7.080640793E-1,-9.774430275E0,-3.599463999E-1
3.443892812E1,7.164301872E-1,-9.773862839E0,-3.587570786E-1
3.445910958E1,7.235564590E-1,-9.773129463E0,-3.643943667E-1
3.447929260E1,7.289915681E-1,-9.772419930E0,-3.725014329E-1
3.449947740E1,7.341372371E-1,-9.771690369E0,-3.814408183E-1
3.451966396E1,7.397112250E-1,-9.770845413E0,-3.921571970E-1
3.453985229E1,7.437859178E-1,-9.770112991E0,-4.025523365E-1
3.456004240E1,7.446420193E-1,-9.769714355E0,-4.105868936E-1
3.458023406E1,7.403614521E-1,-9.769746780E0,-4.174963534E-1
3.460042708E1,7.314948440E-1,-9.770009041E0,-4.268876910E-1
3.462062125E1,7.240675092E-1,-9.770115852E0,-4.369870722E-1
3.464081625E1,7.297177315E-1,-9.769666672E0,-4.376153648E-1
3.466101177E1,7.376006246E-1,-9.769340515E0,-4.316333234E-1
3.468120750E1,7.432641387E-1,-9.769117355E0,-4.269588888E-1
3.470140281E1,7.463871241E-1,-9.768944740E0,-4.254513979E-1
3.472159104E1,7.516391873E-1,-9.768572807E0,-4.247417152E-1
3.474177385E1,7.602404356E-1,-9.767989159E0,-4.228522182E-1
3.476195708E1,7.706537247E-1,-9.767403603E0,-4.175084829E-1
3.478214083E1,7.819753289E-1,-9.766853333E0,-4.092423320E-1
3.480232531E1,7.931521535E-1,-9.766257286E0,-4.018699229E-1
3.482251062E1,8.042711616E-1,-9.765408516E0,-4.004188478E-1
3.484269687E1,8.171458244E-1,-9.764175415E0,-4.044145346E-1
3.486288406E1,8.335840702E-1,-9.762448311E0,-4.124711752E-1
3.488307219E1,8.506587148E-1,-9.760586739E0,-4.215588570E-1
3.490326125E1,8.630201221E-1,-9.759117126E0,-4.303759038E-1
3.492345114E1,8.686128855E-1,-9.758327484E0,-4.369719326E-1
3.494364177E1,8.705493808E-1,-9.758032799E0,-4.397014678E-1
3.496383302E1,8.708930016E-1,-9.758015633E0,-4.393814206E-1
3.498402479E1,8.699628711E-1,-9.758074760E0,-4.399234056E-1
3.500421687E1,8.689682484E-1,-9.758061409E0,-4.421592951E-1
3.502442521E1,8.686054349E-1,-9.758069038E0,-4.427144825E-1
3.504459260E1,8.688367009E-1,-9.758155823E0,-4.403352141E-1
3.506476120E1,8.687592745E-1,-9.758335114E0,-4.365390539E-1
3.508493172E1,8.687740564E-1,-9.758440018E0,-4.341267943E-1
3.510510479E1,8.696277738E-1,-9.758317947E0,-4.351925552E-1
3.512528094E1,8.723337054E-1,-9.757872581E0,-4.396870136E-1
3.514546052E1,8.762464523E-1,-9.757173538E0,-4.473755062E-1
3.516564375E1,8.804121614E-1,-9.756385803E0,-4.562710822E-1
3.518583068E1,8.835482597E-1,-9.755737305E0,-4.640179276E-1
3.520602120E1,8.862665296E-1,-9.755177498E0,-4.705837965E-1
3.522621510E1,8.881283998E-1,-9.754713058E0,-4.766539633E-1
3.524641203E1,8.881441355E-1,-9.754371643E0,-4.835388958E-1
3.526661151E1,8.889350295E-1,-9.753962517E0,-4.902990162E-1
3.528681297E1,8.922544122E-1,-9.753363609E0,-4.961537421E-1
3.530701578E1,8.970701694E-1,-9.752681732E0,-5.008497834E-1
3.532721932E1,9.010475278E-1,-9.752023697E0,-5.065020919E-1
3.534742083E1,9.034215808E-1,-9.751441002E0,-5.134442449E-1
3.536761458E1,9.043375254E-1,-9.751031876E0,-5.195612311E-1
3.538780823E1,9.044530988E-1,-9.750825882E0,-5.231962204E-1
3.540799646E1,9.049578309E-1,-9.750663757E0,-5.253469944E-1
3.542817406E1,9.069774747E-1,-9.750316620E0,-5.282981396E-1
3.544835224E1,9.098950028E-1,-9.749798775E0,-5.328210592E-1
3.546853135E1,9.122928381E-1,-9.749361992E0,-5.366887450E-1
3.548871177E1,9.137598872E-1,-9.749105453E0,-5.388807654E-1
3.550889375E1,9.153143167E-1,-9.748816490E0,-5.414479375E-1
3.552907745E1,9.168672562E-1,-9.748494148E0,-5.446138978E-1
3.554926297E1,9.183235168E-1,-9.748075485E0,-5.496203303E-1
3.556945036E1,9.194940925E-1,-9.747529030E0,-5.573021770E-1
3.558963958E1,9.184977412E-1,-9.747091293E0,-5.665132403E-1
3.560983052E1,9.131305218E-1,-9.747086525E0,-5.752245188E-1
3.563002302E1,9.029176235E-1,-9.747615814E0,-5.823329687E-1
3.565021682E1,8.891388774E-1,-9.748566628E0,-5.875917077E-1
3.567041166E1,8.730641603E-1,-9.749917030E0,-5.892895460E-1
3.569060729E1,8.506534696E-1,-9.752029419E0,-5.871032476E-1
3.571080333E1,8.231880665E-1,-9.754919052E0,-5.781769156E-1
3.573099906E1,7.957116961E-1,-9.758152008E0,-5.618712902E-1
3.575119078E1,7.724182606E-1,-9.761350632E0,-5.383353233E-1
3.577137620E1,7.529775500E-1,-9.764480591E0,-5.082676411E-1
3.579155911E1,7.380269766E-1,-9.767197609E0,-4.770292342E-1
3.581174255E1,7.282119393E-1,-9.769060135E0,-4.533949196E-1
3.583192667E1,7.232903242E-1,-9.769945145E0,-4.420762062E-1
3.585211156E1,7.227618098E-1,-9.770092010E0,-4.396783113E-1
3.587229734E1,7.268540263E-1,-9.769810677E0,-4.391680956E-1
3.589248406E1,7.338195443E-1,-9.769433022E0,-4.359928370E-1
3.591267172E1,7.400523424E-1,-9.769125938E0,-4.323208630E-1
3.593286031E1,7.436596751E-1,-9.768888474E0,-4.314714670E-1
3.595304979E1,7.451208830E-1,-9.768701553E0,-4.331977963E-1
3.597324005E1,7.446177602E-1,-9.768753052E0,-4.328810275E-1
3.599343099E1,7.413566113E-1,-9.769157410E0,-4.293495715E-1
3.601365328E1,7.352880836E-1,-9.769927025E0,-4.222120345E-1
3.603382578E1,7.260450125E-1,-9.770990372E0,-4.135119319E-1
3.605402385E1,7.155603170E-1,-9.772051811E0,-4.066397548E-1
3.607419266E1,7.078202367E-1,-9.772789001E0,-4.024318755E-1
3.609436255E1,7.048911452E-1,-9.773151398E0,-3.987822831E-1
3.611453422E1,7.065632343E-1,-9.773241997E0,-3.935978115E-1
3.613470828E1,7.090262175E-1,-9.773351669E0,-3.863227963E-1
3.615488521E1,7.110236287E-1,-9.773523331E0,-3.782666922E-1
3.617506531E1,7.128209472E-1,-9.773666382E0,-3.711156249E-1
3.619524880E1,7.136655450E-1,-9.773801804E0,-3.658727705E-1
3.621543573E1,7.111790180E-1,-9.774113655E0,-3.623483479E-1
3.623562604E1,7.049819231E-1,-9.774700165E0,-3.586512208E-1
3.625581953E1,6.973537207E-1,-9.775443077E0,-3.532724679E-1
3.627601583E1,6.907488704E-1,-9.776097298E0,-3.481245935E-1
3.629621448E1,6.857441068E-1,-9.776578903E0,-3.444353640E-1
3.631641495E1,6.812785268E-1,-9.776946068E0,-3.428864181E-1
3.633661672E1,6.775664091E-1,-9.777190208E0,-3.432987928E-1
3.635681922E1,6.748834848E-1,-9.777318954E0,-3.448902965E-1
3.637702000E1,6.731009483E-1,-9.777334213E0,-3.479558825E-1
3.639721354E1,6.736203432E-1,-9.777102470E0,-3.534169495E-1
3.641740719E1,6.766523123E-1,-9.776577950E0,-3.620088995E-1
3.643759542E1,6.807467937E-1,-9.775933266E0,-3.716266155E-1
3.645777302E1,6.836064458E-1,-9.775430679E0,-3.795326054E-1
3.647795120E1,6.836440563E-1,-9.775275230E0,-3.834051490E-1
3.649813031E1,6.819593310E-1,-9.775358200E0,-3.843350410E-1
3.651832599E1,6.800952554E-1,-9.775513649E0,-3.836472929E-1
3.653853099E1,6.770067811E-1,-9.775766373E0,-3.826782107E-1
3.655871922E1,6.733034253E-1,-9.776041985E0,-3.821606934E-1
3.657890203E1,6.701135039E-1,-9.776319504E0,-3.806662560E-1
3.659908526E1,6.682698131E-1,-9.776522636E0,-3.786922395E-1
3.661926901E1,6.673805714E-1,-9.776617050E0,-3.778158128E-1
3.663945349E1,6.674566865E-1,-9.776563644E0,-3.790812194E-1
3.665963880E1,6.683654785E-1,-9.776306152E0,-3.840471506E-1
3.667982505E1,6.705077887E-1,-9.775862694E0,-3.915449381E-1
3.670001224E1,6.736791730E-1,-9.775263786E0,-4.009392858E-1
3.672020036E1,6.764978170E-1,-9.774593353E0,-4.123848081E-1
3.674038943E1,6.786425710E-1,-9.773960114E0,-4.237151444E-1
3.676057932E1,6.823409200E-1,-9.773233414E0,-4.344074726E-1
3.678076995E1,6.872712970E-1,-9.772413254E0,-4.449545741E-1
3.680096120E1,6.916565299E-1,-9.771719933E0,-4.532994926E-1
3.682115297E1,6.935480237E-1,-9.771361351E0,-4.581099749E-1
3.684134505E1,6.932871342E-1,-9.771385193E0,-4.580034018E-1
3.686153724E1,6.906108856E-1,-9.771781921E0,-4.535770118E-1
3.688174026E1,6.868224144E-1,-9.772390366E0,-4.461328089E-1
3.690191859E1,6.829358935E-1,-9.773047447E0,-4.376407564E-1
3.692209724E1,6.801196337E-1,-9.773581505E0,-4.300231636E-1
3.694227661E1,6.765411496E-1,-9.774127007E0,-4.232366681E-1
3.696245703E1,6.717483401E-1,-9.774737358E0,-4.166987836E-1
3.698263880E1,6.663324833E-1,-9.775339127E0,-4.112697840E-1
3.700282213E1,6.621370912E-1,-9.775723457E0,-4.088768661E-1
3.702300713E1,6.601094007E-1,-9.775819778E0,-4.098720253E-1
3.704319380E1,6.599135995E-1,-9.775610924E0,-4.151323140E-1
3.706338213E1,6.606284380E-1,-9.775203705E0,-4.235053062E-1
3.708357213E1,6.624265909E-1,-9.774698257E0,-4.322712123E-1
3.710376359E1,6.651584506E-1,-9.774231911E0,-4.385596812E-1
3.712395630E1,6.671679020E-1,-9.773966789E0,-4.414162934E-1
3.714415005E1,6.667518616E-1,-9.773984909E0,-4.416399002E-1
3.716434463E1,6.646757722E-1,-9.774199486E0,-4.400299191E-1
3.718453974E1,6.623415947E-1,-9.774435043E0,-4.383230209E-1
3.720473505E1,6.596154571E-1,-9.774687767E0,-4.367932975E-1
3.722492974E1,6.575418711E-1,-9.774936676E0,-4.343294501E-1
3.724511797E1,6.585807800E-1,-9.774950981E0,-4.324348867E-1
3.726530078E1,6.616978049E-1,-9.774713516E0,-4.330340922E-1
3.728548401E1,6.650192142E-1,-9.774362564E0,-4.358683825E-1
3.730566776E1,6.676134467E-1,-9.774057388E0,-4.387144148E-1
3.732585224E1,6.694709659E-1,-9.773868561E0,-4.401146173E-1
3.734603755E1,6.708278060E-1,-9.773782730E0,-4.399437904E-1
3.736622380E1,6.723657250E-1,-9.773715019E0,-4.391011894E-1
3.738641099E1,6.745756269E-1,-9.773586273E0,-4.385650456E-1
3.740659911E1,6.767839193E-1,-9.773443222E0,-4.383305907E-1
3.742678818E1,6.781371236E-1,-9.773369789E0,-4.378992617E-1
3.744697807E1,6.788263917E-1,-9.773370743E0,-4.368167520E-1
3.746716870E1,6.787835956E-1,-9.773434639E0,-4.354566932E-1
3.748735995E1,6.791695356E-1,-9.773437500E0,-4.347702563E-1
3.750755172E1,6.802849174E-1,-9.773354530E0,-4.348992407E-1
3.752779364E1,6.812087297E-1,-9.773272514E0,-4.353055954E-1
3.754794083E1,6.820552945E-1,-9.773194313E0,-4.357571900E-1
3.756808958E1,6.831853390E-1,-9.773124695E0,-4.355147183E-1
3.758824146E1,6.843989491E-1,-9.773026466E0,-4.358014762E-1
3.760839781E1,6.851209402E-1,-9.772928238E0,-4.369134605E-1
3.762855969E1,6.855038404E-1,-9.772832870E0,-4.384016395E-1
3.764872792E1,6.863496304E-1,-9.772763252E0,-4.386382103E-1
3.766890302E1,6.867662072E-1,-9.772738457E0,-4.385538101E-1
3.768908531E1,6.847957969E-1,-9.772896767E0,-4.381219447E-1
3.770927469E1,6.827840805E-1,-9.773097992E0,-4.367335737E-1
3.772947083E1,6.829947233E-1,-9.773160934E0,-4.349941909E-1
3.774967312E1,6.841249466E-1,-9.773127556E0,-4.339943826E-1
3.776988083E1,6.837993860E-1,-9.773129463E0,-4.344283938E-1
3.779009292E1,6.829465628E-1,-9.773155212E0,-4.351970255E-1
3.781030823E1,6.827769279E-1,-9.773149490E0,-4.355997443E-1
3.783052552E1,6.832531691E-1,-9.773118973E0,-4.355626702E-1
3.785074364E1,6.833787560E-1,-9.773133278E0,-4.350328445E-1
3.787095187E1,6.826951504E-1,-9.773204803E0,-4.345000982E-1
3.789114010E1,6.813915968E-1,-9.773343086E0,-4.334231913E-1
3.791133916E1,6.800303459E-1,-9.773506165E0,-4.318681061E-1
3.793151646E1,6.787463427E-1,-9.773650169E0,-4.306325614E-1
3.795169416E1,6.766456962E-1,-9.773748398E0,-4.317330122E-1
3.797187271E1,6.747758985E-1,-9.773669243E0,-4.363927245E-1
3.799205240E1,6.742234826E-1,-9.773249626E0,-4.465517700E-1
3.801223354E1,6.739979386E-1,-9.772378922E0,-4.655584395E-1
3.803241635E1,6.712215543E-1,-9.771363258E0,-4.902285635E-1
3.805260094E1,6.578458548E-1,-9.770869255E0,-5.174189806E-1
3.807278740E1,6.424221992E-1,-9.771377563E0,-5.271220207E-1
3.809297573E1,6.295717359E-1,-9.772073746E0,-5.297326446E-1
3.811316583E1,6.196297407E-1,-9.771883011E0,-5.447569489E-1
3.813335760E1,6.215454936E-1,-9.770168304E0,-5.726023316E-1
3.815355083E1,6.398027539E-1,-9.766995430E0,-6.056714058E-1
3.817374521E1,6.698056459E-1,-9.762943268E0,-6.377235055E-1
3.819394042E1,7.038807273E-1,-9.758710861E0,-6.652038693E-1
3.821413615E1,7.365537286E-1,-9.755883217E0,-6.712913513E-1
3.823433208E1,7.595217228E-1,-9.755355835E0,-6.530933380E-1
3.825452750E1,7.542643547E-1,-9.756898880E0,-6.359048486E-1
3.827471562E1,7.198454738E-1,-9.759271622E0,-6.394101381E-1
3.829489833E1,6.705337763E-1,-9.760992050E0,-6.661774516E-1
3.831508146E1,6.266953945E-1,-9.761137009E0,-7.055822015E-1
3.833526521E1,5.844420195E-1,-9.761002541E0,-7.427261472E-1
3.835544969E1,5.510635972E-1,-9.761203766E0,-7.652602792E-1
3.837563500E1,5.166001916E-1,-9.762508392E0,-7.726265192E-1
3.839582125E1,4.913081527E-1,-9.763937950E0,-7.710517049E-1
3.841600844E1,4.738434851E-1,-9.766091347E0,-7.545376420E-1
3.843619656E1,4.587107599E-1,-9.769025803E0,-7.253329158E-1
3.845638562E1,4.404566586E-1,-9.771976471E0,-6.963174343E-1
3.847657552E1,4.356799126E-1,-9.773562431E0,-6.768002510E-1
3.849676614E1,4.295028150E-1,-9.774017334E0,-6.741653085E-1
3.851695740E1,4.293694496E-1,-9.773357391E0,-6.837438941E-1
3.853714916E1,4.336367846E-1,-9.772471428E0,-6.936510205E-1
3.855734125E1,4.377146661E-1,-9.771175385E0,-7.091804147E-1
3.857753344E1,4.320948720E-1,-9.768226624E0,-7.519537807E-1
3.859773646E1,4.327056408E-1,-9.763057709E0,-8.159996867E-1
3.861791479E1,4.417542815E-1,-9.757828712E0,-8.717846274E-1
3.863809344E1,4.523082078E-1,-9.755483627E0,-8.923839331E-1
3.865827281E1,4.689188004E-1,-9.755780220E0,-8.804836869E-1
3.867845323E1,4.873708785E-1,-9.756346703E0,-8.640322089E-1
3.869863500E1,5.093461871E-1,-9.756855965E0,-8.454073668E-1
3.871881823E1,5.237756371E-1,-9.758197784E0,-8.207461238E-1
3.873900312E1,5.482040048E-1,-9.757555962E0,-8.123930097E-1
3.875918969E1,5.805103779E-1,-9.753913879E0,-8.334022760E-1
3.877937792E1,6.115606427E-1,-9.747770309E0,-8.816694021E-1
3.879956781E1,6.408200860E-1,-9.738194466E0,-9.629698396E-1
3.881975916E1,6.629849672E-1,-9.726502419E0,-1.061128020E0
3.883995187E1,6.916180253E-1,-9.715876579E0,-1.137454152E0
3.886014562E1,7.466802597E-1,-9.714030266E0,-1.118244171E0
3.888034021E1,7.869221568E-1,-9.718437195E0,-1.050292015E0
3.890053531E1,7.852014303E-1,-9.718690872E0,-1.049238920E0
3.892073062E1,7.616193891E-1,-9.713255882E0,-1.114894152E0
3.894092573E1,7.265005708E-1,-9.709117889E0,-1.172858953E0
3.896111385E1,6.803532839E-1,-9.710021973E0,-1.192886829E0
3.898129656E1,6.306588054E-1,-9.712778091E0,-1.197743654E0
3.900147969E1,5.731621385E-1,-9.714828491E0,-1.209949255E0
3.902166333E1,5.092294216E-1,-9.716691971E0,-1.223511457E0
3.904184771E1,4.323534369E-1,-9.718991280E0,-1.234778762E0
3.906203292E1,3.359396458E-1,-9.721755028E0,-1.242978454E0
3.908221906E1,2.734434605E-1,-9.722980499E0,-1.248703241E0
3.910240614E1,2.788357437E-1,-9.724864006E0,-1.232748747E0
3.912259427E1,3.211515844E-1,-9.727725983E0,-1.199413180E0
3.914278333E1,3.375563920E-1,-9.730090141E0,-1.175497293E0
3.916297323E1,3.480858207E-1,-9.730846405E0,-1.166126370E0
3.918316385E1,3.515642285E-1,-9.733848572E0,-1.139730811E0
3.920335510E1,3.433131576E-1,-9.738672256E0,-1.100350618E0
3.922354687E1,3.311387002E-1,-9.743870735E0,-1.057216525E0
3.924373896E1,3.254717886E-1,-9.748533249E0,-1.015160322E0
3.926393125E1,3.423995078E-1,-9.751160622E0,-9.838879108E-1
3.928413437E1,3.604513407E-1,-9.751109123E0,-9.779160619E-1
3.930431292E1,3.749698102E-1,-9.748693466E0,-9.963715076E-1
3.932449177E1,3.779645264E-1,-9.746582985E0,-1.015694022E0
3.934467135E1,3.726001978E-1,-9.747635841E0,-1.007538795E0
3.936485198E1,3.646219075E-1,-9.751005173E0,-9.774122834E-1
3.938503385E1,3.371681571E-1,-9.755723000E0,-9.394490123E-1
3.940521719E1,3.241491318E-1,-9.758797646E0,-9.116973877E-1
3.942540208E1,3.125045002E-1,-9.760162354E0,-9.010892510E-1
3.944558864E1,3.099664450E-1,-9.761178017E0,-8.909090161E-1
3.946577687E1,3.261701167E-1,-9.761313438E0,-8.836087584E-1
3.948596666E1,3.362844884E-1,-9.760864258E0,-8.847805262E-1
3.950615792E1,3.322387338E-1,-9.760758400E0,-8.874686360E-1
3.952635042E1,3.283659518E-1,-9.760117531E0,-8.959175944E-1
3.954654396E1,3.184323311E-1,-9.759407997E0,-9.071668983E-1
3.956673833E1,3.074153066E-1,-9.758663177E0,-9.188961983E-1
3.958693323E1,3.125859499E-1,-9.757472038E0,-9.297401905E-1
3.960712833E1,3.457140625E-1,-9.754343987E0,-9.506040812E-1
3.962731802E1,3.899776340E-1,-9.749905586E0,-9.785998464E-1
3.964750781E1,4.321354330E-1,-9.747364998E0,-9.861642122E-1
3.966770844E1,4.507330656E-1,-9.748118401E0,-9.702597260E-1
3.968788833E1,4.592826664E-1,-9.749488831E0,-9.523193240E-1
3.970806854E1,4.494581819E-1,-9.750486374E0,-9.467725754E-1
3.972824937E1,4.294588566E-1,-9.752194405E0,-9.384334087E-1
3.974843104E1,4.046958685E-1,-9.755659103E0,-9.130859971E-1
3.976861375E1,3.813421726E-1,-9.760419846E0,-8.713014126E-1
3.978879771E1,3.654569089E-1,-9.765411377E0,-8.207020164E-1
3.980898302E1,3.650327921E-1,-9.768869400E0,-7.786811590E-1
3.982916979E1,3.803758621E-1,-9.769705772E0,-7.606289983E-1
3.984935802E1,3.969955146E-1,-9.768872261E0,-7.628321648E-1
3.986954760E1,4.031704962E-1,-9.767601967E0,-7.757531404E-1
3.988973844E1,3.954865932E-1,-9.766386986E0,-7.947697639E-1
3.990993042E1,3.814041615E-1,-9.766201973E0,-8.038777709E-1
3.993012333E1,3.737308681E-1,-9.767581940E0,-7.906093001E-1
3.995031698E1,3.627577424E-1,-9.770412445E0,-7.601445317E-1
3.997051104E1,3.456444442E-1,-9.773765564E0,-7.241703868E-1
3.999070531E1,3.364606202E-1,-9.776198387E0,-6.950795650E-1
4.001089906E1,2.940246165E-1,-9.779091835E0,-6.732853055E-1
4.003108729E1,2.297869772E-1,-9.781996727E0,-6.558440924E-1
4.005127542E1,1.347505450E-1,-9.784704208E0,-6.417080164E-1
4.007145812E1,1.337381545E-2,-9.785826683E0,-6.385958791E-1
4.009164125E1,-1.446812004E-1,-9.784740448E0,-6.390046477E-1
4.011182500E1,-3.371593058E-1,-9.778644562E0,-6.593923569E-1
4.013200948E1,-5.527215004E-1,-9.765301704E0,-7.097645402E-1
4.015219479E1,-8.038015366E-1,-9.742861748E0,-7.751945257E-1
4.017238104E1,-1.102083802E0,-9.706398010E0,-8.611930013E-1
4.019256823E1,-1.394343138E0,-9.658882141E0,-9.655089974E-1
4.021275635E1,-1.601956606E0,-9.614653587E0,-1.078216195E0
4.023294542E1,-1.716749549E0,-9.582686424E0,-1.181216478E0
4.025313531E1,-1.797410369E0,-9.558342934E0,-1.256097436E0
4.027332594E1,-1.885433555E0,-9.535452843E0,-1.300256133E0
4.029351719E1,-2.001001120E0,-9.507205963E0,-1.333942771E0
4.031370896E1,-2.169844866E0,-9.462175369E0,-1.389027715E0
4.033390104E1,-2.380251884E0,-9.397547722E0,-1.480165482E0
4.035409323E1,-2.559223175E0,-9.332432747E0,-1.589486718E0
4.037429625E1,-2.649063349E0,-9.288357735E0,-1.696835518E0
4.039447437E1,-2.656207800E0,-9.270178795E0,-1.782899976E0
4.041465281E1,-2.660681009E0,-9.259792328E0,-1.829593182E0
4.043483198E1,-2.691474438E0,-9.249202728E0,-1.838096142E0
4.045501219E1,-2.723692417E0,-9.240109444E0,-1.836368322E0
4.047519375E1,-2.746912956E0,-9.231261253E0,-1.846259475E0
4.049537687E1,-2.772723913E0,-9.222945213E0,-1.849234581E0
4.051556166E1,-2.797772646E0,-9.218426704E0,-1.833971262E0
4.053574823E1,-2.806643009E0,-9.218254089E0,-1.821244359E0
4.055593656E1,-2.803487062E0,-9.218015671E0,-1.827303886E0
4.057612656E1,-2.798614740E0,-9.213151932E0,-1.859021306E0
4.059631812E1,-2.911710739E0,-9.176865578E0,-1.864796281E0
4.061651104E1,-3.045112371E0,-9.135539055E0,-1.854618430E0
4.063670500E1,-3.082817078E0,-9.124489784E0,-1.846708775E0
4.065689979E1,-3.070764303E0,-9.138113976E0,-1.798793674E0
4.067709510E1,-3.054695606E0,-9.166831017E0,-1.675837755E0
4.069729062E1,-3.027328730E0,-9.200683594E0,-1.533979893E0
4.071748521E1,-2.983974934E0,-9.248207092E0,-1.317935824E0
4.073767333E1,-2.938400269E0,-9.306718826E0,-9.597777128E-1
4.075785604E1,-2.886290550E0,-9.358718872E0,-5.040981770E-1
4.077803916E1,-2.860383749E0,-9.380111694E0,-4.561111331E-2
4.079822292E1,-2.859912634E0,-9.375988007E0,2.865873873E-1
4.081840740E1,-2.844636202E0,-9.377027512E0,3.870045543E-1
4.083859271E1,-2.836268663E0,-9.377613068E0,4.316703379E-1
4.085877896E1,-2.841908216E0,-9.372051239E0,5.085383654E-1
4.087896614E1,-2.818683624E0,-9.373952866E0,5.953278542E-1
