"Time (s)","Acceleration x (m/s^2)","Acceleration y (m/s^2)","Acceleration z (m/s^2)"
3.173073500E-2,1.548196435E0,1.263886094E0,9.600836754E0
5.185016200E-2,1.517374396E0,1.252508998E0,9.607246399E0
7.197651600E-2,1.484487772E0,1.234318495E0,9.614735603E0
9.211198500E-2,1.472429991E0,1.213750005E0,9.619206429E0
1.122582870E-1,1.472643614E0,1.218306541E0,9.618598938E0
1.324166720E-1,1.462248802E0,1.233978987E0,9.618185997E0
1.525878700E-1,1.412115574E0,1.238538027E0,9.625089645E0
1.727720370E-1,1.330826998E0,1.239054918E0,9.636598587E0
1.929688080E-1,1.242603064E0,1.254604816E0,9.646361351E0
2.131773490E-1,1.174688578E0,1.293791890E0,9.649694443E0
2.333963600E-1,1.112023473E0,1.349487305E0,9.649491310E0
2.536241720E-1,1.047869205E0,1.406532884E0,9.648524284E0
2.738588600E-1,9.916043878E-1,1.448919892E0,9.648199081E0
2.940982870E-1,9.615834355E-1,1.460863590E0,9.649436951E0
3.143402140E-1,9.427736402E-1,1.435457349E0,9.655103683E0
3.345730780E-1,9.624602199E-1,1.405529022E0,9.657564163E0
3.547787550E-1,1.041096330E0,1.389416575E0,9.651736259E0
3.749642760E-1,1.186288476E0,1.393146873E0,9.634429932E0
3.951472970E-1,1.390444875E0,1.412661791E0,9.604240417E0
4.153307870E-1,1.608703971E0,1.434988618E0,9.566779137E0
4.355149010E-1,1.798931003E0,1.443195939E0,9.531601906E0
4.556997970E-1,1.965537667E0,1.431062818E0,9.500479698E0
4.758855780E-1,2.133185387E0,1.395053029E0,9.469621658E0
4.960722970E-1,2.310385704E0,1.337335467E0,9.436314583E0
5.162599530E-1,2.476390839E0,1.287114263E0,9.401127815E0
5.364485470E-1,2.644025803E0,1.254342556E0,9.359815598E0
5.566380780E-1,2.821271420E0,1.224837422E0,9.311852455E0
5.768284430E-1,3.004807472E0,1.168230176E0,9.261574745E0
5.970194850E-1,3.171751976E0,1.079194069E0,9.216599464E0
6.172110990E-1,3.290702343E0,1.006385922E0,9.183073997E0
6.374031300E-1,3.404897690E0,9.833142161E-1,9.143858910E0
6.575954220E-1,3.548693419E0,9.944174886E-1,9.087810516E0
6.777932350E-1,3.747434616E0,9.956695437E-1,9.007538795E0
6.979841720E-1,3.982661247E0,9.700329900E-1,8.908862114E0
7.181629740E-1,4.196396828E0,9.154683352E-1,8.816040039E0
7.383422970E-1,4.332563877E0,8.283252716E-1,8.758605003E0
7.585225050E-1,4.396851063E0,7.022091150E-1,8.737561226E0
7.787038600E-1,4.429001331E0,5.538074374E-1,8.731987953E0
7.988865680E-1,4.515584469E0,4.115846157E-1,8.695428848E0
8.190707870E-1,4.720513821E0,2.921116948E-1,8.590798378E0
8.392566200E-1,5.049428463E0,1.776003391E-1,8.404886246E0
8.594441200E-1,5.485718250E0,2.656615525E-2,8.128750801E0
8.796332350E-1,5.976362228E0,-1.894266307E-1,7.772876740E0
8.998238600E-1,6.424324989E0,-4.715936184E-1,7.394324303E0
9.200158390E-1,6.804481506E0,-7.819986343E-1,7.018397808E0
9.402089640E-1,7.192549229E0,-1.079264760E0,6.578207016E0
9.604030260E-1,7.651962280E0,-1.340909243E0,5.984966278E0
9.805977660E-1,8.087503433E0,-1.585368991E0,5.315005779E0
1.000792870E0,8.358229637E0,-1.839015841E0,4.788362980E0
1.020985370E0,8.457115173E0,-2.081363678E0,4.507273674E0
1.041175214E0,8.511459351E0,-2.278516293E0,4.305092335E0
1.061370526E0,8.608462334E0,-2.434739113E0,4.017064095E0
1.081560839E0,8.712305069E0,-2.552961588E0,3.707898140E0
1.101740891E0,8.747178078E0,-2.630987406E0,3.568636179E0
1.121921412E0,8.709560394E0,-2.659033298E0,3.639158487E0
1.142102662E0,8.677231789E0,-2.609103441E0,3.750814199E0
1.162284901E0,8.684516907E0,-2.524877548E0,3.791378975E0
1.182468339E0,8.722794533E0,-2.458990335E0,3.746545315E0
1.202653078E0,8.781006813E0,-2.440827370E0,3.620313168E0
1.222839224E0,8.863161087E0,-2.447396278E0,3.409548759E0
1.243026828E0,8.969103813E0,-2.441275835E0,3.125016451E0
1.263215839E0,9.075175285E0,-2.424848795E0,2.816324472E0
1.283406151E0,9.135260582E0,-2.429598808E0,2.610448122E0
1.303597662E0,9.133319855E0,-2.470550060E0,2.578611612E0
1.323790214E0,9.102540970E0,-2.552525043E0,2.607439280E0
1.343983599E0,9.067226410E0,-2.591830730E0,2.690390348E0
1.364177558E0,9.026242256E0,-2.534271717E0,2.876595974E0
1.384371828E0,8.964793205E0,-2.412559032E0,3.159496069E0
1.404563495E0,8.884195328E0,-2.277943611E0,3.471663713E0
1.424752505E0,8.835807800E0,-2.146200418E0,3.673244715E0
1.444941620E0,8.837962151E0,-2.024935722E0,3.736370325E0
1.465130839E0,8.855929375E0,-1.879401803E0,3.769712925E0
1.485325526E0,8.902196884E0,-1.690549970E0,3.750106096E0
1.505515214E0,8.987265587E0,-1.514793158E0,3.620062351E0
1.525694641E0,9.102613449E0,-1.402016163E0,3.368555069E0
1.545874537E0,9.214693069E0,-1.365480304E0,3.065172911E0
1.566055214E0,9.303622246E0,-1.449904561E0,2.740579844E0
1.586236933E0,9.355545044E0,-1.658300281E0,2.427800655E0
1.606419901E0,9.370985985E0,-1.958428383E0,2.125927210E0
1.626604328E0,9.371682167E0,-2.331134558E0,1.705212116E0
1.646790318E0,9.372947693E0,-2.636686802E0,1.168816447E0
1.666977870E0,9.370343208E0,-2.791611910E0,7.576082349E-1
1.687166985E0,9.300050735E0,-3.041979790E0,6.525304317E-1
1.707357558E0,9.215455055E0,-3.255748987E0,8.036651611E-1
1.727549433E0,9.133438110E0,-3.419995785E0,1.026805639E0
1.747742453E0,9.060809135E0,-3.557955742E0,1.188731194E0
1.767936360E0,9.023570061E0,-3.623705387E0,1.270562053E0
1.788130891E0,8.991140366E0,-3.683803320E0,1.326413631E0
1.808325787E0,8.929055214E0,-3.801264524E0,1.411650538E0
1.828520422E0,8.844694138E0,-3.953863621E0,1.519450545E0
1.848711724E0,8.749000549E0,-4.119160652E0,1.630305529E0
1.868897349E0,8.649077415E0,-4.290762901E0,1.718488336E0
1.889080474E0,8.539913177E0,-4.488972187E0,1.757665753E0
1.909264068E0,8.375925064E0,-4.776443005E0,1.788814306E0
1.929448287E0,8.135128021E0,-5.162437916E0,1.827376366E0
1.949633287E0,7.835833549E0,-5.588195801E0,1.882063270E0
1.969819172E0,7.478693962E0,-6.036363602E0,1.949834347E0
1.990005995E0,7.044390678E0,-6.511606216E0,2.036154032E0
2.010193755E0,6.570785999E0,-6.966007233E0,2.114212990E0
2.030382453E0,6.152334213E0,-7.344696999E0,2.091553926E0
2.050572037E0,5.808175564E0,-7.667140007E0,1.910613418E0
2.070762401E0,5.505355358E0,-7.950590134E0,1.627745628E0
2.090953443E0,5.175945282E0,-8.232531548E0,1.267041206E0
2.111145058E0,4.745048046E0,-8.541778564E0,8.324214220E-1
2.131337089E0,4.173239231E0,-8.868610382E0,3.196905255E-1
2.151529328E0,3.461988926E0,-9.172299385E0,-2.322269827E-1
2.171727037E0,2.691980839E0,-9.405699730E0,-6.755889654E-1
2.191917818E0,2.155600786E0,-9.537965775E0,-7.422689795E-1
2.212096412E0,2.133882523E0,-9.554147720E0,-5.789474249E-1
2.232275526E0,2.300499439E0,-9.527930260E0,-3.108690977E-1
2.252455526E0,2.317879438E0,-9.528503418E0,-7.378973067E-2
2.272636724E0,2.239925385E0,-9.547321320E0,4.225679860E-2
2.292819380E0,2.183959007E0,-9.560214043E0,5.506464466E-2
2.313003651E0,2.181411743E0,-9.560867310E0,4.065818340E-2
2.333189589E0,2.224512100E0,-9.550862312E0,5.429271981E-2
2.353377193E0,2.288267851E0,-9.535415649E0,1.002461538E-1
2.373566464E0,2.349274874E0,-9.519879341E0,1.522488445E-1
2.393757297E0,2.370745897E0,-9.513922691E0,1.876841187E-1
2.413949485E0,2.349946737E0,-9.518384933E0,2.201552987E-1
2.434142818E0,2.353884697E0,-9.515893936E0,2.781789601E-1
2.454337089E0,2.439385176E0,-9.491448402E0,3.636024296E-1
2.474532037E0,2.704431534E0,-9.417687416E0,4.044930637E-1
2.494727349E0,3.086426020E0,-9.300168037E0,3.888715506E-1
2.514922505E0,3.387279510E0,-9.197173119E0,3.297419548E-1
2.535114120E0,3.486886740E0,-9.162952423E0,2.287082672E-1
2.555299745E0,3.452999592E0,-9.178155899E0,9.296669066E-2
2.575482870E0,3.461037159E0,-9.175576210E0,-2.043057419E-2
2.595666464E0,3.543807983E0,-9.143319130E0,-1.072926372E-1
2.615850683E0,3.621726036E0,-9.110897064E0,-2.121879160E-1
2.636035683E0,3.679974318E0,-9.084025383E0,-3.295969963E-1
2.656221568E0,3.750673056E0,-9.049352646E0,-4.604974389E-1
2.676408391E0,3.847993374E0,-8.997353554E0,-6.410639882E-1
2.696596151E0,3.973495722E0,-8.921743393E0,-8.855519295E-1
2.716784849E0,4.105641842E0,-8.827367783E0,-1.179693460E0
2.736974433E0,4.206978321E0,-8.737597466E0,-1.458117127E0
2.757164797E0,4.289736271E0,-8.665926933E0,-1.634095788E0
2.777355839E0,4.350321293E0,-8.628767014E0,-1.670171022E0
2.797547453E0,4.496328354E0,-8.574320793E0,-1.560271621E0
2.817739485E0,4.846643925E0,-8.402843475E0,-1.439673424E0
2.837931776E0,5.171308517E0,-8.219105721E0,-1.369035363E0
2.858129589E0,5.301489830E0,-8.135528564E0,-1.370314479E0
2.878320422E0,5.418792725E0,-8.059858322E0,-1.358590364E0
2.898499016E0,5.635754108E0,-7.907069683E0,-1.373645782E0
2.918678130E0,5.902647972E0,-7.708113194E0,-1.383521438E0
2.938858130E0,6.125248432E0,-7.510373592E0,-1.498665452E0
2.959039328E0,6.280248642E0,-7.319685459E0,-1.775125623E0
2.979221985E0,6.457788944E0,-7.141861439E0,-1.860422730E0
2.999406255E0,6.647103310E0,-6.978908539E0,-1.811420441E0
3.019592193E0,6.804856777E0,-6.803131104E0,-1.892543793E0
3.039779797E0,6.958546162E0,-6.593452930E0,-2.067702055E0
3.059969068E0,7.124873161E0,-6.360513687E0,-2.224956512E0
3.080159901E0,7.278637409E0,-6.117480278E0,-2.401720285E0
3.100352141E0,7.386961937E0,-5.894121647E0,-2.619639874E0
3.120545578E0,7.442780018E0,-5.726626396E0,-2.825096130E0
3.140739953E0,7.444745541E0,-5.628021240E0,-3.011896610E0
3.160935005E0,7.396830559E0,-5.584254742E0,-3.205210447E0
3.181130422E0,7.320314407E0,-5.581889629E0,-3.380221128E0
3.201325422E0,7.228999615E0,-5.613697052E0,-3.521129847E0
3.221516828E0,7.122460365E0,-5.668168068E0,-3.648673773E0
3.241702453E0,7.021558762E0,-5.729857922E0,-3.746576786E0
3.261885578E0,6.998415947E0,-5.794356346E0,-3.690257311E0
3.282069172E0,7.041855812E0,-5.828452587E0,-3.551306963E0
3.302253391E0,7.063620090E0,-5.846512794E0,-3.477634907E0
3.322438391E0,7.034905434E0,-5.893468857E0,-3.456518412E0
3.342624276E0,6.953698158E0,-5.992231369E0,-3.451031446E0
3.362811099E0,6.825551510E0,-6.129554749E0,-3.465657234E0
3.382998860E0,6.672894955E0,-6.288752079E0,-3.477710009E0
3.403187558E0,6.571631908E0,-6.401134968E0,-3.465474367E0
3.423377141E0,6.610906601E0,-6.440459728E0,-3.314631701E0
3.443567505E0,6.627237320E0,-6.568892479E0,-3.016581297E0
3.463758547E0,6.462445736E0,-6.767853260E0,-2.933146715E0
3.483950162E0,6.237392426E0,-6.932641029E0,-3.033777237E0
3.504142193E0,6.067243576E0,-7.110760212E0,-2.965810061E0
3.524334485E0,5.880589962E0,-7.352860928E0,-2.743079424E0
3.544532297E0,5.636156082E0,-7.604444027E0,-2.564481974E0
3.564723130E0,5.417920589E0,-7.802527428E0,-2.436614513E0
3.584901724E0,5.281042576E0,-7.933832169E0,-2.309822559E0
3.605080839E0,5.165679932E0,-8.041165352E0,-2.196769238E0
3.625260839E0,5.020536423E0,-8.155965805E0,-2.108272314E0
3.645442037E0,4.874204636E0,-8.269379616E0,-2.007452250E0
3.665624693E0,4.764634609E0,-8.368642807E0,-1.853233337E0
3.685808964E0,4.600816250E0,-8.491584778E0,-1.701725125E0
3.705994901E0,4.398502827E0,-8.619247437E0,-1.591267824E0
3.726182505E0,4.146924973E0,-8.756191254E0,-1.517409086E0
3.746371776E0,3.884907722E0,-8.886042595E0,-1.454698324E0
3.766562610E0,3.724060774E0,-8.969071388E0,-1.362908721E0
3.786754849E0,3.700262070E0,-9.003259659E0,-1.191538692E0
3.806948287E0,3.736295700E0,-9.013681412E0,-9.818409085E-1
3.827142662E0,3.726869345E0,-9.030845642E0,-8.512669802E-1
3.847337714E0,3.683406591E0,-9.052861214E0,-8.053642511E-1
3.867533130E0,3.649251938E0,-9.070651054E0,-7.593593597E-1
3.887728235E0,3.616221189E0,-9.086977959E0,-7.212211490E-1
3.907919745E0,3.587210417E0,-9.099200249E0,-7.119460106E-1
3.928105370E0,3.579295397E0,-9.103999138E0,-6.900936961E-1
3.948288495E0,3.611043692E0,-9.096129417E0,-6.254472136E-1
3.968472089E0,3.672407866E0,-9.078103065E0,-5.214021206E-1
3.988656308E0,3.713757753E0,-9.068390846E0,-3.777035177E-1
4.008841308E0,3.688690662E0,-9.083977699E0,-2.128520906E-1
4.029027193E0,3.594079971E0,-9.124249458E0,-3.245364875E-2
4.049214016E0,3.473798752E0,-9.169521332E0,1.515754759E-1
4.069401776E0,3.383104801E0,-9.200142860E0,2.869618833E-1
4.089590474E0,3.363177061E0,-9.206338882E0,3.205537498E-1
4.109780058E0,3.420617580E0,-9.187517166E0,2.434925586E-1
4.129970422E0,3.513354301E0,-9.154722214E0,1.333656311E-1
4.150161464E0,3.595478535E0,-9.123674393E0,3.859256208E-2
4.170353078E0,3.667284489E0,-9.093957901E0,-1.461028457E-1
4.190545110E0,3.800771236E0,-9.030374527E0,-4.205411375E-1
4.210737401E0,3.980326414E0,-8.929543495E0,-7.685340047E-1
4.230935214E0,4.192633629E0,-8.794532776E0,-1.117320061E0
4.251126151E0,4.437406540E0,-8.632709503E0,-1.398618221E0
4.271304953E0,4.691230297E0,-8.471076012E0,-1.550360441E0
4.291484276E0,4.907787323E0,-8.350537300E0,-1.533800483E0
4.311664485E0,5.056355000E0,-8.281128883E0,-1.423574805E0
4.331845839E0,5.157999516E0,-8.195918083E0,-1.546726227E0
4.352028547E0,5.249093056E0,-8.061524391E0,-1.905055165E0
4.372212818E0,5.360267639E0,-7.916339874E0,-2.183917046E0
4.392398755E0,5.550075531E0,-7.722689152E0,-2.393138170E0
4.412586360E0,5.771222591E0,-7.477354050E0,-2.636771441E0
4.432775578E0,5.959972858E0,-7.229298592E0,-2.895919800E0
4.452966308E0,6.123635769E0,-6.991122246E0,-3.129803896E0
4.473158391E0,6.257229328E0,-6.768474579E0,-3.347420692E0
4.493351620E0,6.410286903E0,-6.533794880E0,-3.519680023E0
4.513545787E0,6.531953812E0,-6.312606812E0,-3.695260525E0
4.533740630E0,6.555500984E0,-6.180936813E0,-3.871925116E0
4.553935839E0,6.521096706E0,-6.128083229E0,-4.011517048E0
4.574131099E0,6.433090687E0,-6.134547710E0,-4.141624928E0
4.594322870E0,6.330090046E0,-6.194030285E0,-4.211215496E0
4.614508495E0,6.217618942E0,-6.320156574E0,-4.191326141E0
4.634691620E0,6.061343670E0,-6.525224686E0,-4.105110645E0
4.654875214E0,5.836390495E0,-6.749859810E0,-4.067717075E0
4.675059433E0,5.703474522E0,-6.916231632E0,-3.975739479E0
4.695244433E0,5.723589897E0,-7.141370773E0,-3.523029089E0
4.715430318E0,5.609691620E0,-7.337887764E0,-3.295019865E0
4.735617141E0,5.433882236E0,-7.545813560E0,-3.115126848E0
4.755804901E0,5.297599792E0,-7.762504578E0,-2.801669598E0
4.775993599E0,5.095920086E0,-7.994268417E0,-2.508716822E0
4.796183183E0,4.811107635E0,-8.237167358E0,-2.274358511E0
4.816373547E0,4.515115261E0,-8.433480263E0,-2.158825159E0
4.836564589E0,4.255859375E0,-8.582675934E0,-2.096597195E0
4.856756203E0,4.087496758E0,-8.693008423E0,-1.973416448E0
4.876948235E0,3.985122681E0,-8.773198128E0,-1.822133780E0
4.897140526E0,3.844964504E0,-8.863608360E0,-1.680206895E0
4.917338339E0,3.590893507E0,-8.996546745E0,-1.529052854E0
4.937529276E0,3.242176056E0,-9.153695107E0,-1.366947293E0
4.957708078E0,2.866812468E0,-9.301201820E0,-1.199759960E0
4.977887401E0,2.508295298E0,-9.420396805E0,-1.065349817E0
4.998067610E0,2.141734838E0,-9.517301559E0,-1.002165198E0
5.018248964E0,1.841680169E0,-9.585776329E0,-9.441911578E-1
5.038431672E0,1.630481482E0,-9.632654190E0,-8.508194089E-1
5.058615943E0,1.471282721E0,-9.667301178E0,-7.409548163E-1
5.078801880E0,1.342069864E0,-9.692700386E0,-6.486884952E-1
5.098989485E0,1.241713047E0,-9.710165977E0,-5.841280818E-1
5.119178703E0,1.196615219E0,-9.718900681E0,-5.305196643E-1
5.139369433E0,1.186972976E0,-9.723052025E0,-4.730103314E-1
5.159561516E0,1.197681069E0,-9.724595070E0,-4.101166427E-1
5.179754745E0,1.234402180E0,-9.722233772E0,-3.532833159E-1
5.199948912E0,1.278585196E0,-9.718144417E0,-3.054215908E-1
5.220143755E0,1.311634541E0,-9.714950562E0,-2.640931904E-1
5.240338964E0,1.317425847E0,-9.715390205E0,-2.144165784E-1
5.260531568E0,1.270594478E0,-9.722768784E0,-1.541478932E-1
5.280721516E0,1.194676638E0,-9.733069420E0,-1.024027169E-1
5.300916933E0,1.133410692E0,-9.740566254E0,-8.445646614E-2
5.321107141E0,1.105924129E0,-9.743724823E0,-8.448443562E-2
5.341286880E0,1.129105091E0,-9.741159439E0,-7.294375449E-2
5.361467089E0,1.206929326E0,-9.732005119E0,-4.219748080E-2
5.381648078E0,1.291120410E0,-9.721260071E0,2.211775258E-2
5.401830110E0,1.335065365E0,-9.715223312E0,4.924363643E-2
5.422013391E0,1.361176729E0,-9.711490631E0,-6.724809110E-2
5.442198078E0,1.391348004E0,-9.702440262E0,-3.117353618E-1
5.462384276E0,1.483475208E0,-9.675750732E0,-5.912131667E-1
5.482571985E0,1.697547555E0,-9.616955757E0,-8.960416317E-1
5.502761151E0,1.983630300E0,-9.526823044E0,-1.214592934E0
5.522951724E0,2.232551336E0,-9.432394981E0,-1.488632083E0
5.543143547E0,2.398296833E0,-9.361043930E0,-1.670150280E0
5.563336412E0,2.534903049E0,-9.309839249E0,-1.752579331E0
5.583530110E0,2.701469898E0,-9.250882149E0,-1.814836860E0
5.603724380E0,2.950555563E0,-9.151886940E0,-1.925512433E0
5.623918964E0,3.223388195E0,-9.037872314E0,-2.024109364E0
5.644113339E0,3.550559044E0,-8.887603760E0,-2.138789415E0
5.664304537E0,3.942972660E0,-8.675034523E0,-2.316705704E0
5.684490162E0,4.300892353E0,-8.427921295E0,-2.577373028E0
5.704673287E0,4.582399368E0,-8.183667183E0,-2.863494873E0
5.724856880E0,4.799234867E0,-7.959887981E0,-3.126964808E0
5.745041099E0,4.977184772E0,-7.744938850E0,-3.378451824E0
5.765226099E0,5.143593788E0,-7.515224934E0,-3.638025045E0
5.785411985E0,5.289425373E0,-7.281638622E0,-3.894881964E0
5.805598808E0,5.384291649E0,-7.091286659E0,-4.110162258E0
5.825786568E0,5.417498589E0,-6.974446297E0,-4.263590813E0
5.845975266E0,5.403135777E0,-6.923540592E0,-4.363610268E0
5.866164849E0,5.349606037E0,-6.925509930E0,-4.425993919E0
5.886355214E0,5.254372597E0,-6.987239361E0,-4.443021774E0
5.906546255E0,5.121439934E0,-7.122120380E0,-4.383678913E0
5.926737870E0,4.949903965E0,-7.291904926E0,-4.300809383E0
5.946929901E0,4.895790100E0,-7.315237045E0,-4.323070049E0
5.967122193E0,5.079439640E0,-7.314819813E0,-4.106470108E0
5.987320005E0,5.285032272E0,-7.430652142E0,-3.608909845E0
6.007511047E0,5.242467403E0,-7.552807331E0,-3.412041187E0
6.027690058E0,5.023674011E0,-7.713177204E0,-3.382305861E0
6.047869589E0,4.875974655E0,-7.891488075E0,-3.181141376E0
6.068050005E0,4.769608974E0,-8.074408531E0,-2.867951393E0
6.088231568E0,4.624946117E0,-8.253615379E0,-2.580326557E0
6.108414485E0,4.452828884E0,-8.403689384E0,-2.391798258E0
6.128598912E0,4.289420128E0,-8.523299217E0,-2.263768673E0
6.148784953E0,4.116562843E0,-8.638466835E0,-2.145042181E0
6.168972662E0,3.921931505E0,-8.757948875E0,-2.021675110E0
6.189161985E0,3.713665485E0,-8.875903130E0,-1.896686196E0
6.209352818E0,3.532168627E0,-8.977784157E0,-1.758852363E0
6.229545005E0,3.393308401E0,-9.061217308E0,-1.596927643E0
6.249738339E0,3.257097006E0,-9.137941360E0,-1.435175776E0
6.269932558E0,3.114547968E0,-9.206390381E0,-1.308570623E0
6.290127349E0,2.997407436E0,-9.258014679E0,-1.214534998E0
6.310322453E0,2.911740780E0,-9.296319962E0,-1.127200007E0
6.330517037E0,2.852876663E0,-9.325354576E0,-1.034047484E0
6.350708183E0,2.829273939E0,-9.344996452E0,-9.146699905E-1
6.370893808E0,2.844454288E0,-9.353011131E0,-7.750235200E-1
6.391076933E0,2.875871658E0,-9.351638794E0,-6.682695746E-1
6.411260526E0,2.896217108E0,-9.349286079E0,-6.108750105E-1
6.431444745E0,2.907774925E0,-9.349390030E0,-5.514962077E-1
6.451629745E0,2.914103985E0,-9.351500511E0,-4.773228765E-1
6.471815630E0,2.924854040E0,-9.350376129E0,-4.313811362E-1
6.492002453E0,2.957941771E0,-9.341900826E0,-3.871105611E-1
6.512190214E0,2.995436907E0,-9.333839417E0,-2.778167725E-1
6.532378912E0,2.990281820E0,-9.338893890E0,-1.169373691E-1
6.552568495E0,2.919175625E0,-9.361975670E0,4.700841382E-2
6.572758860E0,2.809237480E0,-9.392863274E0,2.295372784E-1
6.592949901E0,2.683296680E0,-9.423967361E0,3.989363611E-1
6.613141516E0,2.587206364E0,-9.449083328E0,4.376951158E-1
6.633333547E0,2.580799103E0,-9.455568314E0,3.194983900E-1
6.653525839E0,2.647189379E0,-9.441083908E0,1.694779694E-1
6.673723651E0,2.725974321E0,-9.419430733E0,1.172878146E-1
6.693914797E0,2.817521811E0,-9.393177032E0,1.386498101E-2
6.714094016E0,2.973012686E0,-9.341657639E0,-2.550044954E-1
6.734273703E0,3.197261333E0,-9.254179955E0,-5.550312400E-1
6.754454172E0,3.429417849E0,-9.151747704E0,-8.093153238E-1
6.774635735E0,3.654109001E0,-9.041501045E0,-1.033986449E0
6.794818651E0,3.878661394E0,-8.928950310E0,-1.183306217E0
6.815003078E0,4.076111317E0,-8.837476730E0,-1.206112146E0
6.835189120E0,4.210722923E0,-8.782115936E0,-1.146580100E0
6.855376828E0,4.330063820E0,-8.715488434E0,-1.208799839E0
6.875566151E0,4.557273865E0,-8.548878670E0,-1.522599101E0
6.895756985E0,4.875666618E0,-8.307668686E0,-1.838723660E0
6.915949172E0,5.234259605E0,-8.036385536E0,-2.046809196E0
6.936142505E0,5.527261257E0,-7.785760403E0,-2.236450195E0
6.956336724E0,5.738530636E0,-7.553753376E0,-2.486055613E0
6.976531516E0,5.903724670E0,-7.331003666E0,-2.751873255E0
6.996726620E0,6.056588650E0,-7.100131989E0,-3.012679815E0
7.016921099E0,6.197364330E0,-6.853888035E0,-3.284397840E0
7.037112141E0,6.280677795E0,-6.630660057E0,-3.571808100E0
7.057297766E0,6.262167454E0,-6.518858910E0,-3.802644730E0
7.077480891E0,6.160444260E0,-6.530199051E0,-3.946620226E0
7.097664485E0,6.038280964E0,-6.616702080E0,-3.991089821E0
7.117848703E0,5.897511959E0,-6.769047737E0,-3.945850372E0
7.138033703E0,5.736144066E0,-6.981503010E0,-3.811254501E0
7.158219589E0,5.641443729E0,-7.148757458E0,-3.638649225E0
7.178406412E0,5.679281712E0,-7.275265217E0,-3.314613342E0
7.198594172E0,5.590332985E0,-7.459179401E0,-3.046179533E0
7.218782870E0,5.368528366E0,-7.679898262E0,-2.892828226E0
7.238972453E0,5.175140858E0,-7.845872879E0,-2.798318386E0
7.259162870E0,4.972359657E0,-8.017874718E0,-2.675762653E0
7.279354016E0,4.719202995E0,-8.220835686E0,-2.513436556E0
7.299545735E0,4.445593357E0,-8.424729347E0,-2.330458164E0
7.319737870E0,4.223491192E0,-8.586743355E0,-2.144842625E0
7.339930266E0,4.074044704E0,-8.706325531E0,-1.942275763E0
7.360128183E0,3.940115929E0,-8.807869911E0,-1.751373291E0
7.380319120E0,3.767957687E0,-8.909088135E0,-1.612775207E0
7.400497818E0,3.575787783E0,-9.008961678E0,-1.490885735E0
7.420677037E0,3.392140627E0,-9.101199150E0,-1.353489995E0
7.440857141E0,3.229997635E0,-9.176800728E0,-1.234431624E0
7.461038443E0,3.107952118E0,-9.229392052E0,-1.152976990E0
7.481221151E0,3.047655821E0,-9.260071754E0,-1.064541340E0
7.501405422E0,3.036749363E0,-9.277112007E0,-9.400838017E-1
7.521591360E0,3.032996416E0,-9.288799286E0,-8.303837776E-1
7.541778964E0,3.022491455E0,-9.297896385E0,-7.642361522E-1
7.561968235E0,3.026601315E0,-9.300492287E0,-7.147689462E-1
7.582159068E0,3.054191351E0,-9.293901443E0,-6.824210286E-1
7.602351308E0,3.095678329E0,-9.282902718E0,-6.441019177E-1
7.622544745E0,3.139988899E0,-9.270803452E0,-6.025480628E-1
7.642739120E0,3.174669743E0,-9.261154175E0,-5.682275891E-1
7.662934172E0,3.196509600E0,-9.257550240E0,-5.004630089E-1
7.683129589E0,3.192636013E0,-9.264215469E0,-3.895799518E-1
7.703324797E0,3.150546551E0,-9.283479691E0,-2.478832752E-1
7.723516412E0,3.068068266E0,-9.313974380E0,-8.489941806E-2
7.743702037E0,2.961011887E0,-9.348622322E0,7.774858922E-2
7.763885162E0,2.870845318E0,-9.375851631E0,1.484350115E-1
7.784068755E0,2.846691608E0,-9.383889198E0,9.675601125E-2
7.804252974E0,2.906437635E0,-9.365929604E0,4.866041243E-2
7.824437974E0,3.025147438E0,-9.328049660E0,7.978066802E-2
7.844623860E0,3.130988598E0,-9.293133736E0,7.032140344E-2
7.864810683E0,3.272873640E0,-9.244146347E0,-6.665779650E-2
7.884998443E0,3.502175331E0,-9.155792236E0,-2.768070996E-1
7.905187141E0,3.738271236E0,-9.052546501E0,-4.971160591E-1
7.925376724E0,3.950057268E0,-8.945141792E0,-7.428774834E-1
7.945567141E0,4.129639626E0,-8.840962410E0,-9.766572118E-1
7.965758287E0,4.259990692E0,-8.758432388E0,-1.145744801E0
7.985950005E0,4.338685989E0,-8.705361366E0,-1.250146270E0
8.006142141E0,4.392818928E0,-8.666898727E0,-1.326046348E0
8.026334537E0,4.572973728E0,-8.539507866E0,-1.528108478E0
8.046532453E0,4.877400398E0,-8.323776245E0,-1.759577036E0
8.066723495E0,5.143418789E0,-8.112692833E0,-1.974799991E0
8.086902401E0,5.307267189E0,-7.921801090E0,-2.290927887E0
8.107081828E0,5.435324669E0,-7.715132236E0,-2.665401697E0
8.127262141E0,5.582596779E0,-7.493656635E0,-2.974913359E0
8.147443599E0,5.751751900E0,-7.260823727E0,-3.219965696E0
8.167626412E0,5.964222908E0,-6.967520237E0,-3.471611738E0
8.187810735E0,6.140731812E0,-6.662413120E0,-3.751541376E0
8.207996672E0,6.199156284E0,-6.468332767E0,-3.987670898E0
8.228184276E0,6.153265476E0,-6.415678978E0,-4.140865326E0
8.248373495E0,6.068861485E0,-6.456783295E0,-4.201101780E0
8.268564224E0,5.934521198E0,-6.581022263E0,-4.200236797E0
8.288756308E0,5.746022701E0,-6.809154034E0,-4.097441673E0
8.308949537E0,5.528988838E0,-7.087340832E0,-3.920494318E0
8.329143703E0,5.390517712E0,-7.374634266E0,-3.567558289E0
8.349338547E0,5.292319775E0,-7.728794575E0,-2.903011322E0
8.369533755E0,5.155863285E0,-7.941706657E0,-2.552794695E0
8.389726360E0,4.986609459E0,-8.045045853E0,-2.565414667E0
8.409916308E0,4.820144176E0,-8.165758133E0,-2.501398563E0
8.430111724E0,4.563470840E0,-8.368865967E0,-2.303734064E0
8.450301985E0,4.208086014E0,-8.598333359E0,-2.128629923E0
8.470481828E0,3.860531807E0,-8.792533875E0,-1.989479542E0
8.490662141E0,3.641318083E0,-8.924043655E0,-1.809040189E0
8.510843235E0,3.536143303E0,-9.015216827E0,-1.546592951E0
8.531025370E0,3.429471493E0,-9.097346306E0,-1.283514977E0
8.551208755E0,3.268445253E0,-9.179216385E0,-1.108888149E0
8.571393547E0,3.098651171E0,-9.253557205E0,-9.697531462E-1
8.591579797E0,2.982613802E0,-9.306228638E0,-8.176296353E-1
8.611767505E0,2.909473181E0,-9.340247154E0,-6.820152998E-1
8.631956672E0,2.866608143E0,-9.361165047E0,-5.670593381E-1
8.652147245E0,2.877016544E0,-9.363967896E0,-4.574530125E-1
8.672339068E0,2.919031858E0,-9.355669022E0,-3.480211198E-1
8.692531933E0,2.954300880E0,-9.347722054E0,-2.501687109E-1
8.712725630E0,2.981030464E0,-9.341266632E0,-1.567967683E-1
8.732919901E0,3.017256021E0,-9.330853462E0,-4.161268845E-2
8.753114485E0,3.077627897E0,-9.310650826E0,1.018221378E-1
8.773308755E0,3.150692463E0,-9.283291817E0,2.530085444E-1
8.793499901E0,3.200439453E0,-9.262016296E0,3.776573539E-1
8.813688287E0,3.210966825E0,-9.254753113E0,4.578504860E-1
8.833873912E0,3.163775682E0,-9.267084122E0,5.310934782E-1
8.854057037E0,3.056940317E0,-9.300081253E0,5.779315829E-1
8.874240630E0,2.924128056E0,-9.339554787E0,6.265693307E-1
8.894424849E0,2.822178125E0,-9.366802216E0,6.846180558E-1
8.914609849E0,2.797600269E0,-9.374635696E0,6.782523990E-1
8.934795735E0,2.845004320E0,-9.366009712E0,5.951350331E-1
8.954982558E0,2.936396837E0,-9.343058586E0,5.051912069E-1
8.975170318E0,3.055479765E0,-9.308900833E0,4.228454530E-1
8.995359016E0,3.181563854E0,-9.271010399E0,3.104947507E-1
9.015548599E0,3.339929104E0,-9.219653130E0,1.151555181E-1
9.035739016E0,3.558352709E0,-9.136577606E0,-1.773884892E-1
9.055930162E0,3.814973116E0,-9.021160126E0,-4.848029613E-1
9.076121880E0,4.073871613E0,-8.888969421E0,-7.484480143E-1
9.096314016E0,4.332185268E0,-8.751030922E0,-9.066513181E-1
9.116506412E0,4.575153351E0,-8.626317978E0,-9.082966447E-1
9.136704328E0,4.757400990E0,-8.534918785E0,-8.322691917E-1
9.156895318E0,4.855575085E0,-8.475795746E0,-8.687173128E-1
9.177074120E0,4.887228966E0,-8.436543465E0,-1.053618908E0
9.197253443E0,4.880533218E0,-8.408079147E0,-1.286456347E0
9.217433651E0,4.850147724E0,-8.402779579E0,-1.428197265E0
9.237615005E0,4.840709686E0,-8.395138741E0,-1.503184676E0
9.257797714E0,4.920489311E0,-8.326509476E0,-1.621237516E0
9.277981985E0,5.060759068E0,-8.211068153E0,-1.771288872E0
9.298167922E0,5.212455750E0,-8.083171844E0,-1.913904428E0
9.318355526E0,5.367282867E0,-7.946448803E0,-2.053438663E0
9.338544797E0,5.501755714E0,-7.815365314E0,-2.195709467E0
9.358735630E0,5.548194408E0,-7.751791000E0,-2.301666498E0
9.378927818E0,5.490999222E0,-7.770793438E0,-2.373624802E0
9.399121151E0,5.355992317E0,-7.850014687E0,-2.420950174E0
9.419315422E0,5.157633781E0,-7.968344212E0,-2.464689255E0
9.439510370E0,4.890243053E0,-8.122137070E0,-2.507349014E0
9.459705683E0,4.553661823E0,-8.310006142E0,-2.525543690E0
9.479900943E0,4.167902946E0,-8.524132729E0,-2.477526426E0
9.500092714E0,3.784123182E0,-8.752418518E0,-2.290408611E0
9.520281099E0,3.498119831E0,-8.939230919E0,-2.005914211E0
9.540466724E0,3.420889616E0,-9.014534950E0,-1.790548682E0
9.560649849E0,3.495860577E0,-8.998077393E0,-1.727408767E0
9.580833443E0,3.558246136E0,-8.991313934E0,-1.632654905E0
9.601017662E0,3.637216806E0,-8.990743637E0,-1.451741099E0
9.621202662E0,3.775985956E0,-8.968976974E0,-1.212338448E0
9.641388547E0,3.911382437E0,-8.941666603E0,-9.581695795E-1
9.661575370E0,4.012713432E0,-8.920165062E0,-7.065253258E-1
9.681763130E0,4.095279217E0,-8.895520210E0,-5.184544921E-1
9.701951828E0,4.152537346E0,-8.869605064E0,-5.068663359E-1
9.722141412E0,4.179714203E0,-8.850952148E0,-6.008359194E-1
9.742331828E0,4.194214821E0,-8.843071938E0,-6.156518459E-1
9.762522974E0,4.213778019E0,-8.843330383E0,-4.582253397E-1
9.782714693E0,4.221933365E0,-8.848100662E0,-2.382771671E-1
9.802906828E0,4.211148739E0,-8.856389046E0,-3.136767447E-2
9.823099224E0,4.171246529E0,-8.874340057E0,1.310825199E-1
9.843297141E0,4.123082638E0,-8.893692970E0,2.698245347E-1
9.863488130E0,4.080367565E0,-8.907563210E0,4.199021459E-1
9.883666933E0,4.027343750E0,-8.924630165E0,5.494165421E-1
9.903846255E0,3.963616133E0,-8.946249008E0,6.517319083E-1
9.924026464E0,3.944046736E0,-8.947583199E0,7.454066277E-1
9.944207818E0,3.981222630E0,-8.920422554E0,8.638993502E-1
9.964390526E0,4.014513493E0,-8.887534142E0,1.032370210E0
9.984574797E0,4.006003857E0,-8.869037628E0,1.209336758E0
1.000476074E1,3.950792313E0,-8.875068665E0,1.339698911E0
1.002494834E1,3.823259830E0,-8.917266846E0,1.426685691E0
1.004513761E1,3.647423267E0,-8.980764389E0,1.487469435E0
1.006532844E1,3.465473652E0,-9.043486595E0,1.541500211E0
1.008552063E1,3.296558857E0,-9.095045090E0,1.607247472E0
1.010571396E1,3.151497602E0,-9.129596710E0,1.699680567E0
1.012590824E1,3.027667761E0,-9.149123192E0,1.815808892E0
1.014610318E1,2.894739628E0,-9.169212341E0,1.927802086E0
1.016629850E1,2.788724422E0,-9.189129829E0,1.988289595E0
1.018649376E1,2.769587278E0,-9.193715096E0,1.993839979E0
1.020668547E1,2.845017910E0,-9.171780586E0,1.988642693E0
1.022687110E1,3.014259815E0,-9.119732857E0,1.978660107E0
1.024705422E1,3.226697206E0,-9.074542999E0,1.847020984E0
1.026723782E1,3.486897469E0,-9.044621468E0,1.485511541E0
1.028742204E1,3.833640337E0,-8.969267845E0,1.012835264E0
1.030760704E1,4.226491451E0,-8.833649635E0,5.232509375E-1
1.032779292E1,4.597020626E0,-8.661961555E0,9.063375741E-2
1.034797974E1,4.887163162E0,-8.500737190E0,-1.532720774E-1
1.036816750E1,5.020452023E0,-8.413726807E0,-4.179133773E-1
1.038835620E1,5.095497608E0,-8.349157333E0,-7.055933475E-1
1.040854579E1,5.196770668E0,-8.269088745E0,-8.866385221E-1
1.042873620E1,5.248319626E0,-8.211707115E0,-1.092421055E0
1.044892735E1,5.192665577E0,-8.205951691E0,-1.367099762E0
1.046911907E1,5.099353790E0,-8.202969551E0,-1.696548343E0
1.048931120E1,5.144676685E0,-8.119045258E0,-1.945198774E0
1.050950360E1,5.383653641E0,-7.942385197E0,-2.026125431E0
1.052970152E1,5.589232922E0,-7.792504787E0,-2.051274538E0
1.054989245E1,5.683446884E0,-7.705709934E0,-2.119161129E0
1.057007115E1,5.686193466E0,-7.668725491E0,-2.242376566E0
1.059025037E1,5.621229172E0,-7.681561470E0,-2.359188318E0
1.061043047E1,5.526558876E0,-7.729973316E0,-2.423849344E0
1.063061172E1,5.405250072E0,-7.812885284E0,-2.431561232E0
1.065079438E1,5.230210304E0,-7.938128471E0,-2.408607721E0
1.067097865E1,4.998600960E0,-8.093060493E0,-2.384688854E0
1.069116459E1,4.760123253E0,-8.248716354E0,-2.338868141E0
1.071135219E1,4.592844486E0,-8.398129463E0,-2.132506609E0
1.073154146E1,4.533273697E0,-8.494585991E0,-1.860597849E0
1.075173230E1,4.649888039E0,-8.445735931E0,-1.794009209E0
1.077192454E1,4.857305527E0,-8.306294441E0,-1.892735124E0
1.079211797E1,5.026317120E0,-8.206899643E0,-1.885022521E0
1.081231235E1,5.211794853E0,-8.112478256E0,-1.787532687E0
1.083250740E1,5.356181145E0,-8.057484627E0,-1.599576831E0
1.085270282E1,5.365485668E0,-8.084109306E0,-1.424476266E0
1.087289808E1,5.092943668E0,-8.223243713E0,-1.615724921E0
1.089308975E1,4.576557159E0,-8.443881989E0,-1.981506824E0
1.091327537E1,4.230778217E0,-8.607474327E0,-2.045063257E0
1.093345850E1,4.129525185E0,-8.697953224E0,-1.860917807E0
1.095364209E1,4.125969410E0,-8.741700172E0,-1.652097702E0
1.097382631E1,4.161272526E0,-8.732538223E0,-1.611511350E0
1.099401131E1,4.237940311E0,-8.668002129E0,-1.753847122E0
1.101419719E1,4.280805588E0,-8.627713203E0,-1.845984578E0
1.103438402E1,4.223073006E0,-8.736676216E0,-1.416520238E0
1.105457178E1,4.112251282E0,-8.869299889E0,-7.715486884E-1
1.107476047E1,4.016895771E0,-8.941700935E0,-2.844533920E-1
1.109495006E1,3.943316221E0,-8.978212357E0,1.111790463E-1
1.111514047E1,3.879416704E0,-8.998350143E0,3.875754178E-1
1.113533162E1,3.876586199E0,-8.996350288E0,4.562239349E-1
1.115552334E1,3.938402891E0,-8.969588280E0,4.537185133E-1
1.117571547E1,3.926418543E0,-8.972445488E0,4.988310635E-1
1.119590787E1,3.818154573E0,-9.012652397E0,6.034703851E-1
1.121610579E1,3.681993723E0,-9.059839249E0,7.298111320E-1
1.123629678E1,3.528916359E0,-9.109153748E0,8.605017066E-1
1.125647558E1,3.348039865E0,-9.164764404E0,9.839206338E-1
1.127665490E1,3.149369240E0,-9.221417427E0,1.103327751E0
1.129683511E1,2.971516371E0,-9.264321327E0,1.229969382E0
1.131701646E1,2.837929487E0,-9.285671234E0,1.375808597E0
1.133719917E1,2.714985847E0,-9.300051689E0,1.519304156E0
1.135738344E1,2.571899652E0,-9.322639465E0,1.626072764E0
1.137756938E1,2.421872377E0,-9.360761642E0,1.637394667E0
1.139775699E1,2.298620701E0,-9.405008316E0,1.559663296E0
1.141794626E1,2.255232096E0,-9.427741051E0,1.483919978E0
1.143813709E1,2.329367161E0,-9.417093277E0,1.436243653E0
1.145832928E1,2.524011612E0,-9.386633873E0,1.300328255E0
1.147852261E1,2.836576700E0,-9.337493896E0,9.671790004E-1
1.149871688E1,3.252758980E0,-9.237077713E0,5.160871744E-1
1.151891183E1,3.727784872E0,-9.070485115E0,1.717898808E-2
1.153910714E1,4.210014343E0,-8.847530365E0,-4.091179073E-1
1.155930235E1,4.600980759E0,-8.631638527E0,-7.044067979E-1
1.157949407E1,4.804484844E0,-8.495181084E0,-9.587525129E-1
1.159968245E1,4.956144333E0,-8.387559891E0,-1.120655537E0
1.161986808E1,5.093468666E0,-8.288022995E0,-1.239218116E0
1.164005120E1,5.168373108E0,-8.205025673E0,-1.461455345E0
1.166023480E1,5.154912949E0,-8.123144150E0,-1.900470495E0
1.168041902E1,5.147683144E0,-7.969389439E0,-2.482051611E0
1.170060402E1,5.407236576E0,-7.668385983E0,-2.850969553E0
1.172078990E1,5.780046940E0,-7.315409184E0,-3.040761232E0
1.174097672E1,5.968192101E0,-7.038396835E0,-3.318439245E0
1.176116448E1,6.026293278E0,-6.825887680E0,-3.641624212E0
1.178135318E1,6.120287895E0,-6.619316101E0,-3.859677315E0
1.180154277E1,6.251542091E0,-6.369019032E0,-4.064997196E0
1.182173318E1,6.377135277E0,-6.094909191E0,-4.284229755E0
1.184192433E1,6.473399162E0,-5.839150429E0,-4.491080761E0
1.186211605E1,6.501481533E0,-5.644665718E0,-4.694559097E0
1.188230818E1,6.436113358E0,-5.533216953E0,-4.912264347E0
1.190250058E1,6.297587872E0,-5.509120941E0,-5.114719868E0
1.192269850E1,6.142134190E0,-5.529185295E0,-5.279459476E0
1.194288948E1,6.008533955E0,-5.539705276E0,-5.420292377E0
1.196306829E1,5.942404747E0,-5.557298660E0,-5.474911213E0
1.198324761E1,5.968087196E0,-5.632291794E0,-5.369321346E0
1.200342782E1,6.047198296E0,-5.757816792E0,-5.142890453E0
1.202360917E1,6.110975742E0,-5.940384865E0,-4.851616859E0
1.204379188E1,6.112672806E0,-6.166530609E0,-4.558455944E0
1.206397615E1,6.169895172E0,-6.395096779E0,-4.147953987E0
1.208416209E1,6.401086330E0,-6.556375027E0,-3.494342566E0
1.210434969E1,6.408226013E0,-6.650298595E0,-3.298263311E0
1.212453896E1,6.185551643E0,-6.868589401E0,-3.275944471E0
1.214472980E1,5.906525135E0,-7.213365078E0,-3.041499138E0
1.216492199E1,5.553086281E0,-7.619836330E0,-2.696611404E0
1.218511532E1,5.142743587E0,-8.013813972E0,-2.345498085E0
1.220530959E1,4.770929813E0,-8.319395065E0,-2.048477650E0
1.222550454E1,4.543438435E0,-8.502979279E0,-1.796358109E0
1.224569985E1,4.443140507E0,-8.602169991E0,-1.559349298E0
1.226589506E1,4.350104809E0,-8.686962128E0,-1.335539818E0
1.228608672E1,4.195947170E0,-8.793238640E0,-1.115061283E0
1.230627235E1,3.976233721E0,-8.921081543E0,-8.799250722E-1
1.232645547E1,3.740025997E0,-9.043109894E0,-6.361982226E-1
1.234663907E1,3.542695045E0,-9.134490967E0,-4.251784682E-1
1.236682329E1,3.410241842E0,-9.190624237E0,-2.703043818E-1
1.238700829E1,3.349741936E0,-9.215696335E0,-1.433860362E-1
1.240719417E1,3.358296871E0,-9.213682175E0,-1.679008082E-2
1.242738100E1,3.415519953E0,-9.192049026E0,1.041086167E-1
1.244756876E1,3.503412247E0,-9.156801224E0,2.224344164E-1
1.246775745E1,3.583932400E0,-9.122814178E0,3.163437545E-1
1.248794704E1,3.600655079E0,-9.115244865E0,3.434722126E-1
1.250813745E1,3.546184540E0,-9.135412216E0,3.731199801E-1
1.252832860E1,3.471592665E0,-9.159495354E0,4.712747633E-1
1.254852032E1,3.400370359E0,-9.180841446E0,5.657088161E-1
1.256871245E1,3.354382277E0,-9.193414688E0,6.321657300E-1
1.258890485E1,3.342676878E0,-9.194347382E0,6.788679361E-1
1.260910277E1,3.376777887E0,-9.182024002E0,6.768803000E-1
1.262929376E1,3.446621895E0,-9.156071663E0,6.764043570E-1
1.264947256E1,3.498516083E0,-9.135885239E0,6.829087734E-1
1.266965188E1,3.480614662E0,-9.149772644E0,5.808154345E-1
1.268983209E1,3.497860432E0,-9.154488564E0,3.615168929E-1
1.271001344E1,3.607954502E0,-9.118562698E0,6.973897666E-2
1.273019615E1,3.798856735E0,-9.038622856E0,-2.058178335E-1
1.275038042E1,4.014432907E0,-8.937213898E0,-4.253473282E-1
1.277056636E1,4.224879742E0,-8.829541206E0,-5.999804735E-1
1.279075396E1,4.441456795E0,-8.711755753E0,-7.410459518E-1
1.281094324E1,4.641729355E0,-8.600067139E0,-8.145986199E-1
1.283113407E1,4.809215069E0,-8.502017021E0,-8.703752756E-1
1.285132626E1,4.996821404E0,-8.369791985E0,-1.071797490E0
1.287151959E1,5.210052967E0,-8.199279785E0,-1.340721846E0
1.289171386E1,5.456991673E0,-7.973925591E0,-1.675751328E0
1.291190881E1,5.671699047E0,-7.739234447E0,-2.026442528E0
1.293210412E1,5.864338398E0,-7.503570557E0,-2.340161085E0
1.295229928E1,6.055268764E0,-7.263914585E0,-2.596084595E0
1.297249094E1,6.215418339E0,-7.036538124E0,-2.833035946E0
1.299267933E1,6.306334019E0,-6.849600792E0,-3.079530716E0
1.301286495E1,6.316125870E0,-6.705217838E0,-3.364075184E0
1.303304808E1,6.271024227E0,-6.609089375E0,-3.628302813E0
1.305323167E1,6.186910629E0,-6.593007565E0,-3.797995806E0
1.307341589E1,6.069933891E0,-6.665413380E0,-3.859864235E0
1.309360089E1,5.937718868E0,-6.791501045E0,-3.845697403E0
1.311378678E1,5.833270073E0,-6.941146374E0,-3.736819744E0
1.313397360E1,5.711687088E0,-7.197288990E0,-3.427251101E0
1.315416136E1,5.466829300E0,-7.516979218E0,-3.127169609E0
1.317435006E1,5.209818840E0,-7.750503540E0,-2.992969036E0
1.319453964E1,5.087366581E0,-7.885591984E0,-2.847197294E0
1.321473001E1,5.000617504E0,-8.016532898E0,-2.626672983E0
1.323492105E1,4.843380928E0,-8.169211388E0,-2.444592237E0
1.325511266E1,4.633961201E0,-8.335389137E0,-2.284311533E0
1.327530469E1,4.449728012E0,-8.481467247E0,-2.105951548E0
1.329549699E1,4.257135391E0,-8.620798111E0,-1.931066990E0
1.331569480E1,4.046773911E0,-8.745170593E0,-1.820987463E0
1.333588600E1,3.891915798E0,-8.828359604E0,-1.755973935E0
1.335606532E1,3.755759716E0,-8.909228325E0,-1.640217900E0
1.337624511E1,3.571447611E0,-9.016073227E0,-1.457932472E0
1.339642568E1,3.363989115E0,-9.119409561E0,-1.300126433E0
1.341660735E1,3.206492186E0,-9.193029404E0,-1.173451543E0
1.343679037E1,3.112546921E0,-9.239343643E0,-1.056873202E0
1.345697490E1,3.049690008E0,-9.270095825E0,-9.670089483E-1
1.347716100E1,3.003145456E0,-9.291973114E0,-9.004124999E-1
1.349734865E1,2.994937658E0,-9.299313545E0,-8.505867124E-1
1.351753787E1,3.028979301E0,-9.293283463E0,-7.940872908E-1
1.353772855E1,3.100779057E0,-9.276466370E0,-7.090400457E-1
1.355792053E1,3.185407162E0,-9.254157066E0,-6.197903156E-1
1.357811365E1,3.240586996E0,-9.239066124E0,-5.555471182E-1
1.359830766E1,3.239887238E0,-9.242612839E0,-4.976174831E-1
1.361850230E1,3.178092957E0,-9.267762184E0,-4.227141142E-1
1.363869730E1,3.078527451E0,-9.304833412E0,-3.363648355E-1
1.365889204E1,2.984473467E0,-9.338458061E0,-2.377095222E-1
1.367908339E1,2.904799223E0,-9.365860939E0,-1.147567183E-1
1.369926902E1,2.835200310E0,-9.387863159E0,6.557122804E-3
1.371945214E1,2.805526018E0,-9.396380424E0,8.636735380E-2
1.373963574E1,2.826407433E0,-9.389182091E0,1.583292633E-1
1.375981995E1,2.874825478E0,-9.373189926E0,2.215278298E-1
1.378000495E1,2.950153351E0,-9.349730492E0,2.225137502E-1
1.380019084E1,3.092091322E0,-9.306078911E0,7.902444899E-2
1.382037766E1,3.316603422E0,-9.227108002E0,-1.760729998E-1
1.384056542E1,3.553014994E0,-9.131704330E0,-3.980719447E-1
1.386075412E1,3.774680138E0,-9.031211853E0,-5.994830132E-1
1.388094370E1,3.990011930E0,-8.920430183E0,-8.222627640E-1
1.390113407E1,4.180246830E0,-8.810818672E0,-1.032168269E0
1.392132511E1,4.310054779E0,-8.732473373E0,-1.156603456E0
1.394151672E1,4.386859894E0,-8.690136909E0,-1.186327338E0
1.396170876E1,4.486215115E0,-8.620953560E0,-1.312793016E0
1.398190105E1,4.639022350E0,-8.498116493E0,-1.559443116E0
1.400209886E1,4.813703060E0,-8.369345665E0,-1.718345404E0
1.402229000E1,5.080789566E0,-8.162111282E0,-1.932849765E0
1.404246922E1,5.399350643E0,-7.880107403E0,-2.218401194E0
1.406264891E1,5.641541481E0,-7.632325649E0,-2.467994452E0
1.408282938E1,5.825943947E0,-7.414215088E0,-2.694099665E0
1.410301094E1,5.994641304E0,-7.194856167E0,-2.910103798E0
1.412319386E1,6.165326118E0,-6.970059872E0,-3.094736814E0
1.414337829E1,6.315154552E0,-6.759077072E0,-3.256394148E0
1.416356433E1,6.418464661E0,-6.581061363E0,-3.415161848E0
1.418375204E1,6.467832088E0,-6.464689255E0,-3.541936398E0
1.420394136E1,6.472696781E0,-6.427204609E0,-3.600782633E0
1.422413219E1,6.439994812E0,-6.469302654E0,-3.583989859E0
1.424432438E1,6.363092422E0,-6.584050655E0,-3.511654139E0
1.426451771E1,6.249625683E0,-6.757552624E0,-3.383497715E0
1.428471193E1,6.153098106E0,-6.939363956E0,-3.186691999E0
1.430490672E1,6.163758755E0,-7.034710884E0,-2.948103189E0
1.432510183E1,6.250308037E0,-7.108957291E0,-2.562568665E0
1.434529631E1,6.155146122E0,-7.253784180E0,-2.380584002E0
1.436548735E1,5.889929771E0,-7.446119785E0,-2.456505299E0
1.438567297E1,5.660715103E0,-7.643175125E0,-2.389260054E0
1.440585610E1,5.418368816E0,-7.875143528E0,-2.189468861E0
1.442603969E1,5.111940861E0,-8.130636215E0,-1.982728124E0
1.444622391E1,4.792302132E0,-8.364532471E0,-1.799674153E0
1.446640891E1,4.518091202E0,-8.539237022E0,-1.684835434E0
1.448659480E1,4.289692879E0,-8.672931671E0,-1.596617222E0
1.450678162E1,4.078360558E0,-8.789258957E0,-1.512047052E0
1.452696938E1,3.855930805E0,-8.905097961E0,-1.414713502E0
1.454715808E1,3.637213707E0,-9.014751434E0,-1.294339895E0
1.456734766E1,3.442592382E0,-9.109756470E0,-1.153809309E0
1.458753803E1,3.275684834E0,-9.189564705E0,-9.960801005E-1
1.460772907E1,3.135157108E0,-9.252026558E0,-8.609246016E-1
1.462792068E1,3.024617672E0,-9.295052528E0,-7.899855375E-1
1.464811271E1,2.968241453E0,-9.316560745E0,-7.494097352E-1
1.466830500E1,2.969791651E0,-9.319698334E0,-7.028142810E-1
1.468850282E1,3.023346424E0,-9.305906296E0,-6.556463242E-1
1.470869396E1,3.120421410E0,-9.277088165E0,-6.074489951E-1
1.472887318E1,3.240000725E0,-9.240015030E0,-5.430553555E-1
1.474905287E1,3.344537258E0,-9.206539154E0,-4.733875692E-1
1.476923334E1,3.400523663E0,-9.187604904E0,-4.413144886E-1
1.478941490E1,3.402740717E0,-9.188076973E0,-4.135150909E-1
1.480959782E1,3.369561672E0,-9.202640533E0,-3.575564027E-1
1.482978224E1,3.324950218E0,-9.220749855E0,-3.047290146E-1
1.484996829E1,3.287667990E0,-9.236423492E0,-2.238529623E-1
1.487015600E1,3.241173029E0,-9.254988670E0,-1.017616764E-1
1.489034532E1,3.155528784E0,-9.285054207E0,2.827632427E-2
1.491053615E1,3.036891222E0,-9.323220253E0,1.588688791E-1
1.493072834E1,2.941205740E0,-9.351896286E0,2.484548986E-1
1.495092167E1,2.922459602E0,-9.358040810E0,2.380986959E-1
1.497111589E1,2.971594810E0,-9.344096184E0,1.669872999E-1
1.499131068E1,3.015512466E0,-9.330856323E0,1.103991121E-1
1.501150579E1,3.059354544E0,-9.317195892E0,2.410804667E-2
1.503170027E1,3.156407356E0,-9.283793449E0,-1.366113424E-1
1.505189131E1,3.328200817E0,-9.216912270E0,-3.768351674E-1
1.507207693E1,3.550483465E0,-9.120785713E0,-6.129639149E-1
1.509226006E1,3.792849541E0,-9.006917000E0,-8.124819398E-1
1.511244365E1,4.043020725E0,-8.886356354E0,-9.257672429E-1
1.513262787E1,4.272938251E0,-8.781971931E0,-8.884606361E-1
1.515281287E1,4.454959869E0,-8.694777489E0,-8.512065411E-1
1.517299876E1,4.578749657E0,-8.623853683E0,-9.135547280E-1
1.519318558E1,4.648895741E0,-8.570787430E0,-1.048696637E0
1.521337334E1,4.714543819E0,-8.492040634E0,-1.352301955E0
1.523356204E1,4.909593105E0,-8.296723366E0,-1.797408700E0
1.525375162E1,5.208839893E0,-8.048055649E0,-2.065714121E0
1.527394198E1,5.443794727E0,-7.837903023E0,-2.258928299E0
1.529413303E1,5.597620964E0,-7.647964001E0,-2.519062996E0
1.531432464E1,5.755808830E0,-7.453199387E0,-2.736946583E0
1.533451667E1,5.959999561E0,-7.222798347E0,-2.912040472E0
1.535470896E1,6.151250362E0,-6.972579479E0,-3.116991997E0
1.537490678E1,6.284976482E0,-6.761491776E0,-3.309332609E0
1.539509787E1,6.336427689E0,-6.657736301E0,-3.419737816E0
1.541527698E1,6.277444839E0,-6.685712814E0,-3.473517418E0
1.543545657E1,6.138103008E0,-6.800646305E0,-3.499327660E0
1.545563693E1,5.944934368E0,-6.982998371E0,-3.473597288E0
1.547581839E1,5.766799450E0,-7.177803516E0,-3.375432253E0
1.549600120E1,5.679004192E0,-7.372599125E0,-3.092585087E0
1.551618553E1,5.515468597E0,-7.651554585E0,-2.683973551E0
1.553637146E1,5.306665421E0,-7.865719318E0,-2.477933168E0
1.555655907E1,5.174808979E0,-7.991465569E0,-2.351214886E0
1.557674829E1,5.038552761E0,-8.117714882E0,-2.210448503E0
1.559693902E1,4.793998241E0,-8.296044350E0,-2.088928223E0
1.561713110E1,4.455561161E0,-8.501513481E0,-2.010631323E0
1.563732433E1,4.125950336E0,-8.683025360E0,-1.937006950E0
1.565751850E1,3.880005360E0,-8.816571236E0,-1.839573503E0
1.567771334E1,3.723132372E0,-8.913123131E0,-1.692606330E0
1.569790855E1,3.608159542E0,-8.994541168E0,-1.499934196E0
1.571810355E1,3.492513418E0,-9.074672699E0,-1.273992300E0
1.573829506E1,3.366441488E0,-9.151635170E0,-1.041652799E0
1.575848068E1,3.239754200E0,-9.216242790E0,-8.574718833E-1
1.577866381E1,3.144249678E0,-9.259441376E0,-7.394913435E-1
1.579884740E1,3.102089167E0,-9.279808044E0,-6.577238441E-1
1.581903162E1,3.107999325E0,-9.283569336E0,-5.710225701E-1
1.583921662E1,3.149290800E0,-9.275245667E0,-4.713564217E-1
1.585940250E1,3.201901674E0,-9.261486053E0,-3.782655299E-1
1.587958933E1,3.258261681E0,-9.243987083E0,-3.206780255E-1
1.589977709E1,3.293498516E0,-9.232188225E0,-2.999311686E-1
1.591996579E1,3.300285578E0,-9.230643272E0,-2.715365887E-1
1.594015537E1,3.287040949E0,-9.237049103E0,-2.065836191E-1
1.596034574E1,3.246386051E0,-9.252695084E0,-1.378519386E-1
1.598053678E1,3.187095642E0,-9.273903847E0,-8.662626892E-2
1.600072839E1,3.126933336E0,-9.294728279E0,-2.617834136E-2
1.602092042E1,3.060359001E0,-9.316787720E0,4.541857168E-2
1.604111271E1,2.970093250E0,-9.345072746E0,1.362183690E-1
1.606131053E1,2.868955612E0,-9.374372482E0,2.462121844E-1
1.608150162E1,2.792149305E0,-9.394244194E0,3.499597013E-1
1.610168074E1,2.772454977E0,-9.396594048E0,4.334743917E-1
1.612186032E1,2.792721033E0,-9.386535645E0,5.138447285E-1
1.614204068E1,2.828029156E0,-9.373281479E0,5.605578423E-1
1.616222214E1,2.900909424E0,-9.355673790E0,4.759115279E-1
1.618240495E1,3.086439133E0,-9.305441856E0,2.302515060E-1
1.620258928E1,3.351012707E0,-9.216177940E0,-5.616369098E-2
1.622277521E1,3.603472233E0,-9.116622925E0,-2.693730295E-1
1.624296282E1,3.838502407E0,-9.013473511E0,-4.399779737E-1
1.626315204E1,4.086009502E0,-8.894276619E0,-6.056199074E-1
1.628334277E1,4.319172859E0,-8.775486946E0,-7.113006711E-1
1.630353485E1,4.473201275E0,-8.700052261E0,-6.855295300E-1
1.632372808E1,4.555918694E0,-8.659564018E0,-6.526504159E-1
1.634392224E1,4.644755363E0,-8.593137741E0,-8.686832190E-1
1.636411709E1,4.728945255E0,-8.514622688E0,-1.143970966E0
1.638431230E1,4.889719486E0,-8.378458023E0,-1.436127782E0
1.640450730E1,5.193471432E0,-8.137907028E0,-1.724153876E0
1.642469881E1,5.483787537E0,-7.886144161E0,-1.976658821E0
1.644488443E1,5.675740719E0,-7.672851086E0,-2.254710436E0
1.646506756E1,5.826680660E0,-7.457104683E0,-2.571336746E0
1.648525115E1,5.976912498E0,-7.231166840E0,-2.856069565E0
1.650543537E1,6.098662376E0,-7.014005661E0,-3.127368927E0
1.652562037E1,6.189194679E0,-6.813950062E0,-3.381470680E0
1.654580626E1,6.269579887E0,-6.652982235E0,-3.549730539E0
1.656599308E1,6.301925182E0,-6.571802616E0,-3.642462015E0
1.658618084E1,6.254629135E0,-6.585193157E0,-3.699354887E0
1.660636954E1,6.140501499E0,-6.681577682E0,-3.717680454E0
1.662655912E1,5.984623909E0,-6.835787296E0,-3.691432714E0
1.664674948E1,5.811072826E0,-7.006973267E0,-3.647484064E0
1.666694053E1,5.745031834E0,-7.060774326E0,-3.648350716E0
1.668713214E1,5.920659542E0,-7.048253536E0,-3.382055759E0
1.670732417E1,5.993568897E0,-7.193687916E0,-2.915198088E0
1.672751646E1,5.766239643E0,-7.391617775E0,-2.878340244E0
1.674771428E1,5.570028782E0,-7.545167923E0,-2.866285086E0
1.676790537E1,5.488471031E0,-7.686625957E0,-2.638723373E0
1.678808449E1,5.357286453E0,-7.867314339E0,-2.361194134E0
1.680826407E1,5.152799129E0,-8.079417229E0,-2.083759308E0
1.682844449E1,4.949144840E0,-8.259531021E0,-1.859167218E0
1.684862605E1,4.752260208E0,-8.403965950E0,-1.720399141E0
1.686880896E1,4.539044857E0,-8.540482521E0,-1.620991588E0
1.688899339E1,4.290567398E0,-8.686747551E0,-1.517177343E0
1.690917943E1,4.031500816E0,-8.828922272E0,-1.402678370E0
1.692936714E1,3.799310684E0,-8.948370934E0,-1.289291382E0
1.694955646E1,3.614786386E0,-9.043411255E0,-1.149091363E0
1.696974730E1,3.478374720E0,-9.115764618E0,-9.869804978E-1
1.698993948E1,3.371046782E0,-9.168614388E0,-8.619424105E-1
1.701013282E1,3.281281471E0,-9.208625793E0,-7.776822448E-1
1.703032704E1,3.196045637E0,-9.245870590E0,-6.852420568E-1
1.705052183E1,3.115148067E0,-9.280405045E0,-5.833882093E-1
1.707071693E1,3.041939735E0,-9.309942245E0,-4.918960631E-1
1.709091152E1,2.999703407E0,-9.327298164E0,-4.167502820E-1
1.711110266E1,3.029052258E0,-9.321278572E0,-3.301564157E-1
1.713128829E1,3.115698338E0,-9.295892715E0,-2.217625082E-1
1.715147141E1,3.221429825E0,-9.261513710E0,-1.309248507E-1
1.717165500E1,3.321747780E0,-9.226647377E0,-7.325958461E-2
1.719183922E1,3.412944555E0,-9.193533897E0,-3.394145519E-2
1.721202422E1,3.480800390E0,-9.168087959E0,2.411874197E-2
1.723221011E1,3.489407539E0,-9.164441109E0,8.627731353E-2
1.725239693E1,3.410141706E0,-9.193883896E0,1.175867617E-1
1.727258469E1,3.269642830E0,-9.244016647E0,1.672832668E-1
1.729277339E1,3.129149914E0,-9.290922165E0,2.399546504E-1
1.731296297E1,3.020751715E0,-9.325012207E0,2.993372083E-1
1.733315334E1,2.939116716E0,-9.349578857E0,3.425800502E-1
1.735334438E1,2.875923395E0,-9.368400574E0,3.640385866E-1
1.737353600E1,2.833892822E0,-9.379810333E0,3.982412219E-1
1.739372803E1,2.793683529E0,-9.389723778E0,4.458900988E-1
1.741392032E1,2.744006395E0,-9.402322769E0,4.869652390E-1
1.743411813E1,2.703413248E0,-9.414926529E0,4.702163637E-1
1.745430928E1,2.711904764E0,-9.417191505E0,3.639452457E-1
1.747448850E1,2.766325235E0,-9.406579018E0,1.846777797E-1
1.749466818E1,2.872437954E0,-9.376375198E0,-5.554304272E-2
1.751484865E1,3.025149107E0,-9.322855949E0,-3.212776780E-1
1.753503021E1,3.198095798E0,-9.253169060E0,-5.669345856E-1
1.755521313E1,3.375911474E0,-9.177457809E0,-7.401927710E-1
1.757539756E1,3.557746887E0,-9.104492188E0,-7.880660295E-1
1.759558360E1,3.739412785E0,-9.036454201E0,-7.277911305E-1
1.761577131E1,3.914855480E0,-8.958272934E0,-7.704835534E-1
1.763596063E1,4.059914112E0,-8.878949165E0,-9.228975773E-1
1.765615146E1,4.141869545E0,-8.823749542E0,-1.075533390E0
1.767634365E1,4.154992104E0,-8.799010277E0,-1.218133569E0
1.769653698E1,4.119742870E0,-8.792293549E0,-1.376113415E0
1.771673120E1,4.091500759E0,-8.775831223E0,-1.553961396E0
1.773692600E1,4.132103443E0,-8.727030754E0,-1.713191867E0
1.775712110E1,4.237236023E0,-8.663167000E0,-1.779260159E0
1.777731558E1,4.364157200E0,-8.601777077E0,-1.770295620E0
1.779750662E1,4.477194786E0,-8.549344063E0,-1.741791964E0
1.781769224E1,4.567054749E0,-8.505223274E0,-1.724402785E0
1.783787537E1,4.624963284E0,-8.477320671E0,-1.707376242E0
1.785805896E1,4.622751236E0,-8.484144211E0,-1.679245353E0
1.787824318E1,4.547690868E0,-8.529265404E0,-1.655447364E0
1.789842818E1,4.408556461E0,-8.604714394E0,-1.641311169E0
1.791861407E1,4.216725349E0,-8.701969147E0,-1.632586241E0
1.793880089E1,3.971609592E0,-8.815929413E0,-1.635873795E0
1.795898865E1,3.684630156E0,-8.937767982E0,-1.646265388E0
1.797917735E1,3.414113283E0,-9.043595314E0,-1.651540041E0
1.799936693E1,3.232236385E0,-9.116010666E0,-1.619067430E0
1.801955730E1,3.145374537E0,-9.159853935E0,-1.540799141E0
1.803974834E1,3.146737576E0,-9.174118996E0,-1.450504065E0
1.805993995E1,3.215718508E0,-9.158643723E0,-1.395992398E0
1.808013198E1,3.328934431E0,-9.140419006E0,-1.241497993E0
1.810032428E1,3.462356806E0,-9.131769180E0,-8.906558752E-1
1.812052209E1,3.536829948E0,-9.122547150E0,-6.635786891E-1
1.814071324E1,3.568770885E0,-9.114023209E0,-6.073095202E-1
1.816089245E1,3.578812838E0,-9.103281021E0,-7.019677162E-1
1.818107214E1,3.553032398E0,-9.095856667E0,-9.009668231E-1
1.820125261E1,3.528532743E0,-9.084947586E0,-1.087917209E0
1.822143417E1,3.580415249E0,-9.061483383E0,-1.113798261E0
1.824161709E1,3.750591516E0,-9.023645401E0,-8.229769468E-1
1.826180152E1,3.895819664E0,-8.991039276E0,-3.926765323E-1
1.828198756E1,3.887037277E0,-8.998276711E0,-3.038837016E-1
1.830217527E1,3.810712576E0,-9.027062416E0,-4.012636542E-1
1.832236459E1,3.743544340E0,-9.054857254E0,-4.072074294E-1
1.834255542E1,3.665658236E0,-9.089884758E0,-3.276146054E-1
1.836274761E1,3.579281807E0,-9.126915932E0,-2.419544011E-1
1.838294094E1,3.507466793E0,-9.157441139E0,-9.664175659E-2
1.840313516E1,3.481178999E0,-9.167751312E0,6.405252963E-2
1.842332995E1,3.498491049E0,-9.158469200E0,2.310777456E-1
1.844352506E1,3.520408869E0,-9.142930031E0,4.288686514E-1
1.846371954E1,3.501996756E0,-9.137908936E0,6.364204884E-1
1.848391058E1,3.456552505E0,-9.143431664E0,7.875752449E-1
1.850409620E1,3.387873411E0,-9.161252975E0,8.741502166E-1
1.852427933E1,3.270853519E0,-9.197002411E0,9.418354034E-1
1.854446292E1,3.158561945E0,-9.229508400E0,1.005011916E0
1.856464714E1,3.071481943E0,-9.251951218E0,1.066672206E0
1.858483214E1,3.004203081E0,-9.270484924E0,1.096936107E0
1.860501803E1,2.953653812E0,-9.286497116E0,1.098768592E0
1.862520485E1,2.937318802E0,-9.292069435E0,1.095450521E0
1.864539261E1,2.975916386E0,-9.281194687E0,1.083389640E0
1.866558131E1,3.061728477E0,-9.250658035E0,1.105234861E0
1.868577089E1,3.167910099E0,-9.206807137E0,1.170221686E0
1.870596131E1,3.246382236E0,-9.180198669E0,1.164195061E0
1.872615245E1,3.307619095E0,-9.175636292E0,1.018698454E0
1.874634417E1,3.417441607E0,-9.153875351E0,8.354879618E-1
1.876653631E1,3.582030296E0,-9.108482361E0,6.123709679E-1
1.878672870E1,3.763296843E0,-9.049442291E0,3.399493992E-1
1.880692662E1,3.935252190E0,-8.982356071E0,3.816867247E-2
1.882711756E1,4.093663216E0,-8.907788277E0,-2.522397935E-1
1.884729626E1,4.265549660E0,-8.813484192E0,-5.458683968E-1
1.886747547E1,4.443617821E0,-8.691254616E0,-9.416716099E-1
1.888765558E1,4.612740517E0,-8.567564964E0,-1.220589399E0
1.890783683E1,4.758771896E0,-8.471114159E0,-1.328420758E0
1.892801943E1,4.840208530E0,-8.410804749E0,-1.414610267E0
1.894820360E1,4.832130432E0,-8.389010429E0,-1.563782454E0
1.896838943E1,4.781717300E0,-8.382166862E0,-1.744944811E0
1.898857693E1,4.744189739E0,-8.377052307E0,-1.867632747E0
1.900876610E1,4.722485542E0,-8.355322838E0,-2.014226913E0
1.902895688E1,4.734640121E0,-8.302370071E0,-2.196410656E0
1.904914912E1,4.785625458E0,-8.245553970E0,-2.297613859E0
1.906934256E1,4.839058399E0,-8.209857941E0,-2.313465595E0
1.908953693E1,4.850679398E0,-8.193265915E0,-2.347699404E0
1.910973198E1,4.830194950E0,-8.175430298E0,-2.449883223E0
1.912992740E1,4.804238319E0,-8.158176422E0,-2.556137562E0
1.915012277E1,4.765401840E0,-8.174473763E0,-2.576685905E0
1.917031459E1,4.679393768E0,-8.241120338E0,-2.521425724E0
1.919050297E1,4.522768497E0,-8.345962524E0,-2.461681604E0
1.921068860E1,4.303297997E0,-8.468865395E0,-2.435227156E0
1.923087172E1,4.069022655E0,-8.587644577E0,-2.421946764E0
1.925105532E1,3.868644476E0,-8.699113846E0,-2.351467609E0
1.927123954E1,3.735921383E0,-8.797251701E0,-2.195825577E0
1.929142454E1,3.731522560E0,-8.826019287E0,-2.085068703E0
1.931161042E1,3.859372377E0,-8.778354645E0,-2.053317785E0
1.933179724E1,4.042382717E0,-8.707208633E0,-2.003507853E0
1.935198500E1,4.236812592E0,-8.633994102E0,-1.916756988E0
1.937217370E1,4.377381802E0,-8.583591461E0,-1.825065374E0
1.939236329E1,4.479519844E0,-8.544699669E0,-1.758525372E0
1.941255365E1,4.550664425E0,-8.522830009E0,-1.680239677E0
1.943274469E1,4.546257496E0,-8.547649384E0,-1.561929345E0
1.945293631E1,4.445908546E0,-8.618700981E0,-1.456805944E0
1.947312834E1,4.279552460E0,-8.716279030E0,-1.371974468E0
1.949332063E1,4.020280838E0,-8.839331627E0,-1.368924618E0
1.951351844E1,3.756178617E0,-8.944522858E0,-1.434230685E0
1.953370959E1,3.657858133E0,-8.994197845E0,-1.376537085E0
1.955388881E1,3.690527916E0,-8.999475479E0,-1.248932004E0
1.957406850E1,3.758034706E0,-8.978706360E0,-1.195991278E0
1.959424896E1,3.776096344E0,-8.960007668E0,-1.276615858E0
1.961443053E1,3.740946531E0,-8.957740784E0,-1.390897274E0
1.963461344E1,3.697656155E0,-8.993211746E0,-1.272737265E0
1.965479787E1,3.657102346E0,-9.052420616E0,-9.217701554E-1
1.967498391E1,3.613711119E0,-9.099755287E0,-5.531156063E-1
1.969517162E1,3.554987431E0,-9.138280869E0,-1.558075696E-1
1.971536094E1,3.502016068E0,-9.159120560E0,1.294855028E-1
1.973555178E1,3.480530739E0,-9.167118073E0,1.422573924E-1
1.975574396E1,3.494180202E0,-9.162755013E0,7.072140276E-2
1.977593730E1,3.514051914E0,-9.155246735E0,5.723583326E-2
1.979613152E1,3.526741028E0,-9.150324821E0,6.354495883E-2
1.981632631E1,3.535470247E0,-9.146816254E0,8.113151044E-2
1.983652141E1,3.535124302E0,-9.146171570E0,1.442970186E-1
1.985671589E1,3.530697584E0,-9.145441055E0,2.558418810E-1
1.987690693E1,3.517136097E0,-9.145344734E0,4.035059512E-1
1.989709256E1,3.486260653E0,-9.149106026E0,5.569862127E-1
1.991727568E1,3.439040899E0,-9.158910751E0,6.765539050E-1
1.993745928E1,3.369903088E0,-9.179614067E0,7.408307791E-1
1.995764350E1,3.274282932E0,-9.210596085E0,7.838258743E-1
1.997782850E1,3.154289961E0,-9.248208046E0,8.315647840E-1
1.999801438E1,3.014712095E0,-9.289248466E0,8.897984028E-1
2.001820120E1,2.865345955E0,-9.329866409E0,9.559217095E-1
2.003838896E1,2.708854437E0,-9.375427246E0,9.663659930E-1
2.005857766E1,2.573917150E0,-9.421079636E0,8.880310059E-1
2.007876724E1,2.505873919E0,-9.447801590E0,7.937452197E-1
2.009895761E1,2.537801743E0,-9.444351196E0,7.308768034E-1
2.011914865E1,2.720072031E0,-9.395066261E0,7.101700902E-1
2.013934027E1,3.040760756E0,-9.299882889E0,6.605483890E-1
2.015953230E1,3.393693447E0,-9.187434196E0,4.942519069E-1
2.017972459E1,3.703998566E0,-9.079612732E0,1.068387553E-1
2.019992240E1,3.968039513E0,-8.961123466E0,-3.511335552E-1
2.022011350E1,4.161995888E0,-8.846508980E0,-7.664541602E-1
2.024029261E1,4.261356354E0,-8.757081032E0,-1.150981188E0
2.026047225E1,4.347611427E0,-8.672896385E0,-1.431613803E0
2.028065271E1,4.474064350E0,-8.577447891E0,-1.606401682E0
2.030083428E1,4.591847897E0,-8.483011246E0,-1.767440557E0
2.032101719E1,4.659690857E0,-8.393982887E0,-1.999681354E0
2.034120162E1,4.674913883E0,-8.316461563E0,-2.269811392E0
2.036138766E1,4.716051102E0,-8.243645668E0,-2.443673372E0
2.038157537E1,4.869760990E0,-8.117522240E0,-2.561569929E0
2.040176469E1,5.104708195E0,-7.913792610E0,-2.735733747E0
2.042195553E1,5.297468662E0,-7.694534302E0,-2.983511209E0
2.044214771E1,5.363631248E0,-7.525853634E0,-3.280759096E0
2.046234105E1,5.396704197E0,-7.382466316E0,-3.541913748E0
2.048253527E1,5.486580372E0,-7.221117020E0,-3.731393099E0
2.050273006E1,5.621930599E0,-7.031888485E0,-3.888036251E0
2.052292516E1,5.804059505E0,-6.812464237E0,-4.009191036E0
2.054311964E1,6.029799461E0,-6.557142735E0,-4.100706100E0
2.056331068E1,6.276533604E0,-6.278006554E0,-4.166790962E0
2.058349631E1,6.444631577E0,-6.020162106E0,-4.288911343E0
2.060367943E1,6.467092991E0,-5.856497765E0,-4.477557659E0
2.062386303E1,6.406905174E0,-5.768671989E0,-4.673797131E0
2.064404725E1,6.307504177E0,-5.723818779E0,-4.860418320E0
2.066423224E1,6.185422421E0,-5.714700222E0,-5.025249004E0
2.068441813E1,6.069130898E0,-5.733651638E0,-5.144053459E0
2.070460495E1,5.992454529E0,-5.760182381E0,-5.203958035E0
2.072479271E1,5.950147152E0,-5.801476479E0,-5.206630707E0
2.074498141E1,5.908834934E0,-5.878591537E0,-5.167031288E0
2.076517100E1,5.877999306E0,-5.956895351E0,-5.112231255E0
2.078536136E1,5.921392918E0,-5.964879513E0,-5.052495480E0
2.080555240E1,6.043190956E0,-5.879014492E0,-5.008735180E0
2.082574402E1,6.049752235E0,-5.912083149E0,-4.961668491E0
2.084593605E1,5.858931541E0,-6.132597446E0,-4.922860146E0
2.086612834E1,5.684597969E0,-6.344683647E0,-4.858056545E0
2.088632615E1,5.668550014E0,-6.512598515E0,-4.650159359E0
2.090651719E1,5.595293999E0,-6.748502254E0,-4.395540237E0
2.092669620E1,5.507646561E0,-7.051946163E0,-4.013261795E0
2.094687574E1,5.440420628E0,-7.337876797E0,-3.567601204E0
2.096705615E1,5.379957199E0,-7.579539299E0,-3.126826286E0
2.098723771E1,5.293913364E0,-7.775922775E0,-2.771263599E0
2.100742063E1,5.147019386E0,-7.947538376E0,-2.552493811E0
2.102760506E1,4.937655926E0,-8.116552353E0,-2.431363344E0
2.104779110E1,4.718375206E0,-8.291190147E0,-2.272331715E0
2.106797881E1,4.520765305E0,-8.460635185E0,-2.037335157E0
2.108816813E1,4.351417542E0,-8.606838226E0,-1.777046204E0
2.110835896E1,4.216379166E0,-8.716856003E0,-1.552083015E0
2.112855115E1,4.109200954E0,-8.796013832E0,-1.383835673E0
2.114874448E1,4.018421173E0,-8.856218338E0,-1.260981679E0
2.116893870E1,3.935392141E0,-8.905951500E0,-1.169236898E0
2.118913350E1,3.857967377E0,-8.949186325E0,-1.094775558E0
2.120932860E1,3.785446405E0,-8.989419937E0,-1.015430808E0
2.122952308E1,3.725816250E0,-9.022382736E0,-9.408944249E-1
2.124971412E1,3.683542013E0,-9.045080185E0,-8.879377246E-1
2.126989974E1,3.657851458E0,-9.057813644E0,-8.640196323E-1
2.129008287E1,3.657538652E0,-9.060735703E0,-8.341876864E-1
2.131026646E1,3.684458494E0,-9.057036400E0,-7.518287301E-1
2.133045068E1,3.732984304E0,-9.046636581E0,-6.273578405E-1
2.135063568E1,3.798072100E0,-9.026381493E0,-5.191138983E-1
2.137082157E1,3.853991032E0,-9.005841255E0,-4.603966773E-1
2.139100839E1,3.885460138E0,-8.994222641E0,-4.213657975E-1
2.141119615E1,3.909855843E0,-8.986094475E0,-3.653955460E-1
2.143138485E1,3.936941385E0,-8.977265358E0,-2.821037769E-1
2.145157443E1,3.951905727E0,-8.973113060E0,-1.899215281E-1
2.147176480E1,3.928857565E0,-8.984484673E0,-1.162418649E-1
2.149195584E1,3.878905058E0,-9.006738663E0,-5.601104349E-2
2.151214745E1,3.812754631E0,-9.035114288E0,-4.122024868E-3
2.153233948E1,3.726241827E0,-9.071029663E0,4.372344911E-2
2.155253178E1,3.630336046E0,-9.109416008E0,9.799979627E-2
2.157272959E1,3.525983334E0,-9.149394989E0,1.624450237E-1
2.159292053E1,3.403631210E0,-9.194126129E0,2.317806482E-1
2.161309933E1,3.260555744E0,-9.243934631E0,2.980675995E-1
2.163327865E1,3.089498997E0,-9.300470352E0,3.558629155E-1
2.165345886E1,2.912335396E0,-9.355189323E0,4.112329781E-1
2.167364021E1,2.759682655E0,-9.398866653E0,4.645993114E-1
2.169382292E1,2.661845684E0,-9.425181389E0,5.009213686E-1
2.171400719E1,2.625966072E0,-9.432573318E0,5.488768220E-1
2.173419313E1,2.614311218E0,-9.431057930E0,6.252315044E-1
2.175438074E1,2.600816250E0,-9.433050156E0,6.509407759E-1
2.177456995E1,2.568654537E0,-9.445255280E0,5.996444225E-1
2.179476068E1,2.539527416E0,-9.459287643E0,4.930078983E-1
2.181495277E1,2.533158302E0,-9.467393875E0,3.492350876E-1
2.183514600E1,2.553678274E0,-9.466657639E0,1.774761826E-1
2.185534016E1,2.616911650E0,-9.451038361E0,-6.604739465E-3
2.187553500E1,2.737728119E0,-9.414558411E0,-2.032765150E-1
2.189573021E1,2.934507847E0,-9.348406792E0,-4.078480303E-1
2.191592547E1,3.199345827E0,-9.249199867E0,-6.220030189E-1
2.193611725E1,3.474000692E0,-9.134470940E0,-8.143511415E-1
2.195630287E1,3.717257500E0,-9.029126167E0,-9.095411897E-1
2.197648600E1,3.921436310E0,-8.935555458E0,-9.739461541E-1
2.199666959E1,4.081218719E0,-8.840597153E0,-1.165282845E0
2.201685381E1,4.170842171E0,-8.764654160E0,-1.398320198E0
2.203703881E1,4.226323605E0,-8.713114738E0,-1.546027541E0
2.205722469E1,4.292853832E0,-8.655664444E0,-1.679658532E0
2.207741152E1,4.407581329E0,-8.542366982E0,-1.942058921E0
2.209759928E1,4.653333187E0,-8.323258400E0,-2.289156675E0
2.211778797E1,5.016234398E0,-8.044642448E0,-2.508288145E0
2.213797756E1,5.383882999E0,-7.766357899E0,-2.620662212E0
2.215816792E1,5.677752972E0,-7.497579575E0,-2.778453350E0
2.217835896E1,5.929870129E0,-7.230545044E0,-2.954021931E0
2.219855058E1,6.161155224E0,-6.962243557E0,-3.120531559E0
2.221874261E1,6.326513290E0,-6.723886490E0,-3.306805849E0
2.223893490E1,6.379237175E0,-6.552411556E0,-3.541413307E0
2.225913271E1,6.325707912E0,-6.454349995E0,-3.807516575E0
2.227932365E1,6.237110138E0,-6.421491623E0,-4.004159451E0
2.229950245E1,6.136819363E0,-6.439417362E0,-4.128405571E0
2.231968178E1,6.015717983E0,-6.512285709E0,-4.191855431E0
2.233986199E1,5.856386185E0,-6.645605087E0,-4.208213806E0
2.236004334E1,5.654256344E0,-6.820075035E0,-4.205515862E0
2.238022605E1,5.490968704E0,-6.932077885E0,-4.238627434E0
2.240041032E1,5.634612560E0,-6.893237114E0,-4.111545086E0
2.242059626E1,5.933040619E0,-7.013084412E0,-3.433084249E0
2.244078386E1,6.033507347E0,-7.180322647E0,-2.865335464E0
2.246097308E1,5.814035892E0,-7.311622143E0,-2.984554052E0
2.248116381E1,5.545916557E0,-7.487614632E0,-3.057583809E0
2.250135589E1,5.325743675E0,-7.710713387E0,-2.889936209E0
2.252154912E1,5.042123318E0,-7.988497734E0,-2.632735491E0
2.254174329E1,4.741206646E0,-8.243413925E0,-2.395306349E0
2.256193813E1,4.527550697E0,-8.410449028E0,-2.221713066E0
2.258213334E1,4.380151749E0,-8.517379761E0,-2.106865168E0
2.260232855E1,4.227142334E0,-8.617426872E0,-2.010375261E0
2.262252027E1,4.061423779E0,-8.720342636E0,-1.905476689E0
2.264270589E1,3.905466318E0,-8.819420815E0,-1.770739913E0
2.266288902E1,3.763079405E0,-8.919550896E0,-1.565641046E0
2.268307261E1,3.625759840E0,-9.015638351E0,-1.320041537E0
2.270325683E1,3.495112181E0,-9.090291977E0,-1.149423838E0
2.272344183E1,3.374813557E0,-9.148180962E0,-1.044892907E0
2.274362771E1,3.278754950E0,-9.195110321E0,-9.327929616E-1
2.276381454E1,3.209914446E0,-9.229502678E0,-8.265070319E-1
2.278400230E1,3.169989347E0,-9.250769615E0,-7.381105423E-1
2.280419100E1,3.158788204E0,-9.260272026E0,-6.631818414E-1
2.282438058E1,3.176607132E0,-9.259317398E0,-5.870258212E-1
2.284457094E1,3.199843168E0,-9.256133080E0,-5.053669214E-1
2.286476198E1,3.215286732E0,-9.253925323E0,-4.440443814E-1
2.288495360E1,3.227558136E0,-9.251583099E0,-4.018301368E-1
2.290514563E1,3.245004892E0,-9.246857643E0,-3.687198758E-1
2.292533792E1,3.274518967E0,-9.237151146E0,-3.506649137E-1
2.294553574E1,3.319067955E0,-9.222380638E0,-3.191837668E-1
2.296572662E1,3.334422350E0,-9.218334198E0,-2.726241052E-1
2.298590532E1,3.287769556E0,-9.236302376E0,-2.273044586E-1
2.300608454E1,3.199093819E0,-9.268549919E0,-1.737412363E-1
2.302626464E1,3.104217529E0,-9.301564217E0,-1.229503602E-1
2.304644589E1,3.046801090E0,-9.320872307E0,-9.347569197E-2
2.306662850E1,3.058837414E0,-9.317030907E0,-8.264245838E-2
2.308681266E1,3.120891333E0,-9.296675682E0,-4.737557098E-2
2.310699850E1,3.185953617E0,-9.274655342E0,2.914806269E-2
2.312718600E1,3.221296310E0,-9.261970520E0,9.763354063E-2
2.314737516E1,3.206611395E0,-9.267573357E0,1.078960206E-2
2.316756589E1,3.282506704E0,-9.238233566E0,-2.248483747E-1
2.318775803E1,3.489326954E0,-9.153659821E0,-4.533244669E-1
2.320795136E1,3.707755566E0,-9.058407784E0,-6.067800522E-1
2.322814563E1,3.906876326E0,-8.963844299E0,-7.457899451E-1
2.324834058E1,4.113369942E0,-8.857311249E0,-8.936513066E-1
2.326853589E1,4.305433273E0,-8.752999306E0,-1.009272695E0
2.328872860E1,4.432066441E0,-8.682232857E0,-1.070516944E0
2.330891865E1,4.518295288E0,-8.610514641E0,-1.270602584E0
2.332911417E1,4.611385345E0,-8.503987312E0,-1.608640313E0
2.334930428E1,4.726490498E0,-8.405351639E0,-1.783461213E0
2.336948370E1,4.909651756E0,-8.264693260E0,-1.939215183E0
2.338966360E1,5.166285992E0,-8.038535118E0,-2.204955101E0
2.340984428E1,5.423984528E0,-7.779727459E0,-2.495317221E0
2.343002605E1,5.634776592E0,-7.543130398E0,-2.742419004E0
2.345020912E1,5.803254604E0,-7.322877407E0,-2.977933407E0
2.347039365E1,5.957999706E0,-7.117894650E0,-3.163575411E0
2.349057974E1,6.108809948E0,-6.918642044E0,-3.314395905E0
2.351076740E1,6.216723919E0,-6.742328167E0,-3.473290682E0
2.353095657E1,6.251295090E0,-6.630506992E0,-3.623270035E0
2.355114714E1,6.220014095E0,-6.589159489E0,-3.750304937E0
2.357133902E1,6.154733181E0,-6.599322796E0,-3.839085102E0
2.359153199E1,6.068451405E0,-6.654701710E0,-3.880622149E0
2.361172579E1,5.945995331E0,-6.759314060E0,-3.889369726E0
2.363192021E1,5.838689804E0,-6.871296406E0,-3.855564117E0
2.365211501E1,5.862417221E0,-6.979350567E0,-3.618165493E0
2.367230969E1,5.810506821E0,-7.224998951E0,-3.194964170E0
2.369250110E1,5.536746502E0,-7.520924091E0,-2.991742134E0
2.371268672E1,5.272757530E0,-7.731293678E0,-2.931808949E0
2.373286985E1,5.092485428E0,-7.894865036E0,-2.812130690E0
2.375305344E1,4.885282040E0,-8.097847939E0,-2.594083786E0
2.377323766E1,4.608804226E0,-8.315945625E0,-2.402986526E0
2.379342266E1,4.319764137E0,-8.503563881E0,-2.280224085E0
2.381360855E1,4.112726212E0,-8.633020401E0,-2.174127579E0
2.383379537E1,3.987469435E0,-8.733312607E0,-1.999928951E0
2.385398313E1,3.845890999E0,-8.838672638E0,-1.804818988E0
2.387417183E1,3.654830694E0,-8.949275017E0,-1.650174618E0
2.389436141E1,3.454347372E0,-9.054252625E0,-1.502791405E0
2.391455178E1,3.270888090E0,-9.147075653E0,-1.342639685E0
2.393474282E1,3.115339756E0,-9.222997665E0,-1.183791161E0
2.395493443E1,2.995429754E0,-9.279048920E0,-1.047390103E0
2.397512646E1,2.909712553E0,-9.317719460E0,-9.402408600E-1
2.399531870E1,2.870724916E0,-9.339789391E0,-8.352555037E-1
2.401551641E1,2.874225140E0,-9.346644402E0,-7.412631512E-1
2.403570724E1,2.914888382E0,-9.340170860E0,-6.595744491E-1
2.405588594E1,2.988843441E0,-9.323313713E0,-5.594711900E-1
2.407606516E1,3.068317175E0,-9.303350449E0,-4.510918260E-1
2.409624527E1,3.123154640E0,-9.287761688E0,-3.921431601E-1
2.411642652E1,3.153211594E0,-9.279006958E0,-3.573167026E-1
2.413660912E1,3.160320997E0,-9.278594971E0,-3.007318676E-1
2.415679329E1,3.125868559E0,-9.291871071E0,-2.459120303E-1
2.417697912E1,3.055664062E0,-9.316467285E0,-1.917087287E-1
2.419716662E1,2.969131470E0,-9.345724106E0,-1.100547984E-1
2.421735579E1,2.880244255E0,-9.374144554E0,9.260363295E-4
2.423754652E1,2.798411369E0,-9.398214340E0,1.134168282E-1
2.425773865E1,2.757873774E0,-9.409161568E0,1.794084162E-1
2.427793199E1,2.781499147E0,-9.401714325E0,2.035553455E-1
2.429812626E1,2.850499868E0,-9.380696297E0,2.181342542E-1
2.431832120E1,2.925486088E0,-9.357789993E0,2.089739144E-1
2.433851652E1,3.006408930E0,-9.333880424E0,1.028313786E-1
2.435871178E1,3.161513090E0,-9.282232285E0,-1.240223870E-1
2.437890350E1,3.403471470E0,-9.189882278E0,-3.644644618E-1
2.439908912E1,3.647344828E0,-9.086664200E0,-5.475441217E-1
2.441927225E1,3.879637241E0,-8.976402283E0,-7.369039655E-1
2.443945584E1,4.113480091E0,-8.854507446E0,-9.205230474E-1
2.445964006E1,4.320184231E0,-8.748772621E0,-9.825398922E-1
2.447982506E1,4.463894367E0,-8.684810638E0,-9.044859409E-1
2.450001094E1,4.566551208E0,-8.631896973E0,-8.985236287E-1
2.452019777E1,4.685688972E0,-8.530845642E0,-1.199741960E0
2.454038553E1,4.821212292E0,-8.413810730E0,-1.460855246E0
2.456057422E1,5.053137302E0,-8.241034508E0,-1.649711609E0
2.458076381E1,5.370885849E0,-7.994085312E0,-1.848937035E0
2.460095417E1,5.659078598E0,-7.725067616E0,-2.113894939E0
2.462114521E1,5.881979942E0,-7.473138809E0,-2.392675877E0
2.464133683E1,6.078919888E0,-7.228719234E0,-2.638701916E0
2.466152886E1,6.275492191E0,-6.969468117E0,-2.866200447E0
2.468172110E1,6.409648418E0,-6.738386154E0,-3.111423016E0
2.470191881E1,6.439320564E0,-6.589187622E0,-3.359785318E0
2.472210959E1,6.393089771E0,-6.538458347E0,-3.542225122E0
2.474228818E1,6.304245472E0,-6.562578678E0,-3.655058146E0
2.476246730E1,6.173638821E0,-6.653703213E0,-3.712788343E0
2.478264730E1,6.011086464E0,-6.809092522E0,-3.697767496E0
2.480282850E1,5.883336544E0,-6.967672348E0,-3.606698275E0
2.482301110E1,5.921245098E0,-7.079010010E0,-3.316150904E0
2.484319527E1,5.896001816E0,-7.269692898E0,-2.925597191E0
2.486338110E1,5.643617153E0,-7.479216099E0,-2.895048141E0
2.488356860E1,5.372583389E0,-7.682065964E0,-2.879514456E0
2.490375777E1,5.152019978E0,-7.880850315E0,-2.742130280E0
2.492394850E1,4.869597912E0,-8.107394218E0,-2.593755245E0
2.494414063E1,4.539228916E0,-8.332711220E0,-2.476226330E0
2.496433396E1,4.258164406E0,-8.508954048E0,-2.374053240E0
2.498452824E1,4.082883835E0,-8.635564804E0,-2.219789505E0
2.500472318E1,3.949311018E0,-8.748347282E0,-2.009913206E0
2.502491850E1,3.789289951E0,-8.859800339E0,-1.820881009E0
2.504511386E1,3.606066704E0,-8.969561577E0,-1.647309303E0
2.506530568E1,3.422114611E0,-9.072763443E0,-1.464403510E0
2.508549131E1,3.243664265E0,-9.163595200E0,-1.295200706E0
2.510567443E1,3.080502987E0,-9.236974716E0,-1.165843844E0
2.512585803E1,2.965899706E0,-9.285925865E0,-1.070232511E0
2.514604224E1,2.931544065E0,-9.308101654E0,-9.672967792E-1
2.516622724E1,2.968167543E0,-9.308240891E0,-8.467749357E-1
2.518641313E1,3.033437252E0,-9.296829224E0,-7.332105041E-1
2.520659995E1,3.106896162E0,-9.278908730E0,-6.476345658E-1
2.522678771E1,3.183479786E0,-9.256634712E0,-5.920710564E-1
2.524697641E1,3.242782116E0,-9.238265038E0,-5.560641289E-1
2.526716600E1,3.267361403E0,-9.232236862E0,-5.104122758E-1
2.528735636E1,3.253262281E0,-9.240613937E0,-4.446631074E-1
2.530754740E1,3.203434706E0,-9.262042046E0,-3.506864309E-1
2.532773902E1,3.115591049E0,-9.295913696E0,-2.224031091E-1
2.534793105E1,3.008910894E0,-9.333377838E0,-7.002168894E-2
2.536812329E1,2.908813238E0,-9.364869118E0,9.172024578E-2
2.538832100E1,2.817458391E0,-9.390014648E0,2.448202372E-1
2.540851172E1,2.764633894E0,-9.402425766E0,3.486713469E-1
2.542869021E1,2.775014400E0,-9.398706436E0,3.660674989E-1
2.544886922E1,2.854189396E0,-9.375830650E0,3.432116210E-1
2.546904912E1,2.958029747E0,-9.344067574E0,3.299080133E-1
2.548923021E1,3.082433701E0,-9.306097031E0,2.560330331E-1
2.550941277E1,3.284662724E0,-9.239964485E0,6.664639711E-2
2.552959693E1,3.559492826E0,-9.136641502E0,-1.489387155E-1
2.554978282E1,3.830194473E0,-9.022574425E0,-3.052042425E-1
2.556997047E1,4.066445351E0,-8.915097237E0,-3.942768872E-1
2.559015985E1,4.258761883E0,-8.821073532E0,-4.711616039E-1
2.561035079E1,4.397463322E0,-8.739767075E0,-6.702032089E-1
2.563054313E1,4.477481365E0,-8.673110962E0,-9.485194683E-1
2.565073667E1,4.529342651E0,-8.615022659E0,-1.198676586E0
2.567093115E1,4.624692917E0,-8.524715424E0,-1.453223109E0
2.569112631E1,4.843505859E0,-8.349533081E0,-1.730933547E0
2.571132183E1,5.186111450E0,-8.078360558E0,-2.003681421E0
2.573151667E1,5.510940075E0,-7.783477306E0,-2.284162760E0
2.575170782E1,5.744964600E0,-7.513669014E0,-2.590471029E0
2.577189334E1,5.970099449E0,-7.231715202E0,-2.868902683E0
2.579207636E1,6.144083500E0,-6.965099335E0,-3.147700310E0
2.581225990E1,6.173706055E0,-6.747978210E0,-3.538435221E0
2.583244412E1,6.101239681E0,-6.601852417E0,-3.919287443E0
2.585262912E1,6.033930302E0,-6.537323475E0,-4.126192570E0
2.587281501E1,5.979652405E0,-6.573919296E0,-4.147014141E0
2.589300183E1,5.893141270E0,-6.706110954E0,-4.058245182E0
2.591318959E1,5.809894562E0,-6.830451488E0,-3.969942093E0
2.593337829E1,5.855898857E0,-7.011826515E0,-3.565547943E0
2.595356787E1,5.730535507E0,-7.298060894E0,-3.173270464E0
2.597375824E1,5.430786610E0,-7.533016205E0,-3.151287794E0
2.599394928E1,5.305209637E0,-7.689467907E0,-2.982821941E0
2.601414089E1,5.151206493E0,-7.883529186E0,-2.735949039E0
2.603433292E1,4.894166470E0,-8.108876228E0,-2.542371750E0
2.605452521E1,4.638470173E0,-8.330300331E0,-2.293704987E0
2.607472303E1,4.405572414E0,-8.516561508E0,-2.056577682E0
2.609491386E1,4.192671776E0,-8.667571068E0,-1.861478567E0
2.611509245E1,4.017127037E0,-8.787179947E0,-1.678850532E0
2.613527157E1,3.851656914E0,-8.892462730E0,-1.503070951E0
2.615545157E1,3.675255060E0,-8.995645523E0,-1.319563389E0
2.617563277E1,3.497933626E0,-9.093955040E0,-1.111226082E0
2.619581537E1,3.333172321E0,-9.179151535E0,-8.963956237E-1
2.621599954E1,3.205310106E0,-9.239182472E0,-7.306765318E-1
2.623618537E1,3.155608416E0,-9.265803337E0,-5.978496075E-1
2.625637287E1,3.168010473E0,-9.269762039E0,-4.534460008E-1
2.627656204E1,3.194824696E0,-9.266673088E0,-3.037048876E-1
2.629675282E1,3.227743626E0,-9.258631706E0,-1.726294607E-1
2.631694506E1,3.286039352E0,-9.239455223E0,-6.939186156E-2
2.633713850E1,3.367605448E0,-9.210284233E0,1.668173075E-2
2.635733287E1,3.440966129E0,-9.182483673E0,1.101785973E-1
2.637752792E1,3.472786903E0,-9.168952942E0,2.011434287E-1
2.639772334E1,3.445147276E0,-9.177686691E0,2.672456801E-1
2.641791850E1,3.386203766E0,-9.196863174E0,3.488941789E-1
2.643811001E1,3.334088564E0,-9.211054802E0,4.590216875E-1
2.645829553E1,3.259820700E0,-9.231452942E0,5.694268942E-1
2.647847855E1,3.143822432E0,-9.264431000E0,6.760849357E-1
2.649866209E1,3.007082701E0,-9.300399780E0,7.939867377E-1
2.651884631E1,2.862963915E0,-9.335042953E0,9.114864469E-1
2.653903131E1,2.746348619E0,-9.364260674E0,9.688014388E-1
2.655921719E1,2.695400238E0,-9.381390572E0,9.458919168E-1
2.657940402E1,2.721296787E0,-9.382278442E0,8.589499593E-1
2.659959178E1,2.777543545E0,-9.374376297E0,7.594025731E-1
2.661978047E1,2.824429274E0,-9.372176170E0,5.960670710E-1
2.663997006E1,2.934630871E0,-9.349882126E0,3.715038896E-1
2.666016042E1,3.108749390E0,-9.300131798E0,1.166829839E-1
2.668035146E1,3.357180834E0,-9.212670326E0,-1.625907570E-1
2.670054308E1,3.658725023E0,-9.089694023E0,-4.019759297E-1
2.672073511E1,3.954948187E0,-8.955815315E0,-5.675887465E-1
2.674092740E1,4.210523605E0,-8.833713531E0,-6.382727027E-1
2.676112521E1,4.413445473E0,-8.729140282E0,-7.028556466E-1
2.678131605E1,4.544300556E0,-8.654730797E0,-7.844327688E-1
2.680149464E1,4.621609211E0,-8.600540161E0,-9.175139666E-1
2.682167376E1,4.683108330E0,-8.540759087E0,-1.137674212E0
2.684185376E1,4.739375114E0,-8.489696503E0,-1.278188467E0
2.686203495E1,4.794027805E0,-8.449805260E0,-1.337336421E0
2.688221761E1,4.851867199E0,-8.400698662E0,-1.434588432E0
2.690240188E1,4.923240662E0,-8.324135780E0,-1.625074863E0
2.692258782E1,5.004477024E0,-8.236063004E0,-1.814628243E0
2.694277542E1,5.091896057E0,-8.154279709E0,-1.936669350E0
2.696296469E1,5.160132885E0,-8.083871841E0,-2.048032522E0
2.698315553E1,5.175137520E0,-8.038496017E0,-2.184243202E0
2.700334771E1,5.124648571E0,-8.041454315E0,-2.289843798E0
2.702354105E1,5.015897274E0,-8.103105545E0,-2.313184500E0
2.704373532E1,4.835503578E0,-8.224462509E0,-2.268588543E0
2.706393027E1,4.541640282E0,-8.410382271E0,-2.193026781E0
2.708412558E1,4.148358345E0,-8.625328064E0,-2.136638880E0
2.710432074E1,3.797000647E0,-8.797681808E0,-2.086617470E0
2.712451235E1,3.701259613E0,-8.838562965E0,-2.085880280E0
2.714470063E1,3.963741541E0,-8.731492043E0,-2.054306507E0
2.716488615E1,4.246864319E0,-8.627558708E0,-1.923476934E0
2.718506917E1,4.343591213E0,-8.584730148E0,-1.898949623E0
2.720525271E1,4.358037949E0,-8.639560699E0,-1.592444181E0
2.722543693E1,4.236390114E0,-8.752888680E0,-1.268985033E0
2.724562193E1,4.021716595E0,-8.833926201E0,-1.399257779E0
2.726580782E1,3.886578321E0,-8.857405663E0,-1.615943432E0
2.728599464E1,3.894443989E0,-8.862091064E0,-1.570682645E0
2.730618240E1,3.974957705E0,-8.868467331E0,-1.311637521E0
2.732637110E1,4.065417290E0,-8.872130394E0,-9.633682370E-1
2.734656068E1,4.105141163E0,-8.884409904E0,-6.208442450E-1
2.736675105E1,4.032574177E0,-8.925447464E0,-4.950949550E-1
2.738694209E1,3.936995983E0,-8.970684052E0,-4.441535473E-1
2.740713370E1,3.872040510E0,-9.003173828E0,-3.471949100E-1
2.742732574E1,3.832119703E0,-9.023452759E0,-2.501057088E-1
2.744751803E1,3.821626902E0,-9.030220032E0,-1.438420415E-1
2.746771584E1,3.828006983E0,-9.028652191E0,-1.357781701E-2
2.748790672E1,3.828359127E0,-9.027407646E0,1.413057894E-1
2.750808542E1,3.805708170E0,-9.031893730E0,3.344686031E-1
2.752826464E1,3.730727196E0,-9.056080818E0,4.893395603E-1
2.754844474E1,3.606858730E0,-9.102550507E0,5.518461466E-1
2.756862600E1,3.463126898E0,-9.155342102E0,5.973648429E-1
2.758880860E1,3.327842474E0,-9.201820374E0,6.498854160E-1
2.760899277E1,3.209117651E0,-9.238555908E0,7.218279243E-1
2.762917860E1,3.094389915E0,-9.270109177E0,8.125298619E-1
2.764936610E1,2.992112160E0,-9.296844482E0,8.867521882E-1
2.766955527E1,2.931999683E0,-9.308478355E0,9.622892737E-1
2.768974600E1,2.923638582E0,-9.305084229E0,1.018889308E0
2.770993813E1,2.960072756E0,-9.290891647E0,1.042927980E0
2.773013146E1,3.040367842E0,-9.264698982E0,1.044936895E0
2.775032574E1,3.148258686E0,-9.236569405E0,9.719256163E-1
2.777052068E1,3.288472176E0,-9.203583717E0,8.064682484E-1
2.779071600E1,3.516602039E0,-9.133958817E0,6.121223569E-1
2.781091136E1,3.835011244E0,-9.016218185E0,4.133661389E-1
2.783110318E1,4.180986404E0,-8.868741035E0,1.875261664E-1
2.785128881E1,4.455728054E0,-8.735325813E0,-1.046600416E-1
2.787147193E1,4.624694347E0,-8.635655403E0,-4.561257064E-1
2.789165553E1,4.758553982E0,-8.543025970E0,-7.370721698E-1
2.791183974E1,4.909340382E0,-8.440923691E0,-9.053037167E-1
2.793202475E1,4.998068810E0,-8.375338554E0,-1.021466374E0
2.795221063E1,4.979102612E0,-8.362766266E0,-1.201270461E0
2.797239745E1,4.866568089E0,-8.391757965E0,-1.437121749E0
2.799258521E1,4.794002056E0,-8.392796516E0,-1.657979727E0
2.801277391E1,4.827202797E0,-8.347970009E0,-1.783223867E0
2.803296350E1,4.922128201E0,-8.268626213E0,-1.890205383E0
2.805315386E1,5.020367146E0,-8.175314903E0,-2.032369137E0
2.807334490E1,5.067216396E0,-8.099696159E0,-2.211026669E0
2.809353652E1,5.055166721E0,-8.049686432E0,-2.412099600E0
2.811372855E1,5.015472412E0,-8.018749237E0,-2.591348171E0
2.813392084E1,4.972365379E0,-8.004424095E0,-2.715727806E0
2.815411865E1,4.899927616E0,-8.014554977E0,-2.815672398E0
2.817430949E1,4.775741577E0,-8.057867050E0,-2.904042959E0
2.819448808E1,4.588584423E0,-8.145815849E0,-2.959890366E0
2.821466719E1,4.329112053E0,-8.288290024E0,-2.955237865E0
2.823484719E1,4.026453018E0,-8.472852707E0,-2.858116388E0
2.825502839E1,3.753607035E0,-8.672448158E0,-2.620967627E0
2.827521105E1,3.572113991E0,-8.844072342E0,-2.278769016E0
2.829539532E1,3.539292812E0,-8.915005684E0,-2.041191578E0
2.831558126E1,3.723919153E0,-8.851170540E0,-1.989875197E0
2.833576886E1,3.937484026E0,-8.757702827E0,-1.992294788E0
2.835595813E1,4.110879898E0,-8.709504128E0,-1.848134637E0
2.837614896E1,4.313839912E0,-8.665822983E0,-1.569929719E0
2.839634120E1,4.412333488E0,-8.651028633E0,-1.364334226E0
2.841653464E1,4.332151890E0,-8.716861725E0,-1.191285968E0
2.843672902E1,4.174120903E0,-8.815358162E0,-1.018119454E0
2.845692407E1,3.981967926E0,-8.909646034E0,-9.656751156E-1
2.847711949E1,3.792505980E0,-8.987743378E0,-1.003873587E0
2.849731448E1,3.669580221E0,-9.030944824E0,-1.070793748E0
2.851750589E1,3.651007175E0,-9.027136803E0,-1.162468195E0
2.853769152E1,3.762642145E0,-8.975484848E0,-1.205646634E0
2.855787464E1,3.890428782E0,-8.948482513E0,-9.795988202E-1
2.857805824E1,3.866279364E0,-8.997276306E0,-5.208597779E-1
2.859824245E1,3.732583523E0,-9.064589500E0,-2.672638893E-1
2.861842745E1,3.568830729E0,-9.130712509E0,-2.528235912E-1
2.863861334E1,3.422556400E0,-9.186596870E0,-2.508695424E-1
2.865880016E1,3.318066835E0,-9.227285385E0,-1.342675090E-1
2.867898792E1,3.279447556E0,-9.242040634E0,-1.703014225E-2
2.869917662E1,3.286016941E0,-9.239685059E0,2.630400471E-2
2.871936620E1,3.316682816E0,-9.228728294E0,2.428319864E-2
2.873955657E1,3.353373766E0,-9.215381622E0,4.487640783E-2
2.875974761E1,3.375907660E0,-9.206407547E0,1.253177077E-1
2.877993922E1,3.389052868E0,-9.199691772E0,2.244634181E-1
2.880013126E1,3.413520098E0,-9.186954498E0,3.437222540E-1
2.882032355E1,3.458196640E0,-9.166135788E0,4.395546615E-1
2.884052136E1,3.509559870E0,-9.144547462E0,4.802314043E-1
2.886071219E1,3.530036211E0,-9.135677338E0,4.986267388E-1
2.888089079E1,3.502558708E0,-9.145276070E0,5.161293745E-1
2.890106990E1,3.447050333E0,-9.164327621E0,5.507613420E-1
2.892124990E1,3.370410681E0,-9.189415932E0,6.044620275E-1
2.894143110E1,3.302408218E0,-9.207372665E0,6.991287470E-1
2.896161376E1,3.249073505E0,-9.218229294E0,7.988585830E-1
2.898179803E1,3.218986273E0,-9.220376968E0,8.906049132E-1
2.900198396E1,3.175543785E0,-9.230209351E0,9.431628585E-1
2.902217157E1,3.137878895E0,-9.244058609E0,9.335343838E-1
2.904236084E1,3.138268709E0,-9.251410484E0,8.561899662E-1
2.906255167E1,3.162230015E0,-9.253711700E0,7.345148921E-1
2.908274391E1,3.194361448E0,-9.252264023E0,6.017038822E-1
2.910293735E1,3.256851435E0,-9.242098808E0,3.832840621E-1
2.912313172E1,3.374711275E0,-9.207399368E0,7.417844981E-2
2.914332678E1,3.527485847E0,-9.146538734E0,-2.608832717E-1
2.916352219E1,3.739599943E0,-9.048308372E0,-5.602523088E-1
2.918371730E1,4.006310940E0,-8.911128044E0,-8.436021805E-1
2.920390881E1,4.281551361E0,-8.754596710E0,-1.093495727E0
2.922409709E1,4.540326118E0,-8.595675468E0,-1.292360663E0
2.924428261E1,4.795837402E0,-8.427599907E0,-1.464884162E0
2.926446563E1,5.026315689E0,-8.266307831E0,-1.604583859E0
2.928464917E1,5.157997608E0,-8.171913147E0,-1.668922067E0
2.930483339E1,5.169277191E0,-8.163697243E0,-1.674218774E0
2.932501839E1,5.121325970E0,-8.173507690E0,-1.770924807E0
2.934520428E1,5.143654823E0,-8.089208603E0,-2.068309546E0
2.936539110E1,5.371736526E0,-7.842812061E0,-2.409385204E0
2.938557886E1,5.739794254E0,-7.508723736E0,-2.616142511E0
2.940576756E1,6.011806011E0,-7.240466118E0,-2.757575035E0
2.942595714E1,6.182060719E0,-7.021060944E0,-2.942314863E0
2.944614751E1,6.330144405E0,-6.805227280E0,-3.128664255E0
2.946633855E1,6.483664513E0,-6.595968246E0,-3.259704590E0
2.948653016E1,6.605113506E0,-6.405183792E0,-3.393593788E0
2.950672219E1,6.657829285E0,-6.256626129E0,-3.563470364E0
2.952691449E1,6.648430824E0,-6.180464745E0,-3.710877895E0
2.954711230E1,6.590490818E0,-6.175981045E0,-3.820089340E0
2.956730334E1,6.491165161E0,-6.226782322E0,-3.906703949E0
2.958748235E1,6.356220722E0,-6.324876785E0,-3.970486879E0
2.960766188E1,6.206606865E0,-6.471779823E0,-3.970451355E0
2.962784230E1,6.075211048E0,-6.663912773E0,-3.854146719E0
2.964802386E1,6.045031548E0,-6.816366196E0,-3.628379822E0
2.966820678E1,6.141646385E0,-6.903665066E0,-3.284809351E0
2.968839120E1,6.157417774E0,-7.051180363E0,-2.921891212E0
2.970857724E1,6.012662888E0,-7.223091602E0,-2.800932169E0
2.972876495E1,5.763992310E0,-7.400034904E0,-2.861162901E0
2.974895428E1,5.482537270E0,-7.618199348E0,-2.841692209E0
2.976914511E1,5.198695660E0,-7.881048679E0,-2.651985884E0
2.978933730E1,4.906351089E0,-8.145849228E0,-2.396508932E0
2.980953063E1,4.650901794E0,-8.352932930E0,-2.183575392E0
2.982972485E1,4.463325977E0,-8.487819672E0,-2.050857782E0
2.984991964E1,4.293556213E0,-8.601363182E0,-1.937090397E0
2.987011475E1,4.110977650E0,-8.723139763E0,-1.782439828E0
2.989030922E1,3.920620441E0,-8.845211983E0,-1.600426197E0
2.991050027E1,3.739453077E0,-8.955514908E0,-1.409125090E0
2.993068589E1,3.569476366E0,-9.051492691E0,-1.224617481E0
2.995086902E1,3.395812511E0,-9.137147903E0,-1.073022127E0
2.997105261E1,3.238168955E0,-9.207678795E0,-9.504225254E-1
2.999123683E1,3.124348640E0,-9.256533623E0,-8.517156243E-1
3.001142183E1,3.054133415E0,-9.286348343E0,-7.787058353E-1
3.003160771E1,3.020394564E0,-9.301935196E0,-7.222173214E-1
3.005179454E1,3.025216579E0,-9.303654671E0,-6.785934567E-1
3.007198230E1,3.062068701E0,-9.294787407E0,-6.332938075E-1
3.009217100E1,3.123827457E0,-9.278912544E0,-5.602487922E-1
3.011236058E1,3.191792965E0,-9.261045456E0,-4.646174312E-1
3.013255094E1,3.243180275E0,-9.247295380E0,-3.737694323E-1
3.015274199E1,3.251476288E0,-9.247133255E0,-2.980262041E-1
3.017293360E1,3.201432943E0,-9.266803741E0,-2.181204259E-1
3.019312563E1,3.111752033E0,-9.299162865E0,-1.138581783E-1
3.021331792E1,3.009382248E0,-9.333459854E0,2.309955284E-2
3.023351574E1,2.903533459E0,-9.365362167E0,1.728408337E-1
3.025370688E1,2.815229416E0,-9.390027046E0,2.688458264E-1
3.027388610E1,2.798884630E0,-9.395370483E0,2.523023784E-1
3.029406579E1,2.881187201E0,-9.372401237E0,1.650796235E-1
3.031424626E1,3.005525351E0,-9.333962440E0,1.198524386E-1
3.033442782E1,3.100214958E0,-9.303647041E0,3.487487510E-2
3.035461074E1,3.234087706E0,-9.255898476E0,-1.985021383E-1
3.037479516E1,3.483837128E0,-9.152511597E0,-5.145778656E-1
3.039498120E1,3.773972034E0,-9.015184402E0,-8.086883426E-1
3.041516891E1,4.051650524E0,-8.867389679E0,-1.060152888E0
3.043535824E1,4.302285671E0,-8.724143982E0,-1.245004535E0
3.045554907E1,4.496957302E0,-8.614670753E0,-1.317272186E0
3.047574126E1,4.612973690E0,-8.556684494E0,-1.293826222E0
3.049593459E1,4.675098896E0,-8.526555061E0,-1.269521236E0
3.051612881E1,4.781592846E0,-8.430181503E0,-1.496258497E0
3.053632360E1,5.002448082E0,-8.215764046E0,-1.909742355E0
3.055651870E1,5.296504498E0,-7.975392342E0,-2.123808384E0
3.057671318E1,5.601300240E0,-7.739660263E0,-2.212120771E0
3.059690422E1,5.887299538E0,-7.478948593E0,-2.361234426E0
3.061708985E1,6.138819218E0,-7.205374718E0,-2.562785149E0
3.063727297E1,6.344608784E0,-6.958489895E0,-2.737836838E0
3.065745657E1,6.494028091E0,-6.744964123E0,-2.916068077E0
3.067764079E1,6.573014259E0,-6.568330765E0,-3.134151697E0
3.069782579E1,6.568609715E0,-6.479435921E0,-3.322749138E0
3.071801167E1,6.511340618E0,-6.488948822E0,-3.415607929E0
3.073819850E1,6.428498268E0,-6.568930626E0,-3.419642210E0
3.075838626E1,6.315134525E0,-6.711624622E0,-3.353140831E0
3.077857495E1,6.215404034E0,-6.868916988E0,-3.218248367E0
3.079876454E1,6.184756756E0,-7.009863377E0,-2.963274717E0
3.081895495E1,6.072178364E0,-7.236251831E0,-2.633571625E0
3.083914610E1,5.873662472E0,-7.445543766E0,-2.496871471E0
3.085933782E1,5.736699104E0,-7.589329243E0,-2.379654408E0
3.087952995E1,5.606342316E0,-7.731365681E0,-2.228297472E0
3.089972235E1,5.396953106E0,-7.923327446E0,-2.064987183E0
3.091992027E1,5.105190754E0,-8.160665512E0,-1.873754263E0
3.094011126E1,4.785297871E0,-8.391693115E0,-1.688431501E0
3.096029006E1,4.463345528E0,-8.599180222E0,-1.517571568E0
3.098046938E1,4.165475368E0,-8.769958496E0,-1.380956411E0
3.100064959E1,3.907034874E0,-8.899529457E0,-1.305307388E0
3.102083094E1,3.677964211E0,-9.004411697E0,-1.250415802E0
3.104101365E1,3.477319717E0,-9.095697403E0,-1.160566330E0
3.106119792E1,3.299602270E0,-9.177480698E0,-1.028037548E0
3.108138386E1,3.142714262E0,-9.244414330E0,-9.135250449E-1
3.110157146E1,3.016870260E0,-9.292534828E0,-8.471589088E-1
3.112176074E1,2.940977573E0,-9.321557999E0,-7.934650779E-1
3.114195157E1,2.918986797E0,-9.333827972E0,-7.277135849E-1
3.116214376E1,2.934790134E0,-9.333493233E0,-6.658011079E-1
3.118233709E1,2.975225925E0,-9.323121071E0,-6.307481527E-1
3.120253136E1,3.042662621E0,-9.303112984E0,-6.038942337E-1
3.122272631E1,3.119452238E0,-9.279600143E0,-5.730969310E-1
3.124292162E1,3.170972586E0,-9.264315605E0,-5.364556313E-1
3.126311683E1,3.181440830E0,-9.263170242E0,-4.924381077E-1
3.128330850E1,3.145950556E0,-9.278728485E0,-4.225854278E-1
3.130349412E1,3.066719532E0,-9.310009956E0,-2.988594174E-1
3.132367725E1,2.969177961E0,-9.344907761E0,-1.644922644E-1
3.134386084E1,2.873128653E0,-9.376315117E0,-1.452301256E-2
3.136404506E1,2.784674406E0,-9.402255058E0,1.165053770E-1
3.138423006E1,2.726497173E0,-9.418130875E0,1.881873310E-1
3.140441594E1,2.721481323E0,-9.419871330E0,1.730465293E-1
3.142460277E1,2.774503231E0,-9.405517578E0,9.365408868E-2
3.144479053E1,2.874815702E0,-9.375683784E0,-4.862402752E-2
3.146497922E1,3.045448303E0,-9.318059921E0,-2.634312809E-1
3.148516881E1,3.285109758E0,-9.224812508E0,-5.303491950E-1
3.150535922E1,3.536618471E0,-9.119922638E0,-6.998107433E-1
3.152555037E1,3.782368183E0,-9.009300232E0,-8.346194625E-1
3.154574209E1,4.009060383E0,-8.896444321E0,-9.752416611E-1
3.156593422E1,4.172031879E0,-8.812115669E0,-1.054115653E0
3.158612662E1,4.267719746E0,-8.756342888E0,-1.132884383E0
3.160632454E1,4.347067833E0,-8.688623428E0,-1.334617734E0
3.162651547E1,4.455942154E0,-8.596158981E0,-1.555958748E0
3.164669417E1,4.683875561E0,-8.421832085E0,-1.817809224E0
3.166687339E1,4.979895592E0,-8.197973251E0,-2.040652037E0
3.168705350E1,5.246363640E0,-7.973946571E0,-2.249939442E0
3.170723474E1,5.494649410E0,-7.734467983E0,-2.481375933E0
3.172741740E1,5.745437622E0,-7.484331131E0,-2.673037291E0
3.174760167E1,5.964663029E0,-7.242769718E0,-2.852276802E0
3.176778761E1,6.114573002E0,-7.017557621E0,-3.088086605E0
3.178797521E1,6.174603462E0,-6.842978954E0,-3.349372625E0
3.180816449E1,6.135520935E0,-6.762895584E0,-3.576172829E0
3.182835532E1,6.041249275E0,-6.761949539E0,-3.734934330E0
3.184854756E1,5.928884029E0,-6.817665577E0,-3.812894106E0
3.186874100E1,5.779941559E0,-6.932234764E0,-3.834942102E0
3.188893537E1,5.623758316E0,-7.071487904E0,-3.812845469E0
3.190913042E1,5.578423023E0,-7.212071419E0,-3.610763550E0
3.192932584E1,5.610616684E0,-7.456365585E0,-3.015622139E0
3.194952105E1,5.516761780E0,-7.672896385E0,-2.619614840E0
3.196971266E1,5.310173512E0,-7.814181805E0,-2.628878832E0
3.198989829E1,5.138521671E0,-7.929982185E0,-2.623237848E0
3.201008141E1,4.930603981E0,-8.101039886E0,-2.496534586E0
3.203026501E1,4.660859108E0,-8.308730125E0,-2.326325417E0
3.205044922E1,4.375161648E0,-8.514442444E0,-2.128990173E0
3.207063422E1,4.132162571E0,-8.677433968E0,-1.948783875E0
3.209082011E1,3.940173149E0,-8.793004036E0,-1.824422359E0
3.211100693E1,3.747380257E0,-8.894161224E0,-1.738219142E0
3.213119469E1,3.549227953E0,-8.997710228E0,-1.616964698E0
3.215138339E1,3.358084202E0,-9.101943970E0,-1.431179166E0
3.217157297E1,3.180641413E0,-9.191619873E0,-1.252218723E0
3.219176339E1,3.033671141E0,-9.256507874E0,-1.133264065E0
3.221195454E1,2.939408541E0,-9.297125816E0,-1.045815229E0
3.223214626E1,2.895272017E0,-9.321287155E0,-9.494196177E-1
3.225233839E1,2.887861729E0,-9.333371162E0,-8.478367925E-1
3.227253079E1,2.910940647E0,-9.332670212E0,-7.733610868E-1
3.229272870E1,2.960216761E0,-9.321294785E0,-7.217758894E-1
3.231291964E1,3.016937733E0,-9.307033539E0,-6.690275669E-1
3.233309834E1,3.068215370E0,-9.294242859E0,-6.111238003E-1
3.235327756E1,3.111880779E0,-9.282465935E0,-5.678210855E-1
3.237345766E1,3.137298107E0,-9.276449203E0,-5.246273875E-1
3.239363891E1,3.125284195E0,-9.284035683E0,-4.579010010E-1
3.241382152E1,3.070978642E0,-9.306424141E0,-3.604991734E-1
3.243400568E1,2.992921114E0,-9.335957527E0,-2.295919210E-1
3.245419152E1,2.911579370E0,-9.364253044E0,-6.205479056E-2
3.247437902E1,2.844598293E0,-9.384321213E0,1.146798581E-1
3.249456818E1,2.813649416E0,-9.390931129E0,2.533118129E-1
3.251475896E1,2.817114830E0,-9.386452675E0,3.588379025E-1
3.253495120E1,2.835853338E0,-9.378261566E0,4.201696813E-1
3.255514464E1,2.852183580E0,-9.372602463E0,4.356100857E-1
3.257533902E1,2.920339584E0,-9.355166435E0,3.505083025E-1
3.259553407E1,3.080355167E0,-9.309150696E0,1.466934979E-1
3.261572948E1,3.295114994E0,-9.235887527E0,-1.048047543E-1
3.263592485E1,3.528031349E0,-9.143585205E0,-3.438618779E-1
3.265611667E1,3.761504889E0,-9.038562775E0,-5.708144307E-1
3.267630506E1,3.994127035E0,-8.923521042E0,-7.668903470E-1
3.269649068E1,4.190044880E0,-8.824193954E0,-8.645898104E-1
3.271667381E1,4.286564350E0,-8.775895119E0,-8.828340173E-1
3.273685740E1,4.329691887E0,-8.733576775E0,-1.071818471E0
3.275704162E1,4.391661644E0,-8.642437935E0,-1.480527282E0
3.277722662E1,4.487221241E0,-8.548649788E0,-1.719247818E0
3.279741251E1,4.665960789E0,-8.405883789E0,-1.933994532E0
3.281759933E1,4.936118126E0,-8.164933205E0,-2.266933918E0
3.283778709E1,5.198126793E0,-7.890428543E0,-2.625071287E0
3.285797579E1,5.407810211E0,-7.636960030E0,-2.933054686E0
3.287816537E1,5.582524776E0,-7.394768715E0,-3.212974310E0
3.289835574E1,5.749899864E0,-7.148036480E0,-3.466211557E0
3.291854678E1,5.884485245E0,-6.905640125E0,-3.722278595E0
3.293873839E1,5.933643818E0,-6.712689400E0,-3.987738609E0
3.295893042E1,5.898702145E0,-6.609578133E0,-4.205850124E0
3.297912271E1,5.818171024E0,-6.584538460E0,-4.354666233E0
3.299932053E1,5.729121685E0,-6.612426281E0,-4.429828644E0
3.301951162E1,5.641114235E0,-6.684113979E0,-4.435182095E0
3.303969074E1,5.551681995E0,-6.776506424E0,-4.407740593E0
3.305987032E1,5.473223209E0,-6.827302456E0,-4.427431107E0
3.308005068E1,5.573300838E0,-6.778191566E0,-4.377762794E0
3.310023214E1,5.837613106E0,-6.831938267E0,-3.926483631E0
3.312041495E1,5.930781364E0,-6.986222744E0,-3.491262197E0
3.314059928E1,5.766355038E0,-7.149443150E0,-3.435841322E0
3.316078521E1,5.638526917E0,-7.279290676E0,-3.374809027E0
3.318097282E1,5.551120758E0,-7.427339554E0,-3.192189217E0
3.320116204E1,5.426694393E0,-7.628494263E0,-2.920178175E0
3.322135277E1,5.253200054E0,-7.846854687E0,-2.645968199E0
3.324154485E1,5.046193600E0,-8.032360077E0,-2.487470865E0
3.326173808E1,4.829535961E0,-8.194743156E0,-2.385821342E0
3.328193224E1,4.617350578E0,-8.357984543E0,-2.234845877E0
3.330212709E1,4.391912937E0,-8.529221535E0,-2.033188343E0
3.332232230E1,4.140429020E0,-8.700907707E0,-1.822481275E0
3.334251724E1,3.883597851E0,-8.857212067E0,-1.624141812E0
3.336270870E1,3.645878315E0,-8.987400055E0,-1.450723886E0
3.338289433E1,3.433197737E0,-9.092474937E0,-1.307839870E0
3.340307745E1,3.232533932E0,-9.183291435E0,-1.178251147E0
3.342326105E1,3.051916838E0,-9.261948586E0,-1.035611868E0
3.344344527E1,2.923215151E0,-9.318574905E0,-8.884622455E-1
3.346363027E1,2.853949308E0,-9.350401878E0,-7.715921998E-1
3.348381615E1,2.833515406E0,-9.363565445E0,-6.820659041E-1
3.350400297E1,2.849584818E0,-9.364439964E0,-5.979347229E-1
3.352419074E1,2.894152403E0,-9.355899811E0,-5.112819672E-1
3.354437943E1,2.970679522E0,-9.336592674E0,-4.165171683E-1
3.356456902E1,3.048373461E0,-9.314791679E0,-3.353784978E-1
3.358475938E1,3.089968204E0,-9.302411079E0,-2.960329652E-1
3.360495042E1,3.102262497E0,-9.299410820E0,-2.594819069E-1
3.362514204E1,3.083567619E0,-9.306638718E0,-2.201322615E-1
3.364533407E1,3.022068501E0,-9.327809334E0,-1.716697514E-1
3.366552636E1,2.935578346E0,-9.356409073E0,-1.017720178E-1
3.368572417E1,2.849427223E0,-9.383552551E0,-9.067398496E-3
3.370591521E1,2.765146732E0,-9.408231735E0,9.763994813E-2
3.372609422E1,2.692605257E0,-9.427089691E0,2.241382748E-1
3.374627376E1,2.635298967E0,-9.439002991E0,3.616745174E-1
3.376645417E1,2.611363888E0,-9.442823410E0,4.292482138E-1
3.378663574E1,2.652744532E0,-9.431920052E0,4.149859548E-1
3.380681865E1,2.719395876E0,-9.412722588E0,4.194582701E-1
3.382700308E1,2.773965836E0,-9.395767212E0,4.416522384E-1
3.384718912E1,2.831946850E0,-9.382714272E0,3.393222988E-1
3.386737683E1,2.979067564E0,-9.342958450E0,6.830905378E-2
3.388756615E1,3.202970505E0,-9.265664101E0,-2.425670624E-1
3.390775698E1,3.434912443E0,-9.172402382E0,-4.886946380E-1
3.392794917E1,3.658302784E0,-9.073060989E0,-6.832023263E-1
3.394814250E1,3.895921707E0,-8.960304260E0,-8.397154808E-1
3.396833672E1,4.135638714E0,-8.845658302E0,-9.062060714E-1
3.398853152E1,4.306755543E0,-8.767441750E0,-8.684573174E-1
3.400872662E1,4.388245583E0,-8.723928452E0,-8.981946707E-1
3.402892115E1,4.464783669E0,-8.646065712E0,-1.217225671E0
3.404911224E1,4.549053669E0,-8.561591148E0,-1.475008488E0
3.406929787E1,4.720722675E0,-8.437579155E0,-1.640857458E0
3.408948100E1,5.050785065E0,-8.197676659E0,-1.859581351E0
3.410966459E1,5.404666424E0,-7.887525082E0,-2.178743362E0
3.412984881E1,5.629918575E0,-7.643378735E0,-2.460316658E0
3.415003381E1,5.765512943E0,-7.443199158E0,-2.743726254E0
3.417021969E1,5.939707756E0,-7.190308571E0,-3.031457424E0
3.419040652E1,6.132610321E0,-6.899115086E0,-3.311145067E0
3.421059428E1,6.237975121E0,-6.656775951E0,-3.597968578E0
3.423078297E1,6.257685661E0,-6.495903015E0,-3.849026442E0
3.425097256E1,6.229632854E0,-6.425912857E0,-4.008703232E0
3.427116292E1,6.155804634E0,-6.449484825E0,-4.084188938E0
3.429135396E1,6.053028107E0,-6.542408943E0,-4.090003014E0
3.431154558E1,5.926763058E0,-6.676179886E0,-4.058630943E0
3.433173761E1,5.833068371E0,-6.755121231E0,-4.063746452E0
3.435192990E1,6.014357567E0,-6.711042881E0,-3.867789030E0
3.437212771E1,6.079357624E0,-6.890030861E0,-3.426264524E0
3.439231865E1,5.811680317E0,-7.168057442E0,-3.318692684E0
3.441249745E1,5.578065872E0,-7.409747601E0,-3.186097860E0
3.443267678E1,5.494244099E0,-7.576632500E0,-2.928875208E0
3.445285699E1,5.324976444E0,-7.770399094E0,-2.726884604E0
3.447303834E1,5.119972706E0,-7.983173370E0,-2.495036364E0
3.449322105E1,4.908087730E0,-8.182329178E0,-2.265067577E0
3.451340532E1,4.648346901E0,-8.389154434E0,-2.045810938E0
3.453359126E1,4.358466148E0,-8.591118813E0,-1.834891915E0
3.455377886E1,4.070275307E0,-8.766403198E0,-1.659341574E0
3.457396808E1,3.816607952E0,-8.907209396E0,-1.505159259E0
3.459415881E1,3.619448662E0,-9.016669273E0,-1.330283523E0
3.461435089E1,3.465227842E0,-9.105040550E0,-1.122861505E0
3.463454412E1,3.325293064E0,-9.176403046E0,-9.520701170E-1
3.465473829E1,3.214235783E0,-9.228869438E0,-8.167325258E-1
3.467493313E1,3.138979197E0,-9.268162727E0,-6.468225718E-1
3.469512834E1,3.064852715E0,-9.303858757E0,-4.639877677E-1
3.471532355E1,3.011445522E0,-9.326596260E0,-3.408553302E-1
3.473551527E1,3.018831730E0,-9.326931953E0,-2.557082772E-1
3.475570089E1,3.075491428E0,-9.310068130E0,-1.853929311E-1
3.477588402E1,3.155064344E0,-9.284727097E0,-9.896671027E-2
3.479606761E1,3.230966806E0,-9.259067535E0,3.043521568E-2
3.481625183E1,3.255742550E0,-9.248413086E0,1.933261752E-1
3.483643683E1,3.196537018E0,-9.264550209E0,3.473517299E-1
3.485662271E1,3.069568872E0,-9.301678658E0,4.763322175E-1
3.487680954E1,2.906572819E0,-9.349445343E0,5.568404198E-1
3.489699730E1,2.754563093E0,-9.391414642E0,6.197538972E-1
3.491718600E1,2.646676779E0,-9.415114403E0,7.218743563E-1
3.493737558E1,2.585531235E0,-9.421710014E0,8.466387987E-1
3.495756594E1,2.570861578E0,-9.415194511E0,9.566480517E-1
3.497775698E1,2.600883007E0,-9.404246330E0,9.828208685E-1
3.499794860E1,2.644870758E0,-9.399897575E0,9.038724899E-1
3.501814063E1,2.705834866E0,-9.390763283E0,8.138904572E-1
3.503833292E1,2.833651543E0,-9.354970932E0,7.907795310E-1
3.505853074E1,3.016369820E0,-9.295444489E0,8.164671659E-1
3.507872162E1,3.194138050E0,-9.247179985E0,6.764096618E-1
3.509890032E1,3.375325203E0,-9.197721481E0,4.236385226E-1
3.511907954E1,3.565300703E0,-9.134502411E0,1.409868449E-1
3.513925964E1,3.744887590E0,-9.062092781E0,-1.571458727E-1
3.515944089E1,3.916804552E0,-8.979754448E0,-4.393574595E-1
3.517962350E1,4.108027458E0,-8.878733635E0,-6.801393032E-1
3.519980766E1,4.309206963E0,-8.759156227E0,-9.371775389E-1
3.521999350E1,4.453860760E0,-8.666988373E0,-1.103093624E0
3.524018100E1,4.524369717E0,-8.618906975E0,-1.189502239E0
3.526037016E1,4.554984093E0,-8.586518288E0,-1.301621675E0
3.528056089E1,4.576795101E0,-8.562882423E0,-1.378540039E0
3.530075303E1,4.575846195E0,-8.554721832E0,-1.431339145E0
3.532094636E1,4.559562683E0,-8.541134834E0,-1.558775544E0
3.534114063E1,4.562826157E0,-8.500658989E0,-1.757782459E0
3.536133558E1,4.608423710E0,-8.438924789E0,-1.928047657E0
3.538153089E1,4.665555000E0,-8.380240440E0,-2.043171406E0
3.540172626E1,4.677419186E0,-8.344229698E0,-2.160086393E0
3.542191808E1,4.649508476E0,-8.322485924E0,-2.299711466E0
3.544210370E1,4.589588165E0,-8.313956261E0,-2.446262598E0
3.546228683E1,4.482462883E0,-8.337367058E0,-2.562466621E0
3.548247042E1,4.325643063E0,-8.409503937E0,-2.596043587E0
3.550265464E1,4.109279156E0,-8.544110298E0,-2.506471634E0
3.552283964E1,3.831490993E0,-8.730706215E0,-2.294524431E0
3.554302553E1,3.529046059E0,-8.930778503E0,-1.989325643E0
3.556321235E1,3.265196323E0,-9.085727692E0,-1.720011234E0
3.558340011E1,3.146597385E0,-9.152909279E0,-1.579103351E0
3.560358881E1,3.321641684E0,-9.098261833E0,-1.535810709E0
3.562377839E1,3.615504742E0,-8.999529839E0,-1.451543093E0
3.564396876E1,3.937068701E0,-8.890860558E0,-1.273761988E0
3.566415980E1,4.278481960E0,-8.762691498E0,-1.039340854E0
3.568435141E1,4.471726894E0,-8.681180000E0,-9.006392956E-1
3.570454344E1,4.481146812E0,-8.675552368E0,-9.080152512E-1
3.572473574E1,4.429578781E0,-8.694979668E0,-9.729052782E-1
3.574493355E1,4.355119228E0,-8.723507881E0,-1.050587654E0
3.576512433E1,4.267533779E0,-8.755784035E0,-1.137885928E0
3.578530282E1,4.195824623E0,-8.779308319E0,-1.220326900E0
3.580548183E1,4.155604839E0,-8.791223526E0,-1.271107793E0
3.582566172E1,4.158609867E0,-8.796723366E0,-1.222292185E0
3.584584282E1,4.150735855E0,-8.829784393E0,-9.882721305E-1
3.586602537E1,4.052610397E0,-8.905937195E0,-6.565282941E-1
3.588620954E1,3.913910866E0,-8.985805511E0,-3.270502687E-1
3.590639542E1,3.797604799E0,-9.041324615E0,-5.503558740E-2
3.592658308E1,3.734601736E0,-9.067142487E0,1.002896726E-1
3.594677245E1,3.739220858E0,-9.064967155E0,1.223240048E-1
3.596696339E1,3.766345263E0,-9.053215027E0,1.559569538E-1
3.598715574E1,3.779505253E0,-9.046476364E0,2.167969793E-1
3.600734928E1,3.766726017E0,-9.049653053E0,2.931430042E-1
3.602754376E1,3.733085871E0,-9.059289932E0,4.046299756E-1
3.604773891E1,3.705387831E0,-9.065052986E0,5.150694847E-1
3.606793443E1,3.680967569E0,-9.069647789E0,6.019532681E-1
3.608812933E1,3.648651361E0,-9.077962875E0,6.695610285E-1
3.610832058E1,3.624759912E0,-9.082866669E0,7.301001549E-1
3.612850620E1,3.621310949E0,-9.079070091E0,7.918117642E-1
3.614868933E1,3.619840145E0,-9.072809219E0,8.667601347E-1
3.616887292E1,3.608036995E0,-9.069322586E0,9.486010075E-1
3.618905714E1,3.578147650E0,-9.072970390E0,1.023942351E0
3.620924214E1,3.531247616E0,-9.085757256E0,1.072236776E0
3.622942803E1,3.471721172E0,-9.107441902E0,1.082598448E0
3.624961485E1,3.424558640E0,-9.128664970E0,1.053687215E0
3.626980261E1,3.418250084E0,-9.135030746E0,1.018416405E0
3.628999131E1,3.456020355E0,-9.121321678E0,1.013794303E0
3.631018089E1,3.517682076E0,-9.094980240E0,1.038086653E0
3.633037126E1,3.585422039E0,-9.062454224E0,1.089519143E0
3.635056230E1,3.661356211E0,-9.027873993E0,1.123546958E0
3.637075391E1,3.773362398E0,-8.994846344E0,1.012361169E0
3.639094594E1,3.948665619E0,-8.945703506E0,7.435217500E-1
3.641113818E1,4.165317059E0,-8.867605209E0,4.313936830E-1
3.643133589E1,4.381718159E0,-8.772667885E0,1.059376001E-1
3.645152667E1,4.574386120E0,-8.669699669E0,-2.857761979E-1
3.647170527E1,4.746035576E0,-8.546600342E0,-7.753494978E-1
3.649188438E1,4.897100449E0,-8.428221703E0,-1.074177980E0
3.651206438E1,5.015096188E0,-8.341776848E0,-1.197481751E0
3.653224558E1,5.098552227E0,-8.273672104E0,-1.312066078E0
3.655242824E1,5.136854649E0,-8.212306976E0,-1.530071259E0
3.657261250E1,5.135606289E0,-8.159359932E0,-1.794655681E0
3.659279844E1,5.130426884E0,-8.129929543E0,-1.937354565E0
3.661298605E1,5.187013626E0,-8.059310913E0,-2.076727629E0
3.663317532E1,5.308840752E0,-7.919884682E0,-2.293912172E0
3.665336615E1,5.384453297E0,-7.808032990E0,-2.492523432E0
3.667355834E1,5.371659756E0,-7.760887146E0,-2.661631823E0
3.669375167E1,5.312439442E0,-7.737856388E0,-2.841471434E0
3.671394594E1,5.243945122E0,-7.721360683E0,-3.008655548E0
3.673414089E1,5.158870697E0,-7.722682953E0,-3.149062872E0
3.675433620E1,5.028826237E0,-7.763039112E0,-3.258300543E0
3.677453136E1,4.840727329E0,-7.863936424E0,-3.300945520E0
3.679472292E1,4.625638485E0,-8.017212868E0,-3.240086555E0
3.681490844E1,4.470681667E0,-8.163802147E0,-3.087996721E0
3.683509146E1,4.492104530E0,-8.176600456E0,-3.022347927E0
3.685527500E1,4.718792439E0,-8.007328987E0,-3.128268242E0
3.687545922E1,5.061645508E0,-7.806757450E0,-3.099142551E0
3.689564422E1,5.259314060E0,-7.781531334E0,-2.820955515E0
3.691583011E1,5.242037773E0,-7.888032436E0,-2.543693066E0
3.693601693E1,5.108651161E0,-8.020248413E0,-2.397434235E0
3.695620469E1,4.933449268E0,-8.115202904E0,-2.444367886E0
3.697639339E1,4.829610825E0,-8.177053452E0,-2.445617437E0
3.699658297E1,4.733582497E0,-8.232616425E0,-2.446956635E0
3.701677334E1,4.640520573E0,-8.294594765E0,-2.415708065E0
3.703696438E1,4.589300632E0,-8.366788864E0,-2.259545088E0
3.705715600E1,4.558399677E0,-8.453033447E0,-1.984339833E0
3.707734803E1,4.515120506E0,-8.536310196E0,-1.707479835E0
3.709754032E1,4.459871292E0,-8.615385056E0,-1.433550119E0
3.711773813E1,4.385850906E0,-8.695946693E0,-1.146834493E0
3.713792896E1,4.292414188E0,-8.770555496E0,-9.071507454E-1
3.715810756E1,4.193956852E0,-8.833813667E0,-7.381350994E-1
3.717828667E1,4.098180294E0,-8.888590813E0,-6.068344712E-1
3.719846667E1,4.003204346E0,-8.938236237E0,-5.026660562E-1
3.721864787E1,3.917500257E0,-8.981164932E0,-4.027982652E-1
3.723883053E1,3.843550444E0,-9.017819405E0,-2.764844894E-1
3.725901480E1,3.794271946E0,-9.042233467E0,-1.090524495E-1
3.727920074E1,3.770887375E0,-9.052165031E0,9.541152418E-2
3.729938834E1,3.719146967E0,-9.071099281E0,2.312740982E-1
3.731957761E1,3.607955456E0,-9.114911079E0,2.673110664E-1
3.733976844E1,3.474591017E0,-9.165432930E0,3.040560484E-1
3.735996063E1,3.356732368E0,-9.207520485E0,3.525542617E-1
3.738015396E1,3.287705660E0,-9.230795860E0,3.921571672E-1
3.740034824E1,3.267652750E0,-9.236034393E0,4.341731966E-1
3.742054318E1,3.271394968E0,-9.231601715E0,4.958650768E-1
3.744073850E1,3.257692337E0,-9.232956886E0,5.570717454E-1
3.746093360E1,3.210515976E0,-9.248625755E0,5.708838105E-1
3.748112516E1,3.185307980E0,-9.260256767E0,5.213956833E-1
3.750131344E1,3.218533278E0,-9.254447937E0,4.081954062E-1
3.752149896E1,3.296607256E0,-9.232810020E0,2.408160269E-1
3.754168199E1,3.431810141E0,-9.186540604E0,2.349071391E-2
3.756186553E1,3.597647429E0,-9.119739532E0,-2.401434183E-1
3.758204974E1,3.805043936E0,-9.023897171E0,-5.111703277E-1
3.760223475E1,4.059262753E0,-8.898380280E0,-7.152652740E-1
3.762242063E1,4.285657406E0,-8.780342102E0,-8.420888782E-1
3.764260745E1,4.419349670E0,-8.698686600E0,-9.862018824E-1
3.766279521E1,4.504207134E0,-8.634866714E0,-1.149596572E0
3.768298391E1,4.588074684E0,-8.571528435E0,-1.284080386E0
3.770317350E1,4.667272568E0,-8.514703751E0,-1.373601079E0
3.772336386E1,4.717747211E0,-8.477161407E0,-1.432124376E0
3.774355490E1,4.750156879E0,-8.445451736E0,-1.510210872E0
3.776374652E1,4.841746807E0,-8.354994774E0,-1.709370732E0
3.778393855E1,5.093437195E0,-8.129725456E0,-2.033431530E0
3.780413084E1,5.439978600E0,-7.827319622E0,-2.304364681E0
3.782432865E1,5.732971668E0,-7.570335388E0,-2.448150635E0
3.784451948E1,5.967782974E0,-7.337242603E0,-2.592455149E0
3.786469808E1,6.160783291E0,-7.101625919E0,-2.789629698E0
3.788487719E1,6.334001541E0,-6.877389431E0,-2.958431244E0
3.790505719E1,6.469366550E0,-6.670594692E0,-3.133824587E0
3.792523839E1,6.534541607E0,-6.491245747E0,-3.366583347E0
3.794542105E1,6.546085358E0,-6.362819195E0,-3.582412243E0
3.796560532E1,6.531154156E0,-6.294981003E0,-3.726611853E0
3.798579126E1,6.498188972E0,-6.268978119E0,-3.826725721E0
3.800597886E1,6.474915981E0,-6.278720379E0,-3.850131750E0
3.802616813E1,6.461695194E0,-6.335124016E0,-3.779295921E0
3.804635896E1,6.420079708E0,-6.454263687E0,-3.646291256E0
3.806655115E1,6.312530518E0,-6.614316463E0,-3.545866966E0
3.808674449E1,6.227711201E0,-6.692836285E0,-3.548514366E0
3.810693876E1,6.333642006E0,-6.699118137E0,-3.343230009E0
3.812713370E1,6.415309906E0,-6.836418629E0,-2.877078772E0
3.814732902E1,6.195684910E0,-7.072258949E0,-2.786940575E0
3.816752412E1,5.861213207E0,-7.336765289E0,-2.826384306E0
3.818771568E1,5.653980255E0,-7.559528351E0,-2.656393290E0
3.820790396E1,5.485768795E0,-7.775386810E0,-2.370673656E0
3.822808949E1,5.260908127E0,-8.007635117E0,-2.090693474E0
3.824827250E1,5.029427052E0,-8.206639290E0,-1.877848506E0
3.826845605E1,4.814435959E0,-8.365743637E0,-1.733760834E0
3.828864027E1,4.589758873E0,-8.510142326E0,-1.637670755E0
3.830882527E1,4.363143921E0,-8.644021988E0,-1.553789258E0
3.832901115E1,4.149583817E0,-8.767834663E0,-1.440977693E0
3.834919797E1,3.959549665E0,-8.877798080E0,-1.295015693E0
3.836938574E1,3.800344467E0,-8.967186928E0,-1.147747874E0
3.838957443E1,3.675424576E0,-9.037165642E0,-9.956230521E-1
3.840976402E1,3.575350285E0,-9.092507362E0,-8.447237611E-1
3.842995438E1,3.488224030E0,-9.135832787E0,-7.343266606E-1
3.845014542E1,3.413965464E0,-9.168459892E0,-6.742185354E-1
3.847033704E1,3.360221148E0,-9.191525459E0,-6.286235452E-1
3.849052907E1,3.329335451E0,-9.206389427E0,-5.729793310E-1
3.851072136E1,3.331762075E0,-9.210096359E0,-4.938243628E-1
3.853091917E1,3.356661320E0,-9.206436157E0,-3.804424405E-1
3.855111001E1,3.371104956E0,-9.204630852E0,-2.842750847E-1
3.857128860E1,3.364662886E0,-9.207504272E0,-2.669935822E-1
3.859146771E1,3.360502720E0,-9.209053993E0,-2.659377456E-1
3.861164771E1,3.356238604E0,-9.211679459E0,-2.258419544E-1
3.863182891E1,3.337589741E0,-9.219920158E0,-1.547475010E-1
3.865201152E1,3.307761431E0,-9.231736183E0,-6.426993012E-2
3.867219568E1,3.260459423E0,-9.248692513E0,3.819809482E-2
3.869238152E1,3.189997196E0,-9.272257805E0,1.397473663E-1
3.871256902E1,3.109861612E0,-9.297675133E0,2.288784385E-1
3.873275818E1,3.049104929E0,-9.317027092E0,2.575740218E-1
3.875294896E1,3.036567211E0,-9.321852684E0,2.295649797E-1
3.877314120E1,3.060767174E0,-9.314470291E0,2.067193538E-1
3.879333464E1,3.103342295E0,-9.299693108E0,2.352897376E-1
3.881352902E1,3.145617247E0,-9.285000801E0,2.534666061E-1
3.883372407E1,3.173267126E0,-9.278148651E0,1.293335259E-1
3.885391949E1,3.288562536E0,-9.238109589E0,-1.144479215E-1
3.887411464E1,3.474831343E0,-9.163578987E0,-3.532001674E-1
3.889430615E1,3.670822382E0,-9.077487946E0,-5.428339839E-1
3.891449167E1,3.888116598E0,-8.973383904E0,-7.289214134E-1
3.893467469E1,4.132996559E0,-8.848590851E0,-8.894726038E-1
3.895485824E1,4.358878136E0,-8.736046791E0,-9.230641127E-1
3.897504245E1,4.517899990E0,-8.667370796E0,-7.972744107E-1
3.899522745E1,4.648627281E0,-8.593807220E0,-8.409135938E-1
3.901541334E1,4.784332275E0,-8.495763779E0,-1.050026536E0
3.903560016E1,4.935836792E0,-8.384214401E0,-1.229975820E0
3.905578792E1,5.172134399E0,-8.201781273E0,-1.466363072E0
3.907597662E1,5.498543262E0,-7.926500320E0,-1.762666225E0
3.909616620E1,5.778532505E0,-7.654054642E0,-2.048027039E0
3.911635657E1,5.967676163E0,-7.427570820E0,-2.321297407E0
3.913654761E1,6.112533092E0,-7.223137379E0,-2.575582027E0
3.915673922E1,6.240163803E0,-7.017368793E0,-2.826177835E0
3.917693126E1,6.345850468E0,-6.802018166E0,-3.103725672E0
3.919712355E1,6.414060593E0,-6.605577469E0,-3.375877857E0
3.921732136E1,6.432472706E0,-6.482182980E0,-3.574210882E0
3.923751214E1,6.416221619E0,-6.442833900E0,-3.673196316E0
3.925769063E1,6.378477573E0,-6.466648579E0,-3.697007179E0
3.927786964E1,6.282671452E0,-6.556397438E0,-3.702983141E0
3.929804954E1,6.118347645E0,-6.731139660E0,-3.664420128E0
3.931823063E1,5.958242893E0,-6.900094032E0,-3.613647461E0
3.933841318E1,6.002835751E0,-6.963133812E0,-3.413374424E0
3.935859735E1,6.083595276E0,-7.085843563E0,-2.991837263E0
3.937878324E1,5.906786442E0,-7.278571606E0,-2.881431580E0
3.939897089E1,5.607035160E0,-7.502065182E0,-2.906982660E0
3.941916027E1,5.357621670E0,-7.715134621E0,-2.818329096E0
3.943935120E1,5.095870972E0,-7.954257488E0,-2.632921934E0
3.945954355E1,4.818262577E0,-8.194622993E0,-2.408917427E0
3.947973709E1,4.605806828E0,-8.373360634E0,-2.200857401E0
3.949993157E1,4.459924698E0,-8.492337227E0,-2.039523840E0
3.952012672E1,4.311168194E0,-8.601466179E0,-1.897100329E0
3.954032225E1,4.112793446E0,-8.725284576E0,-1.767690539E0
3.956051704E1,3.878250360E0,-8.857249260E0,-1.636675596E0
3.958070813E1,3.646707296E0,-8.981283188E0,-1.486093283E0
3.960089365E1,3.450838566E0,-9.083705902E0,-1.322270155E0
3.962107667E1,3.289601326E0,-9.160642624E0,-1.196468115E0
3.964126021E1,3.162508965E0,-9.217379570E0,-1.099470019E0
3.966144443E1,3.065596819E0,-9.263592720E0,-9.789578319E-1
3.968162943E1,2.982264042E0,-9.304558754E0,-8.376528621E-1
3.970181532E1,2.915302753E0,-9.336091995E0,-7.132871151E-1
3.972200214E1,2.884799004E0,-9.353168488E0,-6.054501534E-1
3.974218990E1,2.901842117E0,-9.353285789E0,-5.154893398E-1
3.976237860E1,2.957121611E0,-9.339247704E0,-4.519562721E-1
3.978256818E1,3.033376694E0,-9.317031860E0,-4.023957849E-1
3.980275855E1,3.111346245E0,-9.293608665E0,-3.445959091E-1
3.982294959E1,3.176241398E0,-9.273488045E0,-2.903512120E-1
3.984314120E1,3.217711449E0,-9.260242462E0,-2.542198598E-1
3.986333324E1,3.238503218E0,-9.254419327E0,-1.954964399E-1
3.988352547E1,3.224379778E0,-9.260687828E0,-1.159240156E-1
3.990372318E1,3.166963339E0,-9.281099319E0,-4.386891797E-2
3.992391396E1,3.089286089E0,-9.307304382E0,2.780674770E-2
3.994409256E1,3.022537231E0,-9.328403473E0,1.246824637E-1
3.996427167E1,2.976290703E0,-9.341692924E0,2.118109763E-1
3.998445167E1,2.963124275E0,-9.345082283E0,2.443736196E-1
4.000463287E1,2.989314795E0,-9.335604668E0,2.843684852E-1
4.002481547E1,3.025304794E0,-9.321861267E0,3.475678563E-1
4.004499964E1,3.065797567E0,-9.309222221E0,3.311298490E-1
4.006518547E1,3.156927586E0,-9.282912254E0,1.781373769E-1
4.008537297E1,3.358021498E0,-9.213375092E0,-8.828920871E-2
4.010556214E1,3.622318268E0,-9.108506203E0,-2.903759181E-1
4.012575287E1,3.881432533E0,-8.995841980E0,-4.238885343E-1
4.014594500E1,4.147955894E0,-8.868900299E0,-5.545008183E-1
4.016613834E1,4.395781517E0,-8.743288994E0,-6.343395114E-1
4.018633261E1,4.562790394E0,-8.655947685E0,-6.526192427E-1
4.020652756E1,4.652788162E0,-8.596381187E0,-7.900447845E-1
4.022672287E1,4.711379528E0,-8.527267456E0,-1.122050643E0
4.024691818E1,4.791112423E0,-8.443186760E0,-1.388607264E0
4.026710995E1,5.017707825E0,-8.270457268E0,-1.610132575E0
4.028729824E1,5.349486828E0,-8.010502815E0,-1.839896917E0
4.030748376E1,5.585546017E0,-7.775272846E0,-2.125369310E0
4.032766678E1,5.746923923E0,-7.557233810E0,-2.455905676E0
4.034785032E1,5.930774212E0,-7.309353352E0,-2.751301289E0
4.036803454E1,6.095893860E0,-7.066421509E0,-3.012664557E0
4.038821954E1,6.188041687E0,-6.871149540E0,-3.265857697E0
4.040840542E1,6.232624054E0,-6.717947483E0,-3.491985798E0
4.042859225E1,6.233396530E0,-6.629987240E0,-3.654920101E0
4.044878000E1,6.136280537E0,-6.662250996E0,-3.759104252E0
4.046896870E1,5.979301929E0,-6.817022324E0,-3.734507561E0
4.048915829E1,5.778594017E0,-7.046637058E0,-3.622587681E0
4.050934865E1,5.693016052E0,-7.202527046E0,-3.447254181E0
4.052953969E1,5.609782219E0,-7.410484791E0,-3.128169537E0
4.054973131E1,5.454358578E0,-7.618276119E0,-2.895208359E0
4.056992334E1,5.292747498E0,-7.772208214E0,-2.783882141E0
4.059011558E1,5.103605747E0,-7.938560009E0,-2.665116549E0
4.061031329E1,4.847826004E0,-8.150930405E0,-2.496258974E0
4.063050402E1,4.550712585E0,-8.368685722E0,-2.329481840E0
4.065068251E1,4.288123131E0,-8.549699783E0,-2.164488316E0
4.067086152E1,4.129305840E0,-8.669543266E0,-1.989533186E0
4.069104141E1,4.007056236E0,-8.764727592E0,-1.814785242E0
4.071122250E1,3.820779562E0,-8.871684074E0,-1.692703724E0
4.073140506E1,3.574496508E0,-8.990740776E0,-1.599985480E0
4.075158922E1,3.323940039E0,-9.105308533E0,-1.488343120E0
4.077177511E1,3.121876955E0,-9.194825172E0,-1.370932341E0
4.079196271E1,2.992748499E0,-9.252244949E0,-1.268781543E0
4.081215198E1,2.937712669E0,-9.283066750E0,-1.168288589E0
4.083234282E1,2.932786465E0,-9.298359871E0,-1.053405404E0
4.085253506E1,2.949888468E0,-9.305630684E0,-9.347637296E-1
4.087272850E1,2.975400686E0,-9.307050705E0,-8.343769908E-1
4.089292287E1,3.010576487E0,-9.302291870E0,-7.577515841E-1
4.091311792E1,3.042202473E0,-9.297842026E0,-6.822977662E-1
4.093331334E1,3.064356804E0,-9.294706345E0,-6.233240366E-1
4.095350834E1,3.086223602E0,-9.289784431E0,-5.877949595E-1
4.097369969E1,3.102258921E0,-9.286746979E0,-5.501965880E-1
4.099388521E1,3.096262693E0,-9.291779518E0,-4.963850081E-1
4.101406824E1,3.069184065E0,-9.304034233E0,-4.306403995E-1
4.103425178E1,3.026861191E0,-9.321652412E0,-3.395386934E-1
4.105443600E1,2.960715294E0,-9.346070290E0,-2.356542051E-1
4.107462100E1,2.878530979E0,-9.374085426E0,-1.046826988E-1
4.109480688E1,2.785132885E0,-9.402729034E0,4.603840038E-2
4.111499370E1,2.712183237E0,-9.422724724E0,1.633702964E-1
4.113518146E1,2.711536169E0,-9.421681404E0,2.233385295E-1
4.115537016E1,2.768771172E0,-9.404034615E0,2.615814507E-1
4.117555974E1,2.825623035E0,-9.386426926E0,2.850173116E-1
4.119575011E1,2.890774727E0,-9.367909431E0,2.368156314E-1
4.121594115E1,3.016636610E0,-9.330785751E0,8.198458701E-2
4.123613277E1,3.230134726E0,-9.258292198E0,-1.436644197E-1
4.125632480E1,3.475195885E0,-9.162697792E0,-3.719806969E-1
4.127651704E1,3.733556032E0,-9.049105644E0,-5.870486498E-1
4.129671474E1,4.007791996E0,-8.915622711E0,-7.871775031E-1
4.131690537E1,4.268340588E0,-8.783177376E0,-8.985787630E-1
4.133708365E1,4.461113930E0,-8.687480927E0,-8.924834728E-1
4.135726245E1,4.571005344E0,-8.634566307E0,-8.488554358E-1
4.137744214E1,4.654479027E0,-8.575088501E0,-9.869587421E-1
4.139762303E1,4.766695976E0,-8.460922241E0,-1.364471316E0
4.141780537E1,4.959708214E0,-8.295130730E0,-1.662068486E0
4.143798933E1,5.260848522E0,-8.068856239E0,-1.840495110E0
4.145817500E1,5.546030998E0,-7.820363998E0,-2.062483788E0
4.147836245E1,5.810724258E0,-7.537547588E0,-2.364582300E0
4.149855162E1,6.054015636E0,-7.245649338E0,-2.649499893E0
4.151874240E1,6.209252834E0,-7.024049759E0,-2.877199650E0
4.153893464E1,6.257782459E0,-6.865581036E0,-3.142344952E0
4.155912813E1,6.230227947E0,-6.742671013E0,-3.448338747E0
4.157932261E1,6.151198387E0,-6.680594921E0,-3.701727152E0
4.159951777E1,6.037621498E0,-6.715341091E0,-3.823834658E0
