"Time (s)","Gyroscope x (rad/s)","Gyroscope y (rad/s)","Gyroscope z (rad/s)"
4.178901600E-2,1.384842768E-2,1.581916511E-1,3.182475269E-1
6.191130800E-2,-1.491369121E-2,2.013348341E-1,3.693801761E-1
8.204172400E-2,-3.249054030E-2,1.518000662E-1,3.997401893E-1
1.021822450E-1,-1.278316416E-2,9.534109384E-2,3.576622605E-1
1.223343280E-1,1.059937328E-1,1.187768951E-1,2.665822208E-1
1.424990160E-1,1.097221524E-1,2.354232669E-1,2.239716798E-1
1.626767240E-1,8.575372398E-2,4.138549268E-1,2.703106403E-1
1.828673490E-1,1.113200486E-1,5.241097212E-1,3.395527899E-1
2.030702660E-1,1.731053442E-1,5.123918056E-1,3.656517565E-1
2.232844330E-1,2.423474789E-1,4.319643974E-1,3.198454082E-1
2.435082870E-1,2.775011659E-1,4.085285962E-1,2.985401452E-1
2.637400580E-1,2.370211631E-1,3.920170069E-1,3.129211962E-1
2.839776620E-1,1.107874215E-1,3.227748871E-1,3.518033028E-1
3.042189120E-1,-4.474107176E-2,2.316948473E-1,3.693801761E-1
3.244615160E-1,-1.315600574E-1,8.255793154E-2,3.411506712E-1
3.446846410E-1,-9.587372839E-2,-1.747032404E-1,3.161169887E-1
3.648728700E-1,3.195791040E-3,-5.049349666E-1,3.358243704E-1
3.850556830E-1,1.113200486E-1,-8.404930234E-1,3.720433414E-1
4.052389120E-1,1.688442826E-1,-1.050349951E0,3.736412227E-1
4.254226620E-1,1.406148076E-1,-9.997498989E-1,3.283675313E-1
4.456071410E-1,3.888212144E-2,-8.554067016E-1,2.655169666E-1
4.657924530E-1,-7.936213911E-2,-8.202530146E-1,2.394180000E-1
4.859787030E-1,-2.103895694E-1,-8.788425326E-1,2.314285189E-1
5.061658910E-1,-2.572611570E-1,-8.777772188E-1,2.000032514E-1
5.263540160E-1,-1.842906028E-1,-8.617982864E-1,1.494032294E-1
5.465430780E-1,-1.278316379E-1,-9.086698890E-1,8.122635633E-2
5.667330780E-1,-2.045306265E-1,-9.805752039E-1,8.495477587E-2
5.869238080E-1,-3.824296594E-1,-9.619330764E-1,9.294424951E-2
6.071151620E-1,-4.612591565E-1,-7.659245729E-1,5.352949724E-2
6.273070370E-1,-2.556632757E-1,-6.098634601E-1,2.157158963E-2
6.474992240E-1,-3.195791040E-3,-6.945518851E-1,-2.157158963E-2
6.676916200E-1,7.936213911E-2,-9.443562031E-1,5.193160102E-2
6.878948490E-1,2.130527282E-3,-1.214933157E0,1.536642760E-1
7.080734950E-1,-1.187768951E-1,-1.294827938E0,1.946769357E-1
7.282524530E-1,-2.572611570E-1,-9.763141274E-1,2.308958918E-1
7.484321410E-1,-4.410191476E-1,-5.496760607E-1,2.852243483E-1
7.686128700E-1,-6.311687231E-1,-2.109221965E-1,2.607232630E-1
7.887948490E-1,-7.185203433E-1,-2.897517085E-1,1.781653464E-1
8.089782870E-1,-6.593981981E-1,-8.197203875E-1,9.081372619E-2
8.291632870E-1,-5.539370775E-1,-1.586710215E0,8.335687965E-2
8.493499530E-1,-5.374255180E-1,-2.302034616E0,2.506032586E-1
8.695382870E-1,-6.189181805E-1,-2.943856001E0,6.309024096E-1
8.897281830E-1,-7.611308694E-1,-3.101515055E0,1.002679348E0
9.099195370E-1,-9.635309577E-1,-2.820285559E0,1.125717402E0
9.301121410E-1,-9.645962119E-1,-2.778740168E0,1.151283622E0
9.503057870E-1,-4.804339111E-1,-3.513772011E0,1.408544898E0
9.705002660E-1,2.556632757E-1,-4.343612671E0,1.774462938E0
9.906952660E-1,5.075981021E-1,-3.930822849E0,1.857020855E0
1.010890474E0,1.139832065E-1,-2.341982126E0,1.585911274E0
1.031080266E0,-2.679138184E-1,-1.132375240E0,1.199753165E0
1.051270162E0,-2.039979845E-1,-1.350754261E0,9.962878227E-1
1.071470891E0,9.853688627E-2,-1.896701932E0,9.398288727E-1
1.091650787E0,4.830970466E-1,-1.587242842E0,8.673909307E-1
1.111830995E0,6.956171393E-1,-2.455432713E-1,7.331677079E-1
1.132011828E0,3.504717350E-1,6.285055280E-1,2.026664019E-1
1.152193495E0,1.065263674E-1,5.326318145E-1,-2.660495937E-1
1.172376308E0,8.894951642E-2,-9.587372653E-3,-3.496727943E-1
1.192560370E0,4.404865205E-1,-6.380929351E-1,-3.861580789E-2
1.212745787E0,1.192030072E0,-1.380581737E0,4.982770681E-1
1.232932662E0,2.262087345E0,-2.132657766E0,8.668583035E-1
1.253120995E0,3.197388887E0,-2.640255928E0,1.022919416E0
1.273310683E0,3.413637400E0,-2.421344280E0,9.888309836E-1
1.293501620E0,3.036001444E0,-1.380581737E0,9.552751780E-1
1.313693703E0,2.343580008E0,-4.953475893E-1,9.904288650E-1
1.333886724E0,2.003228188E0,-3.227748871E-1,9.643298984E-1
1.354080474E0,2.082057714E0,1.773663908E-1,5.904223919E-1
1.374274641E0,1.880723000E0,8.436887860E-1,6.791055948E-2
1.394469016E0,1.466335416E0,1.380581737E0,-1.984053552E-1
1.414657974E0,1.007739425E0,1.374190092E0,-3.438138366E-1
1.434847037E0,2.583264410E-1,7.435539961E-1,-5.387570858E-1
1.455036203E0,-8.096003532E-2,2.966759205E-1,-7.321024537E-1
1.475225474E0,5.949497223E-1,-1.166463718E-1,-7.076013684E-1
1.495425578E0,1.384842753E0,-7.302381992E-1,-5.115928650E-1
1.515604849E0,1.635712266E0,-1.385375381E0,-1.286305785E-1
1.535784433E0,1.454617500E0,-1.773131371E0,1.206411049E-1
1.555964641E0,1.260206938E0,-1.921203017E0,5.366265774E-1
1.576145787E0,1.140897393E0,-1.932388186E0,1.112401605E0
1.596328078E0,1.031175256E0,-1.792306066E0,1.606683850E0
1.616511724E0,1.116928935E0,-2.088982105E0,2.060486317E0
1.636696933E0,1.529718637E0,-3.083405495E0,2.248505116E0
1.656883703E0,1.806154490E0,-3.148919344E0,1.347824812E0
1.677072037E0,1.097221494E0,-1.668735504E0,1.138500571E0
1.697261933E0,-1.225053146E-2,2.886864543E-1,1.359010100E0
1.717453183E0,-6.253097653E-1,1.355015397E0,8.828372359E-1
1.737645683E0,-4.245075583E-1,1.188301563E0,7.805719376E-1
1.757839224E0,1.155811027E-1,5.331644416E-1,5.398223400E-1
1.778033495E0,7.435539961E-1,-2.077264152E-2,3.368896246E-1
1.798228287E0,8.868319988E-1,2.556632832E-2,5.659213066E-1
1.818423287E0,5.976129174E-1,3.201117218E-1,8.412919641E-1
1.838617558E0,4.074633420E-1,4.308991432E-1,9.675257206E-1
1.858805891E0,3.414169848E-1,3.925496638E-1,1.019191027E0
1.878988808E0,1.012000442E-1,3.036001325E-1,1.042626739E0
1.899172141E0,-2.402169555E-1,2.908169627E-1,1.312671065E0
1.919355995E0,-4.202465117E-1,4.500738978E-1,1.952361941E0
1.939540578E0,-4.671181142E-1,5.805686712E-1,2.432263136E0
1.959725995E0,-6.838992834E-1,9.129309654E-1,2.597911596E0
1.979912349E0,-1.085503697E0,1.393364787E0,2.771549702E0
2.000099641E0,-1.422659636E0,1.969672441E0,2.913229704E0
2.020287870E0,-1.345427990E0,1.617602825E0,2.723080158E0
2.040477037E0,-9.379646182E-1,1.390169114E-1,2.496711731E0
2.060667037E0,-6.977477074E-1,-1.205878496E0,2.346509457E0
2.080857766E0,-8.101329803E-1,-1.761946082E0,2.260755777E0
2.101049120E0,-1.192562699E0,-1.902028203E0,2.537724257E0
2.121240995E0,-1.656484962E0,-1.955291390E0,3.061301470E0
2.141433183E0,-1.961150408E0,-2.268478870E0,3.646663666E0
2.161625474E0,-1.890310287E0,-2.540653706E0,3.997668028E0
2.181828599E0,-4.447475672E-1,-3.450388908E0,3.450655222E0
2.202007037E0,7.392929792E-1,-1.100417376E0,1.383511186E0
2.222185787E0,6.221139431E-1,2.664757013E0,-6.170539856E-1
2.242365266E0,6.700508595E-1,3.154245615E0,-4.290349185E-1
2.262545787E0,4.138549268E-1,2.134788275E0,3.038664460E-1
2.282727662E0,1.299621612E-1,5.981455445E-1,4.604602158E-1
2.302911099E0,1.597895473E-2,-5.145223141E-1,1.957421899E-1
2.323096203E0,2.103895694E-1,-1.157408953E0,-1.126516312E-1
2.343282974E0,4.202465117E-1,-1.128114223E0,-2.958769798E-1
2.363471412E0,4.996086359E-1,-8.815056682E-1,-3.496727943E-1
2.383661516E0,4.415517747E-1,-7.621961236E-1,-2.543317080E-1
2.403853078E0,3.494064808E-1,-7.366297841E-1,3.648528084E-2
2.424045891E0,4.223770201E-1,-8.341014385E-1,9.560741484E-2
2.444239745E0,6.103960872E-1,-8.665919900E-1,-1.355548054E-1
2.464434433E0,7.009434700E-1,-1.207476377E0,-7.757782340E-1
2.484629641E0,5.800360441E-1,-1.750760794E0,-1.714275479E0
2.504825058E0,2.162485123E-1,-1.132375240E0,-1.878326058E0
2.525019953E0,-4.234423041E-1,1.246358454E-1,-1.099618435E0
2.545208287E0,-9.970867634E-1,9.241161942E-1,-3.328948840E-2
2.565391203E0,-1.077514172E0,9.347688556E-1,2.367548496E-1
2.585574537E0,-7.004108429E-1,4.372907281E-1,-2.122537792E-1
2.605758391E0,-3.877559602E-1,-3.083938360E-1,-4.530033767E-1
2.625942974E0,-3.302317262E-1,-7.084003091E-1,-3.576622605E-1
2.646128391E0,-4.484759867E-1,-4.884233773E-1,-3.480748832E-1
2.666314745E0,-7.542066574E-1,-1.581916511E-1,-4.673844278E-1
2.686502037E0,-1.145158410E0,-3.408843651E-2,-6.335655451E-1
2.706690266E0,-1.415202737E0,-2.476737946E-1,-7.869635224E-1
2.726879433E0,-1.429583788E0,-5.555350184E-1,-7.651256323E-1
2.747069433E0,-1.145691037E0,-4.330296814E-1,-6.218476295E-1
2.767260162E0,-7.430213690E-1,2.439453751E-1,-4.301002026E-1
2.787451516E0,-4.490086138E-1,1.293762684E0,-2.346243113E-1
2.807643391E0,-6.263750196E-1,2.573144436E0,-1.004809976E0
2.827835578E0,-8.820382953E-1,2.325470448E0,-1.814942956E0
2.848027974E0,4.532696903E-1,-6.301034689E-1,-1.391500592E0
2.868231203E0,1.310274243E0,-1.937714577E0,-8.546077609E-1
2.888409641E0,6.993455887E-1,-9.108003974E-1,-1.120391011E0
2.908588391E0,1.230379492E-1,-3.744401634E-1,-1.622662783E0
2.928767870E0,2.876211703E-1,-6.460824013E-1,-1.767538667E0
2.948948391E0,2.881538272E-1,-2.177931547E0,-1.704155564E0
2.969130266E0,-2.434127480E-1,-1.348623753E0,-1.501755476E0
2.989313703E0,-6.130592227E-1,9.203878045E-1,-1.247690082E0
3.009498808E0,-7.898929715E-1,8.633961678E-1,-1.118793130E0
3.029685578E0,-1.061002612E0,2.024000883E-2,-1.174719453E0
3.049874016E0,-1.048219442E0,-2.066611499E-1,-1.304149032E0
3.070064120E0,-8.825709224E-1,-3.206443489E-1,-1.394696474E0
3.090255683E0,-9.337036014E-1,-5.896234512E-1,-1.305214286E0
3.110448599E0,-9.795098901E-1,-6.865624189E-1,-9.739173055E-1
3.130642558E0,-8.623309135E-1,-6.034718752E-1,-5.531381369E-1
3.150837349E0,-7.430213690E-1,-6.913561225E-1,-1.792306006E-1
3.171032662E0,-7.068024278E-1,-6.865624189E-1,1.462074369E-1
3.191228183E0,-6.695181727E-1,-5.331644416E-1,3.970770240E-1
3.211422662E0,-6.018739343E-1,-3.797664940E-1,5.914876461E-1
3.231610995E0,-6.482129097E-1,-3.318296373E-1,7.390266657E-1
3.251793912E0,-5.427518487E-1,2.386190593E-1,7.816371918E-1
3.271977245E0,-3.163833022E-1,1.117461562E0,5.850960612E-1
3.292161099E0,-3.675159514E-1,1.088699460E0,3.459443748E-1
3.312345683E0,-3.898864985E-1,5.954823494E-1,3.896201849E-1
3.332531099E0,-1.145158410E-1,1.731053442E-1,5.760413408E-1
3.352717453E0,1.145158410E-1,-1.219726875E-1,8.077361584E-1
3.372904745E0,1.454084814E-1,-2.284990549E-1,1.026115179E0
3.393092974E0,1.187768951E-1,-8.735162020E-2,1.087367892E0
3.413282141E0,-1.970737725E-1,6.593981981E-1,6.186518669E-1
3.433472141E0,2.151832581E-1,1.605884910E0,3.842938542E-1
3.453662870E0,7.446193099E-1,9.044088125E-1,9.430246353E-1
3.473854224E0,3.339601457E-1,-8.245140314E-1,1.224786878E0
3.494046099E0,1.864211410E-1,-5.880255103E-1,1.145957351E0
3.514238287E0,6.972150803E-1,5.885581374E-1,1.351020575E0
3.534430683E0,9.640635848E-1,5.544697046E-1,1.655686021E0
3.554633912E0,8.820382953E-1,1.864211448E-2,1.588041782E0
3.574812349E0,8.330361843E-1,-1.027979404E-1,1.088433146E0
3.594991099E0,8.159919381E-1,-6.817687303E-2,6.953508258E-1
3.615170578E0,6.817687154E-1,-1.059937328E-1,7.315698266E-1
3.635351099E0,5.400886536E-1,-4.261054564E-3,9.217193723E-1
3.655532974E0,5.102612972E-1,4.367581010E-1,8.322372437E-1
3.675716412E0,5.603286624E-1,6.913561225E-1,8.918919563E-1
3.695901516E0,5.187833905E-1,4.175833464E-1,1.148087859E0
3.716088287E0,7.749792933E-1,-5.592634082E-1,1.161936283E0
3.736276724E0,9.763141274E-1,-1.256478429E0,1.365401626E0
3.756466828E0,6.636592746E-1,-6.178529263E-1,1.177915215E0
3.776658391E0,6.673876643E-1,2.929474972E-2,5.648560524E-1
3.796851308E0,7.339666486E-1,9.363667369E-1,1.331579522E-3
3.817045266E0,5.177181363E-1,1.259141564E0,8.255792782E-3
3.837240058E0,1.326253265E-1,8.181225061E-1,2.639190555E-1
3.857435370E0,1.438105851E-1,1.976063997E-1,2.713759243E-1
3.877630891E0,3.526022732E-1,-1.709748209E-1,1.989379823E-1
3.897825578E0,3.163833022E-1,-4.308991432E-1,1.829590350E-1
3.918013912E0,2.482064217E-1,-4.511391521E-1,1.254348010E-1
3.938196828E0,3.062632978E-1,-1.656484902E-1,-1.358211134E-2
3.958380162E0,4.058654606E-1,1.507348120E-1,-2.053295672E-1
3.978564016E0,4.964128435E-1,4.996086359E-1,-2.479401082E-1
3.998748599E0,6.093307734E-1,6.332992315E-1,-2.316948399E-2
4.018934016E0,7.701855898E-1,4.751075804E-1,3.539338410E-1
4.039120370E0,9.523456693E-1,2.790990770E-1,6.149234176E-1
4.059307662E0,9.225183129E-1,1.161137372E-1,6.229129434E-1
4.079495891E0,5.731118321E-1,-1.288969070E-1,3.635212183E-1
4.099685058E0,1.864211448E-2,-3.845601678E-1,-5.619265884E-2
4.119875058E0,-3.824296594E-1,-5.411539078E-1,-4.178496599E-1
4.140065787E0,-3.648527861E-1,-3.882885873E-1,-5.195823312E-1
4.160257141E0,-4.351601899E-1,-4.197138846E-1,-4.269044101E-1
4.180449016E0,-1.052480459E0,-1.832253486E-1,-5.451486707E-1
4.200641203E0,-1.891375542E0,6.114613414E-1,-8.370308876E-1
4.220833599E0,-2.462356806E0,1.007739425E0,-9.819067717E-1
4.241036828E0,-2.405365229E0,1.086036325E0,-1.153414249E0
4.261215474E0,-1.983520865E0,1.172322631E0,-1.283376336E0
4.281394433E0,-1.226118445E0,1.331579566E0,-1.194959521E0
4.301574120E0,-2.545980215E-1,1.127581596E0,-9.275783300E-1
4.321754849E0,3.110569715E-1,-1.757685095E-2,-7.305045128E-1
4.341936828E0,-7.068024278E-1,-1.489238620E0,-8.860330582E-1
4.362120266E0,-1.106808901E0,-1.460476398E0,-9.169256687E-1
4.382305370E0,-8.921582699E-1,-8.463519812E-1,-1.132641554E0
4.402492141E0,-8.639287949E-1,-8.298403621E-1,-1.644500732E0
4.422680578E0,-1.081775188E0,-8.484824896E-1,-1.713210225E0
4.442870578E0,-1.218128920E0,-5.992107987E-1,-1.511875391E0
4.463062037E0,-1.005076289E0,-6.631265879E-1,-1.410675406E0
4.483254745E0,-7.515435219E-1,-8.548740745E-1,-1.419730067E0
4.503448495E0,-9.017456770E-1,-2.972085476E-1,-1.362738490E0
4.523643078E0,-6.961497664E-1,-8.319709301E-1,-1.025582552E0
4.543838183E0,-3.962780833E-1,-7.403582335E-1,-4.940160215E-1
4.564033495E0,-2.865559161E-1,-7.808382511E-1,-4.873581231E-2
4.584228703E0,-2.098569423E-1,-5.539370775E-1,3.619233072E-1
4.604417037E0,-3.888212144E-2,-1.320926845E-1,7.209171653E-1
4.624599953E0,2.684464455E-1,2.380864173E-1,1.145424724E0
4.644783287E0,3.190464675E-1,3.589938581E-1,1.698829174E0
4.664967141E0,-3.494064808E-1,5.677855015E-1,1.935850382E0
4.685151724E0,7.131940126E-1,1.274055362E0,1.177915215E0
4.705337141E0,1.158474207E0,2.185920954E0,1.073519468E0
4.725523495E0,3.169159293E-1,7.078676820E-1,1.441568017E0
4.745710787E0,1.001347780E0,1.032773137E0,1.374456406E0
4.765899016E0,1.151017308E0,1.366200566E0,1.494298577E0
4.786088183E0,9.342362285E-1,1.013065696E0,1.867140889E0
4.806278183E0,8.612656593E-1,2.503369451E-1,1.837313414E0
4.826468912E0,6.625939608E-1,-5.763076544E-1,1.479917526E0
4.846660266E0,7.265098095E-1,-5.022718310E-1,1.103879452E0
4.866852141E0,8.117309213E-1,4.207791388E-2,7.001445293E-1
4.887044328E0,7.185203433E-1,2.514022291E-1,6.495444775E-1
4.907236724E0,7.446193099E-1,1.347558498E-1,1.115064740E0
4.927439953E0,9.443562031E-1,-2.279664129E-1,1.702557564E0
4.947618599E0,1.075916290E0,-5.560676455E-1,1.959818840E0
4.967797558E0,1.136103630E0,-9.986846447E-1,1.878326058E0
4.987977245E0,8.261119723E-1,-1.119059443E0,1.819736600E0
5.008157974E0,4.612591565E-1,-7.771098018E-1,1.724928141E0
5.028339953E0,4.665854871E-1,-3.440801501E-1,1.306279540E0
5.048523391E0,5.225118399E-1,2.205095738E-1,9.749825597E-1
5.068708495E0,4.974781275E-1,3.478085697E-1,7.629950643E-1
5.088895266E0,4.016043842E-1,5.379581451E-2,6.037381887E-1
5.109083703E0,3.105243444E-1,-7.243792713E-2,3.832286000E-1
5.129273703E0,2.828274965E-1,5.379581451E-2,1.414137483E-1
5.149465162E0,3.036001325E-1,1.523326933E-1,4.820318148E-2
5.169657870E0,3.238401413E-1,5.326318368E-2,-7.270424068E-2
5.189851620E0,2.956106663E-1,1.331579592E-2,-1.834916621E-1
5.210046203E0,2.354232669E-1,1.432779580E-1,-1.802958697E-1
5.230241308E0,2.151832581E-1,2.173137814E-1,-1.062600464E-1
5.250436620E0,2.689790726E-1,2.498043180E-1,1.073253155E-1
5.270626516E0,2.886864543E-1,3.707117438E-1,3.661843836E-1
5.290816516E0,1.704421788E-1,4.681833684E-1,4.040012360E-1
5.311017349E0,-1.864211448E-2,5.512739420E-1,2.772348523E-1
5.331196933E0,-2.663159184E-2,2.711096108E-1,6.897582114E-2
5.351376828E0,9.480846673E-2,-4.729770422E-1,-2.394180000E-1
5.371557349E0,3.494064808E-1,-1.278316379E0,-4.593949318E-1
5.391738808E0,5.704486966E-1,-1.840242982E0,-3.805654347E-1
5.411921412E0,1.842906028E-1,-2.040512562E0,-1.771000773E-1
5.432105370E0,-6.567350626E-1,-1.323590040E0,-1.328916401E-1
5.452290787E0,-1.272457361E0,2.929474972E-2,-2.031990439E-1
5.472477766E0,-1.524924874E0,7.238466144E-1,-7.001445293E-1
5.492666203E0,-1.821600795E0,9.539436102E-1,-1.251951098E0
5.512856099E0,-1.835981846E0,8.287751079E-1,-1.390967965E0
5.533047349E0,-1.410941720E0,3.962780833E-1,-1.048485756E0
5.553239745E0,-8.032087684E-1,1.038632020E-1,-7.896266580E-1
5.573433078E0,-3.451454341E-1,1.299621612E-1,-7.507445216E-1
5.593627141E0,-6.423539519E-1,7.787077427E-1,-9.957551956E-1
5.613821620E0,-8.894951344E-1,1.033305764E0,-1.215199471E0
5.634016308E0,-7.611308694E-1,5.294360518E-1,-1.450622797E0
5.654210370E0,-7.866972089E-1,-1.177116334E-1,-2.022136688E0
5.674398703E0,-1.011467814E0,-6.306360960E-1,-2.383793831E0
5.694581620E0,-1.214933157E0,-9.171919823E-1,-2.207492590E0
5.714764953E0,-1.153680563E0,-9.230509400E-1,-1.878858805E0
5.734948808E0,-1.012000442E0,-9.384972453E-1,-1.628521800E0
5.755133391E0,-9.800425768E-1,-1.040762544E0,-1.584313393E0
5.775318808E0,-9.954888821E-1,-1.121189952E0,-1.625326037E0
5.795505162E0,-8.825709224E-1,-1.071122646E0,-1.446361661E0
5.815692453E0,-6.466150284E-1,-8.356993198E-1,-9.611341357E-1
5.835880683E0,-4.133222997E-1,-5.811012983E-1,-4.359591305E-1
5.856069849E0,-2.407495826E-1,-4.021370113E-1,-3.968106955E-2
5.876259849E0,-1.384842768E-2,-3.499391079E-1,2.836264372E-1
5.896450578E0,2.545980215E-1,-1.576590240E-1,7.507445216E-1
5.916641933E0,5.187833905E-1,1.406148076E-1,1.227982640E0
5.936833808E0,6.977476925E-2,4.154528081E-1,1.236504793E0
5.957025995E0,-6.476802826E-1,1.155811071E0,1.861548275E-1
5.977218391E0,1.325187922E0,1.928659797E0,-4.593949318E-1
5.997421620E0,9.353014827E-1,2.337188482E0,1.786979735E-1
6.017600474E0,3.946801722E-1,-1.331579536E-1,9.925593734E-1
6.037779641E0,4.745749533E-1,2.950780392E-1,1.332378507E0
6.057959537E0,9.651288390E-1,1.355015397E0,1.326519608E0
6.078140474E0,1.003478408E0,1.476455450E0,1.293496370E0
6.098322662E0,8.644614220E-1,9.060067534E-1,1.305214286E0
6.118506308E0,6.892255545E-1,2.593916953E-1,1.085770011E0
6.138691516E0,7.030739784E-1,-6.924213469E-2,9.531446695E-1
6.158878391E0,7.920235395E-1,-2.418148518E-1,9.856351614E-1
6.179066933E0,8.410256505E-1,-2.902843356E-1,1.072986841E0
6.199257037E0,8.048067093E-1,-1.874863952E-1,1.070323586E0
6.219448599E0,8.516782522E-1,-6.977476925E-2,8.540751338E-1
6.239641412E0,9.400951862E-1,-6.604634225E-2,7.198519111E-1
6.259835266E0,8.309056163E-1,-5.219791830E-2,7.741803527E-1
6.280029849E0,6.364950538E-1,-1.464737505E-1,7.198519111E-1
6.300224849E0,5.571328998E-1,-2.540653646E-1,5.233107805E-1
6.320420058E0,5.363602638E-1,-2.221074700E-1,3.810980618E-1
6.340614016E0,5.422192216E-1,2.130527236E-2,2.479401082E-1
6.360802349E0,5.619265437E-1,5.182507634E-1,9.347688407E-2
6.380985266E0,5.065328479E-1,6.460824013E-1,-6.045371294E-2
6.401168599E0,3.275685608E-1,3.701791167E-1,-7.856319100E-2
6.421352453E0,2.673811615E-1,7.190529257E-2,-2.902843431E-2
6.441537037E0,3.909517527E-1,4.207791388E-2,5.060002208E-3
6.461722453E0,3.440801501E-1,5.965476483E-2,2.849580161E-2
6.481908808E0,2.359558940E-1,-1.145158410E-1,-4.394212365E-2
6.502096099E0,4.229096770E-1,-1.299621612E-1,-1.563274413E-1
6.522284328E0,7.089329362E-1,2.071937770E-1,-7.483477145E-2
6.542473495E0,8.010782599E-1,2.748380303E-1,2.202432603E-1
6.562663495E0,8.921582699E-1,7.350318879E-2,4.897549450E-1
6.582854224E0,9.438235760E-1,3.227748871E-1,6.037381887E-1
6.603045578E0,5.672528744E-1,4.404865205E-1,5.872265697E-1
6.623237453E0,-1.821600795E-1,-1.549958587E-1,3.129211962E-1
6.643429641E0,-5.874928832E-1,-9.624657035E-1,-1.494032294E-1
6.663622037E0,-2.945453823E-1,-1.048752069E0,-3.741738498E-1
6.683825266E0,6.444845349E-2,-7.590003610E-1,-4.173170328E-1
6.704004328E0,-7.803056240E-1,-3.009369671E-1,-6.170539856E-1
6.724183703E0,-1.840242982E0,1.111602664E0,-1.008538365E0
6.744363703E0,-2.243445158E0,2.208291531E0,-1.140631080E0
6.764544641E0,-2.147038937E0,2.112417698E0,-1.065529943E0
6.784726828E0,-1.782718658E0,1.548893332E0,-1.084172130E0
6.804910474E0,-1.010402560E0,1.031707883E0,-1.094824672E0
6.825095683E0,-1.475390196E-1,5.528718233E-1,-9.163930416E-1
6.845282558E0,3.371559381E-1,-2.199769467E-1,-6.703171730E-1
6.865471099E0,-6.514087319E-1,-8.452867270E-1,-1.051681519E0
6.885661203E0,-1.373657465E0,-1.138234258E0,-1.763810277E0
6.905852766E0,-1.234107971E0,-5.880255103E-1,-2.205362082E0
6.926045578E0,-9.699225426E-1,-2.684464455E-1,-2.157957792E0
6.946239433E0,-1.054078341E0,-5.086634159E-1,-1.795768142E0
6.966434016E0,-1.270326853E0,-5.986781716E-1,-1.477787018E0
6.986629016E0,-1.222390056E0,-6.956171393E-1,-1.382978559E0
7.006824224E0,-9.805752039E-1,-1.003478408E0,-1.495896459E0
7.027017974E0,-8.554067016E-1,-1.381114364E0,-1.530517578E0
7.047206308E0,-6.562023759E-1,-1.431181669E0,-1.040496230E0
7.067389224E0,-3.025348783E-1,-1.226651073E0,-1.856221855E-1
7.087572558E0,4.527370632E-2,-8.143940568E-1,3.725759685E-1
7.107756412E0,3.920170069E-1,-4.143875539E-1,7.049382329E-1
7.127940995E0,6.476802826E-1,8.415582776E-2,1.128380537E0
7.148126412E0,5.656549931E-1,8.069372177E-1,1.522528052E0
7.168312766E0,2.444780022E-1,1.633049130E0,9.621993899E-1
7.188500058E0,1.187768936E0,1.420529008E0,5.861613154E-1
7.208688287E0,6.199834347E-1,7.084003091E-1,1.305746913E0
7.228877453E0,7.286403179E-1,3.462106735E-2,1.313203812E0
7.249067453E0,7.004108429E-1,-8.628635854E-2,1.165664792E0
7.269258287E0,9.619330764E-1,-1.075916290E-1,1.385109067E0
7.289449745E0,9.949562550E-1,1.810948178E-2,1.677523971E0
7.309641724E0,7.936214209E-1,4.138549268E-1,1.632250190E0
7.329834016E0,6.652571559E-1,7.904255986E-1,1.237570047E0
7.350026516E0,8.303729892E-1,6.897581816E-1,8.689888120E-1
7.370229849E0,8.532761931E-1,1.768337637E-1,8.700540662E-1
7.390408391E0,7.659245729E-1,-1.656484902E-1,1.014397264E0
7.410587245E0,7.637940049E-1,-6.977476925E-2,1.054877281E0
7.430766828E0,7.329013944E-1,3.515370190E-2,9.797762632E-1
7.450947453E0,5.539370775E-1,-6.178529188E-2,8.135951161E-1
7.471129433E0,4.048001766E-1,3.302317113E-2,5.408875942E-1
7.491312870E0,4.181159735E-1,4.852275848E-1,2.628538013E-1
7.511497974E0,4.394212663E-1,7.115961313E-1,1.195758432E-1
7.531684745E0,3.094590902E-1,5.006738901E-1,1.142495275E-1
7.551873183E0,2.306295782E-1,2.109221965E-1,7.696529478E-2
7.572063287E0,2.545980215E-1,-1.624527127E-1,-7.217161357E-2
7.592254849E0,2.327601016E-1,-2.077264041E-1,-1.813611388E-1
7.612447766E0,1.880190372E-1,1.672463864E-1,-2.170474678E-1
7.632641724E0,7.243792713E-2,3.957454562E-1,-1.771000773E-1
7.652836516E0,1.262337416E-1,3.808317482E-1,-1.195758432E-1
7.673031828E0,3.914843798E-1,2.087916732E-1,-1.145158429E-2
7.693227349E0,6.423539519E-1,7.616634667E-2,1.557948142E-1
7.713422245E0,7.813708782E-1,1.427453309E-1,3.603254259E-1
7.733610578E0,8.287751079E-1,4.111917615E-1,5.355613232E-1
7.753793495E0,6.135918498E-1,4.676507413E-1,5.968139768E-1
7.773976828E0,8.468846232E-2,-6.072002649E-2,4.210454524E-1
7.794160683E0,-1.731053442E-1,-6.604634523E-1,1.864211401E-3
7.814345266E0,2.061285079E-1,-7.542066574E-1,-4.673844278E-1
7.834530683E0,4.122570157E-1,-5.821665525E-1,-6.511424184E-1
7.854717037E0,-1.374190152E-1,-2.689790726E-1,-6.207823753E-1
7.874904328E0,-1.051947832E0,5.241097212E-1,-1.035169959E0
7.895092558E0,-1.668202877E0,1.376853228E0,-1.281245828E0
7.915281724E0,-1.750228167E0,1.031175256E0,-1.200818419E0
7.935471724E0,-1.550491214E0,2.705769539E-1,-1.091628909E0
7.955662558E0,-1.111602664E0,-2.231727391E-1,-9.249151349E-1
7.975854016E0,-5.262402296E-1,-6.391581893E-1,-6.809697747E-1
7.996045995E0,5.486107618E-2,-1.147288918E0,-5.137233734E-1
8.016238287E0,-1.757685095E-2,-1.125983715E0,-6.692518592E-1
8.036430787E0,-1.288969040E0,-8.149266988E-2,-1.512940645E0
8.056634120E0,-1.131842613E0,-2.721748650E-1,-1.885782957E0
8.076812870E0,-9.651288390E-1,-9.560741186E-1,-1.631717563E0
8.096991933E0,-1.477520704E0,-1.111602664E0,-1.266332150E0
8.117171724E0,-1.890310287E0,-5.214465261E-1,-1.160338402E0
8.137352558E0,-1.602689147E0,-2.902843356E-1,-1.226917386E0
8.157534641E0,-1.335840583E0,-4.362254739E-1,-1.548094392E0
8.177718183E0,-1.303882718E0,-8.005456328E-1,-1.894305110E0
8.197903287E0,-9.693899155E-1,-1.149419427E0,-1.534245968E0
8.218090058E0,-4.223770201E-1,-1.169126868E0,-6.564686894E-1
8.238278495E0,-6.604634225E-2,-7.691203356E-1,6.258423626E-2
8.258468495E0,2.519348562E-1,-4.687159956E-1,4.876244366E-1
8.278659953E0,5.981455445E-1,-2.322274745E-1,1.035702586E0
8.298852662E0,8.575372100E-1,4.772381186E-1,1.761147141E0
8.319046412E0,4.990760088E-1,1.318796396E0,2.063149452E0
8.339240995E0,2.031990290E0,1.926529288E0,1.677523971E0
8.359436099E0,1.581383824E0,3.259706736E0,1.778723955E0
8.379631412E0,3.094590902E-1,3.632549047E-1,1.083106756E0
8.399821308E0,4.069307148E-1,-7.648593187E-1,6.745781898E-1
8.420011308E0,8.458193541E-1,2.008021921E-1,1.250353217E0
8.440212141E0,8.277098536E-1,6.535392404E-1,2.017875671E0
8.460391828E0,6.151897311E-1,3.898864985E-1,2.235189438E0
8.480571828E0,5.459476113E-1,4.884233773E-1,1.788311362E0
8.500752453E0,8.080024719E-1,8.815056682E-1,1.041561484E0
8.520934016E0,1.115331054E0,1.025848866E0,7.278413773E-1
8.541116724E0,9.821730852E-1,6.844319105E-1,8.727172613E-1
8.561300787E0,7.808382511E-1,7.190529257E-2,1.019191027E0
8.581486308E0,9.001477957E-1,-3.765707016E-1,8.029424548E-1
8.601673287E0,9.528783560E-1,-5.299686790E-1,4.764391780E-1
8.621861724E0,6.918887496E-1,-7.829687744E-2,3.326285779E-1
8.642051620E0,3.451454341E-1,8.356993198E-1,1.744369268E-1
8.662242870E0,1.885516644E-1,1.317198515E0,-8.655267209E-2
8.682435266E0,2.311622053E-1,1.075383663E0,-1.515337527E-1
8.702628599E0,3.637875319E-1,3.978759646E-1,-1.185105816E-1
8.722822662E0,5.795034170E-1,-1.874863952E-1,-1.131842583E-1
8.743017141E0,8.117309213E-1,-4.426170290E-1,-2.149169445E-1
8.763211828E0,8.804404140E-1,-2.790990770E-1,-3.411506712E-1
8.783405683E0,6.844319105E-1,3.675159514E-1,-3.619233072E-1
8.803594120E0,3.659180701E-1,6.828339696E-1,-2.159821987E-1
8.823782453E0,2.519348562E-1,5.842971206E-1,2.476738021E-2
8.843965370E0,2.386190593E-1,4.655202031E-1,4.045338631E-1
8.864148703E0,1.651158631E-1,2.625874877E-1,6.969487667E-1
8.884332558E0,3.126548827E-1,9.001477808E-2,7.384940386E-1
8.904517141E0,2.540653646E-1,-1.784316599E-1,4.460791349E-1
8.924702558E0,-1.379516423E-1,-2.753706574E-1,1.944106072E-2
8.944888912E0,-3.621896505E-1,-4.175833464E-1,-3.065296113E-1
8.965076203E0,-2.178464085E-1,-5.054675937E-1,-5.249086618E-1
8.985264433E0,-2.769685388E-1,-3.936149180E-1,-6.447508335E-1
9.005453599E0,-6.849645376E-1,-3.249054030E-2,-7.352982163E-1
9.025643599E0,-1.244760513E0,-1.912148297E-1,-9.835046530E-1
9.045834433E0,-1.514804840E0,-4.671181142E-1,-1.325986862E0
9.066025891E0,-1.484977484E0,-3.376885653E-1,-1.465003848E0
9.086217870E0,-1.398691177E0,2.924148738E-1,-1.457546949E0
9.106410162E0,-1.084438443E0,1.151550055E0,-1.394696474E0
9.126602662E0,-5.123918056E-1,1.488705993E0,-1.197622657E0
9.146805995E0,-8.628635854E-2,5.773729086E-1,-8.615319729E-1
9.166984641E0,-3.217096329E-1,-5.848297477E-1,-5.206475854E-1
9.187163599E0,-8.868319988E-1,-6.583329439E-1,-2.207758874E-1
9.207343287E0,-1.062067866E0,-2.290316820E-1,5.060002208E-3
9.227524016E0,-6.641919017E-1,1.358211190E-1,1.510011256E-1
9.247705995E0,-8.612656593E-1,6.514087319E-1,-8.016108721E-2
9.267889433E0,-1.334775329E0,8.729835749E-1,-5.526055098E-1
9.288074537E0,-1.272457361E0,5.661876202E-1,-8.178561330E-1
9.308261308E0,-1.042360425E0,2.711096108E-1,-9.147951603E-1
9.328449745E0,-9.741836190E-1,9.480846673E-2,-9.536772966E-1
9.348639849E0,-1.008804679E0,2.993390858E-1,-5.739107728E-1
9.368831412E0,-9.928256869E-1,6.066676378E-1,2.031990439E-1
9.389024224E0,-8.341014385E-1,6.364950538E-1,8.029424548E-1
9.409218078E0,-6.301034689E-1,5.214465261E-1,1.170458436E0
9.429412766E0,-4.308991432E-1,2.487390637E-1,1.474058509E0
9.449607974E0,-2.125200927E-1,1.704421826E-2,1.827726126E0
9.469803391E0,1.113200486E-1,-1.209074259E-1,2.141446352E0
9.489998495E0,6.279729009E-1,1.331579592E-2,2.324671507E0
9.510186933E0,1.173920512E0,6.588655710E-1,2.231993675E0
9.530375266E0,1.169126868E0,1.017326832E0,1.436241746E0
9.550558183E0,5.640571117E-1,7.004108429E-1,1.840242893E-1
9.570741516E0,1.113200486E-1,8.085350990E-1,-1.515337527E-1
9.590925370E0,2.045306265E-1,1.578720689E0,8.282424510E-2
9.611109953E0,5.049349666E-1,1.594699621E0,-2.900180221E-1
9.631295370E0,7.616634965E-1,1.508413315E0,-5.909550190E-1
9.651481724E0,4.804339111E-1,2.318013668E0,-4.748412669E-1
9.671669016E0,2.540653646E-1,2.465552807E0,-3.906854391E-1
9.691857245E0,2.620548606E-1,6.716487408E-1,-4.332959950E-1
9.712046412E0,2.716422267E-2,-8.330361843E-1,-3.597927988E-1
9.732236412E0,-2.359558940E-1,-5.145223141E-1,-2.000032514E-1
9.752427245E0,-7.616634667E-2,9.400951862E-1,-1.217063740E-1
9.772618703E0,2.316948473E-1,1.769935489E0,-6.471476704E-2
9.792810683E0,5.635244846E-1,1.281512141E0,-3.488738462E-2
9.813002974E0,7.323687673E-1,6.428865790E-1,9.081372619E-2
9.833195474E0,5.795034170E-1,4.660528302E-1,2.213085145E-1
9.853398808E0,4.037349224E-1,8.703203797E-1,2.143843025E-1
9.873577453E0,2.950780392E-1,1.091362596E0,2.117211521E-1
9.893756412E0,2.316948473E-1,8.958867192E-1,3.123885691E-1
9.913936099E0,1.677790284E-1,8.458193541E-1,2.474074811E-1
9.934116828E0,1.118526794E-2,1.280979514E0,-1.765674502E-1
9.954298808E0,-6.711161137E-2,1.977129340E0,-4.609928429E-1
9.974482245E0,-3.142527863E-2,2.323339939E0,-3.965443969E-1
9.994667349E0,-2.982738242E-2,2.088982105E0,-1.733716577E-1
1.001485412E1,-1.081242561E-1,1.657550216E0,2.069274634E-1
1.003504256E1,-1.874863952E-1,1.485510111E0,6.335655451E-1
1.005523266E1,-2.247706354E-1,1.341699600E0,8.151929975E-1
1.007542422E1,-7.243792713E-2,1.060469985E0,8.492814302E-1
1.009561704E1,1.821600795E-1,7.084003091E-1,8.135951161E-1
1.011581089E1,3.797664940E-1,6.982803345E-1,6.665887237E-1
1.013600558E1,3.691138625E-1,1.074851036E0,5.520728827E-1
1.015620079E1,1.885516644E-1,1.190964699E0,5.483444333E-1
1.017639620E1,4.420844093E-2,5.768402815E-1,3.528685868E-1
1.019659131E1,-1.065263641E-3,6.977476925E-2,-4.873581231E-2
1.021677964E1,-3.728422802E-3,1.592569202E-1,-6.335655451E-1
1.023696256E1,-2.572611570E-1,4.282359779E-1,-1.139033198E0
1.025714589E1,-1.294827938E0,2.460758984E-1,-1.314801693E0
1.027732975E1,-2.199236870E0,-4.415517747E-1,-1.582182765E0
1.029751433E1,-2.294045210E0,-1.046621561E0,-1.968873501E0
1.031769974E1,-2.275403023E0,-9.006804228E-1,-2.176599979E0
1.033788610E1,-2.293512583E0,4.420844018E-1,-2.045572519E0
1.035807339E1,-2.351569414E0,2.158756733E0,-1.478852272E0
1.037826162E1,-2.878875017E0,1.757152319E0,-6.463487148E-1
1.039845079E1,-2.507630587E0,1.910017729E0,-5.520728827E-1
1.041864079E1,-2.144375801E0,1.571796536E0,-4.412854612E-1
1.043883162E1,-1.641571283E0,9.960214794E-2,-3.808317333E-2
1.045902308E1,-1.188834190E0,-1.205878496E0,3.592601717E-1
1.047921506E1,-1.165398479E0,-1.154745817E0,1.360874325E-1
1.049940735E1,-1.125983715E0,2.609896064E-1,-7.635276914E-1
1.051959985E1,-1.159539461E0,1.413072228E0,-1.159273148E0
1.053980318E1,-1.224520564E0,1.385375381E0,-6.095971465E-1
1.055998172E1,-1.114265800E0,6.295707822E-1,-1.909485012E-1
1.058016058E1,-7.909582257E-1,-1.288969070E-1,1.179779470E-1
1.060034016E1,-4.601939023E-1,-2.300969511E-1,3.896201849E-1
1.062052079E1,-3.009369671E-1,1.518000662E-1,6.388918757E-1
1.064070266E1,-2.050632536E-1,4.335623085E-1,9.978857040E-1
1.066088610E1,-1.400821656E-1,4.745749533E-1,1.393631101E0
1.068107120E1,-1.336905807E-1,4.958802164E-1,1.634913325E0
1.070125797E1,3.036001325E-2,1.205345869E0,1.615206003E0
1.072144641E1,4.761728346E-1,2.238651514E0,1.336106896E0
1.074163652E1,3.158506751E-1,1.604819655E0,4.269044101E-1
1.076182808E1,-7.243792713E-2,-4.213117659E-1,-9.387635589E-1
1.078202100E1,1.347558498E-1,-9.070720077E-1,-1.125717402E0
1.080221495E1,2.956106663E-1,2.098569423E-1,-8.652604222E-1
1.082240974E1,3.531349003E-1,8.255793452E-1,-8.588688374E-1
1.084260506E1,4.804339111E-1,1.463672280E0,-3.741738498E-1
1.086280058E1,-5.981455445E-1,1.416800618E0,6.149234176E-1
1.088299558E1,-1.677790284E0,-5.757750273E-1,2.067943096E0
1.090318391E1,-1.175518394E0,-4.138549268E-1,2.450372696E0
1.092336683E1,-7.004108429E-1,2.300969362E0,1.667403936E0
1.094355016E1,-1.475390196E-1,2.866091728E0,8.173235059E-1
1.096373402E1,3.142527863E-2,1.426920652E0,1.872200817E-1
1.098391860E1,-2.540653646E-1,-4.229096770E-1,-4.540686309E-1
1.100410402E1,-5.123918056E-1,-1.316665888E0,-7.667235136E-1
1.102429037E1,1.874863952E-1,9.331709743E-1,1.286305785E-1
1.104447766E1,1.771000862E0,3.327351093E0,1.092161536E0
1.106466589E1,2.113482952E0,2.296175718E0,8.391614556E-1
1.108485506E1,1.932388186E0,1.029577255E0,5.110602379E-1
1.110504506E1,1.298556328E0,1.864211321E0,3.331612051E-1
1.112523589E1,-1.155811027E-1,2.553969622E0,9.614004195E-2
1.114542735E1,-1.102547884E0,2.755304337E0,-4.157191217E-1
1.116561933E1,-1.274055362E0,3.071687698E0,-4.386222959E-1
1.118581162E1,-9.725856781E-1,3.154778242E0,1.573926955E-1
1.120600412E1,-5.560676455E-1,2.779272795E0,5.206475854E-1
1.122620745E1,-1.757684946E-1,2.111885071E0,6.410223842E-1
1.124638610E1,1.672463864E-1,1.311339498E0,8.364982605E-1
1.126656506E1,4.447475672E-1,5.608612895E-1,1.053279400E0
1.128674474E1,6.348971128E-1,1.209074259E-1,1.124119401E0
1.130692547E1,7.227813601E-1,1.624527127E-1,8.924246430E-1
1.132710745E1,7.025413513E-1,5.427518487E-1,6.314350367E-1
1.134729089E1,5.544697046E-1,8.074698448E-1,6.095971465E-1
1.136747600E1,2.130527347E-1,9.752488732E-1,6.724476814E-1
1.138766277E1,-3.808317482E-1,1.026381493E0,6.564686894E-1
1.140785120E1,-6.444845200E-1,8.916256428E-1,4.609928429E-1
1.142804131E1,-4.000065029E-1,4.884233773E-1,2.396843163E-3
1.144823287E1,-3.004043400E-1,1.193095297E-1,-6.064013243E-1
1.146842568E1,-1.072720528E0,-1.656484902E-1,-1.219993234E0
1.148861954E1,-1.807219744E0,-9.155941010E-1,-1.804822922E0
1.150881422E1,-2.030925035E0,-1.777392387E0,-2.286854744E0
1.152900943E1,-2.031457663E0,-1.523859620E0,-2.692187548E0
1.154920485E1,-2.128396749E0,3.398191035E-1,-2.672480106E0
1.156939985E1,-2.905506611E0,2.743586540E0,-1.812812448E0
1.158958829E1,-3.100982428E0,3.267163515E0,-8.450203538E-1
1.160977662E1,-2.186986208E0,2.375537872E0,-7.629950643E-1
1.162995954E1,-1.474324822E0,7.483476996E-1,-6.346307993E-1
1.165014287E1,-1.275653243E0,-1.214933157E0,-4.418180883E-1
1.167032672E1,-1.386973262E0,-3.149984598E0,-4.551338851E-1
1.169051131E1,-1.653821826E0,-2.302567244E0,-1.218395233E0
1.171069672E1,-1.617602825E0,-1.065263641E-3,-2.261288404E0
1.173088308E1,-1.807219744E0,5.496760607E-1,-1.831454515E0
1.175107037E1,-2.010152578E0,-4.063980877E-1,-9.898962379E-1
1.177125860E1,-1.937714577E0,-6.018739566E-2,-6.111950278E-1
1.179144777E1,-1.757152319E0,2.865559161E-1,-8.050730228E-1
1.181163777E1,-1.588308096E0,-6.764423847E-2,-1.131043673E0
1.183182860E1,-1.431181669E0,-2.759032845E-1,-1.148087859E0
1.185202006E1,-1.187236309E0,-4.820317924E-1,-9.291762114E-1
1.187221204E1,-8.080024719E-1,-9.587372541E-1,-5.691171288E-1
1.189240433E1,-3.856254518E-1,-1.374722719E0,-1.696432382E-1
1.191259683E1,-9.108003974E-2,-1.352884769E0,1.760348231E-1
1.193280016E1,2.130527236E-2,-1.212270021E0,1.893506050E-1
1.195297881E1,2.396843210E-2,-8.404930234E-1,1.254348010E-1
1.197315777E1,2.348906398E-1,4.207791388E-2,2.282327414E-1
1.199333745E1,6.290381551E-1,9.544762373E-1,3.997401893E-1
1.201351818E1,7.376950979E-1,1.385375381E0,5.653886795E-1
1.203370016E1,7.968171835E-1,1.919072509E0,1.151816368E0
1.205388360E1,3.153180480E-1,2.025598764E0,1.402153254E0
1.207406870E1,1.974998832E0,2.337721109E0,1.669800729E-1
1.209425547E1,9.667267799E-1,2.785131693E0,-7.723161485E-3
1.211444391E1,2.737727463E-1,-1.917474568E-1,8.487488031E-1
1.213463402E1,1.066328883E0,-4.687159881E-2,1.743570209E0
1.215482558E1,1.131309986E0,1.206411123E0,2.560627460E0
1.217501839E1,9.683246613E-1,1.776859760E0,3.078878164E0
1.219521224E1,6.556697488E-1,1.906821966E0,2.983537197E0
1.221540693E1,5.491434336E-1,1.659148097E0,2.181926250E0
1.223560214E1,7.648593187E-1,1.133973122E0,1.074052095E0
1.225579756E1,9.763141274E-1,6.471476555E-1,5.850960612E-1
1.227599256E1,9.747162461E-1,5.422192216E-1,7.566034794E-1
1.229618089E1,8.937562108E-1,8.106656075E-1,1.184306860E0
1.231636381E1,7.835013866E-1,1.303350091E0,1.470330119E0
1.233654714E1,6.380929351E-1,1.568600655E0,1.386706948E0
1.235673100E1,5.028044581E-1,1.261804819E0,1.041028857E0
1.237691558E1,4.500738978E-1,7.840340137E-1,6.250434518E-1
1.239710100E1,4.202465117E-1,7.973498106E-1,1.989379823E-1
1.241728735E1,2.109221965E-1,1.366200566E0,-1.568600684E-1
1.243747464E1,-6.444845349E-2,2.012283087E0,-3.997401893E-1
1.245766287E1,-1.518000662E-1,2.102297783E0,-5.334307551E-1
1.247785204E1,-1.603221744E-1,1.340101719E0,-3.395527899E-1
1.249804204E1,-1.635179669E-1,6.205160618E-1,1.019989923E-1
1.251823287E1,1.235705838E-1,5.688507557E-1,3.858917654E-1
1.253842433E1,4.085285962E-1,5.779055357E-1,4.322307110E-1
1.255861631E1,3.520696461E-1,3.387538493E-1,4.024033546E-1
1.257880860E1,2.918822467E-1,2.759032845E-1,2.159821987E-1
1.259900110E1,1.869537681E-1,-1.288969070E-1,5.592633970E-3
1.261920443E1,1.427453309E-1,-5.661876202E-1,-2.676474750E-1
1.263938308E1,2.402169555E-1,-4.319643974E-1,-3.976096511E-1
1.265956204E1,-7.456845604E-3,-2.934801280E-1,-1.637842804E-1
1.267974172E1,-7.249119282E-1,-1.784316599E-1,3.968106955E-2
1.269992245E1,-1.450889111E0,2.609896064E-1,-3.470096290E-1
1.272010443E1,-1.882853508E0,8.495477438E-1,-8.258456588E-1
1.274028787E1,-1.942508221E0,1.405615330E0,-1.122521520E0
1.276047297E1,-1.796034455E0,1.485510111E0,-1.129978418E0
1.278065975E1,-1.491369128E0,1.100417376E0,-1.148087859E0
1.280084818E1,-9.986846447E-1,5.795034170E-1,-1.195492148E0
1.282103829E1,-3.547327816E-1,2.029327303E-1,-1.061268926E0
1.284122985E1,-7.494129539E-1,2.013348341E-1,-1.021854162E0
1.286142266E1,-1.339036345E0,-1.129179448E-1,-1.194959521E0
1.288161652E1,-1.356613278E0,-7.462171912E-1,-1.535843849E0
1.290181120E1,-1.450356483E0,-1.090297341E0,-1.722265005E0
1.292200641E1,-1.382712245E0,-1.091362596E0,-1.594433308E0
1.294220183E1,-1.417333245E0,-5.901560783E-1,-1.503885984E0
1.296239672E1,-1.392832160E0,-3.046653867E-1,-1.395761728E0
1.298258516E1,-1.254880548E0,-4.644549489E-1,-1.149153113E0
1.300277350E1,-1.085503697E0,-9.187898636E-1,-7.885614038E-1
1.302295641E1,-9.081372619E-1,-1.339036345E0,-4.934833944E-1
1.304313975E1,-5.555350184E-1,-1.190432072E0,-1.435442716E-1
1.306332360E1,-2.098569423E-1,-6.828339696E-1,3.981422782E-1
1.308350818E1,-3.994738683E-2,3.728422802E-3,9.350351691E-1
1.310369360E1,-9.321057051E-2,5.400886536E-1,1.202416301E0
1.312387995E1,4.681833684E-1,1.108939409E0,1.242896318E0
1.314406724E1,1.115863681E0,1.488173366E0,1.823464990E0
1.316425547E1,5.645897388E-1,1.047686815E0,2.140380859E0
1.318444464E1,4.143875539E-1,3.547327816E-1,1.341433287E0
1.320463464E1,7.403582335E-1,6.860297918E-1,7.928224802E-1
1.322482537E1,7.504782081E-1,8.245140314E-1,1.017593145E0
1.324501672E1,5.086634159E-1,7.488803267E-1,1.391500592E0
1.326520860E1,5.480781198E-1,7.099981904E-1,1.506016493E0
1.328540079E1,7.685877085E-1,4.719117880E-1,1.229580522E0
1.330559318E1,9.289098978E-1,-2.892190814E-1,1.113999486E0
1.332579641E1,8.804404140E-1,-1.030109882E0,8.199867010E-1
1.334597558E1,8.889625072E-1,-1.043958426E0,5.387570858E-1
1.336615506E1,9.827057123E-1,-1.512674391E-1,8.093340397E-1
1.338633516E1,8.383625150E-1,4.495412707E-1,1.199220538E0
1.340651620E1,6.727139950E-1,2.103895694E-1,1.087900519E0
1.342669850E1,7.089329362E-1,-1.885516644E-1,6.921550632E-1
1.344688225E1,6.876276731E-1,-2.886864543E-1,3.906854391E-1
1.346706756E1,5.193160176E-1,-2.870885432E-1,3.017359376E-1
1.348725443E1,4.836297035E-1,-5.885581374E-1,1.419463754E-1
1.350744287E1,5.225118399E-1,-9.368993640E-1,-1.190432087E-1
1.352763287E1,5.811012983E-1,-6.791055799E-1,-3.182475269E-1
1.354782422E1,4.916191697E-1,9.587372653E-3,-4.460791349E-1
1.356801683E1,2.609896064E-1,5.459476113E-1,-3.837612271E-1
1.358821047E1,1.443432271E-1,5.246423483E-1,-1.573926955E-1
1.360840485E1,2.652506530E-1,2.663159072E-1,1.701758653E-1
1.362859974E1,4.170507193E-1,6.498108059E-2,4.918854833E-1
1.364879485E1,5.400886536E-1,-7.030740380E-2,6.090644598E-1
1.366898922E1,6.407560706E-1,-1.113200486E-1,5.451486707E-1
1.368917756E1,7.813708782E-1,-2.311622053E-1,5.009402037E-1
1.370936047E1,7.611308694E-1,-7.579351068E-1,3.747064769E-1
1.372954381E1,6.503434777E-1,-9.155941010E-1,7.856319100E-2
1.374972766E1,5.986781716E-1,-7.254445553E-1,-1.739042848E-1
1.376991224E1,4.868254960E-1,-6.924213767E-1,-3.166496158E-1
1.379009766E1,1.917474531E-2,-8.069372177E-1,-5.376918316E-1
1.381028402E1,-8.495477438E-1,-4.985433817E-1,-9.962878227E-1
1.383047131E1,-1.548360705E0,8.058719635E-1,-1.271658421E0
1.385065954E1,-1.760348201E0,1.618135452E0,-1.195492148E0
1.387084870E1,-1.718802929E0,1.200552106E0,-1.147022605E0
1.389103870E1,-1.489238620E0,3.872233331E-1,-1.157142639E0
1.391122943E1,-9.795098901E-1,-1.443432271E-1,-9.867004752E-1
1.393142079E1,-3.265033066E-1,-3.078611791E-1,-6.532729268E-1
1.395161266E1,3.728422895E-2,-4.426170290E-1,-5.078644156E-1
1.397180485E1,-9.038761854E-1,-5.406212807E-1,-8.572708964E-1
1.399199724E1,-1.046621561E0,-2.940127552E-1,-9.898962379E-1
1.401220047E1,-5.992107987E-1,-7.350319028E-1,-1.364336371E0
1.403237954E1,-8.575372100E-1,-1.253282666E0,-2.150501013E0
1.405255891E1,-9.587372541E-1,-1.193095326E0,-2.166479826E0
1.407273891E1,-9.241161942E-1,-8.058719635E-1,-1.664740801E0
1.409291985E1,-9.912278056E-1,-6.546044946E-1,-1.457014322E0
1.411310204E1,-9.113330245E-1,-5.842971206E-1,-1.478319645E0
1.413328568E1,-7.302381992E-1,-5.576655269E-1,-1.472460628E0
1.415347089E1,-5.502086878E-1,-7.211834788E-1,-1.328117490E0
1.417365777E1,-4.085285962E-1,-7.771098018E-1,-1.005342603E0
1.419384631E1,-1.938779801E-1,-5.869602561E-1,-5.265065432E-1
1.421403641E1,1.411474347E-1,-2.881538272E-1,-8.122635633E-2
1.423422797E1,4.447475672E-1,-5.912213027E-2,3.512706757E-1
1.425442079E1,6.444845200E-1,1.198421568E-1,7.901592851E-1
1.427461464E1,6.972150803E-1,6.295707822E-1,1.159273148E0
1.429480922E1,3.547327816E-1,1.364070058E0,1.076182604E0
1.431500422E1,4.910865426E-1,1.792838693E0,3.507380486E-1
1.433519943E1,8.857667446E-1,1.743836522E0,3.299654126E-1
1.435539318E1,5.912213027E-2,-1.475390196E-1,1.244494200E0
1.437558152E1,2.721748650E-1,-5.454149842E-1,1.425589085E0
1.439576443E1,5.581981540E-1,7.451519370E-1,1.659414411E0
1.441594777E1,4.016043842E-1,1.453552246E0,2.147837877E0
1.443613162E1,3.957454562E-1,1.243162632E0,2.296974659E0
1.445631620E1,3.850927949E-1,7.739140391E-1,1.981656671E0
1.447650162E1,3.451454341E-1,2.561959028E-1,1.510810137E0
1.449668797E1,5.187833905E-1,-1.613874435E-1,1.193894267E0
1.451687527E1,5.779055357E-1,-2.087916732E-1,1.186969995E0
1.453706350E1,6.040045023E-1,-1.864211448E-2,1.261005878E0
1.455725266E1,7.009434700E-1,-2.130527236E-2,1.186437368E0
1.457744266E1,8.575372100E-1,-1.257011145E-1,1.017060518E0
1.459763339E1,9.134635925E-1,-2.109221965E-1,8.583361506E-1
1.461782474E1,6.961497664E-1,-3.563306928E-1,6.974813938E-1
1.463801662E1,4.287686050E-1,-5.033370852E-1,4.721781015E-1
1.465820881E1,3.344927728E-1,-3.344927728E-1,1.515337527E-1
1.467840120E1,2.492716908E-1,3.834949061E-2,-1.115863696E-1
1.469860443E1,1.528653353E-1,2.386190593E-1,-3.688475490E-1
1.471878350E1,1.246358454E-1,4.820317924E-1,-5.520728827E-1
1.473896287E1,2.029327303E-1,5.049349666E-1,-5.978792310E-1
1.475914287E1,2.801643312E-1,4.793686420E-2,-4.508728385E-1
1.477932381E1,2.801643312E-1,-4.287686050E-1,-1.797632426E-1
1.479950600E1,3.973433375E-1,-3.685812056E-1,7.962846011E-2
1.481968964E1,4.063980877E-1,-2.199769467E-1,2.292979956E-1
1.483987485E1,3.930822909E-1,-1.454084814E-1,2.516685426E-1
1.486006172E1,5.416865349E-1,1.113200486E-1,2.314285189E-1
1.488025027E1,6.061350107E-1,3.201117218E-1,3.464770019E-1
1.490044037E1,6.317013502E-1,3.318296373E-1,5.531381369E-1
1.492063193E1,5.635244846E-1,4.032022953E-1,6.170539856E-1
1.494082474E1,1.976063997E-1,2.460758984E-1,3.576622605E-1
1.496101860E1,-2.066611499E-1,-1.523326933E-1,-6.151897460E-2
1.498121318E1,-2.402169555E-1,-3.185138404E-1,-2.735064328E-1
1.500140818E1,-1.683116555E-1,-4.229096770E-1,-1.856221855E-1
1.502160339E1,-4.436823130E-1,-4.554001987E-1,-3.219759464E-1
1.504179714E1,-1.010935187E0,-2.556632832E-2,-6.745781898E-1
1.506198547E1,-1.542501807E0,6.359623671E-1,-1.026647806E0
1.508216839E1,-1.586177588E0,9.049414396E-1,-1.205612183E0
1.510235172E1,-1.351819515E0,8.586025238E-1,-1.309475303E0
1.512253558E1,-7.808382511E-1,1.133440495E0,-1.314269066E0
1.514272016E1,-2.924148738E-1,1.405615330E0,-1.097487807E0
1.516290558E1,-6.002760530E-1,1.024250984E0,-8.466182947E-1
1.518309193E1,-6.322339773E-1,7.829687744E-2,-5.877591968E-1
1.520327922E1,-4.101265073E-1,-1.447160602E0,-5.067991614E-1
1.522346745E1,-8.926909566E-1,-2.578470707E0,-1.021321535E0
1.524365662E1,-1.362472177E0,-1.494032264E0,-1.844770312E0
1.526384662E1,-1.123853087E0,-1.331579536E-1,-1.796300769E0
1.528403735E1,-1.412539601E0,-5.379581451E-2,-1.278050065E0
1.530422870E1,-1.411474347E0,-3.552654386E-1,-1.139565825E0
1.532442058E1,-1.071122646E0,-2.604569495E-1,-1.386174321E0
1.534461277E1,-8.900277615E-1,-5.161202550E-1,-1.660479665E0
1.536480516E1,-7.078676820E-1,-9.390298724E-1,-1.599759698E0
1.538500839E1,-3.781685829E-1,-8.447540402E-1,-1.099085808E0
1.540518735E1,-2.503369562E-2,-5.773729086E-1,-2.394180000E-1
1.542536662E1,2.290316820E-1,-5.438171029E-1,4.966791868E-1
1.544554652E1,4.245075583E-1,-4.596612751E-1,1.003211975E0
1.546572735E1,4.351601899E-1,7.350318879E-2,1.461275458E0
1.548590943E1,3.312969804E-1,9.438235760E-1,1.364868999E0
1.550609297E1,1.286838531E0,1.730520844E0,1.351020575E0
1.552627808E1,7.068024278E-1,1.793371320E0,1.798964024E0
1.554646485E1,5.811012983E-1,4.511391521E-1,1.157142639E0
1.556665329E1,6.732466221E-1,2.279664129E-1,7.635276914E-1
1.558684329E1,7.089329362E-1,3.339601457E-1,1.222123742E0
1.560703475E1,5.731118321E-1,-4.048001766E-2,1.832519770E0
1.562722745E1,6.215813160E-1,-5.134570599E-1,1.950231433E0
1.564742120E1,5.677855015E-1,-3.371559381E-1,1.621064901E0
1.566761579E1,6.546044946E-1,-1.193095297E-1,1.104944706E0
1.568781089E1,9.629983306E-1,-1.379516423E-1,6.916224360E-1
1.570800620E1,1.152082682E0,-2.077264152E-2,6.314350367E-1
1.572820089E1,1.238901615E0,1.155811027E-1,6.910898089E-1
1.574838922E1,1.143027902E0,9.534109384E-2,7.278413773E-1
1.576857214E1,8.548740745E-1,-1.022653133E-1,6.293044686E-1
1.578875547E1,5.901560783E-1,-2.263685167E-1,3.768370152E-1
1.580893933E1,3.978759646E-1,1.086568907E-1,1.153147891E-1
1.582912391E1,2.524674833E-1,7.872298360E-1,-8.388951421E-2
1.584930933E1,1.225053221E-1,1.221857429E0,-2.016011477E-1
1.586949568E1,9.214530140E-2,9.651288390E-1,-2.596580088E-1
1.588968297E1,5.805686861E-2,4.069307148E-1,-2.484727502E-1
1.590987120E1,5.219791830E-2,1.187768951E-1,-9.400951862E-2
1.593006037E1,1.486042738E-1,2.769685388E-1,3.755054250E-2
1.595025037E1,2.716422379E-1,3.371559381E-1,1.621863842E-1
1.597044110E1,2.886864543E-1,1.374190152E-1,3.134538233E-1
1.599063245E1,2.684464455E-1,1.470063776E-1,3.773696423E-1
1.601082433E1,2.657832801E-1,3.792338669E-1,3.800328076E-1
1.603101652E1,2.972085476E-1,4.719117880E-1,4.609928429E-1
1.605120891E1,5.134570599E-1,1.203747913E-1,5.914876461E-1
1.607141214E1,7.755119205E-1,-6.535392404E-1,5.893571377E-1
1.609159110E1,8.538088202E-1,-1.243162632E0,3.928159773E-1
1.611177037E1,8.058719635E-1,-1.263935328E0,7.004108280E-2
1.613195027E1,7.259771824E-1,-1.054078341E0,-9.294424951E-2
1.615213110E1,3.392864764E-1,-9.523456693E-1,-2.213085145E-1
1.617231318E1,-5.795034170E-1,-6.524739861E-1,-6.234455705E-1
1.619249672E1,-1.496162772E0,2.540653646E-1,-1.276984811E0
1.621268183E1,-1.867939830E0,1.439171195E0,-1.435176492E0
1.623286860E1,-1.753423929E0,1.807219744E0,-1.287104845E0
1.625305704E1,-1.582981825E0,1.381114364E0,-1.291365862E0
1.627324704E1,-1.287371159E0,8.617982864E-1,-1.379782677E0
1.629343850E1,-5.768402815E-1,5.075981021E-1,-1.165132165E0
1.631363120E1,2.689790726E-1,2.002695650E-1,-6.617950201E-1
1.633382495E1,-6.391581893E-2,-7.030739784E-1,-5.376918316E-1
1.635401954E1,-7.808382511E-1,-1.390169024E0,-6.463487148E-1
1.637421464E1,-8.037413955E-1,-1.467400670E0,-7.757782340E-1
1.639440995E1,-1.043425679E0,-1.210139513E0,-1.520930171E0
1.641460464E1,-1.131842613E0,-8.287751079E-1,-2.114814758E0
1.643479297E1,-1.124385715E0,-7.046719193E-1,-1.728123903E0
1.645497589E1,-1.363537431E0,-8.255793452E-1,-1.373923779E0
1.647515922E1,-1.510011196E0,-6.668550372E-1,-1.316399574E0
1.649534308E1,-1.311872125E0,-6.897581816E-1,-1.322258472E0
1.651552766E1,-1.075383663E0,-9.992172718E-1,-1.218927979E0
1.653571308E1,-8.628635406E-1,-8.420909047E-1,-1.062334180E0
1.655589943E1,-5.267728567E-1,-4.527370334E-1,-7.113298178E-1
1.657608672E1,-2.300969511E-1,-3.451454341E-1,-1.355548054E-1
1.659627495E1,-2.663159044E-3,-3.115896285E-1,4.519380927E-1
1.661646412E1,1.906821877E-1,-1.640505940E-1,9.243825078E-1
1.663665412E1,3.009369671E-1,3.781685978E-2,1.246624827E0
1.665684485E1,-1.448758543E-1,4.942823350E-1,1.313203812E0
1.667703620E1,-9.187898636E-1,1.704954505E0,4.732433856E-1
1.669722808E1,9.949562550E-1,2.362754822E0,-1.312937438E-1
1.671742027E1,5.576655269E-1,1.529718637E0,1.033572078E0
1.673761266E1,1.432779580E-1,-5.997434258E-1,1.433578491E0
1.675781589E1,5.107939243E-1,4.735096991E-1,9.851025343E-1
1.677799485E1,8.564719558E-1,1.378451109E0,1.095889926E0
1.679817412E1,8.106656075E-1,1.320926905E0,1.558747053E0
1.681835402E1,8.479498625E-1,1.123853087E0,1.615738630E0
1.683853495E1,7.046719193E-1,5.581981540E-1,1.322258472E0
1.685871714E1,6.663224101E-1,-2.663159184E-2,1.156077385E0
1.687890079E1,6.215813160E-1,-9.214530140E-2,1.265799522E0
1.689908600E1,5.214465261E-1,2.194443047E-1,1.471928000E0
1.691927287E1,4.245075583E-1,4.266380966E-1,1.447426915E0
1.693946141E1,4.351601899E-1,5.534044504E-1,1.236504793E0
1.695965152E1,5.161202550E-1,9.065393806E-1,1.003744721E0
1.697984308E1,4.719117880E-1,9.406278133E-1,7.938877344E-1
1.700003589E1,3.701791167E-1,4.628570378E-1,6.245108247E-1
1.702022974E1,4.122570157E-1,9.800425172E-2,5.131907463E-1
1.704042433E1,5.624592304E-1,-7.563371956E-2,4.849612713E-1
1.706061933E1,6.013413072E-1,-2.167811543E-1,4.354265034E-1
1.708081454E1,4.857602119E-1,-1.384842694E-1,3.699128032E-1
1.710100850E1,4.516717792E-1,-2.098569423E-1,9.560741484E-2
1.712119683E1,5.230444670E-1,2.556632832E-2,-2.825611830E-1
1.714137975E1,3.909517527E-1,5.257076025E-1,-4.876244366E-1
1.716156308E1,1.677790284E-1,7.254445553E-1,-5.392897129E-1
1.718174693E1,2.929474972E-2,5.912213326E-1,-5.089297295E-1
1.720193152E1,2.343579940E-2,5.720465779E-1,-4.647212625E-1
1.722211693E1,1.049284711E-1,6.466150284E-1,-2.745717168E-1
1.724230329E1,1.246358454E-1,3.824296594E-1,1.259674281E-1
1.726249058E1,1.336905807E-1,2.284990549E-1,5.904223919E-1
1.728267881E1,2.162485123E-1,5.342296958E-1,8.093340397E-1
1.730286797E1,2.034653574E-1,5.757750273E-1,7.203845382E-1
1.732305797E1,7.137266546E-2,7.414234877E-1,5.281044245E-1
1.734324870E1,-8.575372398E-2,8.037413955E-1,3.933486044E-1
1.736344006E1,-4.740423337E-2,4.367581010E-1,2.777675092E-1
1.738363193E1,2.753706574E-1,-3.014696240E-1,2.234390527E-1
1.740382412E1,5.060002208E-1,-8.101329803E-1,2.399506420E-1
1.742401652E1,3.573959470E-1,-5.619265437E-1,2.607232630E-1
1.744421974E1,-1.731053442E-1,-1.241032109E-1,7.536740601E-2
1.746439881E1,-7.478150725E-1,2.498043180E-1,-1.792306006E-1
1.748457818E1,-1.240499496E0,5.608612895E-1,-4.034686089E-1
1.750475818E1,-1.598428130E0,6.663224101E-1,-6.772413850E-1
1.752493912E1,-1.689508080E0,7.430213690E-1,-8.562056422E-1
1.754512131E1,-1.566470146E0,9.922930598E-1,-9.062730670E-1
1.756530495E1,-1.198954225E0,1.394430161E0,-9.004141092E-1
1.758549016E1,-6.141244769E-1,1.783783913E0,-8.956204057E-1
1.760567704E1,-4.436823130E-1,1.671931267E0,-8.759130239E-1
1.762586558E1,-1.033838391E0,1.101482630E0,-8.492814302E-1
1.764605568E1,-1.210672140E0,7.574024200E-1,-6.021402478E-1
1.766624724E1,-9.582046270E-1,2.993390858E-1,-2.500706315E-1
1.768644006E1,-6.716487408E-1,-4.836297035E-1,-3.462106921E-3
1.770663391E1,-5.491434336E-1,-9.097351432E-1,6.578002870E-2
1.772682850E1,-8.181225061E-1,-4.010717571E-1,-9.187898785E-2
1.774702350E1,-9.219856858E-1,5.102612972E-1,-3.443464637E-1
1.776721870E1,-6.412886977E-1,1.024250984E0,-4.966791868E-1
1.778741245E1,-4.340949357E-1,1.110004663E0,-5.046686530E-1
1.780760079E1,-2.865559161E-1,7.669898272E-1,-4.604602158E-1
1.782778370E1,-1.555284858E-1,4.138549268E-1,-3.901528120E-1
1.784796704E1,-5.858949851E-3,2.593916953E-1,-1.643169224E-1
1.786815089E1,9.640636295E-2,1.502021700E-1,2.223737836E-1
1.788833547E1,8.628635854E-2,5.539371073E-2,6.069339514E-1
1.790852089E1,5.912213027E-2,1.970737800E-2,9.297088385E-1
1.792870725E1,6.072002649E-2,-7.776424289E-2,1.200285792E0
1.794889454E1,8.948214352E-2,-2.583264410E-1,1.459144831E0
1.796908277E1,1.315600574E-1,-3.861580789E-1,1.552355409E0
1.798927193E1,1.805621833E-1,-2.759032845E-1,1.280713201E0
1.800946193E1,2.274337858E-1,4.463454783E-1,8.727172613E-1
1.802965266E1,1.368863732E-1,1.080709934E0,5.217128396E-1
1.804984402E1,1.022653133E-1,6.748445034E-1,2.103895694E-2
1.807003589E1,2.402169555E-1,1.209074259E-1,-3.747064769E-1
1.809022808E1,8.724509478E-1,1.750760794E0,-4.423507154E-1
1.811042047E1,6.652571559E-1,3.315633059E0,-2.548643351E-1
1.813062370E1,-9.587372839E-2,2.308426380E0,-7.163897902E-2
1.815080277E1,6.018739566E-2,-4.032022953E-1,-1.408811212E-1
1.817098214E1,2.434127480E-1,-2.916691780E0,-2.005358785E-1
1.819116214E1,2.018674612E-1,-3.524424791E0,-1.904158741E-1
1.821134308E1,-1.193095297E-1,-1.665007114E0,-2.628538013E-1
1.823152527E1,-2.247706354E-1,2.077796698E0,-4.524707198E-1
1.825170891E1,4.985433817E-1,4.255728245E0,-7.374287844E-1
1.827189412E1,7.744466662E-1,2.150767326E0,-3.848264813E-1
1.829208100E1,-1.896169335E-1,-1.027979404E-1,2.596580088E-1
1.831226954E1,-5.054675937E-1,2.668485343E-1,4.061317742E-1
1.833245964E1,-1.597895473E-2,6.620613337E-1,4.444812536E-1
1.835265120E1,2.189116776E-1,4.308991432E-1,5.291697383E-1
1.837284402E1,4.090612531E-1,4.154528081E-1,5.376918316E-1
1.839303787E1,7.201182246E-1,3.025348783E-1,3.603254259E-1
1.841323245E1,8.761793375E-1,-7.456845790E-2,6.098634377E-2
1.843342745E1,9.251814485E-1,1.848232448E-1,-1.424790174E-1
1.845362266E1,8.500803709E-1,8.122635484E-1,-9.507478029E-2
1.847381641E1,7.057371736E-1,9.448888302E-1,6.205160543E-2
1.849400474E1,4.628570378E-1,5.661876202E-1,1.659148186E-1
1.851418766E1,2.695116997E-1,4.649875760E-1,4.130559862E-1
1.853437100E1,1.960085034E-1,5.512739420E-1,5.973466039E-1
1.855455485E1,1.997369379E-1,5.075981021E-1,5.094623566E-1
1.857473943E1,1.810948253E-1,4.048001766E-1,4.135886133E-1
1.859492485E1,4.207791388E-2,1.320926845E-1,3.571296334E-1
1.861511120E1,1.544632297E-2,4.261054564E-3,2.601906359E-1
1.863529850E1,-2.982738242E-2,-4.261054471E-2,1.411474310E-2
1.865548672E1,-4.793686420E-2,1.890842915E-1,-3.113232851E-1
1.867567589E1,4.367581010E-2,7.595329881E-1,-6.037381887E-1
1.869586589E1,-7.137266546E-2,1.279381633E0,-6.852308512E-1
1.871605672E1,-7.568697929E-1,1.118526816E0,-4.775044322E-1
1.873624818E1,-1.160072088E0,7.446193099E-1,-4.743086398E-1
1.875644016E1,-1.121189952E0,8.309056610E-2,-7.331677079E-1
1.877663245E1,-1.232510090E0,-2.743053734E-1,-9.403614998E-1
1.879682495E1,-1.520131230E0,-1.677790284E-1,-9.930920005E-1
1.881702829E1,-1.780055523E0,2.492716908E-1,-9.419593811E-1
1.883720683E1,-1.994173527E0,9.811078310E-1,-9.318393469E-1
1.885738568E1,-2.488455772E0,1.198421597E0,-1.027713060E0
1.887756527E1,-2.631733894E0,1.037566781E0,-1.020788908E0
1.889774589E1,-1.927061915E0,1.613874435E0,-8.482161760E-1
1.891792777E1,-1.553686976E0,1.782186031E0,-5.286371112E-1
1.893811110E1,-1.344895363E0,9.390298724E-1,-1.419463754E-1
1.895829610E1,-1.095623612E0,9.587372653E-3,2.138516754E-1
1.897848277E1,-9.725856781E-1,1.667137593E-1,3.336938322E-1
1.899867110E1,-8.596677780E-1,2.593916953E-1,3.012032807E-1
1.901886110E1,-9.795098901E-1,-1.209074259E-1,8.388951421E-2
1.903905266E1,-1.030642629E0,1.821600795E-1,-9.827057272E-2
1.905924558E1,-8.133288026E-1,8.868319988E-1,-1.073253155E-1
1.907943954E1,-6.348971128E-1,9.470193982E-1,2.743053809E-2
1.909963433E1,-6.418213248E-1,3.691138625E-1,1.227716357E-1
1.911982964E1,-7.403582335E-1,4.154528305E-2,1.270326823E-1
1.914002516E1,-6.695181727E-1,4.074633420E-1,2.596580088E-1
1.916022037E1,-3.771033287E-1,9.012130499E-1,5.888244510E-1
1.918040881E1,-1.336905807E-1,9.070720077E-1,9.584709406E-1
1.920059714E1,-2.663159044E-3,4.223770201E-1,1.242363691E0
1.922078006E1,1.059937328E-1,-1.027979404E-1,1.332378507E0
1.924096339E1,2.561959028E-1,-1.544632316E-1,1.253016353E0
1.926114724E1,5.097286701E-1,5.193160176E-1,1.166197419E0
1.928133183E1,4.932170510E-1,1.070057273E0,8.519446254E-1
1.930151724E1,7.084003091E-2,8.346340656E-1,3.808317333E-2
1.932170360E1,3.994738683E-2,4.308991432E-1,-5.547360182E-1
1.934189089E1,3.797664940E-1,7.243792713E-2,-8.961530328E-1
1.936207912E1,6.604634523E-1,-2.423474789E-1,-9.163930416E-1
1.938226829E1,7.030739784E-1,-3.973433375E-1,-7.182540298E-1
1.940245829E1,6.817687154E-1,-4.772381186E-1,-6.255760789E-1
1.942264902E1,9.086698890E-1,-4.090612531E-1,-3.757717609E-1
1.944284037E1,8.223835230E-1,-9.693899006E-2,1.808284968E-1
1.946303224E1,2.055958807E-1,7.494129539E-1,7.470161319E-1
1.948322443E1,-4.932170510E-1,1.778457642E0,1.183241606E0
1.950341683E1,-9.475520253E-1,1.349156380E0,1.579519629E0
1.952362006E1,-4.894886315E-1,9.193225503E-1,1.074584723E0
1.954379912E1,-1.278316379E-1,1.715607047E0,3.576622605E-1
1.956397850E1,-2.343579978E-1,1.896701932E0,-9.134636074E-2
1.958415850E1,-5.123918056E-1,8.681898713E-1,-1.744369268E-1
1.960433943E1,-5.219792128E-1,-6.370276809E-1,-5.938844755E-2
1.962452162E1,6.444845349E-2,-9.139962196E-1,4.181159660E-2
1.964470527E1,1.202682614E0,3.616569936E-1,2.335590571E-1
1.966489047E1,1.650093436E0,7.781751156E-1,2.990727723E-1
1.968507735E1,1.791773438E0,6.711161137E-1,3.283675313E-1
1.970526589E1,1.810948133E0,8.378298283E-1,3.784348965E-1
1.972545600E1,8.096003532E-1,3.494064808E-1,2.383527458E-1
1.974564756E1,-2.274337858E-1,-3.302317113E-2,2.316948399E-2
1.976584037E1,-5.081307292E-1,7.653919458E-1,-1.227716357E-1
1.978603422E1,-5.416865349E-1,1.432246923E0,-1.030642539E-1
1.980622881E1,-5.017392039E-1,1.365135312E0,-8.388951421E-2
1.982642381E1,-2.972085476E-1,1.225053191E0,-3.808317333E-2
1.984661902E1,-1.970737800E-2,1.238901615E0,-6.125265732E-3
1.986681277E1,2.087916732E-1,1.285240531E0,1.198421605E-2
1.988700110E1,3.994738758E-1,1.184573174E0,6.791055948E-2
1.990718402E1,4.532696903E-1,9.337036014E-1,1.573926955E-1
1.992736735E1,2.508696020E-1,8.319709301E-1,2.404832691E-1
1.994755120E1,-8.362319320E-2,1.100417376E0,3.491401672E-1
1.996773579E1,-2.471411675E-1,1.480716467E0,4.535360038E-1
1.998792120E1,-2.157158852E-1,1.489238620E0,5.808349848E-1
2.000810756E1,-6.285055727E-2,1.385375381E0,6.719150543E-1
2.002829485E1,-1.017326787E-1,1.300686955E0,7.374287844E-1
2.004848308E1,-4.708465338E-1,1.063665748E0,7.768434882E-1
2.006867225E1,-6.253097653E-1,3.946801722E-1,6.479465961E-1
2.008886224E1,-3.845601678E-1,-3.707117438E-1,2.969422340E-1
2.010905297E1,-8.681898564E-2,-4.133222997E-1,-3.491401672E-1
2.012924433E1,-1.581916511E-1,-5.006739125E-2,-1.268462658E0
2.014943620E1,-4.745749533E-1,2.647180259E-1,-1.873532414E0
2.016962839E1,-1.381646991E0,-7.989477366E-2,-1.862879753E0
2.018982079E1,-2.263685226E0,-3.222422600E-1,-1.681784987E0
2.021002402E1,-2.603504419E0,4.037349224E-1,-1.439437509E0
2.023020297E1,-2.872483492E0,1.369396448E0,-9.052077532E-1
2.025038224E1,-2.893255949E0,1.998967171E0,-4.098601937E-1
2.027056224E1,-2.426137924E0,2.343580008E0,-3.981422782E-1
2.029074318E1,-2.011750460E0,2.041045189E0,-4.546012580E-1
2.031092537E1,-1.685779691E0,8.538088202E-1,-4.439486265E-1
2.033110902E1,-1.356613278E0,-5.821665525E-1,-3.848264813E-1
2.035129422E1,-9.949562550E-1,-7.595329881E-1,-2.623211741E-1
2.037148110E1,-8.042740226E-1,4.580633715E-2,-4.380896688E-1
2.039166964E1,-1.038099408E0,3.589938581E-1,-1.032506824E0
2.041185974E1,-1.453019619E0,2.274337858E-1,-1.325986862E0
2.043205131E1,-1.651691318E0,-1.757684946E-1,-9.675257206E-1
2.045224412E1,-1.592569113E0,-4.415517747E-1,-5.014728308E-1
2.047243797E1,-1.614407063E0,1.842906028E-1,-4.247738719E-1
2.049263256E1,-1.588308096E0,5.597960353E-1,-5.920202732E-1
2.051282756E1,-1.444497466E0,5.837644935E-1,-8.471509218E-1
2.053302277E1,-1.276185870E0,5.720465779E-1,-1.150750995E0
2.055321652E1,-1.067394137E0,5.193160176E-1,-1.465003848E0
2.057340485E1,-7.930887938E-1,7.243792713E-2,-1.611477613E0
2.059358777E1,-5.406212807E-1,-7.803056240E-1,-1.230113149E0
2.061377110E1,-2.684464455E-1,-1.294295311E0,-6.713824272E-1
2.063395495E1,-3.994738683E-2,-1.465802789E0,-4.572644234E-1
2.065413954E1,5.912213027E-2,-1.426388025E0,-2.537990510E-1
2.067432495E1,1.571263820E-1,-1.228248954E0,-8.282424510E-2
2.069451131E1,2.146506310E-1,-8.388951421E-1,1.145158429E-2
2.071469860E1,1.997369379E-1,-3.536675274E-1,6.418213248E-2
2.073488683E1,2.535327375E-1,1.544632297E-2,2.852243483E-1
2.075507600E1,2.881538272E-1,1.986716688E-1,5.052012801E-1
2.077526600E1,1.043958366E-1,4.591286182E-1,4.641886353E-1
2.079545672E1,-3.723096550E-1,8.053393364E-1,1.997369342E-2
2.081564808E1,-3.020022511E-1,6.460824013E-1,-3.145190775E-1
2.083583995E1,4.282359779E-1,-1.123853177E-1,6.383592486E-1
2.085603214E1,2.316948473E-1,-6.551371515E-2,1.553420663E0
2.087622454E1,4.649875760E-1,6.530066133E-1,1.035169959E0
2.089642777E1,5.203812718E-1,1.510011196E0,1.179513216E0
2.091660662E1,6.380929351E-1,2.080992460E0,1.932121873E0
2.093678579E1,7.643266916E-1,2.803773880E0,2.105759859E0
2.095696568E1,6.780403256E-1,3.104710817E0,1.892174602E0
2.097714662E1,7.110635042E-1,2.597112656E0,1.518799663E0
2.099732881E1,7.451519370E-1,1.496162772E0,1.266864777E0
2.101751245E1,6.434192657E-1,4.101265073E-1,1.299355268E0
2.103769766E1,6.663224101E-1,1.443432271E-1,1.420262694E0
2.105788454E1,8.074698448E-1,6.615287066E-1,1.452220678E0
2.107807308E1,9.294425249E-1,1.026914120E0,1.347824812E0
2.109826318E1,9.150614738E-1,9.880320430E-1,1.093226790E0
2.111845474E1,7.179877162E-1,8.394277692E-1,8.333024979E-1
2.113864756E1,5.139896870E-1,6.428865790E-1,6.538055539E-1
2.115884141E1,4.612591565E-1,3.030675054E-1,5.355613232E-1
2.117903600E1,4.479433596E-1,1.438105945E-2,4.514054656E-1
2.119923100E1,4.101265073E-1,6.444845349E-2,4.189149141E-1
2.121942620E1,3.115896285E-1,3.440801501E-1,4.125233591E-1
2.123961995E1,1.954758763E-1,4.122570157E-1,3.368896246E-1
2.125980829E1,1.661811322E-1,6.924213469E-2,2.239716798E-1
2.127999120E1,2.002695650E-1,-2.695116997E-1,8.602003753E-2
2.130017454E1,3.051980436E-1,-7.616634667E-2,-5.566002429E-2
2.132035839E1,3.776359558E-1,5.438171029E-1,-1.392832249E-1
2.134054297E1,3.227748871E-1,9.033435583E-1,-2.420811653E-1
2.136072839E1,1.475390196E-1,8.064045906E-1,-3.012032807E-1
2.138091475E1,2.556632832E-2,5.129244328E-1,-2.005358785E-1
2.140110204E1,1.155811027E-1,2.476737946E-1,-1.057274193E-1
2.142129027E1,2.940127552E-1,1.683116555E-1,-1.057274193E-1
2.144147943E1,3.850927949E-1,2.668485343E-1,-1.163800508E-1
2.146166943E1,3.110569715E-1,3.765707016E-1,1.677790284E-2
2.148186016E1,2.066611499E-1,3.771033287E-1,2.079927325E-1
2.150205152E1,1.747032404E-1,3.051980436E-1,3.166496158E-1
2.152224339E1,1.539305896E-1,2.609896064E-1,4.226433635E-1
2.154243558E1,1.581916511E-1,2.732401192E-1,5.211802125E-1
2.156262797E1,2.215748429E-1,2.844253778E-1,5.520728827E-1
2.158283120E1,2.695116997E-1,2.881538272E-1,6.314350367E-1
2.160300985E1,3.190464675E-1,1.912148297E-1,7.576687932E-1
2.162318881E1,2.588590682E-1,2.498043180E-1,8.849677444E-1
2.164336850E1,1.629853398E-1,4.133222997E-1,9.653951526E-1
2.166354922E1,1.592569202E-1,3.653854430E-1,8.950877786E-1
2.168373120E1,1.177116334E-1,3.584612012E-1,6.889592409E-1
2.170391464E1,8.522108942E-2,2.498043180E-1,3.374222517E-1
2.172409974E1,3.307643533E-1,1.155811027E-1,7.962846011E-2
2.174428652E1,3.488738537E-1,7.243792713E-2,3.861580789E-2
2.176447495E1,-4.474107176E-2,1.006674170E-1,8.495477587E-2
2.178466495E1,-4.090612531E-1,2.663159184E-2,1.648495495E-1
2.180485641E1,-5.890907645E-1,-2.231727391E-1,1.025316268E-1
2.182504912E1,-7.275750637E-1,-3.616569936E-1,-7.190529723E-3
2.184524287E1,-8.697877526E-1,-2.013348341E-1,-2.031990439E-1
2.186543745E1,-1.038099408E0,2.561959028E-1,-4.838960171E-1
2.188563256E1,-1.215998411E0,6.615287066E-1,-8.285087943E-1
2.190582787E1,-1.365667939E0,1.023185730E0,-1.218395233E0
2.192602308E1,-1.616537571E0,1.409343839E0,-1.418132186E0
2.194621141E1,-1.597895503E0,2.036784172E0,-1.293496370E0
2.196639433E1,-1.267663717E0,2.118809462E0,-1.073519468E0
2.198657766E1,-1.072720528E0,1.071655273E0,-9.643298984E-1
2.200676152E1,-1.268728971E0,-2.183790505E-2,-7.624624372E-1
2.202694610E1,-1.274587989E0,4.522044063E-1,-3.384875357E-1
2.204713152E1,-1.074318409E0,6.812360883E-1,-2.245043069E-1
2.206731787E1,-8.468846083E-1,-5.661876202E-1,-5.558013320E-1
2.208750516E1,-1.201617360E0,-1.391234279E0,-1.273256421E0
2.210769339E1,-1.508945942E0,-5.699160695E-1,-1.975265145E0
2.212788256E1,-1.280446887E0,6.668550372E-1,-2.158490419E0
2.214807256E1,-1.210139513E0,6.103960872E-1,-1.975265145E0
2.216826329E1,-1.082307816E0,-1.214400530E-1,-1.862347126E0
2.218845464E1,-1.051415205E0,-1.331579536E-1,-1.787778735E0
2.220864652E1,-1.063665748E0,-1.874863952E-1,-1.590704918E0
2.222883870E1,-9.390298724E-1,-6.162550449E-1,-1.163001537E0
2.224903110E1,-8.143940568E-1,-1.205345869E0,-6.016076207E-1
2.226923433E1,-5.970802903E-1,-1.247423768E0,-1.195758432E-1
2.228941297E1,-3.595264852E-1,-8.500803709E-1,2.133190483E-1
2.230959193E1,-2.055958807E-1,-5.012065172E-1,5.201149583E-1
2.232977162E1,-1.810948178E-2,-2.519348562E-1,8.737825155E-1
2.234995235E1,1.443432271E-1,-1.251684725E-1,1.238102674E0
2.237013433E1,-4.314317927E-2,1.725727171E-1,1.544898629E0
2.239031777E1,-1.158474207E0,1.551023841E0,1.166197419E0
2.241050287E1,-1.054610983E-1,3.282609940E0,-2.396843163E-3
2.243068964E1,1.751293421E0,4.214182854E0,2.506032586E-1
2.245087808E1,-1.102547869E-1,1.568068027E0,1.063932061E0
2.247106808E1,-1.512674391E-1,-1.233042717E0,1.344629049E0
2.249125954E1,5.406212807E-1,-7.084003091E-2,1.590704918E0
2.251145224E1,7.153245211E-1,1.115331054E0,2.030658722E0
2.253164600E1,7.861645818E-1,1.157408953E0,2.313486338E0
2.255184058E1,7.430213690E-1,7.547392845E-1,1.800029278E0
2.257203568E1,7.163897753E-1,1.219726875E-1,1.012266755E0
2.259223100E1,7.408908606E-1,-3.653854430E-1,7.102645040E-1
2.261242610E1,6.988129616E-1,-2.790990770E-1,8.317046165E-1
2.263261443E1,5.848297477E-1,1.480716467E-1,9.488835931E-1
2.265279735E1,6.673876643E-1,5.635244846E-1,9.558078051E-1
2.267298068E1,9.363667369E-1,8.910930157E-1,9.531446695E-1
2.269316454E1,9.347688556E-1,6.844319105E-1,8.775109053E-1
2.271334912E1,6.386255622E-1,1.949432492E-1,7.560708523E-1
2.273353454E1,5.880255103E-1,-5.858949851E-3,6.303697824E-1
2.275372089E1,6.524739861E-1,-1.304948032E-1,4.604602158E-1
2.277390818E1,5.688507557E-1,-1.283642650E-1,3.012032807E-1
2.279409641E1,3.882885873E-1,1.725727171E-1,1.691105962E-1
2.281428558E1,2.519348562E-1,4.319643974E-1,2.849580161E-2
2.283447558E1,2.711096108E-1,4.692486227E-1,-7.536740601E-2
2.285466631E1,2.881538272E-1,3.584612012E-1,-6.205160543E-2
2.287485766E1,2.641853690E-1,1.704421826E-2,-4.394212365E-2
2.289504954E1,2.966759205E-1,-1.885516644E-1,-5.992107838E-2
2.291524172E1,2.008021921E-1,-1.022653133E-1,-1.004010960E-1
2.293543412E1,4.101264849E-2,2.732401192E-1,-1.712411344E-1
2.295563735E1,4.048001766E-2,6.285055280E-1,-1.696432382E-1
2.297581589E1,8.309056610E-2,5.214465261E-1,1.062600464E-1
2.299599474E1,1.693769246E-1,3.526022732E-1,3.970770240E-1
2.301617433E1,2.194443047E-1,2.902843356E-1,5.605949759E-1
2.303635495E1,1.661811322E-1,2.476737946E-1,5.243760347E-1
2.305653683E1,1.363537461E-1,-2.269011587E-1,2.308958918E-1
2.307672016E1,2.753706574E-1,-6.721813679E-1,-1.541969180E-1
2.309690516E1,5.816339254E-1,-9.837709665E-1,-3.262369931E-1
2.311709183E1,8.836361766E-1,-1.194160581E0,-3.187801540E-1
2.313728016E1,4.894886315E-1,-1.015728831E0,-9.028109163E-2
2.315747016E1,-6.311687231E-1,-4.910865426E-1,-1.009337306E-1
2.317766162E1,-1.424257517E0,5.081307292E-1,-8.221172094E-1
2.319785443E1,-1.655419707E0,1.787512422E0,-1.142228961E0
2.321804829E1,-1.660745978E0,2.136918783E0,-1.011734128E0
2.323824297E1,-1.548360705E0,1.540903807E0,-1.011734128E0
2.325843818E1,-1.161669970E0,6.689855456E-1,-1.124652147E0
2.327863360E1,-4.751075804E-1,-2.087916732E-1,-1.000548840E0
2.329882360E1,-5.805686861E-2,-7.675224543E-1,-6.905571818E-1
2.331901370E1,-1.098286867E0,-1.139299512E0,-7.033402920E-1
2.333921464E1,-1.427985907E0,-9.960214794E-2,-6.159886718E-1
2.335939391E1,-1.110004663E0,4.767054915E-1,-7.400919199E-1
2.337957350E1,-1.131842613E0,-3.233075142E-1,-1.383511186E0
2.339975370E1,-1.265533209E0,-9.203878045E-1,-1.885250330E0
2.341993485E1,-1.167528987E0,-7.856319547E-1,-1.761147141E0
2.344011724E1,-1.104145765E0,-6.103960872E-1,-1.484178543E0
2.346030100E1,-1.022120476E0,-5.704486966E-1,-1.324921608E0
2.348048631E1,-8.394277692E-1,-3.382211924E-1,-1.257809997E0
2.350067318E1,-7.680550814E-1,-4.074633420E-1,-1.179513216E0
2.352086162E1,-6.125265956E-1,-6.024065614E-1,-8.732498884E-1
2.354105152E1,-3.776359558E-1,-7.339666486E-1,-4.024033546E-1
2.356124277E1,-1.810948253E-1,-6.759097576E-1,-8.788425475E-3
2.358143527E1,-1.012000442E-2,-4.900212884E-1,2.596580088E-1
2.360162870E1,2.524674833E-1,-4.165180922E-1,5.376918316E-1
2.362182287E1,2.487390637E-1,-6.498108059E-2,8.657930493E-1
2.364201756E1,1.571263820E-1,7.360971570E-1,8.114646077E-1
2.366221245E1,1.185638428E0,1.548893332E0,5.563339591E-1
2.368240693E1,1.023718357E0,1.601623893E0,1.763277650E0
2.370259527E1,6.609960794E-1,-1.086568907E-1,1.872467160E0
2.372277818E1,8.117309213E-1,-5.044023395E-1,1.120391011E0
2.374296152E1,1.038099408E0,1.581916511E-1,1.175784707E0
2.376314537E1,1.089232087E0,3.408843577E-1,1.592835426E0
2.378332995E1,8.420909047E-1,1.597895473E-2,1.767006040E0
2.380351537E1,5.507413149E-1,-5.379581451E-2,1.484178543E0
2.382370172E1,5.635244846E-1,3.430148959E-1,9.637972713E-1
2.384388902E1,8.617982864E-1,5.155876279E-1,7.890940309E-1
2.386407724E1,8.809730411E-1,2.066611499E-1,9.840372801E-1
2.388426641E1,8.016108871E-1,1.012000442E-2,1.136369944E0
2.390445641E1,8.202530146E-1,1.033305749E-1,1.110803604E0
2.392464714E1,8.431561589E-1,1.214400530E-1,9.893636107E-1
2.394483850E1,8.287751079E-1,-7.190529257E-2,7.880287766E-1
2.396503037E1,7.456845641E-1,-3.435475230E-1,5.733781457E-1
2.398522256E1,6.881603003E-1,-4.213117659E-1,3.592601717E-1
2.400541485E1,6.450171471E-1,-3.051980436E-1,1.115863696E-1
2.402561797E1,5.171855092E-1,-1.954758763E-1,-7.909582555E-2
2.404579652E1,4.772381186E-1,-7.723161578E-2,-2.830938101E-1
2.406597537E1,5.768402815E-1,2.609895915E-2,-4.061317742E-1
2.408615495E1,4.703139067E-1,6.817687303E-2,-3.709780574E-1
2.410633558E1,2.231727391E-1,4.207791388E-2,-2.250369489E-1
2.412651745E1,2.327601016E-1,5.060002208E-2,-1.121189967E-1
2.414670079E1,2.833601236E-1,1.470063776E-1,7.163897902E-2
2.416688579E1,3.009369671E-1,-6.498108059E-2,3.150517344E-1
2.418707245E1,3.957454562E-1,-9.214530140E-2,4.700475931E-1
2.420726079E1,5.017392039E-1,1.043958366E-1,5.195823312E-1
2.422745079E1,5.922865868E-1,2.151832581E-1,5.206475854E-1
2.424764224E1,5.704486966E-1,-2.274337858E-1,4.253064990E-1
2.426783506E1,4.655202031E-1,-8.367645741E-1,1.472726911E-1
2.428802891E1,3.914843798E-1,-1.012000442E0,-2.037316710E-1
2.430822360E1,3.760380745E-1,-9.747162461E-1,-3.725759685E-1
2.432841881E1,1.272990108E-1,-9.502151608E-1,-4.061317742E-1
2.434861422E1,-6.221139431E-1,-5.006738901E-1,-5.861613154E-1
2.436880933E1,-1.433844805E0,5.651223660E-1,-1.094824672E0
2.438899766E1,-1.719868183E0,1.626657605E0,-1.280180573E0
2.440918058E1,-1.634647012E0,1.510011196E0,-1.199753165E0
2.442936391E1,-1.502021790E0,7.803056240E-1,-1.248222709E0
2.444954777E1,-1.007206798E0,3.286338449E-1,-1.279647946E0
2.446973235E1,-6.977476925E-2,1.683116555E-1,-1.056475163E0
2.448991777E1,5.299686790E-1,-2.077264152E-2,-7.150582075E-1
2.451010412E1,-2.759032845E-1,-1.091895223E0,-7.843003273E-1
2.453029141E1,-9.672594070E-1,-1.525457501E0,-9.467530847E-1
2.455047964E1,-8.293077350E-1,-6.870950460E-1,-1.142228961E0
2.457066881E1,-1.062067866E0,-1.049284711E-1,-1.732385039E0
2.459085881E1,-1.198421597E0,-3.792338669E-1,-2.073269367E0
2.461104954E1,-1.389103770E0,-5.901560783E-1,-1.856488228E0
2.463124089E1,-1.309208989E0,-5.677855015E-1,-1.581117511E0
2.465143277E1,-1.151017308E0,-5.438171029E-1,-1.596563935E0
2.467162495E1,-1.076981544E0,-6.519413590E-1,-1.544366002E0
2.469181725E1,-8.554067016E-1,-1.129712105E0,-1.132641554E0
2.471202037E1,-5.358276367E-1,-1.184573174E0,-5.057339072E-1
2.473219881E1,-2.838927507E-1,-8.591351509E-1,7.696529478E-2
2.475237756E1,-2.876211889E-2,-6.348971128E-1,4.684496820E-1
2.477255704E1,2.364885211E-1,-3.968107104E-1,8.801741004E-1
2.479273756E1,2.508696020E-1,2.838927507E-1,1.290833235E0
2.481291943E1,7.669898123E-2,1.294295311E0,1.047953129E0
2.483310277E1,1.264467955E0,1.627722859E0,4.764391780E-1
2.485328777E1,4.522044063E-1,1.323590040E0,1.323856354E0
2.487347443E1,6.604634225E-2,-4.010717571E-1,1.721732378E0
2.489366277E1,4.719117880E-1,1.603221744E-1,1.500690103E0
2.491385277E1,5.336970687E-1,7.307708859E-1,1.769669175E0
2.493404422E1,3.611243665E-1,6.599308252E-1,2.138782978E0
2.495423704E1,2.775011659E-1,4.777707458E-1,2.045572519E0
2.497443089E1,2.775011659E-1,6.466150284E-1,1.511342764E0
2.499462558E1,6.769750714E-1,7.227813601E-1,9.952225685E-1
2.501482079E1,9.384972453E-1,4.223770201E-1,9.073383212E-1
2.503501620E1,8.761793375E-1,2.460758984E-1,1.042626739E0
2.505521152E1,8.271772265E-1,4.133222997E-1,1.135837317E0
2.507539985E1,8.341014385E-1,3.850927949E-1,1.114532113E0
2.509558277E1,8.282424808E-1,-2.183790505E-2,1.004277349E0
2.511576610E1,7.648593187E-1,-5.715139508E-1,7.693866491E-1
2.513594995E1,7.483476996E-1,-7.536740303E-1,3.837612271E-1
2.515613454E1,7.217161059E-1,-3.462106884E-1,-2.476738021E-2
2.517631995E1,5.789707899E-1,2.375537902E-1,-2.548643351E-1
2.519650631E1,3.755054474E-1,5.187833905E-1,-3.267696202E-1
2.521669360E1,2.785664499E-1,2.918822467E-1,-3.795001805E-1
2.523688183E1,2.247706354E-1,6.498108059E-2,-3.832286000E-1
2.525707100E1,1.773663908E-1,1.257011145E-1,-2.346243113E-1
2.527726100E1,2.215748429E-1,2.711096108E-1,-2.530001104E-2
2.529745172E1,3.286338449E-1,2.407495826E-1,1.914811432E-1
2.531764308E1,5.933518410E-1,4.207791388E-2,3.997401893E-1
2.533783495E1,7.733814120E-1,3.621896356E-2,5.904223919E-1
2.535802714E1,8.032087684E-1,2.423474789E-1,6.106624007E-1
2.537821943E1,8.032087684E-1,2.567285299E-1,5.669865608E-1
2.539842256E1,7.153245211E-1,1.288969070E-1,4.535360038E-1
2.541860089E1,3.685812056E-1,5.858949851E-3,1.744369268E-1
2.543877954E1,2.290316857E-2,-2.380864173E-1,-2.085253596E-1
2.545895891E1,4.474107176E-2,-3.920170069E-1,-4.822981060E-1
2.547913933E1,5.805686861E-2,-5.763076544E-1,-5.680518150E-1
2.549932110E1,-5.012065172E-1,-3.238401413E-1,-8.274435401E-1
2.551950443E1,-1.300154328E0,5.832318664E-1,-1.337704778E0
2.553968943E1,-1.625059724E0,1.508945942E0,-1.539039612E0
2.555987620E1,-1.408811212E0,1.678322911E0,-1.394696474E0
2.558006474E1,-9.400951862E-1,1.168061614E0,-1.211471081E0
2.560025495E1,-7.893603444E-1,2.412822098E-1,-9.968204498E-1
2.562044662E1,-1.176583648E0,-4.452801943E-1,-7.241129875E-1
2.564063964E1,-1.373657465E0,-2.950780392E-1,-4.535360038E-1
2.566083370E1,-1.324655294E0,-1.006674170E-1,-4.024033546E-1
2.568102860E1,-1.527055383E0,-7.936213911E-2,-8.913593292E-1
2.570122402E1,-1.600558639E0,-1.283642650E-1,-1.712677598E0
2.572141964E1,-1.634114385E0,-9.427583218E-2,-2.241580963E0
2.574161370E1,-1.635712266E0,-3.499391079E-1,-1.901761889E0
2.576180193E1,-1.671931267E0,-3.909517527E-1,-1.664208174E0
2.578198475E1,-1.627190232E0,-2.125200927E-1,-1.609347105E0
2.580216797E1,-1.444497466E0,-1.107341528E0,-1.281245828E0
2.582235183E1,-1.161137342E0,-2.085786104E0,-8.151929975E-1
2.584253641E1,-7.478150725E-1,-1.686312318E0,-3.384875357E-1
2.586272183E1,-2.492716908E-1,-6.226465702E-1,1.083905771E-1
2.588290818E1,2.396843135E-1,1.507348120E-1,6.186518669E-1
2.590309547E1,2.828274965E-1,6.562023759E-1,1.138500571E0
2.592328370E1,4.793686420E-2,1.496695399E0,9.361004233E-1
2.594347287E1,1.675659657E0,2.322274685E0,1.078845739E0
2.596366287E1,1.065263674E-1,1.138766885E0,2.046105146E0
2.598385360E1,1.731053442E-1,2.135853618E-1,1.471928000E0
2.600404495E1,8.021435142E-1,1.255945802E0,1.126250029E0
2.602423683E1,6.620613337E-1,1.004011035E0,1.684448123E0
2.604442902E1,4.596612751E-1,1.360341668E0,2.030658722E0
2.606462141E1,3.611243665E-1,1.967541933E0,1.967808247E0
2.608482464E1,3.137201369E-1,1.657550216E0,1.697231293E0
2.610500308E1,5.384907722E-1,9.725856781E-1,1.320127964E0
2.612518183E1,6.631265879E-1,6.684529185E-1,1.080976248E0
2.614536131E1,6.828339696E-1,6.673876643E-1,1.106009960E0
2.616554183E1,7.526087761E-1,7.994803786E-1,1.174186826E0
2.618572370E1,8.857667446E-1,8.048067093E-1,1.135837317E0
2.620590704E1,9.374319911E-1,3.163833022E-1,9.483509660E-1
2.622609204E1,8.815056682E-1,-3.350254297E-1,5.467465520E-1
2.624627870E1,8.628635406E-1,-3.499391079E-1,8.548741043E-2
2.626646704E1,7.281076908E-1,2.583264410E-1,-1.067926809E-1
2.628665704E1,4.314317703E-1,9.992172718E-1,-1.222390011E-1
2.630684860E1,1.464737505E-1,1.359809041E0,-2.090579867E-1
2.632704152E1,9.321057051E-2,1.092427850E0,-3.906854391E-1
2.634723547E1,1.624527127E-1,8.133288026E-1,-4.519380927E-1
2.636743027E1,2.274337858E-1,7.952193022E-1,-3.486075401E-1
2.638762558E1,1.800295562E-1,6.940192580E-1,-4.820318148E-2
2.640782110E1,2.316948473E-1,3.472759426E-1,2.628538013E-1
2.642801589E1,4.431496859E-1,1.587242782E-1,3.544664681E-1
2.644820412E1,5.970802903E-1,2.130527347E-1,3.315632939E-1
2.646838693E1,3.994738758E-1,7.616634965E-1,5.115928650E-1
2.648857016E1,2.849580348E-1,1.052480459E0,6.703171730E-1
2.650875402E1,4.692486227E-1,8.207856417E-1,7.528750896E-1
2.652893860E1,4.218443930E-1,4.665854871E-1,7.427550554E-1
2.654912402E1,1.230379492E-1,1.528653353E-1,5.195823312E-1
2.656931037E1,-2.530001104E-1,-2.109221965E-1,1.472726911E-1
2.658949766E1,-3.472759426E-1,-4.644549489E-1,-2.218411565E-1
2.660968589E1,-4.852275848E-1,-4.628570378E-1,-2.484727502E-1
2.662987506E1,-9.038761854E-1,-3.526022732E-1,-3.773696423E-1
2.665006506E1,-1.316665888E0,3.563306928E-1,-7.645930052E-1
2.667025579E1,-1.699628115E0,8.048067093E-1,-1.086835265E0
2.669044714E1,-1.793371320E0,8.767119646E-1,-1.484178543E0
2.671063902E1,-1.546230197E0,8.969519734E-1,-1.639707088E0
2.673083120E1,-1.139832139E0,9.859014750E-1,-1.527321696E0
2.675102360E1,-7.446193099E-1,9.246488214E-1,-1.288702726E0
2.677122683E1,-5.763076544E-1,2.790990770E-1,-1.010668874E0
2.679140527E1,-4.111917615E-1,-1.230379492E-1,-6.319676638E-1
2.681158402E1,-7.968171835E-1,-4.277033508E-1,-4.769718051E-1
2.683176350E1,-1.002945662E0,-1.928127259E-1,-4.109254479E-1
2.685194402E1,-7.685877085E-1,4.197138846E-1,-3.283675313E-1
2.687212589E1,-7.211834788E-1,5.864276290E-1,-2.873548567E-1
2.689230933E1,-9.480846524E-1,1.155811027E-1,-4.055991173E-1
2.691249443E1,-1.116928935E0,-1.906821877E-1,-5.307676196E-1
2.693268120E1,-9.624657035E-1,9.587372653E-3,-5.382244587E-1
2.695286964E1,-6.695181727E-1,-1.491369121E-2,-5.020055175E-1
2.697305974E1,-4.990760088E-1,-4.761728346E-1,-3.890875578E-1
2.699325131E1,-3.920170069E-1,-6.679202914E-1,-6.578002870E-2
2.701344412E1,-1.954758763E-1,-3.376885653E-1,3.944138587E-1
2.703363797E1,5.166528746E-2,1.155811027E-1,8.492814302E-1
2.705383266E1,3.243727684E-1,2.077264041E-1,1.394696474E0
2.707402787E1,6.258423924E-1,-3.696464896E-1,1.922534585E0
2.709422329E1,8.452867270E-1,-1.221324801E0,1.951296687E0
2.711441818E1,6.647245288E-1,-9.102677703E-1,1.202948928E0
2.713460652E1,-5.853623748E-1,1.433844805E0,-1.653821766E-1
2.715479474E1,-1.088699460E0,3.692736387E0,-9.366330504E-1
2.717497756E1,-1.147821546E0,2.855439186E0,-4.135886133E-1
2.719516079E1,-5.906887054E-1,2.290316820E0,2.404832691E-1
2.721534464E1,1.301219583E0,2.305763245E0,6.431529522E-1
2.723552922E1,9.683246613E-1,-8.815056682E-1,9.648625255E-1
2.725571464E1,7.510108501E-2,-3.184072971E0,6.037381887E-1
2.727590100E1,2.226400971E-1,-1.990977764E0,7.190529723E-3
2.729608829E1,3.131875098E-1,1.316665888E0,-1.355548054E-1
2.731627652E1,1.928127259E-1,3.302317381E0,-5.033370852E-2
2.733646568E1,6.769750714E-1,2.976879358E0,-1.440769136E-1
2.735665568E1,9.182572365E-1,1.123320460E0,1.387505829E-1
2.737684641E1,3.898864985E-1,-5.539371073E-2,5.025381446E-1
2.739703777E1,6.977476925E-2,8.175898194E-1,4.620580971E-1
2.741722964E1,-9.374319762E-2,1.469531178E0,3.496727943E-1
2.743742183E1,-1.747032404E-1,1.616004944E0,1.994706094E-1
2.745761422E1,-1.033305749E-1,1.715074420E0,4.287686199E-2
2.747781745E1,5.379581451E-2,1.649560690E0,-1.944106072E-2
2.749799600E1,2.860232890E-1,1.583514452E0,1.731053367E-2
2.751817485E1,4.697812796E-1,1.512141705E0,1.733716577E-1
2.753835443E1,2.103895694E-1,1.057806849E0,4.807002246E-1
2.755853506E1,-4.048001766E-2,8.735162020E-1,7.006771564E-1
2.757871693E1,-2.290316857E-2,7.792403698E-1,7.613971829E-1
2.759890027E1,1.246358454E-1,5.576655269E-1,7.012097836E-1
2.761908527E1,2.924148738E-1,4.543349445E-1,6.543381810E-1
2.763927193E1,3.573959470E-1,3.483411968E-1,6.431529522E-1
2.765946027E1,3.078611791E-1,3.094590902E-1,5.099949837E-1
2.767965027E1,2.972085476E-1,3.792338669E-1,2.181127369E-1
2.769984172E1,1.304948032E-1,3.291664720E-1,-5.246423557E-2
2.772003454E1,-2.716422267E-2,5.246423483E-1,-3.299654126E-1
2.774022839E1,-2.833601236E-1,6.253097653E-1,-5.707150102E-1
2.776042308E1,-7.392929792E-1,4.234423041E-1,-6.639255881E-1
2.778061829E1,-1.011467814E0,5.326318205E-4,-9.131972790E-1
2.780081370E1,-9.219856858E-1,-3.882885873E-1,-1.452220678E0
2.782100902E1,-9.880320430E-1,-4.175833464E-1,-1.881521940E0
2.784119735E1,-1.412006974E0,1.406148076E-1,-1.899631381E0
2.786138027E1,-2.162485123E0,6.439518929E-1,-1.391500592E0
2.788156360E1,-2.463954687E0,1.211204767E0,-9.382309318E-1
2.790174745E1,-2.259956837E0,1.777392387E0,-8.668583035E-1
2.792193204E1,-1.908952475E0,1.937181950E0,-7.086666226E-1
2.794211745E1,-1.587775469E0,1.123320460E0,-1.691105962E-1
2.796230381E1,-1.243162632E0,-2.961432934E-1,3.363569975E-1
2.798249110E1,-8.862993717E-1,-8.751140833E-1,5.275717974E-1
2.800267933E1,-1.097754240E0,2.045306265E-1,1.696432382E-1
2.802286850E1,-1.084438443E0,7.994803786E-1,-2.053295672E-1
2.804305850E1,-1.219726920E0,8.250467181E-1,-4.290349185E-1
2.806324922E1,-1.369396448E0,6.791055799E-1,-3.294327855E-1
2.808344058E1,-1.365667939E0,3.419496417E-1,-5.992107838E-2
2.810363245E1,-1.307078481E0,1.938779801E-1,1.834916621E-1
2.812382464E1,-1.249554276E0,5.129244328E-1,3.549990952E-1
2.814401704E1,-1.123320460E0,7.185203433E-1,5.211802125E-1
2.816422027E1,-9.368993640E-1,5.358276367E-1,7.459508777E-1
2.818439870E1,-7.600656152E-1,4.756402075E-1,1.086302638E0
2.820457745E1,-3.925496638E-1,3.163833022E-1,1.472460628E0
2.822475693E1,1.949432492E-1,9.267793596E-2,1.780321836E0
2.824493745E1,7.877624631E-1,2.961432934E-1,1.894305110E0
2.826511933E1,1.269261599E0,1.301219583E0,1.788311362E0
2.828530277E1,1.050882578E0,2.067676783E0,1.327052236E0
2.830548787E1,3.653854430E-1,1.306545854E0,7.962846011E-2
2.832567464E1,8.362319320E-2,-1.171789970E-2,-1.105477333E0
2.834586308E1,3.589938581E-1,-5.060002208E-2,-9.227846265E-1
2.836605318E1,1.018924713E0,5.832318664E-1,-9.813741446E-1
2.838624475E1,8.639287949E-1,1.345427990E0,-9.046751261E-1
2.840643766E1,-1.613874435E-1,2.465020180E0,6.737792492E-2
2.842663162E1,-4.516717792E-1,3.105243444E0,9.403614998E-1
2.844682641E1,-2.242379934E-1,1.874331355E0,1.076715231E0
2.846702172E1,-1.592569202E-1,1.171789989E-1,1.042094111E0
2.848721724E1,-2.647180259E-1,-2.226400971E-1,8.210519552E-1
2.850741172E1,-5.315665603E-1,1.757685095E-2,3.837612271E-1
2.852760006E1,-7.568697929E-1,4.809665382E-1,-2.585927546E-1
2.854778297E1,-5.193160176E-1,1.709215522E0,-6.628602743E-1
2.856796631E1,6.034718752E-1,3.453052044E0,-3.808317333E-2
2.858815016E1,8.330361843E-1,3.040262461E0,6.958834529E-1
2.860833474E1,2.221074700E-1,9.038761854E-1,9.052077532E-1
2.862852016E1,1.757685095E-2,-4.314317703E-1,9.057404399E-1
2.864870652E1,3.339601457E-1,-3.568633273E-2,7.544729710E-1
2.866889381E1,3.888212144E-1,9.225183129E-1,4.807002246E-1
2.868908204E1,-6.018739566E-2,1.484977484E0,1.121189967E-1
2.870927120E1,-5.406212807E-1,1.873266101E0,-9.667267650E-2
2.872946120E1,-7.286403179E-1,2.011750460E0,-2.021337748E-1
2.874965193E1,-5.022718310E-1,2.118809462E0,-1.904158741E-1
2.876984329E1,-2.396843135E-1,1.945171356E0,-1.227716357E-1
2.879003516E1,-5.219791830E-2,1.696432352E0,-1.382179558E-1
2.881022735E1,6.018739566E-2,1.599493384E0,-2.511359155E-1
2.883041974E1,-1.320926845E-1,1.452486992E0,-3.528685868E-1
2.885062297E1,-3.419496417E-1,1.399756432E0,-3.038664460E-1
2.887080141E1,-4.239749312E-1,1.367798567E0,-2.583264373E-2
2.889098016E1,-2.812296152E-1,1.206411123E0,2.159821987E-1
2.891115964E1,-1.272990108E-1,7.946866751E-1,4.114580750E-1
2.893134016E1,2.844253778E-1,3.691138625E-1,4.732433856E-1
2.895152204E1,5.539370775E-1,-5.645897239E-2,4.364917874E-1
2.897170547E1,5.976129174E-1,4.793686327E-3,2.628538013E-1
2.899189058E1,3.201117218E-1,4.703139067E-1,1.510011256E-1
2.901207735E1,-7.297056168E-2,8.527435660E-1,1.595232338E-1
2.903226579E1,-4.697812796E-1,8.857667446E-1,-2.396843163E-3
2.905245589E1,-8.223835230E-1,8.069372177E-1,-1.733716577E-1
2.907264745E1,-7.787077427E-1,2.673811615E-1,-1.760348231E-1
2.909284037E1,-6.982803345E-1,-4.697812796E-1,-1.866874546E-1
2.911303433E1,-1.094025731E0,-8.495477438E-1,-4.503402114E-1
2.913322912E1,-1.616004944E0,-3.414169848E-1,-7.491466403E-1
2.915342443E1,-1.934518814E0,6.269076467E-1,-9.909614921E-1
2.917361995E1,-2.110287189E0,1.313470125E0,-1.290833235E0
2.919381464E1,-2.187518835E0,1.427453279E0,-1.452753305E0
2.921400297E1,-1.872200847E0,1.130777359E0,-1.417066932E0
2.923419120E1,-1.399756432E0,5.645897388E-1,-1.435176492E0
2.925437402E1,-1.224520564E0,4.990760088E-1,-1.451155424E0
2.927455724E1,-1.160072088E0,8.197203875E-1,-1.075117350E0
2.929474110E1,-8.404930234E-1,1.006141543E0,-3.225085735E-1
2.931492568E1,-4.197138846E-1,3.211769760E-1,1.829590350E-1
2.933511110E1,-5.912213326E-1,-9.768467546E-1,-3.648528084E-2
2.935529745E1,-1.170724750E0,-1.468465924E0,-1.011734128E0
2.937548474E1,-1.234640598E0,-7.920235395E-1,-2.241580963E0
2.939567297E1,-9.353014827E-1,-1.171789989E-1,-2.282061100E0
2.941586214E1,-8.250467181E-1,-3.440801501E-1,-1.588041782E0
2.943605214E1,-9.166593552E-1,-5.640571117E-1,-1.336106896E0
2.945624287E1,-8.426235318E-1,-3.669833243E-1,-1.310007930E0
2.947643422E1,-6.056023836E-1,-3.083938360E-1,-1.271125793E0
2.949662610E1,-4.937497079E-1,-6.961497664E-1,-1.077780485E0
2.951681829E1,-3.962780833E-1,-8.245140314E-1,-6.564686894E-1
2.953701068E1,-2.588590682E-1,-6.807034612E-1,-1.483379602E-1
2.955721391E1,-1.496695429E-1,-5.379581451E-1,3.038664460E-1
2.957739277E1,-1.001347825E-1,-4.761728346E-1,6.564686894E-1
2.959757193E1,8.575372398E-2,-3.403517306E-1,9.371656775E-1
2.961775183E1,3.504717350E-1,1.155811027E-1,1.181111097E0
2.963793277E1,5.784381628E-1,8.676572442E-1,1.257809997E0
2.965811495E1,3.238401413E-1,1.910550356E0,6.820350289E-1
2.967829860E1,6.908234954E-1,2.256761074E0,4.343612492E-1
2.969848381E1,6.439518929E-1,1.236771107E0,8.018772006E-1
2.971867068E1,4.671181142E-1,-6.263750196E-1,1.110803604E0
2.973885922E1,2.471411675E-1,-6.615287066E-1,1.515071273E0
2.975904933E1,5.257076025E-1,3.845601678E-1,1.942241907E0
2.977924089E1,7.728487849E-1,1.076448917E0,2.145174742E0
2.979943370E1,7.158571482E-1,1.147288918E0,2.034387350E0
2.981962756E1,5.768402815E-1,5.960150361E-1,1.451155424E0
2.983982214E1,5.853623748E-1,1.597895520E-3,9.957551956E-1
2.986001714E1,7.840340137E-1,-1.118526831E-1,9.861677885E-1
2.988021235E1,9.257140756E-1,7.776424289E-2,1.091628909E0
2.990040610E1,9.177246094E-1,3.062632978E-1,1.123054147E0
2.992059443E1,8.665919900E-1,4.756402075E-1,1.055942535E0
2.994077735E1,7.323687673E-1,5.624592304E-1,1.037833095E0
2.996096068E1,5.656549931E-1,4.745749533E-1,1.020788908E0
2.998114454E1,5.177181363E-1,2.375537902E-1,8.135951161E-1
3.000132912E1,4.250401855E-1,1.054610983E-1,5.398223400E-1
3.002151454E1,2.535327375E-1,2.865559161E-1,3.384875357E-1
3.004170089E1,1.272990108E-1,4.021370113E-1,1.520663798E-1
3.006188818E1,1.422126889E-1,1.800295562E-1,-5.299686641E-2
3.008207641E1,2.727074921E-1,5.858949944E-2,-2.229064107E-1
3.010226558E1,3.957454562E-1,2.039979845E-1,-3.230412006E-1
3.012245558E1,3.797664940E-1,4.591286182E-1,-2.969422340E-1
3.014264631E1,2.705769539E-1,6.295707822E-1,-1.472726911E-1
3.016283766E1,2.487390637E-1,5.576655269E-1,1.499358565E-1
3.018302954E1,4.037349224E-1,2.530001104E-1,4.498075843E-1
3.020322172E1,6.604634523E-1,1.225053146E-2,5.936181545E-1
3.022341412E1,8.181225061E-1,3.195790946E-2,6.170539856E-1
3.024361735E1,7.424887419E-1,1.113200486E-1,6.048034430E-1
3.026379641E1,2.870885432E-1,1.065263641E-3,3.864243925E-1
3.028397579E1,-2.173137814E-1,-3.797664940E-1,-1.051947847E-1
3.030415579E1,-2.066611499E-1,-5.992107987E-1,-5.850960612E-1
3.032433672E1,-3.888212144E-2,-4.511391521E-1,-6.325002909E-1
3.034451891E1,-6.125265956E-1,-3.398191035E-1,-5.595297217E-1
3.036470256E1,-1.549425960E0,2.625874877E-1,-1.039430976E0
3.038488777E1,-2.124668360E0,1.203747869E0,-1.457546949E0
3.040507464E1,-2.166746140E0,1.470063806E0,-1.467666984E0
3.042526318E1,-1.888179779E0,1.227716327E0,-1.380315304E0
3.044545329E1,-1.310274243E0,9.720530510E-1,-1.206144810E0
3.046564485E1,-5.012065172E-1,6.077328920E-1,-8.673909307E-1
3.048583766E1,1.613874435E-1,-2.130527236E-2,-5.467465520E-1
3.050603152E1,1.901495606E-1,-9.337036014E-1,-5.600623488E-1
3.052622610E1,-1.255945802E0,-1.465802789E0,-1.225319505E0
3.054642110E1,-1.485510111E0,-9.326383471E-1,-1.795768142E0
3.056661631E1,-6.034718752E-1,-2.796317041E-1,-1.986983061E0
3.058681006E1,-5.661876202E-1,-2.205095738E-1,-1.996570349E0
3.060699839E1,-9.874994159E-1,-3.547327816E-1,-1.955557704E0
3.062718131E1,-9.315730333E-1,-4.953475893E-1,-1.800561905E0
3.064736464E1,-5.363602638E-1,-7.382277250E-1,-1.581117511E0
3.066754850E1,-3.520696461E-1,-1.207476377E0,-1.376586914E0
3.068773308E1,-2.918822467E-1,-1.374190092E0,-9.222519994E-1
3.070791850E1,-1.363537461E-1,-9.715204239E-1,-2.090579867E-1
3.072810485E1,1.022653133E-1,-4.452801943E-1,2.793653905E-1
3.074829214E1,3.600591123E-1,-1.214400530E-1,6.740455627E-1
3.076848037E1,3.845601678E-1,4.724444151E-1,1.076182604E0
3.078866954E1,1.198421568E-1,1.229846835E0,1.072454214E0
3.080885954E1,1.024250984E0,1.449291229E0,9.153277874E-1
3.082905037E1,5.251749754E-1,1.153680563E0,1.495363832E0
3.084924183E1,5.848297477E-1,1.720400751E-1,1.163534164E0
3.086943381E1,8.197203875E-1,1.230379492E-1,8.231824636E-1
3.088962610E1,8.484824896E-1,3.249054253E-1,1.167795300E0
3.090981860E1,7.632613778E-1,4.767054915E-1,1.724928141E0
3.093002193E1,7.451519370E-1,6.673876643E-1,2.000298738E0
3.095020058E1,6.396908164E-1,6.636592746E-1,1.977395654E0
3.097037954E1,6.679202914E-1,4.197138846E-1,1.824530244E0
3.099055922E1,5.597960353E-1,4.793686420E-2,1.551290154E0
3.101073995E1,4.671181142E-1,-3.296990991E-1,1.313203812E0
3.103092193E1,5.773729086E-1,-5.017392039E-1,1.150750995E0
3.105110537E1,7.850993276E-1,-3.845601678E-1,1.028778315E0
3.107129047E1,8.229161501E-1,-2.929475009E-1,9.254477620E-1
3.109147725E1,6.199834347E-1,-4.106591344E-1,7.843003273E-1
3.111166568E1,4.308991432E-1,-4.234423041E-1,5.616602302E-1
3.113185579E1,3.792338669E-1,-1.949432492E-1,2.793653905E-1
3.115204735E1,3.600591123E-1,-1.171789970E-2,3.382211924E-2
3.117224016E1,3.004043400E-1,-1.134505793E-1,-1.414137483E-1
3.119243402E1,2.039979845E-1,-1.954758763E-1,-2.777675092E-1
3.121262870E1,1.395495385E-1,8.149266988E-2,-3.890875578E-1
3.123282391E1,4.527370632E-2,4.676507413E-1,-3.257043660E-1
3.125301933E1,8.681898564E-2,4.165180922E-1,-1.328916401E-1
3.127321433E1,3.030675054E-1,-1.651158631E-1,9.560741484E-2
3.129340266E1,6.322339773E-1,-3.254380524E-1,3.374222517E-1
3.131358558E1,7.584677339E-1,-7.989477366E-2,5.334307551E-1
3.133376891E1,7.595329881E-1,5.060002208E-2,5.526055098E-1
3.135395277E1,7.925561666E-1,-1.917474531E-2,5.419528484E-1
3.137413735E1,6.274402738E-1,-1.193095297E-1,4.327633679E-1
3.139432277E1,1.869537681E-1,4.474107176E-2,1.877527237E-1
3.141450912E1,-1.747032404E-1,-1.528653353E-1,-1.451421678E-1
3.143469641E1,-4.713791609E-1,-2.045306265E-1,-4.173170328E-1
3.145488464E1,-8.479498625E-1,-4.793686420E-2,-6.900244951E-1
3.147507381E1,-1.286838531E0,1.826927215E-1,-1.087367892E0
3.149526381E1,-1.543034434E0,1.047154188E0,-1.280713201E0
3.151545464E1,-1.412539601E0,1.549425960E0,-1.239700556E0
3.153564610E1,-1.261272192E0,9.534109831E-1,-1.270060539E0
3.155583808E1,-8.889625072E-1,3.462106884E-1,-1.137435198E0
3.157603037E1,-3.211769760E-1,4.420844093E-2,-7.592666745E-1
3.159622287E1,-6.146571040E-1,-3.025348783E-1,-5.558013320E-1
3.161642620E1,-9.374319911E-1,-5.795034170E-1,-5.882918239E-1
3.163660475E1,-9.885646701E-1,-7.685877085E-1,-1.054344654E0
3.165678360E1,-1.275653243E0,-3.792338669E-1,-1.723330259E0
3.167696318E1,-1.108939409E0,-2.700443268E-1,-1.852759838E0
3.169714381E1,-1.238901615E0,-2.231727391E-1,-1.713210225E0
3.171732568E1,-1.382179618E0,-6.391582079E-3,-1.676458597E0
3.173750912E1,-1.147821546E0,-0.000000000E0,-1.639174461E0
3.175769422E1,-9.752488732E-1,-5.305013061E-1,-1.504418612E0
3.177788100E1,-8.980172276E-1,-1.074318409E0,-1.224254251E0
3.179806943E1,-6.918887496E-1,-1.288969040E0,-6.751108170E-1
3.181825954E1,-4.319643974E-1,-1.131842613E0,-4.713791609E-2
3.183845110E1,-1.688442826E-1,-7.733814120E-1,3.177148700E-1
3.185864402E1,1.043958366E-1,-4.687159956E-1,6.564686894E-1
3.187883797E1,9.587372839E-2,4.261054471E-2,1.110803604E0
3.189903277E1,-2.567285299E-1,1.070589900E0,1.377119541E0
3.191922808E1,7.094655633E-1,2.427735806E0,1.091096282E0
3.193942360E1,1.425322771E0,3.401919365E0,1.359542727E0
3.195961850E1,1.789642870E-1,8.735162020E-1,1.327052236E0
3.197980683E1,2.231727391E-1,-7.307708859E-1,9.355677962E-1
3.199998974E1,4.857602119E-1,6.924213842E-3,1.135837317E0
3.202017308E1,4.644549489E-1,8.234487772E-1,1.751559734E0
3.204035693E1,3.882885873E-1,1.184573174E0,2.027462959E0
3.206054152E1,4.633896947E-1,1.182975292E0,1.857020855E0
3.208072693E1,5.331644416E-1,6.247771382E-1,1.334509015E0
3.210091329E1,6.056023836E-1,-1.954758763E-1,1.016527772E0
3.212110058E1,6.807034612E-1,-4.042675495E-1,1.036767840E0
3.214128881E1,8.665919900E-1,2.663159044E-3,1.113466859E0
3.216147797E1,9.619330764E-1,2.689790726E-1,1.102814198E0
3.218166797E1,7.866972089E-1,1.145158410E-1,9.600688815E-1
3.220185881E1,5.816339254E-1,-1.624527127E-1,6.857634783E-1
3.222205027E1,5.635244846E-1,-2.961432934E-1,3.736412227E-1
3.224224224E1,5.805686712E-1,-1.102547869E-1,1.483379602E-1
3.226243454E1,4.740423262E-1,6.977476925E-2,-1.837579720E-2
3.228262704E1,3.153180480E-1,6.498108059E-2,-1.802958697E-1
3.230283037E1,3.312969804E-1,-1.651158631E-1,-2.916159332E-1
3.232300891E1,3.962780833E-1,-2.577938139E-1,-2.990727723E-1
3.234318777E1,3.062632978E-1,-9.587372653E-3,-2.500706315E-1
3.236336735E1,1.379516423E-1,2.892190814E-1,-1.717737615E-1
3.238354797E1,1.741705984E-1,3.520696461E-1,-7.190529723E-3
3.240372985E1,3.946801722E-1,1.022653133E-1,2.298306376E-1
3.242391318E1,6.370276809E-1,-6.604634225E-2,4.290349185E-1
3.244409818E1,8.229161501E-1,-6.285055727E-2,5.025381446E-1
3.246428485E1,9.938910007E-1,-9.587372839E-2,4.796349406E-1
3.248447318E1,9.672594070E-1,-3.872233331E-1,3.294327855E-1
3.250466318E1,7.984151244E-1,-5.262402296E-1,1.121189967E-1
3.252485474E1,6.114613414E-1,-4.649875760E-1,-8.175898343E-2
3.254504766E1,3.984085917E-1,-4.644549489E-1,-1.249021590E-1
3.256524162E1,1.187768951E-1,-5.257076025E-1,-2.069274634E-1
3.258543641E1,-5.842971206E-1,-2.721748650E-1,-6.250434518E-1
3.260563172E1,-1.399223804E0,7.174550891E-1,-1.025049925E0
3.262582724E1,-1.832253456E0,1.437573314E0,-1.216797352E0
3.264602245E1,-1.890310287E0,1.561676502E0,-1.235972166E0
3.266621089E1,-1.782718658E0,1.241032124E0,-1.249820590E0
3.268639922E1,-1.286838531E0,8.335688114E-1,-1.229047894E0
3.270658214E1,-4.484759867E-1,2.711096108E-1,-8.966856599E-1
3.272676547E1,-4.314317927E-2,-4.585959911E-1,-4.125233591E-1
3.274694933E1,-1.129179478E0,-1.433844805E0,-4.796349406E-1
3.276713391E1,-1.710280776E0,-4.010717571E-1,-5.179844499E-1
3.278731933E1,-1.193095326E0,5.006739125E-2,-7.145255804E-1
3.280750568E1,-1.285773158E0,-6.844319105E-1,-1.490570188E0
3.282769297E1,-1.625059724E0,-9.800425768E-1,-1.979526162E0
3.284788120E1,-1.700160742E0,-5.832318664E-1,-1.738776565E0
3.286807037E1,-1.564339638E0,-4.324970245E-1,-1.466069102E0
3.288826037E1,-1.458345890E0,-4.420844018E-1,-1.384576440E0
3.290845110E1,-1.357678533E0,-4.735096991E-1,-1.356346965E0
3.292864245E1,-1.165398479E0,-9.150614738E-1,-1.175252080E0
3.294883433E1,-8.431561589E-1,-1.137701511E0,-6.910898089E-1
3.296902652E1,-4.910865426E-1,-1.015196204E0,-1.504684836E-1
3.298921891E1,-1.885516644E-1,-7.366297841E-1,1.691105962E-1
3.300942214E1,7.297056168E-2,-3.882885873E-1,3.912180662E-1
3.302960110E1,2.306295782E-1,-3.675159439E-2,5.877591968E-1
3.304978037E1,1.384842694E-1,9.054741263E-2,7.065361142E-1
3.306996027E1,-5.869602561E-1,7.099981904E-1,5.360939503E-1
3.309014110E1,-1.821600795E-1,2.093243122E0,-1.685779691E-1
3.311032318E1,1.121722579E0,3.175018311E0,1.307611167E-1
3.313050672E1,4.996086359E-1,1.098286867E0,8.918919563E-1
3.315069183E1,3.914843798E-1,-2.402169555E-1,1.022386789E0
3.317087860E1,3.813643754E-1,6.375603080E-1,9.898962379E-1
3.319106704E1,6.588655710E-1,1.242097378E0,1.234906912E0
3.321125704E1,8.969519734E-1,1.353950143E0,1.507081747E0
3.323144850E1,7.424887419E-1,8.793751597E-1,1.520930171E0
3.325164120E1,6.460824013E-1,-3.355580568E-2,1.313736439E0
3.327183495E1,8.021435142E-1,-2.135853618E-1,1.200285792E0
3.329202954E1,8.820382953E-1,3.099917173E-1,1.306279540E0
3.331222464E1,7.877624631E-1,7.925561666E-1,1.527854323E0
3.333241995E1,7.526087761E-1,7.877624631E-1,1.610944986E0
3.335261454E1,8.415582776E-1,3.675159514E-1,1.479384899E0
3.337280287E1,8.932235837E-1,-1.262337416E-1,1.258342624E0
3.339298579E1,8.420909047E-1,-2.902843356E-1,1.124652147E0
3.341316912E1,7.579351068E-1,-2.822948620E-2,1.094824672E0
3.343335297E1,7.366297841E-1,2.221074700E-1,9.265130758E-1
3.345353756E1,6.807034612E-1,9.214530140E-2,5.856286883E-1
3.347372297E1,5.651223660E-1,-1.294295341E-1,2.671148479E-1
3.349390933E1,4.692486227E-1,-8.841688186E-2,3.009369783E-2
3.351409662E1,4.005391300E-1,1.091895252E-1,-1.249021590E-1
3.353428485E1,3.813643754E-1,2.631201148E-1,-2.921485603E-1
3.355447402E1,3.643201590E-1,4.809665382E-1,-4.242412448E-1
3.357466402E1,1.794969290E-1,5.038697124E-1,-3.374222517E-1
3.359485474E1,5.113265663E-2,4.830970466E-1,-1.552621722E-1
3.361504610E1,5.006739125E-2,5.134570599E-1,-1.864211401E-3
3.363523797E1,9.161267430E-2,4.090612531E-1,2.175800949E-1
3.365543016E1,2.460758984E-1,1.821600795E-1,4.508728385E-1
3.367562256E1,4.463454783E-1,-0.000000000E0,5.265065432E-1
3.369582579E1,5.246423483E-1,1.475390196E-1,5.179844499E-1
3.371600464E1,5.448823571E-1,4.005391300E-1,4.860265255E-1
3.373618381E1,6.498108506E-1,4.884233773E-1,4.002728164E-1
3.375636370E1,6.359623671E-1,6.924213842E-3,3.065296113E-1
3.377654464E1,3.456780612E-1,-8.367645741E-1,8.122635633E-2
3.379672683E1,2.561959028E-1,-1.269794226E0,-2.170474678E-1
3.381691047E1,4.703139067E-1,-1.084971070E0,-2.553969622E-1
3.383709568E1,2.396843135E-1,-9.667267799E-1,-2.356895804E-1
3.385728256E1,-7.446193099E-1,-5.273054838E-1,-4.689823091E-1
3.387747110E1,-1.686312318E0,3.707117438E-1,-1.015995145E0
3.389766120E1,-1.930257678E0,1.230912089E0,-1.214134216E0
3.391785277E1,-1.777925014E0,1.511609077E0,-1.158740520E0
3.393804558E1,-1.606950164E0,1.388038516E0,-1.175252080E0
3.395823943E1,-1.283110023E0,1.249554276E0,-1.291898489E0
3.397843402E1,-6.056023836E-1,9.880320430E-1,-1.190165758E0
3.399862902E1,1.496695429E-1,2.103895694E-1,-7.235803008E-1
3.401882422E1,-4.383559823E-1,-1.071122646E0,-5.621928573E-1
3.403901808E1,-1.318796396E0,-9.214530587E-1,-5.898897648E-1
3.405920641E1,-9.853688478E-1,-3.680485785E-1,-6.916224360E-1
3.407938933E1,-8.447540402E-1,-3.669833243E-1,-1.470862746E0
3.409957266E1,-1.325720549E0,-5.853623748E-1,-2.343313694E0
3.411975652E1,-1.722531319E0,-2.860232890E-1,-1.995505095E0
3.413994110E1,-1.294295311E0,-6.838992834E-1,-1.372325897E0
3.416012652E1,-1.125983715E0,-1.092960477E0,-1.397892237E0
3.418031287E1,-1.434910178E0,-6.135918498E-1,-1.686578631E0
3.420050016E1,-1.388038516E0,-7.408908606E-1,-1.536376476E0
3.422068839E1,-9.763141274E-1,-1.198421597E0,-1.101216316E0
3.424087756E1,-6.290381551E-1,-1.030642629E0,-5.739107728E-1
3.426106756E1,-3.004043400E-1,-6.183855534E-1,1.411474310E-2
3.428125829E1,2.237053588E-2,-3.302317262E-1,5.057339072E-1
3.430144964E1,2.396843135E-1,-9.534109384E-2,8.269109130E-1
3.432164152E1,1.209074259E-1,1.800295562E-1,1.070323586E0
3.434183370E1,-9.235835671E-1,1.369396448E0,6.676539779E-1
3.436202610E1,9.416930676E-1,1.853558779E0,-2.964096069E-1
3.438222933E1,6.482129097E-1,1.760348201E0,1.417066932E0
3.440240797E1,3.627222776E-1,-2.237053588E-2,2.105227232E0
3.442258693E1,8.175898194E-1,8.847014308E-1,1.203481555E0
3.444276662E1,8.926909566E-1,9.321056604E-1,1.139565825E0
3.446294735E1,7.547392845E-1,7.680550814E-1,1.578454375E0
3.448312933E1,7.701855898E-1,1.106808901E0,1.593368053E0
3.450331277E1,7.392929792E-1,9.688572884E-1,1.655686021E0
3.452349787E1,9.033435583E-1,6.785729527E-1,1.761147141E0
3.454368464E1,8.916256428E-1,4.250401855E-1,1.752092361E0
3.456387308E1,7.637940049E-1,2.652506530E-1,1.608814359E0
3.458406308E1,7.462171912E-1,3.009369671E-1,1.357944846E0
3.460425454E1,9.182572365E-1,3.984085917E-1,1.076182604E0
3.462444724E1,1.043425679E0,8.841688186E-2,8.748477697E-1
3.464464100E1,9.656614661E-1,-5.171855092E-1,7.022750378E-1
3.466483558E1,9.166593552E-1,-3.510043621E-1,4.791023135E-1
3.468503068E1,8.447540402E-1,5.134570599E-1,4.274370372E-1
3.470522600E1,5.198486447E-1,1.014663577E0,4.428833723E-1
3.472542110E1,2.316948473E-1,1.003478408E0,1.952095628E-1
3.474560943E1,2.434127480E-1,4.516717792E-1,-1.414137483E-1
3.476579235E1,4.005391300E-1,-8.042740822E-2,-3.507380486E-1
3.478597568E1,4.729770422E-1,2.391516864E-1,-4.359591305E-1
3.480615954E1,4.591286182E-1,9.645962119E-1,-3.347590864E-1
3.482634412E1,5.017392039E-1,1.047154188E0,1.304947957E-2
3.484652954E1,6.705834866E-1,3.483411968E-1,4.370244145E-1
3.486671589E1,6.748445034E-1,-1.342232227E-1,7.720498443E-1
3.488690318E1,3.350254297E-1,1.288969070E-1,8.977509141E-1
3.490709141E1,2.924148738E-1,4.213117659E-1,7.459508777E-1
3.492728058E1,5.454149842E-1,2.679138184E-1,5.094623566E-1
3.494747058E1,5.997434258E-1,2.945453823E-1,2.633864284E-1
3.496766131E1,3.355580568E-1,5.800360441E-1,-4.340949282E-2
3.498785266E1,-2.775011659E-1,5.709813237E-1,-2.346243113E-1
3.500804454E1,-6.711161137E-1,5.832318664E-1,-2.607232630E-1
3.502823672E1,-5.331644416E-1,4.676507413E-1,-4.652538896E-1
3.504842912E1,-5.858949944E-2,4.202465117E-1,-8.700540662E-1
3.506863235E1,-1.837579757E-1,2.561959028E-1,-1.035702586E0
3.508881089E1,-1.078046799E0,1.549958587E-1,-9.904288650E-1
3.510898974E1,-1.516402841E0,1.890842915E-1,-1.050083637E0
3.512916933E1,-1.589373350E0,1.384842768E-2,-1.051148891E0
3.514934995E1,-1.742771268E0,2.721748650E-1,-9.920267463E-1
3.516953183E1,-1.866874576E0,1.026381493E0,-9.984183311E-1
3.518971516E1,-1.952628255E0,1.292164803E0,-1.128380537E0
3.520990016E1,-1.707085013E0,8.681898713E-1,-1.059671044E0
3.523008683E1,-1.143560529E0,8.953540921E-1,-6.181192398E-1
3.525027516E1,-1.118526816E0,1.043958426E0,-2.229064107E-1
3.527046516E1,-1.368331194E0,1.431714296E0,-3.169159219E-2
3.529065662E1,-1.161669970E0,1.578188062E0,1.238368973E-1
3.531084943E1,-1.031175256E0,9.954888821E-1,2.229064107E-1
3.533104329E1,-1.148354173E0,2.514022291E-1,1.323590130E-1
3.535123797E1,-1.205345869E0,1.235705838E-1,-6.098634377E-2
3.537143318E1,-1.092960477E0,5.645897388E-1,-1.595232338E-1
3.539162860E1,-1.051415205E0,7.637940049E-1,-8.255792782E-3
3.541182391E1,-1.056208849E0,5.395560265E-1,2.079927325E-1
3.543201224E1,-1.025848866E0,2.785664499E-1,3.017359376E-1
3.545219516E1,-8.916256428E-1,1.118526831E-1,4.791023135E-1
3.547237850E1,-6.450171471E-1,2.822948694E-1,8.103992939E-1
3.549256235E1,-1.965411454E-1,6.338318586E-1,1.230113149E0
3.551274693E1,4.724444151E-1,8.218508959E-1,1.650892377E0
3.553293235E1,1.138234258E0,8.399603963E-1,1.913479805E0
3.555311870E1,1.408811212E0,9.001477957E-1,1.881521940E0
3.557330600E1,9.997498989E-1,6.066676378E-1,1.409610152E0
3.559349422E1,3.792338669E-1,4.825644195E-1,2.229064107E-1
3.561368339E1,1.187768951E-1,4.623244107E-1,-1.117195249E0
3.563387339E1,4.452801943E-1,7.275750637E-1,-1.357412219E0
3.565406412E1,6.359623671E-1,1.298556328E0,-1.729721785E0
3.567425547E1,3.781685829E-1,1.863678694E0,-1.558214426E0
3.569444735E1,-2.652506530E-1,1.451954365E0,-6.261087060E-1
3.571463954E1,-5.699160695E-1,7.632613778E-1,6.418213248E-2
3.573483193E1,-6.082655191E-1,3.494064808E-1,3.118559420E-1
3.575503516E1,-6.796382070E-1,3.174485564E-1,4.583296776E-1
3.577521350E1,-6.769750714E-1,2.125200927E-1,4.791023135E-1
3.579539214E1,-3.930822909E-1,-2.178464085E-1,2.559295893E-1
3.581557152E1,2.077264152E-2,-4.671181142E-1,-7.723161485E-3
3.583575193E1,6.737792492E-1,-3.675159439E-2,-1.382179558E-1
3.585593370E1,1.360341668E0,5.113265514E-1,2.862896025E-1
3.587611704E1,1.749162912E0,1.725727171E-1,7.267761230E-1
3.589630204E1,1.850895524E0,-3.307643533E-1,7.384940386E-1
3.591648881E1,1.442366958E0,-2.913496196E-1,5.467465520E-1
3.593667735E1,4.218443930E-1,3.467433155E-1,1.605884880E-1
3.595686756E1,-3.850927949E-1,1.202682614E0,-1.627190262E-1
3.597705922E1,-4.005391300E-1,1.669268131E0,-1.781653464E-1
3.599725225E1,-2.199769467E-1,1.286838531E0,-6.524740160E-2
3.601744631E1,8.362319320E-2,1.019457340E0,1.051947847E-1
3.603764120E1,2.620548606E-1,9.145288467E-1,1.584579647E-1
3.605783662E1,2.743053734E-1,7.392929792E-1,1.249021590E-1
3.607803224E1,2.013348341E-1,6.173202991E-1,1.541969180E-1
3.609822641E1,1.922800839E-1,4.516717792E-1,1.840242893E-1
3.611841474E1,2.673811615E-1,2.205095738E-1,7.749792933E-2
3.613859766E1,3.174485564E-1,2.173137814E-1,-4.527370445E-3
3.615878100E1,3.169159293E-1,4.159854650E-1,-1.198421605E-2
3.617896485E1,2.854906619E-1,4.964128435E-1,5.672528967E-2
3.619914943E1,2.391516864E-1,4.245075583E-1,1.643169224E-1
3.621933485E1,7.350318879E-2,3.472759426E-1,2.660495937E-1
3.623952120E1,-1.555284858E-1,3.637875319E-1,3.033338189E-1
3.625970850E1,-3.185138404E-1,3.265033066E-1,1.605884880E-1
3.627989672E1,-2.940127552E-1,4.841623306E-1,-1.142495275E-1
3.630008589E1,-2.588590682E-1,8.655267358E-1,-3.693801761E-1
3.632027589E1,-2.380864173E-1,1.189899445E0,-4.924181104E-1
3.634046662E1,-1.459411234E-1,1.264467955E0,-5.291697383E-1
3.636065797E1,-3.914843798E-1,8.713856339E-1,-5.760413408E-1
3.638084985E1,-1.128646851E0,2.956106663E-1,-7.843003273E-1
3.640104204E1,-1.651158690E0,1.757685095E-2,-1.095889926E0
3.642123433E1,-1.837579727E0,1.145158410E-1,-1.250353217E0
3.644143745E1,-2.171007395E0,5.816339254E-1,-1.226384759E0
3.646161589E1,-3.044523478E0,9.523456693E-1,-1.103879452E0
3.648179464E1,-3.291664600E0,1.646897554E0,-9.845699072E-1
3.650197412E1,-2.745717049E0,2.657300234E0,-6.239781976E-1
3.652215464E1,-2.150767326E0,2.373407364E0,-3.741738498E-1
3.654233652E1,-1.693769217E0,1.042893052E0,-2.676474750E-1
3.656251995E1,-1.733716607E0,1.853558719E-1,-1.030642539E-1
3.658270506E1,-1.641571283E0,5.656549931E-1,1.648495495E-1
3.660289183E1,-1.317731142E0,8.820382953E-1,1.451421678E-1
3.662308027E1,-1.414137483E0,4.186486006E-1,-4.125233591E-1
3.664327037E1,-1.590971231E0,3.547327816E-1,-5.771065950E-1
3.666346193E1,-1.423192263E0,4.799012840E-1,-4.767054692E-2
3.668365475E1,-1.199486852E0,1.565937549E-1,3.017359376E-1
3.670384860E1,-1.096156240E0,-6.285055727E-2,3.848264813E-1
3.672404329E1,-1.000815153E0,1.278316416E-2,4.631233811E-1
3.674423850E1,-8.314382434E-1,8.522109129E-3,6.612623930E-1
3.676443391E1,-4.644549489E-1,-8.202529699E-2,9.771130681E-1
3.678462881E1,5.805686861E-2,-8.522109129E-3,1.321725845E0
3.680481704E1,4.980107546E-1,5.289034247E-1,1.449024916E0
3.682499985E1,4.069307148E-1,9.395625591E-1,8.950877786E-1
3.684518308E1,-4.601939023E-1,7.568697929E-1,-4.482096732E-1
3.686536693E1,-1.322524786E0,1.421061754E0,-1.224786878E0
3.688555152E1,-2.407495826E-1,1.996836662E0,-1.021854162E0
3.690573693E1,1.105211020E0,8.053393364E-1,-1.403484792E-1
3.692592329E1,1.247423768E0,5.273054838E-1,5.552686453E-1
3.694611058E1,1.661811322E-1,1.794969290E-1,9.307740927E-1
3.696629881E1,-5.326318368E-2,-3.520696461E-1,6.484792233E-1
3.698648797E1,6.498108059E-2,-3.105243444E-1,3.784348965E-1
3.700667797E1,1.438105945E-2,-1.736379713E-1,4.833633900E-1
3.702686870E1,3.121222556E-1,1.715074480E-1,4.290349185E-1
3.704706006E1,8.255793452E-1,8.250467181E-1,3.715106845E-1
3.706725193E1,1.035436273E0,1.051947832E0,4.125233591E-1
3.708744412E1,1.019989967E0,9.448888302E-1,4.434159994E-1
3.710763652E1,9.502151608E-1,1.325187922E0,5.499423742E-1
3.712783974E1,6.604634523E-1,1.794436574E0,6.846982241E-1
3.714801818E1,1.720400751E-1,2.010685205E0,7.352982163E-1
3.716819693E1,-1.651158631E-1,2.073535681E0,7.081339955E-1
3.718837641E1,-2.492716908E-1,1.922268271E0,6.846982241E-1
3.720855693E1,-1.267663687E-1,1.419463754E0,6.266413331E-1
3.722873881E1,1.661811322E-1,9.832383394E-1,5.542033911E-1
3.724892224E1,4.436823130E-1,7.510108948E-1,4.412854612E-1
3.726910735E1,6.263750196E-1,1.060469985E0,2.468748540E-1
3.728929412E1,4.564654827E-1,1.506815434E0,1.494032294E-1
3.730948256E1,3.302317113E-2,1.116928935E0,4.183822870E-1
3.732967266E1,-4.261054564E-3,5.454149842E-1,6.815024018E-1
3.734986422E1,1.331579536E-1,3.563306928E-1,7.384940386E-1
3.737005704E1,1.059937328E-1,5.060002208E-1,5.845634341E-1
3.739025089E1,-8.628635854E-2,8.831035495E-1,2.798980176E-1
3.741044558E1,-1.406148076E-1,1.294295311E0,1.251684781E-2
3.743064079E1,-1.262337416E-1,1.455682755E0,-6.524740160E-2
3.745083620E1,-1.794969290E-1,1.267131090E0,1.004010960E-1
3.747103100E1,-3.989412189E-1,9.773793817E-1,1.946769357E-1
3.749121933E1,-6.231792569E-1,5.331644416E-1,-3.222422674E-2
3.751140756E1,-7.052045465E-1,-1.219726875E-1,-2.617885470E-1
3.753159037E1,-7.717835307E-1,-6.769750714E-1,-5.440834165E-1
3.755177360E1,-1.019989967E0,-6.540718675E-1,-8.535425067E-1
3.757195745E1,-1.518000722E0,1.571263820E-1,-1.036767840E0
3.759214204E1,-1.854091406E0,1.234640598E0,-1.279115319E0
3.761232745E1,-1.675659657E0,1.801893473E0,-1.354216456E0
3.763251381E1,-1.265533209E0,1.122787833E0,-9.973530769E-1
3.765270110E1,-1.008804679E0,1.635179669E-1,-6.303697824E-1
3.767288933E1,-9.267793894E-1,4.261054471E-2,-5.371592045E-1
3.769307850E1,-9.699225426E-1,5.651223660E-1,-4.908202291E-1
3.771326850E1,-9.965541363E-1,1.007206798E0,-3.123885691E-1
3.773345922E1,-9.102677703E-1,9.566067457E-1,-1.280979514E-1
3.775365058E1,-8.452867270E-1,1.645832360E-1,-2.575274706E-1
3.777384245E1,-1.161669970E0,-7.344992757E-1,-1.083639383E0
3.779403464E1,-1.531316519E0,-6.567350626E-1,-2.054094553E0
3.781422704E1,-1.368331194E0,1.416800618E-1,-2.037583113E0
3.783443027E1,-1.189899445E0,4.506065249E-1,-1.572595477E0
3.785460870E1,-1.308143735E0,1.027979404E-1,-1.437307000E0
3.787478745E1,-1.242097378E0,-1.384842694E-1,-1.366466880E0
3.789496693E1,-9.235835671E-1,-2.705769539E-1,-1.297224760E0
3.791514745E1,-7.845667005E-1,-7.866972089E-1,-1.131043673E0
3.793532933E1,-7.233139873E-1,-1.088699460E0,-8.215845823E-1
3.795551277E1,-5.134570599E-1,-8.644614220E-1,-4.561991692E-1
3.797569787E1,-3.147853911E-1,-5.949497223E-1,-1.728390306E-1
3.799588464E1,-1.944106072E-1,-3.094590902E-1,3.595264629E-2
3.801607308E1,-4.740423337E-2,2.876211703E-1,2.522011697E-1
3.803626318E1,1.544632316E-1,7.627287507E-1,5.760413408E-1
3.805645474E1,2.695116997E-1,7.835013866E-1,9.808415174E-1
3.807664756E1,-7.669898123E-2,5.640571117E-1,1.202416301E0
3.809684141E1,-7.600656152E-1,1.095090985E0,5.621928573E-1
3.811703610E1,8.309056163E-1,1.989379883E0,3.861580789E-2
3.813723131E1,5.944170952E-1,1.966476679E0,1.044224739E0
3.815742672E1,2.833601236E-1,-7.590003610E-1,1.914012432E0
3.817762152E1,6.588655710E-1,-3.105243444E-1,1.704688191E0
3.819780985E1,7.590003610E-1,1.236238480E0,1.514005899E0
3.821799808E1,6.189181805E-1,1.729455471E0,1.745168209E0
3.823818089E1,6.860297918E-1,1.237303734E0,1.770734429E0
3.825836412E1,6.849645376E-1,5.443497300E-1,1.434111118E0
3.827854797E1,6.093307734E-1,9.001477808E-2,1.283376336E0
3.829873256E1,4.809665382E-1,-6.924213842E-3,1.310007930E0
3.831891797E1,4.372907281E-1,1.954758763E-1,1.306279540E0
3.833910433E1,5.171855092E-1,4.612591565E-1,1.239700556E0
3.835929162E1,6.141244769E-1,4.458128214E-1,1.074584723E0
3.837947985E1,6.535392404E-1,3.616569936E-1,8.641951084E-1
3.839966902E1,6.428865790E-1,5.576655269E-1,6.964160800E-1
3.841985902E1,4.767054915E-1,7.174550891E-1,6.010749936E-1
3.844004974E1,2.290316820E-1,6.215813160E-1,5.195823312E-1
3.846024110E1,7.829687744E-2,4.878907502E-1,4.130559862E-1
3.848043297E1,8.735162020E-2,4.676507413E-1,2.932138145E-1
3.850062516E1,1.608548164E-1,4.713791609E-1,1.419463754E-1
3.852081756E1,3.344927728E-1,4.910865426E-1,-4.287686199E-2
3.854102079E1,3.978759646E-1,6.881603003E-1,-9.134636074E-2
3.856119922E1,1.251684725E-1,6.487455368E-1,9.321057238E-3
3.858137797E1,-1.139832065E-1,3.488738537E-1,6.791055948E-2
3.860155745E1,2.503369562E-2,2.098569423E-1,4.873581231E-2
3.862173797E1,2.423474789E-1,1.949432492E-1,1.004010960E-1
3.864191985E1,3.850927949E-1,1.896169335E-1,1.728390306E-1
3.866210318E1,5.070654750E-1,1.629853398E-1,2.308958918E-1
3.868228818E1,5.326318145E-1,1.794969290E-1,3.448790908E-1
3.870247485E1,5.081307292E-1,2.183790505E-1,4.391549230E-1
3.872266318E1,3.643201590E-1,3.888212144E-2,4.301002026E-1
3.874285318E1,1.001347825E-1,-3.637875319E-1,2.617885470E-1
3.876304474E1,3.249054030E-2,-7.254445553E-1,3.462106921E-3
3.878323766E1,2.876211703E-1,-9.502151608E-1,-1.259674281E-1
3.880343162E1,5.464802384E-1,-9.566067457E-1,-2.506032586E-1
3.882362641E1,1.070589945E-1,-6.791055799E-1,-1.904158741E-1
3.884382172E1,-8.255793452E-1,-3.009369671E-1,-3.363569975E-1
3.886401724E1,-1.460476398E0,4.404865205E-1,-8.434224725E-1
3.888421204E1,-1.519065976E0,9.725856781E-1,-1.003211975E0
3.890440027E1,-1.472726941E0,1.024783611E0,-1.050083637E0
3.892458308E1,-1.449823856E0,8.426235318E-1,-1.243961573E0
3.894476631E1,-1.032240510E0,6.902908683E-1,-1.335574269E0
3.896495016E1,-2.066611499E-1,9.395625591E-1,-1.077780485E0
3.898513474E1,2.828274965E-1,6.530066133E-1,-7.379614115E-1
3.900532016E1,-6.279729009E-1,-4.932170510E-1,-8.583361506E-1
3.902550652E1,-7.515435219E-1,-6.918887496E-1,-8.977509141E-1
3.904569381E1,-6.162550449E-1,-9.773793817E-1,-1.210405827E0
3.906588204E1,-7.973498106E-1,-1.421594381E0,-1.946503043E0
3.908607120E1,-1.002413034E0,-1.235705853E0,-2.271408319E0
3.910626120E1,-1.094025731E0,-9.267793894E-1,-1.776060820E0
3.912645193E1,-1.076981544E0,-8.788425326E-1,-1.418132186E0
3.914664329E1,-1.122787833E0,-6.860297918E-1,-1.256212115E0
3.916683516E1,-1.182975292E0,-7.893603444E-1,-1.223721623E0
3.918702735E1,-1.149952054E0,-9.795098901E-1,-1.149153113E0
3.920721974E1,-9.400951862E-1,-9.166593552E-1,-8.205193281E-1
3.922742297E1,-5.592634082E-1,-5.720465779E-1,-3.065296113E-1
3.924760131E1,-2.737727463E-1,-1.544632316E-1,1.270326823E-1
3.926777995E1,-4.207791388E-2,-3.888212144E-2,4.647212625E-1
3.928795933E1,2.327601016E-1,-1.683116555E-1,9.238498807E-1
3.930813975E1,2.173137814E-1,4.186486006E-1,1.492168069E0
3.932832152E1,-5.496760607E-1,1.261804819E0,1.276452184E0
3.934850485E1,9.571393728E-1,1.623994470E0,1.142495275E-1
3.936868985E1,3.914843798E-1,1.973400950E0,8.189214468E-1
3.938887662E1,3.691138625E-1,-6.130592227E-1,1.589639664E0
3.940906516E1,5.773729086E-1,-5.496760607E-1,1.552355409E0
3.942925537E1,7.637940049E-1,2.913496196E-1,1.691905022E0
3.944944704E1,8.058719635E-1,7.025413513E-1,1.963547230E0
3.946964006E1,7.563371658E-1,9.022783041E-1,1.808018684E0
3.948983412E1,5.683181286E-1,8.218508959E-1,1.237570047E0
3.951002902E1,6.306360960E-1,4.016043842E-1,8.785761595E-1
3.953022443E1,7.408908606E-1,5.752423778E-2,9.723193645E-1
3.955042006E1,6.982803345E-1,6.924213469E-2,1.250885844E0
3.957061402E1,6.567350626E-1,2.940127552E-1,1.398424864E0
3.959080224E1,6.876276731E-1,5.581981540E-1,1.314801693E0
3.961098506E1,6.322339773E-1,5.299686790E-1,1.094824672E0
3.963116829E1,5.182507634E-1,1.416800618E-1,8.535425067E-1
3.965135214E1,5.731118321E-1,-4.793686420E-2,6.383592486E-1
3.967153672E1,7.222487330E-1,6.391582079E-3,5.126581192E-1
3.969172214E1,7.398256063E-1,-6.711161137E-2,4.375570416E-1
3.971190850E1,6.657897830E-1,-1.944106072E-1,2.969422340E-1
3.973209579E1,5.544697046E-1,-2.237053588E-2,7.376950979E-2
3.975228402E1,3.643201590E-1,2.055958807E-1,-1.494032294E-1
3.977247318E1,2.103895694E-1,3.009369671E-1,-3.123885691E-1
3.979266318E1,1.725727171E-1,3.675159514E-1,-3.800328076E-1
3.981285391E1,2.050632536E-1,3.962780833E-1,-3.571296334E-1
3.983304527E1,1.890842915E-1,1.784316599E-1,-2.633864284E-1
3.985323714E1,2.151832581E-1,7.510108501E-2,-1.456748098E-1
3.987342933E1,3.920170069E-1,2.876211889E-2,-7.723161485E-3
3.989362162E1,5.081307292E-1,-1.693769246E-1,2.181127369E-1
3.991382474E1,5.113265514E-1,-3.115896285E-1,4.183822870E-1
3.993400318E1,5.406212807E-1,-2.098569423E-1,4.402202070E-1
3.995418193E1,5.699160695E-1,-3.728422802E-3,3.427485824E-1
3.997436141E1,4.213117659E-1,-3.083938360E-1,2.202432603E-1
3.999454193E1,3.190464675E-1,-6.221139431E-1,2.103895694E-2
4.001472381E1,4.729770422E-1,-4.703139067E-1,-1.494032294E-1
4.003490714E1,4.692486227E-1,-7.371624112E-1,-1.632516533E-1
4.005509214E1,8.522109129E-3,-9.965541363E-1,-2.857569754E-1
4.007527881E1,-8.815056682E-1,-5.571328998E-1,-7.337003350E-1
4.009546714E1,-1.563807011E0,8.213182688E-1,-1.295094252E0
4.011565714E1,-1.715607047E0,2.156626225E0,-1.386174321E0
4.013584860E1,-1.705487132E0,2.107091427E0,-1.369662762E0
4.015604141E1,-1.314002752E0,1.270859480E0,-1.453818560E0
4.017623527E1,-4.841623306E-1,3.392864764E-1,-1.254081607E0
4.019642995E1,5.273054913E-2,-5.129244328E-1,-8.109319210E-1
4.021662516E1,-7.073350549E-1,-1.337971091E0,-6.005423665E-1
4.023682058E1,-1.172322631E0,-1.147821546E0,-5.099949837E-1
4.025701579E1,-1.124385715E0,-4.069307148E-1,-8.780435324E-1
4.027720412E1,-1.464737535E0,2.380864173E-1,-1.749961853E0
4.029739235E1,-1.544099689E0,-8.309056610E-2,-1.915610313E0
4.031757516E1,-1.431181669E0,-8.591351509E-1,-1.472460628E0
4.033775839E1,-1.484977484E0,-8.122635484E-1,-1.407479644E0
4.035794225E1,-1.464204907E0,-4.713791609E-1,-1.483645916E0
4.037812683E1,-1.166463733E0,-7.504782081E-1,-1.249287963E0
4.039831224E1,-8.671246171E-1,-1.040762544E0,-9.440898895E-1
4.041849860E1,-5.731118321E-1,-1.026914120E0,-6.809697747E-1
4.043868589E1,-2.460758984E-1,-8.346340656E-1,-9.880319983E-2
4.045887412E1,7.669898123E-2,-4.825644195E-1,7.091992497E-1
4.047906329E1,6.157223582E-1,1.549958587E-1,1.367532253E0
4.049925329E1,1.587242782E-1,8.612656593E-1,1.588574409E0
4.051944402E1,9.693899155E-1,1.010935187E0,8.801741004E-1
4.053963537E1,6.157223582E-1,1.614407063E0,1.335574269E0
4.055982724E1,6.130592227E-1,5.555350184E-1,1.200285792E0
4.058001943E1,6.647245288E-1,-1.267663687E-1,1.003211975E0
4.060021172E1,9.534109831E-1,1.597895520E-3,1.394696474E0
4.062041485E1,8.644614220E-1,2.093243003E-1,1.801094532E0
4.064059318E1,6.913561225E-1,3.685812056E-1,1.834650278E0
4.066077183E1,5.539370775E-1,6.769750714E-1,1.401087999E0
4.068095120E1,6.801708341E-1,7.041392922E-1,8.418245912E-1
4.070113162E1,8.026761413E-1,1.134505793E-1,8.482161760E-1
