"Time (s)","Gyroscope x (rad/s)","Gyroscope y (rad/s)","Gyroscope z (rad/s)"
3.921000200E-2,-9.239830375E-1,6.897582114E-2,1.087900475E-1
5.950427300E-2,-6.428865790E-1,1.254348010E-1,-1.850895584E-2
7.961495000E-2,-1.647163928E-1,-7.736477256E-2,1.135837361E-1
9.988271000E-2,1.889511347E-1,-2.142511457E-1,3.893538713E-1
1.201504700E-1,3.491401672E-1,-2.552638054E-1,4.745749533E-1
1.404182830E-1,2.432795912E-1,-2.834932804E-1,3.866907060E-1
1.606862000E-1,-6.724476814E-2,-1.689774394E-1,-1.997369342E-3
1.809540640E-1,-5.688507557E-1,7.323687524E-2,-4.338286221E-1
2.012219290E-1,-1.050749421E0,5.744433999E-1,-6.655234694E-1
2.214898450E-1,-1.281911612E0,8.661925197E-1,-7.954856157E-1
2.417577100E-1,-1.016660929E0,7.117292881E-1,-9.530115128E-1
2.620256790E-1,-4.894886315E-1,3.454117477E-1,-7.576687932E-1
2.822935430E-1,-1.109205782E-1,5.174518228E-1,-3.146522343E-1
3.025614600E-1,5.725792143E-3,6.099966168E-1,-6.165213138E-2
3.228294290E-1,7.656582445E-2,-4.862928391E-1,-1.948100924E-1
3.430973450E-1,-4.926844500E-3,-2.018408298E0,-2.001364082E-1
3.633653140E-1,-5.379581451E-1,-3.154245615E0,1.199753210E-1
3.836332830E-1,-1.096023083E0,-3.879423857E0,3.312969804E-1
4.039012520E-1,-1.353151083E0,-3.767038584E0,6.247771382E-1
4.241691680E-1,-1.507614374E0,-2.789925575E0,1.190831542E0
4.444371370E-1,-1.542235494E0,-1.624793410E0,1.763277650E0
4.647050540E-1,-1.447959661E0,-9.363667369E-1,1.974599361E0
4.851050540E-1,-1.183907390E0,-8.229161501E-1,1.894171953E0
5.052409910E-1,-6.423539519E-1,-1.441168547E0,1.775528193E0
5.255089080E-1,1.797632314E-2,-1.625858665E0,1.810016036E0
5.457768770E-1,2.629869580E-1,-1.076315761E0,1.973534107E0
5.660447930E-1,-3.158506751E-1,-1.843172431E0,1.952761412E0
5.864447930E-1,-7.833682299E-1,-2.753173828E0,1.858485579E0
6.065806790E-1,-6.269076467E-1,-3.041327715E0,1.687111259E0
6.268486480E-1,-3.909517527E-1,-3.139864683E0,1.215865254E0
6.471165640E-1,-6.460824013E-1,-2.620149136E0,5.097286701E-1
6.674504700E-1,-1.042227268E0,-2.508829117E0,7.843003422E-2
6.878505230E-1,-9.708546400E-1,-2.859700203E0,5.065328479E-1
7.079204180E-1,-7.961513996E-1,-3.583946466E0,9.804420471E-1
7.281883870E-1,-5.320991874E-1,-3.961981773E0,9.266462326E-1
7.484444810E-1,-8.109319210E-2,-3.760114431E0,7.396924496E-1
7.685945850E-1,2.283658981E-1,-3.431081057E0,3.669833243E-1
7.889894290E-1,2.001364082E-1,-2.839992762E0,-5.041360259E-1
8.092575540E-1,-1.615206003E-1,-2.479001760E0,-1.074984193E0
8.295259910E-1,-1.290300637E-1,-2.768087626E0,-7.070687413E-1
8.497943770E-1,1.170458421E-1,-3.027479172E0,-8.668582886E-2
8.700626060E-1,7.230477035E-2,-2.946519136E0,9.494162351E-2
8.903307830E-1,5.472791940E-2,-2.215348959E0,-3.098585606E-1
9.105989600E-1,1.585911214E-1,-1.513606429E0,-4.897549450E-1
9.308670330E-1,1.830921918E-1,-1.742504954E0,-2.459427416E-1
9.511351580E-1,3.768370301E-2,-2.183391094E0,4.753739014E-2
9.714031790E-1,8.242477477E-2,-2.014147282E0,1.636511236E-1
9.916712520E-1,3.922833502E-1,-1.817073464E0,1.743037701E-1
1.011939273E0,3.597927988E-1,-1.287770629E0,2.412822098E-1
1.032207241E0,-5.992108025E-3,-6.103960872E-1,1.716406047E-1
1.052607293E0,-3.185138404E-1,-5.763076544E-1,-2.150501013E-1
1.072743231E0,8.135951310E-2,-8.500803709E-1,-5.073317885E-1
1.093011148E0,6.990792751E-1,-9.001477957E-1,-4.886896908E-1
1.113279168E0,7.235803008E-1,-7.355645299E-1,-4.210454524E-1
1.133547085E0,2.379532605E-1,-6.535392404E-1,-2.416816950E-1
1.153815106E0,-5.326318145E-1,-5.747097135E-1,-1.687111259E-1
1.174083023E0,-8.547409177E-1,-1.780321896E-1,-1.521995366E-1
1.194350939E0,-2.972085476E-1,-3.475422785E-2,-1.213068962E-1
1.214618908E0,2.789659202E-1,-8.282424808E-1,-2.640522122E-1
1.234886877E0,-1.146489978E-1,-1.958220840E0,-4.641886353E-1
1.255154845E0,-7.307708859E-1,-1.628521800E0,-2.944122255E-1
1.275422762E0,-9.703220129E-1,-9.608678222E-1,3.688475490E-2
1.295822762E0,-9.159935713E-1,-5.560676455E-1,2.897517085E-1
1.315958648E0,-8.856335878E-1,-2.366216928E-1,4.122570157E-1
1.336226616E0,-6.860297918E-1,-8.500803709E-1,3.568633199E-1
1.356494533E0,-5.246423483E-1,-1.996570349E0,1.625858694E-1
1.376762502E0,-6.625939608E-1,-2.529068947E0,2.769685388E-1
1.397164481E0,-8.744482994E-1,-2.401237488E0,1.175385237E0
1.417339793E0,-1.191896915E0,-8.772445917E-1,1.658881783E0
1.437732033E0,-1.573660731E0,6.957502961E-1,1.706818700E0
1.457982502E0,-1.609879732E0,7.809714079E-1,1.459144831E0
1.478093179E0,-1.667403936E0,4.189149141E-1,1.106675744E0
1.498417450E0,-1.934119344E0,8.779103756E-1,1.289235353E0
1.518804689E0,-2.292580605E0,1.867274046E0,2.009752989E0
1.538900366E0,-1.904291868E0,2.235722065E0,2.455965281E0
1.559169481E0,-2.447975874E0,1.666604996E0,2.503902197E0
1.579438335E0,-2.412289619E0,1.505750179E0,2.636527538E0
1.599706981E0,-2.458628416E0,1.441834331E0,2.569415808E0
1.619975575E0,-2.741456032E0,1.558480740E0,2.720150709E0
1.640243960E0,-2.870885611E0,1.294827938E0,2.586460114E0
1.660512293E0,-3.108306170E0,1.114398956E0,2.082190990E0
1.680780627E0,-2.812295914E0,1.499358565E-1,2.045971870E0
1.701048856E0,-2.391649961E0,-4.576638937E-1,1.945304513E0
1.721317033E0,-2.417083263E0,-1.056608319E0,2.496445417E0
1.741585158E0,-2.531066418E0,-1.394297004E0,3.300053596E0
1.761853283E0,-1.368597507E0,7.080008388E-1,2.944255590E0
1.782121356E0,-7.334340215E-1,1.296958447E0,1.479384899E0
1.802389429E0,-2.689790726E-1,9.210535884E-1,5.539370775E-1
1.822657502E0,5.728455186E-1,5.616602302E-1,4.532696903E-1
1.842925575E0,8.416914344E-1,-5.629918575E-1,2.743053734E-1
1.863193595E0,9.657946229E-1,-1.465669632E0,3.901528195E-2
1.883461668E0,9.897630811E-1,-1.883119822E0,-1.042626798E-1
1.903729689E0,9.551420212E-1,-1.355414867E0,-1.521995366E-1
1.923997710E0,1.071255803E0,-8.234487772E-1,1.398158539E-2
1.944265679E0,1.122920990E0,-1.881521940E-1,8.162582666E-2
1.964533752E0,1.120257854E0,1.079245210E0,9.707214683E-2
1.984801773E0,8.045403361E-1,1.734116077E0,2.135853618E-1
2.005069793E0,3.885549009E-1,5.366265774E-1,6.167876720E-1
2.025337814E0,-4.860265180E-2,-2.414153665E-1,8.169240355E-1
2.045605835E0,-3.510043621E-1,3.475422561E-1,5.315665603E-1
2.065873908E0,-9.852356911E-1,8.374303579E-1,-3.022685647E-2
2.086141929E0,-1.422393322E0,1.918939233E0,-5.472791940E-2
2.106409950E0,-1.152482152E0,1.792172909E0,6.138581783E-2
2.126677918E0,-8.835030198E-1,7.101313472E-1,4.452801943E-1
2.146946043E0,-6.072002649E-1,2.761695981E-1,6.455497742E-1
2.167214064E0,-5.326318145E-1,-2.030658871E-1,3.888212144E-1
2.187482085E0,-5.017392039E-1,-4.878907502E-1,3.046653867E-1
2.207750158E0,-5.262402296E-1,-2.275669426E-1,4.857602119E-1
2.228018179E0,-3.547327816E-1,5.512739345E-2,5.784381628E-1
2.248286200E0,2.063948289E-2,7.909582555E-2,3.611243665E-1
2.268558231E0,4.322307110E-1,1.286305785E-1,-5.153212696E-2
2.288860783E0,9.082704186E-1,1.904158667E-2,-1.287637353E-1
2.309089741E0,1.479118586E0,2.010685056E-1,1.402153224E-1
2.329357918E0,1.853026152E0,3.097254038E-1,3.787012100E-1
2.349626095E0,1.967408776E0,6.258423626E-2,7.105308771E-1
2.369894168E0,2.278998375E0,2.862896025E-2,1.326519608E0
2.390162293E0,2.555301189E0,6.897582114E-2,1.891508698E0
2.410430418E0,2.532397985E0,-8.375635743E-2,2.215348959E0
2.430698543E0,2.346110106E0,-8.703203797E-1,2.428268433E0
2.450966616E0,1.744901896E0,-1.652490258E0,2.389919043E0
2.471234689E0,8.347672224E-1,-1.633848071E0,2.134388924E0
2.491634689E0,2.571280003E-1,-1.315467477E0,2.320277452E0
2.511770887E0,-2.886864543E-1,-8.351666927E-1,2.497510672E0
2.532038960E0,-9.341030717E-1,4.886896908E-2,2.004959345E0
2.552307033E0,-1.249421120E0,5.929523706E-1,1.577389121E0
2.572575158E0,-1.258475780E0,8.661925197E-1,1.339302659E0
2.592843231E0,-8.797746301E-1,6.158555150E-1,1.379782677E0
2.613111304E0,-4.340949357E-1,3.518033028E-1,1.431980610E0
2.633379325E0,5.472791940E-2,3.544664681E-1,1.385641694E0
2.653647450E0,9.119988084E-1,3.038664460E-1,1.459144831E0
2.673915575E0,8.715187907E-1,-1.106675744E0,1.560344934E0
2.694183648E0,4.487423003E-1,-8.985498548E-1,2.479401112E0
2.714451720E0,-2.090579830E-2,3.805654347E-1,2.116811991E0
2.734719845E0,-7.797729969E-1,5.950828791E-1,1.979925632E0
2.754987918E0,-1.097088337E0,4.407528341E-1,2.112018347E0
2.775395835E0,-1.455949068E0,3.853591084E-1,1.951696157E0
2.795672658E0,-1.544898629E0,-1.487374306E-1,1.511342764E0
2.815785314E0,-9.271788597E-1,-5.139896870E-1,1.067793608E0
2.836053231E0,-1.769669205E-1,3.994738800E-4,8.882967234E-1
2.856454741E0,2.752375007E-1,9.104009271E-1,7.844334841E-1
2.876590887E0,2.974748611E-1,1.243162632E0,5.619265437E-1
2.896992085E0,2.246374637E-1,8.587356806E-1,1.716406047E-1
2.917128179E0,2.155827284E-1,5.105276108E-1,-2.129195631E-1
2.937537085E0,1.511342824E-1,9.720530361E-2,-2.656501234E-1
2.957830314E0,6.484792382E-2,-4.091944098E-1,-1.665806025E-1
2.978098439E0,2.809632942E-2,-8.495477438E-1,-3.965443969E-1
2.998205575E0,1.458079666E-1,-1.590704918E0,-7.358308434E-1
3.018473648E0,5.094623566E-1,-2.389519453E0,-1.014796734E0
3.038741720E0,7.379614115E-1,-2.875146627E0,-1.516402841E0
3.059009689E0,9.860346317E-1,-3.031740427E0,-2.798713923E0
3.079277762E0,1.187369466E0,-2.882603407E0,-3.737477541E0
3.099545835E0,8.709861636E-1,-2.095107317E0,-3.618700504E0
3.119813908E0,4.024033546E-1,-7.062698007E-1,-2.530800104E0
3.140082033E0,2.390185297E-1,6.605966091E-1,-1.040363073E0
3.160350106E0,1.026647836E-1,1.729322314E0,1.572595388E-1
3.180750106E0,-2.775011659E-1,2.639989614E0,5.805686712E-1
3.200886356E0,-5.890907645E-1,2.567551613E0,6.748445034E-1
3.221154481E0,-6.439518929E-1,1.421061754E0,3.691138625E-1
3.241422606E0,-3.680485785E-1,-1.636511236E-1,-1.051947847E-2
3.261690731E0,2.223737910E-2,-8.617982864E-1,-4.833633825E-2
3.281958856E0,1.804290265E-1,-4.342280924E-1,-5.632581562E-2
3.302226981E0,1.820269227E-1,9.986846708E-3,-1.159805804E-1
3.322495106E0,1.996037811E-1,-1.611211337E-2,-1.186437383E-1
3.342763231E0,1.521995366E-1,-3.500722647E-1,-1.074584723E-1
3.363031356E0,-1.824264042E-2,-4.177165031E-1,-1.143826842E-1
3.383299481E0,-9.227846563E-2,-1.423458606E-1,-9.201214463E-2
3.403567606E0,-1.331579551E-4,1.249021590E-1,-3.289001435E-2
3.423835731E0,1.000016257E-1,2.005358785E-1,-1.584579609E-2
3.444103908E0,1.101216301E-1,6.524740160E-2,-1.904158667E-2
3.464372033E0,6.751108170E-2,-9.227846563E-2,-1.211737376E-2
3.484640002E0,5.046686530E-2,-1.194426864E-1,1.504684892E-2
3.504908231E0,7.869634777E-2,-2.090579830E-2,4.807002097E-2
3.525176356E0,1.282311082E-1,5.153212696E-2,1.189100519E-1
3.545444481E0,1.585911214E-1,6.471476704E-2,2.306295782E-1
3.565712606E0,1.500690132E-1,4.514054582E-2,3.169159293E-1
3.585980783E0,1.729721874E-1,-9.014793485E-2,3.472759426E-1
3.606248908E0,2.150501013E-1,-3.532680571E-1,3.914843798E-1
3.626517033E0,2.187785208E-1,-6.535392404E-1,4.106591344E-1
3.646785210E0,1.900164038E-1,-9.129309654E-1,3.882885873E-1
3.667053335E0,1.569932252E-1,-1.028378844E0,3.265033066E-1
3.687321460E0,1.511342824E-1,-7.749792933E-1,1.631184965E-1
3.707589585E0,2.017343044E-1,-3.202448785E-1,-1.852227151E-1
3.727857762E0,2.406164259E-1,4.514054582E-2,-4.705802202E-1
3.748083283E0,2.225069404E-1,2.484727502E-1,-5.158539414E-1
3.767920627E0,2.512690723E-1,2.655169666E-1,-4.167844057E-1
3.788320627E0,3.075948656E-1,2.452769578E-1,-2.438122183E-1
3.808720627E0,3.464770019E-1,1.099884734E-1,-6.271740049E-2
3.829120627E0,3.890875578E-1,-1.131842658E-2,1.396826953E-1
3.849444064E0,4.721781015E-1,-1.451421715E-2,2.609896064E-1
3.869716200E0,6.053360701E-1,-4.647212476E-2,2.535327375E-1
3.889988075E0,7.427550554E-1,-1.641837656E-1,2.013348341E-1
3.910259168E0,8.151929975E-1,-1.870869249E-1,1.455416381E-1
3.930529689E0,7.166560888E-1,-2.073269337E-1,1.439437568E-1
3.950799741E0,4.173170328E-1,-4.241080880E-1,1.668469161E-1
3.971067710E0,3.289001435E-2,-8.969519734E-1,1.370195299E-1
3.991469377E0,-3.025348783E-1,-1.048086286E0,1.295626909E-1
4.011606929E0,-4.479433596E-1,-1.199753210E-1,1.641837656E-1
4.031876095E0,-3.099917173E-1,1.490303874E0,1.864211410E-1
4.052145002E0,-1.185105834E-2,2.650109529E0,2.109221965E-1
4.072413075E0,2.454101145E-1,2.779938698E0,2.668485343E-1
4.092813752E0,2.709764242E-1,2.093642473E0,2.775011659E-1
4.112950523E0,6.857634336E-2,1.133973122E0,3.334275186E-1
4.133219116E0,-2.089248300E-1,5.600623488E-1,4.356928170E-1
4.153487554E0,-4.303665161E-1,2.500706315E-1,3.526022732E-1
4.173755939E0,-8.568714261E-1,-4.171838760E-1,2.258358896E-1
4.194024325E0,-1.760081887E0,-1.663142800E0,6.617950648E-2
4.214292658E0,-2.549175978E0,-2.214816332E0,-1.051947847E-2
4.234560939E0,-3.117360830E0,-2.270210028E0,4.114580899E-2
4.254829220E0,-3.328815699E0,-2.317081690E0,2.359558940E-1
4.275097398E0,-3.247323036E0,-2.932138205E0,4.506065249E-1
4.295505418E0,-3.297390461E0,-3.597262144E0,3.962780833E-1
4.315782398E0,-3.579019547E0,-3.335739851E0,-2.448774725E-1
4.335895158E0,-3.174885035E0,-1.340501189E0,-1.414270639E0
4.356164689E0,-1.881921411E0,7.942872047E-1,-2.559562206E0
4.376432814E0,-8.952209353E-1,8.006787896E-1,-2.912697077E0
4.396834012E0,-1.098153710E0,-5.869602561E-1,-2.362621546E0
4.416971200E0,-2.049167871E0,-2.155161619E0,-1.673529148E0
4.437239273E0,-3.150383949E0,-3.241464138E0,-1.219860077E0
4.457648023E0,-3.694600582E0,-3.399655819E0,-1.058472633E0
4.477942137E0,-3.469830036E0,-2.847449780E0,-1.134638906E0
4.498047918E0,-3.032139778E0,-2.395378351E0,-1.244893670E0
4.518315991E0,-2.791523457E0,-1.915610313E0,-1.278449535E0
4.538584116E0,-2.661561251E0,-1.536509633E0,-1.295493722E0
4.558852137E0,-2.302700520E0,-1.065130472E0,-1.280047417E0
4.579120210E0,-1.644500732E0,-5.805686712E-1,-1.233708501E0
4.599388387E0,-8.414251208E-1,-2.355564237E-1,-1.081908345E0
4.619656460E0,-2.783001214E-2,-2.664490640E-1,-8.199867010E-1
4.639924585E0,6.287718415E-1,-5.278381109E-1,-6.271739602E-1
4.660192762E0,9.380977750E-1,-6.242445111E-1,-5.808349848E-1
4.680460887E0,1.351420045E0,-1.185105834E-2,-4.588623047E-1
4.700729012E0,1.767272353E0,1.440236449E0,-2.411490530E-1
4.720997189E0,2.585661173E0,2.516418934E0,-1.415469050E-1
4.741265314E0,2.480200052E0,2.279930592E0,3.387538493E-1
4.761533491E0,1.733716607E0,-2.568616867E-1,-2.986733019E-1
4.781801616E0,2.180461407E0,-7.078676820E-1,-1.159805804E-1
4.802069793E0,1.961017251E0,3.342264593E-1,4.074633420E-1
4.822337918E0,1.741706014E0,1.367265940E0,1.029976726E0
4.842606095E0,1.817872405E0,2.325736761E0,1.710547090E0
4.862874220E0,2.248638391E0,3.504717350E0,2.006557226E0
4.883142398E0,2.963829756E0,4.478634834E0,1.711612344E0
4.903410523E0,3.553719521E0,4.906737328E0,1.385109067E0
4.923678700E0,3.798197508E0,4.915259361E0,1.578987002E0
4.943946825E0,3.145856619E0,4.461590290E0,1.470330119E0
4.964214950E0,1.841840863E0,3.011633396E0,9.351683259E-1
4.984483023E0,1.095756769E0,5.243760347E-1,8.025429845E-1
5.004751200E0,7.672561407E-1,-2.169009924E0,1.035835743E0
5.025019325E0,5.121254921E-1,-4.208057880E0,8.568714261E-1
5.045287450E0,2.974748611E-1,-4.833633900E0,1.874863952E-1
5.065555627E0,6.394245028E-1,-3.555184126E0,-5.483444333E-1
5.085823752E0,1.223055840E0,-1.269661069E0,-9.423588514E-1
5.106091929E0,1.518533349E0,6.408892274E-1,-9.833714962E-1
5.126360054E0,1.351952672E0,1.652756572E0,-6.452834606E-1
5.146628179E0,7.976161242E-1,2.101632118E0,-9.201214463E-2
5.166896356E0,1.772332340E-1,2.464753866E0,3.057306707E-1
5.187164481E0,-3.941475451E-1,2.725743294E0,5.363602638E-1
5.207432606E0,-8.360987902E-1,2.503103256E0,6.482129097E-1
5.227700783E0,-1.001214623E0,1.577655435E0,5.129244328E-1
5.247968908E0,-8.462188244E-1,3.736412227E-1,2.332927436E-1
5.268237033E0,-3.265033066E-1,-5.976129174E-1,-1.158474199E-2
5.288505210E0,3.901528120E-1,-8.064045906E-1,-1.010668874E-1
5.308773335E0,8.811061978E-1,-4.736428559E-1,-4.087949172E-2
5.329041460E0,8.189214468E-1,1.147821546E-1,5.605949834E-2
5.349309585E0,2.294311523E-1,8.507461548E-1,1.205079481E-1
5.369577710E0,-4.271707237E-1,1.434377551E0,1.611211337E-2
5.389845887E0,-7.403582335E-1,1.593101740E0,-2.741722167E-1
5.410114012E0,-1.543300748E0,-1.461408615E0,-2.049300969E-1
5.430382137E0,-2.537457943E0,-6.039778709E0,1.794969290E-1
5.450650262E0,-3.073152542E0,-6.420476913E0,2.444780022E-1
5.470918387E0,-4.273438454E0,-4.573842525E0,2.311622053E-1
5.491305314E0,-5.430581093E0,-1.408678055E0,3.382211924E-1
5.511454637E0,-5.137100697E0,1.592569113E0,5.352949500E-1
5.531722762E0,-3.192461967E0,2.866225004E0,1.524658650E-1
5.552122762E0,-7.084003091E-1,2.037716150E0,-8.423572183E-1
5.572259064E0,7.225150466E-1,1.752225518E0,-1.490303874E0
5.592527189E0,5.020055175E-1,2.247972488E0,-1.520131230E0
5.612795314E0,-9.314398766E-1,3.816306889E-1,-1.214001060E0
5.633063439E0,-2.568883181E0,-2.748380184E0,-7.992140651E-1
5.653331564E0,-3.969438553E0,-3.595131636E0,-7.976161242E-1
5.673599689E0,-4.936431885E0,-2.997651815E0,-8.689888120E-1
5.693867814E0,-4.579035759E0,-2.134921551E0,-8.274435401E-1
5.714135939E0,-3.011367083E0,-2.561027050E0,-7.177214026E-1
5.734404064E0,-1.420262694E0,-2.624942780E0,-4.130559862E-1
5.754672189E0,-4.942823350E-1,-2.197772026E0,-2.970753908E-1
5.775080158E0,5.707150102E-1,-7.392929792E-1,-3.018690944E-1
5.795356981E0,1.917341352E0,9.705883265E-1,-4.455465078E-1
5.815469689E0,2.376470089E0,2.353433609E0,-3.736412227E-1
5.835739168E0,1.807752371E0,2.603238106E0,2.996053919E-2
5.856008439E0,2.265150070E0,1.863012910E0,3.446127772E-1
5.876276460E0,3.253980875E0,1.352352142E0,7.460840344E-1
5.896677398E0,1.940777183E0,2.045705557E0,5.448823571E-1
5.916814377E0,1.903626084E0,9.444893599E-1,-2.310290486E-1
5.937082450E0,1.841308236E0,3.427485824E-1,3.030675054E-1
5.957477762E0,1.532914400E0,7.463503480E-1,9.165261984E-1
5.977785054E0,1.476988077E0,1.722398162E0,1.532648087E0
5.997890054E0,1.567002773E0,2.827342749E0,2.109887838E0
6.018158075E0,2.126132965E0,3.712976456E0,2.016144514E0
6.038426095E0,3.691138506E0,3.605917454E0,1.086435795E0
6.058694168E0,4.559195042E0,3.304447889E0,6.167876720E-1
6.078962241E0,3.555850029E0,3.168759823E0,6.748445034E-1
6.099230262E0,2.079261541E0,1.981789827E0,1.021987319E0
6.119498439E0,1.204413652E0,-2.179795653E-1,1.258875251E0
6.139766460E0,8.352998495E-1,-2.354365826E0,9.010798931E-1
6.160034585E0,7.102645040E-1,-3.570097923E0,1.826927215E-1
6.180302658E0,5.398223400E-1,-3.974232435E0,-4.652538896E-1
6.200570783E0,5.504750013E-1,-3.054110765E0,-8.114646077E-1
6.220838908E0,8.400935531E-1,-8.676572442E-1,-8.636624813E-1
6.241107033E0,1.147954702E0,1.241032124E0,-6.559360623E-1
6.261375106E0,8.970851302E-1,1.991909862E0,-1.276984811E-1
6.281643231E0,4.956139028E-1,1.946636200E0,3.840275407E-1
6.302043231E0,1.905490309E-1,1.785248756E0,5.736444592E-1
6.322337345E0,1.904158667E-2,1.784183383E0,5.203812718E-1
6.342448023E0,-1.306279600E-1,1.865676165E0,4.873581231E-1
6.362716043E0,-2.886864543E-1,1.720800281E0,5.443497300E-1
6.382984064E0,-4.053328037E-1,1.104278922E0,5.044023395E-1
6.403252085E0,-3.989412189E-1,3.086601496E-1,3.254380524E-1
6.423520106E0,-1.380847991E-1,-1.620532274E-1,9.867004305E-2
6.443920106E0,2.528669536E-1,-2.009353489E-1,-1.850895584E-2
6.464056252E0,5.190497041E-1,2.596580051E-2,-2.649843320E-2
6.484318752E0,4.045338631E-1,6.488786936E-1,-1.559279710E-1
6.504590366E0,1.211737376E-2,1.561143875E0,-3.109238148E-1
6.524858856E0,-3.563306928E-1,2.129328966E0,-4.791023135E-1
6.545127241E0,-1.527854323E0,-1.191896915E0,-2.901511788E-1
6.565395523E0,-2.404832602E0,-4.365050793E0,-1.431448013E-1
6.585663804E0,-2.659430742E0,-5.024315834E0,-7.656582445E-2
6.605932085E0,-3.035868168E0,-5.374122143E0,1.912148297E-1
6.626200314E0,-4.320309639E0,-5.151082516E0,3.153180480E-1
6.646468491E0,-5.364001751E0,-3.079144478E0,3.877559602E-1
6.666736668E0,-4.438021660E0,5.563339591E-1,3.856254518E-1
6.687004845E0,-2.375138521E0,3.689007998E0,-2.294311523E-1
6.707272970E0,-3.315633163E-2,4.097936153E0,-1.269927382E0
6.727541043E0,1.527055383E0,2.906172276E0,-1.899897695E0
6.747751460E0,9.466199279E-1,1.955158234E0,-2.114947796E0
6.767432970E0,-8.238482475E-1,-9.789772630E-1,-1.939845085E0
6.787832970E0,-2.375138521E0,-3.691005468E0,-1.514272213E0
6.808232970E0,-3.455582142E0,-4.429499149E0,-1.203348398E0
6.828632970E0,-4.082756042E0,-3.992874384E0,-9.945567846E-1
6.849032970E0,-4.107789993E0,-2.810698032E0,-9.524788260E-1
6.869385262E0,-2.894853830E0,-2.295776367E0,-1.152748466E0
6.889659168E0,-1.363803744E0,-2.528536320E0,-1.104811549E0
6.909932554E0,-1.268995255E-1,-2.200967789E0,-8.737825155E-1
6.930204950E0,1.077647328E0,-1.023052573E0,-8.050730228E-1
6.950476408E0,2.228398323E0,4.689823091E-1,-6.974813938E-1
6.970744220E0,2.492450714E0,2.397109509E0,-3.407512009E-1
6.991133804E0,2.022269964E0,3.856121302E0,2.370211631E-1
7.011285523E0,2.643718004E0,3.027079821E0,1.230778933E0
7.031555314E0,2.114947796E0,2.125067711E0,1.938380361E0
7.051824689E0,1.623994470E0,1.866208792E0,7.721830010E-1
7.072093960E0,2.301368952E0,1.530251265E0,6.178529263E-1
7.092362918E0,2.200701475E0,1.309741616E0,1.183374763E0
7.112631720E0,1.675659657E0,1.278849006E0,1.731852412E0
7.132900314E0,1.370062232E0,1.624527097E0,2.098169804E0
7.153168804E0,1.657017589E0,2.161819458E0,1.976729870E0
7.173437241E0,2.722547531E0,2.467417002E0,1.341965914E0
7.193705627E0,3.594199419E0,2.581932783E0,7.046719193E-1
7.213973856E0,3.509111643E0,2.545181036E0,5.656549931E-1
7.234242137E0,2.833334923E0,1.578720689E0,8.137282729E-1
7.254510366E0,1.973800421E0,-3.996070325E-1,1.072587371E0
7.274778439E0,1.178847432E0,-2.508829117E0,9.548757076E-1
7.295178543E0,5.664539337E-1,-3.879956484E0,4.069307148E-1
7.315314741E0,2.784332931E-1,-4.017908096E0,-2.704437971E-1
7.335582762E0,5.781718493E-1,-2.448108912E0,-6.559360623E-1
7.355982866E0,1.011068344E0,-2.009353489E-1,-7.960182428E-1
7.376118960E0,1.207076907E0,1.522794366E0,-5.297023654E-1
7.396519012E0,1.039297819E0,2.428002119E0,2.090579830E-2
7.416655158E0,5.318328738E-1,2.378999949E0,5.379581451E-1
7.436923283E0,2.490053698E-2,2.063815117E0,5.906887054E-1
7.457191304E0,-3.941475451E-1,1.819869757E0,3.898864985E-1
7.477617606E0,-8.211851120E-1,1.381114364E0,3.483411968E-1
7.497727502E0,-1.165265322E0,5.334307551E-1,3.701791167E-1
7.517995627E0,-1.130111575E0,-4.704470634E-1,3.366233110E-1
7.538263595E0,-5.773729086E-1,-1.186037898E0,2.732401192E-1
7.558531668E0,2.438122183E-1,-6.625939608E-1,-5.898897350E-2
7.578799741E0,9.247819781E-1,5.099949837E-1,-1.862879843E-1
7.599067762E0,1.097887397E0,1.443432212E0,-1.564605981E-1
7.619335783E0,7.363634706E-1,2.241580963E0,-2.070606202E-1
7.639603856E0,3.555317223E-2,2.328399897E0,-2.906838059E-1
7.659871877E0,-1.568334341E0,-2.010418892E0,-2.916159295E-2
7.680271877E0,-2.474074841E0,-5.663341045E0,-2.490053698E-2
7.700407918E0,-2.784066439E0,-6.696380615E0,-7.283740491E-2
7.720675991E0,-3.221756697E0,-6.469479084E0,2.402169555E-1
7.740944012E0,-4.337354183E0,-4.618051052E0,5.310339332E-1
7.761212033E0,-5.140296459E0,-1.422526479E0,5.986781716E-1
7.781480054E0,-4.474772930E0,1.948766708E0,5.571328998E-1
7.801748075E0,-2.537457943E0,4.518581867E0,-8.455529809E-2
7.822016148E0,-1.354216337E-1,4.579302311E0,-1.106409431E0
7.842284168E0,1.697497606E0,3.507913113E0,-1.762478709E0
7.862552189E0,1.398691177E0,3.243328333E0,-2.259290934E0
7.882820210E0,-3.675159514E-1,1.749695539E-1,-2.281128883E0
7.903088231E0,-2.057689905E0,-3.652655840E0,-1.843971372E0
7.923356304E0,-3.155710459E0,-4.865591526E0,-1.532381773E0
7.943624325E0,-3.812844992E0,-4.499274254E0,-1.269927382E0
7.963892345E0,-4.052395821E0,-3.259573698E0,-1.159672618E0
7.984160366E0,-3.524691105E0,-2.114148855E0,-1.310940027E0
8.004428439E0,-1.992708802E0,-2.201500416E0,-1.300287485E0
8.024696460E0,-4.458128214E-1,-2.254230976E0,-7.843003273E-1
8.044964481E0,6.969487667E-1,-1.780321836E0,-5.222455263E-1
8.065232502E0,1.861015558E0,-3.069290817E-1,-3.976096511E-1
8.085500575E0,2.377535343E0,1.941309810E0,-2.597911656E-1
8.105768595E0,1.857287169E0,3.773163795E0,7.097318769E-2
8.126036616E0,2.452503204E0,3.430681467E0,9.042756557E-1
8.146304689E0,2.558496952E0,2.171939373E0,1.799363494E0
8.166572710E0,1.716139674E0,2.070739269E0,1.061402082E0
8.186840783E0,2.080859423E0,1.635179639E0,6.274402738E-1
8.207108804E0,2.110154152E0,1.425322771E0,1.164199948E0
8.227376825E0,1.682051301E0,1.425855398E0,1.573660731E0
8.247644898E0,1.333310604E0,1.745833993E0,1.911216140E0
8.267912970E0,1.415202737E0,2.043575048E0,1.929325581E0
8.288180991E0,2.192712069E0,2.153297186E0,1.548094392E0
8.308449064E0,3.073951483E0,2.426404238E0,1.045423150E0
8.328717085E0,3.309374571E0,2.840126038E0,9.266462326E-1
8.348985158E0,2.978210926E0,2.976479769E0,1.155145288E0
8.369253231E0,2.250236273E0,1.979659319E0,1.294561625E0
8.389521252E0,1.390701652E0,-3.106575012E-1,1.236105323E0
8.409789325E0,5.813676119E-1,-2.764359236E0,9.713872671E-1
8.430057398E0,7.230477035E-2,-4.380497456E0,3.478085697E-1
8.450325470E0,8.402267098E-2,-4.248004913E0,-3.386206925E-1
8.470593543E0,7.182540298E-1,-2.351702690E0,-7.379614115E-1
8.490980314E0,1.261937976E0,-5.712476373E-2,-7.496792674E-1
8.511129637E0,1.422127008E0,1.467400670E0,-4.780370593E-1
8.531397710E0,1.079245210E0,1.953027725E0,-5.632581562E-2
8.551665783E0,5.435507894E-1,1.889644504E0,2.396843135E-1
8.572073752E0,1.772332340E-1,1.787379265E0,2.945453823E-1
8.592350470E0,-1.833585054E-1,1.719735026E0,4.687159956E-1
8.612463127E0,-6.402234435E-1,1.326253176E0,7.199850678E-1
8.632732554E0,-9.985514879E-1,2.058621943E-1,7.110635042E-1
8.653001773E0,-9.282441139E-1,-7.238466144E-1,3.094590902E-1
8.673270679E0,-3.675159514E-1,-4.331628382E-1,-1.676458716E-1
8.693539481E0,2.789659202E-1,7.436871529E-1,-2.198437899E-1
8.713808075E0,5.536707640E-1,1.695233941E0,-1.782985032E-1
8.734076616E0,3.704454303E-1,2.223471642E0,-1.820269227E-1
8.754344637E0,-2.889527567E-2,2.654370785E0,-3.093259335E-1
8.774752970E0,-6.077328920E-1,1.864078164E0,-4.279696643E-1
8.795045835E0,-1.527321696E0,-1.884717703E0,-3.008038104E-1
8.815297137E0,-1.935184598E0,-4.866656780E0,-4.386222959E-1
8.835410262E0,-2.146106720E0,-6.169208050E0,-4.119907022E-1
8.855680054E0,-2.682333946E0,-6.701174259E0,2.796316985E-3
8.875948023E0,-3.911381721E0,-5.665471554E0,5.305013061E-1
8.896349481E0,-5.017391682E0,-2.584462643E0,7.865640521E-1
8.916486773E0,-4.757999897E0,1.364602685E0,8.392946124E-1
8.936755679E0,-3.202049255E0,3.809915304E0,6.455497742E-1
8.957028439E0,-1.361140609E0,4.125100136E0,2.783001214E-2
8.977335783E0,2.880206704E-1,2.700709581E0,-6.974813938E-1
8.997563543E0,7.427550554E-1,1.572329164E0,-1.330647469E0
9.017831616E0,-1.732385010E-1,9.322388172E-1,-1.906821966E0
9.038099637E0,-1.545431256E0,-7.685877085E-1,-2.178330898E0
9.058367710E0,-2.724411726E0,-2.609496355E0,-2.085120440E0
9.078635835E0,-3.485276222E0,-3.401253700E0,-1.734249234E0
9.098903908E0,-3.791539669E0,-3.116961479E0,-1.334375858E0
9.119171981E0,-3.242529392E0,-2.099767685E0,-1.178314686E0
9.139440054E0,-1.804822922E0,-2.075932503E0,-1.192695856E0
9.159708127E0,-3.850927949E-1,-2.164216280E0,-9.982851744E-1
9.179976200E0,7.470161319E-1,-1.740907073E0,-8.460856676E-1
9.200244273E0,1.817872405E0,-4.715123177E-1,-7.789740562E-1
9.220512345E0,2.302966833E0,1.948766708E0,-6.175866127E-1
9.240780470E0,1.953560352E0,4.187417984E0,-4.727107286E-2
9.261048543E0,2.069141388E0,3.894470692E0,1.248888493E0
9.281316616E0,1.286439061E0,2.150101423E0,1.704688191E0
9.301584689E0,1.729455471E0,1.218128920E0,8.318377733E-1
9.321852762E0,2.304032087E0,1.113866329E0,9.665936232E-1
9.342120835E0,1.966343522E0,1.434910178E0,1.275386930E0
9.362388908E0,1.553154349E0,2.006290913E0,1.704688191E0
9.382657033E0,1.345028520E0,2.503635883E0,2.169009924E0
9.402925106E0,1.605884910E0,2.455166340E0,2.115214109E0
9.423193179E0,2.457829475E0,2.185787916E0,1.378717422E0
9.443461252E0,3.152781010E0,2.544648409E0,7.732482553E-1
9.463729325E0,3.372225285E0,2.893389225E0,9.910946488E-1
9.483997293E0,3.077679873E0,2.998850346E0,1.371260643E0
9.504265470E0,2.402036428E0,2.082457304E0,1.202549458E0
9.524533543E0,1.491369128E0,-1.870869249E-1,9.085367322E-1
9.544801668E0,6.101297736E-1,-2.762228727E0,6.870950460E-1
9.565069689E0,6.644582003E-2,-4.359191895E0,2.647180259E-1
9.585337814E0,2.198437899E-1,-4.104727268E0,-2.075932473E-1
9.605605887E0,8.486156464E-1,-2.333060503E0,-6.037381887E-1
9.625873960E0,1.253415823E0,-1.189100519E-1,-7.885614038E-1
9.646142033E0,1.273655891E0,1.560611248E0,-7.001445293E-1
9.666410106E0,8.896282911E-1,2.480200052E0,-4.045338631E-1
9.686678231E0,2.464753687E-1,2.608031750E0,-7.856319658E-3
9.706946252E0,-2.428801060E-1,2.334791660E0,2.135853618E-1
9.727214377E0,-4.830970466E-1,2.076598406E0,2.721748650E-1
9.747478491E0,-6.301034689E-1,1.794836044E0,3.920170069E-1
9.767711981E0,-6.663224101E-1,1.058472633E0,5.672528744E-1
9.788019168E0,-5.454149842E-1,-2.904174924E-1,6.412886977E-1
9.808287189E0,-2.328932583E-1,-1.483779073E0,3.739075363E-1
9.828555158E0,2.784332931E-1,-1.335174799E0,-6.484792382E-2
9.848823127E0,7.342329621E-1,-1.087900475E-1,-2.454101145E-1
9.869091200E0,7.523424625E-1,1.129712105E0,-2.161153555E-1
9.889359220E0,3.832286000E-1,2.166613102E0,-1.862879843E-1
9.909627241E0,-3.581948951E-2,3.130943060E0,-3.109238148E-1
9.929895262E0,-6.364950538E-1,2.327334642E0,-3.247722387E-1
9.950163335E0,-1.655686021E0,-2.722281218E0,1.664474420E-2
9.970431408E0,-1.958087683E0,-5.818336964E0,-2.436790615E-2
9.990831356E0,-2.230262518E0,-6.963628292E0,-1.211737376E-2
1.001096750E1,-3.090196609E0,-6.690521240E0,2.636527419E-1
1.003123558E1,-4.492350101E0,-4.065312386E0,5.986781716E-1
1.005163558E1,-5.373056412E0,-9.867004305E-2,9.207872748E-1
1.007177167E1,-4.702606201E0,3.400321484E0,1.097621083E0
1.009203974E1,-2.642386436E0,5.236968994E0,7.892271876E-1
1.011230781E1,-2.727074921E-1,4.513255596E0,-6.538055837E-2
1.013257589E1,1.152215838E0,2.714025497E0,-8.721846342E-1
1.015284396E1,9.893636405E-2,1.783118129E0,-1.612276554E0
1.017311203E1,-2.093908787E0,-7.211834788E-1,-1.869005084E0
1.019338011E1,-3.430015802E0,-2.920952797E0,-1.666072369E0
1.021364818E1,-4.088614941E0,-3.455049515E0,-1.318929553E0
1.023391630E1,-4.340549946E0,-2.720683336E0,-1.095224142E0
1.025418500E1,-3.923099756E0,-1.464604378E0,-9.902957082E-1
1.027445240E1,-2.749978065E0,-9.582046270E-1,-6.990792751E-1
1.029485240E1,-1.602422833E0,-1.449158072E0,-2.549974918E-1
1.031498854E1,-7.115961313E-1,-1.721199751E0,-9.454214945E-3
1.033525656E1,2.257027328E-1,-1.164732575E0,7.203845680E-2
1.035552464E1,8.725841045E-1,-9.187898599E-3,-4.727107286E-2
1.037579271E1,1.187902093E0,1.128247380E0,-1.761679798E-1
1.039619271E1,1.293895841E0,1.707484484E0,-1.830921918E-1
1.041632886E1,7.070687413E-1,1.511076450E0,-8.082687855E-2
1.043659693E1,2.070606202E-1,7.074682117E-1,5.712476373E-2
1.045686500E1,9.380977750E-1,4.050664902E-1,2.769685388E-1
1.047713297E1,1.483379602E0,3.012032807E-1,5.992107987E-1
1.049740110E1,1.693769217E0,3.342264593E-1,4.820317924E-1
1.051766917E1,1.842373490E0,1.291632175E0,5.619265437E-1
1.053793724E1,1.652756572E0,2.420545340E0,7.679219246E-1
1.055820531E1,1.870070338E0,3.310839415E0,8.989493847E-1
1.057847334E1,2.201766729E0,3.878491640E0,1.068858862E0
1.059874141E1,2.806170702E0,3.808317423E0,9.197220206E-1
1.061900943E1,3.115496635E0,3.511641502E0,5.491434336E-1
1.063927745E1,2.999915600E0,3.253980875E0,5.443497300E-1
1.065954558E1,2.635195971E0,3.227881908E0,9.127978086E-1
1.067981360E1,2.163949966E0,3.118692398E0,1.308410048E0
1.070008167E1,1.598428130E0,2.709764481E0,1.515071273E0
1.072034969E1,1.133573651E0,2.125067711E0,1.542235494E0
1.074061776E1,9.306409359E-1,1.525990129E0,1.300420642E0
1.076101776E1,8.938893676E-1,6.829671264E-1,8.467514515E-1
1.078115386E1,1.116529465E0,-4.645881057E-1,4.532696903E-1
1.080142193E1,1.354083300E0,-7.403582335E-1,3.483411968E-1
1.082168995E1,1.321060061E0,-4.613923132E-1,2.743053734E-1
1.084195802E1,1.295493722E0,-1.087900475E-1,6.724476814E-2
1.086222604E1,1.307744265E0,2.932138145E-1,-1.101216301E-1
1.088249412E1,1.157542109E0,9.865673184E-1,-3.577954173E-1
1.090276214E1,8.832367063E-1,1.596830249E0,-4.892223179E-1
1.092303016E1,6.127929091E-1,1.734648705E0,-3.981422782E-1
1.094343016E1,2.422143221E-1,1.585112333E0,-2.667153776E-1
1.096356625E1,-1.396826953E-1,1.586177588E0,-2.565953732E-1
1.098383422E1,-3.659180701E-1,1.862480283E0,-1.777658761E-1
1.100410630E1,-2.153164148E-1,1.989246726E0,1.451421715E-2
1.102440886E1,5.254412889E-1,1.164865732E0,2.253032625E-1
1.104463776E1,1.183108449E0,4.306328297E-1,2.375537902E-1
1.106490599E1,1.229447365E0,5.824328661E-1,2.173137814E-1
1.108517412E1,9.194557071E-1,9.801757336E-1,1.322258562E-1
1.110544219E1,6.543381810E-1,8.885630369E-1,-9.321057005E-4
1.112571031E1,4.295675755E-1,6.920219064E-1,-1.105211023E-2
1.114597839E1,1.894837767E-1,9.860346317E-1,2.410159074E-2
1.116624646E1,1.371526904E-2,1.493499637E0,2.783001214E-2
1.118651448E1,-1.508679688E-1,1.839044571E0,3.422159329E-2
1.120678261E1,-5.097286701E-1,1.918406606E0,-4.780370742E-2
1.122705068E1,-1.002279878E0,1.351286888E0,-3.407512009E-1
1.124731870E1,-1.487374306E0,4.370244145E-1,-7.113298178E-1
1.126758672E1,-1.697763920E0,7.484808564E-1,-9.934915304E-1
1.128785474E1,-1.759549260E0,1.523326993E0,-1.127182126E0
1.130812281E1,-2.648777962E0,9.279778004E-1,-6.687192321E-1
1.132839089E1,-3.314967394E0,1.198954225E0,-1.697763950E-1
1.134865891E1,-3.283541918E0,2.295909405E0,-4.567318037E-2
1.136892688E1,-2.988463879E0,2.819353342E0,-1.735048145E-1
1.138919490E1,-2.691388607E0,2.535593748E0,-5.435507894E-1
1.140946292E1,-2.321342707E0,1.970071912E0,-7.992140651E-1
1.142973094E1,-2.032123566E0,1.487640619E0,-6.378266215E-1
1.144999896E1,-1.916009784E0,1.010003090E0,-2.784332931E-1
1.147026698E1,-1.752624989E0,7.713840604E-1,1.407479644E-1
1.149066698E1,-1.172722101E0,1.014663652E-1,2.679138184E-1
1.151080302E1,-6.082655191E-1,-9.443562031E-1,-2.097237855E-1
1.153107104E1,-7.584677339E-1,-1.442766428E0,-1.024916768E0
1.155133906E1,-1.257943153E0,-1.327718019E0,-1.537175417E0
1.157160708E1,-1.452753305E0,-1.262204289E0,-1.242763162E0
1.159187511E1,-1.407479644E0,-1.212136865E0,-5.478118062E-1
1.161214308E1,-1.147688389E0,-7.872298360E-1,1.066595241E-1
1.163241110E1,-5.837644935E-1,1.078579426E-1,6.902908683E-1
1.165267912E1,2.731069624E-1,1.045156837E0,1.072054744E0
1.167294714E1,1.196424246E0,1.794303417E0,1.266332150E0
1.169321511E1,1.834916592E0,2.139981508E0,1.307877421E0
1.171348313E1,2.086718321E0,2.300703049E0,1.274854302E0
1.173375115E1,1.849830270E0,2.384859085E0,1.155677915E0
1.175401912E1,1.177249432E0,2.331595898E0,7.503450513E-1
1.177442505E1,2.219743133E-1,2.230395794E0,-6.258423906E-3
1.179466651E1,-7.945535183E-1,1.835848689E0,-5.792371035E-1
1.181481797E1,-1.351553202E0,1.228781581E0,-5.382244587E-1
1.183508589E1,-1.141296864E0,6.068007946E-1,-2.938795984E-1
1.185548698E1,-3.973433375E-1,5.488771200E-1,3.315633163E-2
1.187562287E1,3.416832983E-1,1.320926905E0,3.669833243E-1
1.189602380E1,8.279761672E-1,1.830522418E0,5.049349666E-1
1.191616042E1,1.196956873E0,2.767155409E0,6.029392481E-1
1.193642891E1,1.363670588E0,4.145340443E0,5.177181363E-1
1.195669734E1,1.060070515E0,4.958935261E0,1.944106072E-1
1.197696531E1,2.502037883E-1,3.948266506E0,-1.324921697E-1
1.199723511E1,2.257027328E-1,2.477004290E0,-3.476754129E-1
1.201750308E1,6.468813419E-1,1.692038178E0,-1.490037590E-1
1.203777104E1,1.211337924E0,1.276718497E0,3.073285520E-1
1.205803896E1,1.470596433E0,9.247819781E-1,7.535408735E-1
1.207830698E1,1.231045246E0,2.026664019E-1,1.124785304E0
1.209857500E1,7.214497924E-1,-9.901625514E-1,1.228648424E0
1.211884297E1,4.098601937E-1,-2.164748907E0,8.046735525E-1
1.213911094E1,3.022685647E-1,-2.512557507E0,1.119858399E-1
1.215937896E1,3.091927767E-1,-1.590172291E0,-4.210454524E-1
1.217977896E1,2.985401452E-1,2.299105167E0,-3.944138587E-1
1.219991490E1,6.532729268E-1,5.050015450E0,-1.814942956E-1
1.222018287E1,8.263782859E-1,5.279579639E0,-2.443448454E-1
1.224045084E1,8.194540739E-1,4.018573761E0,-4.205128253E-1
1.226071880E1,6.506097913E-1,2.525473833E0,-3.848264813E-1
1.228098677E1,3.331612051E-1,1.352884769E0,-1.996037811E-1
1.230125474E1,-4.167843983E-2,5.270391703E-1,4.753739014E-2
1.232152271E1,-2.419480085E-1,2.623211741E-1,2.599243224E-1
1.234179068E1,-2.323606312E-1,6.323671341E-1,2.588590682E-1
1.236205865E1,-2.769685388E-1,9.982851744E-1,9.494162351E-2
1.238232662E1,-3.451454341E-1,1.220259547E0,-3.395527974E-2
1.240259453E1,-2.838927507E-1,1.439171195E0,-1.287637353E-1
1.242286255E1,-3.901528195E-2,1.704288721E0,-2.166479975E-1
1.244313052E1,4.833633900E-1,1.608015418E0,-2.816290855E-1
1.246339849E1,9.625988603E-1,8.592683077E-1,-1.474058628E-1
1.248366641E1,7.944203615E-1,4.157191217E-1,1.561942846E-1
1.250393438E1,1.394163817E-1,1.015329361E0,4.522044063E-1
1.252420234E1,-7.073350549E-1,2.439720154E0,5.028044581E-1
1.254447031E1,-1.317065358E0,3.051580906E0,2.034653574E-1
1.256473828E1,-1.468199611E0,2.142112017E0,-1.026647836E-1
1.258513828E1,-1.573128104E0,8.502135277E-1,-1.367532164E-1
1.260527417E1,-1.849031329E0,7.803056389E-2,-1.814942956E-1
1.262554214E1,-2.120007753E0,-1.731053460E-3,-2.006690353E-1
1.264581011E1,-2.355431080E0,2.175800949E-1,-1.133174226E-1
1.266607808E1,-2.770750761E0,5.334307551E-1,-5.792371184E-2
1.268634599E1,-3.305912495E0,9.364998937E-1,-6.591318548E-2
1.270661396E1,-3.297923088E0,1.282044768E0,-3.062632866E-3
1.272688193E1,-2.378866911E0,6.765755415E-1,2.836264484E-2
1.274714985E1,-1.200951576E0,-3.639206886E-1,-3.380880356E-1
1.276741781E1,-8.643282652E-1,-4.810996950E-1,-1.187369466E0
1.278768578E1,-1.466601729E0,-2.467416972E-1,-1.795501828E0
1.280795370E1,-2.180727720E0,-5.230444670E-1,-1.993507743E0
1.282822167E1,-2.703106403E0,-1.032107353E0,-2.064880371E0
1.284848959E1,-3.074750423E0,-1.232909560E0,-1.961683035E0
1.286875755E1,-3.222289324E0,-9.821730852E-1,-1.683649182E0
1.288902552E1,-3.003377676E0,-7.829687595E-1,-1.333843231E0
1.290929344E1,-2.363420486E0,-1.036368370E0,-1.112801075E0
1.292956141E1,-1.715873361E0,-1.448092818E0,-1.041428328E0
1.294982933E1,-1.052879930E0,-1.281911612E0,-8.157256246E-1
1.297009724E1,-5.661876202E-1,-1.153014779E0,-3.519364893E-1
1.299036521E1,6.964161247E-2,-9.645962119E-1,9.653951973E-2
1.301063313E1,1.014796734E0,-3.410175145E-1,4.463454783E-1
1.303090110E1,1.677790284E0,8.321040869E-1,7.157239914E-1
1.305116901E1,1.538240671E0,2.820418596E0,8.414251208E-1
1.307143698E1,1.764609218E0,3.807784796E0,1.045423150E0
1.309183698E1,2.829073906E0,3.778490067E0,2.262220383E0
1.311197281E1,1.208674788E0,3.406713009E0,2.183923721E0
1.313224078E1,1.734249234E0,3.997401893E-1,5.443497300E-1
1.315250870E1,1.600558639E0,-4.221107066E-2,1.058738947E0
1.317277662E1,1.168727398E0,8.683230281E-1,1.723330259E0
1.319304453E1,9.519461989E-1,1.833718181E0,2.055559397E0
1.321331250E1,1.137302041E0,2.467417002E0,2.129062653E0
1.323371250E1,1.999899387E0,2.781003952E0,1.888312936E0
1.325384834E1,3.310439825E0,2.766090155E0,1.076315761E0
1.327411625E1,3.830688000E0,2.832669258E0,7.279745340E-1
1.329438422E1,3.142128229E0,2.778873444E0,1.060336828E0
1.331478422E1,1.688442826E0,1.585644960E0,1.268462658E0
1.333492005E1,5.222455263E-1,-9.624657035E-1,1.008138895E0
1.335518802E1,6.111950055E-2,-3.527487278E0,4.804339111E-1
1.337545594E1,-4.061317816E-2,-4.946551800E0,-4.940159991E-2
1.339586391E1,5.398223400E-1,-4.364518166E0,-5.685844421E-1
1.341614037E1,1.566470146E0,-2.300037384E0,-1.012666225E0
1.343625287E1,2.142644644E0,4.647212625E-1,-7.768434882E-1
1.345652209E1,1.743836522E0,2.849180698E0,-2.230395675E-1
1.347678995E1,5.803023577E-1,3.477553129E0,5.597960353E-1
1.349706375E1,-3.520696461E-1,2.405631542E0,9.080041051E-1
1.351733162E1,-7.275750637E-1,1.697897077E0,5.187833905E-1
1.353759948E1,-6.716487408E-1,1.651158690E0,5.659212917E-2
1.355786734E1,-5.587307811E-1,1.592036486E0,-3.342264518E-2
1.357813521E1,-4.777707458E-1,9.226514697E-1,7.470161468E-2
1.359840318E1,-3.925496638E-1,-4.753739014E-2,2.684464455E-1
1.361867104E1,-1.801627129E-1,-4.262386262E-1,2.125200927E-1
1.363893891E1,2.273006290E-1,5.211802125E-1,-1.266332120E-1
1.365920688E1,6.937529445E-1,1.652223945E0,-3.125217259E-1
1.367947479E1,6.964160800E-1,6.408892274E-1,-3.561975360E-1
1.369974271E1,-3.765707016E-1,-2.782468557E0,-1.447426975E-1
1.372001058E1,-1.604553342E0,-4.775177479E0,-3.289001435E-2
1.374027854E1,-2.647180080E0,-5.126581192E0,-9.467530251E-2
1.376066521E1,-3.506581545E0,-4.067975521E0,1.354216337E-1
1.378097250E1,-4.442282677E0,-2.247839451E0,3.478085697E-1
1.380100459E1,-5.282509327E0,9.986846708E-3,3.653854430E-1
1.382135073E1,-4.659462929E0,2.164482594E0,5.273054838E-1
1.384161854E1,-2.697780132E0,3.634146929E0,2.806969583E-1
1.386188636E1,-2.519348562E-1,3.179945230E0,-6.687192321E-1
1.388215422E1,1.471661687E0,2.380597830E0,-1.695899725E0
1.390242209E1,1.006807327E0,2.266082048E0,-2.536126375E0
1.392268995E1,-1.145025253E0,-6.269076467E-1,-2.576073885E0
1.394295781E1,-2.874081373E0,-3.866640806E0,-2.089381456E0
1.396322568E1,-3.823497534E0,-4.902875900E0,-1.734249234E0
1.398362568E1,-4.087549686E0,-4.147337437E0,-1.445562720E0
1.400376151E1,-3.372491598E0,-2.833068609E0,-1.379116893E0
1.402402938E1,-1.842639804E0,-2.378334284E0,-1.284841061E0
1.404429729E1,-3.504717350E-1,-2.416151047E0,-9.359672666E-1
1.406456521E1,7.454182506E-1,-2.319744825E0,-6.815024018E-1
1.408496521E1,1.694834471E0,-1.052879930E0,-5.387570858E-1
1.410510104E1,2.290183783E0,1.139832139E0,-3.263701499E-1
1.412536891E1,2.292846918E0,2.941858768E0,4.069307148E-1
1.414563682E1,2.927610874E0,3.751858473E0,1.744102955E0
1.416590474E1,1.929591894E0,4.820584297E0,2.201500416E0
1.418630474E1,1.731586099E0,2.842789173E0,3.153180480E-1
1.420644058E1,2.035585642E0,9.450219870E-1,2.956106663E-1
1.422670849E1,1.388571143E0,3.901528120E-1,9.937578440E-1
1.424697641E1,9.817736149E-1,7.229145169E-1,1.578454375E0
1.426724432E1,1.043026209E0,1.460476398E0,2.002296209E0
1.428764432E1,1.790708184E0,2.162884712E0,1.873399258E0
1.430778016E1,2.709231853E0,2.537724257E0,1.233974814E0
1.432804802E1,2.877543449E0,2.633598089E0,6.418213248E-1
1.434831599E1,2.390851021E0,2.303366423E0,4.937497079E-1
1.436858391E1,1.929059267E0,1.638908148E0,8.169240355E-1
1.438885183E1,1.605352283E0,6.605966091E-1,1.123719931E0
1.440911974E1,1.318396926E0,-7.494129539E-1,1.130644202E0
1.442938766E1,9.700556993E-1,-2.280329943E0,8.440882564E-1
1.444965558E1,6.127929091E-1,-3.377817869E0,3.371559381E-1
1.446992349E1,5.691171288E-1,-3.382078886E0,-2.315616906E-1
1.449015203E1,1.038765192E0,-2.088715792E0,-5.861613154E-1
1.451045922E1,1.388571143E0,-2.035985142E-1,-5.627255440E-1
1.453072719E1,1.282177925E0,1.141430020E0,-2.209090441E-1
1.455099511E1,8.736493587E-1,1.847566605E0,1.029310971E-1
1.457126302E1,4.498075843E-1,2.106958389E0,3.051980436E-1
1.459153094E1,7.816372067E-2,2.224536896E0,3.067959249E-1
1.461179886E1,-3.057306707E-1,2.161286831E0,2.732401192E-1
1.463206677E1,-7.004108429E-1,1.918939233E0,2.492716908E-1
1.465233469E1,-8.728504181E-1,1.146223664E0,1.162468940E-1
1.467260261E1,-4.527370334E-1,-1.956090331E-1,-2.010685205E-2
1.469287058E1,4.354264960E-2,-2.680469751E-1,-1.921469271E-1
1.471313849E1,4.098601937E-1,5.584644675E-1,-9.254477918E-2
1.473340646E1,6.095971465E-1,1.684581280E0,2.303632535E-2
1.475367438E1,5.691171288E-1,2.560094833E0,-1.639174372E-1
1.477394229E1,9.893636405E-2,1.035569429E0,-3.332943618E-1
1.479421016E1,-1.060336828E0,-3.474224091E0,-1.308942735E-1
1.481447813E1,-1.987382531E0,-6.069073200E0,-1.101216301E-1
1.483474604E1,-2.692453861E0,-6.888660431E0,-1.005342528E-1
1.485501396E1,-3.166363001E0,-5.913012028E0,1.215732098E-1
1.487528188E1,-3.924697638E0,-3.395394802E0,2.812296152E-1
1.489554979E1,-4.791023254E0,-2.366216928E-1,4.138549268E-1
1.491581771E1,-4.507796288E0,2.507364273E0,4.452801943E-1
1.493608563E1,-2.894321203E0,4.157590866E0,4.484759867E-1
1.495635354E1,-8.568714261E-1,4.494081020E0,2.783001214E-2
1.497662146E1,9.748494029E-1,3.521761656E0,-7.182540298E-1
1.499688938E1,1.249154806E0,2.263418913E0,-1.633581758E0
1.501715729E1,-4.878907502E-1,-2.728406489E-1,-2.101632118E0
1.503742521E1,-2.040112972E0,-3.290466309E0,-1.943040848E0
1.505769313E1,-3.012432337E0,-4.550406933E0,-1.760348201E0
1.507796104E1,-3.677023888E0,-4.136152267E0,-1.513206959E0
1.509822896E1,-4.059320450E0,-2.635462284E0,-1.297624230E0
1.511849688E1,-3.363436699E0,-1.521063328E0,-1.224653721E0
1.513876479E1,-1.769669175E0,-2.368214130E0,-1.053678870E0
1.515903271E1,-2.460758984E-1,-2.521612167E0,-7.816371918E-1
1.517930063E1,9.769799113E-1,-1.375122190E0,-6.570013762E-1
1.519956854E1,1.931722403E0,1.243695319E-1,-5.882918239E-1
1.521983646E1,2.567018986E0,1.692570806E0,-3.386206925E-1
1.524010438E1,2.603770733E0,3.429083586E0,4.000065029E-1
1.526037229E1,2.841857195E0,3.921634912E0,1.685513377E0
1.528064021E1,2.623477936E0,3.203913450E0,2.997518778E0
1.530090813E1,1.575524926E0,2.938130379E0,2.310689926E0
1.532117604E1,1.662343860E0,2.171406746E0,3.701791167E-1
1.534144391E1,1.664474487E0,9.072051644E-1,3.595264852E-1
1.536171188E1,1.273655891E0,-1.524658650E-1,9.745830894E-1
1.538197979E1,1.211870551E0,-1.279647946E-1,1.645033360E0
1.540224771E1,1.468998551E0,9.407609701E-1,2.067809820E0
1.542251563E1,2.114415169E0,2.384859085E0,1.785115600E0
1.544278360E1,3.097919941E0,2.987664938E0,9.671262503E-1
1.546305151E1,3.616569996E0,2.640522242E0,4.953475893E-1
1.548331943E1,2.971819162E0,1.589905977E0,5.581981540E-1
1.550358735E1,1.761413455E0,-2.888196111E-1,7.073350549E-1
1.552385526E1,9.519461989E-1,-2.360757351E0,6.604634523E-1
1.554412318E1,6.479465961E-1,-3.653188467E0,2.689790726E-1
1.556439110E1,6.575340033E-1,-3.814442873E0,-2.315616906E-1
1.558479110E1,7.858982682E-1,-2.652506351E0,-7.065361142E-1
1.560492693E1,1.018525243E0,-6.285055280E-1,-9.876325727E-1
1.562519485E1,1.090430498E0,9.572725296E-1,-7.613971829E-1
1.564546276E1,8.827040792E-1,1.983387709E0,-2.837595940E-1
1.566573063E1,5.952160358E-1,2.487124205E0,2.524674833E-1
1.568613063E1,2.985401452E-1,2.406696796E0,5.603286624E-1
1.570626651E1,1.015995219E-1,2.428534746E0,4.804339111E-1
1.572653443E1,-6.032055244E-2,2.298572540E0,3.840275407E-1
1.574680234E1,-3.680485785E-1,1.633049130E0,3.866907060E-1
1.576707031E1,-7.675224543E-1,4.226433635E-1,3.771033287E-1
1.578747031E1,-1.043825269E0,-9.203878045E-1,2.945453823E-1
1.580760615E1,-9.101346135E-1,-1.676991343E0,-1.957421936E-2
1.582787406E1,-2.721748650E-1,-1.107740998E0,-3.199785650E-1
1.584814198E1,4.013380706E-1,1.355548054E-1,-3.237069845E-1
1.586840990E1,6.617950201E-1,1.214400530E0,-2.129195631E-1
1.588880990E1,5.131907463E-1,2.021737337E0,-2.304964215E-1
1.590894578E1,1.852227151E-1,2.777808189E0,-3.896201849E-1
1.592921370E1,-3.270359337E-1,2.243178844E0,-3.933486044E-1
1.594948162E1,-1.470330119E0,-2.683399200E0,-5.313002318E-2
1.596974953E1,-2.087517262E0,-5.679319859E0,-9.680583328E-2
1.599001745E1,-2.379932165E0,-6.593582630E0,-8.988162130E-2
1.601028542E1,-3.020954609E0,-6.668683529E0,2.151832581E-1
1.603055334E1,-4.297939301E0,-4.709131241E0,4.170507193E-1
1.605082125E1,-5.062665462E0,-1.145025253E0,5.592634082E-1
1.607108917E1,-4.422042370E0,2.546779156E0,5.235770941E-1
1.609135709E1,-2.595514774E0,4.683697701E0,2.306295782E-1
1.611162500E1,-3.787012100E-1,4.275835037E0,-5.440834165E-1
1.613189297E1,1.062733650E0,3.067559719E0,-1.298689485E0
1.615216089E1,4.189149141E-1,2.453568459E0,-1.823731303E0
1.617242880E1,-1.261671662E0,1.531316489E-1,-1.912680864E0
1.619269677E1,-2.535860062E0,-2.790990829E0,-1.679920793E0
1.621296469E1,-3.344794750E0,-3.919903994E0,-1.416933775E0
1.623323261E1,-3.770766973E0,-3.689407349E0,-1.129845262E0
1.625350052E1,-3.536408901E0,-2.943856001E0,-1.004144192E0
1.627376844E1,-2.421876907E0,-2.449706793E0,-1.055809379E0
1.629403636E1,-1.251019001E0,-2.027462959E0,-8.812393546E-1
1.631430427E1,-4.434159771E-2,-1.435842276E0,-5.190497041E-1
1.633457224E1,1.170325279E0,-4.688491523E-1,-2.837595940E-1
1.635484016E1,2.131992102E0,7.362303138E-1,-1.229047924E-1
1.637510808E1,2.158623695E0,2.314018965E0,7.470161468E-2
1.639537599E1,1.697497606E0,3.771565914E0,5.635244846E-1
1.641564391E1,1.899897695E0,2.901911259E0,1.572062850E0
1.643591188E1,2.310423613E0,1.286305904E0,1.787246108E0
1.645617979E1,2.168210983E0,1.504152298E0,7.306377292E-1
1.647644771E1,2.008421421E0,1.668069720E0,6.625939608E-1
1.649671563E1,1.354615927E0,1.547828078E0,1.174852610E0
1.651698354E1,1.026514649E0,1.402952194E0,1.694035530E0
1.653725146E1,1.252883196E0,1.363537431E0,2.037449837E0
1.655751943E1,1.899897695E0,1.649028063E0,1.943706632E0
1.657778734E1,2.811496973E0,2.119208813E0,1.248355865E0
1.659805526E1,3.419629335E0,2.217612505E0,7.348987460E-1
1.661832318E1,3.343463182E0,2.209623098E0,8.941556811E-1
1.663859110E1,2.700709581E0,1.694701314E0,1.194560051E0
1.665885901E1,1.838112354E0,1.041295230E-1,1.134372592E0
1.667925901E1,1.151683211E0,-1.923599839E0,6.205160618E-1
1.669939490E1,7.464835048E-1,-3.400188446E0,1.451421715E-2
1.671966281E1,4.918854833E-1,-3.842139721E0,-4.487423003E-1
1.673993073E1,5.190497041E-1,-2.909235001E0,-6.617950201E-1
1.676033073E1,9.865673184E-1,-1.107740998E0,-8.823046088E-1
1.678046656E1,1.270460010E0,5.472791791E-1,-7.976161242E-1
1.680073448E1,1.113333702E0,1.744236112E0,-4.817654788E-1
1.682100240E1,6.873613596E-1,2.442383289E0,-4.567318037E-2
1.684127037E1,2.619217038E-1,2.597378969E0,3.376885653E-1
1.686153828E1,4.514054582E-2,2.629337072E0,4.884233773E-1
1.688180620E1,-4.540686309E-2,2.457296848E0,4.783033729E-1
1.690207412E1,-1.796300858E-1,1.841707706E0,5.139896870E-1
1.692234203E1,-3.952127993E-1,6.808366179E-1,5.667202473E-1
1.694260995E1,-6.391581893E-1,-6.546044946E-1,5.518065691E-1
1.696287787E1,-6.679202914E-1,-1.816008210E0,3.584612012E-1
1.698314578E1,-2.865559161E-1,-2.060486317E0,3.049317189E-2
1.700341375E1,3.528685868E-1,-1.117861032E0,-1.346226931E-1
1.702368167E1,6.697844863E-1,2.063948289E-2,-9.946899116E-2
1.704394958E1,4.391549230E-1,8.076030016E-1,-4.620581120E-2
1.706421750E1,-1.066595241E-1,1.495097518E0,-1.213068962E-1
1.708461750E1,-5.901560783E-1,2.304964304E0,-3.498059511E-1
1.710475334E1,-9.506146312E-1,2.292713642E0,-3.556649089E-1
1.712502125E1,-1.559279680E0,-1.662610173E0,-9.454214945E-3
1.714528922E1,-1.905889869E0,-4.975313663E0,1.557948068E-2
1.716555708E1,-2.237186909E0,-6.387054443E0,7.590003312E-3
1.718595709E1,-2.857037067E0,-6.463620186E0,1.901495606E-1
1.720609292E1,-4.148269653E0,-4.721914291E0,2.450106442E-1
1.722636084E1,-5.185037613E0,-1.444364309E0,3.206443489E-1
1.724662875E1,-4.268644333E0,1.924265623E0,8.535424620E-2
1.726689672E1,-1.836248159E0,4.197538376E0,-7.214497924E-1
1.728729672E1,5.195823312E-1,4.362520695E0,-1.725727081E0
1.730743250E1,1.439703822E0,3.863578081E0,-2.269411087E0
1.732770042E1,3.374222517E-1,2.466351748E0,-2.394579411E0
1.734796834E1,-1.396294355E0,-1.602955461E0,-1.980724573E0
1.736823630E1,-2.637060165E0,-4.259589672E0,-1.453019619E0
1.738863630E1,-3.409243107E0,-4.704337597E0,-1.038765192E0
1.740877214E1,-3.692470074E0,-4.075432301E0,-6.894918680E-1
1.742904005E1,-3.445461988E0,-2.968357086E0,-6.415550113E-1
1.744930797E1,-2.674876928E0,-2.593517542E0,-8.418245912E-1
1.746957589E1,-1.747298717E0,-2.271807909E0,-7.566034794E-1
1.748997589E1,-5.209138989E-1,-1.473659039E0,-4.460791349E-1
1.751011167E1,8.258456588E-1,-4.171838760E-1,-3.471427858E-1
1.753037959E1,1.929591894E0,6.978808641E-1,-2.880206704E-1
1.755064750E1,2.267280579E0,1.779922366E0,-5.526055023E-2
1.757091542E1,1.643701792E0,3.045189381E0,3.877559602E-1
1.759118334E1,1.000948310E0,3.389136314E0,9.298419952E-1
1.761145125E1,1.718802929E0,6.728471518E-1,9.127978086E-1
1.763171917E1,2.052097321E0,1.211737394E-1,2.908169627E-1
1.765198709E1,2.218278408E0,6.115944982E-1,4.990760088E-1
1.767225500E1,1.828525066E0,1.792172909E0,9.868336320E-1
1.769252292E1,1.394430161E0,2.671414852E0,1.612010241E0
1.771279078E1,1.188434720E0,2.839060783E0,2.123736143E0
1.773305870E1,1.592569113E0,2.434926271E0,2.138117313E0
1.775332662E1,2.436657429E0,2.077663660E0,1.424523830E0
1.777359453E1,3.185271502E0,2.223471642E0,7.444861531E-1
1.779386245E1,3.415368319E0,2.398174763E0,8.094671965E-1
1.781413037E1,2.953177214E0,2.267679930E0,1.236637950E0
1.783439823E1,2.064347744E0,1.019590497E0,1.515071273E0
1.785466615E1,1.097887397E0,-1.018392086E0,1.417066932E0
1.787493406E1,4.040012360E-1,-2.901778221E0,9.692567587E-1
1.789520198E1,1.797632314E-2,-3.899663925E0,2.039979845E-1
1.791546984E1,3.470096290E-1,-3.524291515E0,-5.723128915E-1
1.793573776E1,1.402952194E0,-2.037583113E0,-9.902957082E-1
1.795600568E1,1.940244555E0,-3.724428117E-1,-9.034767151E-1
1.797627360E1,1.835981846E0,1.361939549E0,-6.777740121E-1
1.799654146E1,1.097354650E0,2.727873802E0,-2.491385341E-1
1.801680938E1,1.042626798E-1,2.710829735E0,4.063980877E-1
1.803707729E1,-4.948149621E-1,1.819337130E0,7.780419588E-1
1.805734516E1,-6.221139431E-1,1.197356343E0,5.289034247E-1
1.807761308E1,-5.246423483E-1,9.870999455E-1,1.896169335E-1
1.809788099E1,-3.840275407E-1,5.643234253E-1,1.832253486E-1
1.811814886E1,-2.328932583E-1,-4.518049359E-1,4.159854650E-1
1.813841677E1,-4.434159771E-2,-1.546629667E0,5.358276367E-1
1.815868469E1,3.241064548E-1,-1.845302939E0,1.231711060E-1
1.817895255E1,7.560708523E-1,-9.837709665E-1,-1.793637723E-1
1.819922047E1,8.768451214E-1,2.031990439E-1,-1.362205893E-1
1.821948834E1,4.865591824E-1,1.284707904E0,-9.254477918E-2
1.823975625E1,-1.135837361E-1,2.425871611E0,-1.335574239E-1
1.826002417E1,-5.358276367E-1,3.361972094E0,-2.512690723E-1
1.828029203E1,-1.209473729E0,9.663273096E-1,-1.234374270E-1
1.830055995E1,-1.439437509E0,-3.279813528E0,-1.015995219E-1
1.832082787E1,-1.277117968E0,-5.613273621E0,-3.119890988E-1
1.834109573E1,-1.366999626E0,-6.733131886E0,-3.631217480E-1
1.836136365E1,-2.041710854E0,-6.269875526E0,8.961530030E-2
1.838163151E1,-2.985800743E0,-3.920436621E0,7.237134576E-1
1.840189943E1,-4.020970821E0,-1.144492626E0,7.876293063E-1
1.842216729E1,-4.784631729E0,1.031308413E0,4.761728346E-1
1.844243521E1,-3.982221842E0,3.102180958E0,3.020022511E-1
1.846270313E1,-1.993774056E0,4.388619900E0,1.268995255E-1
1.848310313E1,1.474058628E-1,4.131491661E0,-3.672496378E-1
1.850323886E1,1.652223945E0,3.144258738E0,-9.998830557E-1
1.852350677E1,6.261087060E-1,1.842772961E0,-1.824263930E0
1.854377464E1,-2.063548803E0,-2.135986805E0,-2.129861593E0
1.856404255E1,-3.506581545E0,-4.508328915E0,-1.931322932E0
1.858431042E1,-4.114714146E0,-4.716588020E0,-1.464204907E0
1.860457834E1,-4.037482262E0,-3.567967415E0,-1.041428328E0
1.862484620E1,-3.225485086E0,-1.982721925E0,-8.130624890E-1
1.864511412E1,-2.226001501E0,-8.229161501E-1,-6.964160800E-1
1.866538198E1,-1.372858524E0,-6.428865790E-1,-5.110602379E-1
1.868578198E1,-7.929556370E-1,-8.809730411E-1,-3.869570196E-1
1.870591776E1,-2.057290375E-1,-3.985417485E-1,-1.948100924E-1
1.872631776E1,4.093275666E-1,8.655267209E-2,-4.727107286E-2
1.874645354E1,9.924262166E-1,5.014728308E-1,1.331579551E-4
1.876672141E1,1.290700078E0,1.188834190E0,3.741738573E-2
1.878712141E1,6.756434441E-1,1.767671824E0,7.257108390E-2
1.880725714E1,6.431528926E-2,1.947168827E0,-2.262353599E-1
1.882752505E1,1.680453420E0,1.125051618E0,-3.994738800E-4
1.884779292E1,2.992991447E0,1.689907551E0,9.708546400E-1
1.886806084E1,2.061684608E0,1.890709758E0,1.607216477E0
1.888846084E1,1.212403178E0,5.328981280E-1,1.223854780E0
1.890859656E1,1.053146243E0,4.673844278E-1,1.296159506E0
1.892899656E1,1.200152636E0,1.114398956E0,1.344096422E0
1.894913235E1,1.375255346E0,1.973800421E0,1.263136387E0
1.896940021E1,1.811480880E0,2.709764481E0,1.126383185E0
1.898966808E1,2.404699564E0,3.035069227E0,7.402250767E-1
1.900993594E1,2.829606533E0,3.319361448E0,2.583264410E-1
1.903020380E1,2.935600281E0,3.575024843E0,2.450106442E-1
1.905047172E1,2.609097004E0,3.510043621E0,8.052061796E-1
1.907073953E1,2.001497269E0,3.020155668E0,1.260473251E0
1.909100745E1,1.332245350E0,1.995105624E0,1.154612660E0
1.911127531E1,7.779088020E-1,7.980156541E-1,9.170588255E-1
1.913154323E1,4.780370593E-1,-4.846949577E-1,6.833665967E-1
1.915181110E1,3.193127811E-1,-1.598694444E0,5.480781198E-1
1.917207896E1,5.797697306E-1,-2.442250013E0,3.227748871E-1
1.919234682E1,1.059005260E0,-2.354898453E0,2.303632535E-2
1.921261469E1,1.382712245E0,-1.438505411E0,-1.564605981E-1
1.923288255E1,1.487640619E0,-1.183774248E-1,-2.826943398E-1
1.925315042E1,1.334375858E0,1.182975292E0,-3.290333152E-1
1.927341828E1,9.892304540E-1,1.990844607E0,-2.352901101E-1
1.929368610E1,6.106624007E-1,2.221340895E0,-8.189214021E-2
1.931395406E1,2.539322078E-1,1.788444519E0,-1.691105962E-2
1.933422193E1,4.567318037E-2,1.268196344E0,-3.595264861E-3
1.935448979E1,1.106542572E-1,1.121855736E0,9.760478139E-2
1.937475766E1,3.379548788E-1,1.008937836E0,2.066611499E-1
1.939502552E1,6.079992056E-1,7.122619152E-1,2.593916953E-1
1.941529334E1,8.411588073E-1,3.672496378E-1,2.093243003E-1
1.943556125E1,9.839041233E-1,1.584579647E-1,8.908267319E-2
1.945582906E1,9.870999455E-1,9.560741484E-2,-2.436790615E-2
1.947609693E1,7.347655892E-1,1.781653464E-1,-3.715106845E-2
1.949636479E1,2.134522051E-1,8.273103833E-1,4.926844500E-3
1.951663266E1,-2.567285299E-1,1.798031926E0,3.328948980E-3
1.953690052E1,-5.273054838E-1,2.270875692E0,-1.904158667E-2
1.955716839E1,-7.849661708E-1,2.113349915E0,-1.464737463E-3
1.957743625E1,-1.110404134E0,1.741040230E0,-6.964161247E-2
1.959770406E1,-1.260073781E0,1.572329164E0,-3.821633458E-1
1.961797193E1,-1.055543065E0,1.857154012E0,-6.793718934E-1
1.963823979E1,-6.727139950E-1,1.961549878E0,-7.933551073E-1
1.965850766E1,-5.273054838E-1,9.716535807E-1,-7.363634706E-1
1.967877547E1,-1.629587054E0,-1.304814816E0,-4.950812757E-1
1.969904334E1,-2.907637119E0,-1.646631241E0,-1.191763729E-1
1.971931120E1,-3.504451036E0,-7.749792933E-1,2.700443268E-1
1.973957901E1,-3.318163157E0,4.194475710E-1,4.990760088E-1
1.975997901E1,-2.763826609E0,1.602689147E0,4.527370334E-1
1.978011474E1,-2.274471045E0,2.568616867E0,3.829622865E-1
1.980038255E1,-1.851694465E0,3.176216602E0,3.371559381E-1
1.982065042E1,-1.504951239E0,3.613906860E0,3.110569715E-1
1.984091823E1,-1.165265322E0,3.637342691E0,4.229096770E-1
1.986118610E1,-6.013413072E-1,2.069674015E0,4.617917836E-1
1.988145396E1,-1.002679393E-1,-4.784365296E-1,1.737711281E-1
1.990172177E1,-2.286322117E-1,-1.995505095E0,-2.784332931E-1
1.992198964E1,-8.526104093E-1,-1.829324007E0,-5.030707717E-1
1.994225750E1,-1.291499019E0,-1.050749421E0,-4.066644013E-1
1.996252531E1,-1.316532731E0,-4.937497079E-1,-1.676458716E-1
1.998279318E1,-1.094957829E0,-5.712476373E-2,8.695214242E-2
2.000306099E1,-5.352949500E-1,1.882853508E-1,2.625874877E-1
2.002332886E1,6.218476593E-2,6.936197877E-1,2.588590682E-1
2.004359667E1,4.647212625E-1,1.370461702E0,2.503369451E-1
2.006386453E1,7.406245470E-1,2.023335218E0,2.641853690E-1
2.008413234E1,9.359672666E-1,2.403501034E0,2.876211703E-1
2.010440021E1,1.065929413E0,2.502038002E0,4.048001766E-1
2.012466802E1,1.101615787E0,2.342781067E0,5.464802384E-1
2.014493584E1,1.061135769E0,1.964745641E0,6.881603003E-1
2.016520370E1,9.540767670E-1,1.381114364E0,7.721830010E-1
2.018560370E1,8.342345953E-1,8.411588073E-1,6.849645376E-1
2.020573938E1,5.813676119E-1,8.384956717E-1,4.996086359E-1
2.022600719E1,-2.410159074E-2,1.330514312E0,2.897517085E-1
2.024627500E1,-5.432844758E-1,1.266065836E0,3.741738573E-2
2.026654287E1,-4.857602119E-1,7.095987201E-1,-1.170458421E-1
2.028694287E1,1.170458421E-1,7.234471440E-1,-7.603318989E-2
2.030707849E1,8.523440957E-1,8.922914863E-1,-3.874896467E-2
2.032734630E1,1.156476855E0,1.340101719E0,6.191844866E-2
2.034761417E1,1.122920990E0,2.329465151E0,1.311605871E-1
2.036788198E1,1.056342006E0,3.292729855E0,-7.070687413E-2
2.038828198E1,1.068059921E0,3.245458841E0,-5.419528484E-1
2.040841761E1,9.088030457E-1,3.928159773E-1,-7.422224283E-1
2.042868547E1,9.098683000E-1,-1.586443901E0,-6.277065873E-1
2.044895328E1,8.416914344E-1,-1.439570665E0,-2.800311744E-1
2.046922110E1,7.198519111E-1,-3.687143922E-1,4.966791719E-2
2.048962110E1,4.285022914E-1,6.739124060E-1,3.962780833E-1
2.050975672E1,1.744369231E-2,1.311872125E0,6.375603080E-1
2.053002453E1,-2.577938139E-1,1.601623893E0,7.311703563E-1
2.055029235E1,-1.593900770E-1,1.152082682E0,6.673876643E-1
2.057056016E1,2.379532605E-1,2.250369489E-1,4.277033508E-1
2.059082802E1,7.166560888E-1,-4.763059914E-1,2.783001214E-2
2.061109584E1,9.950894117E-1,-4.459459782E-1,-3.327617347E-1
2.063136365E1,7.970834970E-1,4.087949097E-1,-3.795001805E-1
2.065163146E1,2.395511568E-1,1.577655435E0,-2.145174593E-1
2.067203146E1,-1.982721984E-1,2.245309353E0,-1.303616315E-1
2.069216708E1,-3.169159293E-1,2.224004269E0,-1.191763729E-1
2.071243490E1,-1.737711281E-1,1.934918284E0,-7.230477035E-2
2.073270271E1,1.797632314E-2,1.753290772E0,-5.193160381E-3
2.075297052E1,2.262353599E-1,1.682983398E0,2.889527567E-2
2.077323834E1,4.386222959E-1,1.631451249E0,6.298371404E-2
2.079350615E1,5.584644675E-1,1.557415485E0,4.380896688E-2
2.081377396E1,5.057339072E-1,1.461009026E0,-6.111950055E-2
2.083404177E1,3.422159553E-1,1.379516363E0,-1.175784767E-1
2.085430959E1,1.649827063E-1,1.550491214E0,-1.691105962E-2
2.087457735E1,-4.008054361E-2,1.861415029E0,1.238369010E-2
2.089484516E1,-2.711096108E-1,1.877393961E0,-5.632581562E-2
2.091511297E1,-5.022718310E-1,1.512674332E0,-4.301001877E-2
2.093538078E1,-6.695181727E-1,8.858999014E-1,5.179844424E-2
2.095564860E1,-8.137282729E-1,3.155843616E-1,9.068056941E-2
2.097591641E1,-1.045955777E0,3.486075401E-1,-1.218395308E-1
2.099618417E1,-1.281378984E0,1.245825887E0,-4.370244145E-1
2.101645208E1,-1.237170577E0,2.445579052E0,-7.166560888E-1
2.103671979E1,-6.274402738E-1,2.648511648E0,-1.010535717E0
2.105698761E1,-5.528718233E-1,1.645299673E0,-7.976161242E-1
2.107725537E1,-1.973001480E0,1.568600684E-1,-3.290333152E-1
2.109752318E1,-2.969289303E0,3.219759464E-1,-3.890875578E-1
2.111779099E1,-3.339468241E0,7.841671705E-1,-2.667153776E-1
2.113805880E1,-2.901245594E0,6.914892793E-1,-4.247738793E-2
2.115832656E1,-2.132258415E0,3.752391040E-1,1.944106072E-1
2.117859438E1,-1.753690243E0,5.062665343E-1,5.422192216E-1
2.119886219E1,-1.853292465E0,1.176583648E0,8.387619853E-1
2.121912995E1,-1.980458260E0,1.829989791E0,1.006541014E0
2.123939776E1,-1.743037581E0,1.666072369E0,9.101346135E-1
2.125966552E1,-1.093359947E0,4.556665123E-1,2.407495826E-1
2.127993334E1,-6.583329439E-1,-8.245140314E-1,-9.210535884E-1
2.130020115E1,-9.926925302E-1,-7.552719116E-1,-1.742238641E0
2.132046891E1,-1.760081887E0,-1.300953180E-1,-1.531316519E0
2.134073672E1,-2.438921213E0,-3.836280704E-1,-8.982835412E-1
2.136100448E1,-2.662626505E0,-1.080576777E0,-3.247722387E-1
2.138127229E1,-2.418681145E0,-9.438235760E-1,4.647212476E-2
2.140154005E1,-1.877660275E0,-4.841623306E-1,-5.725792143E-3
2.142180787E1,-1.466069102E0,-2.062616795E-1,-2.209090441E-1
2.144207563E1,-1.479917526E0,-4.980107546E-1,-3.402185738E-1
2.146234344E1,-1.584313393E0,-6.199834347E-1,-3.789675534E-1
2.148261120E1,-1.429317474E0,-4.028028250E-1,-3.434143662E-1
2.150301120E1,-1.168461084E0,-3.814975321E-1,-2.555301189E-1
2.152314677E1,-9.527451396E-1,-5.070654750E-1,-1.500690132E-1
2.154341453E1,-7.977492809E-1,-6.183855534E-1,-9.893636405E-2
2.156368229E1,-6.695181727E-1,-6.231792569E-1,-5.739107728E-2
2.158395011E1,-5.075981021E-1,-4.916191697E-1,-2.436790615E-2
2.160421787E1,-2.812296152E-1,-3.607248962E-1,-1.265000552E-2
2.162448563E1,-4.221107066E-2,-1.700427085E-1,-9.454214945E-3
2.164475344E1,2.001364082E-1,8.016108721E-2,-1.957421936E-2
2.166502120E1,3.763043880E-1,1.046621501E-1,-6.058686972E-2
2.168542120E1,4.423507154E-1,-3.261038363E-1,-9.467530251E-2
2.170555677E1,3.384875357E-1,-7.398256063E-1,-8.349003643E-2
2.172582453E1,-4.420844018E-1,-1.609879732E-1,1.344895363E-2
2.174609234E1,-8.089345694E-1,8.868319541E-2,-2.223737910E-2
2.176636011E1,4.295675755E-1,-2.614822865E0,3.797664940E-1
2.178676011E1,1.389103770E0,-1.210006356E0,2.242379934E-1
2.180689568E1,1.597895503E0,1.279381633E0,1.183774248E-1
2.182716344E1,1.507880688E0,2.692187548E0,5.070654750E-1
2.184743120E1,1.272057891E0,3.079810381E0,7.854987979E-1
2.186769896E1,1.590438604E0,3.132008314E0,4.186486006E-1
2.188809896E1,2.473808527E0,2.696448565E0,-5.366265774E-2
2.190823453E1,2.601107597E0,2.059554100E0,-2.166479975E-1
2.192850229E1,2.034520388E0,1.533447027E0,4.114580899E-2
2.194877005E1,1.541436434E0,1.308676362E0,5.896234512E-1
2.196903787E1,1.416267991E0,1.365135312E0,1.061934710E0
2.198930563E1,1.462074399E0,1.685646534E0,1.301485896E0
2.200957339E1,1.524392247E0,2.037716150E0,1.344096422E0
2.202984115E1,1.516935468E0,2.291648388E0,1.351553202E0
2.205010896E1,1.517468095E0,2.507896900E0,1.397892237E0
2.207037672E1,1.627722859E0,2.717221260E0,1.551822782E0
2.209064453E1,1.806687117E0,3.109637737E0,1.798298240E0
2.211091229E1,2.047303677E0,3.612841606E0,2.004426718E0
2.213118005E1,2.221474171E0,3.867306471E0,1.943706632E0
2.215144787E1,2.245975256E0,3.692203760E0,1.555551291E0
2.217171563E1,1.898299813E0,2.552105427E0,1.038498878E0
2.219198339E1,1.157009482E0,4.466117918E-1,5.438171029E-1
2.221225120E1,4.487423003E-1,-1.536509633E0,1.668469161E-1
2.223251896E1,1.495363861E-1,-2.600441694E0,-2.043974549E-1
2.225278677E1,2.203764170E-1,-2.620149136E0,-4.780370593E-1
2.227305453E1,5.920202732E-1,-1.663142800E0,-5.611276031E-1
2.229332229E1,1.032906294E0,-2.249037921E-1,-4.524707198E-1
2.231359011E1,1.150085211E0,1.304947972E0,-4.050664902E-1
2.233385787E1,9.823062420E-1,2.439187527E0,-3.736412227E-1
2.235412568E1,4.775044322E-1,2.344378948E0,-2.123869359E-1
2.237439344E1,-1.316932142E-1,7.921566963E-1,1.984053478E-2
2.239466125E1,-3.174485564E-1,-1.402153224E-1,1.050616279E-1
2.241492901E1,-2.892190814E-1,3.438138366E-1,1.784316599E-1
2.243519677E1,-3.557980657E-1,1.503619671E0,2.370211631E-1
2.245546458E1,-5.768402815E-1,2.653305531E0,2.503369451E-1
2.247573234E1,-6.620613337E-1,3.563839436E0,1.717737690E-2
2.249600016E1,-3.174485564E-1,4.307260513E0,-4.322307110E-1
2.251626792E1,1.021321490E-1,3.973300219E0,-4.546012580E-1
2.253653573E1,-5.496760607E-1,-3.820301592E-1,-2.145174593E-1
2.255680349E1,-1.385641694E0,-3.582348585E0,-2.619217038E-1
2.257707130E1,-1.940510869E0,-4.756535530E0,-2.933469713E-1
2.259733906E1,-2.396310568E0,-4.870917797E0,-3.821633384E-2
2.261760688E1,-3.646663666E0,-5.489703178E0,5.925529078E-2
2.263787464E1,-5.405547142E0,-5.061600208E0,1.034637317E-1
2.265814245E1,-5.224452496E0,-1.756353378E0,2.865559161E-1
2.267841021E1,-3.104045153E0,2.708166599E0,3.302317262E-1
2.269867802E1,-1.023052573E0,5.022850990E0,-2.530001104E-3
2.271894578E1,8.438219428E-1,4.665055752E0,-6.500771642E-1
2.273921360E1,1.933320403E0,2.920020819E0,-1.322125316E0
2.275961360E1,2.635195851E-1,8.033419251E-1,-1.889777660E0
2.277974917E1,-2.028927803E0,-2.763293982E0,-1.860482931E0
2.280001698E1,-3.236137867E0,-4.608463764E0,-1.491901755E0
2.282028474E1,-3.915642738E0,-4.684097290E0,-1.203881025E0
2.284055255E1,-4.229229927E0,-3.419363022E0,-1.018525243E0
2.286082031E1,-3.647728920E0,-1.686046004E0,-9.833714962E-1
2.288108813E1,-2.101898432E0,-8.122635484E-1,-6.916224360E-1
2.290135594E1,-8.600672483E-1,-1.370328546E0,-3.677822649E-1
2.292162375E1,1.308942735E-1,-1.424656987E0,-2.166479975E-1
2.294189151E1,1.014264107E0,-6.311687231E-1,-2.596580051E-2
2.296215933E1,1.883386135E0,4.503402114E-1,9.494162351E-2
2.298255932E1,2.127198219E0,2.329998016E0,4.639223218E-1
2.300269490E1,1.849830270E0,4.120306492E0,6.785729527E-1
2.302296276E1,3.084604025E0,4.035085678E0,1.018791556E0
2.304323052E1,2.414819479E0,3.247056723E0,1.529452324E0
2.306349834E1,1.510543823E0,5.057339072E-1,2.013348341E-1
2.308376615E1,1.354083300E0,-7.701855898E-1,5.816339254E-1
2.310403396E1,8.683230281E-1,-6.721813679E-1,1.439970136E0
2.312430177E1,8.912261724E-1,3.731085956E-1,1.930390835E0
2.314456959E1,1.109605193E0,1.366200566E0,2.097637177E0
2.316483740E1,1.373657465E0,2.173004627E0,2.256894112E0
2.318523740E1,2.078196287E0,2.958370209E0,2.088582516E0
2.320537302E1,3.412172556E0,3.016427040E0,1.127981067E0
2.322564089E1,4.259323597E0,2.298572540E0,6.450171471E-1
2.324590870E1,3.865841866E0,1.360874295E0,8.696545959E-1
2.326617651E1,2.177798271E0,-2.094574571E-1,1.014530420E0
2.328657651E1,7.123950720E-1,-2.532797575E0,6.641919017E-1
2.330671214E1,3.182475269E-2,-3.785148144E0,1.279647946E-1
2.332698000E1,-4.487423226E-2,-3.326152563E0,-2.187785208E-1
2.334724781E1,6.644582152E-1,-1.817606091E0,-6.468813419E-1
2.336751563E1,1.615472317E0,-3.617901504E-1,-9.801757336E-1
2.338791563E1,1.915210843E0,1.941442937E-1,-7.187866569E-1
2.340805130E1,1.712943912E0,1.491369128E0,-2.725743353E-1
2.342831917E1,1.039297819E0,2.654370785E0,5.065328479E-1
2.344858698E1,2.001364082E-1,2.264484167E0,1.097088337E0
2.346885485E1,-1.838911325E-1,1.543034434E0,8.068040609E-1
2.348925484E1,-3.355580568E-1,9.530115128E-1,1.992042959E-1
2.350939058E1,-6.050697565E-1,1.222390011E-1,1.198421582E-3
2.352965839E1,-9.724525213E-1,-1.270726323E0,6.884266436E-2
2.354992625E1,-1.176983118E0,-2.772348642E0,1.800295562E-1
2.357019412E1,-9.016125202E-1,-2.989129782E0,1.093226820E-1
2.359046198E1,-1.018658355E-1,-9.933583736E-1,-1.644500792E-1
2.361072984E1,7.965508699E-1,1.371526957E0,-2.512690723E-1
2.363099771E1,1.183641076E0,2.341183186E0,-1.367532164E-1
2.365126552E1,1.032373667E0,2.617619038E0,-4.354264960E-2
2.367153344E1,4.455465078E-1,3.011633396E0,-6.378266215E-2
2.369180136E1,-1.684448123E-1,3.787544966E0,-1.037300453E-1
2.371206922E1,-5.502086878E-1,3.828957081E0,-8.668582886E-2
2.373233708E1,-1.854357719E0,-1.618401766E0,3.475422785E-2
2.375260500E1,-2.696714878E0,-9.355677605E0,2.450106442E-1
2.377287287E1,-2.224403620E0,-1.108420181E1,1.743037701E-1
2.379314078E1,-1.861148715E0,-1.047766685E1,2.242379934E-1
2.381340870E1,-3.149851322E0,-6.646313190E0,6.167876720E-1
2.383367656E1,-4.372507572E0,-1.097088337E0,7.812377214E-1
2.385394448E1,-5.034435749E0,2.184722662E0,7.599324584E-1
2.387421240E1,-4.230295181E0,4.162917137E0,5.858950019E-1
2.389448026E1,-1.931456089E0,4.896617413E0,-1.053279415E-1
2.391474823E1,5.531381369E-1,3.860382318E0,-9.684578180E-1
2.393501610E1,1.382712245E0,3.499391079E0,-1.657017589E0
2.395528401E1,-1.331579551E-4,2.544648409E0,-1.959019780E0
2.397555193E1,-1.976729870E0,-1.389503241E0,-1.881255627E0
2.399581990E1,-3.292596817E0,-3.679287434E0,-1.848765016E0
2.401608781E1,-4.209522247E0,-3.842672348E0,-1.774729252E0
2.403635578E1,-4.667985439E0,-3.184472561E0,-1.600026011E0
2.405662370E1,-3.809648991E0,-1.981124043E0,-1.509478569E0
2.407689162E1,-2.140247822E0,-2.185521603E0,-1.203348398E0
2.409715958E1,-7.929556370E-1,-2.720150709E0,-8.279761672E-1
2.411742750E1,4.348938763E-1,-1.974199891E0,-6.442182064E-1
2.413769542E1,1.730520844E0,-5.555350184E-1,-6.069339514E-1
2.415796339E1,2.658099174E0,9.998830557E-1,-5.584644675E-1
2.417823136E1,2.468482256E0,2.715623379E0,-2.533995807E-1
2.419849932E1,2.603770733E0,3.570231199E0,7.025413513E-1
2.421876729E1,2.875412941E0,3.318828821E0,2.187652111E0
2.423903521E1,1.280580044E0,2.117610931E0,1.785115600E0
2.425930323E1,2.366349936E0,9.918935895E-1,-2.086585164E-1
2.427957120E1,2.204429865E0,1.160604715E0,2.109221965E-1
2.429983912E1,1.420529008E0,1.408811212E0,8.137282729E-1
2.432010714E1,1.038232565E0,1.755421281E0,1.194027424E0
2.434037511E1,1.192163229E0,2.191646814E0,1.599759698E0
2.436064308E1,1.994040370E0,2.687926531E0,1.633848071E0
2.438091104E1,3.140530348E0,3.043058634E0,1.165265322E0
2.440117906E1,3.562774181E0,3.400854111E0,9.463536143E-1
2.442144703E1,3.319494724E0,3.496727943E0,1.151949525E0
2.444171505E1,2.578737020E0,2.725743294E0,1.249421120E0
2.446198302E1,1.589905977E0,5.286371112E-1,1.294561625E0
2.448225104E1,6.697844863E-1,-2.191380501E0,1.245692611E0
2.450251901E1,9.467530251E-2,-4.325103760E0,6.801708341E-1
2.452278703E1,-1.471395344E-1,-4.647346020E0,-2.027995586E-1
2.454305505E1,7.448856235E-1,-2.518949032E0,-8.700540662E-1
2.456332308E1,1.690040708E0,-2.291648388E-1,-9.562072754E-1
2.458359110E1,2.038248777E0,1.345960617E0,-7.113298178E-1
2.460385912E1,1.915210843E0,3.079810381E0,-4.977444410E-1
2.462412714E1,1.403484821E0,4.077163219E0,-3.821633384E-2
2.464439516E1,2.821617126E-1,2.972751379E0,6.045371294E-1
2.466466318E1,-6.716487408E-1,1.817739248E0,4.079959691E-1
2.468506318E1,-1.318530083E0,8.475503922E-1,-8.295740932E-2
2.470519922E1,-1.537441730E0,-4.038680792E-1,-1.825595498E-1
2.472546724E1,-1.230778933E0,-1.621597528E0,3.315633163E-2
2.474573531E1,-6.567350626E-1,-1.651957631E0,2.061285079E-1
2.476600334E1,-4.860265180E-2,-7.664572001E-1,1.327584833E-1
2.478640334E1,5.286371112E-1,2.298306376E-1,1.348890066E-1
2.480653943E1,9.151946306E-1,7.586008906E-1,1.848232448E-1
2.482680745E1,9.647293687E-1,6.190513372E-1,1.556616426E-1
2.484707547E1,6.111950278E-1,2.756369710E-1,8.855003864E-2
2.486734354E1,-1.870869249E-1,3.539338410E-1,-1.997369342E-3
2.488774354E1,-1.007606268E0,1.263402700E0,-2.278332561E-1
2.490787964E1,-1.275520086E0,2.804972410E0,-4.167844057E-1
2.492814771E1,-8.920251131E-1,3.007905006E0,-2.976080179E-1
2.494841578E1,-7.259771824E-1,-2.336256266E0,-1.159805804E-1
2.496868380E1,-8.771114349E-1,-5.711277962E0,-8.775109053E-2
2.498895188E1,-1.182842135E0,-6.821016312E0,-9.946899116E-2
2.500921995E1,-2.129595280E0,-6.829538345E0,2.237053663E-1
2.502948802E1,-3.574758530E0,-4.785830021E0,8.371640444E-1
2.504975610E1,-4.925778866E0,-1.507747531E0,1.128513694E0
2.507002417E1,-5.105675697E0,1.482846975E0,1.071522117E0
2.509029224E1,-3.361306190E0,3.317230940E0,6.274402738E-1
2.511056026E1,-8.392946124E-1,3.983952761E0,-3.976096511E-1
2.513082834E1,1.387505889E0,3.463172197E0,-1.810415506E0
2.515109641E1,1.400821686E0,3.415767908E0,-2.678871632E0
2.517136448E1,-5.107939243E-1,9.040093422E-1,-2.849313974E0
2.519163255E1,-2.268612146E0,-3.351718903E0,-2.408427954E0
2.521190063E1,-3.375154734E0,-5.206476212E0,-1.567535400E0
2.523216870E1,-3.805387974E0,-5.212867737E0,-9.460873008E-1
2.525243677E1,-3.785148144E0,-3.637742281E0,-7.571361065E-1
2.527270490E1,-2.994323015E0,-1.661012292E0,-1.016394615E0
2.529297297E1,-1.777126074E0,-1.946503043E0,-1.170857906E0
2.531324104E1,-6.418213248E-1,-2.143443584E0,-7.273087502E-1
2.533350912E1,5.755086541E-1,-1.294694781E0,-5.328981280E-1
2.535377724E1,1.745967150E0,1.382179558E-1,-5.206475854E-1
2.537404531E1,2.255562544E0,2.068608761E0,-5.073317885E-1
2.539431344E1,1.874863982E0,3.755586863E0,-2.033322006E-1
2.541458151E1,2.500972748E0,4.249203682E0,9.500820041E-1
2.543484964E1,1.922135115E0,3.776892185E0,1.604553342E0
2.545511771E1,2.080326796E0,7.655251026E-1,3.067959249E-1
2.547538584E1,2.080859423E0,-2.131858915E-1,5.645897388E-1
2.549565391E1,1.184173703E0,-1.210405827E-1,1.360075355E0
2.551592203E1,7.869635224E-1,7.671229839E-1,1.885117173E0
2.553619011E1,7.422224283E-1,1.818271875E0,2.213751078E0
2.555645823E1,1.123986244E0,2.353966236E0,2.300037384E0
2.557672636E1,2.233724594E0,2.588324308E0,1.717471361E0
2.559699443E1,3.366366148E0,3.150650263E0,8.547409177E-1
2.561726255E1,3.736944914E0,3.870502234E0,6.514087319E-1
2.563753068E1,3.190065145E0,4.149068832E0,7.737808824E-1
2.565779880E1,1.998301387E0,3.071820974E0,9.607346654E-1
2.567806693E1,8.480830193E-1,5.451486707E-1,1.303083777E0
2.569833500E1,1.644500792E-1,-2.434793234E0,1.406946898E0
2.571860313E1,-1.402153224E-1,-4.742154121E0,9.111998677E-1
2.573887125E1,-1.679121852E-1,-5.393296719E0,1.258342713E-1
2.575927125E1,6.942855716E-1,-4.103129387E0,-6.394245028E-1
2.577940750E1,1.570731282E0,-1.860749245E0,-9.567399025E-1
2.579967563E1,2.019073963E0,2.143843025E-1,-8.540751338E-1
2.581994375E1,1.921602488E0,1.927461386E0,-5.872265697E-1
2.584021188E1,1.353550673E0,2.956772327E0,-3.338269889E-1
2.586048000E1,3.928159773E-1,2.810298681E0,9.174583107E-2
2.588074813E1,-4.048001766E-1,1.994572997E0,4.021370113E-1
2.590101625E1,-7.717835307E-1,8.422240615E-1,4.884233773E-1
2.592128438E1,-7.089329362E-1,-3.649859428E-1,4.569981098E-1
2.594155250E1,-4.442149401E-1,-1.286172748E0,3.233075142E-1
2.596182063E1,-2.636527419E-1,-1.697231293E0,1.135837361E-1
2.598208875E1,-1.508679688E-1,-1.349555850E0,-2.010685205E-2
2.600235693E1,5.725792143E-3,-1.860216707E-1,2.796316985E-3
2.602262505E1,9.520793706E-2,1.198421597E0,-1.637842879E-2
2.604289318E1,-2.889527567E-2,2.363021135E0,2.303632535E-2
2.606316130E1,-2.679138184E-1,3.302850008E0,2.143843099E-2
2.608342943E1,-3.318296373E-1,3.910982370E0,-7.017423958E-2
2.610369761E1,-2.780338228E-1,3.385940552E0,-1.383511126E-1
2.612396573E1,-9.852356911E-1,-2.516818523E0,-1.031974182E-1
2.614423391E1,-1.506016493E0,-7.308241367E0,-1.980058849E-1
2.616450203E1,-1.757951379E0,-8.469112396E0,-7.976161689E-2
2.618490203E1,-2.465552807E0,-8.305594444E0,3.083938360E-1
2.620503834E1,-4.088082314E0,-6.314084053E0,7.929556370E-1
2.622530646E1,-5.520595551E0,-2.595115423E0,9.825725555E-1
2.624557458E1,-4.918854713E0,1.403484821E0,8.110650778E-1
2.626584276E1,-2.813893795E0,4.727906227E0,3.797664940E-1
2.628624276E1,-7.733814120E-1,6.311553955E0,-3.380880356E-1
2.630637906E1,1.093626261E0,5.496760368E0,-8.226498365E-1
2.632664719E1,1.835449219E0,3.630951166E0,-1.134106278E0
2.634691537E1,-1.545963883E-1,3.507380486E-1,-1.582449198E0
2.636718354E1,-2.330929995E0,-3.562108517E0,-1.606417537E0
2.638758354E1,-3.523625851E0,-4.767720699E0,-1.679388165E0
2.640771979E1,-4.284090996E0,-4.170773506E0,-1.562741756E0
2.642798797E1,-4.347474098E0,-2.684997082E0,-1.404150605E0
2.644825610E1,-2.893255949E0,-1.761679769E0,-1.263535857E0
2.646852427E1,-1.468199611E0,-1.796300769E0,-8.391614556E-1
2.648892427E1,-4.383559823E-1,-1.888978720E0,-4.844286442E-1
2.650906058E1,5.243760347E-1,-1.034770489E0,-2.960101366E-1
2.652932875E1,1.615472317E0,1.025316268E-1,-2.081258893E-1
2.654959688E1,2.007356167E0,1.392832160E0,-2.170474641E-2
2.656986505E1,1.300287485E0,2.585128546E0,4.676507413E-1
2.659013323E1,1.910949826E0,2.663958073E0,1.223322153E0
2.661040136E1,2.828008652E0,2.570747375E0,2.125334024E0
2.663066953E1,2.470612764E0,3.231610298E0,1.959685683E0
2.665093771E1,2.147438288E0,3.069690228E0,1.784316599E-1
2.667120589E1,1.872733474E0,1.518000722E0,2.338253707E-1
2.669139542E1,1.377385855E0,2.900180221E-1,8.930904269E-1
2.671174208E1,1.074451566E0,1.371526867E-1,1.452753305E0
2.673201031E1,1.067527294E0,7.799061537E-1,1.842506647E0
2.675227849E1,1.528653383E0,1.844903469E0,1.823864460E0
2.677262531E1,2.429200649E0,2.812429190E0,1.317997456E0
2.679297245E1,3.235871553E0,3.041460752E0,6.977477074E-1
2.681308328E1,3.355180979E0,2.607499123E0,5.566002727E-1
2.683335141E1,2.796583414E0,1.941309810E0,7.439534664E-1
2.685361953E1,1.965278268E0,7.756450772E-1,1.073119998E0
2.687388761E1,1.216131568E0,-8.649940491E-1,1.196157932E0
2.689415578E1,6.575340033E-1,-2.659963369E0,8.584693074E-1
2.691442391E1,3.368896246E-1,-3.882619619E0,1.364869028E-1
2.693469209E1,2.794985473E-1,-3.821367025E0,-5.946834087E-1
2.695496026E1,7.496792674E-1,-2.227066755E0,-9.610009789E-1
2.697522844E1,1.400821686E0,6.631266326E-2,-9.679251909E-1
2.699549656E1,1.544099689E0,1.902960300E0,-6.127929091E-1
2.701576474E1,1.060603142E0,2.551040173E0,-1.223721579E-1
2.703603292E1,4.886896908E-1,2.314551592E0,1.556616426E-1
2.705630110E1,7.763108611E-2,1.823065519E0,3.350254297E-1
2.707656927E1,-1.482048035E-1,1.545697570E0,4.079959691E-1
2.709683745E1,-1.737711281E-1,1.332112193E0,4.202465117E-1
2.711710563E1,-1.519332230E-1,8.954872489E-1,4.362254739E-1
2.713737380E1,-2.201101035E-1,3.448790908E-1,3.009369671E-1
2.715764198E1,-2.588590682E-1,1.121189967E-1,5.392897129E-2
2.717791016E1,-1.205079481E-1,8.086682558E-1,-6.697845459E-2
2.719817834E1,1.782985032E-1,1.959951997E0,6.245107949E-2
2.721844646E1,3.507380486E-1,2.701774836E0,6.990792602E-2
2.723871458E1,1.351553202E-1,1.976996183E0,-3.928159550E-2
2.725898276E1,-8.376966715E-1,-2.195641518E0,2.569948509E-2
2.727925094E1,-1.589639664E0,-4.488089085E0,3.861580743E-3
2.729951912E1,-2.053961515E0,-5.595164299E0,7.057371549E-3
2.731978729E1,-2.404299974E0,-5.935915470E0,2.764359117E-1
2.734005547E1,-3.203114510E0,-5.531780720E0,5.842971206E-1
2.736032365E1,-4.696214676E0,-3.634546280E0,8.036082387E-1
2.738059183E1,-5.266530514E0,-3.452785909E-1,7.988145947E-1
2.740086000E1,-4.109920502E0,3.252382994E0,7.311703563E-1
2.742112818E1,-2.113616228E0,5.582514286E0,3.978759646E-1
2.744139636E1,-8.215846121E-2,5.696497440E0,-3.880222738E-1
2.746166453E1,1.150617838E0,3.882220268E0,-1.290167451E0
2.748206453E1,-2.716422379E-1,5.966808200E-1,-2.045172930E0
2.750220089E1,-2.325603724E0,-2.657832861E0,-2.380731106E0
2.752246906E1,-3.622162580E0,-4.065312386E0,-2.349838495E0
2.754273724E1,-4.255861282E0,-4.062116623E0,-1.958487153E0
2.756300542E1,-4.283025742E0,-3.190331459E0,-1.479651213E0
2.758327360E1,-3.323489428E0,-1.839444041E0,-9.839041233E-1
2.760354172E1,-1.931988716E0,-1.426254869E0,-6.186518669E-1
2.762380990E1,-8.137282729E-1,-1.499758005E0,-4.902876019E-1
2.764407808E1,-3.581948951E-2,-1.220659018E0,-4.817654788E-1
2.766434625E1,7.448856235E-1,-5.864276290E-1,-3.901528120E-1
2.768474625E1,1.424790144E0,2.277000993E-1,-2.576606572E-1
2.770488261E1,1.155944228E0,1.512674332E0,-1.324921697E-1
2.772515078E1,9.679251909E-1,2.191646814E0,7.789740711E-2
2.774541896E1,2.632000208E0,2.024933100E0,7.519429922E-1
2.776568714E1,2.458894730E0,3.156509399E0,1.484178543E0
2.778608714E1,1.867407203E0,2.121339321E0,1.556616426E-1
2.780622344E1,1.835981846E0,4.279696643E-1,4.878907502E-1
2.782649162E1,1.440236449E0,7.452850938E-1,9.447556734E-1
2.784675979E1,1.287504315E0,1.508945942E0,1.533180714E0
2.786702797E1,1.222523212E0,2.205362082E0,2.014014006E0
2.788742797E1,1.571263909E0,3.015361786E0,2.015611887E0
2.790756433E1,2.508429527E0,3.584612131E0,1.311073184E0
2.792783250E1,3.415368319E0,3.883818150E0,6.263750196E-1
2.794810068E1,3.414303064E0,4.194342613E0,5.187833905E-1
2.796836886E1,2.773147583E0,3.936016083E0,7.226482034E-1
2.798876886E1,1.985518217E0,2.873149157E0,8.376966715E-1
2.800890516E1,1.346093774E0,1.525990129E0,9.564735889E-1
2.802917334E1,9.088030457E-1,2.181127369E-1,1.176450491E0
2.804944151E1,5.451486707E-1,-9.651288390E-1,1.221191645E0
2.806970969E1,2.033322006E-1,-2.031191349E0,9.623325467E-1
2.809010969E1,4.034686089E-2,-2.881538153E0,4.799012840E-1
2.811024599E1,6.048034430E-1,-3.103112936E0,-2.368880063E-1
2.813051417E1,1.319994807E0,-2.326136351E0,-5.813676119E-1
2.815078235E1,1.742771268E0,-8.069372177E-1,-5.611276031E-1
2.817105047E1,1.713476539E0,1.114398956E0,-5.174518228E-1
2.819131865E1,1.365801096E0,2.519082308E0,-3.763043880E-1
2.821158682E1,9.093356729E-1,3.127214670E0,-1.937448233E-1
2.823185500E1,4.870918095E-1,3.292729855E0,1.398158539E-2
2.825212318E1,1.894837767E-1,2.877410173E0,2.050632536E-1
2.827239130E1,-7.736477256E-2,1.813478231E0,2.631201148E-1
2.829265948E1,-3.435475230E-1,3.443464637E-1,1.434111148E-1
2.831292766E1,-5.368928909E-1,-9.853688478E-1,6.564687192E-2
2.833319584E1,-5.145223141E-1,-1.714275479E0,1.716406047E-1
2.835346401E1,-2.046637833E-1,-1.867140889E0,1.880190372E-1
2.837373219E1,1.868206114E-1,-1.049684167E0,1.002679393E-1
2.839400031E1,4.103928208E-1,2.958769798E-1,1.504684892E-2
2.841426849E1,4.215780795E-1,1.288436413E0,2.836264484E-2
2.843453667E1,2.826943398E-1,1.910949826E0,1.311605871E-1
2.845480484E1,9.574057162E-2,2.428002119E0,1.476721764E-1
2.847507302E1,9.094688296E-2,3.071820974E0,6.404897571E-2
2.849534120E1,3.459443748E-1,3.609645844E0,1.087900475E-1
2.851560933E1,1.639174372E-1,1.790575027E0,4.719117880E-1
2.853587750E1,-7.137266397E-1,-1.482713819E0,7.078676820E-1
2.855614568E1,-1.155145288E0,-2.321875334E0,4.032022953E-1
2.857641386E1,-1.288303256E0,-2.153563499E0,1.577921808E-1
2.859668203E1,-1.177515745E0,-1.495496988E0,1.471395344E-1
2.861695021E1,-1.011334658E0,-8.218508959E-1,9.121319652E-2
2.863721839E1,-1.062467337E0,-5.800360441E-1,-1.266332120E-1
2.865748656E1,-1.575791240E0,-5.784381628E-1,-4.519380927E-1
2.867775474E1,-2.458628416E0,-4.241080880E-1,-8.530098796E-1
2.869802292E1,-3.221756697E0,-6.617950648E-2,-1.155944228E0
2.871829110E1,-3.335207224E0,8.438219428E-1,-1.074984193E0
2.873855927E1,-2.686062336E0,1.783118129E0,-6.825676560E-1
2.875894625E1,-1.623195529E0,2.684730768E0,-1.868206114E-1
2.877909563E1,-7.691203356E-1,3.868904352E0,4.114580899E-2
2.879936380E1,-1.279647946E-1,4.470644951E0,-9.946899116E-2
2.881963198E1,5.675191879E-1,3.317763567E0,-3.338269889E-1
2.883990016E1,1.245026886E-1,-3.942807019E-1,-5.872265697E-1
2.886016834E1,-7.201182246E-1,-2.285656214E0,-7.731150985E-1
2.888043651E1,-1.436241746E0,-2.469414234E0,-7.065361142E-1
2.890070469E1,-1.891508698E0,-1.738243937E0,-3.476754129E-1
2.892097287E1,-2.147171974E0,-6.844319105E-1,-9.454214945E-3
2.894131969E1,-2.119475126E0,1.446095407E-1,1.237037405E-1
2.896150932E1,-1.536376476E0,4.540686309E-1,1.805621833E-1
2.898177745E1,-7.972166538E-1,7.351650596E-1,1.757684946E-1
2.900204563E1,-2.126532495E-1,1.174453139E0,1.311605871E-1
2.902231380E1,1.266332120E-1,1.630385995E0,1.763011366E-1
2.904258198E1,2.800311744E-1,1.596297622E0,3.808317482E-1
2.906285016E1,3.001380265E-1,1.028645158E0,7.110635042E-1
2.908311834E1,2.949448824E-1,6.728471518E-1,9.745830894E-1
2.910338646E1,4.237086177E-1,5.552686453E-1,1.187103152E0
2.912365464E1,7.795066833E-1,6.083986759E-1,1.422925949E0
2.914392281E1,1.358876944E0,7.415566444E-1,1.679121852E0
2.916419099E1,1.946636200E0,8.874977827E-1,1.812146664E0
2.918459099E1,2.217745781E0,1.054211497E0,1.681784987E0
2.920472735E1,1.830655575E0,1.585112333E0,1.025183082E0
2.922499552E1,4.274370372E-1,1.793770790E0,-1.255679578E-1
2.924526370E1,-1.093892574E0,9.727188349E-1,-1.016927361E0
2.926553188E1,-1.600824952E0,-1.109205782E-1,-1.193228483E0
2.928593188E1,-8.904272318E-1,-1.148753643E0,-9.817736149E-1
2.930606823E1,4.977444410E-1,-4.592617750E-1,-5.286371112E-1
2.932633636E1,1.343963265E0,1.786846638E0,-8.828372508E-2
2.934660453E1,1.690573454E0,3.409909010E0,2.189116776E-1
2.936687271E1,1.720400810E0,4.014845371E0,2.801643312E-1
2.938727271E1,1.462607026E0,3.359308958E0,2.615222335E-1
2.940740906E1,-5.097286701E-1,-2.903376102E0,7.924230099E-1
2.942767724E1,-6.173202991E-1,-5.619665146E0,2.721748650E-1
2.944794537E1,2.384859025E-1,-4.257991791E0,-3.226417303E-1
2.946821354E1,1.155411601E0,-1.406547427E0,-5.222455263E-1
2.948861354E1,1.628255486E0,9.892304540E-1,-5.073317885E-1
2.950874990E1,1.604819655E0,2.193777323E0,-3.922833502E-1
2.952901808E1,1.354083300E0,2.231993675E0,-1.596563905E-1
2.954928625E1,9.162598848E-1,1.810814977E0,3.209106624E-2
2.956955443E1,2.949448824E-1,1.774063468E0,5.392897129E-2
2.958982261E1,-2.796317041E-1,2.056358337E0,6.191844866E-2
2.961009078E1,-4.362254739E-1,1.844903469E0,7.310371846E-2
2.963035896E1,-1.636511236E-1,1.049417853E0,6.245107949E-2
2.965062709E1,2.225069404E-1,2.378201038E-1,-1.997369342E-3
2.967089526E1,5.371592045E-1,-1.482048035E-1,-1.836248189E-1
2.969129526E1,7.821698189E-1,2.649843320E-2,-2.821617126E-1
2.971143162E1,7.944203615E-1,7.628619075E-1,-2.523343265E-1
2.973169979E1,4.876244366E-1,1.626657605E0,-2.448774725E-1
2.975196792E1,1.133174226E-1,1.938646674E0,-2.688459158E-1
2.977223610E1,-6.032055244E-2,1.674461246E0,-2.374206334E-1
2.979250427E1,-2.783001214E-2,1.267131090E0,-1.868206114E-1
2.981277245E1,1.079910994E-1,9.716535807E-1,-1.191763729E-1
2.983304063E1,2.230395675E-1,8.337019682E-1,-2.530001104E-3
2.985330875E1,2.656501234E-1,7.793735266E-1,1.018658355E-1
2.987357693E1,2.896185517E-1,8.134619594E-1,1.338237375E-1
2.989384511E1,3.709780574E-1,9.386304021E-1,1.364869028E-1
2.991411323E1,5.052012801E-1,1.093093634E0,1.050616279E-1
2.993438136E1,6.149234176E-1,1.155811071E0,4.753739014E-2
2.995464959E1,6.191844940E-1,1.099485278E0,2.037316747E-2
2.997491771E1,4.759065211E-1,1.037699938E0,3.954791278E-2
2.999518589E1,2.539322078E-1,1.019057870E0,8.322372288E-2
3.001545406E1,5.419528857E-2,9.663273096E-1,1.359542757E-1
3.003572224E1,-9.121319652E-2,8.869651556E-1,1.880190372E-1
3.005599037E1,-1.631184965E-1,8.933567405E-1,2.263685167E-1
3.007625854E1,-1.423458606E-1,1.071788430E0,2.269011587E-1
3.009652672E1,-6.524739787E-3,1.419996381E0,1.492700726E-1
3.011679490E1,2.390185297E-1,1.785781384E0,4.966791719E-2
3.013706302E1,4.753738940E-1,1.908819318E0,2.796316985E-3
3.015733120E1,4.301002026E-1,1.706419230E0,-6.751108170E-2
3.017759938E1,2.703106403E-2,1.061668396E0,-1.830921918E-1
3.019786750E1,-6.173202991E-1,5.217128396E-1,-2.001364082E-1
3.021813568E1,-1.162069440E0,7.234471440E-1,-2.874880135E-1
3.023840380E1,-1.327052236E0,1.495630145E0,-4.881570637E-1
3.025867198E1,-1.146090508E0,2.068608761E0,-5.829655528E-1
3.027894011E1,-1.093359947E0,1.735181332E0,-5.952160358E-1
3.029920828E1,-1.767006040E0,3.326285779E-1,-5.201149583E-1
3.031947646E1,-2.530533791E0,-1.498026997E-1,-2.794985473E-1
3.033974459E1,-3.022552490E0,-1.731053460E-3,-6.258423906E-3
3.036001276E1,-3.132807255E0,2.729738057E-1,1.274321675E-1
3.038028089E1,-2.882070780E0,3.688475490E-1,1.039963663E-1
3.040054906E1,-2.324538469E0,3.416832983E-1,4.966791719E-2
3.042081719E1,-1.729721785E0,7.708513737E-1,6.990792602E-2
3.044108531E1,-1.348357439E0,1.815076113E0,7.896266878E-2
3.046135349E1,-1.097621083E0,2.842256546E0,1.061268896E-1
3.048162167E1,-9.772462249E-1,3.763576508E0,3.254380524E-1
3.050188979E1,-7.792403698E-1,3.726292133E0,4.191812575E-1
3.052215797E1,-2.366216928E-1,2.173004627E0,1.561942846E-1
3.054242610E1,3.486075401E-1,-1.189100519E-1,-3.157175183E-1
3.056269427E1,1.000016257E-1,-1.083239913E0,-7.667235136E-1
3.058296240E1,-5.832318664E-1,-6.013413072E-1,-8.311719298E-1
3.060323052E1,-9.351683259E-1,-5.712476373E-2,-4.775044322E-1
3.062349870E1,-8.440882564E-1,1.547295451E-1,-1.051947847E-2
3.064376682E1,-1.199753210E-1,1.339569092E-1,2.764359117E-1
3.066403500E1,5.243760347E-1,5.387570858E-1,2.348906398E-1
3.068430313E1,9.791104198E-1,1.138234258E0,1.695100814E-1
3.070457125E1,1.328516960E0,1.694701314E0,2.865559161E-1
3.072483938E1,1.413604856E0,1.997236133E0,5.022718310E-1
3.074510755E1,1.183108449E0,1.610678673E0,6.817687154E-1
3.076537568E1,6.761760712E-1,8.523440957E-1,7.348987460E-1
3.078577568E1,2.496711612E-1,7.815040350E-1,3.483411968E-1
3.080591198E1,1.149153188E-1,1.702690721E0,-1.314269006E-1
3.082618011E1,5.206475854E-1,2.686328650E0,-1.122521535E-1
3.084644823E1,1.198554754E0,2.928542852E0,2.199769467E-1
3.086671636E1,1.620265961E0,1.211737394E0,1.284974217E-1
3.088711636E1,1.514804840E0,-2.802974880E-1,-3.129211813E-2
3.090725266E1,9.535441399E-1,1.270326823E-1,-3.348922431E-1
3.092752078E1,5.637907982E-1,1.104278922E0,-6.410223842E-1
3.094778891E1,5.861613154E-1,1.410941720E0,-6.399571300E-1
3.096805703E1,9.977525473E-1,-6.503434777E-1,-1.458079666E-1
3.098845703E1,6.516750455E-1,-4.089813232E0,8.158587813E-1
3.100859334E1,6.452834606E-1,-2.288319349E0,1.260473251E0
3.102886146E1,5.771065950E-1,6.856303215E-1,6.657897830E-1
3.104912959E1,2.267680019E-1,1.637310266E0,2.444780022E-1
3.106939771E1,-9.973530471E-2,1.648495436E0,4.487423226E-2
3.108979771E1,-3.169159293E-1,1.496695399E0,2.924148738E-1
3.110993396E1,-3.675159514E-1,9.780451655E-1,6.109287143E-1
3.113020208E1,-1.295626909E-1,-3.688475490E-2,3.813643754E-1
3.115047021E1,2.203764170E-1,-1.224920034E0,-6.058686972E-2
3.117073834E1,4.061317742E-1,-1.926795602E0,-2.422143221E-1
3.119113834E1,4.663191736E-1,-1.375122190E0,-2.134522051E-1
3.121127464E1,4.290349185E-1,2.287653685E-1,-2.523343265E-1
3.123154276E1,2.906838059E-1,2.016410828E0,-3.683148921E-1
3.125181084E1,1.628521830E-1,3.065429211E0,-4.040012360E-1
3.127207901E1,8.295740932E-2,3.494597435E0,-4.588623047E-1
3.129234703E1,1.138500497E-1,3.434410095E0,-5.020055175E-1
3.131261521E1,3.241064548E-1,2.306029558E0,-4.034686089E-1
3.133288339E1,4.689823091E-1,1.063266277E0,-1.255679578E-1
3.135315146E1,4.290349185E-1,5.882918239E-1,9.920267761E-2
3.137341958E1,2.390185297E-1,5.073317885E-1,2.226400971E-1
3.139368771E1,-7.057371549E-3,5.291697383E-1,2.759032845E-1
3.141395584E1,-1.892174482E-1,5.094623566E-1,2.402169555E-1
3.143422396E1,-2.115879953E-1,4.556665123E-1,1.763011366E-1
3.145449209E1,-8.641951531E-2,3.230412006E-1,1.460742801E-1
3.147476021E1,7.550056279E-2,2.522011697E-1,1.125184745E-1
3.149502834E1,9.414267540E-2,5.600623488E-1,6.777740270E-2
3.151529636E1,-1.300953180E-1,1.252217412E0,1.311605871E-1
3.153556453E1,-5.512739420E-1,2.151166677E0,2.833601236E-1
3.155583266E1,-9.181240797E-1,2.932271242E0,3.755054474E-1
3.157610078E1,-9.463536143E-1,3.426953077E0,3.557980657E-1
3.159636891E1,-6.780403256E-1,2.776742935E0,1.274321675E-1
3.161663698E1,-6.908234954E-1,8.921582997E-2,-7.763108611E-2
3.163690511E1,-1.049684167E0,-1.951296687E0,-1.617869139E-1
3.165717323E1,-1.488972306E0,-2.960367680E0,-1.782985032E-1
3.167744136E1,-1.914411902E0,-3.301651478E0,1.039963663E-1
3.169770943E1,-2.573677063E0,-3.330946207E0,5.464802384E-1
3.171797755E1,-3.910849094E0,-2.686062336E0,5.933518410E-1
3.173824568E1,-4.984368801E0,-3.095922470E-1,3.020022511E-1
3.175847443E1,-3.874630213E0,2.513223171E0,2.796316985E-3
3.177878183E1,-1.506016493E0,4.133622169E0,-6.314350367E-1
3.179905000E1,6.016076207E-1,4.232159138E0,-1.384975910E0
3.181931808E1,1.129845262E0,3.175151348E0,-1.845569253E0
3.183958620E1,-3.041327596E-1,4.769718051E-1,-1.967541933E0
3.185985432E1,-2.036917210E0,-3.138266802E0,-1.841840863E0
3.188012240E1,-3.283009291E0,-4.415650845E0,-1.479118586E0
3.190039052E1,-3.905522823E0,-4.041876793E0,-1.072853684E0
3.192065860E1,-3.996602774E0,-3.001912832E0,-7.486140132E-1
3.194092672E1,-3.375687361E0,-1.878326058E0,-6.799045205E-1
3.196119479E1,-2.187652111E0,-1.105610490E0,-7.225150466E-1
3.198159479E1,-1.213202119E0,-7.600656152E-1,-5.824328661E-1
3.200173099E1,-6.221139431E-1,-7.536740303E-1,-3.492733240E-1
3.202199912E1,-1.185105834E-2,-4.894886315E-1,-1.261005849E-1
3.204226719E1,8.560724854E-1,4.660528619E-3,3.795001656E-2
3.206253531E1,1.686312318E0,6.685860753E-1,2.215748429E-1
3.208280339E1,1.771533489E0,1.673395991E0,4.974781275E-1
3.210307151E1,1.007339954E0,2.867290258E0,7.609977126E-1
3.212333959E1,1.690573454E0,2.893921852E0,1.043292522E0
3.214360766E1,2.637326479E0,2.526006460E0,1.338770032E0
3.216387578E1,1.455150127E0,6.249102950E-1,3.749727905E-1
3.218414386E1,1.378983736E0,-7.350319028E-1,2.535327375E-1
3.220441193E1,1.297624230E0,-9.121319652E-2,1.015595675E0
3.222468005E1,1.107474685E0,1.251152158E0,1.599227071E0
3.224494808E1,1.006807327E0,2.205894709E0,1.853159308E0
3.226521620E1,1.234773755E0,2.458362103E0,2.067277193E0
3.228561620E1,1.900962949E0,2.486058950E0,1.891508698E0
3.230575240E1,3.180477858E0,2.720417023E0,9.314398766E-1
3.232602047E1,4.062249660E0,3.048385143E0,3.382211924E-1
3.234628854E1,3.689540625E0,3.150650263E0,7.924230099E-1
3.236655662E1,2.294444799E0,2.271940947E0,1.348357439E0
3.238695662E1,9.439567327E-1,-5.286370963E-2,1.493233323E0
3.240709281E1,1.761679798E-1,-2.728672743E0,1.138633728E0
3.242736089E1,-5.872265995E-2,-4.497676373E0,5.166528821E-1
3.244762896E1,-2.263685223E-3,-4.839492798E0,-1.005342528E-1
3.246789709E1,9.322388172E-1,-3.505649567E0,-7.928224802E-1
3.248829708E1,1.841840863E0,-1.318130612E0,-1.003078818E0
3.250843323E1,2.061151981E0,7.969503403E-1,-7.416898012E-1
3.252870130E1,1.578188062E0,2.445046425E0,-1.894837767E-1
3.254896932E1,6.708498001E-1,2.777275562E0,4.298338890E-1
3.256923745E1,1.158474199E-2,2.269810438E0,6.679202914E-1
3.258950552E1,-1.348890066E-1,1.663941860E0,5.155876279E-1
3.260977360E1,-6.511423737E-2,1.325720549E0,2.556632757E-1
3.263004167E1,-1.258342713E-1,9.008135796E-1,1.615206003E-1
3.265030979E1,-4.000065029E-1,-1.343563795E-1,1.615206003E-1
3.267057787E1,-7.344992757E-1,-1.647696495E0,1.858884990E-1
3.269097787E1,-8.094671965E-1,-2.516285896E0,1.471395344E-1
3.271111401E1,-4.346275628E-1,-1.981656671E0,-1.691105962E-2
3.273138208E1,1.980058849E-1,-3.697796464E-1,-1.697763950E-1
3.275165016E1,6.021402478E-1,1.025449395E0,-1.330247968E-1
3.277191823E1,5.542033911E-1,1.784716129E0,1.238369010E-2
3.279218630E1,1.937448233E-1,2.408827305E0,7.576687634E-2
3.281245438E1,-1.322258562E-1,3.314035177E0,-1.850895584E-2
3.283272245E1,-2.366216928E-1,4.065978050E0,-2.010685205E-2
3.285299052E1,-8.243808746E-1,1.454617500E0,4.061317816E-2
3.287325860E1,-2.097637177E0,-5.667069435E0,-1.051947847E-2
3.289352667E1,-2.463422060E0,-7.780552387E0,-2.091911435E-1
3.291379474E1,-2.655169725E0,-8.240612984E0,-5.046686530E-2
3.293406281E1,-3.283541918E0,-7.829554558E0,3.818970025E-1
3.295433084E1,-4.443880558E0,-4.829905510E0,6.114613414E-1
3.297459891E1,-4.612591743E0,-2.035985142E-1,5.699160695E-1
3.299486698E1,-3.409775734E0,3.758250237E0,1.848232448E-1
3.301513511E1,-1.486841679E0,5.790240288E0,-4.737760127E-1
3.303540318E1,6.255760789E-1,5.072385788E0,-1.317331672E0
3.305567125E1,1.496695399E0,3.145323992E0,-1.835981846E0
3.307593932E1,-3.360906839E-1,7.431545258E-1,-2.055825710E0
3.309620740E1,-2.375138521E0,-2.672213793E0,-1.849830270E0
3.311647547E1,-3.500190020E0,-4.031756401E0,-1.560611248E0
3.313674354E1,-3.932154417E0,-3.998733282E0,-1.169792652E0
3.315701162E1,-3.767038584E0,-3.113233089E0,-9.231840968E-1
3.317727969E1,-2.643451691E0,-1.796833396E0,-8.886961937E-1
3.319754776E1,-1.683382869E0,-1.017326832E0,-7.635276914E-1
3.321781589E1,-1.222256899E0,-8.825709224E-1,-6.271739602E-1
3.323808396E1,-8.627303839E-1,-7.302381992E-1,-5.270391703E-1
3.325835203E1,-1.599227041E-1,-3.085269928E-1,-4.290349185E-1
3.327862011E1,7.257108688E-1,1.723063886E-1,-3.514038324E-1
3.329888823E1,1.500423789E0,5.898897648E-1,-2.523343265E-1
3.331915630E1,2.114415169E0,8.454198837E-1,-5.419528857E-2
3.333942438E1,2.066478252E0,1.148886800E0,2.338253707E-1
3.335969250E1,1.258742094E0,2.295909405E0,4.580633640E-1
3.337996058E1,9.562072754E-1,2.987132311E0,5.986781716E-1
3.340022865E1,1.725727081E0,1.063266277E0,4.159854650E-1
3.342049677E1,2.070206642E0,-4.619249403E-1,1.917474568E-1
3.344076485E1,1.872200847E0,4.301001877E-2,3.478085697E-1
3.346103292E1,1.390169024E0,1.359276414E0,6.231792569E-1
3.348130110E1,9.902957082E-1,2.152231932E0,1.465003848E0
3.350156917E1,8.502135277E-1,2.417349577E0,2.434127331E0
3.352183729E1,1.147954702E0,2.552105427E0,2.585394859E0
3.354210537E1,1.961017251E0,2.541985273E0,1.596031308E0
3.356237349E1,3.178347349E0,2.479667425E0,6.056023836E-1
3.358264162E1,3.661843777E0,2.927477598E0,3.281011879E-1
3.360290974E1,2.990860939E0,3.382744789E0,5.326318145E-1
3.362317781E1,2.043042421E0,2.863561869E0,9.458209276E-1
3.364344599E1,1.322657943E0,1.508413315E0,1.286039472E0
3.366371412E1,8.960198760E-1,-1.476721764E-1,1.246225357E0
3.368398219E1,6.921550632E-1,-1.752624989E0,8.456861973E-1
3.370425031E1,4.519380927E-1,-3.081807613E0,4.239749312E-1
3.372451849E1,2.081258893E-1,-3.899663925E0,3.861580743E-3
3.374478662E1,6.665887237E-1,-3.648927450E0,-5.472791791E-1
3.376505474E1,1.216131568E0,-2.008821011E0,-8.237150908E-1
3.378545474E1,1.615472317E0,2.713759243E-1,-7.379614115E-1
3.380559104E1,1.539305925E0,2.323073626E0,-4.785696864E-1
3.382585917E1,8.960198760E-1,3.214033604E0,-9.254477918E-2
3.384612729E1,2.241048366E-1,2.721482277E0,3.659180701E-1
3.386639547E1,2.862896025E-2,2.000964642E0,5.917539597E-1
3.388679547E1,1.000016257E-1,1.777791858E0,6.663224101E-1
3.390693177E1,1.213068962E-1,1.771400332E0,5.890907645E-1
3.392719990E1,-1.198421582E-3,1.284707904E0,4.783033729E-1
3.394746808E1,-2.924148738E-1,1.371526867E-1,4.197138846E-1
3.396773625E1,-6.082655191E-1,-1.336240053E0,3.440801501E-1
3.398813625E1,-6.327666044E-1,-1.943839788E0,2.783001214E-2
3.400827255E1,-3.094590902E-1,-1.207343221E0,-2.784332931E-1
3.402854073E1,2.530001104E-3,-5.446160212E-2,-3.071953952E-1
3.404880891E1,5.952160433E-2,9.769799113E-1,-1.804290265E-1
3.406907708E1,-1.253016293E-1,1.984985590E0,-1.713742912E-1
3.408947708E1,-3.153180480E-1,3.161835670E0,-3.364901543E-1
3.410961344E1,-2.684464455E-1,4.068108559E0,-3.524691164E-1
3.412988167E1,-8.574040532E-1,1.568600684E-1,2.942790836E-2
3.415014984E1,-1.790441871E0,-5.197421074E0,3.771033287E-1
3.417041808E1,-2.071005583E0,-6.716620445E0,2.700443268E-1
3.419068625E1,-2.625874758E0,-7.326883316E0,1.853558719E-1
3.421095443E1,-4.662659168E0,-6.681999207E0,1.114532053E-1
3.423122266E1,-6.272938251E0,-3.025348663E0,1.976063997E-1
3.425149089E1,-4.955606461E0,2.172472000E0,3.728422821E-1
3.427175906E1,-2.418148518E0,5.600623608E0,1.997369379E-1
3.429202729E1,4.034686089E-2,6.281193733E0,-3.805654347E-1
3.431229552E1,2.141579390E0,4.609662056E0,-1.071255803E0
3.433256375E1,1.503619671E0,2.823081732E0,-1.690573454E0
3.435283198E1,-1.350487947E0,-1.486974835E0,-1.774729252E0
3.437310021E1,-3.028411388E0,-4.552537441E0,-1.486575365E0
3.439336844E1,-3.894337654E0,-4.966259003E0,-1.194293737E0
3.441363667E1,-4.228697300E0,-3.819236517E0,-9.418262243E-1
3.443390490E1,-4.017775059E0,-1.988048315E0,-8.514119387E-1
3.445413386E1,-2.831470728E0,-1.094957829E0,-8.764456511E-1
3.447444136E1,-1.459144831E0,-1.103479981E0,-6.639255881E-1
3.449470964E1,-3.675159514E-1,-1.475257039E0,-4.466117918E-1
3.451497792E1,5.222455263E-1,-1.187635779E0,-2.965427637E-1
3.453524620E1,1.542501807E0,-3.948133290E-1,-2.017343044E-1
3.455551448E1,2.319478512E0,7.271755934E-1,5.459476262E-3
3.457578276E1,1.837579727E0,2.550507545E0,2.764359117E-1
3.459605099E1,1.370062232E0,4.299803734E0,4.122570157E-1
3.461631932E1,2.668751717E0,3.425887823E0,4.676507413E-1
3.463658761E1,2.098968744E0,1.265000552E-1,3.664506972E-1
3.465685584E1,1.601623893E0,-6.514087319E-1,2.647180259E-1
3.467712417E1,1.523326993E0,5.972134471E-1,7.004108429E-1
3.469739245E1,1.208674788E0,1.611211300E0,1.285506845E0
3.471766073E1,9.625988603E-1,1.913612962E0,1.840908766E0
3.473792906E1,1.142628431E0,2.072337151E0,2.270210028E0
3.475768865E1,1.745434523E0,2.347042084E0,1.801494002E0
3.477808865E1,2.761429787E0,2.547844410E0,6.775076985E-1
3.479848865E1,3.545197487E0,2.763427019E0,1.805621833E-1
3.481888865E1,3.367431641E0,3.255046129E0,5.107939243E-1
3.483927396E1,2.470612764E0,3.127747297E0,1.131709456E0
3.485954234E1,1.430649042E0,1.526522756E0,1.561410189E0
3.487980943E1,6.415550113E-1,-8.495477438E-1,1.469797492E0
3.490007734E1,1.287637353E-1,-2.881538153E0,9.852356911E-1
3.492034542E1,-1.801627129E-1,-3.920969248E0,3.824296594E-1
3.494061344E1,6.543381810E-1,-3.873564959E0,-3.922833502E-1
3.496088162E1,1.583514452E0,-2.847449780E0,-7.763108611E-1
3.498114979E1,2.014812946E0,-1.439570665E0,-6.170539856E-1
3.500141802E1,1.992442489E0,3.139864504E-1,-5.036033988E-1
3.502168630E1,1.548893332E0,2.018008709E0,-4.119907022E-1
3.504195458E1,9.317061901E-1,3.317763567E0,-1.553953290E-1
3.506222287E1,1.394163817E-1,3.290066719E0,5.038697124E-1
3.508249120E1,-3.121222556E-1,2.295376778E0,8.552735448E-1
3.510275953E1,-3.163833022E-1,1.204813123E0,5.752423406E-1
3.512302787E1,-1.641837656E-1,3.709780574E-1,2.705769539E-1
3.514329630E1,-7.097318769E-2,-5.656549931E-1,1.922800839E-1
3.516356464E1,-1.268995255E-1,-1.566736460E0,1.391500682E-1
3.518383308E1,-2.870885432E-1,-2.253698349E0,8.908267319E-2
3.520410146E1,-3.339601457E-1,-2.287254095E0,-2.530001104E-3
3.522436990E1,-1.013332009E-1,-1.255812645E0,-5.259739235E-2
3.524463834E1,2.315616906E-1,2.948117256E-1,-3.448791057E-2
3.526490677E1,3.273022473E-1,1.401354313E0,3.795001656E-2
3.528530677E1,7.283740491E-2,2.172472000E0,1.380847991E-1
3.530544354E1,-2.577938139E-1,2.976479769E0,5.819002539E-2
3.532571208E1,-4.101265073E-1,3.760380745E0,-6.005423889E-2
3.534598052E1,-5.326318145E-1,3.378483534E0,2.303632535E-2
3.536624896E1,-1.418132186E0,-1.782984972E0,2.583264410E-1
3.538664896E1,-1.757418633E0,-5.777324200E0,1.439437568E-1
3.540678584E1,-1.692437649E0,-7.522758484E0,6.524739787E-3
3.542705432E1,-1.843172431E0,-8.253929138E0,7.044056058E-2
3.544732281E1,-3.195125103E0,-7.566967010E0,2.375537902E-1
3.546759130E1,-5.255877495E0,-4.479566574E0,3.952127993E-1
3.548799130E1,-5.532313347E0,8.241145611E-1,3.605917394E-1
3.550812828E1,-3.516169071E0,5.088365078E0,2.114548385E-1
3.552839677E1,-1.052347302E0,6.536191463E0,-1.797632314E-2
3.554866526E1,1.053146243E0,5.674126625E0,-5.680518150E-1
3.556893375E1,1.326386333E0,3.459976196E0,-1.498825908E0
3.558920229E1,-1.049151540E0,-6.263750196E-1,-2.057423592E0
3.560947084E1,-2.784066439E0,-3.720166922E0,-1.849830270E0
3.562973932E1,-3.661577463E0,-4.456130981E0,-1.546762824E0
3.565000787E1,-3.972101688E0,-3.902859688E0,-1.193761110E0
3.567027641E1,-3.706318617E0,-2.741456032E0,-1.006807327E0
3.569067641E1,-2.684997082E0,-1.690839767E0,-9.652619958E-1
3.571081349E1,-1.722797632E0,-1.304814816E0,-8.018772006E-1
3.573108203E1,-7.158571482E-1,-1.163667321E0,-5.499423742E-1
3.575135058E1,1.767006069E-1,-8.900277615E-1,-4.487423003E-1
3.577161912E1,1.139965296E0,-2.952111959E-1,-3.146522343E-1
3.579188771E1,1.975398302E0,5.403549671E-1,-7.550056279E-2
3.581215625E1,2.018541336E0,1.814010859E0,2.071937770E-1
3.583242485E1,8.725841045E-1,3.146389246E0,6.290381551E-1
3.585269344E1,9.338367581E-1,2.112817287E0,9.287767410E-1
3.587296203E1,1.959951997E0,5.115928650E-1,5.113265514E-1
3.589323063E1,1.902560830E0,2.878875136E-1,2.870885432E-1
3.591349922E1,1.671931267E0,9.301083088E-1,5.161202550E-1
3.593376781E1,1.386973262E0,1.921069860E0,1.069391489E0
3.595403641E1,1.141030550E0,2.229863167E0,1.836115003E0
3.597430505E1,1.219327450E0,2.273006201E0,2.325603724E0
3.599457365E1,1.769402862E0,2.409892559E0,1.833451867E0
3.601484224E1,2.774212837E0,2.276734829E0,5.507413149E-1
3.603511089E1,3.501121998E0,2.247439861E0,-9.321057005E-4
3.605537953E1,3.239067316E0,2.581400156E0,2.316948473E-1
3.607564818E1,2.470080137E0,2.607499123E0,7.854987979E-1
3.609591682E1,1.799230337E0,1.635179639E0,1.342498541E0
3.611618547E1,1.165531635E0,1.973400861E-1,1.559279680E0
3.613645412E1,5.824328661E-1,-1.179646373E0,1.459677458E0
3.615672276E1,1.553953290E-1,-2.426803827E0,1.041694641E0
3.617699141E1,1.744369231E-2,-3.441200972E0,3.312969804E-1
3.619726011E1,7.523424625E-1,-4.173969269E0,-5.659213066E-1
3.621752875E1,1.492967010E0,-3.403384209E0,-9.183903933E-1
3.623779745E1,1.946103573E0,-1.556217074E0,-7.294392586E-1
3.625806610E1,1.955690861E0,3.720433414E-1,-5.440834165E-1
3.627833479E1,1.491369128E0,1.816673994E0,-3.779022694E-1
3.629860349E1,8.821714520E-1,2.883801937E0,-1.788311303E-1
3.631887219E1,2.624543309E-1,3.017492533E0,2.567285299E-1
3.633914089E1,-1.263668984E-1,2.410958052E0,5.491434336E-1
3.635940958E1,-2.423474789E-1,1.633581758E0,4.697812796E-1
3.637967828E1,-2.360890508E-1,8.576703668E-1,3.861580789E-1
3.639994703E1,-1.774995476E-1,-1.114532053E-1,4.170507193E-1
3.642021573E1,-6.617950648E-2,-1.213202119E0,4.154528081E-1
3.644048443E1,4.780370742E-2,-1.958753467E0,2.966759205E-1
3.646075318E1,1.591237634E-1,-1.999766111E0,7.949529588E-2
3.648115318E1,2.805638015E-1,-1.337837934E0,-3.874896467E-2
3.650129063E1,3.395527899E-1,-4.747081101E-1,-7.550056279E-2
3.652155938E1,1.591237634E-1,1.675127149E-1,-6.431528926E-2
3.654182813E1,-2.089248300E-1,9.146620035E-1,1.198421582E-3
3.656209688E1,-4.527370334E-1,2.223471642E0,-1.637842879E-2
3.658236563E1,-4.633896947E-1,3.613906860E0,-6.258423906E-3
3.660263438E1,-5.395560265E-1,3.537740469E0,5.020054802E-2
3.662290313E1,-1.344629049E0,-1.455549598E0,7.470161468E-2
3.664317188E1,-1.560877562E0,-4.627105713E0,-9.893636405E-2
3.666344063E1,-1.518267035E0,-5.946035385E0,-1.479384899E-1
3.668370938E1,-1.617869139E0,-6.573874950E0,9.760478139E-2
3.670410938E1,-2.323473215E0,-6.357227325E0,4.463454783E-1
3.672424693E1,-4.001929283E0,-5.012598038E0,5.123918056E-1
3.674451573E1,-5.441233635E0,-2.154628754E0,4.234423041E-1
3.676478448E1,-4.570513725E0,1.441301703E0,2.599243224E-1
3.678518448E1,-2.274471045E0,4.349338055E0,-1.159805804E-1
3.680532208E1,7.443529367E-2,5.122453213E0,-8.247803450E-1
3.682559084E1,1.645299673E0,4.596346378E0,-1.484444857E0
3.684585964E1,7.299718857E-1,2.744784832E0,-2.080859423E0
3.686612844E1,-1.489504933E0,-1.554619074E0,-2.034520388E0
3.688652844E1,-2.861830711E0,-4.114847183E0,-1.752891302E0
3.690666604E1,-3.597661734E0,-4.532297134E0,-1.355681181E0
3.692693485E1,-3.755853176E0,-3.909783840E0,-1.033438921E0
3.694720365E1,-3.334141970E0,-2.814959288E0,-8.833698630E-1
3.696747245E1,-2.294711113E0,-1.512541175E0,-9.269125462E-1
3.698787245E1,-1.512940645E0,-7.627287507E-1,-9.088030457E-1
3.700801005E1,-9.096019864E-1,-6.689855456E-1,-8.956204057E-1
3.702841005E1,-3.051980436E-1,-5.336970687E-1,-8.024098277E-1
3.704854771E1,4.791023135E-1,-1.418132186E-1,-6.143907905E-1
3.706881651E1,1.236904263E0,2.218411565E-1,-3.725759685E-1
3.708921651E1,1.659148097E0,5.414202213E-1,-1.117195264E-1
3.710935417E1,1.288569570E0,1.253815293E0,1.396826953E-1
3.712962302E1,8.896282911E-1,2.187918425E0,2.551306486E-1
3.714989183E1,1.856221914E0,2.513755798E0,6.269076467E-1
3.717016068E1,2.210289001E0,1.955158234E0,5.922865868E-1
3.719042948E1,1.672996521E0,3.928159550E-2,-1.186437383E-1
3.721069834E1,1.915743470E0,4.940159991E-2,2.269011587E-1
3.723096719E1,1.743303895E0,1.284707904E0,6.540718675E-1
3.725123599E1,1.371660113E0,2.205894709E0,1.403751135E0
3.727150484E1,1.027047276E0,2.665555954E0,2.023068905E0
3.729177370E1,1.085636854E0,2.734798193E0,2.102963686E0
3.731204255E1,1.745434523E0,2.353966236E0,1.613075495E0
3.733231141E1,2.587259054E0,2.193244696E0,1.030509472E0
3.735258026E1,2.967558146E0,2.447709560E0,8.781766891E-1
3.737284906E1,2.690057039E0,2.675675869E0,9.799094200E-1
3.739311787E1,2.021737337E0,2.393913746E0,1.052879930E0
3.741338677E1,1.346093774E0,1.230379462E0,1.095490456E0
3.743365563E1,8.715187907E-1,-2.739059031E-1,1.181244254E0
3.745392448E1,5.659213066E-1,-1.539705396E0,1.144492626E0
3.747419334E1,3.693801761E-1,-2.510426998E0,8.046735525E-1
3.749446219E1,2.985401452E-1,-3.139864683E0,2.514022291E-1
3.751473104E1,7.267761230E-1,-3.226550341E0,-3.354249001E-1
3.753499990E1,1.410941720E0,-2.333060503E0,-6.250434518E-1
3.755526880E1,1.812013507E0,-7.265098095E-1,-5.414202213E-1
3.757553766E1,1.718270302E0,1.151550055E0,-3.561975360E-1
3.759580651E1,1.294961095E0,2.663958073E0,-1.921469271E-1
3.761607537E1,7.661908865E-1,3.360374212E0,1.002679393E-1
3.763634422E1,2.885532975E-1,2.692720175E0,4.990760088E-1
3.765661308E1,3.502054140E-2,1.676059127E0,6.972150803E-1
3.767688198E1,-5.765739456E-2,8.523440957E-1,5.395560265E-1
3.769715084E1,-1.700427085E-1,-1.238369010E-2,2.785664499E-1
3.771741969E1,-4.223770201E-1,-8.878972530E-1,1.034637317E-1
3.773768854E1,-6.519413590E-1,-1.523726463E0,4.394212738E-3
3.775737084E1,-5.155876279E-1,-1.354882240E0,-4.460791498E-2
3.777777084E1,-9.387636185E-2,-2.728406489E-1,-1.213068962E-1
3.779817084E1,2.438122183E-1,9.104009271E-1,-1.372858584E-1
3.781857084E1,3.246390820E-1,1.766606569E0,-5.792371184E-2
3.783897084E1,2.091911435E-1,2.416284323E0,-5.419528857E-2
3.785930558E1,1.229047924E-1,3.268894672E0,-1.394163817E-1
3.787957302E1,1.559279710E-1,3.888611794E0,-1.223721579E-1
3.789984141E1,-2.833601236E-1,2.125067711E0,1.093226820E-1
3.792010990E1,-1.748363972E0,-3.654786348E0,3.041327596E-1
3.794037849E1,-2.255296230E0,-5.719799995E0,1.455416381E-1
3.796064709E1,-2.156759501E0,-5.986515522E0,1.752358675E-1
3.798091584E1,-2.037449837E0,-6.432727814E0,3.526022732E-1
3.800118448E1,-3.243594646E0,-6.608496189E0,2.876211703E-1
3.802145328E1,-5.118458748E0,-4.319244385E0,7.203845680E-2
3.804172208E1,-5.167993546E0,5.938844755E-2,-7.922898233E-2
3.806199084E1,-3.306977749E0,3.936016083E0,-1.143826842E-1
3.808225964E1,-1.282976866E0,5.856287003E0,-1.292963773E-1
3.810252844E1,5.888244510E-1,5.963878632E0,-2.012016773E-1
3.812279724E1,1.952495098E0,4.239615917E0,-5.579318404E-1
3.814306615E1,3.315632939E-1,7.815040350E-1,-1.504152298E0
3.816333495E1,-2.349039555E0,-3.229746103E0,-1.723596573E0
3.818360386E1,-3.925762892E0,-4.634562492E0,-1.532381773E0
3.820387271E1,-4.584362030E0,-4.544015408E0,-1.039830446E0
3.822414156E1,-4.423640251E0,-3.376752615E0,-4.780370593E-1
3.824441047E1,-3.327750444E0,-1.650359750E0,-3.343596160E-1
3.826467932E1,-2.298972130E0,-1.295626909E-1,-2.922817171E-1
3.828507933E1,-1.719601870E0,-1.125184745E-1,-2.890859246E-1
3.830521708E1,-1.450622797E0,-2.536658943E-1,-2.288985252E-1
3.832548589E1,-1.140764236E0,-8.748477697E-2,-3.448791057E-2
3.834575479E1,-7.179877162E-1,1.850895584E-2,8.109319210E-2
3.836602365E1,-2.860232890E-1,9.187898785E-2,1.237037405E-1
3.838642365E1,1.117195264E-1,2.623211741E-1,5.446160212E-2
3.840656141E1,4.567317963E-1,3.113232851E-1,-3.981423005E-2
3.842683026E1,6.964160800E-1,4.359591305E-1,-8.721846342E-2
3.844709917E1,8.853672147E-1,8.550072312E-1,-1.878858805E-1
3.846736797E1,1.102681041E0,8.368977308E-1,-3.285006881E-1
3.848776797E1,1.398691177E0,1.302284747E-1,-4.231759906E-1
3.850790578E1,1.299754858E0,6.467481852E-1,-2.944122255E-1
3.852817464E1,5.526055098E-1,2.635195971E0,-3.162501454E-1
3.854844349E1,7.699192762E-1,-1.072054744E0,9.000146389E-1
3.856871240E1,1.029177785E0,-3.232409477E0,8.552735448E-1
3.858898125E1,1.218262076E0,-1.945437789E-1,5.384907722E-1
3.860925011E1,1.226784229E0,2.410958052E0,6.301034689E-1
3.862951901E1,1.263003230E0,3.691138506E0,1.170058966E0
3.864978787E1,1.368996978E0,3.614439487E0,1.341433287E0
3.867005672E1,2.031324625E0,2.859300852E0,7.052045465E-1
3.869045672E1,2.825878143E0,2.522810698E0,-2.330264263E-2
3.871059604E1,2.868488789E0,2.546246529E0,-7.070687413E-2
3.873086328E1,2.150634050E0,2.458894730E0,1.752358675E-1
3.875113214E1,1.307744265E0,2.193244696E0,5.427518487E-1
3.877140099E1,9.375651479E-1,1.766073942E0,1.046488404E0
3.879166984E1,9.237167239E-1,1.453019619E0,1.505483866E0
3.881193870E1,9.982851744E-1,1.316133261E0,1.670067072E0
3.883220755E1,1.309342146E0,1.124518991E0,1.509744883E0
3.885247641E1,1.739575505E0,1.120257854E0,1.162069440E0
3.887274531E1,1.954092979E0,1.519598603E0,8.621977568E-1
3.889301417E1,1.901495576E0,2.105893135E0,6.609960794E-1
3.891328302E1,1.777392387E0,2.172472000E0,4.980107546E-1
3.893355188E1,1.640506029E0,1.276185870E0,4.761728346E-1
3.895395188E1,1.331180096E0,1.464737463E-3,5.486107469E-1
3.897408953E1,9.535441399E-1,-1.055010438E0,4.522044063E-1
3.899435839E1,6.559360623E-1,-1.586443901E0,3.954791278E-2
3.901462724E1,4.588623047E-1,-1.151416779E0,-3.482080400E-1
3.903489610E1,3.885549009E-1,-1.231711060E-1,-4.402202070E-1
3.905516495E1,3.454117477E-1,7.601987720E-1,-2.533995807E-1
3.907543380E1,1.889511347E-1,1.328916430E0,-1.607216448E-1
3.909570266E1,-5.765739456E-2,1.754888654E0,-1.149153188E-1
3.911597146E1,-1.050616279E-1,2.110154152E0,-5.632581562E-2
3.913624031E1,1.149153188E-1,1.943972945E0,-4.514054582E-2
3.915650917E1,5.430181623E-1,1.208541632E0,-1.543300748E-1
3.917677802E1,7.113298178E-1,5.627255440E-1,-1.830921918E-1
3.919704688E1,4.918854833E-1,3.587275445E-1,-3.715106845E-2
3.921731568E1,1.719069183E-1,4.253064990E-1,4.753739014E-2
3.923758453E1,5.845634267E-2,5.579318404E-1,3.688475490E-2
3.925785339E1,2.027995586E-1,5.872265697E-1,3.848264739E-2
3.927812219E1,4.460791349E-1,4.956139028E-1,2.569948509E-2
3.929839104E1,6.026729345E-1,4.604602158E-1,-5.725792143E-3
3.931865984E1,6.064013243E-1,6.664555669E-1,-5.099949613E-2
3.933892870E1,5.781718493E-1,8.981503844E-1,-1.058605760E-1
3.935919750E1,5.281044245E-1,9.679251909E-1,-1.255679578E-1
3.937946636E1,3.624559641E-1,8.827040792E-1,-8.189214021E-2
3.939973516E1,1.106542572E-1,9.237167239E-1,4.860265180E-2
3.942000401E1,-4.700475931E-2,1.048885226E0,1.599227041E-1
3.944027281E1,-1.290300637E-1,1.159006834E0,2.210422009E-1
3.946054162E1,-2.828274965E-1,1.179246902E0,2.055958807E-1
3.948081047E1,-5.395560265E-1,1.186703682E0,8.588688076E-2
3.950107927E1,-6.838992834E-1,1.482314348E0,-2.017343044E-1
3.952134808E1,-4.522044063E-1,2.138916254E0,-4.269044101E-1
3.954161688E1,-7.097318769E-2,2.965827227E0,-4.013380706E-1
3.956188568E1,1.346226931E-1,2.801776648E0,-3.551322520E-1
3.958215453E1,-9.547425061E-2,3.592601717E-1,-2.400837988E-1
3.960242334E1,-1.604553342E0,-2.414020538E0,2.998717129E-1
3.962269214E1,-2.636527538E0,-2.136519432E0,5.581981540E-1
3.964296094E1,-2.979409218E0,-6.977477074E-1,6.290381551E-1
3.966322974E1,-2.795784473E0,1.249554276E0,6.823013425E-1
3.968349854E1,-2.560361147E0,2.863029242E0,4.660528302E-1
3.970376734E1,-2.384725809E0,3.797664881E0,7.629951090E-2
3.972403615E1,-2.123203516E0,4.137351036E0,-3.741738498E-1
3.974430495E1,-1.822399735E0,3.902460098E0,-7.874961495E-1
3.976457375E1,-1.537974358E0,3.191130400E0,-9.402283430E-1
3.978497375E1,-1.171656847E0,1.885916114E0,-8.620646000E-1
3.980511136E1,-8.739156723E-1,7.090660930E-1,-5.930855274E-1
3.982538016E1,-7.142592669E-1,8.921582997E-2,-3.098585606E-1
3.984564896E1,-6.354297400E-1,-5.017392039E-1,-2.033322006E-1
3.986591771E1,-7.648593187E-1,-1.563008070E0,-2.842922211E-1
3.988631771E1,-8.595346212E-1,-2.450239420E0,-3.199785650E-1
3.990645531E1,-8.888293505E-1,-2.744119167E0,-3.151848912E-1
3.992672412E1,-7.749792933E-1,-2.345843792E0,-3.221091032E-1
3.994699287E1,-4.804339111E-1,-1.006674170E0,-3.795001805E-1
3.996726167E1,-1.210405827E-1,7.729819417E-1,-5.371592045E-1
3.998766167E1,2.187785208E-1,1.960484624E0,-6.032055616E-1
4.000779922E1,4.444812536E-1,2.291648388E0,-3.173153996E-1
4.002806802E1,5.281044245E-1,1.983920336E0,3.635212034E-2
4.004833677E1,5.137233734E-1,1.443964839E0,3.067959249E-1
4.006860558E1,4.807002246E-1,1.082973599E0,5.305013061E-1
4.008900558E1,5.030707717E-1,8.960198760E-1,6.886929274E-1
4.010914313E1,5.819002390E-1,7.101313472E-1,8.227829933E-1
4.012941188E1,6.628602743E-1,4.753738940E-1,1.022519946E0
4.014968068E1,6.479465961E-1,1.808284968E-1,9.655283093E-1
4.016994943E1,5.680518150E-1,-1.231711060E-1,3.589938581E-1
4.019034943E1,6.538055539E-1,-2.605901062E-1,-4.306328297E-1
4.021048698E1,7.028076649E-1,9.720530361E-2,-7.518098354E-1
4.023075573E1,5.472791791E-1,9.040093422E-1,-6.878939867E-1
4.025102453E1,4.966791868E-1,1.657550216E0,-5.787044764E-1
4.027129328E1,9.535441399E-1,2.109088898E0,-2.672480047E-1
4.029156203E1,1.336506367E0,2.001497269E0,1.215732098E-1
4.031183078E1,1.370594859E0,1.697364450E0,3.504717350E-1
4.033209958E1,1.049417853E0,1.360874295E0,3.025348783E-1
4.035236834E1,-2.410159074E-2,-1.985917687E0,2.050632536E-1
4.037263708E1,-5.693834424E-1,-3.988080740E0,-1.957421936E-2
4.039290584E1,-3.302317262E-1,-3.183407307E0,6.657897611E-4
4.041317458E1,-6.724476814E-2,-3.964112401E-1,4.085285962E-1
4.043344334E1,1.117195264E-1,2.408827305E0,5.752423406E-1
4.045371208E1,3.933486044E-1,3.936016083E0,3.398191035E-1
4.047398089E1,6.186518669E-1,3.407245874E0,1.529984921E-1
4.049424959E1,6.777740121E-1,1.628255486E0,1.858884990E-1
4.051451834E1,4.998749495E-1,1.824263930E-1,2.876211703E-1
4.053478709E1,2.304964215E-1,-5.342296958E-1,2.561959028E-1
4.055505584E1,6.111950055E-2,-7.941540480E-1,1.476721764E-1
4.057532459E1,4.247738793E-2,-5.358276367E-1,8.482161909E-2
4.059559334E1,1.181111038E-1,1.547295451E-1,-1.318263728E-2
4.061586208E1,1.969406158E-1,7.101313472E-1,-9.627319872E-2
4.063613084E1,4.183822870E-1,7.607313991E-1,-1.026647836E-1
4.065639953E1,4.956139028E-1,8.507461548E-1,9.187898599E-3
4.067666828E1,9.201214463E-2,1.447693229E0,-3.342264518E-2
4.069693703E1,-3.440801501E-1,2.258092642E0,-1.431448013E-1
4.071720578E1,-5.044023395E-1,2.661294937E0,-7.070687413E-2
4.073747448E1,-4.154528081E-1,2.458362103E0,9.653951973E-2
4.075786198E1,-1.961416751E-1,1.742105484E0,2.737727463E-1
4.077801198E1,-4.274370521E-2,1.027047276E0,4.431496859E-1
4.079828068E1,5.632581562E-2,6.318345070E-1,5.534044504E-1
4.081854938E1,2.390185297E-1,5.637907982E-1,5.992107987E-1
4.083881813E1,5.094623566E-1,8.230493069E-1,5.811012983E-1
4.085908688E1,6.815024018E-1,1.338503718E0,4.655202031E-1
4.087935558E1,5.265065432E-1,1.814010859E0,2.348906398E-1
4.089962433E1,8.562056720E-2,1.987648845E0,6.458161026E-2
4.091989302E1,-4.261054695E-1,1.920004606E0,-5.725792143E-3
4.094016172E1,-7.723161578E-1,1.748497128E0,-2.649843320E-2
4.096043047E1,-9.309072495E-1,1.482846975E0,-3.182475269E-2
4.098083047E1,-8.904272318E-1,1.176051021E0,-1.511342824E-1
4.100096787E1,-7.163897753E-1,9.535441399E-1,-3.162501454E-1
4.102123662E1,-5.283707380E-1,7.921566963E-1,-3.476754129E-1
4.104150531E1,-4.426170290E-1,6.819018722E-1,-3.125217259E-1
4.106177401E1,-5.624592304E-1,5.313002467E-1,-2.768353820E-1
4.108204271E1,-1.012399912E0,5.179844499E-1,-2.065279931E-1
4.110231141E1,-1.477787018E0,1.017459989E0,-1.745700836E-1
4.112258011E1,-1.588041782E0,1.895503521E0,-7.283740491E-2
4.114284880E1,-1.403218508E0,2.777808189E0,-2.530001104E-3
4.116311750E1,-1.097088337E0,3.277416706E0,-1.158474199E-2
4.118338625E1,-7.632613778E-1,3.183673620E0,-1.351553202E-1
4.120365495E1,-5.709813237E-1,2.190048933E0,-3.258375227E-1
4.122392365E1,-8.099998236E-1,7.362303138E-1,-3.034669757E-1
4.124419234E1,-1.214800000E0,-3.356912136E-1,-1.165132076E-1
4.126446099E1,-1.440502763E0,-6.471476555E-1,4.593949392E-2
4.128486099E1,-1.413338542E0,-1.221058443E-1,9.334372729E-2
