"Time (s)","Acceleration x (m/s^2)","Acceleration y (m/s^2)","Acceleration z (m/s^2)"
2.202719500E-2,-2.142772675E0,1.933998942E0,9.411569595E0
4.223625800E-2,-1.565504193E0,1.395613790E0,1.096271706E1
6.250615400E-2,-1.692323804E0,1.558325768E0,1.022752190E1
8.289719500E-2,-2.195414782E0,1.654038668E0,8.762516975E0
1.030503720E-1,-2.343769789E0,1.625324726E0,8.652446747E0
1.233218310E-1,-1.687538147E0,1.457827210E0,9.890133858E0
1.435929770E-1,-1.599003673E0,1.534397483E0,9.466604233E0
1.638638620E-1,-1.431506157E0,1.529611826E0,8.939585686E0
1.841345910E-1,-1.419542074E0,1.625324726E0,8.920442581E0
2.044052160E-1,-1.259222865E0,1.429113269E0,8.750552177E0
2.246757890E-1,-1.039083242E0,1.225723386E0,8.403593063E0
2.449461540E-1,-9.361918569E-1,1.192223907E0,8.714659691E0
2.652164660E-1,-5.790630579E-1,1.009771109E0,9.803992271E0
2.854867790E-1,-3.589234129E-2,6.053841114E-1,1.001695347E1
3.057570390E-1,1.435693651E-1,4.378865361E-1,9.890133858E0
3.260271950E-1,-1.124626622E-1,5.288137794E-1,9.346963882E0
3.462974040E-1,-5.288137794E-1,8.518448472E-1,9.221938133E0
3.665675600E-1,-3.684946895E-1,1.063011408E0,9.543174744E0
3.868376640E-1,3.882354796E-1,8.685946465E-1,1.019402313E1
4.071077160E-1,1.017547846E0,5.910272002E-1,1.047697353E1
4.273777680E-1,1.688136339E0,7.417750359E-2,1.040040398E1
4.476478720E-1,1.783849239E0,8.614161611E-2,1.022273636E1
4.679179240E-1,1.534995675E0,3.972085714E-1,9.777671814E0
4.881879770E-1,1.934597135E0,6.484549642E-1,9.674779892E0
5.084580810E-1,2.288734913E0,7.345965505E-1,9.638887405E0
5.287280810E-1,2.959323406E0,8.542376757E-1,9.531210899E0
5.491280810E-1,3.701696634E0,6.699903607E-1,1.005523872E1
5.692681850E-1,3.716053486E0,3.349951804E-1,1.087178993E1
5.895381850E-1,2.590828657E0,1.818545163E-1,1.065643597E1
6.098082890E-1,2.456830740E0,-3.888336942E-2,1.044347477E1
6.300783410E-1,2.777468920E0,1.148554832E-1,1.031127071E1
6.504783410E-1,4.106083870E0,2.520838737E0,1.117089272E1
6.706183930E-1,5.030311584E0,3.576671600E0,1.094836044E1
6.908883930E-1,4.398007870E0,1.517647743E0,8.537590981E0
7.111584450E-1,3.491128206E0,4.115654826E-1,7.735397339E0
7.314284450E-1,1.805384636E0,3.565305769E-1,8.539983749E0
7.518284450E-1,3.400201082E0,-1.831705689E0,1.056311512E1
7.719684970E-1,4.448855400E0,-3.457628727E0,1.034716320E1
7.922384450E-1,-6.699903607E-1,5.228915691E0,8.353343964E0
8.125085490E-1,1.661815286E0,3.260818958E0,9.229117393E0
8.327785490E-1,1.355534077E0,2.029711723E0,1.042193890E1
8.531785490E-1,5.988038778E-1,1.572682738E0,9.679565430E0
8.733186020E-1,4.959124923E-1,8.685946465E-1,9.552745819E0
8.935886020E-1,5.270192027E-1,1.383649707E0,9.150154114E0
9.138586540E-1,1.566102386E0,9.212366939E-1,1.110150051E1
9.341286540E-1,8.189435601E-1,1.299900889E0,1.075932693E1
9.543986540E-1,1.339980662E-1,3.517449200E-1,1.163330555E1
9.746686540E-1,1.435693651E-1,-1.036690354E0,1.119242764E1
9.949387060E-1,-3.589234129E-2,-5.078766346E-1,9.131011009E0
1.015208706E0,1.770688742E-1,2.344966233E-1,9.276973724E0
1.035478706E0,6.490531564E-1,9.810572863E-2,9.354142189E0
1.055748706E0,2.662015259E-1,-3.403790295E-1,9.040083885E0
1.076018706E0,1.165902853E0,5.742774159E-2,8.697910309E0
1.096288758E0,1.999203324E0,2.346162558E0,9.025727272E0
1.116558758E0,2.533401012E0,3.669991732E0,7.081558704E0
1.136828758E0,1.570888042E0,3.256033421E0,6.983452797E0
1.157098758E0,7.639086246E-1,2.240878344E0,8.748159409E0
1.177368758E0,4.025924206E-1,3.996013701E-1,1.045543861E1
1.197638758E0,2.377867460E0,-1.211964726E0,9.308079720E0
1.217908758E0,4.051048756E0,-1.094716311E0,7.400402069E0
1.238178758E0,4.273581028E0,5.670989752E-1,7.567899704E0
1.258448758E0,3.507878065E0,9.954141974E-1,7.790432453E0
1.278718758E0,2.794218540E0,1.857428551E0,8.822337151E0
1.298988758E0,2.231307030E0,2.173879385E0,9.406784058E0
1.319258758E0,2.310270309E0,2.324627161E0,9.629316330E0
1.339528758E0,1.941775560E0,2.671586514E0,9.952347755E0
1.359798758E0,2.353939295E0,2.602194548E0,9.147761345E0
1.380068758E0,1.903490424E0,3.320639610E0,6.519245148E0
1.400338758E0,2.399402857E0,5.163711071E0,5.693123341E0
1.420608758E0,1.755135417E0,2.992224693E0,3.990629911E0
1.440878758E0,2.365903378E0,6.029912829E-1,3.653241873E0
1.461148758E0,9.007183075E0,-1.570888042E0,6.768098831E0
1.481418758E0,6.948158741E0,-3.068794906E-1,6.174080849E0
1.501688654E0,5.612365723E0,-7.184450030E-1,4.491328239E0
1.521958706E0,4.456034184E0,-1.848455518E-1,2.920439959E0
1.542228706E0,4.185046673E0,2.201396823E-1,2.315055847E0
1.562498706E0,4.525425911E0,-2.183450609E-1,3.514458179E0
1.582768706E0,6.258427620E0,-1.156929731E0,5.360520840E0
1.603038654E0,9.131608963E0,-2.148156643E0,5.851049423E0
1.623308654E0,9.804591179E0,-2.356332064E0,5.690730572E0
1.643578654E0,8.954540253E0,-2.935395241E0,6.471388817E0
1.663848602E0,1.090349483E1,-3.371487141E0,7.886145115E0
1.684118602E0,1.371386433E1,-3.206382275E0,8.918049812E0
1.704388602E0,1.475294781E1,-2.868396044E0,9.276973724E0
1.724658602E0,1.414517117E1,-2.763111830E0,8.199604988E0
1.744928602E0,1.295534039E1,-2.602792740E0,6.164509296E0
1.765198549E0,1.217707443E1,-2.641077995E0,5.130211830E0
1.785468549E0,1.169551849E1,-2.117049932E0,5.120640278E0
1.805738549E0,1.241396427E1,-1.652244091E0,5.580660820E0
1.826008497E0,1.256231880E1,-1.264606714E0,5.238486767E0
1.846278497E0,1.191864967E1,-1.039083242E0,4.448257446E0
1.866548497E0,1.110449123E1,-9.649057388E-1,3.581457376E0
1.886818445E0,1.026879883E1,-5.724828243E-1,3.042474031E0
1.907088445E0,1.021615601E1,-4.073780477E-1,2.573480844E0
1.927358445E0,9.792626381E0,-3.044866920E-1,2.173879385E0
1.947628445E0,9.076574326E0,-3.547359705E-1,2.228914261E0
1.967898393E0,8.379665375E0,-3.284149170E-1,2.654836655E0
1.988168393E0,8.382058144E0,-5.437689424E-1,3.042474031E0
2.008438393E0,9.222537041E0,-1.042074203E0,2.932404041E0
2.028708341E0,1.045304585E1,-1.295713425E0,2.846262455E0
2.049097143E0,1.164766216E1,-1.499103427E0,2.379662037E0
2.069248341E0,1.194257736E1,-1.307677627E0,1.558325768E0
2.089518341E0,1.154237843E1,-1.333998680E0,1.106082320E0
2.109788341E0,1.105663490E1,-1.331605792E0,1.285543919E0
2.130058289E0,9.981659889E0,-1.290927768E0,1.646860242E0
2.150458289E0,8.980861664E0,-1.532602906E0,2.429911375E0
2.170598289E0,1.032622623E1,-8.189435601E-1,1.376471281E0
2.190868289E0,9.998409271E0,-6.634100676E-1,-1.992024899E0
2.211142247E0,8.851649284E0,-4.528416991E-1,-4.992026329E0
2.231451570E0,8.118846893E0,-5.676971674E-1,-7.010372162E0
2.251837664E0,9.095717430E0,-4.624129832E-1,-6.852446079E0
2.271949122E0,1.069292641E1,-6.179464459E-1,-5.039882660E0
2.292219018E0,1.160219860E1,-9.864411354E-1,-3.452843189E0
2.312488862E0,1.101834965E1,-1.345962763E0,-1.747956991E0
2.332758862E0,9.905089378E0,-1.109073281E0,-1.202393398E-1
2.353158706E0,9.232108116E0,-1.022333503E0,7.704889178E-1
2.373298654E0,9.488140106E0,-1.075573802E0,5.814558864E-1
2.393568654E0,9.428318977E0,-1.061216831E0,-6.999006122E-2
2.413838602E0,9.490532875E0,-5.844469070E-1,-5.653043389E-1
2.434108602E0,9.826126099E0,-5.700899959E-1,-1.412961721E0
2.454508549E0,9.761520386E0,-8.763712645E-1,-1.460818172E0
2.474648549E0,9.571888924E0,-9.936196208E-1,-1.149751306E0
2.494918549E0,9.323035240E0,-1.173679471E0,-1.616351724E0
2.515188549E0,8.995218277E0,-1.049252748E0,-2.073380709E0
2.535458549E0,9.893125534E0,-1.247856975E0,-2.231905222E0
2.555728497E0,1.040518951E1,-1.582852125E0,-2.112264156E0
2.575998549E0,1.031186962E1,-1.788634896E0,-2.172084808E0
2.596268602E0,1.026640511E1,-1.616351724E0,-2.363510609E0
2.616538602E0,1.086999512E1,-1.322034478E0,-2.248655081E0
2.636808654E0,1.107817078E1,-1.202393413E0,-1.585245013E0
2.657078654E0,1.059182930E1,-8.452646136E-1,-5.581258535E-1
2.677348706E0,1.092024422E1,-5.964110494E-1,-7.902296782E-1
2.697618758E0,1.083410263E1,-3.738785386E-1,-9.050851464E-1
2.717888810E0,9.110074043E0,9.810572863E-2,-2.234298229E0
2.738158810E0,6.354140759E0,1.204187989E0,-2.765504837E0
2.758428862E0,5.978467464E0,2.082952023E0,-5.353940487E0
2.778698914E0,7.079763889E0,2.463410854E0,-4.841278553E0
2.798968966E0,7.376473904E0,2.788834810E0,-1.702493310E0
2.819239018E0,6.955337048E0,2.805584431E0,-0.000000000E0
2.839509070E0,6.917052269E0,2.757728100E0,9.571290575E-3
2.859779122E0,8.279166222E0,2.171486616E0,-1.853241086E0
2.880049174E0,1.001276588E1,1.943570137E0,-3.972085476E0
2.900319227E0,7.554141045E0,1.165902853E0,-2.365903378E0
2.920589279E0,4.079762459E0,1.800000787E0,-1.810170293E0
2.940859331E0,2.368296146E0,-1.256231871E-2,-2.988037348E0
2.961129383E0,-1.115653515E0,-4.001995921E-1,-2.705684185E0
2.981399435E0,-2.035095692E0,-1.728814363E0,7.658827305E0
3.001669539E0,8.657830238E0,-7.707281590E0,9.078369141E0
3.021939591E0,2.075295067E1,-2.897109985E0,-2.810968399E0
3.042209643E0,1.792523193E1,6.131010056E0,-1.407099342E1
3.062479695E0,8.626724243E0,1.558325768E0,-4.365106583E0
3.082749799E0,7.453044415E0,-5.330012321E0,8.173283577E0
3.103019852E0,7.524828911E0,-1.069531918E1,1.073061275E1
3.123289904E0,7.731209755E0,-1.417627811E1,3.445066452E0
3.143560008E0,8.279166222E0,-1.766920090E1,-9.713663101E0
3.163830060E0,7.029514790E0,-1.651286888E1,-1.101834965E1
3.184100112E0,6.883552551E0,-1.211246777E1,-4.700101852E0
3.204370216E0,7.721638680E0,-7.898707390E0,2.169093609E0
3.224640268E0,6.577271461E0,-4.836492538E0,-1.333998680E0
3.245040268E0,6.165107727E0,-4.929812908E0,-2.112264156E0
3.265180424E0,4.640281200E0,-7.601997375E0,-2.003988981E0
3.285450529E0,3.043072224E0,-8.291130066E0,-2.013560295E0
3.305720633E0,2.820539713E0,-8.825327873E0,-1.176072359E0
3.325990685E0,4.649852753E0,-8.519046783E0,-1.460818172E0
3.346260789E0,6.646663189E0,-8.039883614E0,-2.420938253E0
3.366530841E0,6.203392506E0,-9.210572243E0,-1.010369420E0
3.386800945E0,6.193821430E0,-9.028717995E0,-4.408775866E-1
3.407071049E0,4.074976921E0,-7.807780266E0,-8.787640929E-1
3.427341102E0,2.181057930E0,-8.015955925E0,-7.710871100E-1
3.447611206E0,2.351546526E0,-7.053442955E0,-3.762713671E-1
3.467881310E0,1.501496196E0,-8.511868477E0,-9.098708034E-1
3.488151414E0,4.624129832E-1,-1.095135117E1,-1.355534077E0
3.508421518E0,2.392822653E-1,-9.940981865E0,-2.796611547E0
3.528699539E0,-1.082154036E0,-9.301499367E0,-4.649852753E0
3.549038862E0,-5.374877930E0,-1.196650600E1,-5.423332691E0
3.569230633E0,-1.742573142E0,-1.223928738E1,-1.817348838E0
3.589500997E0,3.379862010E-1,-1.029272652E1,-1.161715388E0
3.609771258E0,-4.881358147E-1,-1.098963642E1,-2.937788010E0
3.630041362E0,3.284149170E-1,-1.166979599E1,-4.556532383E0
3.650441518E0,2.662015259E-1,-1.211725426E1,-4.712066174E0
3.670581779E0,3.188436031E-1,-1.275673580E1,-4.010370731E0
3.690851987E0,1.316052526E-1,-1.352064419E1,-3.064607620E0
3.711122195E0,-7.034898400E-1,-1.249113274E1,-4.613960266E0
3.731392247E0,7.417750359E-2,-8.894720078E0,-6.412166595E0
3.751792299E0,8.715856671E-1,-8.059026718E0,-4.774279594E0
3.771932560E0,6.705885530E-1,-7.314858913E0,-4.769493580E0
3.792202716E0,4.767699242E-1,-7.802994728E0,-4.704887390E0
3.812472820E0,5.198407173E-1,-7.168298244E0,-5.887540340E0
3.832742924E0,-5.862415433E-1,-7.479963779E0,-5.358726501E0
3.853142977E0,-9.720842242E-1,-8.224131584E0,-6.172286034E0
3.873283185E0,-1.003190875E0,-8.389834404E0,-5.916254044E0
3.893553341E0,-4.570291340E-1,-7.017550468E0,-5.705685616E0
3.913823445E0,4.265206456E-1,-5.808577061E0,-5.818148136E0
3.934093549E0,7.064808607E-1,-5.282155991E0,-5.791827202E0
3.954363654E0,5.988038778E-1,-4.893920422E0,-5.911468506E0
3.974633758E0,4.169493318E-1,-4.970490932E0,-6.244070530E0
3.994903914E0,5.844469070E-1,-5.406582832E0,-6.608377934E0
4.015174018E0,6.323033571E-1,-5.686542988E0,-7.278368473E0
4.035444122E0,6.634100676E-1,-5.554937840E0,-8.061419487E0
4.055714227E0,1.237687469E0,-5.626722336E0,-8.667402267E0
4.075984331E0,2.075773716E0,-6.184250355E0,-8.956933022E0
4.096254435E0,2.789433002E0,-7.199405193E0,-9.291928291E0
4.116524539E0,3.440878868E0,-6.586842537E0,-6.076572895E0
4.136794643E0,8.715856671E-1,-3.802195072E0,-1.594816327E0
4.157064747E0,-3.610171080E0,-1.083888817E1,-1.072403336E1
4.177334852E0,3.188436031E-1,-2.060220337E1,-3.882354796E-1
4.197604956E0,-1.670788407E0,-1.294816113E1,-5.118845940E0
4.217875060E0,-4.139583111E-1,-4.668995380E0,-4.829314232E0
4.238145164E0,-3.661018610E-1,-3.730410576E0,-2.416152716E0
4.258415268E0,2.201396823E-1,-6.728019238E0,-1.786242127E0
4.278685424E0,2.995215654E0,-1.258684540E1,-1.479960799E0
4.298955477E0,4.137190342E0,-1.468176174E1,-1.970489502E0
4.319225581E0,1.398604870E0,-1.204068375E1,-3.194418192E0
4.339495737E0,-1.483550072E-1,-9.457631111E0,-4.298107624E0
4.359765841E0,-7.465606928E-1,-7.690532207E0,-3.567698479E0
4.380035893E0,-3.445664644E-1,-6.632306099E0,-1.972882271E0
4.400305997E0,-1.531406492E-1,-7.144370079E0,-5.222335458E-1
4.420576102E0,-6.388836503E-1,-8.245666504E0,-5.413761139E-1
4.440846206E0,3.643072546E-1,-1.096092224E1,-1.075573802E0
4.461116310E0,1.297508121E0,-1.429831123E1,-1.444068432E0
4.481386414E0,3.092723191E-1,-1.381496143E1,-1.616351724E0
4.501656518E0,2.392822653E-1,-1.069053364E1,-2.751147747E0
4.521926622E0,1.091725349E0,-9.795019150E0,-3.414557934E0
4.542196779E0,1.996810555E0,-1.013958549E1,-1.408176184E0
4.562466779E0,3.043072224E0,-1.074078274E1,-1.283749342E0
4.582736935E0,2.748754978E0,-1.050150013E1,-3.428914785E0
4.603007039E0,7.423732281E-1,-9.315856934E0,-5.368297577E0
4.623277143E0,-1.132403374E0,-8.995218277E0,-4.257429600E0
4.643547247E0,-2.188236237E0,-9.749555588E0,-7.734799385E-1
4.663817352E0,-1.172483116E-1,-1.138923740E1,1.278365493E0
4.684087456E0,1.877169371E0,-1.296969700E1,1.029511929E0
4.704357560E0,5.054838061E-1,-1.341236877E1,1.213759303E0
4.724627664E0,-1.807179332E0,-1.449452305E1,-8.548358679E-1
4.744897768E0,-2.066202402E0,-1.517468262E1,-3.361915827E0
4.765167872E0,-2.233700037E0,-1.424806213E1,-4.049852192E-1
4.785437977E0,-9.625129104E-1,-1.245464230E1,1.890928149E0
4.805708081E0,2.877369225E-1,-1.013240719E1,9.547362328E-1
4.825978185E0,-4.307080805E-1,-8.830113411E0,2.105683982E-1
4.846248289E0,-8.907282352E-1,-8.363512993E0,-1.109073281E0
4.866518393E0,-1.048654556E0,-7.793423176E0,-3.278167009E0
4.886788497E0,-1.132403374E0,-5.499902725E0,-4.082155228E0
4.907058602E0,-9.385846853E-1,-5.380261898E0,-2.729612350E0
4.927328706E0,-3.661018610E-1,-6.215356827E0,-9.385846853E-1
4.947598810E0,-3.613162339E-1,-5.997610092E0,-1.281356573E0
4.967868914E0,-5.575276613E-1,-5.514259815E0,-2.255833626E0
4.988139018E0,-5.742774606E-1,-5.394618511E0,-4.051048756E0
5.008409122E0,-4.929214716E-1,-6.448058605E0,-4.903491974E0
5.028679174E0,-2.727817893E-1,-7.637889862E0,-5.152345181E0
5.049079174E0,1.722832322E-1,-8.090133667E0,-6.069394588E0
5.069219383E0,1.060618639E0,-7.846065521E0,-7.254439831E0
5.089489487E0,2.397010088E0,-7.594819069E0,-8.717651367E0
5.109759591E0,2.411366940E0,-4.913063049E0,-5.169095039E0
5.130029643E0,6.131607890E-1,-2.483151674E0,-1.965703845E0
5.150429643E0,-5.982056856E-1,-4.055834293E0,-4.130012035E0
5.170569852E0,4.911268353E-1,-1.721456337E1,-3.594019651E0
5.190839956E0,6.251249313E-1,-2.756711197E1,-2.207378894E-1
5.211110060E0,-7.274180651E-1,-9.589237213E0,-3.359523058E0
5.231518029E0,-1.680359721E0,-1.992024899E0,-4.396213531E0
5.251798758E0,-2.331805706E0,-9.984052777E-1,-3.481556892E0
5.271913393E0,-1.622931957E0,-5.059025288E0,-2.289333105E0
5.292184956E0,3.834498227E-1,-1.064746284E1,-1.649851203E0
5.312456049E0,2.202593327E0,-1.383410454E1,-1.109073281E0
5.332726102E0,1.898704767E0,-1.356610775E1,-1.439282775E0
5.353127039E0,8.069794178E-1,-1.141795158E1,-1.389033556E0
5.373267924E0,-8.165507317E-1,-8.588438988E0,-6.083751321E-1
5.393538549E0,-2.532802820E0,-6.821339130E0,7.657032460E-2
5.413809122E0,-3.468994617E0,-7.415357590E0,-5.126622319E-1
5.434079174E0,-2.051845312E0,-1.008933640E1,-1.817348838E0
5.454479591E0,3.834498227E-1,-1.211246777E1,-2.806182861E0
5.474620060E0,2.753540754E0,-1.303190994E1,-3.352344513E0
5.494890372E0,4.692923546E0,-1.342672634E1,-1.683350682E0
5.515160581E0,5.598008633E0,-1.297926807E1,-5.485545993E-1
5.535430841E0,5.267200947E0,-1.078863907E1,-3.251846075E0
5.555701049E0,2.181057930E0,-8.830113411E0,-5.126024246E0
5.575971258E0,-1.441077471E0,-8.736793518E0,-3.220739365E0
5.596241414E0,-3.418745279E0,-9.383454323E0,-7.304090858E-1
5.616511570E0,-1.804786444E0,-1.142752266E1,1.172483116E-1
5.636781622E0,9.337990284E-1,-1.252702427E1,-1.657029688E-1
5.657051779E0,-6.460621208E-2,-1.358764362E1,7.561319470E-1
5.677321831E0,-1.345364571E0,-1.421934891E1,-4.935196638E-1
5.697591987E0,-1.941775560E0,-1.453520107E1,-3.086143017E0
5.717862091E0,-3.093321562E0,-1.489950848E1,-2.148156643E0
5.738132143E0,-3.112463951E0,-1.453041553E1,1.175474167E0
5.758402247E0,-1.137188911E0,-1.278784275E1,2.238485575E0
5.778672352E0,-5.814558864E-1,-9.897911072E0,1.424327731E0
5.798942404E0,-6.771687865E-1,-8.099704742E0,3.684946895E-1
5.819212508E0,3.714857101E-1,-7.743174076E0,-2.001596212E0
5.839482560E0,1.244866014E0,-6.234499454E0,-4.496711731E0
5.859752664E0,7.232306600E-1,-4.688137531E0,-3.974478483E0
5.880022716E0,-6.747759581E-1,-6.242276192E0,-2.063809633E0
5.900292820E0,-1.139581800E0,-5.985645771E0,-1.019940615E0
5.920562924E0,-3.326023519E-1,-5.358726501E0,-2.109871387E0
5.940832977E0,8.428717852E-1,-6.378666878E0,-3.761517286E0
5.961103029E0,9.002995491E-1,-7.317251682E0,-4.110869408E0
5.981373133E0,3.355933726E-1,-7.149155617E0,-5.370690346E0
6.001643185E0,-2.512463629E-1,-6.395416737E0,-7.776673794E0
6.021913237E0,-1.172483116E-1,-4.267001152E0,-6.419344902E0
6.042183341E0,1.004985496E-1,-2.078166485E0,-3.323630571E0
6.062453393E0,-4.689932466E-1,-2.353939295E0,7.633104324E-1
6.082723445E0,1.192223907E0,-7.266404152E0,-4.525425911E0
6.102993497E0,3.816552162E0,-2.575454903E1,-1.094716311E0
6.123263549E0,-8.596215248E-1,-2.106461525E1,-4.097708762E-1
6.143533654E0,-1.208973646E0,-5.643472195E0,-5.075775146E0
6.163803706E0,-2.327019930E0,-2.334796667E0,-4.451248169E0
6.184073758E0,-2.719442844E0,-4.862813950E0,-2.117049932E0
6.204343810E0,-1.866401732E-1,-8.861220360E0,-5.222335458E-1
6.224613862E0,1.348355532E0,-1.215075302E1,4.091726840E-1
6.244883914E0,1.417747378E0,-1.340997601E1,-3.236292601E-1
6.265153966E0,1.017547846E0,-1.247916794E1,-1.322034478E0
6.285424018E0,-5.096712112E-1,-8.791828156E0,-1.247856975E0
6.305694070E0,-1.524826288E0,-6.083751678E0,-8.237292171E-1
6.325964122E0,-1.972882271E0,-5.870790482E0,-4.025924206E-1
6.346234174E0,-1.785643935E0,-7.511070251E0,-1.367498159E0
6.366504227E0,-1.268794179E0,-9.167501450E0,-2.018345833E0
6.386774279E0,-1.842473447E-1,-1.021137047E1,-2.741576433E0
6.407044331E0,1.079761267E0,-1.153819084E1,-3.000001431E0
6.427314383E0,2.228914261E0,-1.328315639E1,-2.330011129E0
6.447584435E0,3.763910055E0,-1.488036537E1,-1.697707653E0
6.467854487E0,4.982454777E0,-1.415952778E1,-2.322832584E0
6.488124487E0,5.075775146E0,-1.177508068E1,-3.833301783E0
6.508394487E0,3.062214851E0,-1.086042404E1,-3.684946775E0
6.528672508E0,-1.706680775E0,-1.266820145E1,-1.056431174E0
6.549011779E0,-2.829512835E0,-1.429591846E1,4.307080805E-1
6.569203549E0,-2.374876499E0,-1.362832165E1,-5.724828243E-1
6.589473862E0,-4.510470867E0,-1.268016529E1,-6.370890141E-1
6.609743966E0,-5.118845940E0,-1.223689461E1,-2.526222467E0
6.630014018E0,-3.882952929E0,-1.348176098E1,-5.188237667E0
6.650414174E0,-9.816554785E-1,-1.482293797E1,6.436693072E-1
6.670554435E0,1.977667928E0,-1.442991734E1,5.595017433E0
6.690824539E0,1.585245013E0,-1.257009602E1,2.891726255E0
6.711094643E0,-4.905286431E-1,-9.145966530E0,6.077769399E-1
6.731364695E0,-2.078166485E0,-7.881958008E0,-4.935196638E-1
6.751764747E0,-3.382853031E0,-6.031109333E0,-1.781456470E0
6.771904799E0,-2.683550596E0,-2.952144861E0,-4.568496704E0
6.792174904E0,-1.256830096E0,-4.034298897E0,-4.338785648E0
6.812444956E0,1.216152072E0,-7.235297680E0,-1.640279889E0
6.832715008E0,1.992024899E0,-6.864409924E0,-1.673779488E0
6.853115008E0,1.611566067E0,-5.650650501E0,-2.983251572E0
6.873255112E0,1.305284739E0,-6.498308182E0,-4.834099770E0
6.893525164E0,5.820540786E-1,-6.414559364E0,-7.814958572E0
6.913795164E0,-4.307080805E-2,-5.171487808E0,-8.118846893E0
6.934065216E0,-4.331009090E-1,-2.676970243E0,-2.858824968E0
6.954465268E0,-1.704287887E0,-8.763712645E-1,-5.940182209E-1
6.974605320E0,-1.414756417E0,-8.811569214E-1,-1.329213023E0
6.994875320E0,1.055832982E0,-1.266820145E1,-4.448855400E0
7.015145372E0,4.265206456E-1,-3.591806412E1,4.594219685E0
7.035415372E0,-2.297109663E-1,-1.565384579E1,-1.073180914E0
7.055685372E0,-1.024726272E0,-4.113262177E0,-4.046263218E0
7.075955372E0,-2.520838737E0,-1.024726272E0,-2.562114954E0
7.096225424E0,-2.027917147E0,-2.885145903E0,-1.097109199E0
7.116495424E0,2.440679073E-1,-8.307880402E0,4.378865361E-1
7.136765424E0,1.177866936E0,-1.432463264E1,2.392822690E-2
7.157035477E0,6.753742099E-1,-1.541157246E1,-1.886740685E0
7.177305477E0,-5.551348329E-1,-8.703293800E0,-6.227321029E-1
7.197575477E0,-1.363908947E-1,-4.659423828E0,3.469592929E-1
7.217845477E0,-3.972085714E-1,-3.192025423E0,-4.127619043E-2
7.238115477E0,-5.383850932E-1,-4.302893162E0,-1.276570916E0
7.258385529E0,-5.479564071E-1,-7.477570534E0,-2.136192322E0
7.278655529E0,-5.742774159E-2,-9.272786140E0,-2.653042078E0
7.298925529E0,3.619144261E-1,-1.016351414E1,-4.125226021E0
7.319195529E0,1.067797065E0,-1.175593758E1,-5.387440205E0
7.339465529E0,3.421736479E0,-1.479183102E1,-2.114656925E0
7.359735529E0,5.267200947E0,-1.781815338E1,3.684946895E-1
7.380005529E0,6.071787357E0,-1.639322853E1,-1.154536963E0
7.400275529E0,4.582853794E0,-1.329990673E1,-3.890729666E0
7.420545529E0,1.393819213E0,-1.373360538E1,-4.791028976E0
7.440815529E0,-2.209771633E0,-1.510768414E1,-1.793420553E0
7.461085529E0,-2.097309113E0,-1.472961807E1,8.590233326E-1
7.481355529E0,-8.835497499E-1,-1.323769283E1,1.910070658E0
7.501625529E0,-2.652443886E0,-1.151665497E1,1.914258115E-2
7.521895529E0,-4.527220249E0,-1.051346493E1,-2.557329178E0
7.542165529E0,-4.275974274E0,-1.026879883E1,-1.960918188E0
7.562435529E0,-1.393221021E0,-1.043928719E1,-2.196012974E0
7.582705477E0,1.733600020E0,-1.191386414E1,-1.668993831E0
7.602975477E0,2.856431961E0,-1.302233887E1,9.595218897E-1
7.623245477E0,1.783849239E0,-1.256770229E1,2.848655462E0
7.643515477E0,-1.101296663E0,-9.507881165E0,3.035295486E0
7.663785477E0,-2.090130568E0,-6.897909641E0,6.963114142E-1
7.684055477E0,-2.343769789E0,-7.408178806E0,-1.290927768E0
7.704325372E0,-2.843869686E0,-7.843672752E0,-1.570888042E0
7.724595424E0,-3.260818958E0,-4.920241356E0,-1.645065546E0
7.744995424E0,-2.338984251E0,-1.956132531E0,-3.064607620E0
7.765135424E0,-7.250252366E-1,-5.255835056E0,-1.913061738E0
7.785405372E0,3.643072546E-1,-5.964110374E0,-1.539781332E0
7.805675372E0,8.356932998E-1,-5.241477966E0,-3.304488182E0
7.825945372E0,9.385846853E-1,-5.161916733E0,-4.826921463E0
7.846215320E0,5.533402562E-1,-6.138786316E0,-5.353940487E0
7.866485320E0,-2.536391914E-1,-6.488736629E0,-6.011966705E0
7.886755320E0,-3.756731451E-1,-6.862017155E0,-7.252047062E0
7.907025268E0,6.059823632E-1,-7.640282631E0,-9.203393936E0
7.927295268E0,1.244866014E0,-6.625127792E0,-7.334001541E0
7.947565268E0,-3.014956415E-1,-2.988037348E0,-2.188834429E0
7.967835216E0,-2.047059774E0,-9.522237778E0,-1.407577896E1
7.988105216E0,1.499103427E0,-2.520180702E1,2.654836655E0
8.008375164E0,7.417750359E-2,-1.958226204E1,-4.807778835E0
8.028649122E0,-8.309076428E-1,-3.979264021E0,-3.040679455E0
8.048953654E0,-1.106082320E0,-7.926225066E-1,-2.557329178E0
8.069184487E0,-2.480160713E0,-1.776670814E0,1.363908947E-1
8.089454591E0,4.067798331E-2,-7.343572617E0,-3.978067636E-1
8.109724643E0,2.949752092E0,-1.415713501E1,-1.927418590E0
8.129994643E0,1.920240164E0,-1.565863132E1,-1.869990945E0
8.150394747E0,5.653043389E-1,-1.194975662E1,-2.837289333E0
8.170534695E0,-1.387837082E-1,-7.726424217E0,-3.122035265E0
8.190804695E0,-8.213363886E-1,-4.960919380E0,-2.535793781E0
8.211074643E0,-1.352542996E0,-4.072584152E0,-1.822134495E0
8.231471310E0,-1.555932879E0,-5.631507874E0,-8.931210637E-1
8.251763185E0,-4.546363056E-1,-9.277571678E0,-8.548358679E-1
8.271877664E0,9.810572863E-2,-1.118345451E1,-8.189435601E-1
8.292149070E0,8.668000102E-1,-1.160040379E1,-1.403390527E0
8.312420112E0,2.329412937E0,-1.287159157E1,-2.933002472E0
8.332690008E0,4.053441525E0,-1.419781303E1,-3.218346357E0
8.353090997E0,5.207380295E0,-1.477268887E1,-2.370688915E0
8.373231622E0,4.292723656E0,-1.346501160E1,-2.068595171E0
8.393502143E0,9.290133715E-1,-1.199043465E1,-3.014358282E0
8.413772508E0,-2.906681299E0,-1.151186943E1,-4.096512318E0
8.434042404E0,-4.599005222E0,-1.245224857E1,-3.175275564E0
8.454442820E0,-9.098708034E-1,-1.351825142E1,-5.748756528E-1
8.474583029E0,3.547359705E-1,-1.294816113E1,5.551348329E-1
8.494853237E0,-2.260020971E0,-1.156690502E1,-5.988038778E-1
8.515123341E0,-3.138785124E0,-1.096331501E1,-3.019144058E0
8.535393445E0,-1.019940615E0,-1.245703506E1,-4.300500393E0
8.555663497E0,1.367498159E0,-1.374317646E1,-2.361117840E0
8.575933549E0,2.327019930E0,-1.404706573E1,3.061616659E0
8.596203602E0,1.822134495E0,-1.280459213E1,2.961117983E0
8.616473602E0,-1.004985496E-1,-9.842875481E0,-2.422732860E-1
8.636743602E0,-1.173081279E0,-8.679366112E0,-1.183250785E0
8.657013497E0,-2.791227579E0,-7.712067604E0,-1.276570916E0
8.677283497E0,-2.401197433E0,-3.873979807E0,-3.126821041E0
8.697553445E0,-2.145165443E0,-3.011965513E0,-4.176073551E0
8.717823445E0,-1.958525300E0,-5.916254044E0,-9.481559992E-1
8.738093393E0,-1.192223907E0,-5.385047436E0,-3.762713671E-1
8.758363289E0,-4.713860750E-1,-4.204787731E0,-1.400997639E0
8.778633289E0,-5.168496966E-1,-4.295714855E0,-2.818146944E0
8.798903237E0,-2.033899277E-1,-4.788636208E0,-3.840480328E0
8.819173133E0,3.403790295E-1,-5.248656273E0,-4.901099205E0
8.839443081E0,-1.268195957E-1,-5.983253002E0,-5.444868088E0
8.859713029E0,-2.895315289E-1,-6.538986206E0,-6.371488571E0
8.879982924E0,1.266401410E0,-7.436892986E0,-8.820542336E0
8.900252872E0,3.572484255E0,-7.237690449E0,-8.054241180E0
8.920522820E0,4.146761417E0,-4.695316315E0,-4.556532383E0
8.940792716E0,-7.010970116E-1,-1.455673695E1,-1.331665611E1
8.961062664E0,-3.804588020E-1,-1.860299873E1,-7.064808607E-1
8.981332612E0,-2.008774519E0,-1.244746304E1,-5.688935757E0
9.001602508E0,-1.122832060E0,-4.391427994E0,-2.394617319E0
9.021872560E0,-2.824727058E0,-3.081357241E0,-3.067000389E0
9.042142352E0,-3.232105255E0,-6.112465382E0,-1.566102386E0
9.062412299E0,-4.043870270E-1,-1.216271782E1,-1.601994753E0
9.082682195E0,2.361117840E0,-1.578305817E1,-1.946561217E0
9.102952143E0,1.161117196E0,-1.318265820E1,-2.078166485E0
9.123222039E0,1.027119160E0,-9.885947227E0,-2.954537868E0
9.143491883E0,1.187438250E0,-7.515855789E0,-2.416152716E0
9.163761831E0,9.912267923E-1,-6.448058605E0,-9.960124493E-1
9.184027820E0,1.100698411E-1,-7.153941631E0,-9.290133715E-1
9.204263237E0,1.579262912E-1,-9.862018585E0,-1.623530149E0
9.224572247E0,-5.120640397E-1,-1.280937767E1,-2.003988981E0
9.244841987E0,-7.752745152E-1,-1.008694363E1,-1.771885157E0
9.265111831E0,5.246263742E-1,-6.179464340E0,-2.025524378E0
9.285381674E0,1.333998680E0,-4.341178417E0,-2.313261271E0
9.305651518E0,1.297508121E0,-4.499104977E0,-2.212762833E0
9.325921362E0,8.883354068E-1,-6.591628075E0,-1.752742529E-1
9.346191258E0,4.408775866E-1,-8.416155815E0,1.855035782E0
9.366461154E0,3.738785386E-1,-9.239286423E0,1.094118118E0
9.386730997E0,-3.254238665E-1,-9.174679756E0,-1.322034478E0
9.407000893E0,-5.479564071E-1,-1.015872860E1,-2.008774519E0
9.427270841E0,-6.221339107E-1,-1.262273788E1,-2.392224550E0
9.447540685E0,4.815555513E-1,-1.490429401E1,-2.090130568E0
9.467810581E0,2.578864574E0,-1.515314770E1,-1.235892892E0
9.488080477E0,2.576471806E0,-1.417627811E1,-1.546959877E0
9.508350372E0,3.222533941E0,-1.481575966E1,-1.664208174E0
9.528620268E0,3.131606579E0,-1.534935951E1,-8.955138922E-1
9.549009018E0,-6.388836503E-1,-1.444905949E1,1.146760225E0
9.569160060E0,-2.513660192E0,-1.158365440E1,1.699502230E0
9.589429956E0,-4.161118507E0,-1.029272652E1,6.963114142E-1
9.609699852E0,-5.068596363E0,-1.194736385E1,-4.528416991E-1
9.629969747E0,-2.666800737E0,-1.121216869E1,-1.539781332E0
9.650369747E0,5.503492057E-2,-1.054935646E1,-2.107478619E0
9.670509539E0,-6.005984545E-1,-1.202871990E1,1.130010486E0
9.690779435E0,-2.379662037E0,-1.357567883E1,5.647659779E0
9.711049331E0,-3.263211966E0,-1.300798225E1,5.353342533E0
9.731319227E0,-5.571089268E0,-9.043074608E0,1.627717614E0
9.751719227E0,-5.980860233E0,-6.821339130E0,-1.125823021E0
9.771859018E0,-4.553541660E0,-7.271189690E0,-2.411366940E0
9.792128914E0,-3.555136204E0,-8.351549149E0,-1.007976532E0
9.812398810E0,-3.320639610E0,-8.066205025E0,-1.495514158E-2
9.832668654E0,-2.740978241E0,-6.907480717E0,5.551348329E-1
9.853068654E0,-1.563111424E0,-5.547759533E0,-4.289134443E-1
9.873208445E0,8.853443712E-2,-6.167500496E0,-1.920240164E0
9.893478341E0,6.753742099E-1,-6.857231617E0,-3.667000830E-1
9.913748185E0,-1.890329868E-1,-5.255835056E0,-3.810569942E-1
9.934018133E0,-7.585247755E-1,-2.952144861E0,-8.428717852E-1
9.954287977E0,-1.721037745E0,-2.535793781E0,-1.460818172E0
9.974557872E0,-2.379662037E0,-3.783052683E0,-1.944168448E0
9.994827768E0,-1.903490424E0,-4.774279594E0,-2.471187592E0
1.001509761E1,-1.197009563E0,-5.655436516E0,-3.247060299E0
1.003536751E1,-4.259224236E-1,-7.968099594E0,-4.999204636E0
1.005576751E1,8.261220455E-1,-1.176311588E1,-7.958528042E0
1.007590725E1,3.028715372E0,-1.655833244E1,-1.012762165E1
1.009617714E1,2.416152716E0,-1.192582798E1,-8.808578491E0
1.011644704E1,-1.746760458E-1,-6.016752720E0,-8.734400749E0
1.013671688E1,-2.911466837E0,-1.250070381E1,-6.078966141E0
1.015698678E1,-8.219346046E0,-2.211087799E1,3.593421459E0
1.017725667E1,-2.681157827E0,-1.565863132E1,7.220342159E0
1.019752652E1,9.696913958E-1,-6.948158741E0,5.724229813E0
1.021779641E1,-6.484549642E-1,-5.037489891E0,3.008974552E0
1.023806626E1,-9.337990284E-1,-6.931408882E0,-1.154536903E-1
1.025833615E1,-1.096511006E0,-1.267059422E1,-1.154536903E-1
1.027860600E1,-2.157129526E0,-1.869153404E1,1.189831018E0
1.029887589E1,-1.963310957E0,-1.139641571E1,1.103689432E0
1.031914574E1,2.238485575E0,-8.082955360E0,4.283152521E-1
1.033941558E1,1.410568953E0,-6.998407841E0,1.572682738E0
1.035968548E1,-1.041476011E0,-5.397011280E0,2.463410854E0
1.037995532E1,-3.784847260E0,-6.311667919E0,2.949153900E0
1.040022522E1,-1.201795220E0,-9.303893089E0,9.092726111E-1
1.042049506E1,3.680161238E0,-1.114995575E1,-8.045865893E-1
1.044076496E1,3.795016766E0,-1.100160027E1,-7.184450030E-1
1.046103480E1,2.456830740E0,-9.677771568E0,4.187439680E-1
1.048130464E1,9.194421172E-1,-8.216953278E0,-8.859425783E-1
1.050157454E1,-7.082754970E-1,-9.086145401E0,-2.248655081E0
1.052184438E1,-4.546363056E-1,-9.838089943E0,-2.399402857E0
1.054211423E1,1.537388563E0,-1.042014408E1,-1.372283816E0
1.056238407E1,3.876372576E0,-1.092502975E1,-1.530210137E0
1.058265397E1,4.915455818E0,-1.046321487E1,-2.612364054E0
1.060292381E1,3.388236761E0,-1.008455086E1,-2.203191519E0
1.062319365E1,2.727219582E0,-1.169611740E1,3.804588020E-1
1.064346355E1,2.173879385E0,-1.395374489E1,1.259222865E0
1.066373339E1,-1.584646821E0,-1.315155125E1,8.901300430E-1
1.068400324E1,-5.973083496E0,-1.273998642E1,-1.200000525E0
1.070427308E1,-9.155537605E0,-1.508375549E1,-2.655434847E0
1.072454292E1,-7.079763889E0,-1.597448444E1,-1.692921996E0
1.074481277E1,-4.074976921E0,-1.640040588E1,3.210569859E0
1.076508261E1,-3.804588020E-1,-1.616830254E1,4.445864677E0
1.078535246E1,2.514258385E0,-1.602951813E1,6.245267391E-1
1.080562235E1,1.850848317E0,-1.524886036E1,1.074975610E0
1.082589220E1,6.011967063E-1,-1.275195026E1,-1.130608678E0
1.084616204E1,-4.450650215E-1,-9.412167549E0,-2.255833626E0
1.086643188E1,-5.455635786E-1,-3.117249727E0,-5.059025288E0
1.088670173E1,-2.512463629E-1,-5.452046394E0,-3.086143017E0
1.090697152E1,5.653043389E-1,-5.521438122E0,-5.844469070E-1
1.092724136E1,1.735992789E0,-3.390629768E0,-1.116251707E0
1.094751126E1,1.913061738E0,-2.241476536E0,-3.090928555E0
1.096778110E1,4.384847581E-1,-3.383451223E0,-5.114060402E0
1.098805095E1,-4.929214716E-1,-3.646661758E0,-6.414559364E0
1.100832079E1,-2.249253243E-1,-3.632304668E0,-7.405786037E0
1.102859063E1,8.524430394E-1,-4.987240791E0,-9.268000603E0
1.104886048E1,2.188236237E0,-7.158727169E0,-9.586843491E0
1.106913032E1,2.231307030E0,-5.392225742E0,-2.346760750E0
1.108940016E1,-1.070189953E0,-4.420141697E0,-4.151547432E0
1.110967001E1,-3.641277790E0,-1.249113274E1,-3.766302824E0
1.112993985E1,-3.278166950E-1,-2.134457588E1,-1.824527234E-1
1.115033980E1,-5.431707501E-1,-1.354457283E1,-2.724826813E0
1.117047944E1,-2.416750938E-1,-5.923432350E0,-1.738385677E0
1.119074928E1,1.698904037E-1,-6.169893265E0,-1.377069473E0
1.121101912E1,2.054238319E0,-1.138205910E1,-8.428717852E-1
1.123142709E1,4.523033142E0,-1.571127319E1,-5.389832854E-1
1.125170740E1,2.370688915E0,-1.418345642E1,-1.075573802E0
1.127182173E1,1.172483116E-1,-1.077906799E1,-2.044667006E0
1.129209298E1,-1.230509043E0,-8.385048866E0,-1.714457393E0
1.131236386E1,-2.331805706E0,-7.187440872E0,-1.333998680E0
1.133263360E1,-2.260020971E0,-7.537391186E0,-1.568495274E0
1.135303459E1,-1.718644857E0,-8.495118141E0,-1.712064624E0
1.137317496E1,1.890329868E-1,-9.131608963E0,-8.979067206E-1
1.139344532E1,1.374676585E0,-8.540582657E0,-1.080359459E0
1.141371558E1,1.676172256E0,-7.261618614E0,-9.433703423E-1
1.143398537E1,1.704886079E0,-6.582056999E0,1.866401732E-1
1.145438574E1,2.274377823E0,-7.860422611E0,1.196411345E-2
1.147452569E1,3.330210924E0,-1.175593758E1,-2.815753937E0
1.149479574E1,3.184248686E0,-1.568495274E1,-5.215157032E0
1.151506579E1,2.468794823E0,-1.531585979E1,-4.822135925E0
1.153533569E1,1.716850281E0,-1.280459213E1,-4.503890514E0
1.155560563E1,-3.014956415E-1,-1.184925747E1,-3.059821844E0
1.157587553E1,-6.053841114E-1,-1.342194080E1,-3.044866920E-1
1.159614548E1,7.088736892E-1,-1.354935837E1,6.580262184E-1
1.161641532E1,-1.197009563E0,-1.195454216E1,-5.802594870E-2
1.163668511E1,-3.349353552E0,-1.168175983E1,-1.003190875E0
1.165708516E1,-2.911466837E0,-1.264188004E1,-1.494317770E0
1.167722485E1,-4.905286431E-1,-1.377906895E1,-2.188834429E0
1.169749470E1,8.476574421E-1,-1.388674641E1,-4.624129832E-1
1.171776449E1,6.729813814E-1,-1.335494137E1,2.034497499E0
1.173803428E1,-4.929214716E-1,-1.262752342E1,2.152343988E0
1.175830412E1,-2.360519648E0,-9.395418167E0,1.287936807E0
1.177857397E1,-1.889133453E0,-7.788637638E0,-6.179464459E-1
1.179884376E1,-1.992024899E0,-8.257631302E0,-1.613958836E0
1.181911360E1,-2.528017044E0,-5.332405090E0,-1.896311998E0
1.183938345E1,-1.668395638E0,-1.044467092E0,-4.293322086E0
1.185965324E1,-7.537391186E-1,-5.760720730E0,-2.234298229E0
1.187992303E1,-1.914258152E-1,-6.395416737E0,-1.106680512E0
1.190019282E1,3.828516230E-2,-5.590830326E0,-2.430509567E0
1.192046266E1,1.579262912E-1,-6.124429703E0,-3.615555048E0
1.194073246E1,8.374879509E-2,-6.153143406E0,-4.793421745E0
1.196100225E1,-3.589234129E-2,-5.351547718E0,-6.424130440E0
1.198127204E1,-7.896314561E-2,-5.322834015E0,-8.085348129E0
1.200154183E1,-6.963114142E-1,-5.691328526E0,-7.932207108E0
1.202181162E1,-1.675574064E0,-4.319643021E0,-2.416152716E0
1.204208141E1,-2.695514679E0,-4.036691666E0,-4.839483798E-1
1.206235121E1,-4.307080805E-1,-1.071685410E1,-1.012762165E1
1.208262100E1,3.241676569E0,-3.061496925E1,2.386840582E0
1.210289084E1,-9.098708034E-1,-1.690110397E1,-2.516651154E0
1.212316063E1,-7.752745152E-1,-3.780659676E0,-3.986442566E0
1.214343037E1,-8.668000102E-1,-8.979067206E-1,-2.066202402E0
1.216370016E1,-2.281556368E0,-2.207977057E0,-2.614158690E-1
1.218396996E1,-1.914258115E-2,-8.420941353E0,5.335994363E-1
1.220423975E1,2.954537868E0,-1.520578957E1,-7.519445419E-1
1.222450954E1,1.874776483E0,-1.717627907E1,-1.434497118E0
1.224490954E1,3.188436031E-1,-1.310130215E1,-1.779063582E0
1.226504912E1,-4.091726840E-1,-7.618747234E0,-1.247856975E0
1.228531891E1,-1.350150228E0,-5.142774105E0,-3.810569942E-1
1.230558865E1,-2.592623234E0,-4.791028976E0,-3.427718580E-1
1.232585845E1,-3.275176048E0,-7.458428383E0,-1.446461320E0
1.234612824E1,-1.433898926E0,-1.073838997E1,-2.008774519E0
1.236639803E1,1.769492388E0,-1.253659630E1,-1.800599098E0
1.238666777E1,5.003990173E0,-1.365224934E1,-1.190429211E0
1.240693756E1,7.323832035E0,-1.467458344E1,-2.224726915E0
1.242720735E1,7.592426300E0,-1.347936821E1,-4.819743156E0
1.244747714E1,3.327818155E0,-1.148315620E1,-4.262215137E0
1.246774688E1,-1.692323804E0,-1.144726372E1,-3.416950703E0
1.248801667E1,-4.881358147E0,-1.144965649E1,-1.585245013E0
1.250828647E1,-3.495315790E0,-1.218425274E1,2.488535494E-1
1.252855621E1,1.651047617E-1,-1.230150127E1,-2.063809484E-1
1.254882600E1,-3.972085714E-1,-1.259163094E1,2.512463629E-1
1.256909579E1,-1.831705689E0,-1.263230896E1,6.221338734E-2
1.258936553E1,-1.235294700E0,-1.347936821E1,-4.115654945E0
1.260963532E1,-9.098708034E-1,-1.425763416E1,-3.414557934E0
1.262990506E1,-3.541377485E-1,-1.369532013E1,2.520838737E0
1.265030506E1,1.132403374E0,-1.259641647E1,3.354139090E0
1.267044464E1,5.503492057E-2,-9.373882294E0,1.505683661E0
1.269071438E1,-2.321037948E-1,-8.152346611E0,-1.920240223E-1
1.271098417E1,-6.939185858E-1,-8.681758881E0,-1.946561217E0
1.273125391E1,-1.398006678E0,-5.918646812E0,-1.807777524E0
1.275165391E1,-1.785643935E0,-1.558923960E0,-4.881956577E0
1.277179344E1,-1.744965911E0,-5.306084156E0,-2.545365095E0
1.279206324E1,-6.364908218E-1,-6.136393547E0,-7.686942816E-1
1.281233298E1,5.030909777E-1,-5.126024246E0,-2.385046005E0
1.283260277E1,9.385846853E-1,-6.095715523E0,-3.290131092E0
1.285300277E1,5.724828243E-1,-7.108478069E0,-4.467998028E0
1.287314225E1,3.930211067E-1,-6.038288116E0,-7.000801086E0
1.289341204E1,7.639086246E-1,-5.576473236E0,-9.289535522E0
1.291368178E1,1.300499082E0,-4.115654945E0,-4.604389191E0
1.293395152E1,1.363908947E-1,-2.313261271E0,-9.696913958E-1
1.295422131E1,-1.314257860E0,-3.400201082E0,-9.433703423E-1
1.297449105E1,1.292722464E0,-1.530628872E1,-6.519843578E0
1.299476079E1,1.719243050E0,-3.477848053E1,3.684946895E-1
1.301503058E1,-8.309076428E-1,-1.210289669E1,-3.314059258E0
1.303530032E1,-1.354935765E0,-1.848455548E0,-4.901099205E0
1.305557006E1,-1.982453585E0,-6.921239495E-1,-3.244667530E0
1.307583980E1,-2.123630047E0,-3.706482172E0,-8.644071817E-1
1.309610949E1,6.131607890E-1,-9.138788223E0,4.713860750E-1
1.311637928E1,2.039881229E0,-1.454477215E1,7.465606928E-1
1.313664907E1,2.176272154E0,-1.585723591E1,-1.048654556E0
1.315691881E1,-2.273181528E-1,-1.219143105E1,-1.539781332E0
1.317718855E1,-1.510469317E0,-6.940980434E0,-1.348355532E0
1.319745829E1,-1.721037745E0,-4.913063049E0,-1.281356573E0
1.321772803E1,-2.633301258E0,-4.999204636E0,-1.343569875E0
1.323799777E1,-1.711466432E0,-6.393023968E0,-2.138585329E0
1.325826751E1,1.651047617E-1,-8.283951759E0,-2.198405743E0
1.327853725E1,1.477568030E0,-9.701699257E0,-1.377069473E0
1.329880699E1,2.128415823E0,-1.092742252E1,-1.180858016E0
1.331907678E1,2.255235434E0,-1.268973637E1,-1.183250785E0
1.333934652E1,2.964108944E0,-1.464826202E1,-1.948953986E0
1.335961621E1,3.876372576E0,-1.463629818E1,-3.139383316E0
1.337988595E1,3.562912941E0,-1.302473164E1,-3.538984776E0
1.340015563E1,6.442674994E-1,-1.183011532E1,-3.617947817E0
1.342042532E1,-2.805584431E0,-1.184686470E1,-3.433700562E0
1.344069516E1,-2.786442041E0,-1.276152134E1,-2.461616278E0
1.346096490E1,6.251249313E-1,-1.353978729E1,-4.073780477E-1
1.348123464E1,2.973082066E-1,-1.338126278E1,5.814558864E-1
1.350150438E1,-3.325425386E0,-1.277348518E1,-1.537388563E0
1.352177412E1,-4.333401680E0,-1.261077309E1,-3.656233072E0
1.354204386E1,-2.422732830E0,-1.259880924E1,-2.475973129E0
1.356231355E1,1.972882271E0,-1.331187057E1,-1.609173179E0
1.358258324E1,3.933800459E0,-1.398963737E1,5.718846321E-1
1.360285298E1,3.373281717E0,-1.375992680E1,1.228116274E0
1.362312272E1,-5.742774606E-1,-1.087717342E1,1.398006678E0
1.364339246E1,-1.637288928E0,-8.039883614E0,-2.213360928E-2
1.366366220E1,-2.149951220E0,-7.508677483E0,-2.757728100E-1
1.368393188E1,-2.743371248E0,-6.136393547E0,-5.892325640E-1
1.370420162E1,-3.002394199E0,-2.133799553E0,-2.923431158E0
1.372447136E1,-1.936989903E0,-3.076571703E0,-3.806980848E0
1.374474110E1,-7.369893789E-1,-6.069394588E0,-1.525424480E0
1.376501079E1,9.571290575E-3,-4.960919380E0,-1.446461320E0
1.378528053E1,2.805584669E-1,-5.399404526E0,-3.045464993E0
1.380555027E1,3.332005441E-1,-6.261418819E0,-3.723232031E0
1.382582001E1,7.064808607E-1,-6.280561447E0,-4.829314232E0
1.384608970E1,4.480560422E-1,-6.280561447E0,-7.441678524E0
1.386635944E1,1.094118118E0,-6.340381622E0,-9.866804123E0
1.388662917E1,1.161117196E0,-4.566103935E0,-5.298905849E0
1.390689886E1,-4.067798555E-1,-1.807777524E0,-1.106680512E0
1.392716860E1,-1.982453585E0,-4.724030018E0,-1.060917759E1
1.394756860E1,1.972882271E0,-2.557748032E1,9.523434043E-1
1.396770803E1,-9.457631707E-1,-2.719143867E1,-4.240679741E0
1.398797772E1,-6.460621357E-1,-6.445665836E0,-3.287738323E0
1.400824746E1,-1.086939692E0,-1.324427366E0,-3.536591768E0
1.402865542E1,-2.925823927E0,-5.796613097E-1,-1.029511929E0
1.404893553E1,-1.350150228E0,-5.676971912E0,3.996013701E-1
1.406904980E1,2.121237278E0,-1.368814182E1,5.072783828E-1
1.408932084E1,3.462414265E0,-1.712842178E1,-1.061216831E0
1.410959167E1,2.449652195E0,-1.453041553E1,-1.869990945E0
1.412986126E1,3.068794906E-1,-8.669795036E0,-1.515853167E0
1.415026225E1,-1.450648785E0,-4.980062008E0,-1.776670814E-1
1.417040235E1,-2.889931440E0,-4.144368649E0,-5.724828243E-1
1.419067266E1,-3.945764542E0,-5.557330608E0,-1.666600943E0
1.421093886E1,-2.798406124E0,-7.941778183E0,-1.838884234E0
1.423116928E1,-9.122636318E-1,-8.822935104E0,-1.712064624E0
1.425157246E1,2.614158690E-1,-9.000003815E0,-2.263011932E0
1.427175173E1,1.534995675E0,-1.016351414E1,-3.062214851E0
1.429202178E1,3.675375462E0,-1.355653667E1,-2.150549412E0
1.431229183E1,5.806184292E0,-1.708056641E1,-2.174477577E0
1.433256152E1,5.732006550E0,-1.684606934E1,-4.141975880E0
1.435296183E1,3.912265062E0,-1.440359592E1,-5.109274387E0
1.437310147E1,3.738785386E-1,-1.360200024E1,-4.975276470E0
1.439337136E1,-1.687538147E0,-1.490190125E1,-1.834098577E0
1.441364115E1,-1.292124242E-1,-1.365464211E1,1.156331539E0
1.443391084E1,-1.448255897E0,-1.218425274E1,1.747358680E0
1.445431095E1,-4.366901398E0,-1.141795158E1,-3.930211067E-1
1.447445048E1,-5.362913609E0,-1.171286678E1,-2.861217737E0
1.449472022E1,-2.068595171E0,-1.231346512E1,-4.752744198E0
1.451499001E1,5.413761139E-1,-1.288594818E1,-9.170492887E-1
1.453525980E1,1.680957913E0,-1.308933830E1,5.262415409E0
1.455552949E1,1.913061738E0,-1.208614731E1,3.638885021E0
1.457579923E1,-3.014956415E-1,-9.021539688E0,3.589234054E-1
1.459606891E1,-1.058225870E0,-7.939385414E0,-1.068395257E0
1.461633860E1,-1.493719578E0,-7.007979393E0,-1.159322619E0
1.463660834E1,-1.733001828E0,-2.258226395E0,-3.670589924E0
1.465687803E1,-2.126022816E0,-1.642672777E0,-4.779065132E0
1.467714772E1,-1.295115232E0,-4.745565414E0,-7.878368497E-1
1.469741740E1,9.960124493E-1,-6.181857109E0,-1.975275040E0
1.471768714E1,1.563709617E0,-7.197012424E0,-3.739981890E0
1.473795688E1,7.112665176E-1,-7.532605648E0,-4.482355118E0
1.475822657E1,-1.674975902E-1,-6.242276192E0,-6.318846226E0
1.477849626E1,-3.397808075E-1,-5.392225742E0,-8.732007980E0
1.479876595E1,4.384847581E-1,-4.960919380E0,-8.080561638E0
1.481903563E1,-1.746760458E-1,-1.578066587E0,-2.398804724E-1
1.483930532E1,-9.433703423E-1,-2.325225353E0,-4.630710125E0
1.485957501E1,2.885145903E0,-1.573041630E1,-5.063810825E0
1.487984475E1,1.745564103E0,-3.348575974E1,-1.178465188E-1
1.490011444E1,-7.010970116E-1,-1.190190029E1,-3.675375462E0
1.492038412E1,-1.843669891E0,-1.719243050E0,-3.711267948E0
1.494065381E1,-3.815953970E0,7.704889178E-1,-1.068395257E0
1.496092350E1,-4.199403763E0,-1.884347796E0,-2.207378894E-1
1.498119318E1,-5.048855543E-1,-9.661021233E0,-9.720842242E-1
1.500146287E1,2.705684185E0,-1.649133301E1,-9.696913958E-1
1.502173256E1,3.064607620E0,-1.657268906E1,-2.325225353E0
1.504200225E1,1.994417667E0,-1.147119141E1,-2.322832584E0
1.506227188E1,9.050851464E-1,-6.811768055E0,-1.180858016E0
1.508254157E1,-4.307080805E-2,-4.496711731E0,-2.638086975E-1
1.510281126E1,-9.505487680E-1,-4.343571186E0,-4.384847581E-1
1.512308095E1,-1.677966833E0,-6.840481758E0,-6.107679605E-1
1.514335063E1,-5.694918036E-1,-9.337391853E0,-1.530210137E0
1.516362032E1,3.858426511E-1,-1.060199928E1,-2.990430117E0
1.518389001E1,1.896311998E0,-1.189232826E1,-4.963312149E0
1.520415970E1,3.933800459E0,-1.323530006E1,-2.739183664E0
1.522442933E1,5.760720730E0,-1.471047497E1,-1.393819153E-1
1.524469902E1,5.233701229E0,-1.456212044E1,-1.166501045E0
1.526496865E1,2.310270309E0,-1.340040493E1,-3.352344513E0
1.528523839E1,-1.625324726E0,-1.348176098E1,-4.791028976E0
1.530550803E1,-2.738585472E0,-1.396331692E1,-3.007179976E0
1.532577772E1,4.695914388E-1,-1.376949787E1,4.067798555E-1
1.534604740E1,-6.005984545E-1,-1.409252930E1,1.689931035E0
1.536631704E1,-3.801596880E0,-1.357807255E1,-5.270192027E-1
1.538658673E1,-5.812764645E0,-1.231585789E1,-2.416152716E0
1.540685641E1,-5.315057278E0,-1.129591751E1,-2.684148788E0
1.542712605E1,-1.417149186E0,-1.071206856E1,-4.649852753E0
1.544739569E1,2.193022013E0,-1.243549919E1,-1.640279889E0
1.546766537E1,2.770290375E0,-1.297687531E1,3.483351469E0
1.548793501E1,1.208973646E0,-1.148315620E1,3.006581545E0
1.550820475E1,-5.647061467E-1,-8.305487633E0,2.201396823E-1
1.552847438E1,-1.627119333E-1,-7.810173035E0,-1.613958836E0
1.554874407E1,3.260220885E-1,-5.748756409E0,-1.496710539E0
1.556901376E1,2.488535494E-1,-4.606183618E-2,-4.453640938E0
1.558928339E1,-1.007976532E0,-3.266202927E0,-1.460818172E0
1.560955308E1,-1.865205288E0,-3.888336897E0,-7.178467698E-3
1.562982272E1,-1.704287887E0,-4.530211449E0,-3.151347399E0
1.565022272E1,-1.759322882E0,-4.932205677E0,-3.799802303E0
1.567036204E1,-1.460219979E0,-5.356333256E0,-4.132404804E0
1.569063173E1,2.153540403E-2,-6.102894306E0,-6.627520561E0
1.571090136E1,2.440679073E-1,-6.445665836E0,-8.686544418E0
1.573117105E1,7.896314561E-2,-6.112465382E0,-1.113799095E1
1.575157105E1,1.077368379E0,-3.950550079E0,-6.174678802E0
1.577171037E1,5.222335458E-1,-5.844469070E0,-9.315856934E0
1.579198001E1,9.337990284E-1,-1.570648766E1,-4.915455818E0
1.581224970E1,-4.857429862E-1,-2.108854485E1,-3.613162279E0
1.583251933E1,-3.533600807E0,-9.701699257E0,-3.694518089E0
1.585291933E1,-2.678765059E0,-2.193620205E0,-2.337189436E0
1.587305865E1,-4.438685894E0,-2.032702923E0,-9.098708034E-1
1.589332829E1,-2.947359324E0,-6.076572895E0,-3.667000830E-1
1.591359798E1,2.190629244E0,-1.426720524E1,-1.891526341E0
1.593386761E1,4.635495663E0,-1.761416626E1,-9.146564603E-1
1.595426761E1,4.213760853E0,-1.460519123E1,-2.114656925E0
1.597440688E1,3.069393158E0,-1.017547798E1,-2.775076151E0
1.599467657E1,1.941775560E0,-6.675376892E0,-1.453639746E0
1.601494621E1,3.786641955E-1,-5.104488850E0,-1.575673699E0
1.603521584E1,-6.053841114E-1,-6.467201233E0,-2.430509567E0
1.605548548E1,-1.639681697E0,-9.529416084E0,-2.475973129E0
1.607575516E1,-1.393221021E0,-9.299106598E0,-1.690529227E0
1.609602480E1,-8.374879509E-2,-5.921039581E0,-2.830111027E0
1.611629444E1,2.781656384E-1,-5.063810825E0,-3.019144058E0
1.613656407E1,4.743770957E-1,-6.153143406E0,-4.863412082E-1
1.615683371E1,1.213759303E0,-7.989634991E0,3.471387386E0
1.617710334E1,2.082952023E0,-9.952945709E0,3.684348583E0
1.619737303E1,3.279961586E0,-1.298644638E1,-1.496710539E0
1.621764266E1,1.968096614E0,-1.525843143E1,-6.658627033E0
1.623791230E1,1.022333503E0,-1.362114334E1,-5.219942570E0
1.625818194E1,1.146760225E0,-1.311565876E1,-2.308475733E0
1.627845157E1,9.361918569E-1,-1.398724461E1,-2.657827854E0
1.629872121E1,5.437689424E-1,-1.440598869E1,-3.802195072E0
1.631899084E1,7.519445419E-1,-1.503111362E1,1.016949654E0
1.633926048E1,-5.982056633E-2,-1.098485088E1,4.295116425E0
1.635953011E1,-2.020738840E0,-8.478368759E0,3.949951887E0
1.637979975E1,-5.116453171E0,-1.092024422E1,1.118046403E0
1.640006938E1,-4.591826439E0,-1.363310719E1,-5.389832854E-1
1.642033902E1,-2.985644341E0,-1.263470173E1,-2.373081923E0
1.644060865E1,-3.866203070E0,-1.203589821E1,-9.888339639E-1
1.646087829E1,-4.345366001E0,-1.261555958E1,2.772084951E0
1.648114787E1,-3.842274904E0,-1.263948727E1,5.774479389E0
1.650141746E1,-3.646063566E0,-1.006780148E1,3.129213810E0
1.652168709E1,-4.357329845E0,-6.964908600E0,-1.539781332E0
1.654195678E1,-3.081357241E0,-6.615556240E0,-2.100300074E0
1.656222641E1,-5.575276613E-1,-7.570890903E0,-7.112665176E-1
1.658249605E1,-4.953143001E-1,-7.654639721E0,-3.834498227E-1
1.660276568E1,-1.644467354E0,-6.560521603E0,-3.170489892E-2
1.662303532E1,-2.233700037E0,-4.041477680E0,-1.233500123E0
1.664330496E1,-1.029511929E0,-4.015156269E0,-3.335594654E0
1.666357454E1,3.068794906E-1,-6.273382664E0,-1.063609719E0
1.668384412E1,4.552344978E-1,-6.668198586E0,-5.940182209E-1
1.670411376E1,3.212364316E-1,-5.964110374E0,-1.791027784E0
1.672438339E1,-3.684946895E-1,-5.837290764E0,-2.834896564E0
1.674478339E1,-1.340578914E0,-6.145965099E0,-3.177668571E0
1.676492261E1,-6.317051649E-1,-6.333203316E0,-2.990430117E0
1.678519225E1,6.346961856E-1,-6.450451851E0,-3.316452265E0
1.680546188E1,1.319641709E0,-6.677769661E0,-4.053441525E0
1.682573152E1,1.247258782E0,-7.206583500E0,-4.800600529E0
1.684600110E1,1.039083242E0,-7.489534855E0,-5.983253002E0
1.686627074E1,1.175474167E0,-7.513463020E0,-7.599604607E0
1.688654037E1,1.551745534E0,-8.166703224E0,-8.504690170E0
1.690681001E1,1.278365493E0,-9.527023315E0,-7.716853142E0
1.692707959E1,1.218544960E0,-1.073838997E1,-7.362715244E0
1.694734923E1,1.101296663E0,-1.107577801E1,-8.382656097E0
1.696761886E1,-1.459621787E-1,-8.913862228E0,-8.858827591E0
1.698788839E1,-7.974081635E-1,-6.035895348E0,-7.843672752E0
1.700815808E1,-2.451446772E0,-7.685746193E0,-6.897909641E0
1.702842772E1,-3.026322365E0,-1.759980965E1,3.900300860E-1
1.704869730E1,-1.148734283E1,-2.601117897E1,5.673980713E0
1.706896694E1,-5.114060402E0,-1.995135498E1,4.045664787E0
1.708923657E1,-5.750551224E0,-5.274977684E0,2.671586514E0
1.710950615E1,-3.811168194E0,-2.353939295E0,5.000999451E0
1.712977579E1,-2.195414782E0,-3.460021496E0,3.667598963E0
1.715017579E1,-1.122832060E0,-8.956933022E0,3.056830883E0
1.717031496E1,2.729612350E0,-1.823689842E1,4.713860512E0
1.719058464E1,3.804588079E0,-1.795932961E1,3.516851187E0
1.721084246E1,4.094119549E0,-1.275195026E1,4.737788737E-1
1.723099428E1,4.527818680E0,-8.447261810E0,1.002592683E0
1.725140256E1,2.665006161E0,-4.913063049E0,5.407779217E-1
1.727166053E1,1.501496196E0,-4.460819721E0,-9.912267923E-1
1.729193063E1,4.025924206E-1,-8.157132149E0,-1.164108157E0
1.731220068E1,6.275177598E-1,-1.155494022E1,-5.294120312E-1
1.733247027E1,3.110071182E0,-1.191864967E1,-5.748756528E-1
1.735287063E1,4.120440483E0,-1.099920750E1,-6.041877344E-2
1.737301011E1,3.952943087E0,-1.027119160E1,1.125224829E0
1.739328001E1,4.063013077E0,-1.020897770E1,3.302095234E-1
1.741354975E1,3.538984776E0,-9.759127617E0,-1.764706731E0
1.743381933E1,2.135594130E0,-8.827720642E0,-3.682554007E0
1.745421949E1,1.515853167E0,-7.891529083E0,-3.649054527E0
1.747435881E1,9.314061999E-1,-7.439285755E0,-2.138585329E0
1.749462850E1,-3.589234129E-2,-6.900302410E0,-3.475574851E-1
1.751489818E1,-2.225325108E-1,-6.620342255E0,6.149554253E-1
1.753516787E1,5.270192027E-1,-7.113263607E0,6.580262184E-1
1.755543756E1,1.635494232E0,-8.720044136E0,2.632104978E-2
1.757570720E1,1.664208174E0,-1.070010471E1,-5.318048596E-1
1.759597683E1,1.242473125E0,-1.238046455E1,-2.432902336E0
1.761624647E1,1.124626622E-1,-1.391545963E1,-4.173680782E0
1.763651610E1,-7.034898400E-1,-1.423370552E1,-3.294916868E0
1.765678574E1,-9.170492887E-1,-1.307498074E1,-2.842075109E0
1.767705527E1,-8.979067206E-1,-1.324965763E1,-1.814955950E0
1.769732490E1,9.864411354E-1,-1.469851112E1,-7.974081635E-1
1.771759454E1,2.672184706E0,-1.509572029E1,-6.466603279E-1
1.773786412E1,2.763111830E0,-1.625922966E1,2.656033039E-1
1.775813376E1,-3.086741269E-1,-1.412363529E1,1.838286042E0
1.777840334E1,-3.524029493E0,-1.258445263E1,2.060818434E0
1.779867292E1,-3.624528170E0,-1.367378521E1,1.110867858E0
1.781894256E1,3.110669367E-2,-1.265623760E1,-3.164508045E-1
1.783921214E1,3.550948858E0,-1.155254745E1,-1.956132531E0
1.785948173E1,1.853241086E0,-1.167936707E1,-2.516651154E0
1.787975136E1,-1.450648785E0,-1.204786205E1,1.004985496E-1
1.790002094E1,-2.274377823E0,-1.138684464E1,2.989831924E0
1.792029053E1,-2.216950178E0,-1.031186962E1,4.761717021E-1
1.794056016E1,-2.087737799E0,-1.052782154E1,-7.184450030E-1
1.796082975E1,-1.352542996E0,-1.067856884E1,6.843472719E-1
1.798109933E1,-7.585247755E-1,-8.075776100E0,-1.609173268E-1
1.800136897E1,6.370890141E-1,-5.380261898E0,-3.047857761E0
1.802163850E1,9.409775138E-1,-1.147358418E0,-4.877170563E0
1.804190813E1,1.300499082E0,-5.030311584E0,-1.527817249E0
1.806217772E1,8.931210637E-1,-5.542973518E0,-1.893919110E0
1.808244735E1,7.351947427E-1,-5.411368370E0,-3.314059258E0
1.810271694E1,9.457631707E-1,-4.951348305E0,-4.046263218E0
1.812298652E1,-2.392822690E-2,-4.645066738E0,-4.319643021E0
1.814325610E1,-8.668000102E-1,-3.991228104E0,-5.545366287E0
1.816352568E1,-5.264210105E-1,-4.424927235E0,-7.077371120E0
1.818379532E1,5.892325640E-1,-5.904289722E0,-8.528617859E0
1.820406490E1,2.018345833E0,-4.499104977E0,-3.749552965E0
1.822433449E1,8.955138922E-1,-2.081157446E0,-2.564507723E0
1.824460407E1,-1.204187989E0,-7.860422611E0,-9.735198975E0
1.826487365E1,3.483949661E0,-3.017708206E1,1.063011408E0
1.828514324E1,-3.158525825E-1,-2.344427872E1,-2.236690998E0
1.830541287E1,-5.407779217E-1,-5.161916733E0,-4.992026329E0
1.832568246E1,-1.290329576E0,-1.164108157E0,-2.138585329E0
1.834595204E1,-2.985644341E0,-8.021938205E-1,-8.524430394E-1
1.836622162E1,-2.207378864E0,-5.444868088E0,2.967100143E-1
1.838649121E1,1.220937729E0,-1.196411324E1,8.542376757E-1
1.840676079E1,2.483151674E0,-1.551924992E1,-9.792626500E-1
1.842703037E1,1.745564103E0,-1.509572029E1,-1.791027784E0
1.844729996E1,-6.340979934E-1,-9.828518867E0,-2.129014015E0
1.846756954E1,-8.859425783E-1,-5.406582832E0,-1.125823021E0
1.848783912E1,-1.275972724E0,-4.448855400E0,-8.428717852E-1
1.850810871E1,-2.035095692E0,-5.449653625E0,-1.599601984E0
1.852837829E1,-1.414756417E0,-7.527820110E0,-2.061416626E0
1.854877829E1,-6.747759581E-1,-9.366703987E0,-2.708076954E0
1.856891746E1,9.290133715E-1,-1.181575775E1,-3.028715372E0
1.858918704E1,4.036691666E0,-1.527757454E1,-2.385046005E0
1.860945662E1,5.937789440E0,-1.719063568E1,-1.336391449E0
1.862972621E1,5.116453171E0,-1.527757454E1,-3.023929596E0
1.865012621E1,2.267199516E0,-1.261316681E1,-5.447260857E0
1.867026537E1,-1.378864050E0,-1.138923740E1,-5.691328526E0
1.869053490E1,-3.200998545E0,-1.223689461E1,-1.537388563E0
1.871080449E1,1.196411345E-2,-1.206221867E1,2.518445730E0
1.873107407E1,3.140579760E-1,-1.116670513E1,2.740978241E0
1.875147407E1,-3.760919094E0,-1.192104244E1,3.780659735E-1
1.877161324E1,-5.595017433E0,-1.324247837E1,-2.897109985E0
1.879188282E1,-3.457030535E0,-1.425524044E1,-4.274179459E0
1.881215235E1,-2.563909531E0,-1.370967770E1,-2.944966555E0
1.883242199E1,-5.575276613E-1,-1.336211967E1,2.775674164E-1
1.885282199E1,-5.096712112E-1,-1.223210907E1,2.027318954E0
1.887296110E1,-1.012762189E0,-9.198608398E0,2.183450699E0
1.889323069E1,-8.356932998E-1,-7.846065521E0,9.571290575E-3
1.891350027E1,-1.319043517E0,-6.337988853E0,-2.337189436E0
1.893376985E1,-1.204187989E0,-1.633101404E-1,-4.788636208E0
1.895403938E1,-5.048855543E-1,-9.649057388E-1,-3.268595695E0
1.897430897E1,2.871387079E-2,-3.428914785E0,-1.377069473E0
1.899457855E1,-4.307080805E-2,-4.367499352E0,-2.344367981E0
1.901484813E1,-2.727817893E-1,-4.956133842E0,-3.318845034E0
1.903511772E1,-3.589234054E-1,-4.970490932E0,-4.807778835E0
1.905538725E1,-3.086741269E-1,-5.791827202E0,-6.378666878E0
1.907565683E1,-2.129612118E-1,-6.373881340E0,-7.053442955E0
1.909592641E1,1.890329868E-1,-6.090929985E0,-8.404191017E0
1.911619600E1,1.007976532E0,-6.902695179E0,-9.672985077E0
1.913646553E1,1.661815286E0,-6.083751678E0,-5.679364681E0
1.915673511E1,2.632104978E-2,-4.386641979E0,-3.261417150E0
1.917700470E1,-1.120439172E0,-1.214357471E1,-8.688937187E0
1.919727423E1,3.416950703E0,-3.325544739E1,7.896314561E-2
1.921754381E1,-1.395613790E0,-1.603909111E1,-3.440878868E0
1.923781339E1,-2.140379906E0,-2.447259426E0,-3.651447296E0
1.925808292E1,-2.142772675E0,6.245267391E-1,-1.604387641E0
1.927835251E1,-3.351746321E0,-7.758727670E-1,3.110669367E-2
1.929862209E1,-1.505683661E0,-7.403393269E0,2.991028428E-1
1.931889162E1,2.066202402E0,-1.412124252E1,-1.974078640E-2
1.933916121E1,2.825325251E0,-1.642433548E1,-1.965703845E0
1.935943074E1,1.561316729E0,-1.368096352E1,-1.678565025E0
1.937970032E1,1.387837082E-1,-8.358727455E0,-1.400997639E0
1.939996985E1,-7.902296782E-1,-4.755136967E0,-8.931210637E-1
1.942023944E1,-1.378864050E0,-4.180859566E0,-1.094716311E0
1.944050902E1,-1.524826288E0,-6.706483841E0,-1.152144074E0
1.946077855E1,-5.407779217E-1,-9.107681274E0,-1.092323542E0
1.948104808E1,2.201396823E-1,-9.680164337E0,-1.278963685E0
1.950131766E1,9.577272534E-1,-1.009890842E1,-2.207977057E0
1.952158720E1,1.707278967E0,-1.140359497E1,-3.529413462E0
1.954185678E1,3.464807272E0,-1.354696560E1,-3.594019651E0
1.956212631E1,4.994419098E0,-1.497847176E1,-2.717648268E0
1.958239589E1,4.611567497E0,-1.440359592E1,-2.578864574E0
1.960266542E1,2.775076151E0,-1.323051453E1,-3.672982693E0
1.962293496E1,-7.178467698E-3,-1.337408352E1,-4.659423828E0
1.964320454E1,-9.146564603E-1,-1.408535004E1,-2.253440619E0
1.966347407E1,8.189435601E-1,-1.312523079E1,1.488933921E0
1.968374365E1,-1.249651670E0,-1.275195026E1,2.226521492E0
1.970401318E1,-4.980062008E0,-1.272802162E1,-4.289134443E-1
1.972428272E1,-6.660421848E0,-1.263470173E1,-1.671386600E0
1.974455230E1,-4.977669239E0,-1.199522018E1,-2.562114954E0
1.976482183E1,-1.599003673E0,-1.255813122E1,-3.095714331E0
1.978509136E1,1.594816327E0,-1.354935837E1,-4.217349887E-1
1.980536094E1,2.327019930E0,-1.392503166E1,1.211366415E0
1.982563048E1,1.914258152E-1,-1.069292641E1,2.343769789E0
1.984590001E1,-6.221339107E-1,-8.001599312E0,6.819544435E-1
1.986616959E1,-1.874776483E0,-6.467201233E0,-1.281356573E0
1.988643912E1,-2.300698996E0,-1.752742529E0,-3.323630571E0
1.990670865E1,-2.271985054E0,-2.593221426E0,-2.916252613E0
1.992697824E1,-1.486541033E0,-2.571686029E0,-4.408775866E-1
1.994724777E1,-8.524430394E-1,-3.333201885E0,-2.509472847E0
1.996751730E1,-2.799602449E-1,-4.673780918E0,-3.206382275E0
1.998778688E1,-1.196411327E-1,-5.641079426E0,-4.451248169E0
2.000805641E1,-1.914258152E-1,-5.940182209E0,-5.959324837E0
2.002832595E1,-6.197410822E-1,-5.550152302E0,-8.566903114E0
2.004872594E1,-4.785645381E-2,-6.984051228E0,-1.142752266E1
2.006886506E1,1.259222865E0,-4.984847546E0,-4.989633560E0
2.008913459E1,4.785645287E-3,-1.683350682E0,-1.398604870E0
2.010940412E1,-1.713859200E0,-5.418546677E0,-8.233702660E0
2.012967365E1,4.659423828E0,-2.803610420E1,-5.897111416E0
2.015007365E1,1.794617027E-1,-2.882633400E1,-1.195214868E0
2.017021277E1,-1.196411327E-1,-6.464808464E0,-4.386641979E0
2.019048230E1,-4.043870270E-1,-4.839483798E-1,-2.751147747E0
2.021074391E1,-2.154736757E0,1.084546804E0,-7.567301393E-1
2.023093485E1,-2.616551638E0,-3.223132133E0,-9.631111473E-2
2.025134042E1,2.225325108E-1,-9.866804123E0,1.273579836E0
2.027155871E1,2.032702923E0,-1.498325729E1,4.594219327E-1
2.029182860E1,2.188236237E0,-1.610130310E1,-8.141579032E-1
2.031209844E1,-3.445664644E-1,-1.077188969E1,-1.085145116E0
2.033236798E1,-1.522433400E0,-5.966503143E0,-7.734799385E-1
2.035276819E1,-2.109273195E0,-4.747958183E0,-1.735992789E0
2.037290746E1,-2.362912416E0,-5.353940487E0,-2.471187592E0
2.039317714E1,-1.445863128E0,-6.598806858E0,-2.416152716E0
2.041344673E1,-3.254238665E-1,-7.523034573E0,-2.282154560E0
2.043371626E1,9.050851464E-1,-8.514261246E0,-1.802991867E0
2.045411636E1,1.946561217E0,-1.081735325E1,-1.637887120E0
2.047425558E1,4.051048756E0,-1.473201084E1,-1.324427366E0
2.049452516E1,5.724828243E0,-1.729352760E1,-1.793420553E0
2.051479475E1,4.814957142E0,-1.622333717E1,-3.565305710E0
2.053506428E1,2.338984251E0,-1.431984711E1,-4.676173687E0
2.055533386E1,-8.853443712E-2,-1.414756393E1,-4.484747887E0
2.057560345E1,-8.069794178E-1,-1.518186188E1,-1.257428288E0
2.059587298E1,3.475574851E-1,-1.418106365E1,2.114058733E0
2.061614251E1,-2.157129526E0,-1.258684540E1,2.592623234E0
2.063641204E1,-5.738586903E0,-1.228235817E1,5.407779217E-1
2.065668157E1,-6.796812534E0,-1.205264759E1,-2.470589429E-1
2.067695110E1,-3.339782238E0,-1.103270721E1,-4.214358807E0
2.069722063E1,-3.014956415E-1,-1.206700420E1,-5.020740032E0
2.071749016E1,1.692921996E0,-1.296969700E1,9.499505758E-1
2.073775964E1,1.199402332E0,-1.224407387E1,4.874179840E0
2.075802917E1,-3.637090325E-1,-9.251250267E0,3.763311863E0
2.077829871E1,-1.134796143E0,-7.360322475E0,-5.413761139E-1
2.079856824E1,-1.646860242E0,-8.295916557E0,-1.762313843E0
2.081883777E1,-2.439482689E0,-5.099703312E0,-4.408775866E-1
2.083910730E1,-2.061416626E0,1.254437327E0,-5.447260857E0
2.085937683E1,-1.393221021E0,-3.009572744E0,-1.953739643E0
2.087964636E1,-1.579262912E-1,-5.765506268E0,-1.499103427E0
2.089991584E1,3.762713671E-1,-6.931408882E0,-3.416950703E0
2.092018537E1,1.292124242E-1,-7.482356548E0,-4.432105541E0
2.094045490E1,-3.613162339E-1,-7.101299286E0,-5.779862881E0
2.096072444E1,-6.771687865E-1,-5.921039581E0,-8.844470978E0
2.098099397E1,1.579262912E-1,-5.894718647E0,-9.265607834E0
2.100126350E1,9.170492887E-1,-3.203989506E0,-2.820539713E0
2.102153303E1,-2.584248483E-1,-1.824527264E0,-5.341976285E-1
2.104180256E1,6.346961856E-1,-6.969694138E0,-7.714460373E0
2.106207199E1,5.650650501E0,-3.251128006E1,-2.003988981E0
2.108234157E1,-6.221338734E-2,-2.405983162E1,-1.884347796E0
2.110261110E1,-2.772084951E0,-4.070191383E0,-5.243870735E0
2.112288063E1,-3.803989887E0,6.029912829E-1,-2.645863533E0
2.114315011E1,-4.733003139E0,-2.207378894E-1,-9.912267923E-1
2.116341964E1,-2.049452543E0,-6.002395630E0,1.962114573E-1
2.118368917E1,2.114058733E0,-1.125284672E1,1.654038668E0
2.120395871E1,4.192225456E0,-1.553839207E1,-3.116651475E-1
2.122422818E1,3.979264021E0,-1.499761391E1,-4.983053207E-1
2.124462818E1,2.528615236E0,-1.037408257E1,-8.787640929E-1
2.126476725E1,2.709871531E-1,-5.842076302E0,-1.149751306E0
2.128503673E1,-8.668000102E-1,-4.259822369E0,-1.968096614E0
2.130530626E1,-1.469791293E0,-5.389832973E0,-2.554936409E0
2.132557579E1,-9.146564603E-1,-7.067800045E0,-2.583650351E0
2.134584527E1,6.221338734E-2,-8.178668022E0,-2.480758905E0
2.136611480E1,1.405783296E0,-9.332606316E0,-1.733600020E0
2.138638433E1,2.877967358E0,-1.151665497E1,-1.707278967E0
2.140665381E1,4.676173687E0,-1.500000668E1,-1.805384636E0
2.142692334E1,5.439484119E0,-1.733420563E1,-2.480758905E0
2.144718501E1,3.464807272E0,-1.541157246E1,-4.719244480E0
2.146738542E1,-2.416750938E-1,-1.302473164E1,-5.416153908E0
2.148773308E1,-3.143570662E0,-1.238046455E1,-4.472783566E0
2.150800235E1,-2.616551638E0,-1.315633678E1,-2.459223509E0
2.152827167E1,1.671386600E0,-1.415234947E1,8.877372146E-1
2.154854100E1,2.550150633E0,-1.263470173E1,1.843071699E0
2.156881048E1,-1.642074585E0,-1.103749275E1,5.264210105E-1
2.158907990E1,-4.130012035E0,-1.166979599E1,-6.562315822E-1
2.160934928E1,-3.198605776E0,-1.301994610E1,-1.884347796E0
2.162961881E1,-1.484148264E0,-1.335254860E1,-3.259024382E0
2.165001876E1,2.805584669E-1,-1.329033470E1,-8.715856671E-1
2.167015766E1,1.446461320E0,-1.318265820E1,1.220937729E0
2.169042714E1,-5.934200287E-1,-1.052542877E1,2.082952023E0
2.171069662E1,-1.201795220E0,-7.779066563E0,1.333400369E0
2.173096610E1,-1.390828133E0,-6.996015072E0,-8.045865893E-1
2.175136605E1,-1.881955028E0,-5.717649937E0,-1.609173179E0
2.177150506E1,-1.858026743E0,-7.375875711E-1,-3.838087559E0
2.179177459E1,-1.295115232E0,-3.112463951E0,-3.081357241E0
2.181204402E1,-6.963114142E-1,-4.067798615E0,-9.553344250E-1
2.183231355E1,-4.187439680E-1,-5.255835056E0,-2.978466034E0
2.185271355E1,2.781656384E-1,-7.120441914E0,-3.795016766E0
2.187285256E1,6.634100676E-1,-7.762316704E0,-4.209573269E0
2.189312204E1,9.098708034E-1,-6.893123627E0,-6.184250355E0
2.191339157E1,-1.316052526E-1,-5.485546112E0,-9.416953087E0
2.193366105E1,-4.283152521E-1,-4.470390797E0,-9.212965012E0
2.195393058E1,-8.500502706E-1,-2.174477577E0,-2.966501951E0
2.197420006E1,-3.014358282E0,-3.854837179E0,-3.529413462E0
2.199446954E1,2.779861689E0,-1.762134361E1,-7.420143127E0
2.201473902E1,3.816552162E0,-3.145544815E1,-3.905086517E0
2.203500850E1,-7.974081635E-1,-9.862018585E0,-4.200001717E0
2.205527803E1,-1.462612867E0,-1.434497118E0,-3.187239647E0
2.207554751E1,-2.171486616E0,1.196411345E-2,-2.827718258E0
2.209581699E1,-3.189034462E0,-3.090928555E0,-8.859425783E-1
2.211608647E1,9.505487680E-1,-1.010608673E1,1.938186288E-1
2.213635600E1,4.671388149E0,-1.626401520E1,-1.343569875E0
2.215662548E1,3.728017569E0,-1.604148293E1,-1.333998680E0
2.217689496E1,2.073380709E0,-1.150469112E1,-1.982453585E0
2.219716444E1,7.160521746E-1,-7.714460373E0,-1.563709617E0
2.221743397E1,-1.893919110E0,-5.157131195E0,-1.415354609E0
2.223770344E1,-3.495315790E0,-4.874777794E0,-1.747956991E0
2.225797292E1,-3.583850145E0,-6.756732941E0,-1.802991867E0
2.227824240E1,-1.836491346E0,-7.898707390E0,-1.810170293E0
2.229851194E1,-3.182454109E-1,-7.700103283E0,-2.229512453E0
2.231878141E1,3.882354796E-1,-8.006384850E0,-1.348355532E0
2.233905089E1,1.228116274E0,-9.308678627E0,-1.123430252E0
2.235932037E1,2.889931440E0,-1.180379391E1,-1.779063582E0
2.237958985E1,5.538187981E0,-1.487797260E1,-2.205584288E0
2.239985938E1,6.382854462E0,-1.583570004E1,-2.133799553E0
2.242012886E1,4.043870449E0,-1.423131275E1,-2.897109985E0
2.244039834E1,-8.614161611E-2,-1.405663681E1,-3.931407690E0
2.246066782E1,-2.978466034E0,-1.505264950E1,-3.694518089E0
2.248093730E1,-1.122832060E0,-1.441077423E1,-1.680957913E0
2.250120678E1,-2.051845312E0,-1.403510094E1,-3.092723191E-1
2.252147631E1,-4.987240791E0,-1.356610775E1,-2.327618122E0
2.254174579E1,-5.841478348E0,-1.236132145E1,-3.993621111E0
2.256201527E1,-4.816751957E0,-1.100638580E1,-2.095514536E0
2.258228475E1,-1.890329868E-1,-1.105424213E1,-1.788634896E0
2.260255423E1,4.314259052E0,-1.370967770E1,-1.826920033E0
2.262282371E1,4.697709084E0,-1.490429401E1,9.427721500E-1
2.264309318E1,1.752742529E0,-1.408056450E1,8.566305041E-1
2.266336266E1,-2.786442041E0,-1.026161957E1,-6.999006122E-2
2.268363214E1,-3.789632797E0,-7.587640762E0,-3.930211067E-1
2.270390162E1,-3.169891834E0,-6.148357868E0,-5.940182209E-1
2.272417110E1,-2.937788010E0,-1.934597135E0,-2.870789051E0
2.274444058E1,-1.709073544E0,-1.781456470E0,-4.034298897E0
2.276471006E1,-7.752745152E-1,-4.587639332E0,-9.792626500E-1
2.278497954E1,-2.703889608E-1,-3.663411379E0,-4.073780477E-1
2.280524902E1,-2.368894368E-1,-3.976871252E0,-2.306082726E0
2.282551850E1,-9.912267923E-1,-4.575675011E0,-3.074178934E0
2.284578798E1,-1.010369420E0,-4.015156269E0,-3.692125320E0
2.286605746E1,-6.819544435E-1,-2.641077995E0,-4.427320004E0
2.288632694E1,-7.609176040E-1,-2.497508526E0,-5.243870735E0
2.290659641E1,-4.857429862E-1,-3.390629768E0,-6.014359951E0
2.292686589E1,1.698904037E-1,-4.618745804E0,-7.523034573E0
2.294713537E1,1.331605792E0,-6.388238430E0,-9.895518303E0
2.296740485E1,2.406581402E0,-7.613961697E0,-1.078385353E1
2.298767433E1,2.319841623E0,-7.920242786E0,-1.176550865E1
2.300794376E1,3.929014683E0,-7.891529083E0,-1.036451149E1
2.302821324E1,2.638086975E-1,-1.120977592E1,-1.486600876E1
2.304861324E1,-3.567100286E0,-1.774636841E1,-6.596413612E0
2.306875220E1,-3.148356438E0,-1.106859970E1,-1.881955028E0
2.308902167E1,-5.822335720E0,-4.738387108E0,-6.076572895E0
2.310929115E1,-4.999204636E0,-7.926225066E-1,-2.095514536E0
2.312956063E1,-3.765704632E0,-2.205584288E0,-2.418545485E0
2.314996063E1,-2.721835852E0,-7.836493969E0,-2.112264156E0
2.317009959E1,-7.998009920E-1,-1.509811306E1,-2.327618122E0
2.319036907E1,1.261615753E0,-1.611805344E1,-1.812563181E0
2.321060735E1,1.074975610E0,-1.106859970E1,-2.164906263E0
2.323056308E1,2.081755698E-1,-7.846065521E0,-2.844467878E0
2.325096308E1,-1.770688742E-1,-6.634698868E0,-2.861217737E0
2.327136308E1,-5.048855543E-1,-6.692126751E0,-2.035095692E0
2.329170136E1,1.339980662E-1,-7.881958008E0,-1.290927768E0
2.331197334E1,1.237687469E0,-9.816555023E0,-1.731207132E0
2.333224261E1,2.954537868E0,-1.138205910E1,-2.164906263E0
2.335264532E1,2.305484533E0,-1.115474129E1,-1.661815286E0
2.337278621E1,8.165507317E-1,-9.972088814E0,-1.164108157E0
2.339305725E1,5.006981492E-1,-9.031110764E0,-1.017547846E0
2.341332798E1,6.346961856E-1,-8.765507698E0,-1.123430252E0
2.343359735E1,2.925225794E-1,-9.052646637E0,-1.144965649E0
2.345399844E1,-7.441678643E-1,-8.576474190E0,-1.408176184E0
2.347413818E1,-3.517449200E-1,-8.375477791E0,-1.551745534E0
2.349440834E1,4.432703853E-1,-8.808578491E0,-1.429711580E0
2.351467829E1,9.960124493E-1,-9.356534958E0,-1.355534077E0
2.353494818E1,1.348355532E0,-9.222537041E0,-1.668993831E0
2.355521798E1,1.640279889E0,-8.483154297E0,-2.181656122E0
2.357548766E1,2.114058733E0,-8.243273735E0,-2.535793781E0
2.359575740E1,1.958525300E0,-8.121239662E0,-3.402593851E0
2.361602699E1,2.153540403E-1,-8.337192535E0,-3.797409534E0
2.363629662E1,-1.199402332E0,-8.966505051E0,-1.432104349E0
2.365656621E1,-1.579262912E-1,-1.050867844E1,2.078166485E0
2.367683568E1,-3.565305769E-1,-1.347218990E1,2.475374937E0
2.369710511E1,-2.786442041E0,-1.644108391E1,2.618944407E0
2.371750522E1,-8.705088615E0,-1.899602127E1,1.319043517E0
2.373764417E1,-1.198744297E1,-1.762852287E1,-1.195214868E0
2.375791371E1,-7.931608677E0,-1.539721584E1,-2.494517565E-1
2.377818319E1,-3.799204111E0,-1.445145226E1,1.747358680E0
2.379845266E1,7.178468257E-2,-1.236132145E1,5.072783828E-1
2.381872214E1,3.375674486E0,-1.096092224E1,-2.757728100E-1
2.383899162E1,3.229712248E0,-9.426525116E0,-4.193421602E-1
2.385926115E1,7.184450030E-1,-7.377072334E0,3.110669553E-1
2.387953058E1,-3.014956415E-1,-5.265406132E0,3.014956415E-1
2.389980001E1,-5.359922647E-1,-3.653840065E0,-4.624129832E-1
2.392006949E1,-7.878368497E-1,-2.184048891E0,-1.188036442E0
2.394033891E1,-1.395613790E0,-1.408176184E0,-3.239881754E0
2.396060839E1,-6.245267391E-1,-3.371487141E0,-3.543770313E0
2.398087782E1,8.117650747E-1,-5.748756409E0,-2.282154560E0
2.400114725E1,2.087737799E0,-6.996015072E0,-2.126621008E0
2.402141673E1,1.788634896E0,-7.180262566E0,-2.794218540E0
2.404168615E1,6.801598072E-1,-6.661019802E0,-3.792623997E0
2.406195563E1,2.805584669E-1,-6.785446644E0,-5.514259815E0
2.408222511E1,-5.312066078E-1,-8.281558990E0,-7.908278942E0
2.410249454E1,-2.200200319E0,-1.210768223E1,-9.553344727E0
2.412276397E1,-3.454637766E0,-1.602951813E1,-9.239286423E0
2.414303344E1,-1.816750646E0,-1.392742443E1,-8.126026154E0
2.416330287E1,2.059023857E0,-8.619544983E0,-6.371488571E0
2.418370287E1,3.327818155E0,-4.795814991E0,-7.372286797E0
2.420384178E1,9.002995491E-1,-5.420939922E0,-8.001599312E0
2.422411121E1,-7.657032460E-2,-1.412363529E1,-5.413761139E0
2.424438063E1,-6.739385128E0,-2.286940193E1,1.244866014E0
2.426465006E1,-3.758526087E0,-1.896969986E1,3.126821041E0
2.428491954E1,-3.602992773E0,-5.676971912E0,4.307080746E0
2.430518897E1,-3.167499065E0,-6.873382926E-1,3.054438114E0
2.432545839E1,-1.118046403E0,-2.715255499E0,2.994617462E0
2.434572782E1,-9.888339639E-1,-8.901898384E0,3.708875179E-1
2.436599730E1,6.203392744E-1,-1.873520279E1,-7.423732281E-1
2.438626673E1,1.948953986E0,-2.153839493E1,1.004985452E0
2.440653615E1,1.917847395E0,-1.339322662E1,8.255237937E-1
2.442680558E1,2.988037348E0,-8.149953842E0,2.358126640E0
2.444707506E1,2.269592285E0,-4.846064091E0,1.163509965E0
2.446734449E1,1.972882271E0,-3.806980848E0,9.332008660E-2
2.448761391E1,7.208378315E-1,-6.460022926E0,-1.077966571E0
2.450788334E1,-1.211366415E0,-1.067378330E1,-2.609971285E0
2.452815277E1,1.268794179E0,-1.242353535E1,-2.239083767E0
2.454842220E1,3.637090445E0,-1.160997581E1,-1.266999602E0
2.456869162E1,3.062214851E0,-1.013479996E1,6.197410822E-1
2.458896105E1,2.181057930E0,-9.217751503E0,1.204187989E0
2.460923053E1,1.664208174E0,-9.004789352E0,6.125625968E-1
2.462949996E1,1.817348838E0,-9.057432175E0,-1.235892892E0
2.464989996E1,1.228116274E0,-8.779864311E0,-2.581257343E0
2.467003881E1,3.260220885E-1,-8.454441071E0,-2.341975212E0
2.469030824E1,-2.033899277E-1,-8.018348694E0,-4.432703853E-1
2.471057766E1,-5.312066078E-1,-7.992027760E0,1.228116274E0
2.473084709E1,-6.149554253E-1,-1.001994514E1,2.153540403E-2
2.475124709E1,-3.445664644E-1,-1.492343616E1,-3.421736479E0
2.477138595E1,8.572286963E-1,-1.713560104E1,-5.152345181E0
2.479165537E1,2.260020971E0,-1.551207066E1,-4.417748928E0
2.481192480E1,1.597209096E0,-1.520100403E1,-3.160918713E0
2.483219423E1,2.487937450E0,-1.563470268E1,-2.374876440E-1
2.485259423E1,3.742374659E0,-1.389153194E1,9.116654396E-1
2.487273308E1,8.739784956E-1,-1.257248878E1,1.512862086E0
2.489300256E1,-1.795215130E0,-1.199043465E1,-1.944168359E-1
2.491327199E1,-2.724228621E0,-1.274955750E1,-3.427718580E-1
2.493354141E1,-1.867598057E0,-1.312283802E1,1.125224829E0
2.495394141E1,8.500502706E-1,-1.218664551E1,-1.633101404E-1
2.497408027E1,1.841277003E0,-1.211007500E1,-2.308475733E0
2.499434970E1,3.810569942E-1,-1.234696484E1,-4.241278172E-1
2.501461912E1,-1.144367456E0,-1.261555958E1,1.500898004E0
2.503488855E1,-2.240878344E0,-1.118106174E1,-2.327020019E-1
2.505515798E1,-2.291127682E0,-1.054935646E1,-4.743770957E-1
2.507542740E1,-1.493719578E0,-1.004387283E1,5.958128572E-1
2.509569683E1,-1.182652593E0,-7.424928665E0,-3.379862010E-1
2.511596626E1,-4.666004181E-1,2.392822653E-1,-3.100499868E0
2.513623569E1,9.481559992E-1,-1.314856052E0,-2.710469961E0
2.515650516E1,1.374676585E0,-4.735994339E0,-1.204786181E0
2.517677459E1,2.392822653E-1,-3.991228104E0,-1.936989903E0
2.519704402E1,-4.905286431E-1,-4.338785648E0,-3.033500910E0
2.521731345E1,-1.603191197E-1,-4.917848587E0,-4.257429600E0
2.523758287E1,2.009970993E-1,-4.566103935E0,-4.891527653E0
2.525785235E1,1.052841991E-1,-3.991228104E0,-5.753541946E0
2.527812178E1,4.959124923E-1,-4.243072987E0,-7.360322475E0
2.529839121E1,1.398604870E0,-5.767899036E0,-8.586046219E0
2.531866063E1,2.037488461E0,-5.449653625E0,-5.516652584E0
2.533893011E1,7.591229677E-1,-5.894718647E0,-1.059242725E1
2.535919954E1,9.744769931E-1,-2.101436615E1,-4.223930359E0
2.537946897E1,-4.905286431E-1,-2.681995201E1,-3.385843992E0
2.539973839E1,-4.067798555E-1,-8.305487633E0,-5.310869694E0
2.542000787E1,-8.333004713E-1,-9.936196208E-1,-2.315654039E0
2.544027730E1,-1.579861164E0,2.632105052E-1,-1.750349760E0
2.546054673E1,-3.198605776E0,-2.428116798E0,1.674975902E-1
2.548081621E1,-1.339980662E-1,-1.059242725E1,-1.561316848E-1
2.550108563E1,2.944966555E0,-1.826561165E1,-2.246262312E0
2.552135506E1,1.637887120E0,-1.692263985E1,-1.312463164E0
2.554162454E1,1.456032634E0,-1.259163094E1,-2.174477577E0
2.556189397E1,6.873382926E-1,-7.877171993E0,-1.250249863E0
2.558216339E1,-7.178467698E-3,-5.440082073E0,-6.442674994E-1
2.560243287E1,-7.776673436E-1,-5.049454212E0,-7.615157962E-1
2.562270230E1,-1.841277003E0,-6.483951092E0,-5.772684813E-1
2.564297178E1,-1.761715651E0,-9.031110764E0,-5.485545993E-1
2.566324121E1,-1.086939692E0,-9.921838760E0,-4.504488707E-1
2.568351063E1,-5.814558864E-1,-9.718449593E0,-1.192822099E0
2.570378011E1,2.440679073E-1,-9.771091461E0,-2.633899450E0
2.572404954E1,2.700898647E0,-1.137488079E1,-2.621935368E0
2.574444954E1,5.763113499E0,-1.384846115E1,-1.637887120E0
2.576458844E1,7.218547821E0,-1.509811306E1,-1.570888042E0
2.578485792E1,5.535795212E0,-1.412842083E1,-3.371487141E0
2.580512735E1,2.116451740E0,-1.330229950E1,-5.432903767E0
2.582539678E1,-1.438684583E0,-1.294816113E1,-5.820540905E0
2.584566626E1,-1.436291814E0,-1.359960747E1,-2.985644341E0
2.586593568E1,1.936989903E0,-1.264188004E1,1.029511929E0
2.588620516E1,-3.349951655E-2,-1.185165024E1,1.756929994E0
2.590647459E1,-3.713062525E0,-1.157886887E1,-1.250249892E-1
2.592674407E1,-3.265604734E0,-1.255813122E1,-1.355534077E0
2.594701350E1,-6.005984545E-1,-1.290509033E1,-1.752742529E0
2.596741350E1,4.025924206E-1,-1.250548935E1,-9.050851464E-1
2.598755240E1,6.155536175E-1,-1.291944790E1,3.661018610E-1
2.600782188E1,2.033899277E-1,-1.356371498E1,1.271187067E0
2.602809136E1,-2.245664120E0,-1.127677536E1,2.729014158E0
2.604836079E1,-3.138785124E0,-9.258428574E0,1.584646821E0
2.606863027E1,-2.944966555E0,-9.234500885E0,-1.118644595E0
2.608889970E1,-2.449054003E0,-8.746364594E0,-1.274178028E0
2.610916917E1,-2.587837696E0,-1.039083242E0,-3.086143017E0
2.612943860E1,-1.448255897E0,-1.007976532E0,-3.972085476E0
2.614983860E1,2.632104978E-2,-3.948157310E0,-3.649054468E-2
2.616997756E1,5.294120312E-1,-4.130012035E0,-2.200798512E0
2.619024699E1,4.073780477E-1,-4.551746845E0,-3.579662561E0
2.621047006E1,4.432703853E-1,-5.686542988E0,-4.793421745E0
2.623026970E1,1.039083242E0,-6.816553593E0,-6.955337048E0
2.625066970E1,8.931210637E-1,-6.314060688E0,-9.586843491E0
2.627106970E1,4.767699242E-1,-4.307679176E0,-6.699305058E0
2.629146970E1,-4.163511395E-1,-1.616351724E0,-7.375875711E-1
2.631183928E1,-1.414756417E0,-3.656233072E0,-1.284048462E1
2.633210746E1,4.501497746E0,-2.403829575E1,6.747759581E-1
2.635251298E1,-5.000999570E-1,-2.954477882E1,-6.651448727E0
2.637265594E1,-1.443470240E0,-7.518248558E0,-3.129213810E0
2.639292871E1,-1.953739643E0,-6.035895348E-1,-4.925027370E0
2.641320074E1,-4.759324074E0,8.853443861E-1,-1.295713425E0
2.643347001E1,-4.673182487E0,-2.085943222E0,-4.193421602E-1
2.645387225E1,2.614158690E-1,-1.053260708E1,8.279166222E-1
2.647401277E1,3.866801500E0,-1.812922096E1,-9.026923180E-1
2.649428365E1,3.069393158E0,-1.742991829E1,-1.582852125E0
2.651455417E1,1.812563181E0,-1.243071365E1,-1.633101463E0
2.653482438E1,2.392822644E-3,-7.273582458E0,-7.950153351E-1
2.655509459E1,-1.565504193E0,-4.250251293E0,-3.906283081E-1
2.657536459E1,-2.444268227E0,-4.060619831E0,-9.696913958E-1
2.659563449E1,-1.968096614E0,-5.949753284E0,-1.154536963E0
2.661590428E1,-2.584248483E-1,-7.814958572E0,-1.881955028E0
2.663617376E1,2.081755698E-1,-8.075776100E0,-2.820539713E0
2.665657407E1,3.667000830E-1,-9.071788788E0,-2.210369825E0
2.667671318E1,5.270192027E-1,-1.043210888E1,-1.477568030E0
2.669698287E1,1.609173179E0,-1.264905834E1,-1.929811478E0
2.671725251E1,4.542175770E0,-1.558864117E1,-2.131406784E0
2.673752204E1,6.524629116E0,-1.645065498E1,-2.298904419E0
2.675779162E1,5.538187981E0,-1.447298813E1,-3.663411379E0
2.677806115E1,2.906681299E0,-1.424806213E1,-4.125226021E0
2.679833069E1,-2.751746178E-1,-1.458604908E1,-3.768695593E0
2.681860022E1,-9.553344250E-1,-1.452323723E1,-1.051047325E0
2.683886975E1,-3.828516230E-2,-1.281655598E1,1.460219979E0
2.685913923E1,-2.233700037E0,-1.180618668E1,1.409970760E0
2.687940871E1,-5.319842815E0,-1.121456146E1,-9.696913958E-1
2.689967819E1,-5.985645771E0,-1.128634644E1,-1.702493310E0
2.691994772E1,-2.056631088E0,-1.070249748E1,-2.600399971E0
2.694021720E1,1.434497118E0,-1.125045395E1,-2.631506681E0
2.696048667E1,3.263211966E0,-1.242832088E1,6.891329288E-1
2.698075615E1,3.481556892E0,-1.300319672E1,2.989831924E0
2.700102563E1,1.058225870E0,-1.160040379E1,2.283949137E0
2.702129516E1,-1.411765367E-1,-9.608379364E0,-4.265206456E-1
2.704156464E1,-1.589432478E0,-9.869196892E0,-1.630708575E0
2.706183407E1,-2.791227579E0,-8.916254997E0,-4.145565331E-1
2.708210355E1,-3.308675528E0,-1.724028707E0,-2.885145903E0
2.710237303E1,-2.729014158E0,-1.877169371E0,-5.279763222E0
2.712264251E1,-4.977070987E-1,-4.714458942E0,-6.945167780E-1
2.714291199E1,8.763712645E-1,-4.896313190E0,-2.578864574E0
2.716318147E1,1.096511006E0,-6.321238995E0,-3.897907972E0
2.718345094E1,7.088736892E-1,-7.206583500E0,-4.262215137E0
2.720372042E1,6.514459848E-1,-6.792625427E0,-6.495915413E0
2.722398990E1,2.249253243E-1,-5.679364681E0,-8.755936623E0
2.724425938E1,-3.589234129E-2,-3.038286448E0,-5.018347263E0
2.726452886E1,-1.359721422E0,-6.825526357E-1,-5.485545993E-1
2.728479834E1,-1.426720500E0,-1.228714466E0,-1.489532113E0
2.730506782E1,3.457628727E0,-1.565384579E1,-8.978468895E0
2.732533730E1,1.451246977E0,-3.774976730E1,1.826321840E0
2.734560678E1,-3.062812984E-1,-1.355653667E1,-3.701696634E0
2.736587626E1,-1.551147223E0,-2.320439816E0,-4.508676052E0
2.738614574E1,-3.617349625E0,5.838487148E-1,-2.284547329E0
2.740641522E1,-4.591826439E0,-2.112264156E0,-9.194421172E-1
2.742668470E1,-9.098708034E-1,-7.865208149E0,5.120640397E-1
2.744695417E1,1.908276081E0,-1.418345642E1,1.009771109E0
2.746722365E1,3.452843189E0,-1.848575211E1,-9.601200819E-1
2.748749313E1,2.533401012E0,-1.307498074E1,-8.835497499E-1
2.750776261E1,5.988038778E-1,-7.194619656E0,-9.649057388E-1
2.752803209E1,-5.335994363E-1,-4.747958183E0,-9.744769931E-1
2.754843209E1,-1.766501307E0,-4.628317356E0,-1.836491346E0
2.756857105E1,-2.075773716E0,-6.361917019E0,-1.934597135E0
2.758884053E1,-7.298108935E-1,-8.574081421E0,-2.229512453E0
2.760911006E1,9.505487680E-1,-1.119781208E1,-2.732005358E0
2.762937954E1,2.901895761E0,-1.392263889E1,-1.453639746E0
2.764977954E1,4.750350952E0,-1.601516151E1,1.938186288E-1
2.766991850E1,5.818148136E0,-1.542353630E1,-2.337189436E0
2.769018803E1,4.704887390E0,-1.305344582E1,-5.195415974E0
2.771045751E1,2.047059774E0,-1.211246777E1,-5.533402443E0
2.773072699E1,-1.956132531E0,-1.204068375E1,-4.549354076E0
2.775112699E1,-3.208176851E0,-1.336690521E1,-1.448854089E0
2.777126600E1,8.237292171E-1,-1.268734360E1,9.332008362E-1
2.779153548E1,4.289134443E-1,-1.103270721E1,1.788036704E0
2.781180501E1,-2.341377020E0,-1.134616661E1,7.585247755E-1
2.783207449E1,-2.173879385E0,-1.245942783E1,-2.980858803E0
2.785247449E1,-4.139583111E-1,-1.333101273E1,-6.409773827E0
2.787261345E1,-4.857429862E-1,-1.298166084E1,-2.633899450E0
2.789288298E1,4.719842672E-1,-1.305344582E1,2.041675806E0
2.791315246E1,8.069794178E-1,-1.301516056E1,4.622933388E0
2.793342199E1,-1.036690354E0,-9.991230965E0,3.674777269E0
2.795369147E1,-1.491326690E0,-8.621937752E0,1.411765367E-1
2.797396094E1,-1.182652593E0,-1.018744278E1,-1.886740685E0
2.799423048E1,-2.166700840E0,-9.184251785E0,2.225325108E-1
2.801449996E1,-2.018345833E0,-1.568495274E0,-2.856431961E0
2.803476949E1,-2.142772675E0,1.247258782E0,-6.448058605E0
2.805503897E1,-4.785645287E-3,-6.383452415E0,-1.834098577E0
2.807530850E1,1.322034478E0,-7.951349735E0,-3.043072224E0
2.809557798E1,1.482353687E0,-7.465606689E0,-4.173680782E0
2.811584751E1,7.423732281E-1,-5.691328526E0,-5.239085197E0
2.813611699E1,-3.493520916E-1,-3.893122435E0,-8.087740898E0
2.815638652E1,1.483550072E-1,-3.125026464E0,-8.880363464E0
2.817665605E1,5.748756528E-1,-9.649057388E-1,-1.910668850E0
2.819692553E1,-1.483550072E-1,-5.557330847E-1,4.905286431E-1
2.821732553E1,1.759921074E0,-7.972885132E0,-1.120499039E1
2.823746454E1,5.331807137E0,-3.558067322E1,1.051047325E0
2.825773407E1,-1.039083242E0,-2.012124634E1,-3.787838221E0
2.827800355E1,-2.212164640E0,-3.419343472E0,-4.127619267E0
2.829827308E1,-3.064607620E0,9.834501147E-1,-3.414557934E0
2.831854256E1,-4.742574692E0,-6.275177598E-1,-6.155536175E-1
2.833881209E1,-1.197009563E0,-6.931408882E0,1.986042857E-1
2.835908162E1,2.851646423E0,-1.385803223E1,1.424327731E0
2.837935110E1,3.806980848E0,-1.772244072E1,8.614161611E-2
2.839962063E1,3.981656790E0,-1.525843143E1,-3.044866920E-1
2.841989016E1,1.817348838E0,-9.845269203E0,-5.581258535E-1
2.844015964E1,-1.168295622E0,-5.913861275E0,-7.256234884E-1
2.846042917E1,-2.822334290E0,-5.229514122E0,-1.728814363E0
2.848069871E1,-3.215355396E0,-6.742375851E0,-1.783849239E0
2.850096818E1,-1.534397483E0,-7.702496052E0,-2.425724030E0
2.852123772E1,2.488535494E-1,-8.161917686E0,-2.516651154E0
2.854150725E1,1.903490424E0,-9.095717430E0,-1.281356573E0
2.856177673E1,3.354139090E0,-1.099681473E1,-2.757728100E-1
2.858204626E1,5.015954494E0,-1.381974697E1,-1.448854089E0
2.860231579E1,5.396413326E0,-1.554796314E1,-3.818944931E0
2.862258527E1,3.637090445E0,-1.463151264E1,-5.382654667E0
2.864285480E1,1.755135417E0,-1.370967770E1,-4.980062008E0
2.866312433E1,-7.585247755E-1,-1.348176098E1,-4.204787731E0
2.868339386E1,-4.139583111E-1,-1.393699551E1,-1.176072359E0
2.870366339E1,6.849454641E-1,-1.320897961E1,1.587039590E0
2.872393287E1,-2.611765862E0,-1.228953743E1,1.132403374E0
2.874420240E1,-5.169095039E0,-1.186361504E1,-1.685743570E0
2.876447194E1,-5.307878971E0,-1.235892868E1,-2.164906263E0
2.878474147E1,-1.043868899E0,-1.185404301E1,-4.000799656E0
2.880501100E1,1.908276081E0,-1.180140114E1,-3.381058455E0
2.882528053E1,2.552543640E0,-1.289312649E1,1.060618639E0
2.884555006E1,2.181057930E0,-1.352303696E1,4.402793884E0
2.886581954E1,-6.412764788E-1,-1.074556828E1,3.251247883E0
2.888608907E1,-1.455434322E0,-8.188239098E0,-6.610172391E-1
2.890635860E1,-1.642074585E0,-8.825327873E0,-1.764706731E0
2.892662808E1,-2.413161755E0,-6.728019238E0,2.177468538E-1
2.894689766E1,-1.908276081E0,1.680359721E0,-4.257429600E0
2.896716720E1,-1.579861164E0,-1.130608678E0,-3.830909014E0
2.898743673E1,-2.273181528E-1,-6.172286034E0,-1.592423439E0
2.900770626E1,6.203392744E-1,-6.917052269E0,-3.572484255E0
2.902797584E1,6.466603279E-1,-7.074978352E0,-4.065405846E0
2.904824542E1,3.714857101E-1,-6.627520561E0,-5.404190063E0
2.906851496E1,-9.810572863E-2,-5.251049519E0,-8.933005333E0
2.908878449E1,-8.374879509E-2,-3.541377544E0,-8.806185722E0
2.910905402E1,-4.881358147E-1,-6.370890141E-1,-1.724028707E0
2.912932355E1,-1.424327731E0,-5.892325640E-1,-3.571287692E-1
2.914972355E1,2.772683144E0,-1.253659630E1,-1.263948727E1
2.916986261E1,3.988835335E0,-3.702414322E1,2.823530734E-1
2.919013220E1,4.049852192E-1,-1.527039623E1,-3.711267948E0
2.921035907E1,-2.799602449E-1,-2.581257343E0,-4.271786690E0
2.923019777E1,-2.008774519E0,6.149554253E-1,-2.411366940E0
2.925059777E1,-4.285545349E0,-8.883354068E-1,-9.984052777E-1
2.927099777E1,-1.213759303E0,-7.125227451E0,-1.920240223E-1
2.929139777E1,1.869990945E0,-1.369532013E1,5.288137794E-1
2.931172688E1,2.736790895E0,-1.671685791E1,-1.544566989E0
2.933199532E1,1.417747378E0,-1.428395462E1,-7.998009920E-1
2.935240037E1,-3.326023519E-1,-1.007258701E1,-1.317248821E0
2.937254318E1,-3.086143017E0,-5.887540340E0,-1.087537885E0
2.939281574E1,-3.126821041E0,-4.518247128E0,-6.418746710E-1
2.941308766E1,-2.047059774E0,-6.907480717E0,-5.676971674E-1
2.943335699E1,3.882354796E-1,-9.921838760E0,-1.269392371E0
2.945375907E1,3.078964472E0,-1.193300629E1,-2.339582443E0
2.947389970E1,5.102096081E0,-1.380539036E1,-1.621137381E0
2.949417058E1,6.071787357E0,-1.519621849E1,-8.913264424E-2
2.951444105E1,5.427519798E0,-1.485404491E1,-2.710469961E0
2.953471141E1,1.441675663E0,-1.271366501E1,-6.186643124E0
2.955498157E1,-2.518445730E0,-1.155015469E1,-6.979265213E0
2.957525162E1,-4.472185612E0,-1.187797165E1,-4.141975880E0
2.959552162E1,-1.541576028E0,-1.263948727E1,7.800601721E-1
2.961579147E1,1.185045362E0,-1.169372463E1,2.642872572E0
2.963606131E1,-1.479362607E0,-1.231825066E1,2.384447813E0
2.965633110E1,-3.562314749E0,-1.285244846E1,-1.561316848E-1
2.967660074E1,-1.862812400E0,-1.378624725E1,-5.114060402E0
2.969687053E1,-1.046261668E0,-1.296251869E1,-5.590830326E0
2.971714022E1,-1.992024899E0,-1.269212914E1,-1.278963685E0
2.973740990E1,-1.249651670E0,-1.293859005E1,1.866999865E0
2.975767954E1,1.459621787E-1,-1.185643578E1,2.805584431E0
2.977794912E1,2.297109663E-1,-9.486345291E0,1.220937729E0
2.979821876E1,6.251249313E-1,-9.090931892E0,-2.176870346E0
2.981848839E1,4.863412082E-1,-8.928219795E0,-1.968096614E0
2.983875803E1,-4.498506486E-1,-4.920241356E0,-8.691928387E-1
2.985902761E1,-7.998009920E-1,2.321037948E-1,-4.752744198E0
2.987929720E1,-1.218544960E0,-4.503890514E0,-6.466603279E-1
2.989956683E1,-1.407577872E0,-4.563711166E0,-3.643072546E-1
2.991983641E1,-1.527219057E0,-4.417748928E0,-3.151347399E0
2.994010595E1,-1.953739643E0,-4.616353035E0,-3.342773199E0
2.996037553E1,-2.214557409E0,-3.136990547E0,-4.101297855E0
2.998064511E1,-2.183450699E0,-2.032702923E0,-5.075775146E0
3.000091475E1,-1.194616675E0,-2.337189436E0,-5.935396671E0
3.002118433E1,7.280163169E-1,-4.007977962E0,-7.467999458E0
3.004145391E1,2.992822886E0,-5.020740032E0,-9.031110764E0
3.006172350E1,3.847658873E0,-5.478367329E0,-1.176311588E1
3.008199308E1,2.897109985E0,-5.765506268E0,-1.301276779E1
3.010226272E1,3.412165165E0,-6.373881340E0,-1.059721375E1
3.012253230E1,-2.161915302E0,-1.369292736E1,-1.777747536E1
3.014280188E1,-3.567100286E0,-1.210050392E1,6.963114142E-1
3.016307147E1,-4.811966419E0,-1.006780148E1,-5.423332691E0
3.018334105E1,-4.944169998E0,-5.411368370E0,-4.671388149E0
3.020361068E1,-3.045464993E0,-1.824527264E0,-2.193620205E0
3.022388027E1,-2.056631088E0,-5.413761139E0,-1.324427366E0
3.024428027E1,3.349951655E-2,-1.292901897E1,-9.768698215E-1
3.026441944E1,4.409972191E0,-1.940997887E1,-1.319641709E0
3.028468902E1,3.835694790E0,-1.528953838E1,-6.921239495E-1
3.030495860E1,1.396211982E0,-1.058285618E1,-2.332403898E0
3.032522818E1,-1.132403374E0,-7.771887779E0,-3.354737282E0
3.034549782E1,-2.456232548E0,-6.304489613E0,-2.117049932E0
3.036576740E1,-2.303091764E0,-5.956932068E0,-5.078766346E-1
3.038603699E1,-7.465606928E-1,-7.578069210E0,-7.088736892E-1
3.040630657E1,1.532602906E0,-1.077667522E1,-9.649057388E-1
3.042657615E1,2.418545485E0,-1.205982590E1,8.255237937E-1
3.044684579E1,1.551745534E0,-9.629914284E0,2.535195589E0
3.046724579E1,1.558923960E0,-8.394619942E0,1.455434322E0
3.048738496E1,1.791027784E0,-7.635497093E0,-5.294120312E-1
3.050765454E1,9.810572863E-2,-6.914659023E0,-1.649851203E0
3.052792417E1,-1.151545882E0,-7.444071293E0,-1.996810555E0
3.054819376E1,-7.250252366E-1,-7.956135273E0,-4.935196638E-1
3.056846334E1,-1.124626622E-1,-8.020741463E0,1.838286042E0
3.058873292E1,1.148554832E-1,-7.810173035E0,1.185045362E0
3.060900251E1,1.603191197E-1,-8.226524353E0,-2.557329178E0
3.062927214E1,9.098708034E-1,-8.906683922E0,-5.094917774E0
3.064967214E1,1.432104349E0,-9.732806206E0,-2.765504837E0
3.066981131E1,1.082154036E0,-1.043928719E1,-9.026923180E-1
3.069008089E1,8.715856671E-1,-9.541379929E0,-1.743171334E0
3.071035053E1,1.936989903E0,-9.644271851E0,-9.577272534E-1
3.073062011E1,3.876372576E0,-1.247617722E1,1.244866014E0
3.075102011E1,2.602792740E0,-1.443948841E1,2.511267424E0
3.077115928E1,-1.481755376E0,-1.448016644E1,2.039283037E0
3.079142891E1,-5.934798241E0,-1.522253990E1,-1.812563181E0
3.081169850E1,-9.485747337E0,-1.682931900E1,-1.984846354E0
3.083196808E1,-1.066600704E1,-1.516989708E1,-1.345962763E0
3.085236808E1,-9.023334503E0,-1.395853043E1,-5.389832854E-1
3.087250730E1,-5.066203594E0,-1.194257736E1,8.159525394E-1
3.089277688E1,-2.392822644E-3,-1.001037312E1,3.182454109E-1
3.091304652E1,2.586043119E0,-9.342177391E0,-8.835497499E-1
3.093331610E1,2.106880426E0,-8.020741463E0,-1.549352646E0
3.095358568E1,1.201795220E0,-5.997610092E0,9.810572863E-2
3.097385527E1,6.586244106E-1,-4.226323128E0,-1.537388563E-1
3.099412490E1,-3.158525825E-1,-4.115654945E0,-1.948953986E0
3.101439449E1,-1.094118118E0,-4.704887390E0,-3.282952785E0
3.103466407E1,-9.744769931E-1,-5.152345181E0,-4.192823410E0
3.105493371E1,5.503492057E-2,-6.220142365E0,-3.914657831E0
3.107520329E1,1.805384636E0,-7.237690449E0,-3.136990547E0
3.109547287E1,2.161915302E0,-7.362715244E0,-4.103690624E0
3.111574251E1,7.184450030E-1,-7.206583500E0,-5.636293888E0
3.113601204E1,-5.958128572E-1,-7.134799004E0,-7.273582458E0
3.115628167E1,-1.925025821E0,-7.094120979E0,-8.413763046E0
3.117655131E1,-2.909074068E0,-7.709674358E0,-8.257631302E0
3.119682089E1,-2.793620348E0,-9.220144272E0,-7.298109055E0
3.121709048E1,-1.163509965E0,-1.047278690E1,-6.780661106E0
3.123736011E1,2.638086975E-1,-9.553344727E0,-6.505486488E0
3.125762964E1,3.667000830E-1,-7.220940590E0,-7.259225845E0
3.127789928E1,-1.201795220E0,-6.984051228E0,-9.596415520E0
3.129816891E1,-3.789632797E0,-1.223928738E1,-8.930612564E0
3.131843850E1,-7.352545738E0,-1.971386719E1,-2.353939295E0
3.133870808E1,-7.027122021E0,-1.513161182E1,3.803989887E0
3.135897766E1,-3.064607620E0,-4.726422787E0,4.307080805E-2
3.137924730E1,1.566102386E0,-4.173680782E0,2.729014158E0
3.139951688E1,3.907479286E0,-6.711269379E0,3.717848301E0
3.141978652E1,9.361918569E-1,-1.501675701E1,-7.136593461E-1
3.144005610E1,2.430509567E0,-1.899841309E1,-4.193421602E-1
3.146032568E1,3.469592810E0,-1.608934021E1,-9.074779749E-1
3.148059527E1,2.858824968E0,-1.170090294E1,-1.238285661E0
3.150086485E1,1.372283816E0,-8.339585304E0,-2.480758905E0
3.152113449E1,1.108475089E0,-6.102894306E0,-1.834098577E0
3.154140407E1,7.471588850E-1,-4.786243439E0,-1.367498159E0
3.156167365E1,-3.469592929E-1,-4.439284325E0,-1.913061738E0
3.158194324E1,-4.235295951E-1,-7.012764931E0,-1.905883193E0
3.160221287E1,6.705885530E-1,-1.134138107E1,-2.003988981E0
3.162248246E1,1.915454507E0,-1.211725426E1,-2.710469961E0
3.164275204E1,2.794218540E0,-9.991230965E0,-1.582852125E0
3.166302162E1,2.499901533E0,-9.327820778E0,-1.489532143E-1
3.168329121E1,1.369890928E0,-9.495916367E0,1.268195957E-1
3.170356079E1,7.064808607E-1,-9.661021233E0,1.220339537E-1
3.172383042E1,5.102694035E-1,-8.815756798E0,3.589234129E-2
3.174410001E1,1.938186288E-1,-7.814958572E0,-1.369890928E0
3.176436959E1,-8.404789567E-1,-8.157132149E0,-2.516651154E0
3.178463928E1,-8.811569214E-1,-9.878767967E0,-7.280163169E-1
3.180490876E1,3.212364316E-1,-1.190190029E1,1.028913707E-1
3.182517839E1,1.680957913E0,-1.420020580E1,-2.562114954E0
3.184544792E1,2.796611547E0,-1.535414505E1,-4.204787731E0
3.186571756E1,3.198605776E0,-1.485643768E1,-3.498306751E0
3.188598714E1,2.956930637E0,-1.497368622E1,-1.968096614E0
3.190625673E1,4.297509670E0,-1.466022587E1,2.871387303E-1
3.192652631E1,3.014358282E0,-1.371207047E1,7.657032460E-2
3.194679589E1,-1.419542074E0,-1.330469227E1,-2.452643216E-2
3.196706553E1,-3.837489367E0,-1.231107235E1,-4.695914388E-1
3.198733511E1,-4.905286312E0,-1.250309658E1,2.249253243E-1
3.200760470E1,-4.125226021E0,-1.266102314E1,9.284151793E-1
3.202787428E1,-2.334198475E0,-1.157408333E1,2.632105052E-1
3.204827428E1,-1.376471281E0,-1.159801102E1,-2.318047047E0
3.206841345E1,-1.421934843E0,-1.227996540E1,-9.649057388E-1
3.208868303E1,-1.307079315E0,-1.267059422E1,5.982056856E-1
3.210895266E1,-1.713859200E0,-1.241874981E1,-1.142572761E0
3.212922225E1,-1.740180254E0,-1.144247818E1,-1.410568953E0
3.214962225E1,-1.144367456E0,-1.056371403E1,4.259224236E-1
3.216976141E1,-1.027119160E0,-6.323632240E0,-5.653043389E-1
3.219003100E1,7.471588850E-1,1.467398524E0,-5.767899036E0
3.221024287E1,2.341975212E0,-5.111667156E0,-2.509472847E0
3.222992584E1,1.611566067E0,-6.124429703E0,-2.296511650E0
3.225032584E1,7.519445419E-1,-5.578866005E0,-3.469592810E0
3.227072584E1,-4.785645287E-3,-5.277370453E0,-4.185645103E0
3.229112584E1,-5.551348329E-1,-4.511068821E0,-4.877170563E0
3.231152584E1,-2.249253243E-1,-2.712862730E0,-6.311667919E0
3.233186423E1,2.638086975E-1,-2.933002472E0,-8.899505615E0
3.235228428E1,4.001995921E-1,-2.449652195E0,-7.211369038E0
3.237242964E1,-4.761717021E-1,-9.816554785E-1,-1.530210137E0
3.239270475E1,-8.739784956E-1,-3.242274761E0,-5.913861275E0
3.241297876E1,6.021538258E0,-2.281197548E1,-3.725624800E0
3.243324803E1,2.464607358E-1,-3.036850929E1,-2.267797709E0
3.245365188E1,-5.072783828E-1,-8.310273170E0,-4.283750534E0
3.247379381E1,-1.515254974E0,-1.188036442E0,-4.884349346E0
3.249406574E1,-3.543172121E0,2.632104978E-2,-2.243869543E0
3.251433704E1,-2.855833769E0,-3.620340586E0,-1.467996716E0
3.253460818E1,9.529415965E-1,-1.115474129E1,-4.121637046E-1
3.255487886E1,2.653042078E0,-1.615633774E1,-2.997010350E-1
3.257514938E1,2.495115757E0,-1.576391602E1,-1.216750264E0
3.259541970E1,2.173879385E0,-1.212921810E1,-1.484746456E0
3.261568985E1,-2.273181528E-1,-7.024729252E0,-5.485545993E-1
3.263595985E1,-1.381256819E0,-4.355535507E0,-5.700899959E-1
3.265622975E1,-2.035095692E0,-4.369892120E0,-1.757528186E0
3.267649975E1,-2.032702923E0,-6.591628075E0,-2.267797709E0
3.269677751E1,-1.297508121E0,-8.070990562E0,-2.942573547E0
3.271711652E1,-1.211366415E0,-8.746364594E0,-3.122035265E0
3.273730798E1,-7.752745152E-1,-9.227322578E0,-2.131406784E0
3.275757787E1,-2.727817893E-1,-1.019222832E1,-1.276570916E0
3.277784772E1,1.625923038E0,-1.308216000E1,-1.786242127E0
3.279811751E1,5.554937840E0,-1.608694649E1,-2.693720102E0
3.281838730E1,7.029514790E0,-1.533739471E1,-3.182454109E0
3.283865704E1,6.409175396E0,-1.420259857E1,-2.796611547E0
3.285892667E1,4.051048756E0,-1.474397469E1,-2.947359324E0
3.287919631E1,-3.828516304E-1,-1.596491241E1,-1.250249863E0
3.289946600E1,-2.709871531E0,-1.501914978E1,-5.078766346E-1
3.291973563E1,-4.706682205E0,-1.330708504E1,-1.125823021E0
3.294000527E1,-6.145965099E0,-1.137966633E1,-2.684148788E0
3.296027485E1,-5.640480995E0,-1.011565781E1,-2.832503796E0
3.298054444E1,-1.539183140E0,-9.366703987E0,-3.909872293E0
3.300081407E1,4.256831646E0,-1.074078274E1,-4.420141697E0
3.302108365E1,5.386841774E0,-1.317787266E1,-3.284149170E-1
3.304135324E1,4.208974838E0,-1.396810246E1,3.361317635E0
3.306162282E1,5.150550604E-1,-1.274955750E1,3.107080221E0
3.308189240E1,-2.599801779E0,-9.543772697E0,1.938186288E-1
3.310216188E1,-2.228914261E0,-8.832506180E0,-2.035095692E0
3.312243147E1,-1.783251047E0,-8.416155815E0,-2.949153781E-1
3.314270105E1,-1.982453585E0,-7.926225066E-1,-1.331605792E0
3.316297063E1,-1.132403374E0,6.508477330E-1,-4.420141697E0
3.318324022E1,1.244267747E-1,-3.988835335E0,1.124626622E-1
3.320350975E1,-9.864411354E-1,-4.558925152E0,-2.937788010E0
3.322377933E1,-2.049452543E0,-3.909872293E0,-4.601995945E0
3.324404891E1,-6.364908218E-1,-4.312464714E0,-5.944967747E0
3.326431844E1,1.578066587E0,-6.859624386E0,-7.029514790E0
3.328458803E1,1.869990945E0,-7.127620220E0,-7.838887215E0
3.330485756E1,1.228116274E0,-7.000801086E0,-9.950552940E0
3.332512714E1,1.137188911E0,-6.316453457E0,-8.389834404E0
3.334539673E1,1.084546804E0,-2.803789854E0,-1.255035520E0
3.336566626E1,-8.835497499E-1,-3.107678413E0,-1.358525085E1
3.338593584E1,1.910668850E0,-2.861098099E1,5.168496966E-1
3.340620537E1,-3.696312666E0,-2.498645210E1,-5.416153908E0
3.342647496E1,-2.824727058E0,-4.106083870E0,-4.329214573E0
3.344674449E1,-1.450648785E0,1.761715651E0,-2.801397085E0
3.346701407E1,-2.740978241E0,1.776072621E0,-1.147358418E0
3.348728355E1,-8.524430394E-1,-4.238286972E0,-4.001995921E-1
3.350755313E1,1.714457393E0,-1.348654652E1,1.818545163E-1
3.352782272E1,2.995215654E0,-1.837328911E1,-1.575673699E0
3.354809225E1,2.801397085E0,-1.484447384E1,-7.758727670E-1
3.356836178E1,1.671386600E0,-9.126823425E0,-1.111466169E0
3.358863136E1,-4.809573591E-1,-4.901099205E0,-9.194421172E-1
3.360890089E1,-1.074975610E0,-3.414557934E0,-1.812563181E0
3.362917048E1,-2.204986095E0,-4.929812908E0,-1.893919110E0
3.364957048E1,-1.740180254E0,-8.375477791E0,-2.260619164E0
3.366970954E1,-2.608176768E-1,-9.479166985E0,-2.758326292E0
3.368997912E1,5.533402562E-1,-8.935398102E0,-2.337189436E0
3.371024865E1,1.065404296E0,-8.710473061E0,-1.506281853E0
3.373051824E1,1.022333503E0,-9.637093544E0,-1.135394335E0
3.375091824E1,1.891526341E0,-1.290987682E1,-1.774278045E0
3.377105730E1,4.525425911E0,-1.701117516E1,-1.764706731E0
3.379132683E1,5.464010715E0,-1.759980965E1,-2.440080881E0
3.381159636E1,5.003990173E0,-1.559103394E1,-4.209573269E0
3.383186595E1,2.240878344E0,-1.522732544E1,-5.976074696E0
3.385226594E1,-3.972085714E-1,-1.644347763E1,-2.724826813E0
3.387240501E1,-5.862415433E-1,-1.530389500E1,-2.931207791E-2
3.389267459E1,-3.311068296E0,-1.360678577E1,6.460621357E-1
3.391294412E1,-5.417948723E0,-1.100638580E1,-1.661815286E0
3.393321365E1,-5.824728489E0,-9.354142189E0,-2.566900492E0
3.395361365E1,-3.052643538E0,-9.083752632E0,-2.760719061E0
3.397375272E1,2.442473650E0,-1.020419216E1,-3.639483213E0
3.399402225E1,3.728017569E0,-1.259641647E1,-2.733799815E-1
3.401429183E1,2.274377823E0,-1.330469227E1,3.409173965E0
3.403456136E1,-4.833501875E-1,-1.334058475E1,3.351746321E0
3.405483089E1,-4.204189301E0,-9.438488960E0,2.104487419E0
3.407510042E1,-3.725026608E0,-7.484749317E0,-1.554138303E0
3.409536996E1,-2.197807550E0,-7.922635555E0,-9.672985673E-1
3.411563949E1,-1.474576950E0,-5.003990173E0,2.488535494E-1
3.413590902E1,2.949153781E-1,2.963510752E0,-5.296513081E0
3.415617855E1,7.112665176E-1,-3.747160196E0,-2.392224550E0
3.417644808E1,2.685943544E-1,-6.548557281E0,-1.219143152E0
3.419671766E1,-4.809573591E-1,-7.312466145E0,-4.458426952E0
3.421698720E1,-7.776673436E-1,-7.621140003E0,-4.889134884E0
3.423725673E1,1.914258152E-1,-6.335596085E0,-5.854040623E0
3.425752626E1,-3.589234129E-2,-4.110869408E0,-7.824530125E0
3.427779579E1,-3.589234129E-2,-2.408974171E0,-7.530212879E0
3.429806532E1,-1.098903775E0,9.810572863E-2,-2.978466034E0
3.431833485E1,-1.694716692E0,-5.102694035E-1,-2.327618122E0
3.433860438E1,5.044668198E0,-1.577587986E1,-1.122652531E1
3.435887386E1,2.297109663E-1,-4.066123581E1,-4.480560422E-1
3.437914334E1,-1.201795220E0,-1.255573845E1,-4.228715897E0
3.439941287E1,-1.414756417E0,-1.111466169E0,-5.149952412E0
3.441981287E1,-3.346960783E0,1.539183140E0,-2.313261271E0
3.443995194E1,-4.761716843E0,-4.959124923E-1,-4.600201547E-1
3.446022147E1,-7.926225066E-1,-7.810173035E0,1.106082320E0
3.448049100E1,3.773481369E0,-1.609651756E1,1.565504193E0
3.450076048E1,4.929812908E0,-1.899123573E1,-1.207179070E0
3.452103001E1,2.818146944E0,-1.356850052E1,-5.084748194E-2
3.454129954E1,1.058225870E0,-8.418548584E0,-6.299105883E-1
3.456156907E1,-1.522433400E0,-5.322834015E0,-8.428717852E-1
3.458183860E1,-3.284747362E0,-5.013561726E0,-1.640279889E0
3.460210813E1,-4.039084435E0,-6.811768055E0,-1.841277003E0
3.462237761E1,-3.083750248E0,-8.317451477E0,-1.750349760E0
3.464264714E1,-1.249651670E0,-9.481559753E0,-3.040679455E0
3.466291667E1,1.611566067E0,-1.155972576E1,-2.775076151E0
3.468318621E1,4.735994339E0,-1.433898926E1,-1.324427366E0
3.470345568E1,6.368497372E0,-1.619940948E1,-6.107679605E-1
3.472372522E1,6.267998695E0,-1.471286869E1,-2.942573547E0
3.474412522E1,3.890729666E0,-1.227996540E1,-5.866004944E0
3.476426428E1,-2.153540403E-2,-1.175593758E1,-6.543771744E0
3.478453376E1,-1.721037745E0,-1.269930840E1,-4.003192425E0
3.480480329E1,1.261615753E0,-1.255813122E1,9.140582681E-1
3.482507282E1,1.185045362E0,-1.128634644E1,2.985046148E0
3.484534230E1,-2.750549555E0,-1.172004509E1,2.472982168E0
3.486561183E1,-4.474578381E0,-1.280459213E1,-3.451646566E-1
3.488588136E1,-2.461018085E0,-1.287398434E1,-3.122035265E0
3.490615084E1,-1.733001828E0,-1.126481056E1,-4.623531342E0
3.492642037E1,-1.474576950E0,-1.091306591E1,-1.247856975E0
3.494668985E1,-2.991028428E-1,-1.181336498E1,2.886940479E0
3.496695938E1,-4.307080805E-2,-1.147837067E1,3.555136204E0
3.498722886E1,-9.385846853E-1,-9.155537605E0,2.370090723E0
3.500749839E1,-4.522434771E-1,-9.572486877E0,-1.360319614E0
3.502776792E1,-1.746760458E-1,-1.143769264E1,-2.648256540E0
3.504803740E1,-1.103689432E0,-1.017547798E1,-2.255235314E-1
3.506830694E1,-8.644071817E-1,6.221338734E-2,-4.367499352E0
3.508857641E1,-1.555334777E-1,-2.899502754E0,-3.785445452E0
3.510884594E1,5.982056633E-2,-3.713660717E0,-5.563312769E-2
3.512911542E1,-2.727817893E-1,-5.094917774E0,-3.830909014E0
3.514951542E1,-5.790630579E-1,-6.126822472E0,-3.988835335E0
3.516965444E1,-4.642075896E-1,-6.222535133E0,-4.709673405E0
3.518992397E1,-7.513462901E-1,-5.459224701E0,-6.900302410E0
3.521018949E1,-7.806583643E-1,-5.219942570E0,-1.004148006E1
3.523041964E1,-5.647061467E-1,-4.146761417E0,-6.830910206E0
3.525082246E1,-9.960124493E-1,-2.334796667E0,9.332008660E-2
3.527100110E1,1.491924882E0,-1.217468166E1,-1.199282742E1
3.529127079E1,5.590830326E0,-2.914757156E1,-1.994417667E0
3.531154048E1,-1.507478207E-1,-1.337169075E1,-4.384249210E0
3.533180990E1,-9.218349457E-1,-2.442473650E0,-4.769493580E0
3.535221001E1,-3.265604734E0,1.028913707E-1,-2.954537868E0
3.537234912E1,-4.036691666E0,-2.325225353E0,-1.420140266E0
3.539261865E1,-3.924229145E-1,-9.558130264E0,-4.480560422E-1
3.541288818E1,3.093321562E0,-1.581177235E1,-1.097109199E0
3.543315766E1,3.503092289E0,-1.626401520E1,-1.826920033E0
3.545355772E1,2.858824968E0,-1.241157150E1,-2.724826813E0
3.547369678E1,1.704886079E0,-8.111668587E0,-1.843669891E0
3.549396631E1,-3.349951655E-2,-5.330012321E0,-8.165507317E-1
3.551423584E1,-1.275972724E0,-4.922634602E0,-1.043868899E0
3.553450537E1,-2.082952023E0,-6.931408882E0,-1.061216831E0
3.555477485E1,-2.092523336E0,-8.933005333E0,-1.314856052E0
3.557504433E1,-1.170688510E0,-9.258428574E0,-1.874776483E0
3.559531381E1,2.249253243E-1,-9.279964447E0,-2.243869543E0
3.561558334E1,8.596215248E-1,-9.462417603E0,-1.791027784E0
3.563585287E1,7.304090858E-1,-9.909874916E0,-1.515853167E0
3.565612235E1,1.434497118E0,-1.164108181E1,-1.958525300E0
3.567639183E1,3.787838221E0,-1.420259857E1,-2.243869543E0
3.569666131E1,5.164309502E0,-1.515075493E1,-2.830111027E0
3.571693079E1,3.802195072E0,-1.359960747E1,-3.878765583E0
3.573720027E1,3.308077157E-1,-1.213878918E1,-4.082155228E0
3.575746970E1,-2.461018085E0,-1.219621658E1,-3.151347399E0
3.577773923E1,-5.862415433E-1,-1.273280716E1,-3.858426511E-1
3.579800871E1,-5.718846321E-1,-1.357807255E1,1.333400369E0
3.581827819E1,-3.967299938E0,-1.333101273E1,-2.949153781E-1
3.583854766E1,-4.663611412E0,-1.260359478E1,-2.406581402E0
3.585881714E1,-2.566302299E0,-1.233021545E1,-1.783849239E0
3.587908662E1,-4.785645287E-3,-1.081974602E1,-3.223132133E0
3.589935610E1,1.290329576E0,-1.136530972E1,-3.304488182E0
3.591962558E1,1.666600943E0,-1.292662621E1,-2.350948304E-1
3.593989506E1,1.273579836E0,-1.378624725E1,3.078366280E0
3.596016454E1,-8.428717852E-1,-1.199282742E1,4.345366001E0
3.598043402E1,-2.295913219E0,-8.964112282E0,7.465606928E-1
3.600070350E1,-1.386042476E0,-9.553344727E0,-3.747160196E0
3.602097298E1,-1.553540111E0,-1.007497978E1,-1.133001566E0
3.604124246E1,-1.414756417E0,-3.627519131E0,-8.739784956E-1
3.606151194E1,8.135596663E-2,1.733001828E0,-5.997610092E0
3.608178141E1,8.189435601E-1,-4.139583111E0,4.546362907E-2
3.610205089E1,-8.614161611E-2,-5.236692429E0,-2.049452543E0
3.612232032E1,-5.862415433E-1,-5.538187981E0,-3.656233072E0
3.614258980E1,-3.541377485E-1,-5.676971912E0,-3.940979004E0
3.616285928E1,-5.144568682E-1,-4.685744762E0,-5.063810825E0
3.618312876E1,-1.048654556E0,-3.696911097E0,-7.345965385E0
3.620339824E1,-4.785645381E-2,-4.530211449E0,-9.277571678E0
3.622366772E1,1.000798106E0,-3.287738323E0,-2.921038151E0
3.624393720E1,1.867598057E0,-2.088335991E0,-2.829512656E-1
3.626420667E1,4.594817638E0,-1.699442482E1,-1.892184258E1
3.628447615E1,6.251249313E-1,-3.344986725E1,-1.034895778E-1
3.630474563E1,-2.013560295E0,-9.491130829E0,-4.800600529E0
3.632501511E1,-1.730608940E0,-1.211964726E0,-5.272584915E0
3.634528459E1,-4.118047714E0,-7.256234884E-1,-2.289333105E0
3.636555402E1,-3.984049797E0,-3.083750248E0,-1.252642632E0
3.638582350E1,7.830511928E-1,-9.986445427E0,-1.817348838E0
3.640609298E1,5.023132801E0,-1.687239075E1,-2.767897606E0
3.642636246E1,3.818944931E0,-1.578305817E1,-2.672184706E0
3.644663188E1,2.516651154E0,-1.063071251E1,-3.064607620E0
3.646690136E1,1.230509043E0,-6.254240036E0,-2.562114954E0
3.648717084E1,-1.938186288E-1,-3.790230989E0,-1.977667928E0
3.650744027E1,-1.364507079E0,-3.287738323E0,-1.585245013E0
3.652770975E1,-1.237687469E0,-5.554937840E0,-1.456032634E0
3.654810975E1,-3.541377485E-1,-9.711270332E0,-2.162513494E0
3.656824865E1,2.153540403E-2,-1.166022491E1,-2.119442701E0
3.658851808E1,8.285148144E-1,-1.161954689E1,-2.734398127E0
3.660878761E1,4.767699242E-1,-1.168175983E1,-2.796611547E0
3.662905704E1,9.092725813E-2,-1.149033451E1,-2.772683144E0
3.664945704E1,1.420140266E0,-1.181097221E1,-2.454437733E0
3.666959595E1,3.311068296E0,-1.245942783E1,-2.148156643E0
3.668986542E1,3.979264021E0,-1.262273788E1,-3.050250769E0
3.671013490E1,3.067000389E0,-1.295534039E1,-3.763910055E0
3.673040433E1,1.063011408E0,-1.442273808E1,-3.864408493E0
3.675080433E1,1.091725349E0,-1.539003658E1,-1.645065546E0
3.677094324E1,-8.907282352E-1,-1.547857189E1,-4.648058116E-1
3.679121272E1,-5.293521881E0,-1.481575966E1,-2.523829699E0
3.681148214E1,-6.653243542E0,-1.238046455E1,-2.748754978E0
3.683175162E1,-6.418746948E0,-1.005823040E1,-2.207977057E0
3.685215162E1,-2.489732027E0,-9.198608398E0,-2.341975212E0
3.687229053E1,1.077368379E0,-1.233021545E1,-1.664208174E0
3.689255996E1,2.459223509E0,-1.449213028E1,-5.653043389E-1
3.691282944E1,1.874776483E0,-1.478225994E1,5.431707501E-1
3.693309886E1,-1.405185103E0,-1.123370457E1,2.559123755E0
3.695336834E1,-2.805584431E0,-8.473583221E0,6.484549642E-1
3.697363777E1,-1.968096614E0,-8.552546501E0,-2.566900492E0
3.699390725E1,-9.696913958E-1,-7.441678524E0,-2.044667006E0
3.701417667E1,-1.010369420E0,-2.691925503E-2,-4.673780918E0
3.703443824E1,-5.599204898E-1,-4.228715897E0,-2.736790895E0
3.705463855E1,7.136593461E-1,-4.503890514E0,5.623133183E-1
3.707498615E1,4.552344978E-1,-3.211168051E0,-2.516651154E0
3.709525542E1,-1.027119160E0,-2.961716175E0,-3.151347399E0
3.711552464E1,-1.965703845E0,-2.107478619E0,-3.028715372E0
3.713579397E1,-1.843669891E0,-1.635494232E0,-3.895515203E0
3.715606329E1,-7.178468108E-1,-2.799004316E0,-5.291727066E0
3.717633261E1,9.050851464E-1,-4.798207760E0,-6.352345943E0
3.719660199E1,2.392224550E0,-5.253442287E0,-8.023134232E0
3.721687136E1,3.924229145E0,-5.181059361E0,-1.066181946E1
3.723714079E1,3.433700562E0,-6.443273067E0,-1.218903828E1
3.725741016E1,4.460819721E0,-6.917052269E0,-1.076231766E1
3.727767959E1,-1.483550072E-1,-1.323769283E1,-1.798804474E1
3.729794902E1,-3.035893679E0,-1.745384598E1,-2.566900492E0
3.731821839E1,-4.472185612E0,-9.744770050E0,-6.448058605E0
3.733848787E1,-5.087738991E0,-2.578864574E0,-5.461617470E0
3.735875730E1,-4.359723091E0,-4.528416991E-1,-1.515853167E0
3.737902673E1,-3.363710403E0,-4.132404804E0,-1.776670814E0
3.739929615E1,-1.843669891E0,-1.135334492E1,-1.424925923E0
3.741956558E1,9.601200819E-1,-1.913958931E1,-1.910668850E0
3.743983501E1,2.574079037E0,-1.617548180E1,-1.312463164E0
3.746010444E1,1.389033556E0,-1.004865837E1,-2.162513494E0
3.748037391E1,6.275177598E-1,-7.007979393E0,-2.662613392E0
3.750064334E1,-8.853443712E-2,-5.954539299E0,-2.145763636E0
3.752091282E1,-7.417750359E-1,-6.538986206E0,-1.623530149E0
3.754118230E1,-4.474578202E-1,-7.819744587E0,-1.228714466E0
3.756145173E1,1.019940615E0,-9.469595909E0,-1.295713425E0
3.758172115E1,2.003988981E0,-1.065942669E1,-1.178465128E0
3.760199058E1,2.090130568E0,-1.035972595E1,2.273181528E-1
3.762226001E1,1.446461320E0,-9.797411919E0,9.978070259E-1
3.764252944E1,9.529415965E-1,-9.081359863E0,6.939185858E-1
3.766279891E1,5.078766346E-1,-9.021539688E0,-5.509474277E-1
3.768306834E1,-4.067798331E-2,-9.038289070E0,-1.625923038E0
3.770333777E1,-5.312066078E-1,-9.248857498E0,-2.138585329E0
3.772360720E1,-2.105683982E-1,-8.839685440E0,-1.982453585E0
3.774387662E1,3.858426511E-1,-8.295916557E0,-2.039881349E-1
3.776414610E1,8.907282352E-1,-7.865208149E0,-3.284149170E-1
3.778441553E1,1.249651670E0,-7.917850018E0,-2.825325251E0
3.780468496E1,2.106880426E0,-8.856434822E0,-4.872385025E0
3.782495438E1,2.669791937E0,-1.015633583E1,-4.115654945E0
3.784522386E1,1.999203324E0,-1.051107121E1,-1.661815286E0
3.786549329E1,1.307677627E0,-1.047996521E1,1.244866014E0
3.788576272E1,7.615157962E-1,-1.251984596E1,2.461018085E0
3.790603214E1,-1.106082320E0,-1.294337559E1,2.539981127E0
3.792630157E1,-5.252843857E0,-1.332622719E1,-7.232306600E-1
3.794657105E1,-7.807182312E0,-1.507896996E1,-2.916252613E0
3.796684048E1,-6.916453838E0,-1.433420372E1,-1.329213023E0
3.798710990E1,-5.537590027E0,-1.404706573E1,5.886343718E-1
3.800737933E1,-3.236890793E0,-1.409731483E1,2.568695068E0
3.802764876E1,1.459621787E-1,-1.250548935E1,4.953143001E-1
3.804791818E1,2.349153519E0,-1.103031445E1,-1.207179070E0
3.806818766E1,8.045865893E-1,-9.481559753E0,-1.063609719E0
3.808845709E1,-3.780659735E-1,-7.781459332E0,-5.413761139E-1
3.810872657E1,-6.723831892E-1,-6.754340172E0,-6.538388133E-1
3.812899600E1,-7.752745152E-1,-6.071787357E0,-1.019940615E0
3.814939600E1,-5.312066078E-1,-5.152345181E0,-1.635494232E0
3.816953490E1,-2.751746178E-1,-3.902693748E0,-2.609971285E0
3.818980433E1,5.982056633E-2,-3.340380430E0,-2.918645382E0
3.821007376E1,6.610172391E-1,-3.512663603E0,-2.667398930E0
3.823046985E1,1.345962763E0,-4.338785648E0,-3.256631613E0
3.825076110E1,1.022333503E0,-5.270191669E0,-4.716851711E0
3.827087516E1,5.868397355E-1,-6.254240036E0,-6.553342819E0
3.829114600E1,1.986042857E-1,-8.636295319E0,-8.305487633E0
3.831141657E1,-2.344966233E-1,-1.147119141E1,-1.025204849E1
3.833168673E1,-2.530410051E0,-1.410449314E1,-1.305105305E1
3.835208766E1,-4.228117466E0,-2.100240326E1,-8.307880402E0
3.837222641E1,-3.447459221E0,-2.385105705E1,4.857429981E0
3.839249641E1,4.307080805E-2,-1.050150013E1,6.787241459E0
3.841276631E1,-2.379662037E0,-1.329213023E0,2.922832966E0
3.843303568E1,-3.634099483E0,1.326221943E0,8.183453679E-1
3.845343610E1,-8.189435601E-1,-1.322034478E0,4.785645381E-2
3.847357527E1,-5.383850932E-1,-1.061874866E1,2.494517565E0
3.849384496E1,9.332008660E-2,-2.240040970E1,5.317450047E0
3.851411459E1,2.153540403E-2,-1.955833435E1,1.113260746E0
3.853438417E1,2.490330219E0,-1.067139053E1,-5.509474277E-1
3.855465371E1,2.240878344E0,-7.168298244E0,-2.284547329E0
3.857492324E1,1.866401732E-1,-5.507081509E0,-8.620143533E-1
3.859519277E1,-2.803191662E0,-5.715256691E0,2.355733871E0
3.861546230E1,-3.409173965E0,-7.733603001E0,2.925225735E0
3.863573178E1,-1.986042857E-1,-1.038604641E1,1.366899967E0
3.865600121E1,2.861217737E0,-1.131505966E1,-3.068794906E-1
3.867627074E1,3.661018610E0,-1.075992489E1,-3.954139352E-1
3.869654022E1,2.475973129E0,-9.491130829E0,-1.221535921E0
3.871680964E1,7.806583643E-1,-9.553344727E0,-9.960124493E-1
3.873707907E1,3.499503136E-1,-1.029033375E1,-8.739784956E-1
3.875734855E1,5.844469070E-1,-1.044407272E1,-2.442473650E0
3.877761803E1,6.346961856E-1,-1.011326504E1,-2.061416626E0
3.879788746E1,1.527817249E0,-9.943374634E0,-6.801598072E-1
3.881815688E1,2.743969440E0,-9.515059471E0,-1.178465128E0
3.883842636E1,3.291925669E0,-9.555737495E0,-1.283749342E0
3.885869579E1,4.311866283E0,-1.089870930E1,5.024927482E-2
3.887896522E1,4.197010994E0,-1.244267750E1,7.824530005E-1
3.889923464E1,3.284149170E-1,-1.371685600E1,1.311864972E0
3.891950412E1,-2.532802820E0,-1.300558949E1,7.010970116E-1
3.893977355E1,-4.299902439E0,-1.218185997E1,-1.745564103E0
3.896004298E1,-7.165905476E0,-1.374796295E1,-1.855633974E0
3.898031240E1,-9.234500885E0,-1.594577026E1,-1.734796353E-2
3.900058188E1,-8.470592499E0,-1.533978748E1,-1.432104349E0
3.902085131E1,-4.625326157E0,-1.354218006E1,1.076770201E-1
3.904112074E1,-3.110669367E-2,-1.266580868E1,2.185843468E0
3.906139022E1,3.622733593E0,-1.336211967E1,3.469592929E-1
3.908165970E1,3.871587038E0,-1.397049522E1,-8.691928387E-1
3.910192912E1,2.307877541E0,-1.218185997E1,-1.458425403E0
3.912219855E1,9.888339639E-1,-9.000003815E0,-1.240678549E0
3.914246798E1,-8.572286963E-1,-2.140978098E0,-5.375475883E0
3.916273746E1,-1.666002750E0,-4.432105541E0,-5.667400360E0
3.918300688E1,-8.524430394E-1,-6.716054916E0,-2.569293261E0
3.920327631E1,1.223330617E0,-5.523830891E0,-3.223132133E0
3.922354574E1,9.984052777E-1,-4.110869408E0,-3.275774240E0
3.924394574E1,2.249253243E-1,-4.214358807E0,-4.233501434E0
3.926408464E1,2.392822644E-3,-4.314857483E0,-6.021538258E0
3.928435407E1,-2.656033039E-1,-3.888336897E0,-6.287739754E0
3.930462350E1,1.292124242E-1,-2.882753134E0,-6.285346985E0
3.932489298E1,6.586244106E-1,-2.916252613E0,-7.149155617E0
3.934516235E1,1.249651670E0,-4.295714855E0,-7.161119938E0
3.936543183E1,1.673779488E0,-5.631507874E0,-8.264809608E0
3.938570126E1,2.557329178E0,-7.153941631E0,-9.045467377E0
3.940597074E1,2.662015259E-1,-1.404706573E1,-1.095852947E1
3.942624016E1,-3.591028690E0,-1.659661865E1,-2.468794823E0
3.944650563E1,1.986042857E-1,-9.050253868E0,-6.045466423E0
3.946674042E1,2.488535494E-1,-4.216751575E0,-3.452843189E0
3.948704902E1,-5.240281820E-1,-4.802993298E0,-1.771885157E0
3.950731834E1,-1.818545163E-1,-8.743971825E0,-3.129213810E0
3.952758772E1,2.269592285E0,-1.477508163E1,-2.937788010E0
3.954785704E1,4.060619831E0,-1.592423439E1,-1.881955028E0
3.956812641E1,2.365903378E0,-1.261795235E1,-2.430509567E0
3.958839579E1,6.442674994E-1,-9.395418167E0,-3.074178934E0
3.960866516E1,-9.571290575E-3,-7.319644451E0,-2.540579557E0
3.962893459E1,-1.316052526E-1,-6.179464340E0,-1.532602906E0
3.964933454E1,-1.387837082E-1,-6.292525291E0,-1.149751306E0
3.966947344E1,-2.321037948E-1,-7.096513748E0,-1.441675663E0
3.968974282E1,5.868397355E-1,-8.183453560E0,-1.104287624E0
3.971001225E1,8.189435601E-1,-9.553344727E0,-5.892325640E-1
3.973028108E1,-2.368894368E-1,-1.036211872E1,-8.931210637E-1
3.975068108E1,-6.484549642E-1,-9.248857498E0,-8.428717852E-1
3.977081988E1,-2.153540403E-1,-8.128418922E0,-2.159522474E-1
3.979108931E1,-1.244267747E-1,-8.013563156E0,-9.391828626E-2
3.981135874E1,-4.307080805E-2,-8.904291153E0,-1.503889084E0
3.983162816E1,1.434497118E0,-1.139163017E1,-2.971287489E0
3.985202816E1,4.220939159E0,-1.426241970E1,-2.219941139E0
3.987216707E1,5.063810825E0,-1.516989708E1,-2.124228239E0
3.989243655E1,3.857230186E0,-1.425284767E1,-2.921038151E0
3.991270597E1,1.350748420E0,-1.330229950E1,-3.390629768E0
3.993296358E1,-1.642074585E0,-1.278305721E1,-4.257429600E0
3.995311514E1,-1.354935765E0,-1.359482193E1,-3.330809116E0
3.997351150E1,2.387438774E0,-1.374317646E1,1.818545163E-1
3.999378103E1,8.309076428E-1,-1.350329685E1,2.417947292E0
4.001405103E1,-3.641277790E0,-1.193539906E1,1.366899967E0
4.003432040E1,-5.731408596E0,-1.143470097E1,-1.633101463E0
4.005472082E1,-2.303091764E0,-1.114038372E1,-1.592423439E0
4.007485998E1,8.261220455E-1,-1.033819008E1,-3.687339783E0
4.009512972E1,1.700100541E0,-1.149272728E1,-3.141776085E0
4.011539936E1,6.466603279E-1,-1.313240910E1,1.103689432E0
4.013566900E1,1.794617027E-1,-1.299601841E1,2.977867842E0
4.015593858E1,-1.716252089E0,-9.656235695E0,1.429113269E0
4.017620811E1,-1.795215130E0,-8.085348129E0,-1.968096614E0
4.019647759E1,-2.322234392E0,-8.796614647E0,-2.172084808E0
4.021674712E1,-2.111665964E0,-6.409773827E0,-1.317248821E0
4.023701660E1,-3.876372576E-1,-1.374676585E0,-6.043073654E0
4.025728608E1,8.931210637E-1,-5.466403484E0,-2.191227436E0
4.027755556E1,9.672985673E-1,-5.696114540E0,-7.926225066E-1
4.029782499E1,5.916253924E-1,-5.942574978E0,-3.639483213E0
4.031809446E1,1.746760458E-1,-6.174678802E0,-4.086941242E0
4.033836389E1,3.308077157E-1,-4.664209366E0,-4.862813950E0
4.035863332E1,-2.632104978E-2,-3.560520172E0,-7.130013466E0
4.037890280E1,4.073780477E-1,-3.637090445E0,-9.531808853E0
4.039917228E1,1.031904817E0,-2.413759947E0,-5.042275429E0
4.041944170E1,1.534995675E0,-1.223928809E0,-5.461617708E-1
4.043971113E1,2.875574589E0,-7.989634991E0,-1.491625786E1
4.045998056E1,2.264806747E0,-3.270031357E1,1.187438250E0
4.048024998E1,-7.830511928E-1,-1.956551170E1,-6.014359951E0
4.050051941E1,-1.252044439E0,-3.866801500E0,-3.883551121E0
4.052078884E1,-2.709871531E0,6.436693072E-1,-3.261417150E0
4.054105821E1,-5.025525570E0,1.627119333E-1,-1.582852125E0
4.056132769E1,-2.054238319E0,-6.656234264E0,-2.399402857E0
4.058159707E1,2.195414782E0,-1.450409412E1,-1.750349760E0
4.060186650E1,2.916252613E0,-1.739881134E1,-2.330011129E0
4.062213597E1,1.977667928E0,-1.342672634E1,-2.387438774E0
4.064240535E1,1.606780410E0,-9.248857498E0,-1.731207132E0
4.066267478E1,-4.546362907E-2,-6.129215240E0,-6.897311211E-1
4.068294420E1,-1.027119160E0,-4.834099770E0,-8.261220455E-1
4.070321363E1,-2.078166485E0,-5.375475883E0,-7.998009920E-1
4.072348306E1,-1.740180254E0,-7.463213921E0,-1.281356573E0
4.074375248E1,2.321037948E-1,-9.246464729E0,-1.731207132E0
4.076402191E1,1.415354609E0,-1.026879883E1,-2.203191519E0
4.078429134E1,1.515853167E0,-1.050150013E1,-2.564507723E0
4.080456077E1,1.338784218E0,-1.064507008E1,-2.353939295E0
4.082483019E1,1.511067510E0,-1.157408333E1,-2.447259426E0
4.084509962E1,2.533401012E0,-1.292901897E1,-2.564507723E0
4.086536905E1,3.658625841E0,-1.305583858E1,-2.416152716E0
4.088563842E1,3.610769272E0,-1.260120201E1,-2.219941139E0
4.090590785E1,1.372283816E0,-1.279023552E1,-2.648256540E0
4.092617728E1,-2.015953064E0,-1.287876987E1,-4.190430641E0
4.094644670E1,-2.353341103E0,-1.337647724E1,-3.902693748E0
4.096671613E1,1.982453585E0,-1.424566936E1,-3.140579760E-1
4.098698556E1,7.758727670E-1,-1.401595879E1,1.685145378E0
4.100725493E1,-3.378067255E0,-1.239003563E1,1.034297585E0
4.102752436E1,-5.240880013E0,-1.098245811E1,-1.776670814E0
4.104792436E1,-2.928216696E0,-1.017308521E1,-3.883551121E0
4.106806321E1,7.567301393E-1,-9.859625816E0,-6.014359951E0
4.108833264E1,2.303091764E0,-1.179900837E1,-3.735196114E0
4.110860207E1,2.645863533E0,-1.360678577E1,7.250252366E-1
4.112887144E1,1.913061738E0,-1.306062412E1,3.918845177E0
4.114927144E1,2.853440940E-1,-1.028794098E1,2.204986095E0
4.116941030E1,-2.464607358E-1,-9.522237778E0,-2.172084808E0
4.118967972E1,-1.443470240E0,-1.045125103E1,-1.822134495E0
4.120994524E1,-2.183450699E0,-8.226524353E0,-1.106680483E-1
4.123017530E1,-2.336591244E0,7.082754970E-1,-5.020740032E0
4.125057806E1,-1.766501307E0,-2.808575630E0,-3.153740168E0
4.127075650E1,-4.713860750E-1,-4.549354076E0,-1.403390527E0
