"Time (s)","Gyroscope x (rad/s)","Gyroscope y (rad/s)","Gyroscope z (rad/s)"
5.238292400E-2,-5.974797606E-1,-5.753754973E-1,-6.724476814E-2
7.277162200E-2,-2.375537902E-1,-5.056007504E-1,-9.653951973E-2
9.292287200E-2,-3.153180480E-1,-6.339650154E-1,-2.103895694E-2
1.131928200E-1,-4.781702161E-1,-7.468829751E-1,9.773793817E-2
1.334627680E-1,-3.057306707E-1,-8.864325285E-1,6.578002870E-2
1.537327160E-1,-7.669898123E-2,-8.203861713E-1,-3.755054250E-2
1.740026640E-1,-5.805686861E-2,-8.155924678E-1,-1.450090110E-1
1.942726640E-1,-1.251684725E-1,-8.827040792E-1,-2.296974659E-1
2.145427160E-1,-1.651158631E-1,-8.651272058E-1,-3.138532937E-1
2.348127160E-1,-3.771033287E-1,-9.471525550E-1,-4.427502155E-1
2.550827160E-1,-8.227829933E-1,-1.164865732E0,-4.981439114E-1
2.753527680E-1,-1.117195249E0,-1.078046799E0,-4.331628382E-1
2.956228200E-1,-1.075117350E0,-6.621944904E-1,-4.384891391E-1
3.158928200E-1,-8.499472141E-1,-3.363569975E-1,-6.423539519E-1
3.361628720E-1,-6.592650414E-1,-4.890891612E-1,-9.097351432E-1
3.564329240E-1,-4.962796867E-1,-1.151550055E0,-1.053013086E0
3.767029770E-1,-2.476737946E-1,-1.550358057E0,-1.120524168E0
3.969729770E-1,1.864211448E-2,-1.500423789E0,-1.313336968E0
4.172429770E-1,2.070606202E-1,-1.157941580E0,-1.639307618E0
4.375130290E-1,3.599259555E-1,-1.045556307E0,-1.913479805E0
4.577830290E-1,5.032039285E-1,-1.210139513E0,-2.005092382E0
4.780530810E-1,5.442165732E-1,-1.377385855E0,-1.879391432E0
4.983231330E-1,3.945470154E-1,-1.405082703E0,-1.604153872E0
5.185931330E-1,4.793686420E-2,-1.367265940E0,-1.274987459E0
5.389931330E-1,-4.211786091E-1,-1.032240510E0,-9.715204239E-1
5.591332370E-1,-7.604650855E-1,-3.182475269E-1,-8.538088202E-1
5.794032370E-1,-7.886945605E-1,1.695100814E-1,-8.990825415E-1
5.996732890E-1,-6.725808382E-1,2.174469382E-1,-8.463519812E-1
6.199433410E-1,-5.452818274E-1,7.643266767E-2,-6.471476555E-1
6.403433410E-1,-4.147870243E-1,5.246423557E-2,-3.484743834E-1
6.604833930E-1,3.508712053E-1,-2.197106332E-1,-7.984151244E-1
6.807533930E-1,1.648095965E0,-7.335671782E-1,-1.929458737E0
7.010234450E-1,1.250220060E0,-1.872200817E-1,-1.889511347E0
7.212934450E-1,1.123853177E-1,2.456764281E-1,-1.676458597E0
7.416934450E-1,-7.114629745E-1,9.707214683E-2,-1.607882261E0
7.618334970E-1,-4.973449707E-1,1.806953400E-1,-1.691905022E0
7.821034450E-1,1.038632020E-1,7.520761490E-1,-2.408694267E0
8.023735490E-1,-5.326318089E-3,2.636527456E-2,-1.831987143E0
8.226435490E-1,-2.221074700E-1,-3.278348744E-1,-1.498160124E0
8.430435490E-1,-5.314334035E-1,-3.592601717E-1,-1.515204430E0
8.631836020E-1,-9.261136055E-1,5.885581672E-2,-1.224387407E0
8.834536020E-1,-1.107075214E0,3.319627941E-1,-1.084438443E0
9.037236540E-1,-1.274321675E0,6.004092097E-1,-1.016261458E0
9.239936540E-1,-1.178980589E0,5.886912942E-1,-1.018392086E0
9.442636540E-1,-1.200818419E0,5.130575895E-1,-9.033435583E-1
9.645336540E-1,-1.359542727E0,-8.299735188E-1,-7.398256063E-1
9.848037060E-1,-9.669930935E-1,-5.775060654E-1,-9.411604404E-1
1.005073706E0,-7.439534664E-1,4.230428338E-1,-1.212136865E0
1.025343706E0,-8.664588332E-1,3.527354300E-1,-1.276585340E0
1.045613706E0,-8.323704004E-1,3.953459561E-1,-1.185505271E0
1.065883706E0,-5.554018021E-1,5.322323442E-1,-1.188701034E0
1.086153758E0,-2.940127552E-1,4.379565120E-1,-1.172189474E0
1.106423758E0,-1.992042959E-1,3.239732981E-1,-8.607330322E-1
1.126693758E0,-2.950780392E-1,4.965460002E-1,-4.379565120E-1
1.146963758E0,-5.458144546E-1,7.861645818E-1,-9.707214683E-2
1.167233758E0,-8.227829933E-1,-1.358211134E-2,-3.222422674E-2
1.187503758E0,-4.557996690E-1,-1.316665888E0,-1.466069072E-1
1.207773758E0,1.198421568E-1,-1.280979514E0,-2.941459119E-1
1.228043758E0,4.872249663E-1,-7.873629928E-1,-3.703122735E-1
1.248313758E0,7.560708523E-1,-1.081242561E0,-3.372890949E-1
1.268583758E0,7.693866491E-1,-7.293061018E-1,-5.056007504E-1
1.288853758E0,8.311719298E-1,-5.753754973E-1,-6.657897830E-1
1.309123758E0,8.668583035E-1,-5.407544374E-1,-7.499455810E-1
1.329393758E0,1.113466859E0,-5.775060654E-1,-9.464867711E-1
1.349663758E0,1.283243179E0,-1.113733172E0,-1.076448917E0
1.369933758E0,1.311472654E0,-1.642503381E0,-7.787077427E-1
1.390203758E0,9.558078051E-1,-1.487107992E0,-2.755038142E-1
1.410473758E0,3.247722387E-1,-1.233575344E0,1.323590130E-1
1.430743758E0,-2.082590461E-1,-1.182975292E0,6.861629486E-1
1.451013758E0,-6.811029315E-1,-1.470596433E0,1.212802649E0
1.471283758E0,-1.187768951E-1,-8.629966974E-1,-6.351634115E-2
1.491553654E0,3.508712053E-1,-1.273522735E0,-9.874994159E-1
1.511823706E0,5.074649453E-1,-2.028128862E0,-1.242496848E0
1.532093706E0,1.294295341E-1,-2.925879717E0,-9.800425768E-1
1.552363706E0,-6.512755752E-1,-3.784215927E0,-5.348954797E-1
1.572633706E0,-1.236504793E0,-4.340682983E0,-4.647212476E-2
1.592903654E0,-1.343563795E0,-5.365200520E0,3.326285779E-1
1.613173654E0,-1.315334320E0,-5.047884941E0,2.378201038E-1
1.633443654E0,-1.639573932E0,-3.895003319E0,5.299686641E-2
1.653713602E0,-1.964479327E0,-3.537207842E0,3.315632939E-1
1.673983602E0,-1.886182427E0,-3.575557470E0,8.443545699E-1
1.694253602E0,-1.608681202E0,-2.931738615E0,1.021188378E0
1.714523602E0,-1.127847910E0,-1.917341352E0,7.495461106E-1
1.734793602E0,-6.390250325E-1,-9.610009789E-1,4.439486265E-1
1.755063549E0,-5.309007764E-1,-8.602003753E-2,3.528685868E-1
1.775333549E0,-6.203829050E-1,5.566002429E-2,4.615254700E-1
1.795603549E0,-6.028060913E-1,-4.167844057E-1,5.993439555E-1
1.815873497E0,-3.291664720E-1,-7.703187466E-1,5.434176326E-1
1.836143497E0,-2.450106293E-2,-6.494113207E-1,3.289001584E-1
1.856413497E0,1.251684725E-1,-4.050664902E-1,8.548741043E-2
1.876683445E0,1.564605981E-1,-4.502070546E-1,-6.884266436E-2
1.896953445E0,8.362319320E-2,-5.652555227E-1,-1.434111148E-1
1.917223445E0,-6.764423847E-2,-5.583313107E-1,-2.968090773E-1
1.937493445E0,-3.195790946E-1,-3.198454082E-1,-5.050681233E-1
1.957763393E0,-5.458144546E-1,7.696529478E-2,-5.837644935E-1
1.978033393E0,-6.113281846E-1,2.680469751E-1,-5.402218103E-1
1.998303393E0,-4.781702161E-1,-4.447475821E-2,-4.315649271E-1
2.018573341E0,-2.764359117E-1,-4.826975763E-1,-3.223754168E-1
2.038962143E0,-6.817687303E-2,-1.042360425E0,-2.707101107E-1
2.059113341E0,4.420844093E-2,-1.344362736E0,-3.111901283E-1
2.079383341E0,4.793686327E-3,-1.307078481E0,-3.953459561E-1
2.099653341E0,-1.150484756E-1,-1.087634206E0,-4.411523044E-1
2.119923289E0,-6.072002649E-2,-8.827040792E-1,-4.581965208E-1
2.140323289E0,3.258375227E-1,-9.588704109E-1,-4.086617529E-1
2.160463289E0,1.299222112E0,-1.882720351E0,-2.728406489E-1
2.180733289E0,2.320011139E0,-2.455698967E0,-2.802974880E-1
2.201003289E0,2.509095430E0,-2.029194117E0,-3.974764943E-1
2.221312612E0,2.090579987E0,-1.166463733E0,-2.430132627E-1
2.241701466E0,1.288036942E0,-1.262870073E0,1.478053331E-1
2.261813185E0,3.625891209E-1,-1.208541632E0,5.301018357E-1
2.282083237E0,-4.398207366E-1,-7.511440516E-1,6.739124060E-1
2.302353237E0,-9.861677885E-1,-3.443464637E-1,5.450155139E-1
2.322623237E0,-1.230645776E0,-2.410158962E-1,3.502054214E-1
2.343023237E0,-1.103346825E0,-8.335687965E-2,2.910832763E-1
2.363163237E0,-6.917555928E-1,1.008005738E-1,3.289001584E-1
2.383433341E0,-2.226400971E-1,1.487374306E-1,2.862896025E-1
2.403703341E0,1.591237634E-1,-1.834916621E-1,2.261022031E-1
2.423973341E0,4.723112583E-1,-5.748428702E-1,1.813611388E-1
2.444373341E0,6.171871424E-1,-4.412854612E-1,3.755054250E-2
2.464513393E0,6.384924054E-1,-3.275685757E-2,-1.055942550E-1
2.484783393E0,7.171887755E-1,1.716406047E-1,-1.902827173E-1
2.505053445E0,7.992140651E-1,-2.047969401E-1,-2.398174703E-1
2.525323445E0,8.285087943E-1,-6.451503038E-1,-1.641837656E-1
2.545593445E0,7.800393105E-1,-3.821633458E-1,-1.386174262E-1
2.565863497E0,6.948181987E-1,2.744385600E-1,-2.185122073E-1
2.586133549E0,6.894918680E-1,4.187817574E-1,-2.882869840E-1
2.606403549E0,7.422224283E-1,7.110634446E-2,-3.181143403E-1
2.626673602E0,8.093340397E-1,-2.527337968E-1,-4.603270590E-1
2.646943602E0,9.339699149E-1,-2.905506492E-1,-7.169224024E-1
2.667213654E0,1.185372114E0,-1.440769136E-1,-9.278446436E-1
2.687483706E0,1.404150605E0,2.046637833E-1,-1.150884151E0
2.707753758E0,1.543700218E0,3.356912136E-1,-1.386840105E0
2.728023758E0,1.602289677E0,-5.352949724E-2,-1.374056935E0
2.748293810E0,1.607083321E0,-2.527337968E-1,-8.996151686E-1
2.768563862E0,1.122521520E0,1.514005959E-1,-3.026680350E-1
2.788833914E0,6.756434441E-1,8.319709301E-1,-2.476738021E-2
2.809103966E0,7.645930052E-1,7.973498106E-1,1.525990218E-1
2.829374018E0,1.249687433E0,2.616553903E-1,2.607232630E-1
2.849644070E0,1.713609695E0,-1.536642760E-1,3.427485824E-1
2.869914122E0,1.778990269E0,1.902827173E-1,4.306328297E-1
2.890184174E0,1.329582214E0,5.988113284E-1,2.159821987E-1
2.910454227E0,9.914941192E-1,4.715123177E-1,3.363569975E-1
2.930724279E0,5.628587008E-1,8.191877604E-1,1.347025871E0
2.950994331E0,-2.593916953E-1,1.845302939E0,2.840126038E0
2.971264383E0,-1.182708979E0,1.751559734E0,4.730036736E0
2.991534487E0,-9.640636295E-2,-6.696513295E-1,6.173069477E0
3.011804539E0,2.972884417E0,-4.106458187E0,5.602221489E0
3.032074591E0,3.128945589E0,-4.983436584E0,3.575024843E0
3.052344643E0,5.543365479E-1,-3.104311466E0,1.799097180E0
3.072614747E0,-7.828356028E-1,6.407560706E-1,1.900829792E0
3.092884799E0,2.635195851E-1,1.284574747E0,1.162202597E0
3.113154852E0,2.360491037E0,-2.461557865E0,8.598009348E-1
3.133424956E0,3.809515953E0,-5.100615501E0,1.258076310E0
3.153695008E0,2.995787621E0,-2.864094496E0,1.197356343E0
3.173965060E0,9.696562290E-1,2.664490640E-1,9.657946229E-1
3.194235164E0,-3.067959249E-1,9.443562031E-1,7.777756453E-1
3.214505216E0,3.764375448E-1,-6.578002870E-2,3.283675313E-1
3.234905216E0,7.006771564E-1,-5.066660047E-1,4.476770461E-1
3.255045372E0,3.631217480E-1,-5.141228437E-1,1.089232087E0
3.275315477E0,-2.695116997E-1,-3.278348744E-1,2.566486359E0
3.295585581E0,-1.315600574E-1,-5.412870646E-1,4.079826355E0
3.315855633E0,5.985450149E-1,-9.970867634E-1,4.814059734E0
3.336125737E0,1.067660451E0,-8.970851302E-1,4.214582443E0
3.356395789E0,2.826943398E-1,8.788425475E-3,3.110170364E0
3.376665893E0,-4.026696682E-1,1.790974438E-1,2.259690523E0
3.396935997E0,-1.246358454E-1,-5.221123695E-1,1.227716327E0
3.417206049E0,4.845618010E-1,-1.197356343E0,4.732433856E-1
3.437476154E0,5.053344369E-1,-1.816141367E0,9.205209613E-1
3.457746258E0,5.644565821E-1,-3.259706736E0,1.992975116E0
3.478016362E0,5.181176066E-1,-4.916325092E0,3.144258738E0
3.498286466E0,-8.522108942E-2,-4.400337696E0,2.804972410E0
3.518556570E0,8.522109129E-3,-3.647995234E0,2.111618757E0
3.538905320E0,3.487406969E-1,-1.959951997E0,2.953443527E-1
3.559096831E0,7.944203615E-1,-9.119988084E-1,-3.435475379E-2
3.579366935E0,1.033305749E-1,-1.540770650E0,2.351569533E-1
3.599636987E0,-3.733749092E-1,-2.033455133E0,-2.094574571E-1
3.619907091E0,-5.282375813E-1,-1.105211020E0,-4.331628382E-1
3.640307091E0,-9.096019864E-1,-1.589905918E-1,-5.535376072E-1
3.660447247E0,-1.676325440E0,6.524739861E-1,-7.270424366E-1
3.680717352E0,-2.792455435E0,1.129712105E0,-8.751140833E-1
3.700987456E0,-3.891541243E0,1.683516026E0,-1.191364169E0
3.721257508E0,-3.276484728E0,1.630252838E0,-1.517867565E0
3.741657508E0,-1.207742691E0,-8.896282911E-1,-1.304814816E0
3.761797716E0,-1.185372114E0,-1.341166973E0,-9.550088644E-1
3.782067820E0,-1.267397404E0,-1.078046799E0,-6.977477074E-1
3.802337924E0,-1.116662621E0,-1.567402244E0,-4.816323221E-1
3.822608029E0,-1.213601589E0,-1.401886940E0,-3.484743834E-1
3.843008029E0,-1.350487947E0,-4.853607416E-1,-4.795017838E-1
3.863148237E0,-1.323856354E0,-3.970770240E-1,-4.555333555E-1
3.883418341E0,-1.200285792E0,-4.464786351E-1,-3.314301372E-1
3.903688445E0,-9.904288650E-1,-4.571312666E-1,-2.861564457E-1
3.923958549E0,-8.478167057E-1,-3.709780574E-1,-2.073269337E-1
3.944228654E0,-7.210503221E-1,-2.990727723E-1,-1.386174262E-1
3.964498758E0,-5.713807940E-1,-1.861548275E-1,-6.777740270E-2
3.984768862E0,-2.913496196E-1,-2.106558830E-1,1.251684781E-2
4.005038966E0,6.285055727E-2,-3.603254259E-1,8.708529919E-2
4.025309070E0,4.004059732E-1,-3.539338410E-1,1.110537350E-1
4.045579174E0,7.432876825E-1,-2.553969622E-1,1.137168929E-1
4.065849279E0,1.100683689E0,-1.712411344E-1,6.950845569E-2
4.086119383E0,1.280580044E0,-9.880319983E-2,-7.989477599E-4
4.106389487E0,1.243295789E0,-6.657897960E-3,-1.295626909E-1
4.126659591E0,1.629986525E0,8.069372177E-2,-3.575291038E-1
4.146929695E0,2.452103853E0,3.335606754E-1,-2.920154035E-1
4.167199799E0,6.219807863E-1,-9.928256869E-1,3.448790908E-1
4.187469904E0,9.936246872E-1,1.997369342E-2,-1.663142890E-1
4.207740008E0,1.628388643E0,7.030739784E-1,-2.254364192E-1
4.228010112E0,1.313603282E0,1.312804222E0,1.190432087E-1
4.248280216E0,1.131576300E0,1.188168406E0,3.826959729E-1
4.268550372E0,1.019723654E0,9.986846447E-1,8.502135277E-1
4.288820424E0,1.125184774E0,1.096688867E0,1.016394615E0
4.309090529E0,1.201351047E0,5.380913019E-1,6.211818457E-1
4.329360685E0,1.392965317E0,7.483477145E-2,3.677822649E-1
4.349630789E0,1.538373828E0,2.792322338E-1,2.585927546E-1
4.369900841E0,1.521329641E0,9.491499066E-1,3.539338410E-1
4.390170945E0,1.404150605E0,1.523193836E0,6.217144728E-1
4.410441049E0,1.258209467E0,1.635579109E0,9.950894117E-1
4.430711154E0,1.134239435E0,1.426254869E0,1.545164943E0
4.450981258E0,8.934898973E-1,9.182572365E-1,1.729854941E0
4.471251362E0,6.597976685E-1,2.547311783E-1,1.131842613E0
4.491521466E0,8.423572183E-1,-2.021337748E-1,4.146538675E-1
4.511791570E0,1.278449535E0,-4.394212365E-2,2.303632647E-1
4.532061727E0,1.467001200E0,4.464786351E-1,2.101232558E-1
4.552331727E0,1.616670728E0,4.784365296E-1,6.578002870E-2
4.572601883E0,1.593767524E0,-4.316980839E-1,-1.998700947E-1
4.592871987E0,1.203481555E0,-1.611078143E0,-2.573943138E-1
4.613142091E0,8.391614556E-1,-1.321459532E0,-2.263685316E-2
4.633412195E0,5.394228697E-1,-1.286305785E-1,6.737792492E-2
4.653682299E0,6.977476925E-2,2.882869840E-1,3.368896246E-1
4.673952404E0,-5.708481669E-1,-3.352917433E-1,3.768370152E-1
4.694222508E0,-1.575658083E0,-1.279914260E0,-5.392897129E-2
4.714492612E0,-2.076731443E0,-9.753820300E-1,-6.663224101E-1
4.734762716E0,-2.113482952E0,2.307627350E-1,-1.028512001E0
4.755032820E0,-2.412289619E0,6.412886977E-1,-1.335707426E0
4.775302924E0,-2.271674633E0,-1.142495275E-1,-1.230246305E0
4.795573029E0,-1.875529766E0,-2.020672083E0,-9.081372619E-1
4.815843133E0,-1.740773916E0,-2.839593410E0,-9.092025161E-1
4.836113237E0,-1.740241289E0,-1.839044571E0,-8.852340579E-1
4.856383341E0,-2.125733614E0,-1.222922683E0,-8.149266839E-1
4.876653445E0,-2.594849110E0,-8.805735707E-1,-6.231792569E-1
4.896923549E0,-2.092177868E0,-7.378282547E-1,-3.127880394E-1
4.917193654E0,-1.635845423E0,-1.164333105E0,-1.737711281E-1
4.937463758E0,-1.627856016E0,-1.440769076E0,-4.241080880E-1
4.957733862E0,-1.670999169E0,-1.077514172E0,-6.524739861E-1
4.978003966E0,-1.551156998E0,-8.486156464E-1,-4.347607195E-1
4.998274070E0,-1.147555232E0,-5.817670822E-1,-1.145158429E-2
5.018544122E0,-6.842987537E-1,-2.804306448E-1,2.708432674E-1
5.038944122E0,-2.098569423E-1,-2.516685426E-1,3.821633458E-1
5.059084331E0,2.635195851E-1,-1.536642760E-1,3.571296334E-1
5.079354435E0,5.516734123E-1,1.242363751E-1,2.697780132E-1
5.099624539E0,6.209155321E-1,7.099981904E-1,9.321057238E-3
5.119894591E0,1.284308434E0,1.119059443E0,-2.190448344E-1
5.140294591E0,2.033055544E0,4.118575454E-1,-4.700475931E-2
5.160434799E0,1.661411762E0,-4.992091656E-1,2.021337748E-1
5.180704904E0,5.692502856E-1,1.221058443E-1,1.691105962E-1
5.200975008E0,1.586843371E0,7.360971570E-1,-2.265016884E-1
5.221375008E0,1.655552864E0,4.459459782E-1,-6.982803345E-1
5.241673081E0,1.399356961E0,1.035968900E0,-4.528702199E-1
5.261785841E0,1.328516960E0,1.510943294E0,3.986749053E-1
5.282055893E0,1.439304352E0,1.825062990E0,1.151017308E0
5.302325789E0,1.467533827E0,1.665939212E0,1.707484484E0
5.322595841E0,1.577788591E0,1.148354173E0,1.738909721E0
5.342995841E0,1.766739726E0,9.251814485E-1,1.220792174E0
5.363135945E0,1.810948133E0,1.199886322E0,6.302366257E-1
5.383405945E0,1.649693847E0,1.752624989E0,3.246390820E-1
5.403676049E0,1.388171673E0,1.903359771E0,4.711128473E-1
5.423946102E0,9.595362544E-1,1.181776881E0,8.438219428E-1
5.444346102E0,5.841639638E-1,4.097270370E-1,1.031308413E0
5.464486258E0,6.857634783E-1,2.089248300E-1,9.982851744E-1
5.484756310E0,1.170991063E0,9.321056604E-1,7.271755934E-1
5.505026362E0,1.549559116E0,1.466734886E0,1.994706094E-1
5.525296466E0,1.768337607E0,2.968090773E-1,-2.845585644E-1
5.545566518E0,1.518133879E0,-1.301752210E0,-5.061333776E-1
5.565836622E0,1.093759418E0,-1.120657325E0,-4.251733422E-1
5.586106727E0,7.592666745E-1,-5.135902166E-1,-2.211753577E-1
5.606376779E0,3.897533417E-1,-4.667186439E-1,1.648495495E-1
5.626646779E0,-4.312986135E-1,-7.484808564E-1,4.391549230E-1
5.646916883E0,-1.596963406E0,-1.381114364E0,7.536740601E-2
5.667186935E0,-2.045838833E0,-1.102015257E0,-4.954807460E-1
5.687457039E0,-2.034653664E0,2.494048476E-1,-9.848362207E-1
5.707727143E0,-2.590588093E0,1.122787833E0,-1.360741138E0
5.727997195E0,-3.016693592E0,7.227813601E-1,-1.450755954E0
5.748267247E0,-2.659830093E0,-5.205144286E-1,-1.239301085E0
5.768537352E0,-2.175268412E0,-1.964745641E0,-1.004543662E0
5.788807404E0,-2.019739866E0,-2.143576860E0,-1.014663577E0
5.809077508E0,-2.212552547E0,-1.840642452E0,-1.002413034E0
5.829347560E0,-2.769019604E0,-1.466868043E0,-1.045023680E0
5.849617664E0,-2.763693333E0,-4.114580750E-1,-7.920235395E-1
5.869887716E0,-1.841441393E0,-5.556681752E-1,-2.648511827E-1
5.890157768E0,-1.569799185E0,-1.265533209E0,-1.854890287E-1
5.910427872E0,-1.560211778E0,-1.363537431E0,-3.383543491E-1
5.930697924E0,-1.273789048E0,-1.098286867E0,-2.350237966E-1
5.950967977E0,-4.989428520E-1,-7.165229321E-1,1.067926809E-1
5.971238081E0,2.054627240E-1,-4.040012360E-1,3.166496158E-1
5.991508133E0,5.836313367E-1,-2.543317080E-1,3.091927767E-1
6.011778185E0,6.161218882E-1,3.648528084E-2,2.543317080E-1
6.032048289E0,8.631298542E-1,7.259771824E-1,2.207758874E-1
6.052318341E0,1.349822164E0,1.005608916E0,2.948117256E-1
6.072588393E0,1.869005084E0,-2.796317078E-2,5.034702420E-1
6.092858445E0,1.016527772E0,3.463438451E-1,2.665822208E-1
6.113128497E0,8.434224725E-1,1.636111736E0,-3.181143403E-1
6.133398602E0,1.449424386E0,2.316948399E-2,-1.764342934E-1
6.153668654E0,1.565538049E0,-1.824263930E-1,-4.081291258E-1
6.173938706E0,1.631051779E0,8.564719558E-1,3.944138587E-1
6.194208758E0,1.707750797E0,1.812279820E0,1.491901755E0
6.214478810E0,1.668336034E0,2.113749266E0,2.127065182E0
6.234748862E0,1.836514473E0,1.630785465E0,2.018541336E0
6.255018914E0,2.073535681E0,1.326120019E0,1.380048990E0
6.275288966E0,1.994706154E0,1.284574747E0,3.278348744E-1
6.295559018E0,1.627323389E0,1.313336968E0,-1.205079481E-1
6.315829070E0,1.178447962E0,1.510410666E0,2.319611609E-1
6.336099122E0,7.113298178E-1,1.086036325E0,6.110618711E-1
6.356369174E0,2.816290855E-1,5.338302255E-1,7.628619075E-1
6.376639227E0,2.097237855E-1,3.117227852E-1,8.273103833E-1
6.396909279E0,7.566034794E-1,5.130575895E-1,8.720514774E-1
6.417179331E0,1.216664195E0,1.383644342E0,7.420892715E-1
6.437449383E0,1.370594859E0,1.700027585E0,4.343612492E-1
6.457719435E0,1.459544301E0,1.844237745E-1,3.009369783E-2
6.477989487E0,1.384975910E0,-1.529585481E0,-2.808301151E-1
6.498259487E0,1.099618435E0,-1.637709737E0,-3.388870060E-1
6.518529539E0,7.411571741E-1,-9.944236279E-1,-3.798996508E-1
6.538878289E0,8.575372398E-2,-4.773712754E-1,-2.712427676E-1
6.559069747E0,-7.593998313E-1,-2.953443527E-1,-1.358211134E-2
6.579339799E0,-1.946902514E0,-8.608661890E-1,-2.946785688E-1
6.599609747E0,-2.577804804E0,-1.039697289E0,-5.029376149E-1
6.619879799E0,-2.822815418E0,-6.073334217E-1,-1.089232087E0
6.640279799E0,-3.455981493E0,6.727139950E-1,-1.545031786E0
6.660419904E0,-3.125217199E0,5.838976502E-1,-1.390568495E0
6.680689904E0,-1.865409851E0,-1.943972945E0,-1.614806533E0
6.700959956E0,-1.398957491E0,-2.924281836E0,-1.925197721E0
6.721230008E0,-1.759948730E0,-1.649960279E0,-1.663675547E0
6.741630008E0,-2.726409197E0,-1.316133261E0,-1.143427372E0
6.761770008E0,-3.470362663E0,-8.848345876E-1,-3.149185777E-1
6.782040060E0,-2.923482895E0,9.294424951E-2,-3.701791167E-2
6.802310060E0,-2.121472597E0,-3.938812315E-1,-3.062633052E-2
6.822580112E0,-1.609746575E0,-8.816388249E-1,-1.753690243E-1
6.842980112E0,-9.696562290E-1,-7.069355845E-1,-1.940111369E-1
6.863120164E0,-1.464737505E-1,-6.494113207E-1,2.085253596E-1
6.883390216E0,5.745765567E-1,-5.130575895E-1,5.918871164E-1
6.903660216E0,7.683213949E-1,-7.217161357E-2,6.504766345E-1
6.923930268E0,7.837677002E-1,4.209122956E-1,4.817654788E-1
6.944330268E0,1.645432830E0,9.315730333E-1,2.798980176E-1
6.964470320E0,2.470745802E0,5.732449889E-1,4.354265034E-1
6.984740320E0,2.429733276E0,2.994722426E-1,5.620597005E-1
7.005010372E0,7.310371995E-1,2.001363993E0,5.641902685E-1
7.025280372E0,1.724262357E0,1.985385060E0,1.006274700E0
7.045550372E0,1.394563317E0,-2.793653905E-1,2.186453640E-1
7.065820372E0,8.865656853E-1,7.941540480E-1,-4.832302332E-1
7.086090424E0,1.045822620E0,1.980058789E0,4.285022914E-1
7.106360424E0,1.320527434E0,1.844770312E0,1.760747671E0
7.126630424E0,1.843438745E0,1.366067410E0,2.266082048E0
7.146900477E0,2.443581581E0,1.656884432E0,1.827859282E0
7.167170477E0,2.037849426E0,1.994972467E0,2.767022252E-1
7.187440477E0,1.381780148E0,1.611078143E0,-2.749711871E-1
7.207710477E0,9.952225685E-1,9.949562550E-1,3.275685757E-2
7.227980477E0,5.713807940E-1,9.060067534E-1,3.347590864E-1
7.248250529E0,-2.396843210E-2,1.171124220E0,5.242428780E-1
7.268520529E0,-5.186502337E-1,1.410275936E0,5.727123618E-1
7.288790529E0,-5.330312848E-1,1.131842613E0,4.992091656E-1
7.309060529E0,4.474107176E-2,7.254445553E-1,5.636576414E-1
7.329330529E0,6.145239472E-1,1.667537093E0,7.756450772E-1
7.349600529E0,1.234241128E0,1.904425025E0,5.364934206E-1
7.369870529E0,1.518133879E0,1.769669205E-1,-4.700475931E-2
7.390140529E0,1.327451706E0,-1.891242385E0,-4.672512710E-1
7.410410529E0,1.414803267E0,-2.162751436E0,-2.808301151E-1
7.430680529E0,1.415335894E0,-1.225585818E0,-1.695100814E-1
7.450950529E0,8.231824636E-1,-7.495461106E-1,1.536642760E-1
7.471220529E0,8.255793154E-2,-8.869651556E-1,3.475422561E-1
7.491490529E0,-6.086649895E-1,-1.771400332E0,2.929474926E-3
7.511760529E0,-1.093226790E0,-2.364086390E0,-3.836280704E-1
7.532030529E0,-1.721599221E0,-2.009486675E0,-4.651207328E-1
7.552300529E0,-1.945304513E0,-5.833650231E-1,-5.535376072E-1
7.572570477E0,-2.188051462E0,3.692470193E-1,-9.709877968E-1
7.592840477E0,-2.618817568E0,-8.335687965E-2,-1.253149509E0
7.613110477E0,-2.434127331E0,-9.901625514E-1,-1.455016971E0
7.633380477E0,-1.834517121E0,-2.218145132E0,-1.434244394E0
7.653650477E0,-1.359542727E0,-2.928010225E0,-9.289098978E-1
7.673920477E0,-1.516535997E0,-2.457829475E0,-5.040028691E-1
7.694190372E0,-2.420811653E0,-1.659547567E0,-4.193144143E-1
7.714460424E0,-3.444796324E0,-1.032773137E0,-4.438154697E-1
7.734860424E0,-3.477286816E0,-5.354281664E-1,-5.178512931E-1
7.755000424E0,-2.310556889E0,-7.815040350E-1,-5.764408112E-1
7.775270372E0,-1.864344478E0,-1.129712105E0,-5.944170952E-1
7.795540372E0,-1.808418155E0,-6.424871087E-1,-4.869586527E-1
7.815810372E0,-1.410675406E0,-4.874912798E-1,-9.653951973E-2
7.836080320E0,-8.302398324E-1,-5.860281587E-1,3.576622605E-1
7.856350320E0,-3.147853911E-1,-4.613923132E-1,5.109270811E-1
7.876620320E0,2.763027549E-1,-6.151897460E-2,4.221107066E-1
7.896890268E0,7.012097836E-1,4.054659605E-1,2.074600905E-1
7.917160268E0,7.779088020E-1,7.014760971E-1,-8.855003864E-2
7.937430268E0,1.249154806E0,8.383625150E-1,-3.170490861E-1
7.957700216E0,2.212552547E0,8.239814043E-1,-1.013332009E-1
7.977970216E0,-2.205095738E-1,1.077247858E-1,2.894853950E-1
7.998240164E0,1.454750657E0,7.472824454E-1,-1.460742801E-1
8.018510164E0,2.372209072E0,6.572676897E-1,-1.540637612E-1
8.038819435E0,2.109754562E0,9.092025161E-1,-1.518000662E-2
8.059050112E0,1.508013844E0,1.680320263E0,3.400854170E-1
8.079320112E0,1.498959064E0,1.898566127E0,1.217596292E0
8.099590060E0,1.483512759E0,1.957688212E0,1.775661349E0
8.119860060E0,1.135837317E0,2.128130436E0,1.698429704E0
8.140260060E0,9.808415174E-1,1.346360087E0,1.276718497E0
8.160399956E0,1.221457958E0,3.282343447E-1,6.350302696E-1
8.180669904E0,1.631584406E0,7.238466144E-1,2.830938101E-1
8.200939852E0,1.814144015E0,2.201101065E0,5.327649713E-1
8.221328549E0,1.631584406E0,3.025881290E0,9.492830634E-1
8.241637664E0,1.253415823E0,2.486991167E0,1.310806870E0
8.261750268E0,7.406245470E-1,1.610012889E0,1.189366817E0
8.282020164E0,3.450122476E-1,1.065263629E0,8.986830115E-1
8.302290008E0,4.403533638E-1,7.078676820E-1,8.709861636E-1
8.322559904E0,1.156610012E0,4.044007063E-1,8.246471882E-1
8.342959904E0,1.757152319E0,7.920235395E-1,4.535360038E-1
8.363099747E0,1.641171813E0,4.331628382E-1,-2.259690464E-1
8.383369643E0,1.194959521E0,-1.022120476E0,-5.890907645E-1
8.403639539E0,1.060203671E0,-1.760747671E0,-5.066660047E-1
8.423909435E0,9.781783223E-1,-1.172855258E0,-3.937480748E-1
8.444309435E0,3.194459379E-1,-1.547295451E-1,1.627190262E-1
8.464449331E0,-6.725808382E-1,-4.447475821E-2,2.479401082E-1
8.484719279E0,-1.550624371E0,-5.253081322E-1,-1.061268896E-1
8.504989174E0,-1.971403480E0,-3.651190996E-1,-3.575291038E-1
8.525259122E0,-2.430398941E0,-1.925463974E-1,-5.487439036E-1
8.545529070E0,-3.020954609E0,-1.376853287E-1,-1.081775188E0
8.565798966E0,-3.157707691E0,-5.060002208E-3,-1.397492766E0
8.586068966E0,-2.178996801E0,-1.022653103E0,-1.531183362E0
8.606338914E0,-1.333443761E0,-2.424273729E0,-1.610012889E0
8.626608862E0,-1.550624371E0,-2.252766371E0,-1.346892715E0
8.646878706E0,-2.352102041E0,-1.841707706E0,-9.784446359E-1
8.667148654E0,-3.014030218E0,-1.875796080E0,-3.474090993E-1
8.687418602E0,-2.492184401E0,-1.098286867E0,-1.304947957E-2
8.707688549E0,-1.890443444E0,-6.137250066E-1,-3.994738683E-3
8.727958497E0,-1.870203495E0,-1.015196204E0,-1.529984921E-1
8.748228393E0,-1.841974020E0,-9.008135796E-1,-2.046637833E-1
8.768498341E0,-1.526123285E0,-3.161169887E-1,-4.114580899E-2
8.788768289E0,-9.085367322E-1,3.648528084E-2,2.884201407E-1
8.809038185E0,-3.323622644E-1,1.487374306E-1,5.061333776E-1
8.829308133E0,2.822948620E-2,2.424806356E-1,5.636576414E-1
8.849578081E0,3.199785650E-1,4.837628603E-1,5.631250143E-1
8.869847977E0,7.155908346E-1,7.131940126E-1,4.780370593E-1
8.890117924E0,8.849677444E-1,7.520761490E-1,1.893506050E-1
8.910387872E0,1.123586774E0,6.137250066E-1,-1.711079776E-1
8.930657768E0,1.173654199E0,1.041295171E0,-5.157207847E-1
8.950927716E0,-7.530082464E-1,-5.566002429E-2,-3.175817132E-1
8.971197664E0,1.943573475E0,-5.407544374E-1,-2.739059031E-1
8.991467560E0,2.200302124E0,1.934785098E-1,-1.091895252E-2
9.011737612E0,1.963280916E0,1.431048512E0,-1.359542757E-1
9.032007404E0,1.627856016E0,1.610545516E0,1.105211005E-1
9.052277352E0,1.648095965E0,1.875662923E0,6.595313549E-1
9.072547247E0,1.823198676E0,2.241048336E0,9.279778004E-1
9.092817195E0,2.000565052E0,2.457696438E0,7.777756453E-1
9.113087091E0,2.150767326E0,1.986983061E0,8.416914344E-1
9.133356935E0,2.073535681E0,1.492301226E0,9.269125462E-1
9.153626883E0,2.009087324E0,1.572196007E0,9.929588437E-1
9.173896831E0,2.169942141E0,2.276601553E0,1.047154188E0
9.194127456E0,2.151832581E0,2.711761713E0,1.292164803E0
9.214436622E0,1.498426437E0,2.217612505E0,1.401354313E0
9.234706518E0,3.759049177E-1,1.202549458E0,7.953524590E-1
9.254976466E0,-4.494080842E-1,5.988113284E-1,1.403484792E-1
9.275246362E0,-5.719134212E-1,7.430213690E-1,1.089232042E-1
9.295516310E0,-1.081242561E-1,1.208941102E0,9.294424951E-2
9.315786206E0,2.763027549E-1,1.801094532E0,6.791055948E-2
9.336056154E0,2.672480047E-1,2.145707369E0,-7.150582224E-2
9.356326049E0,2.454101145E-1,1.259008408E0,-1.082574204E-1
9.376595945E0,1.793637723E-1,-1.067926809E-1,-2.476738021E-2
9.396865841E0,9.534109384E-2,-3.645864725E-1,1.376853287E-1
9.417135789E0,4.382228255E-1,2.462090552E-1,3.342264593E-1
9.437405685E0,1.462207556E0,4.709796906E-1,5.764408112E-1
9.457675581E0,2.375937462E0,5.434176326E-1,8.331693411E-1
9.477945477E0,2.458495378E0,-2.127864063E-1,6.339650154E-1
9.498215372E0,2.005891323E0,-1.000815153E0,6.030724049E-1
9.518485268E0,1.535710692E0,-8.166577220E-1,7.548724413E-1
9.538874018E0,9.643298984E-1,-8.550072312E-1,4.652538896E-1
9.559025112E0,4.685828388E-1,-7.165229321E-1,7.962846011E-2
9.579295008E0,-7.350318879E-2,-1.371526867E-1,-2.430132627E-1
9.599564904E0,-6.352965832E-1,-8.974846452E-2,-5.316997170E-1
9.619834799E0,-1.267397404E0,-1.944106072E-2,-7.558045387E-1
9.640234799E0,-1.934119344E0,5.583313107E-1,-1.062067866E0
9.660374591E0,-2.459693670E0,1.170058966E0,-1.358610630E0
9.680644487E0,-2.157691479E0,1.414004326E0,-1.375122190E0
9.700914383E0,-9.771130681E-1,5.354281664E-1,-9.997498989E-1
9.721184279E0,-9.480846673E-2,-1.001880407E0,-8.442214131E-1
9.741584279E0,-3.701791167E-1,-1.669667602E0,-6.274402738E-1
9.761724070E0,-1.538373828E0,-1.465802789E0,-2.339585274E-1
9.781993966E0,-2.893655539E0,-9.869667888E-1,-9.321057238E-3
9.802263862E0,-3.509244680E0,5.865607858E-1,3.648528084E-2
9.822533706E0,-3.406446695E0,2.419879436E0,-1.641837656E-1
9.842933706E0,-2.820684910E0,2.253165722E0,-2.936132848E-1
9.863073497E0,-1.643302321E0,9.198551774E-1,-8.908267319E-2
9.883343393E0,-9.319725037E-1,8.271772265E-1,3.009369783E-2
9.903613237E0,-7.546061277E-1,6.780403256E-1,-1.178447902E-1
9.923883185E0,-5.980123878E-1,3.596596420E-1,1.435442716E-1
9.944153029E0,-2.716422379E-1,7.355645299E-1,7.697861195E-1
9.964422924E0,3.061301410E-1,1.239833713E0,1.137701511E0
9.984692820E0,9.547425508E-1,1.411341190E0,1.210672140E0
1.000496266E1,1.390302181E0,1.433179021E0,1.135571003E0
1.002523256E1,1.406813741E0,1.285107374E0,1.019057870E0
1.004563256E1,1.290167451E0,7.504782081E-1,6.930871606E-1
1.006577230E1,9.787109494E-1,3.516701460E-1,2.149169445E-1
1.008604220E1,6.977476925E-2,5.018723607E-1,-3.367564678E-1
1.010631209E1,-4.611259997E-1,1.776060820E0,-6.002760530E-1
1.012658194E1,-7.221155763E-1,3.238934040E0,-5.668534040E-1
1.014685183E1,-1.900563478E0,2.809100151E0,-2.392848432E-1
1.016712173E1,-1.247690082E0,-3.736412227E-1,5.045354962E-1
1.018739157E1,1.054344654E0,-6.398239732E-1,-3.356912136E-1
1.020766147E1,2.330131054E0,-2.522011697E-1,-1.377252698E0
1.022793131E1,2.712028027E0,1.232909560E0,-6.609960794E-1
1.024820121E1,1.640106559E0,3.972101688E0,1.153147936E0
1.026847105E1,1.267663687E-1,5.118059158E0,1.857154012E0
1.028874094E1,-2.332927436E-1,3.142527819E0,-4.807002097E-2
1.030901079E1,1.343963265E0,1.333044291E0,-1.098553166E-1
1.032928063E1,2.126266241E0,2.113749266E0,-1.583248079E-1
1.034955053E1,1.574592829E0,3.857719183E0,-2.643185556E-1
1.036982037E1,6.347639561E-1,4.137217522E0,1.464737486E-2
1.039009027E1,1.346226931E-1,2.390052080E0,3.837612271E-1
1.041036011E1,1.527321786E-1,2.110020876E0,5.045354962E-1
1.043063001E1,5.884249806E-1,2.852776051E0,1.824263930E-1
1.045089985E1,9.376983047E-1,3.262369871E0,2.636527456E-2
1.047116970E1,8.285087943E-1,2.565820694E0,2.849580161E-2
1.049143959E1,5.314334035E-1,1.728123903E0,2.340916842E-1
1.051170944E1,5.207807422E-1,1.922534585E0,5.151881576E-1
1.053197928E1,6.889592409E-1,2.630801678E0,6.659229398E-1
1.055224912E1,6.592650414E-1,2.561027050E0,6.733797789E-1
1.057251902E1,3.918838501E-1,1.905490279E0,4.524707198E-1
1.059278886E1,8.735162020E-2,1.741972327E0,1.579253376E-1
1.061305871E1,-1.187768951E-1,1.974199891E0,-8.109319210E-2
1.063332860E1,-4.398207366E-1,1.534911752E0,-2.526006401E-1
1.065359844E1,-9.531446695E-1,6.094639897E-1,-6.902908683E-1
1.067386829E1,-1.530917048E0,1.178581119E0,-9.773793817E-1
1.069413813E1,-2.313752651E0,1.989113569E0,-9.624657035E-1
1.071440798E1,-2.908569098E0,2.529601574E0,-7.249119282E-1
1.073467782E1,-2.903242826E0,4.167577744E0,-5.625923872E-1
1.075494766E1,-2.428801060E0,4.013114452E0,-3.633880615E-1
1.077521751E1,-2.063948393E0,1.503486514E0,-5.205144286E-1
1.079548740E1,-2.784466028E0,5.098618269E-1,-1.196157932E0
1.081575725E1,-3.262636185E0,-4.295675755E-1,-1.693502903E0
1.083602709E1,-3.958652735E0,-1.280446887E0,-1.837313414E0
1.085629694E1,-4.309524059E0,-1.033838391E0,-1.541303277E0
1.087656678E1,-2.537990570E0,-2.495380044E-1,-6.993455887E-1
1.089683662E1,-1.505350709E0,-1.332644820E0,-2.583264373E-2
1.091710641E1,-1.437839627E0,-1.114265800E0,9.347688407E-2
1.093737631E1,-1.288170099E0,-4.800344408E-1,3.544664681E-1
1.095764615E1,-7.370292544E-1,-6.179860830E-1,6.781734824E-1
1.097791600E1,-2.045306265E-1,-8.368977308E-1,6.568682194E-1
1.099818584E1,1.830921918E-1,-6.840324402E-1,4.997417927E-1
1.101845569E1,4.621912539E-1,-2.016011477E-1,4.258391261E-1
1.103872553E1,3.508712053E-1,4.251733422E-1,3.454117477E-1
1.105899537E1,4.900212586E-2,4.012049139E-1,1.451421678E-1
1.107926522E1,9.851025343E-1,4.287686199E-2,-4.487423226E-2
1.109953506E1,1.014397264E0,1.098553166E-1,1.616537571E-1
1.111980490E1,3.269027770E-1,3.820301592E-1,6.121271253E-1
1.114020490E1,1.500556946E0,2.013614655E0,-1.242363751E-1
1.116034454E1,1.624660254E0,1.773397684E0,-3.351585865E-1
1.118061438E1,1.668868661E0,2.012549400E0,-5.605949834E-2
1.120088423E1,1.751826048E0,2.292047977E0,5.546028614E-1
1.122128423E1,1.956356645E0,2.132924080E0,1.297491074E0
1.124158183E1,2.061817884E0,1.562075973E0,1.513206959E0
1.126169428E1,1.964878798E0,1.349555850E0,1.660612822E0
1.128196407E1,1.621464372E0,1.725460768E0,1.942375064E0
1.130223376E1,1.305081129E0,1.967808247E0,1.971137166E0
1.132250350E1,1.158740520E0,2.353833199E0,1.790042400E0
1.134290350E1,1.008538365E0,2.684597492E0,1.262870073E0
1.136304308E1,6.953508258E-1,2.473142624E0,9.040093422E-1
1.138331287E1,5.021386743E-1,2.137717724E0,7.468829751E-1
1.140358261E1,3.460775316E-1,2.007223129E0,5.386239290E-1
1.142385240E1,2.901511788E-1,2.058355570E0,3.938812315E-1
1.144425240E1,6.932203174E-1,2.164349318E0,3.507380486E-1
1.146439204E1,1.236371636E0,1.637709737E0,3.209106624E-1
1.148466183E1,1.283775806E0,3.836280704E-1,1.765674502E-1
1.150493167E1,1.178447962E0,-4.667186439E-1,1.563274413E-1
1.152520141E1,1.324255824E0,3.328948840E-2,1.957421899E-1
1.154547126E1,1.077780485E0,4.363586307E-1,4.873581231E-2
1.156574105E1,6.326334476E-1,3.175817132E-1,1.595232338E-1
1.158601089E1,3.348922431E-1,1.210405827E-1,3.262369931E-1
1.160628069E1,-3.515369892E-1,-7.170555592E-1,3.968106955E-2
1.162655048E1,-1.280180573E0,-9.301083088E-1,-2.589922249E-1
1.164695048E1,-1.949565649E0,-2.181127369E-1,-4.731102288E-1
1.166709011E1,-2.238118887E0,5.061333776E-1,-7.930887938E-1
1.168735990E1,-2.545447588E0,1.032773137E0,-1.320793748E0
1.170762970E1,-2.551839113E0,5.769734383E-1,-1.620132804E0
1.172789949E1,-2.115081072E0,-1.038099408E0,-1.524791718E0
1.174816928E1,-1.865942478E0,-2.625475407E0,-1.198821068E0
1.176843912E1,-1.907487750E0,-2.708565950E0,-6.514087319E-1
1.178870891E1,-2.543316841E0,-1.963147759E0,-5.327649713E-1
1.180897871E1,-3.510309935E0,-1.551955938E0,-5.593965650E-1
1.182924855E1,-3.463438511E0,-6.265081763E-1,-3.229080439E-1
1.184951834E1,-1.930923462E0,-3.555317521E-1,-9.813741595E-2
1.186978813E1,-1.822266579E0,-8.651272058E-1,-2.376869470E-1
1.189005792E1,-1.823864460E0,-7.639271617E-1,-3.623228073E-1
1.191032777E1,-1.141163707E0,-7.303713560E-1,-9.227846563E-2
1.193059756E1,-2.934801280E-1,-7.239798307E-1,3.081275225E-1
1.195086735E1,3.476754129E-1,-5.199818015E-1,5.546028614E-1
1.197113714E1,6.868287325E-1,-5.566002429E-2,5.503418446E-1
1.199140694E1,7.411571741E-1,5.828323960E-1,3.805654347E-1
1.201167673E1,8.466182947E-1,1.115863681E0,2.261022031E-1
1.203194652E1,1.759815574E0,9.859014750E-1,2.761695981E-1
1.205221631E1,2.274337769E0,4.331628382E-1,6.163882017E-1
1.207248610E1,4.201133549E-1,1.231844187E0,4.897549450E-1
1.209275594E1,1.464338064E0,1.811747193E0,-4.294344187E-1
1.211302574E1,2.088982105E0,5.082638860E-1,-1.189100519E-1
1.213329548E1,1.657683372E0,6.913561225E-1,3.115896136E-2
1.215356527E1,1.421194911E0,1.498692751E0,5.737776160E-1
1.217383506E1,1.551156998E0,1.837846041E0,1.694168687E0
1.219410485E1,1.759282947E0,1.956090331E0,2.489787340E0
1.221437464E1,1.924398780E0,2.153164148E0,2.072869778E0
1.223477464E1,1.947834611E0,1.936383009E0,7.985482812E-1
1.225491423E1,1.795501828E0,1.458212733E0,-1.748363972E-1
1.227518402E1,1.537841201E0,1.686711788E0,5.672528967E-2
1.229545376E1,1.267264247E0,2.105227232E0,5.141228437E-1
1.231572355E1,8.082687855E-1,1.833052397E0,9.119988084E-1
1.233599334E1,2.747048736E-1,1.149952054E0,1.237836361E0
1.235626313E1,3.434143662E-1,6.609960794E-1,1.295893192E0
1.237653287E1,1.292830586E0,9.747162461E-1,1.058339477E0
1.239680266E1,1.976596713E0,1.471528530E0,3.853591084E-1
1.241707246E1,1.788577676E0,3.410175145E-1,-3.522028029E-1
1.243734225E1,1.229447365E0,-1.085503697E0,-5.711144805E-1
1.245761199E1,1.001081467E0,-7.825692892E-1,-4.619249403E-1
1.247788178E1,8.263782859E-1,-3.779022694E-1,-5.492765903E-1
1.249815157E1,3.375554085E-1,-3.075948656E-1,-4.700475931E-2
1.251842131E1,-3.467433155E-1,-3.896201849E-1,4.508728385E-1
1.253869110E1,-1.583647609E0,-1.105211020E0,8.708529919E-2
1.255896089E1,-2.441584349E0,-8.118640780E-1,-4.028028250E-1
1.257923063E1,-2.370744228E0,3.115896136E-2,-7.888277173E-1
1.259950042E1,-2.861165047E0,1.327584833E-1,-1.298423171E0
1.261977016E1,-3.489004850E0,-1.525990218E-1,-1.612143397E0
1.264017016E1,-2.679004908E0,-9.668599367E-1,-1.499225378E0
1.266030975E1,-1.724262357E0,-2.415751696E0,-1.420928597E0
1.268057949E1,-1.552754879E0,-2.464753866E0,-1.376720071E0
1.270084928E1,-2.078861952E0,-2.222939014E0,-1.417200089E0
1.272111902E1,-3.177947760E0,-2.319877863E0,-1.212136865E0
1.274151902E1,-3.282343626E0,-1.669134974E0,-7.376950979E-1
1.276165855E1,-1.908553004E0,-8.315714002E-1,-4.464786351E-1
1.278192834E1,-1.670999169E0,-1.279381633E0,-5.087965727E-1
1.280219808E1,-1.629986525E0,-1.417865872E0,-6.024065614E-1
1.282246787E1,-1.061268926E0,-7.506113648E-1,-4.065312445E-1
1.284286787E1,-2.093243003E-1,-5.311670899E-1,5.592633970E-3
1.286300735E1,5.282375813E-1,-3.869570196E-1,2.154495716E-1
1.288327714E1,8.695214391E-1,-2.340916842E-1,2.351569533E-1
1.290354688E1,7.102645040E-1,3.436806798E-1,1.110537350E-1
1.292381662E1,1.190165758E0,1.046088934E0,-1.198421605E-2
1.294408641E1,1.937181950E0,9.044088125E-1,1.265000552E-1
1.296435615E1,2.031990290E0,2.616553903E-1,4.024033546E-1
1.298462589E1,6.273071170E-1,1.365002155E0,3.906854391E-1
1.300489569E1,1.134772062E0,1.230246305E0,2.788327634E-1
1.302516542E1,1.909485102E0,-2.037316710E-1,-1.242363751E-1
1.304543516E1,1.862080812E0,5.567334294E-1,-1.641837656E-1
1.306570490E1,1.613474965E0,1.183907390E0,6.808366179E-1
1.308597459E1,1.556483388E0,1.316532731E0,1.844903469E0
1.310624438E1,1.865276694E0,1.181776881E0,2.363553762E0
1.312651417E1,2.376470089E0,1.337305307E0,2.132924080E0
1.314678391E1,2.236521006E0,1.484844327E0,8.635293245E-1
1.316705365E1,1.526655912E0,1.089232087E0,-4.134554565E-1
1.318732339E1,9.254477620E-1,8.868319988E-1,-1.087900475E-1
1.320759313E1,5.106607676E-1,1.072187901E0,3.390201628E-1
1.322786287E1,2.379532605E-1,1.072720528E0,7.042724490E-1
1.324813261E1,7.936213911E-2,1.149952054E0,9.391630292E-1
1.326840235E1,2.406164259E-1,1.084438443E0,9.061399102E-1
1.328867209E1,6.862961054E-1,1.100417376E0,7.564703226E-1
1.330894188E1,9.147951603E-1,1.437440157E0,5.114597082E-1
1.332921162E1,1.042626739E0,1.130777359E0,2.404832691E-1
1.334948131E1,1.241165280E0,1.215732098E-1,-7.470161468E-2
1.336975105E1,1.238502145E0,-6.808366179E-1,-4.161186218E-1
1.339002079E1,1.050083637E0,-1.023185730E0,-5.593965650E-1
1.341029042E1,7.906919122E-1,-1.004543662E0,-3.836280704E-1
1.343056027E1,4.328965247E-1,-6.520745158E-1,-2.263685316E-2
1.345083001E1,-9.267793596E-2,-2.660495937E-1,3.965443969E-1
1.347109975E1,-7.583345771E-1,-5.348954797E-1,1.382179558E-1
1.349136949E1,-1.257277369E0,-9.194557071E-1,-3.378217220E-1
1.351163923E1,-1.741839170E0,-5.466133952E-1,-6.306360960E-1
1.353190897E1,-2.416018009E0,-1.158474237E-1,-8.037413955E-1
1.355217871E1,-2.647579670E0,3.202448785E-1,-1.035968900E0
1.357244839E1,-2.675809145E0,3.648528084E-2,-1.381513834E0
1.359271813E1,-2.347841024E0,-7.181208730E-1,-1.752624989E0
1.361298787E1,-2.010818243E0,-2.069008350E0,-1.956622958E0
1.363325761E1,-1.919738293E0,-2.946652412E0,-1.366067410E0
1.365352735E1,-2.242912531E0,-2.551572800E0,-7.142592669E-1
1.367379704E1,-2.772747993E0,-1.968474030E0,-4.155859649E-1
1.369406678E1,-3.062499762E0,-1.500956416E0,-2.994722426E-1
1.371433652E1,-2.417083263E0,-9.098683000E-1,-3.703122735E-1
1.373460626E1,-1.888312936E0,-9.652619958E-1,-5.071986318E-1
1.375487594E1,-1.848898172E0,-1.080709934E0,-6.162550449E-1
1.377514568E1,-1.634247541E0,-7.655251026E-1,-4.091944098E-1
1.379541542E1,-9.712541103E-1,-4.055991173E-1,5.832318589E-2
1.381568516E1,-1.768337637E-1,-3.986749053E-1,4.972118139E-1
1.383595485E1,4.840291739E-1,-3.352917433E-1,6.073334217E-1
1.385622459E1,7.992140651E-1,5.033370852E-2,4.540686309E-1
1.387649433E1,7.901592851E-1,7.147918940E-1,9.134636074E-2
1.389676402E1,1.541569591E0,1.181244254E0,-1.774995476E-1
1.391703376E1,2.400971174E0,9.443562031E-1,8.388951421E-2
1.393743376E1,4.174501896E-1,5.279712677E-1,5.716471076E-1
1.395757319E1,6.852308512E-1,1.153680563E0,3.065296113E-1
1.397784287E1,2.167811394E0,5.077312589E-1,2.356895804E-1
1.399811261E1,2.249836922E0,2.653838098E-1,7.057371736E-2
1.401851261E1,1.751826048E0,1.353284240E0,3.480748832E-1
1.403881001E1,1.694435000E0,2.272873163E0,1.344895363E0
1.405892240E1,1.790708184E0,1.897500873E0,2.357694864E0
1.407919199E1,2.177931547E0,1.343164325E0,2.396044254E0
1.409946162E1,2.391383648E0,1.308543205E0,1.394962788E0
1.411973121E1,2.141712666E0,1.083905697E0,-3.808317333E-2
1.414013121E1,1.664075017E0,8.740488291E-1,-3.484743834E-1
1.416027058E1,1.393497944E0,8.958867192E-1,1.749695539E-1
1.418054027E1,9.217193723E-1,9.395625591E-1,5.716471076E-1
1.420080990E1,1.713742912E-1,8.096003532E-1,8.613988161E-1
1.422104032E1,-2.391516864E-1,7.355645299E-1,9.285104275E-1
1.424144032E1,1.161137372E-1,8.282424808E-1,8.054724932E-1
1.426161907E1,9.084035754E-1,1.281911612E0,8.086682558E-1
1.428188871E1,1.368996978E0,1.977395654E0,7.942872047E-1
1.430215839E1,1.750760794E0,1.420395851E0,4.109254479E-1
1.432242808E1,1.750760794E0,-3.587275445E-1,-2.371543199E-1
1.434282808E1,1.288569570E0,-1.621198058E0,-4.635228515E-1
1.436296751E1,1.185904741E0,-1.715473890E0,-3.191796243E-1
1.438323725E1,9.147951603E-1,-1.179246902E0,-2.829606533E-1
1.440350688E1,7.350318879E-2,-6.904240251E-1,3.009369783E-2
1.442377657E1,-1.024517298E0,-9.322388172E-1,-5.073318258E-2
1.444417657E1,-1.837712884E0,-9.764472842E-1,-4.012049139E-1
1.446431600E1,-2.333992720E0,-9.274451733E-1,-5.167860389E-1
1.448458568E1,-2.889394522E0,-1.089764714E0,-7.723161578E-1
1.450485537E1,-3.595530987E0,-4.173170328E-1,-1.637709737E0
1.452512511E1,-3.509777308E0,1.828258783E-1,-1.742504954E0
1.454539480E1,-2.169942141E0,-1.599892855E0,-1.725460768E0
1.456566449E1,-1.444763780E0,-3.213900328E0,-1.986983061E0
1.458593417E1,-1.788710833E0,-2.645182848E0,-1.779789209E0
1.460620381E1,-2.889927149E0,-2.147837877E0,-1.254214764E0
1.462647355E1,-3.711511612E0,-1.791640282E0,-5.519397259E-1
1.464674324E1,-3.060369253E0,-7.783082724E-1,-2.423474751E-2
1.466701292E1,-1.966609836E0,-1.013065696E0,-1.145158429E-2
1.468728261E1,-2.009752989E0,-1.474857569E0,-2.478069514E-1
1.470755230E1,-1.491502285E0,-1.074851036E0,-3.862912357E-1
1.472782204E1,-5.191828609E-1,-1.006674170E0,-1.284974217E-1
1.474809173E1,3.908185959E-1,-5.791039467E-1,1.952095628E-1
1.476836141E1,9.648625255E-1,-1.323590130E-1,2.191779912E-1
1.478863110E1,9.478183389E-1,3.958786130E-1,-8.255792782E-3
1.480890079E1,9.723193645E-1,9.784446359E-1,-3.777691126E-1
1.482917048E1,2.221074581E0,1.021055222E0,-3.569964767E-1
1.484944016E1,1.704555035E0,6.625939608E-1,-3.968106955E-2
1.486970990E1,1.065263641E-3,1.360741138E0,-3.553985953E-1
1.488997959E1,1.904691339E0,1.075383663E0,-1.343563795E-1
1.491024928E1,2.041577816E0,-6.205160543E-2,-8.322372288E-2
1.493051897E1,1.606018066E0,1.025848866E0,-8.428898454E-2
1.495078865E1,1.411607504E0,2.136652470E0,7.016092539E-1
1.497105834E1,1.463805437E0,2.282993078E0,1.951962471E0
1.499132803E1,1.394563317E0,2.054094553E0,2.664890051E0
1.501159772E1,1.694967628E0,1.681918144E0,2.145707369E0
1.503186740E1,1.941975594E0,1.403351665E0,9.146620035E-1
1.505213704E1,1.952095628E0,1.484844327E0,1.802958697E-1
1.507240673E1,1.833851337E0,1.936915636E0,2.916159332E-1
1.509267641E1,1.621996999E0,2.252100468E0,5.817670822E-1
1.511294610E1,1.029843569E0,1.800029278E0,7.564703226E-1
1.513321579E1,3.657849133E-1,1.030642629E0,8.683230281E-1
1.515348548E1,1.262337416E-1,6.812360883E-1,8.358324766E-1
1.517375516E1,4.121238589E-1,5.119923353E-1,8.342345953E-1
1.519402485E1,9.813741446E-1,1.160072088E0,8.486156464E-1
1.521429449E1,1.626258135E0,1.879391432E0,5.791039467E-1
1.523456417E1,1.748097658E0,6.110618711E-1,-9.813741595E-2
1.525483381E1,1.263003230E0,-1.638774991E0,-4.320975542E-1
1.527510355E1,1.186969995E0,-2.450372696E0,-2.621880174E-1
1.529537318E1,1.192296386E0,-1.484977484E0,-1.572595388E-1
1.531564287E1,5.388902426E-1,-3.432812095E-1,2.857569754E-1
1.533591256E1,-4.142543972E-1,-6.797713637E-1,1.547295451E-1
1.535618220E1,-1.202416301E0,-1.132907867E0,-2.632532716E-1
1.537645188E1,-1.841974020E0,-8.747146130E-1,-3.910849094E-1
1.539672157E1,-2.556499481E0,-7.735145688E-1,-4.012049139E-1
1.541699121E1,-2.935200691E0,-3.848264813E-1,-9.049414396E-1
1.543726084E1,-3.573693275E0,4.512723088E-1,-1.104145765E0
1.545753053E1,-3.530550003E0,7.717835307E-1,-1.265932679E0
1.547780016E1,-2.447975874E0,-6.643250585E-1,-1.528520226E0
1.549806990E1,-1.776992917E0,-2.319345236E0,-1.601490736E0
1.551833954E1,-2.041045189E0,-2.189383030E0,-1.132774711E0
1.553860923E1,-2.950114489E0,-1.826794028E0,-7.195855975E-1
1.555887891E1,-3.406979322E0,-1.637709737E0,-3.868238628E-1
1.557914855E1,-2.242379904E0,-9.869667888E-1,-4.061317816E-2
1.559941824E1,-2.581533194E0,-1.363004804E0,-5.392897129E-2
1.561968787E1,-2.740790129E0,-1.704821348E0,-5.765739456E-2
1.564008787E1,-2.079927206E0,-9.567399025E-1,1.312937438E-1
1.566022720E1,-1.160338402E0,-3.225085735E-1,3.699128032E-1
1.568049688E1,-8.894951642E-2,2.403501123E-1,6.488786936E-1
1.570076652E1,7.816371918E-1,5.034702420E-1,6.621944904E-1
1.572103621E1,1.124652147E0,7.099981904E-1,4.428833723E-1
1.574143621E1,1.113999486E0,8.452867270E-1,1.829590350E-1
1.576157553E1,1.772598743E0,9.400951862E-1,-1.141163707E-1
1.578184516E1,7.241129875E-1,1.182842135E0,-2.158490419E-1
1.580211485E1,6.336987019E-1,1.519332230E-1,-5.721797347E-1
1.582238449E1,2.601240635E0,2.089248300E-1,-6.940192580E-1
1.584278449E1,2.540520668E0,8.330361843E-1,7.376950979E-2
1.586292381E1,2.105493546E0,2.340517282E0,3.267696202E-1
1.588319345E1,1.708816051E0,3.241064548E0,1.081775188E0
1.590346313E1,1.818405032E0,3.816173792E0,1.925330877E0
1.592373277E1,1.842373490E0,3.729354858E0,2.106958389E0
1.594413277E1,2.047436714E0,2.637725830E0,1.719202399E0
1.596427204E1,2.323206902E0,1.872999787E0,1.146223664E0
1.598454173E1,2.309890985E0,1.961949348E0,7.554050684E-1
1.600481136E1,2.247706175E0,2.233591557E0,6.297039986E-1
1.602508100E1,1.846634507E0,2.484328032E0,8.667251468E-1
1.604535063E1,7.022750378E-1,2.192046165E0,1.192562699E0
1.606562032E1,-5.580649972E-1,1.565804362E0,9.247819781E-1
1.608588996E1,-8.238482475E-1,9.459540844E-1,-2.050632425E-2
1.610615959E1,-3.685812056E-1,1.034903646E0,-1.731053367E-2
1.612642923E1,3.621896356E-2,1.923599839E0,3.118559420E-1
1.614669886E1,3.045322299E-1,2.614290237E0,4.876244366E-1
1.616696850E1,6.815024018E-1,1.892174602E0,4.615254700E-1
1.618723819E1,9.142625332E-1,-1.430116445E-1,3.384875357E-1
1.620750782E1,1.030908942E0,-1.459943771E0,2.830938101E-1
1.622777746E1,1.964878798E0,-6.627271175E-1,5.391565561E-1
1.624804709E1,2.909501314E0,8.175898194E-1,7.463503480E-1
1.626831673E1,2.486724854E0,3.165164590E-1,8.081356287E-1
1.628858636E1,1.632649660E0,-9.997498989E-1,9.050745964E-1
1.630885600E1,1.332245350E0,-8.768451214E-1,1.004676819E0
1.632912563E1,1.042626739E0,1.950764060E-1,7.383608818E-1
1.634939527E1,-9.054740891E-3,1.997369342E-2,2.548643351E-1
1.636966490E1,-6.118608117E-1,-8.255792782E-3,-4.097270370E-1
1.638993454E1,-1.123054147E0,2.185122073E-1,-8.570045829E-1
1.641020417E1,-1.834517121E0,1.289901137E0,-1.328250647E0
1.643047381E1,-2.612958670E0,1.968340874E0,-2.002961874E0
1.645074344E1,-2.816956520E0,1.904425025E0,-2.025332451E0
1.647101308E1,-2.055958748E0,1.240898967E0,-1.475789666E0
1.649128266E1,-7.157239914E-1,2.733732760E-1,-1.050349951E0
1.651155230E1,-1.778990328E-1,-1.627190262E-1,-9.901625514E-1
1.653182194E1,-1.104944706E0,-2.985401452E-1,-6.391581893E-1
1.655209157E1,-2.501239061E0,-8.938893676E-1,-2.446111590E-1
1.657236121E1,-3.147055149E0,-1.392832249E-1,-3.958786130E-1
1.659263084E1,-3.185937166E0,1.907620907E0,-6.764423847E-1
1.661290048E1,-2.941592455E0,2.361289978E0,-6.301034689E-1
1.663317011E1,-1.952228785E0,9.693899155E-1,-1.934785098E-1
1.665343975E1,-1.105477333E0,6.153228879E-1,3.107906580E-1
1.667370933E1,-1.109738350E0,5.807018280E-1,3.336938322E-1
1.669397897E1,-1.117195249E0,4.033354521E-1,4.279696643E-1
1.671424860E1,-9.415599108E-1,9.150614738E-1,7.841671705E-1
1.673464860E1,-4.829638898E-1,1.169526339E0,8.986830115E-1
1.675478782E1,-8.948214352E-2,9.006804228E-1,8.475503922E-1
1.677505746E1,1.916143000E-1,6.163882017E-1,7.367629409E-1
1.679532709E1,5.532712936E-1,5.418196917E-1,5.796365738E-1
1.681559673E1,9.222519994E-1,5.828323960E-1,4.093275666E-1
1.683586631E1,1.180578470E0,5.961481929E-1,2.708432674E-1
1.685613595E1,1.274188519E0,5.183839202E-1,1.739042848E-1
1.687640558E1,1.118793130E0,6.142576337E-1,7.323687524E-2
1.689667522E1,7.523424625E-1,4.986765385E-1,-4.860265180E-2
1.691694480E1,5.058670640E-1,9.973530471E-2,3.648528084E-2
1.693721444E1,3.002711833E-1,-1.014663652E-1,1.786979735E-1
1.695748407E1,1.262337416E-1,2.334259003E-1,5.832318589E-2
1.697775360E1,2.001364082E-1,5.721797347E-1,-3.808317333E-2
1.699802329E1,1.075916290E-1,6.045371294E-2,1.265000552E-1
1.701829292E1,-1.553820133E0,-2.862896025E-1,5.945502520E-1
1.703856251E1,-2.006557226E0,4.848281145E-1,7.857651114E-1
1.705883214E1,5.273054913E-2,2.070606232E0,1.519065976E0
1.707910178E1,9.073383212E-1,1.348490596E0,-3.394196332E-1
1.709937136E1,7.310371995E-1,1.191896915E0,-9.470193982E-1
1.711964100E1,1.143826842E0,2.213884115E0,-1.652490199E-1
1.714004100E1,1.788577676E0,3.691538095E0,7.639271617E-1
1.716018016E1,1.973933578E0,4.736827850E0,1.630252838E0
1.718044985E1,2.030925035E0,4.844952106E0,7.266429663E-1
1.720071944E1,1.739176035E0,4.582897186E0,-4.107922912E-1
1.722087126E1,8.412919641E-1,4.293811321E0,-4.320975542E-1
1.724127126E1,2.081258893E-1,3.171289921E0,-6.077328920E-1
1.726152850E1,4.367581010E-2,2.718685865E0,-4.938828647E-1
1.728179808E1,-1.997369379E-1,3.824696064E0,-1.145158429E-2
1.730206766E1,-3.771033287E-1,4.998217106E0,2.191779912E-1
1.732233725E1,-1.917474568E-1,5.074915886E0,6.151897460E-2
1.734273725E1,3.515370190E-2,4.436423779E0,-1.631184965E-1
1.736287647E1,-1.699095517E-1,3.906588078E0,-2.765690684E-1
1.738314610E1,-4.254396558E-1,3.007239342E0,-2.494048476E-1
1.740341569E1,-5.783050060E-1,1.850096583E0,-1.103879437E-1
1.742368527E1,-5.964145064E-1,1.279781103E0,-4.114580899E-2
1.744408527E1,-6.656566262E-1,1.442766428E0,-5.592633970E-3
1.746422449E1,-9.632646441E-1,1.590838075E0,1.302284747E-1
1.748449407E1,-1.119858384E0,1.618534923E0,3.006706536E-1
1.750476371E1,-9.606015086E-1,1.339968443E0,5.423523784E-1
1.752503329E1,-5.799028873E-1,9.736509919E-1,8.182556629E-1
1.754530292E1,-1.320926845E-1,6.934866309E-1,9.673925638E-1
1.756557256E1,2.576606572E-1,6.428865790E-1,8.139945865E-1
1.758584214E1,6.060018539E-1,7.627287507E-1,6.062681675E-1
1.760611178E1,7.400919199E-1,9.193225503E-1,4.503402114E-1
1.762638136E1,8.652604222E-1,1.057806849E0,4.679170549E-1
1.764665100E1,1.345561147E0,1.300021172E0,7.916240692E-1
1.766692053E1,1.637443423E0,1.606817007E0,1.144625783E0
1.768719011E1,1.705620289E0,1.838378787E0,1.405615330E0
1.770745975E1,1.468066454E0,1.617469668E0,1.221324801E0
1.772772933E1,1.025582552E0,9.587372541E-1,8.107987642E-1
1.774799897E1,6.033387184E-1,9.278446436E-1,4.162517786E-1
1.776826855E1,-7.989477366E-2,1.316000104E0,7.270424068E-2
1.778853813E1,-8.797746301E-1,1.371393800E0,-3.009369783E-2
1.780880777E1,-1.622529626E0,1.294694781E0,-1.205079481E-1
1.782907735E1,-2.139581919E0,1.063133121E0,-4.347607195E-1
1.784934694E1,-2.473542213E0,1.460343242E0,-1.098286867E0
1.786961657E1,-2.848381758E0,1.900164008E0,-1.410808563E0
1.788988615E1,-2.814293385E0,1.257410526E0,-1.031707883E0
1.791015574E1,-2.295110464E0,-5.705818534E-1,-5.040028691E-1
1.793042537E1,-2.333992720E0,-1.491369128E0,-5.609944463E-1
1.795069496E1,-3.075815678E0,-3.406180441E-1,-9.731183648E-1
1.797096454E1,-3.718436003E0,-1.222390011E-1,-1.400688529E0
1.799123417E1,-4.669583321E0,-7.857651114E-1,-1.440103292E0
1.801150371E1,-3.797265291E0,1.215732098E-1,-1.133839965E0
1.803177334E1,-2.397375822E0,-8.294408917E-1,-4.150533378E-1
1.805204292E1,-2.322274685E0,-9.237167239E-1,-1.784316637E-2
1.807231256E1,-1.925064564E0,-6.824344993E-1,1.707084924E-1
1.809258214E1,-1.215732098E0,-8.480830193E-1,3.491401672E-1
1.811285173E1,-5.809681416E-1,-6.755102873E-1,4.231759906E-1
1.813312131E1,1.086568907E-1,-3.858917654E-1,4.173170328E-1
1.815339089E1,7.427550554E-1,-1.571263932E-2,4.253064990E-1
1.817366053E1,9.962878227E-1,5.130575895E-1,3.438138366E-1
1.819393011E1,9.376983047E-1,7.648593187E-1,1.382179558E-1
1.821419970E1,1.758750319E0,9.901625514E-1,-7.629951090E-2
1.823446928E1,2.430265903E0,1.489638090E0,2.956106514E-2
1.825473886E1,5.623260736E-1,1.382046461E0,5.008070469E-1
1.827500844E1,1.292830586E0,1.561543345E0,-7.683213800E-2
1.829527808E1,2.685929060E0,3.506048918E-1,-3.378217220E-1
1.831554766E1,1.898299813E0,3.351585865E-1,-2.771016955E-1
1.833581725E1,1.659813881E0,9.587372541E-1,2.932138145E-1
1.835608683E1,1.697630763E0,1.822399735E0,1.462607026E0
1.837635641E1,1.784849286E0,2.015212536E0,2.753307104E0
1.839662600E1,2.010685205E0,1.468865395E0,3.072886229E0
1.841689558E1,1.880190372E0,9.251814485E-1,2.385924339E0
1.843716516E1,1.343963265E0,7.195855975E-1,7.564703226E-1
1.845743475E1,7.608645558E-1,8.777772188E-1,-2.121206224E-1
1.847770433E1,5.953491926E-1,1.475789666E0,1.518000662E-2
1.849797391E1,5.719134212E-1,1.418797970E0,3.906854391E-1
1.851824350E1,3.588607013E-1,8.133288026E-1,8.246471882E-1
1.853864350E1,2.278332561E-1,6.190513372E-1,1.125983715E0
1.855878266E1,3.668501675E-1,7.712509036E-1,1.252217412E0
1.857905225E1,9.163930416E-1,9.917604327E-1,1.160604715E0
1.859932183E1,1.585245490E0,7.621961236E-1,5.817670822E-1
1.861959141E1,1.796034455E0,-4.523375630E-1,-3.170490861E-1
1.863999141E1,1.408411741E0,-1.744236112E0,-7.462171912E-1
1.866013058E1,1.059671044E0,-1.842772961E0,-4.198470414E-1
1.868040011E1,7.629950643E-1,-1.043958426E0,-8.588688076E-2
1.870066970E1,1.346226931E-1,-3.209106624E-1,4.098601937E-1
1.872093928E1,-7.221155763E-1,-1.067394137E0,3.645864725E-1
1.874133928E1,-1.615072846E0,-1.907221437E0,-1.588574350E-1
1.876147844E1,-2.046904087E0,-1.151017308E0,-4.454133511E-1
1.878174803E1,-2.572478533E0,-5.380913019E-1,-6.061350107E-1
1.880201756E1,-3.118293047E0,-1.904158741E-1,-1.640905499E0
1.882228720E1,-3.331345797E0,-5.725792050E-2,-1.771799803E0
1.884268720E1,-2.958103895E0,-5.002744198E-1,-1.436907530E0
1.886282631E1,-2.540121078E0,-1.862480283E0,-1.233442187E0
1.888309589E1,-2.306828499E0,-2.218145132E0,-1.131176829E0
1.890336548E1,-2.689124823E0,-1.800695062E0,-1.321326375E0
1.892363506E1,-3.229613066E0,-1.119592071E0,-1.236105323E0
1.894390459E1,-2.227466345E0,-7.090660930E-1,-4.608596861E-1
1.896417417E1,-2.319078922E0,-1.217596292E0,-1.731053367E-2
1.898444376E1,-2.542251587E0,-9.647293687E-1,-1.711079776E-1
1.900471334E1,-2.159821987E0,-9.274451733E-1,-2.888196111E-1
1.902498292E1,-1.403751135E0,-8.933567405E-1,-1.476721764E-1
1.904525246E1,-4.542017877E-1,-2.841590643E-1,1.414137483E-1
1.906552204E1,4.829638898E-1,7.696529478E-2,3.384875357E-1
1.908579162E1,1.181643724E0,1.045289934E-1,3.901528120E-1
1.910606121E1,1.521329641E0,4.368912578E-1,3.518033028E-1
1.912633074E1,1.562342286E0,8.378298283E-1,1.930790395E-1
1.914660032E1,1.956356645E0,1.022653103E0,1.185105816E-1
1.916686990E1,1.913746119E0,6.057355404E-1,3.491401672E-1
1.918713944E1,5.719134212E-1,6.993455887E-1,4.961465299E-1
1.920740902E1,1.998967171E0,9.981520176E-1,-4.773712754E-1
1.922767860E1,2.800444841E0,3.808317333E-2,-5.556681752E-1
1.924794813E1,2.018141985E0,8.474172354E-1,-3.575291038E-1
1.926821772E1,1.583647609E0,2.108955622E0,1.547295451E-1
1.928848730E1,1.814144015E0,2.549841642E0,1.210139513E0
1.930875683E1,2.099634647E0,2.079128265E0,2.463155746E0
1.932902641E1,2.325337410E0,1.648362279E0,2.634130716E0
1.934929594E1,2.098569393E0,1.622796059E0,1.648894906E0
1.936956553E1,1.718936086E0,1.187635779E0,3.949464858E-1
1.938983506E1,1.384975910E0,1.020522594E0,8.548741043E-2
1.941010464E1,1.221990585E0,1.394297004E0,5.189165473E-1
1.943037423E1,8.833698630E-1,1.390568495E0,8.624640703E-1
1.945064376E1,3.993407190E-1,1.053545713E0,9.940241575E-1
1.947091329E1,1.331579536E-1,8.788425326E-1,8.970851302E-1
1.949118287E1,2.518016994E-1,8.207856417E-1,7.969503403E-1
1.951145240E1,5.799028873E-1,6.764423847E-1,7.095987201E-1
1.953172199E1,9.531446695E-1,9.342362285E-1,5.769734383E-1
1.955199152E1,1.431314826E0,9.811078310E-1,2.431464195E-1
1.957226110E1,1.498426437E0,-2.663159103E-4,-2.840259075E-1
1.959253063E1,1.084172130E0,-1.445030093E0,-4.938828647E-1
1.961280016E1,9.174582958E-1,-1.917341352E0,-2.462090552E-1
1.963306975E1,6.459492445E-1,-1.348623753E0,-7.257108390E-2
1.965333928E1,-1.933453530E-1,-7.527419329E-1,2.330264151E-1
1.967360886E1,-1.109205723E0,-1.372592211E0,7.110634446E-2
1.969387839E1,-1.638508677E0,-1.467933297E0,-3.761712313E-1
1.971414792E1,-2.123070478E0,-8.725841045E-1,-4.667186439E-1
1.973441751E1,-2.606566906E0,-7.516766787E-1,-6.322339773E-1
1.975468704E1,-3.047586203E0,-8.166577220E-1,-1.341033816E0
1.977495657E1,-3.617901564E0,-7.900261283E-1,-1.304814816E0
1.979522615E1,-3.444263697E0,-9.514135718E-1,-1.290966392E0
1.981549569E1,-3.030541897E0,-1.943440318E0,-1.534911752E0
1.983576522E1,-2.566619635E0,-2.563290596E0,-1.412406445E0
1.985603480E1,-2.579935312E0,-2.237852573E0,-1.251551628E0
1.987630433E1,-2.949581861E0,-1.748497128E0,-8.665919900E-1
1.989657386E1,-2.302034616E0,-1.574859142E0,-3.127880394E-1
1.991684344E1,-2.389386415E0,-1.322524786E0,-9.867004305E-2
1.993711298E1,-2.701375484E0,-1.419996381E0,-2.435459048E-1
1.995738251E1,-2.109221935E0,-1.007206798E0,-2.328932583E-1
1.997765209E1,-1.297224760E0,-6.866955757E-1,-4.966791719E-2
1.999792162E1,-3.227748871E-1,-3.968106955E-2,1.834916621E-1
2.001819115E1,6.171871424E-1,2.360890508E-1,3.075948656E-1
2.003859115E1,1.111868978E0,4.848281145E-1,2.756369710E-1
2.005873027E1,1.019723654E0,6.705834866E-1,-2.370211668E-2
2.007899980E1,1.896169305E0,9.001477957E-1,-3.538006842E-1
2.009926933E1,2.659297466E0,8.703203797E-1,-1.492700726E-1
2.011953886E1,1.191231012E0,1.143027902E0,4.029359818E-1
2.013993886E1,8.088014126E-1,2.472077370E0,-1.545963883E-1
2.016007798E1,3.238667727E0,9.134636074E-2,-2.818953991E-1
2.018034751E1,2.481398582E0,-2.404832691E-1,-4.273038805E-1
2.020061704E1,1.872200847E0,1.241431594E0,-2.584595978E-1
2.022080798E1,2.049567223E0,2.295243740E0,5.764408112E-1
2.024120798E1,2.324804783E0,2.387388945E0,1.961017251E0
2.026142579E1,2.720017433E0,1.940111399E0,2.736262798E0
2.028169532E1,2.927610874E0,1.485376954E0,2.472743273E0
2.030196485E1,2.282327414E0,9.198551774E-1,7.937545776E-1
2.032223438E1,1.297091603E0,3.926828206E-1,-2.131858915E-1
2.034263438E1,5.873597264E-1,3.884217441E-1,2.474074811E-1
2.036277345E1,1.544632297E-2,4.795017838E-1,5.247755051E-1
2.038304298E1,-3.403517306E-1,7.297055721E-1,7.026745081E-1
2.040331246E1,-1.677790284E-1,1.108939409E0,8.352998495E-1
2.042358199E1,3.332943618E-1,1.331979036E0,9.482178092E-1
2.044398199E1,7.661908865E-1,1.473126411E0,8.709861636E-1
2.046412110E1,1.084704757E0,1.301619053E0,6.781734824E-1
2.048439063E1,1.544232845E0,2.968090773E-1,2.543317080E-1
2.050466016E1,1.783251286E0,-7.644598484E-1,-4.038680792E-1
2.052492970E1,1.550624371E0,-1.617469668E0,-5.821665525E-1
2.054519923E1,1.307211637E0,-1.961017251E0,-2.733732760E-1
2.056546876E1,8.061382771E-1,-1.551423311E0,3.328948840E-2
2.058573829E1,-5.326318205E-4,-1.123853087E0,3.017359376E-1
2.060600782E1,-9.202546477E-1,-1.487107992E0,-2.263685316E-2
2.062627735E1,-1.621996999E0,-1.119592071E0,-5.045354962E-1
2.064654683E1,-2.184855700E0,-7.191861272E-1,-4.150533378E-1
2.066681636E1,-2.556499481E0,-1.291632175E0,-5.949497223E-1
2.068708589E1,-3.318029881E0,-1.482314348E0,-1.424656987E0
2.070735542E1,-4.280761719E0,-6.456829309E-1,-1.292564273E0
2.072762490E1,-3.676357985E0,-8.981503844E-1,-1.134905219E0
2.074789444E1,-2.338253736E0,-2.361955881E0,-1.148753643E0
2.076816397E1,-1.515470743E0,-2.711761713E0,-1.140231609E0
2.078843350E1,-1.998035073E0,-1.878991961E0,-1.160471559E0
2.080870303E1,-3.336672068E0,-1.593501210E0,-1.046088934E0
2.082897256E1,-3.699261189E0,-1.598827600E0,-4.779039025E-1
2.084924209E1,-2.242379904E0,-1.125451088E0,-2.936132848E-1
2.086951162E1,-2.307361126E0,-1.236238480E0,-4.278365076E-1
2.088978110E1,-1.772731900E0,-7.644598484E-1,-4.411523044E-1
2.091005063E1,-8.595346212E-1,-5.237102509E-1,-2.227732539E-1
2.093032016E1,3.941475600E-2,-1.808284968E-1,5.139897019E-2
2.095058970E1,8.604667187E-1,3.542001545E-2,1.376853287E-1
2.097085923E1,1.088965774E0,4.949481189E-1,2.849580161E-2
2.099112876E1,1.090563655E0,1.022653103E0,-3.138532937E-1
2.101139829E1,1.965411425E0,1.557282329E0,-4.528702199E-1
2.103166782E1,2.444114208E0,1.234507442E0,-1.677790284E-2
2.105193725E1,1.211870551E0,1.703756094E0,3.938812315E-1
2.107220683E1,1.092161536E0,2.442250013E0,1.467400640E-1
2.109247636E1,2.626274347E0,7.163897902E-2,1.249021590E-1
2.111274589E1,1.964878798E0,5.125249624E-1,-2.755038142E-1
2.113301537E1,1.625725508E0,2.560494423E0,1.222390011E-1
2.115328490E1,1.751293421E0,3.375154734E0,1.364602685E0
2.117355444E1,1.958487153E0,3.041327715E0,2.743719578E0
2.119382397E1,2.364219427E0,2.025865078E0,2.876344919E0
2.121409344E1,2.328000546E0,1.823997617E0,2.010551929E0
2.123449345E1,1.693369746E0,1.543966532E0,8.017440438E-1
2.125463251E1,9.691236019E-1,1.057274222E0,5.725792050E-2
2.127490199E1,4.728438854E-1,1.006141543E0,1.280979514E-1
2.129517152E1,2.075932473E-1,8.277098536E-1,3.763043880E-1
2.131544105E1,8.841688186E-2,7.520761490E-1,6.158555150E-1
2.133571053E1,2.081258893E-1,1.054610968E0,7.463503480E-1
2.135598006E1,4.030691385E-1,1.315467477E0,7.884282470E-1
2.137624959E1,6.560692191E-1,1.286172748E0,7.729819417E-1
2.139651907E1,8.737825155E-1,8.900277615E-1,6.249102950E-1
2.141678860E1,1.182176352E0,-5.033370852E-2,1.584579647E-1
2.143705813E1,1.409476995E0,-1.003478408E0,-4.581965208E-1
2.145724902E1,1.179513216E0,-1.639307618E0,-7.930887938E-1
2.147759704E1,8.141277432E-1,-1.651025534E0,-5.789707899E-1
2.149786657E1,4.834965467E-1,-9.386304021E-1,-1.251684781E-2
2.151813610E1,-1.113200486E-1,-2.942790687E-1,5.641902685E-1
2.153840558E1,-8.041408658E-1,-8.901609182E-1,3.597927988E-1
2.155867516E1,-1.458612204E0,-2.041444540E0,-2.430132627E-1
2.157894470E1,-1.815342426E0,-1.205878496E0,-6.945518851E-1
2.159921417E1,-1.934119344E0,-5.050681233E-1,-8.117309213E-1
2.161948371E1,-2.264217854E0,-6.803039908E-1,-1.208941102E0
2.163988371E1,-3.052912474E0,-7.026745081E-1,-1.468865395E0
2.166002272E1,-3.215764523E0,-8.001461625E-1,-1.304814816E0
2.168029220E1,-2.781802893E0,-1.885916114E0,-1.339968443E0
2.170056173E1,-2.318546295E0,-2.647845984E0,-1.162069440E0
2.172083121E1,-2.188584089E0,-2.332128525E0,-9.763141274E-1
2.174123121E1,-2.781802893E0,-1.881122470E0,-9.193225503E-1
2.176137022E1,-3.273821592E0,-1.476988077E0,-6.412886977E-1
2.178163975E1,-2.359026432E0,-1.246891141E0,-1.705753356E-1
2.180190923E1,-2.300436735E0,-1.103080511E0,-1.205079481E-1
2.182217876E1,-2.371809483E0,-9.807083607E-1,-3.447459340E-1
2.184257876E1,-1.600691795E0,-7.085334659E-1,-2.296974659E-1
2.186271777E1,-6.752439737E-1,-4.576638937E-1,5.938844755E-2
2.188298725E1,2.219743133E-1,-2.511359155E-1,3.475422561E-1
2.190325678E1,9.419593811E-1,-1.856221855E-1,3.363569975E-1
2.192352626E1,1.162468910E0,3.346259296E-1,2.074600905E-1
2.194379579E1,1.316799045E0,1.080709934E0,2.370211668E-2
2.196406527E1,1.883918762E0,1.473659039E0,1.499358565E-1
2.198433480E1,1.355681181E0,6.812360883E-1,7.767103314E-1
2.200460428E1,2.805638015E-1,2.048768282E0,3.683148921E-1
2.202487376E1,2.176866293E0,1.557814956E0,-3.852259517E-1
2.204514329E1,2.370611191E0,-4.178496599E-1,2.665822208E-1
2.206541277E1,1.864743948E0,1.092427850E0,2.884201407E-1
2.208568225E1,1.502687573E0,2.519481659E0,6.632598042E-1
2.210595173E1,1.644367576E0,2.898049831E0,1.724528670E0
2.212622126E1,1.933453560E0,1.751559734E0,2.300703049E0
2.214649074E1,2.141712666E0,1.321859002E0,1.625991821E0
2.216676022E1,2.307760477E0,1.121189952E0,7.394261360E-1
2.218702970E1,2.137451410E0,8.500803709E-1,3.581948876E-1
2.220729923E1,1.742371798E0,7.664572001E-1,2.271674722E-1
2.222756871E1,1.275253773E0,1.053545713E0,4.652538896E-1
2.224783819E1,6.363618970E-1,1.056741476E0,7.255777121E-1
2.226810766E1,1.575258672E-1,7.829687595E-1,7.985482812E-1
2.228837720E1,1.772332340E-1,6.876276731E-1,7.990809083E-1
2.230864667E1,3.918838501E-1,1.108939409E0,8.363651037E-1
2.232891615E1,6.985466480E-1,1.713742852E0,9.109335542E-1
2.234918563E1,9.739173055E-1,1.640372872E0,9.173251390E-1
2.236945511E1,1.226784229E0,6.126597524E-1,7.101313472E-1
2.238972464E1,1.470729589E0,-4.253064990E-1,1.190432087E-1
2.240999412E1,1.319462180E0,-1.157408953E0,-4.470112622E-1
2.243026360E1,1.035702586E0,-1.572196007E0,-5.056007504E-1
2.245053308E1,7.704519033E-1,-1.677657127E0,-5.530049801E-1
2.247080256E1,2.667153776E-1,-1.161669970E0,-1.205079481E-1
2.249107204E1,-6.251766086E-1,-9.508809447E-1,-6.404897571E-2
2.251134157E1,-1.266864777E0,-1.155278444E0,-3.442133069E-1
2.253161105E1,-1.668336034E0,-1.257011056E0,-3.660512269E-1
2.255188053E1,-2.332927465E0,-6.637924314E-1,-3.213101327E-1
2.257215001E1,-2.639590263E0,3.154512048E-1,-4.496744275E-1
2.259241949E1,-2.914960861E0,9.400951862E-2,-5.890907645E-1
2.261268897E1,-3.202981472E0,3.009369783E-2,-1.096688867E0
2.263295844E1,-2.722148180E0,-4.002728164E-1,-1.610545516E0
2.265322792E1,-2.329731464E0,-1.381646991E0,-1.627589703E0
2.267349740E1,-2.534262180E0,-2.045705557E0,-7.350319028E-1
2.269376688E1,-2.973550320E0,-1.826794028E0,-1.464737486E-2
2.271403636E1,-3.267962456E0,-1.525856972E0,-9.174583107E-2
2.273430584E1,-2.664623737E0,-1.043425679E0,-3.404848874E-1
2.275457532E1,-2.272207260E0,-3.917506933E-1,-3.218427896E-1
2.277484480E1,-2.450106382E0,-4.773712754E-1,-3.596596420E-1
2.279511428E1,-2.549708605E0,-5.801692009E-1,-9.547425061E-2
2.281538376E1,-2.173137903E0,-1.755021811E-1,1.813611388E-1
2.283565324E1,-1.694435000E0,-1.488705873E-1,3.629885912E-1
2.285592272E1,-1.235439539E0,-7.909582555E-2,4.285022914E-1
2.287619220E1,-8.153261542E-1,1.343563795E-1,4.524707198E-1
2.289646167E1,-3.925496638E-1,4.608596861E-1,5.444828868E-1
2.291673115E1,1.187768951E-1,6.572676897E-1,6.169208288E-1
2.293700063E1,7.773761153E-1,7.254445553E-1,5.940176249E-1
2.295727011E1,1.339702129E0,8.841688037E-1,5.082638860E-1
2.297753959E1,1.722131848E0,5.519397259E-1,3.896201849E-1
2.299780902E1,1.932388186E0,1.109205782E-1,3.283675313E-1
2.301807850E1,1.971270323E0,-1.185105816E-1,-4.527370445E-3
2.303847850E1,-1.741705984E-1,6.977477074E-1,-1.780321896E-1
2.305861746E1,3.838943839E-1,-1.514804840E0,-6.343644857E-1
2.307888694E1,2.736529112E0,-3.326285779E-1,-1.135437846E0
2.309915641E1,2.139049292E0,1.540770650E0,-3.708449006E-1
2.311942589E1,1.601757050E0,1.855955601E0,2.050632425E-2
2.313982589E1,1.287504315E0,2.166479826E0,8.548741043E-2
2.315996485E1,1.469131708E0,2.939594984E0,2.159821987E-1
2.318023433E1,1.729588628E0,2.612159491E0,5.018723607E-1
2.320050381E1,1.957954526E0,1.636111736E0,6.664555669E-1
2.322045954E1,1.960617781E0,1.650492907E0,4.657865167E-1
2.324085954E1,1.965944052E0,2.146772623E0,2.223737836E-1
2.326125954E1,2.011217833E0,2.583397388E0,2.990727723E-1
2.328158365E1,2.034653664E0,3.105243444E0,7.383608818E-1
2.330185220E1,2.012283087E0,3.294327736E0,1.208009005E0
2.332212147E1,1.844503999E0,3.095123529E0,1.450889111E0
2.334252147E1,1.667270780E0,2.700043917E0,1.203747869E0
2.336266016E1,1.565005422E0,2.386856318E0,9.647293687E-1
2.338292949E1,1.455283284E0,2.531199455E0,1.082840443E0
2.340319881E1,1.282177925E0,2.793653965E0,1.123853087E0
2.342346818E1,1.001081467E0,2.698978662E0,8.065377474E-1
2.344386819E1,7.145255804E-1,2.104161978E0,2.506032586E-1
2.346400704E1,6.486123800E-1,1.558347583E0,2.069274634E-1
2.348427647E1,7.613971829E-1,1.625459194E0,3.858917654E-1
2.350454584E1,9.339699149E-1,1.820269227E0,3.986749053E-1
2.352481527E1,9.456877708E-1,1.583381295E0,3.102580309E-1
2.354508470E1,7.550055981E-1,1.053013086E0,1.398158520E-1
2.356535412E1,6.299703121E-1,6.142576337E-1,6.125265732E-3
2.358562360E1,5.601955056E-1,6.254429221E-1,-1.577921808E-1
2.360589303E1,3.348922431E-1,7.643266916E-1,-3.729754388E-1
2.362616251E1,-1.113200486E-1,1.262736917E0,-3.767038584E-1
2.364643194E1,-4.978775978E-1,2.039180994E0,-2.041311413E-1
2.366670136E1,-9.712541103E-1,2.549841642E0,-2.786996067E-1
2.368697079E1,-1.707218170E0,1.923599839E0,-7.376950979E-1
2.370737079E1,-2.191779852E0,2.255296230E0,-1.354349613E0
2.372750970E1,-2.250369549E0,2.970487595E0,-1.575391769E0
2.374777917E1,-1.982588768E0,3.716571569E0,-1.131709456E0
2.376804860E1,-1.738110781E0,4.509926796E0,-7.952193022E-1
2.378831808E1,-1.551156998E0,3.547727346E0,-4.869586527E-1
2.380858751E1,-1.886182427E0,1.566869617E0,-3.894870281E-1
2.382885699E1,-2.301501989E0,2.376869470E-1,-6.801708341E-1
2.384912647E1,-2.324937820E0,-8.761793375E-2,-9.092025161E-1
2.386939589E1,-2.078329325E0,-5.199818015E-1,-5.826992393E-1
2.388966532E1,-1.787645578E0,-1.137168884E0,-6.298371404E-2
2.390993480E1,-1.653422356E0,-9.428914785E-1,2.804306448E-1
2.393020423E1,-1.307877421E0,-2.878875136E-1,3.795001805E-1
2.395047371E1,-5.042691827E-1,5.194491744E-1,3.922833502E-1
2.397074313E1,-1.960085034E-1,8.154593110E-1,4.450138807E-1
2.399101256E1,6.817687303E-2,4.379565120E-1,3.826959729E-1
2.401128204E1,6.225134134E-1,-7.590003312E-2,2.415485233E-1
2.403155147E1,1.147555232E0,-2.894853950E-1,1.701758653E-1
2.405182089E1,1.434510708E0,-1.307611167E-1,1.653821766E-1
2.407209037E1,1.336506367E0,4.187817574E-1,1.137168929E-1
2.409235980E1,7.693866491E-1,1.208941102E0,2.127864063E-1
2.411262923E1,1.027979404E-1,1.833052397E0,4.934833944E-1
2.413289871E1,-3.009369671E-1,1.704288721E0,4.215780795E-1
2.415316813E1,-7.727156281E-1,5.348954797E-1,-1.018658355E-1
2.417356813E1,-6.566019058E-1,-3.395527899E-1,-3.964112401E-1
2.419370704E1,-6.285055727E-2,-2.010685056E-1,-3.016027808E-1
2.421397647E1,-6.773745418E-1,2.861564457E-1,2.894853950E-1
2.423424589E1,-1.966077209E0,8.447540402E-1,8.118640780E-1
2.425451532E1,-1.224254251E0,2.630269051E0,1.858219266E0
2.427478480E1,-1.432779580E-1,1.679787636E0,1.110537291E0
2.429505423E1,5.266396999E-1,-9.720530361E-2,-6.423539519E-1
2.431532365E1,8.956204057E-1,2.370211668E-2,-4.731102288E-1
2.433559308E1,1.627323389E0,1.677657127E0,1.611211300E-1
2.435586256E1,1.970737696E0,3.833750725E0,1.209074259E0
2.437613199E1,1.749162912E0,5.011000156E0,1.673395991E0
2.439640141E1,1.729056001E0,4.355596542E0,3.257043660E-1
2.441667084E1,1.689641237E0,2.644650221E0,-5.492765903E-1
2.443694032E1,1.719468713E0,1.244094729E0,-4.821649492E-1
2.445720975E1,1.278449535E0,1.300021172E0,-1.668469161E-1
2.447747917E1,4.025365114E-1,2.546645880E0,1.659148186E-1
2.449774860E1,-1.640505940E-1,3.242129803E0,3.704454303E-1
2.451801803E1,-2.764359117E-1,3.292729855E0,4.833633900E-1
2.453828746E1,2.246374637E-1,2.874614000E0,2.287653685E-1
2.455855688E1,1.719069183E-1,3.300719500E0,-1.130511016E-1
2.457882631E1,-2.663159072E-1,3.053045511E0,-2.589922249E-1
2.459909579E1,-6.219807863E-1,2.345843792E0,-2.307627350E-1
2.461936522E1,-6.555365920E-1,1.508812785E0,-7.363634557E-2
2.463976522E1,-6.677871346E-1,1.002413034E0,7.909582555E-2
2.465990407E1,-7.801724672E-1,1.139299512E0,2.058621943E-1
2.468017350E1,-6.576671600E-1,1.380981207E0,4.050664902E-1
2.470044292E1,-3.515370190E-2,1.585511804E0,6.403566003E-1
2.472071235E1,8.572708964E-1,1.528520226E0,9.072051644E-1
2.474111235E1,1.575658083E0,1.320261121E0,1.116928935E0
2.476125121E1,1.967009306E0,1.597229719E0,1.085503697E0
2.478152063E1,1.867407203E0,2.386323690E0,8.896282911E-1
2.480179006E1,1.304015875E0,2.142511606E0,6.781734824E-1
2.482205949E1,7.443529963E-1,1.343696952E0,7.601987720E-1
2.484245949E1,1.921469271E-1,8.133288026E-1,7.969503403E-1
2.486259834E1,-5.032039285E-1,-2.287653685E-1,5.498092175E-1
2.488286782E1,-6.789724231E-1,-4.354265034E-1,3.187801540E-1
2.490313725E1,-9.824393988E-1,8.639287949E-1,-5.126581341E-2
2.492340667E1,-1.750361323E0,1.759549260E0,-2.962764502E-1
2.494380667E1,-2.112950325E0,1.247823238E0,-6.332992315E-1
2.496394553E1,-2.381396770E0,4.768386483E-1,-9.896299243E-1
2.498421496E1,-2.933602810E0,2.185122073E-1,-1.274987459E0
2.500448438E1,-3.073152542E0,-2.942790687E-1,-1.207343221E0
2.502475381E1,-2.666221619E0,-1.237303734E0,-8.612656593E-1
2.504502324E1,-2.672613382E0,-1.157408953E0,-6.359623671E-1
2.506529266E1,-3.155044556E0,-6.898913383E-1,-8.522109389E-1
2.508556209E1,-3.600857496E0,-8.411588073E-1,-1.311206341E0
2.510583152E1,-3.886214972E0,-6.850976944E-1,-1.618534923E0
2.512610094E1,-2.750910282E0,-5.604618192E-1,-1.010402560E0
2.514637042E1,-2.383527279E0,-1.206411123E0,-2.968090773E-1
2.516663985E1,-2.338253736E0,-9.189230204E-1,-1.870869249E-1
2.518690928E1,-1.878192902E0,-8.448871970E-1,-1.198421605E-2
2.520717871E1,-1.124119401E0,-8.752472401E-1,2.442116886E-1
2.522744813E1,-3.781685829E-1,-5.860281587E-1,3.299654126E-1
2.524771761E1,3.226417303E-1,-3.113232851E-1,3.480748832E-1
2.526798704E1,9.488835931E-1,6.524740160E-2,4.588623047E-1
2.528825647E1,1.209340572E0,5.631250143E-1,4.306328297E-1
2.530852589E1,1.177915215E0,8.096003532E-1,2.303632647E-1
2.532879537E1,1.683249712E0,1.209473729E0,2.796317078E-2
2.534906480E1,5.479449630E-1,2.025865078E0,4.021370411E-2
2.536933423E1,1.415469050E-1,1.052480459E0,-2.856238186E-1
2.538960365E1,2.620948076E0,-2.263685316E-2,-2.909501195E-1
2.540987313E1,2.213617802E0,2.302301079E-1,1.296958476E-1
2.543014256E1,1.595365405E0,1.260606408E0,4.029359818E-1
2.545041199E1,1.226784229E0,2.131326199E0,7.671229839E-1
2.547068147E1,1.520797014E0,2.640921831E0,1.784716129E0
2.549095089E1,1.751826048E0,2.075932503E0,2.581400156E0
2.551122032E1,1.628921270E0,1.557814956E0,2.303366423E0
2.553148980E1,1.794969201E0,1.277117968E0,1.495097518E0
2.555175923E1,1.881255627E0,1.139299512E0,5.721797347E-1
2.557202865E1,1.941442966E0,1.546097040E0,3.049317300E-1
2.559229813E1,1.952095628E0,2.373540640E0,5.253081322E-1
2.561256756E1,1.464870691E0,2.455033302E0,8.400935531E-1
2.563283704E1,6.134586930E-1,1.611078143E0,1.104145765E0
2.565310647E1,-7.243792713E-2,1.029044628E0,1.156876326E0
2.567337589E1,-1.262337416E-1,1.094558358E0,1.114798427E0
2.569364537E1,3.982754350E-1,1.180179000E0,1.217063665E0
2.571391480E1,1.013864636E0,1.449158072E0,1.360341668E0
2.573431480E1,1.427586436E0,1.621198058E0,1.151550055E0
2.575445371E1,1.557548642E0,7.781751156E-1,4.055991173E-1
2.577472319E1,1.465935946E0,-7.628619075E-1,-2.760364413E-1
2.579499261E1,1.281645298E0,-1.675526500E0,-3.186469972E-1
2.581526204E1,1.137967944E0,-1.786314011E0,-3.122554123E-1
2.583553152E1,7.352982163E-1,-1.615339160E0,-6.298371404E-2
2.585580095E1,-1.251684725E-1,-1.063133121E0,4.338286221E-1
2.587607042E1,-1.157675266E0,-1.890177131E0,2.490053773E-1
2.589633985E1,-1.740241289E0,-2.130793571E0,-2.685796022E-1
2.591660933E1,-1.994839311E0,-1.076448917E0,-5.029376149E-1
2.593687876E1,-2.354765177E0,-6.382260919E-1,-8.916256428E-1
2.595727876E1,-2.743985891E0,-8.837693334E-1,-1.701492310E0
2.597741766E1,-3.057173491E0,-1.437573314E0,-1.877260804E0
2.599768714E1,-2.889394522E0,-1.634513855E0,-1.517867565E0
2.601795662E1,-2.520413876E0,-2.014280319E0,-1.171124220E0
2.603822605E1,-2.103363037E0,-2.535593748E0,-6.285055280E-1
2.605849553E1,-2.092710495E0,-2.428002119E0,-4.166512489E-1
2.607876496E1,-2.978876591E0,-1.527987480E0,-6.498108506E-1
2.609903444E1,-3.953326464E0,-8.422240615E-1,-1.097221494E0
2.611930386E1,-2.749845028E0,-9.189230204E-1,-1.035436273E0
2.613970386E1,-2.034121037E0,-8.757798672E-1,-6.924213767E-1
2.615984282E1,-2.080992460E0,-8.592683077E-1,-5.519397259E-1
2.618011225E1,-1.466601729E0,-5.822997093E-1,-2.802974880E-1
2.620038173E1,-6.842987537E-1,-4.992091656E-1,1.062600464E-1
2.622018136E1,9.321057051E-2,-3.534012139E-1,3.400854170E-1
2.624058136E1,7.368960977E-1,-3.411506712E-1,3.379548788E-1
2.626098136E1,9.350351691E-1,1.091895252E-2,1.904158741E-1
2.628138136E1,1.550624371E0,7.914909124E-1,-5.765739456E-2
2.630173214E1,2.623078585E0,1.051947832E0,2.583264373E-2
2.632200032E1,3.588607013E-1,9.944236279E-1,4.439486265E-1
2.634240032E1,5.095955133E-1,8.692551255E-1,-3.687143922E-1
2.636253886E1,2.529867887E0,-1.464737486E-2,-3.009369783E-2
2.638280808E1,2.664091110E0,-1.467400640E-1,3.177148700E-1
2.640307730E1,1.682717085E0,1.572196007E0,1.845569313E-1
2.642334657E1,1.460609555E0,2.802175999E0,8.305061460E-1
2.644374657E1,1.541569591E0,2.761296511E0,2.145707369E0
2.646388527E1,1.859950304E0,1.372991681E0,2.625608444E0
2.648415470E1,2.250369549E0,8.602004051E-1,1.836381316E0
2.650442407E1,2.334924698E0,1.257410526E0,7.303713560E-1
2.652469334E1,2.074600935E0,1.118526816E0,1.158474237E-1
2.654496282E1,1.622529626E0,9.225183129E-1,2.223737836E-1
2.656523225E1,1.240632653E0,1.263802171E0,5.876260400E-1
2.658550167E1,5.937513113E-1,1.229713678E0,8.858999014E-1
2.660577105E1,-3.621896356E-2,7.771098018E-1,9.322388172E-1
2.662604053E1,-1.411474347E-1,4.241080880E-1,5.860281587E-1
2.664644053E1,2.555301189E-1,7.094655633E-1,4.785696864E-1
2.666657944E1,5.788376331E-1,1.600425482E0,6.185187101E-1
2.668684891E1,7.885614038E-1,1.830389261E0,6.877608299E-1
2.670711839E1,1.044757366E0,1.115331054E0,6.600639820E-1
2.672738782E1,1.484045386E0,5.512739345E-2,2.207758874E-1
2.674765730E1,1.680586576E0,-1.168061614E0,-3.522028029E-1
2.676792673E1,1.384975910E0,-2.135054588E0,-4.283691347E-1
2.678819621E1,1.244893670E0,-2.109488249E0,-3.543333113E-1
2.680846568E1,8.609993458E-1,-1.595631719E0,-2.547311783E-1
2.682873516E1,4.420844093E-2,-1.166996360E0,1.890842989E-2
2.684900464E1,-8.653935790E-1,-1.539705396E0,-1.913479865E-1
2.686927407E1,-1.434643865E0,-1.466868043E0,-5.901560783E-1
2.688954355E1,-2.017076731E0,-1.663276076E0,-5.631250143E-1
2.690981303E1,-2.565021753E0,-1.543966532E0,-3.884217441E-1
2.693008251E1,-2.906438589E0,-6.334323883E-1,-9.241161942E-1
2.695035199E1,-3.265299320E0,-1.856221855E-1,-1.092960477E0
2.697062147E1,-2.898449183E0,-7.660577297E-1,-1.219593763E0
2.699089094E1,-2.078329325E0,-2.209623098E0,-1.394297004E0
2.701116042E1,-1.637443423E0,-2.963696718E0,-1.282976866E0
2.703142990E1,-1.978327751E0,-2.245309353E0,-1.064731002E0
2.705169933E1,-2.986333370E0,-1.949299335E0,-8.415582776E-1
2.707196881E1,-3.679021120E0,-2.124934673E0,-5.933518410E-1
2.709223829E1,-2.600175381E0,-1.632383347E0,-7.675224543E-1
2.711250777E1,-1.720533967E0,-1.089764714E0,-8.990825415E-1
2.713277725E1,-2.037316799E0,-1.223455310E0,-8.665919900E-1
2.715304673E1,-1.486175895E0,-7.926893234E-1,-5.933518410E-1
2.717331621E1,-5.516734123E-1,-5.737776160E-1,-2.328932583E-1
2.719358569E1,2.427469492E-1,-5.652555227E-1,-7.150582224E-2
2.721385516E1,7.624624372E-1,-4.130559862E-1,-9.014793485E-2
2.723412464E1,8.860330582E-1,2.312953621E-1,-2.403501123E-1
2.725439412E1,1.566603303E0,1.127048969E0,-3.740406930E-1
2.727466360E1,2.395644665E0,8.293077350E-1,-5.020054802E-2
2.729493308E1,2.277533770E0,5.482112765E-1,3.922833502E-1
2.731520256E1,2.502037883E-1,2.630801678E0,1.286305785E-1
2.733547204E1,1.801360846E0,1.519465446E0,4.838960171E-1
2.735574152E1,2.178464174E0,-9.253146052E-1,1.158474237E-1
2.737601100E1,1.691239238E0,6.578003168E-1,-2.786996067E-1
2.739628048E1,1.579919100E0,2.486458540E0,5.940176249E-1
2.741654996E1,1.626258135E0,2.816024542E0,2.090979338E0
2.743681944E1,1.867939830E0,2.024799824E0,2.758100748E0
2.745708891E1,2.438255310E0,1.476854920E0,2.330530643E0
2.747735839E1,2.330663681E0,1.553553820E0,8.944219947E-1
2.749762787E1,1.615605474E0,1.023718357E0,-1.620532274E-1
2.751789735E1,7.976161242E-1,7.744466662E-1,6.578002870E-2
2.753829735E1,2.411490530E-1,1.007739425E0,3.933486044E-1
2.755843631E1,-1.693769246E-1,1.171656847E0,6.334323883E-1
2.757870579E1,-7.456845604E-3,1.111070037E0,8.773777485E-1
2.759897532E1,7.459508777E-1,9.986846447E-1,1.074318409E0
2.761924480E1,1.170458436E0,1.396960139E0,1.080709934E0
2.763964480E1,1.339169502E0,1.548760176E0,7.154576778E-1
2.765978376E1,1.633182287E0,4.752407372E-1,8.761793375E-2
2.768005329E1,1.665140271E0,-9.992172718E-1,-4.193144143E-1
2.770032277E1,1.555418015E0,-1.335307956E0,-5.482112765E-1
2.772059225E1,1.521329641E0,-1.155278444E0,-5.316997170E-1
2.774099225E1,1.144359469E0,-1.122255206E0,-1.705753356E-1
2.776113126E1,3.785680532E-1,-8.880304098E-1,6.030724049E-1
2.778140074E1,-9.531446695E-1,-1.511609077E0,4.913528562E-1
2.780167027E1,-2.026664019E0,-1.876861334E0,-1.961416751E-1
2.782193975E1,-2.198171616E0,-1.307611108E0,-6.625939608E-1
2.784233975E1,-2.469813824E0,-9.514135718E-1,-1.149286270E0
2.786247871E1,-3.500190020E0,-3.656517565E-1,-1.867140889E0
2.788274824E1,-3.815374851E0,-1.786979735E-1,-1.860216618E0
2.790301772E1,-2.977278709E0,-1.210672140E0,-1.370861173E0
2.792328725E1,-1.772731900E0,-2.898182869E0,-1.170058966E0
2.794355673E1,-1.123586774E0,-3.169159412E0,-9.661940932E-1
2.796382621E1,-1.693369746E0,-2.221340895E0,-8.506129980E-1
2.798409574E1,-3.342530966E0,-1.608947515E0,-9.118656516E-1
2.800436522E1,-4.547077656E0,-1.599360228E0,-7.105308771E-1
2.802463475E1,-3.518832207E0,-7.095987201E-1,-5.050681233E-1
2.804490423E1,-1.953294039E0,-1.112135291E0,-4.629902244E-1
2.806517376E1,-1.876062393E0,-7.266429663E-1,-3.314301372E-1
2.808544324E1,-1.038365722E0,-2.857569754E-1,-1.343563795E-1
2.810571277E1,7.403582335E-2,-3.352917433E-1,1.808284968E-1
2.812598225E1,9.856351614E-1,-9.827057272E-2,2.644517124E-1
2.814625178E1,1.222523212E0,4.768386483E-1,2.340916842E-1
2.816652131E1,1.143294215E0,1.073785782E0,5.566002429E-2
2.818679079E1,1.978194594E0,1.363936901E0,-7.310371846E-2
2.820719079E1,2.533596516E0,1.084971070E0,1.137168929E-1
2.822732980E1,5.282375813E-1,1.699494958E0,1.898832470E-1
2.824759933E1,1.445695877E0,1.974199891E0,9.853689000E-3
2.826786881E1,2.120939970E0,-4.502070546E-1,4.055991173E-1
2.828813834E1,1.780588150E0,6.476802826E-1,-7.989477599E-4
2.830840782E1,1.565538049E0,2.794719219E0,3.555317521E-1
2.832867735E1,1.673662305E0,3.005641460E0,1.724528670E0
2.834894688E1,1.847699761E0,2.230928421E0,2.786862850E0
2.836921636E1,2.397242785E0,1.363936901E0,2.614955902E0
2.838948589E1,2.513356447E0,1.248888493E0,1.790042400E0
2.840975542E1,1.961150408E0,1.176450491E0,4.972118139E-1
2.843002490E1,1.125184774E0,1.057806849E0,-1.082574204E-1
2.845029444E1,4.025365114E-1,1.264867425E0,3.134538233E-1
2.847056397E1,-2.551306486E-1,1.081242561E0,6.765755415E-1
2.849083345E1,-3.973433375E-1,7.861645818E-1,8.912261724E-1
2.851110298E1,3.621896356E-2,7.941540480E-1,9.689904451E-1
2.853137251E1,6.203829050E-1,1.518932819E0,1.001480937E0
2.855164199E1,1.054877281E0,2.188317776E0,8.731167316E-1
2.857191152E1,1.309874773E0,1.363936901E0,5.801692009E-1
2.859218105E1,1.434510708E0,-4.066644013E-1,1.760348231E-1
2.861245053E1,1.461674929E0,-1.361939549E0,-1.988048255E-1
2.863272006E1,1.431847453E0,-1.046088934E0,-3.607248962E-1
2.865298959E1,1.280047417E0,-1.120657325E0,-4.550007284E-1
2.867325912E1,7.406245470E-1,-1.246358514E0,-1.972069293E-1
2.869352865E1,6.018739566E-2,-1.163267851E0,2.085253596E-1
2.871379813E1,-6.976145506E-1,-1.961017251E0,-8.269108832E-2
2.873406766E1,-1.197090030E0,-1.627057076E0,-4.747081101E-1
2.875433720E1,-1.955424547E0,-1.038099408E0,-4.874912798E-1
2.877460673E1,-2.628937483E0,-5.721797347E-1,-5.711144805E-1
2.879487626E1,-3.265831947E0,-2.580601275E-1,-1.390568495E0
2.881514579E1,-3.689673662E0,1.897500902E-1,-1.636111736E0
2.883541532E1,-3.057173491E0,-5.540702343E-1,-1.489105463E0
2.885568480E1,-1.922401428E0,-2.374738932E0,-1.460875869E0
2.887595433E1,-1.353151083E0,-3.128812551E0,-1.157808423E0
2.889622386E1,-1.970338225E0,-2.106292486E0,-8.633961678E-1
2.891649334E1,-3.427752018E0,-1.529585481E0,-7.009434700E-1
2.893676292E1,-4.162118435E0,-1.604686499E0,-2.936132848E-1
2.895703246E1,-2.756769180E0,-8.092008829E-1,-1.268995255E-1
2.897730199E1,-2.398973703E0,-1.001880407E0,-2.621880174E-1
2.899757152E1,-2.120939970E0,-6.584661007E-1,-2.163816839E-1
2.901784105E1,-1.206144810E0,-4.683165252E-1,6.578002870E-2
2.903811063E1,-1.475390196E-1,-2.756369710E-1,3.880222738E-1
2.905838016E1,8.482161760E-1,-1.158474237E-1,4.343612492E-1
2.907864970E1,1.148620486E0,2.760364413E-1,2.340916842E-1
2.909891923E1,1.329049587E0,1.009337306E0,-1.198421605E-2
2.911918876E1,2.148636818E0,1.515737057E0,2.530001104E-2
2.913958876E1,2.288585663E0,1.026381493E0,4.391549230E-1
2.915972782E1,-1.768337637E-1,2.346376419E0,3.062633052E-2
2.917999740E1,2.195508480E0,1.255280018E0,-4.059986174E-1
2.920026694E1,2.763693333E0,-8.054724932E-1,4.926844314E-2
2.922010563E1,1.969672441E0,5.727123618E-1,-2.067943066E-1
2.924050563E1,1.531982303E0,2.354365826E0,1.637842804E-1
2.926090563E1,1.635312796E0,3.006706715E0,1.406147957E0
2.928130563E1,1.813611388E0,2.254230976E0,2.322540998E0
2.930161746E1,2.384992123E0,1.506682277E0,2.294844151E0
2.932188589E1,2.495779514E0,1.502421260E0,1.571796536E0
2.934228589E1,2.237053633E0,1.261139035E0,6.004092097E-1
2.936242464E1,1.603354931E0,1.321859002E0,2.796317078E-2
2.938269397E1,7.981488109E-1,1.952894568E0,5.530049801E-1
2.940296329E1,7.723161578E-2,2.063149452E0,1.098286867E0
2.942323261E1,-1.400821656E-1,1.711612344E0,1.267131090E0
2.944363261E1,5.996102691E-1,1.114265800E0,1.269261599E0
2.946377157E1,1.694435000E0,9.507477880E-1,1.141430020E0
2.948404110E1,2.078861952E0,1.409210682E0,6.669881940E-1
2.950431053E1,2.027196646E0,1.833585054E-1,5.938844755E-2
2.952458006E1,1.683782339E0,-1.731985569E0,-5.066660047E-1
2.954484954E1,1.579919100E0,-2.102564096E0,-7.440866828E-1
2.956511902E1,1.317864299E0,-1.187768936E0,-5.157207847E-1
2.958538860E1,5.319660306E-1,2.259690464E-1,1.328916401E-1
2.960565808E1,-4.637891650E-1,5.551354885E-1,6.052029133E-1
2.962592766E1,-1.582049608E0,-4.960133731E-1,1.696432382E-1
2.964619725E1,-2.094308376E0,-2.820285559E-1,-2.755038142E-1
2.966646667E1,-2.185920954E0,2.387522161E-1,-5.450155139E-1
2.968673631E1,-2.957571268E0,4.427502155E-1,-1.233974814E0
2.970700589E1,-3.805787563E0,8.815056682E-1,-1.574326515E0
2.972727548E1,-3.544931173E0,1.037566781E0,-9.853688478E-1
2.974754506E1,-2.699244976E0,-2.639190555E-1,-4.352933466E-1
2.976781459E1,-2.020805120E0,-1.956756115E0,-4.326302111E-1
2.978808417E1,-1.938912988E0,-2.369945288E0,-7.653919458E-1
2.980835376E1,-2.753040791E0,-1.647297025E0,-1.155145288E0
2.982862334E1,-3.748263359E0,-1.140897393E0,-1.293629527E0
2.984889292E1,-3.660378933E0,-1.483379602E0,-7.994803786E-1
2.986916251E1,-2.216280937E0,-1.367798567E0,-3.522028029E-1
2.988943209E1,-2.790324926E0,-1.208009005E0,-2.579269707E-1
2.990970167E1,-2.971952438E0,-1.301219583E0,-1.972069293E-1
2.992997121E1,-2.580467939E0,-6.062681675E-1,1.158474237E-1
2.995024079E1,-2.223205328E0,-1.355548054E-1,4.103928208E-1
2.997051037E1,-1.669933915E0,2.952111959E-1,4.679170549E-1
2.999077996E1,-9.867004752E-1,7.360971570E-1,4.519380927E-1
3.001104954E1,-2.471411675E-1,9.321056604E-1,5.327649713E-1
3.003131912E1,5.985450149E-1,8.527435660E-1,6.387587190E-1
3.005158871E1,1.335973740E0,3.106575012E-1,7.362303138E-1
3.007185829E1,1.865809321E0,-1.366200596E-1,6.323671341E-1
3.009212792E1,2.020805120E0,-4.816323221E-1,2.681801319E-1
3.011239751E1,1.641704440E0,-4.071970284E-1,-3.095922470E-1
3.013266709E1,-7.380945683E-1,3.117227852E-1,-5.364934206E-1
3.015293667E1,1.694967628E0,-1.259141564E0,-1.080709934E0
3.017320626E1,2.466484785E0,9.566067457E-1,-1.113200545E0
3.019347589E1,1.915876627E0,2.111618757E0,-2.110553533E-1
3.021374548E1,1.498959064E0,2.534928083E0,2.324937880E-1
3.023414548E1,1.650226593E0,3.407112598E0,3.384875357E-1
3.025428464E1,2.251434803E0,3.706984282E0,7.367629409E-1
3.027455423E1,2.623611212E0,2.394845724E0,8.997483253E-1
3.029482381E1,2.794585943E0,1.441701174E0,6.589987278E-1
3.031509339E1,2.558629990E0,1.663276076E0,4.966791868E-1
3.033536303E1,2.274870396E0,2.547711134E0,8.496809006E-1
3.035563261E1,2.316282511E0,3.308176279E0,1.468465924E0
3.037590220E1,2.590055466E0,3.341598988E0,1.981789827E0
3.039617178E1,2.624143839E0,3.023218155E0,2.000964642E0
3.041644136E1,2.175268412E0,2.745850086E0,1.223455310E0
3.043671100E1,1.437706470E0,2.234656811E0,4.093275666E-1
3.045711100E1,8.088014126E-1,1.975265145E0,3.965443969E-1
3.047725016E1,9.587372839E-2,1.976863027E0,4.471444190E-1
3.049751975E1,-4.600607455E-1,1.876728177E0,1.035968885E-1
3.051778938E1,-2.982738242E-2,9.321056604E-1,1.997369342E-2
3.053805897E1,7.965508699E-1,1.317597985E0,1.051947847E-1
3.055832855E1,9.361004233E-1,2.759166002E0,1.243695319E-1
3.057859813E1,8.370308876E-1,2.262220383E0,2.016011477E-1
3.059886772E1,6.820350289E-1,7.355645299E-1,3.555317521E-1
3.061913735E1,6.672545075E-1,3.133206666E-1,4.759065211E-1
3.063953735E1,6.246439815E-1,1.793105006E0,4.673844278E-1
3.065967652E1,4.536691606E-1,2.423607826E0,2.575274706E-1
3.067994610E1,1.553953290E-1,1.755820751E0,2.423474751E-2
3.070021574E1,7.084003091E-2,1.763277650E0,5.086633936E-2
3.072048532E1,6.391582079E-3,2.182991505E0,9.667267650E-2
3.074088532E1,-6.581997871E-1,1.441168547E0,-4.454133511E-1
3.076102449E1,-1.189633131E0,8.996151686E-1,-9.827057123E-1
3.078129412E1,-1.458612204E0,1.457680106E0,-1.189233661E0
3.080156371E1,-2.061817884E0,2.181393623E0,-1.151416779E0
3.082183329E1,-2.308426380E0,2.506698608E0,-1.067926764E0
3.084223329E1,-2.244510412E0,3.277283669E0,-1.008272052E0
3.086237251E1,-1.974066734E0,3.993939638E0,-7.547392845E-1
3.088264209E1,-1.542634964E0,3.170224667E0,-3.836280704E-1
3.090291173E1,-1.772731900E0,1.157941580E0,-2.776343226E-1
3.092318131E1,-2.340916872E0,-4.316980839E-1,-4.470112622E-1
3.094345089E1,-2.651840687E0,-5.684512854E-1,-4.715123177E-1
3.096372048E1,-2.263685226E0,-9.780451655E-1,-2.025332451E-1
3.098399011E1,-1.498959064E0,-1.478053331E0,2.095906287E-1
3.100425970E1,-9.733846784E-1,-4.528702199E-1,4.535360038E-1
3.102452928E1,-7.194524407E-1,8.703203797E-1,3.464770019E-1
3.104479891E1,-5.319660306E-1,1.323456883E0,6.631266326E-2
3.106506850E1,-4.318312407E-1,8.767119646E-1,-8.162582666E-2
3.108533808E1,-2.514022291E-1,-1.145158429E-2,-1.796300858E-1
3.110560772E1,5.752423778E-2,-5.098618269E-1,-1.812279820E-1
3.112587725E1,3.396859467E-1,-3.368896246E-1,-3.115896136E-2
3.114614688E1,3.476754129E-1,1.476721764E-1,8.255792782E-3
3.116641652E1,8.894951642E-2,6.307692528E-1,6.684529036E-2
3.118668610E1,-2.237053663E-1,6.313018799E-1,3.480748832E-1
3.120695568E1,-3.813643754E-1,3.580617309E-1,6.419544816E-1
3.122722532E1,-2.902843356E-1,3.968106955E-2,6.717818975E-1
3.124749485E1,-2.876211889E-2,-4.629902244E-1,4.822981060E-1
3.126776449E1,2.597911656E-1,-7.479482293E-1,3.635212183E-1
3.128803412E1,-5.010733604E-1,-7.255777121E-1,5.482112765E-1
3.130830371E1,-2.221074581E0,3.000048697E-1,7.713840604E-1
3.132857329E1,-1.609213829E0,1.338370562E0,9.157272577E-1
3.134884287E1,5.585976243E-1,1.605219126E0,9.689904451E-1
3.136911251E1,6.581997871E-1,1.398558021E0,1.035968900E0
3.138938209E1,6.123934388E-1,2.496045828E0,9.663273096E-1
3.140965173E1,1.437173843E0,3.457712650E0,3.954791129E-1
3.142992131E1,1.587908626E0,3.668102264E0,5.183839202E-1
3.145019089E1,1.775261879E0,3.213900328E0,6.920219064E-1
3.147046048E1,2.012283087E0,2.767688036E0,3.518033028E-1
3.149073006E1,2.058621883E0,2.333593130E0,-9.387636185E-2
3.151099970E1,1.786979795E0,2.110553503E0,-1.918806136E-1
3.153126928E1,1.576723337E0,2.184056759E0,-5.925529078E-2
3.155153886E1,1.520797014E0,2.749578714E0,2.724411786E-1
3.157180845E1,1.234773755E0,3.575424194E0,9.588704109E-1
3.159207808E1,7.241129875E-1,3.425754786E0,1.413604856E0
3.161234766E1,3.828291297E-1,2.322407961E0,8.645945787E-1
3.163261725E1,1.820269227E-1,1.919338822E0,1.227716357E-1
3.165288683E1,-1.278316416E-2,2.401237488E0,-2.902843431E-2
3.167315641E1,-8.628635854E-2,2.279797316E0,-1.348890066E-1
3.169342600E1,-1.182442605E-1,1.731852412E0,-1.311605871E-1
3.171369563E1,-1.198421568E-1,1.272856951E0,-5.978792161E-2
3.173396522E1,-1.656484902E-1,8.969519734E-1,1.304947957E-2
3.175423480E1,-2.998717129E-1,6.201165915E-1,1.105211005E-1
3.177450449E1,-7.616634667E-2,6.865624189E-1,3.709780574E-1
3.179477397E1,7.060034871E-1,1.583913922E0,8.028092980E-1
3.181504360E1,1.412140131E0,1.713742852E0,1.042893052E0
3.183531313E1,1.437706470E0,1.163267851E0,1.058872104E0
3.185558277E1,1.235306382E0,1.253682137E0,9.135967493E-1
3.187585235E1,1.161403656E0,1.573261261E0,7.458177209E-1
3.189612194E1,1.031974196E0,1.205745339E0,6.488786936E-1
3.191639152E1,4.818986356E-1,-1.464737486E-2,3.677822649E-1
3.193666110E1,-1.054610983E-1,-6.025397182E-1,7.962846011E-2
3.195693074E1,-3.179811835E-1,2.280995846E-1,-2.110553533E-1
3.197720032E1,-7.519429922E-1,1.328250647E0,-2.909501195E-1
3.199746990E1,-1.428784847E0,1.590838075E0,-3.314301372E-1
3.201773949E1,-1.998035073E0,8.458193541E-1,-4.896217883E-1
3.203813949E1,-2.382994652E0,3.633880615E-1,-7.941540480E-1
3.205827865E1,-3.005508184E0,3.857586086E-1,-1.048219442E0
3.207854824E1,-3.185404539E0,3.735080659E-1,-1.022653103E0
3.209881787E1,-2.890459776E0,-4.660528526E-2,-9.353014827E-1
3.211908746E1,-3.155577183E0,-5.263733864E-1,-8.484824896E-1
3.213948746E1,-3.804189682E0,-1.731053367E-2,-8.953540921E-1
3.215962662E1,-4.210454464E0,2.158490419E-1,-1.291499019E0
3.217989621E1,-3.995404482E0,-1.984053552E-1,-1.379383206E0
3.220016579E1,-2.502836943E0,-4.661859870E-1,-3.351585865E-1
3.221984876E1,-2.639057398E0,-4.800344408E-1,1.637842804E-1
3.224024876E1,-2.212552547E0,-5.221123695E-1,2.878875136E-1
3.226064876E1,-1.354216456E0,-6.707166433E-1,4.226433635E-1
3.228104876E1,-6.171871424E-1,-3.896201849E-1,4.556665123E-1
3.230144876E1,2.374206334E-1,-1.083905771E-1,4.322307110E-1
3.232178714E1,8.098666668E-1,1.183774248E-1,4.412854612E-1
3.234218714E1,9.387635589E-1,6.185187101E-1,4.024033546E-1
3.236232496E1,1.290700078E0,1.125451088E0,4.040012360E-1
3.238259402E1,2.005891323E0,9.139962196E-1,7.229145169E-1
3.240286324E1,1.120391011E0,5.572660565E-1,1.016927361E0
3.242313251E1,5.133239031E-1,1.436374903E0,-5.179844424E-2
3.244353251E1,2.653438568E0,1.210405827E-1,-2.296974659E-1
3.246367136E1,2.479800701E0,-4.810996950E-1,-7.736477256E-2
3.248394079E1,1.683249712E0,1.018392086E0,5.193160102E-2
3.250421016E1,1.596963406E0,2.216014624E0,9.791104198E-1
3.252447970E1,1.584180236E0,2.158490419E0,2.181393623E0
3.254474912E1,1.712011814E0,1.178581119E0,2.603238106E0
3.256501865E1,2.074068308E0,5.567334294E-1,2.183524132E0
3.258528813E1,2.241847277E0,4.800344408E-1,1.377918482E0
3.260555766E1,1.849830270E0,4.214449227E-1,2.953443527E-1
3.262582714E1,1.300287485E0,4.976112843E-1,1.467400640E-1
3.264609662E1,7.827024460E-1,8.735162020E-1,4.183822870E-1
3.266636626E1,6.231792271E-2,5.418196917E-1,5.865607858E-1
3.268663584E1,-2.822948694E-1,2.103895694E-2,6.568682194E-1
3.270698412E1,-7.030740380E-2,-9.400951862E-2,7.649924755E-1
3.272717506E1,1.958753467E-1,8.548740745E-1,9.359672666E-1
3.274744459E1,4.898881316E-1,2.055692434E0,9.423588514E-1
3.276771412E1,9.984183311E-1,2.027462959E0,7.841671705E-1
3.278798371E1,1.579919100E0,9.917604327E-1,4.279696643E-1
3.280825329E1,1.984053493E0,-9.347688407E-2,-3.154512048E-1
3.282852287E1,1.931855559E0,-6.382260919E-1,-6.748445034E-1
3.284879240E1,1.607083321E0,-1.519598603E0,-3.143859208E-1
3.286906194E1,1.075649977E0,-1.728789687E0,6.791055948E-2
3.288933152E1,7.550055981E-1,-1.425855398E0,-3.435475379E-2
3.290960110E1,1.054610983E-1,-1.503619671E0,-2.169143111E-1
3.292987069E1,-8.803072572E-1,-1.530118108E0,-2.515353858E-1
3.295014022E1,-1.986849904E0,-1.398691177E0,-1.226384789E-1
3.297040980E1,-2.735996485E0,-6.685860753E-1,-1.753690243E-1
3.299067938E1,-3.161436081E0,-1.198421605E-2,-8.069372177E-1
3.301094897E1,-3.649193764E0,4.278365076E-1,-1.483246446E0
3.303121850E1,-3.278615236E0,-1.142495275E-1,-2.025865078E0
3.305148808E1,-2.205095768E0,-1.587109685E0,-2.254230976E0
3.307175766E1,-1.489904404E0,-2.757568121E0,-1.919338822E0
3.309202714E1,-1.853691936E0,-2.874214411E0,-1.013598323E0
3.311229673E1,-3.120423555E0,-2.095639944E0,-6.439518929E-1
3.313256631E1,-4.150400162E0,-1.638774991E0,-7.776424289E-1
3.315283584E1,-3.197122574E0,-1.828391910E0,-8.697877526E-1
3.317310542E1,-2.521479130E0,-1.633981228E0,-7.808382511E-1
3.319337496E1,-2.888329268E0,-1.451954365E0,-7.403582335E-1
3.321364454E1,-2.197106361E0,-1.084438443E0,-5.832318664E-1
3.323391412E1,-1.275919557E0,-5.881586671E-1,-2.440785319E-1
3.325418365E1,-3.137201369E-1,-6.684529036E-2,1.962748319E-1
3.327445324E1,6.400902867E-1,-8.788425475E-3,4.375570416E-1
3.329472277E1,1.403617978E0,-4.820318148E-2,5.359607935E-1
3.331499235E1,1.709348679E0,3.783017397E-1,2.942790687E-1
3.333526194E1,2.069807291E0,6.886929274E-1,7.696529478E-2
3.335553147E1,2.835465431E0,7.978824377E-1,1.632516533E-1
3.337580105E1,2.347574681E-1,1.082307816E0,4.013380706E-1
3.339607058E1,1.183774233E0,1.055676222E0,-5.020054802E-2
3.341634016E1,3.057040453E0,5.386239290E-1,1.579253376E-1
3.343660970E1,2.036784172E0,1.198821068E0,1.893506050E-1
3.345687928E1,1.693369746E0,2.501904726E0,4.247738719E-1
3.347714876E1,1.908419847E0,2.881005526E0,1.281512141E0
3.349741834E1,2.020805120E0,2.299504757E0,2.138782978E0
3.351768792E1,2.316282511E0,1.520530701E0,2.435991526E0
3.353795746E1,2.350903749E0,1.636644483E0,1.981257200E0
3.355822699E1,2.037849426E0,1.161137342E0,6.893587112E-1
3.357849657E1,1.617735982E0,5.492765903E-1,-1.386174262E-1
3.359876610E1,1.306146383E0,1.144625783E0,1.632516533E-1
3.361903568E1,7.715172172E-1,1.646764398E0,5.157207847E-1
3.363943568E1,1.097221524E-1,1.119592071E0,6.744450331E-1
3.365957475E1,-2.146506310E-1,6.147902608E-1,7.058703303E-1
3.367984433E1,-1.651158631E-1,1.189766288E0,6.728471518E-1
3.370011386E1,1.012000442E-2,1.877260804E0,7.399587631E-1
3.372038344E1,1.798963994E-1,1.907088280E0,8.177229762E-1
3.374078345E1,6.502103209E-1,1.428918004E0,8.944219947E-1
3.376092251E1,1.357811689E0,5.034702420E-1,8.219840527E-1
3.378119204E1,1.972335577E0,-2.665822208E-1,1.973400861E-1
3.380146157E1,2.186986208E0,-1.098819494E0,-3.500722647E-1
3.382173115E1,1.977661967E0,-1.821467638E0,-3.761712313E-1
3.384213115E1,1.442500114E0,-1.824663401E0,-1.146489978E-1
3.386227022E1,1.004809976E0,-1.322524786E0,4.926844314E-2
3.388253980E1,2.448774725E-1,-1.582315922E0,-3.701791167E-2
3.390280933E1,-6.182523966E-1,-1.808151841E0,-2.089248300E-1
3.392307886E1,-1.460742712E0,-1.696831822E0,-1.902827173E-1
3.394347886E1,-2.395777941E0,-6.984134912E-1,-2.849580161E-2
3.396361792E1,-2.967158794E0,3.271690905E-1,-5.189165473E-1
3.398388746E1,-3.509244680E0,8.596677780E-1,-1.383111715E0
3.400415704E1,-3.294061422E0,4.773712754E-1,-1.862347126E0
3.402442657E1,-2.244510412E0,-4.885565341E-1,-1.855955601E0
3.404469610E1,-1.427186966E0,-1.812412977E0,-1.432646394E0
3.406496563E1,-1.487241149E0,-3.236803532E0,-4.709796906E-1
3.408523516E1,-2.613491297E0,-2.414153814E0,-9.068056941E-2
3.410550470E1,-4.157324314E0,-9.748494029E-1,-4.278365076E-1
3.412577423E1,-4.827108860E0,-8.811061978E-1,-5.832318664E-1
3.414604376E1,-2.639057398E0,-1.236771107E0,-2.829606533E-1
3.416631329E1,-2.452236891E0,-8.235819340E-1,-4.753739014E-2
3.418658287E1,-1.947967768E0,-6.286386847E-1,-4.380896688E-2
3.420685240E1,-9.590035677E-1,-5.881586671E-1,1.944106072E-2
3.422712194E1,1.251684725E-1,-2.575274706E-1,2.681801319E-1
3.424739147E1,9.978857040E-1,-1.824263930E-1,2.383527458E-1
3.426766100E1,1.382312775E0,4.177165031E-1,6.311687082E-2
3.428793053E1,1.672064424E0,1.353284240E0,-1.331579522E-3
3.430820006E1,2.249304295E0,1.796300769E0,3.054643571E-1
3.432846959E1,1.894038796E0,1.198821068E0,7.671229839E-1
3.434873912E1,-1.613874435E-1,2.709631205E0,-1.013332009E-1
3.436900860E1,2.453169107E0,6.174534559E-1,-7.044056058E-2
3.438927813E1,2.781802893E0,-5.593965650E-1,4.981439114E-1
3.440967813E1,1.785381913E0,1.236105323E0,2.404832691E-1
3.442981720E1,1.555418015E0,2.980607748E0,8.257125020E-1
3.445008673E1,1.683782339E0,3.204845667E0,2.212286234E0
3.447035626E1,1.935584068E0,1.854357719E0,2.962631226E0
3.449062574E1,2.563423872E0,9.693899155E-1,2.349705219E0
3.451089527E1,2.429733276E0,1.322391629E0,7.111966610E-1
3.453116480E1,1.919072509E0,7.526087761E-1,-2.733732760E-1
3.455143433E1,1.193894267E0,2.243711501E-1,-1.934785098E-1
3.457170386E1,6.091976166E-1,5.934849977E-1,2.697780132E-1
3.459197339E1,3.089264594E-2,7.978824377E-1,5.897566080E-1
3.461224287E1,-1.821600795E-1,5.226449966E-1,7.649924755E-1
3.463251240E1,4.408859909E-1,3.543333113E-1,9.610009789E-1
3.465278194E1,1.122521520E0,1.124385715E0,1.195225835E0
3.467305147E1,1.470729589E0,2.094042063E0,9.817736149E-1
3.469332094E1,1.609746575E0,1.354349613E0,2.836264372E-1
3.471359048E1,1.635845423E0,-4.539354742E-1,-2.786996067E-1
3.473399048E1,1.460609555E0,-1.558347583E0,-3.825628161E-1
3.475412954E1,1.356746435E0,-1.572196007E0,-4.406196773E-1
3.477439902E1,1.214001060E0,-1.260206938E0,-3.985417485E-1
3.479466855E1,4.957470596E-1,-7.111966610E-1,1.456748098E-1
3.481493808E1,-5.948165655E-1,-1.285773158E0,2.575274706E-1
3.483520756E1,-1.531982303E0,-2.244244099E0,-3.277017176E-1
3.485547709E1,-1.699228644E0,-1.536509633E0,-7.685877085E-1
3.487574662E1,-2.019739866E0,-1.270859480E0,-8.740488291E-1
3.489601610E1,-2.707234383E0,-8.454198837E-1,-1.313336968E0
3.491628563E1,-3.584878445E0,3.275685757E-2,-1.668469191E0
3.493655511E1,-3.665172815E0,4.181159660E-2,-1.259541154E0
3.495682464E1,-2.759964943E0,-1.415735364E0,-7.350319028E-1
3.497709412E1,-1.831321359E0,-2.703239679E0,-6.077328920E-1
3.499736365E1,-1.449024916E0,-2.149968386E0,-5.695165992E-1
3.501763318E1,-2.181127310E0,-1.308676362E0,-7.760445476E-1
3.503790266E1,-3.640139103E0,-8.997483253E-1,-1.166863203E0
3.505817220E1,-4.409658909E0,-1.548760176E0,-1.210538983E0
3.507844167E1,-2.361156940E0,-2.006290913E0,-8.990825415E-1
3.509871121E1,-2.031457663E0,-1.119592071E0,-6.418213248E-1
3.511898069E1,-1.953826666E0,-1.434377551E0,-4.560659826E-1
3.513938068E1,-1.072454214E0,-8.848345876E-1,2.956106514E-2
3.515951970E1,-2.364885211E-1,-4.130559862E-1,3.741738498E-1
3.517978923E1,6.331660748E-1,-5.459476262E-2,4.130559862E-1
3.520005871E1,1.123054147E0,4.081291258E-1,3.278348744E-1
3.522028886E1,1.040496230E0,1.073785782E0,1.877527237E-1
3.524068886E1,1.217729449E0,1.669134974E0,1.344895363E-1
3.526086730E1,1.681651831E0,1.149419427E0,4.769718051E-1
3.528113678E1,-2.183790505E-1,1.404949546E0,3.475422561E-1
3.530140631E1,2.035718918E0,1.129179478E0,-3.191796243E-1
3.532167574E1,2.481398582E0,-8.049398661E-1,6.472808123E-1
3.534207574E1,1.910550356E0,9.171919823E-1,5.860281587E-1
3.536221475E1,1.410542250E0,2.415085793E0,1.081242561E0
3.538248423E1,1.551156998E0,2.783533812E0,2.146239996E0
3.540275371E1,1.612409711E0,2.310157299E0,2.656368017E0
3.542302319E1,1.874331355E0,1.858086109E0,2.059554100E0
3.544342318E1,2.282327414E0,1.389503241E0,9.402283430E-1
3.546356220E1,2.366349936E0,1.040229917E0,1.419463754E-1
3.548383167E1,2.118809462E0,8.958867192E-1,6.125265732E-3
3.550410121E1,1.834916592E0,9.763141274E-1,4.018706977E-1
3.552437068E1,1.200285792E0,1.065796256E0,9.546093941E-1
3.554464016E1,3.998733461E-1,6.764423847E-1,1.075383663E0
3.556490964E1,3.195791040E-3,8.788425475E-3,7.586008906E-1
3.558517912E1,3.668501675E-1,-2.884201407E-1,5.982787013E-1
3.560544860E1,8.876309395E-1,5.444828868E-1,5.796365738E-1
3.562571813E1,1.042626739E0,1.308010578E0,4.807002246E-1
3.564598761E1,1.113466859E0,1.164865732E0,4.071970284E-1
3.566625709E1,1.272057891E0,6.083986759E-1,3.688475490E-1
3.568652657E1,1.371660113E0,-2.580601275E-1,4.181159660E-2
3.570679605E1,1.264068484E0,-1.332644820E0,-3.548659384E-1
3.572706553E1,1.070323586E0,-1.695766568E0,-4.837628603E-1
3.574733496E1,9.313067198E-1,-1.219194293E0,-5.466133952E-1
3.576760449E1,4.962796867E-1,-7.170555592E-1,-9.068056941E-2
3.578787397E1,-2.226400971E-1,-7.820366621E-1,1.712411344E-1
3.580814344E1,-8.637956381E-1,-1.507880688E0,-1.870869249E-1
3.582841292E1,-1.433578491E0,-1.161137342E0,-5.242428780E-1
3.584868240E1,-2.199236870E0,-4.768386483E-1,-7.227813601E-1
3.586895188E1,-2.519348621E0,3.133206666E-1,-1.061002612E0
3.588922136E1,-2.896318674E0,7.494129539E-1,-1.344762206E0
3.590949084E1,-3.500190020E0,3.287670016E-1,-1.302151680E0
3.592976032E1,-3.389935255E0,-6.062681675E-1,-1.122654676E0
3.595002980E1,-2.461824179E0,-1.506815434E0,-1.013065696E0
3.597029928E1,-1.444763780E0,-2.463155746E0,-8.271772265E-1
3.599056876E1,-1.413871169E0,-1.935450912E0,-5.737776160E-1
3.601083824E1,-2.891525030E0,-6.313018799E-1,-7.318361402E-1
3.603110772E1,-4.270109177E0,-1.002945662E0,-1.055676222E0
3.605137720E1,-3.702989578E0,-1.902960300E0,-9.693899155E-1
3.607164667E1,-1.925597191E0,-1.294827938E0,-5.775060654E-1
3.609191615E1,-2.326535702E0,-1.178714275E0,-3.607248962E-1
3.611218558E1,-1.742371798E0,-8.432893157E-1,-8.961530030E-2
3.613245506E1,-8.813725114E-1,-8.331693411E-1,2.308958918E-1
3.615272454E1,-9.427583218E-2,-4.475438893E-1,3.597927988E-1
3.617299402E1,6.118608117E-1,-1.227716357E-1,3.475422561E-1
3.619326350E1,9.536772966E-1,4.544681013E-1,3.214432895E-1
3.621353298E1,9.020119905E-1,1.038099408E0,9.614004195E-2
3.623380246E1,1.715740204E0,9.912278056E-1,-5.819002539E-2
3.625407194E1,2.111352444E0,9.523456693E-1,-5.179844424E-2
3.627434141E1,-9.090693593E-1,1.537574887E0,-5.045354962E-1
3.629461089E1,2.568750143E0,-9.519461989E-1,-2.510027587E-1
3.631488037E1,2.484061718E0,-9.173251390E-1,3.480748832E-1
3.633514985E1,1.645965457E0,1.556749701E0,2.559295893E-1
3.635541928E1,1.358344316E0,2.405498505E0,8.789756894E-1
3.637568876E1,1.442500114E0,2.637725830E0,1.765541315E0
3.639595824E1,1.370062232E0,2.039713621E0,1.884318233E0
3.641622772E1,1.459544301E0,1.439570665E0,1.179246902E0
3.643649714E1,1.964878798E0,9.949562550E-1,6.004092097E-1
3.645676662E1,2.214683056E0,6.886929274E-1,3.869570196E-1
3.647703610E1,2.101765156E0,7.174550891E-1,4.870918095E-1
3.649730553E1,1.869537711E0,9.555414915E-1,8.693882823E-1
3.651757501E1,1.544765472E0,1.244627357E0,1.431714296E0
3.653797501E1,1.151816368E0,1.224387407E0,1.664341331E0
3.655811391E1,7.528750896E-1,8.048067093E-1,1.038632035E0
3.657838334E1,6.677871346E-1,-6.151897460E-2,3.869570196E-1
3.659865287E1,8.151929975E-1,1.796300858E-1,4.125233591E-1
3.661892230E1,1.164599419E0,7.659245729E-1,6.962829232E-1
3.663932230E1,1.495763302E0,1.021587849E0,9.050745964E-1
3.665946121E1,1.565005422E0,5.498092175E-1,6.824344993E-1
3.667973068E1,1.355681181E0,-6.147902608E-1,1.025316268E-1
3.670000016E1,1.063399434E0,-1.421061754E0,-2.808301151E-1
3.672026959E1,9.472857118E-1,-1.210139513E0,-2.733732760E-1
3.674066959E1,7.651256323E-1,-5.844302773E-1,-2.872217000E-1
3.676080850E1,7.243792713E-2,-7.282408476E-1,-3.825628161E-1
3.678107798E1,-8.558061719E-1,-1.387505889E0,-6.231792569E-1
3.680134740E1,-1.784449816E0,-1.183507919E0,-7.941540480E-1
3.682161688E1,-2.547578096E0,-3.219759464E-1,-9.182572365E-1
3.684201688E1,-2.839859724E0,6.169208288E-1,-1.222789526E0
3.686215579E1,-2.971419811E0,1.032773137E0,-1.163667321E0
3.688242522E1,-3.081674576E0,1.109205782E-1,-1.080709934E0
3.690269470E1,-2.947451353E0,-4.173170328E-1,-1.124785304E0
3.692296412E1,-2.578870058E0,-2.884201407E-1,-1.234507442E0
3.694323360E1,-2.086318731E0,-9.896299243E-1,-8.697877526E-1
3.696350303E1,-2.153963089E0,-1.285240531E0,-4.677838981E-1
3.698377251E1,-3.195524693E0,-6.265081763E-1,-4.411523044E-1
3.700404194E1,-4.011916161E0,-4.997417927E-1,-8.245140314E-1
3.702431141E1,-2.544914722E0,-9.082704186E-1,-7.984151244E-1
3.704450220E1,-2.453834772E0,-7.591335177E-1,-5.599291921E-1
3.706485011E1,-2.830805063E0,-1.182975292E0,-3.037332892E-1
3.708511964E1,-2.393114805E0,-7.655251026E-1,8.282424510E-2
3.710538907E1,-1.894704580E0,-3.885549009E-1,3.896201849E-1
3.712565855E1,-1.350487947E0,-6.897582114E-2,4.961465299E-1
3.714592803E1,-6.976145506E-1,1.018658355E-1,5.577986836E-1
3.716619746E1,-7.403582335E-2,3.229080439E-1,6.366282105E-1
3.718646694E1,5.958818197E-1,3.617901504E-1,6.430197358E-1
3.720673636E1,1.266731620E0,2.957438231E-1,6.190513372E-1
3.722700584E1,1.675260186E0,3.426154256E-1,4.402202070E-1
3.724727527E1,1.780588150E0,1.237037405E-1,1.073253155E-1
3.726754475E1,1.710413933E0,1.210405827E-1,-4.502070546E-1
3.728781417E1,-6.113281846E-1,7.339666486E-1,-5.880255103E-1
3.730808360E1,1.438239098E0,-1.713876009E0,-8.213182688E-1
3.732835308E1,2.997385502E0,6.727139950E-1,-6.540718675E-1
3.734862251E1,2.274337769E0,2.279264688E0,6.151897460E-2
3.736889194E1,1.750228167E0,2.237319946E0,5.407544374E-1
3.738916141E1,1.474457979E0,2.361289978E0,8.438219428E-1
3.740943084E1,1.838645101E0,3.182475090E0,1.105211020E0
3.742970027E1,2.168876886E0,2.833068609E0,1.220259547E0
3.744996970E1,2.330663681E0,1.973134637E0,1.006807327E0
3.747023917E1,2.231727362E0,2.144109488E0,7.788408995E-1
3.749050860E1,2.142777920E0,2.309624672E0,6.861629486E-1
3.751077808E1,2.079927206E0,2.493915319E0,9.466199279E-1
3.753104756E1,1.984053493E0,3.114298344E0,1.492434382E0
3.755131699E1,1.837047100E0,3.317230940E0,1.759149790E0
3.757158641E1,1.689108610E0,2.863961220E0,1.413604856E0
3.759185584E1,1.575125456E0,2.492850065E0,8.747146130E-1
3.761212527E1,1.571929693E0,2.269144773E0,5.929523706E-1
3.763239470E1,1.463272810E0,2.186187267E0,4.961465299E-1
3.765266417E1,1.067127824E0,2.213351488E0,3.155843616E-1
3.767293360E1,4.573975801E-1,2.008288383E0,1.169126853E-1
3.769320303E1,2.118543088E-1,1.154213190E0,1.153147891E-1
3.771347246E1,7.597993016E-1,5.546028614E-1,2.042642981E-1
3.773374188E1,1.023452044E0,1.854357719E0,2.005358785E-1
3.775401136E1,1.027180433E0,2.304298401E0,2.506032586E-1
3.777428079E1,8.588688374E-1,1.499758005E0,2.804306448E-1
3.779455022E1,6.566019058E-1,7.185203433E-1,3.613906801E-1
3.781481964E1,5.479449630E-1,1.187103152E0,3.960117698E-1
3.783508912E1,3.806985915E-1,1.963014603E0,1.600558609E-1
3.785535855E1,2.929474972E-2,2.014147282E0,-1.657816470E-1
3.787562798E1,-3.813643754E-1,1.750494480E0,-3.197122514E-1
3.789589740E1,-9.330378175E-1,1.147821546E0,-4.081291258E-1
3.791616683E1,-1.444763780E0,1.103613138E0,-8.612656593E-1
3.793643631E1,-1.717338204E0,1.851161838E0,-1.143427372E0
3.795670574E1,-1.831853986E0,2.844254017E0,-1.145557880E0
3.797697516E1,-1.812679291E0,4.163849354E0,-1.108406782E0
3.799724459E1,-1.865942478E0,3.989145994E0,-9.368993640E-1
3.801751402E1,-1.679521322E0,2.008821011E0,-7.169224024E-1
3.803778344E1,-1.922934055E0,1.567269117E-1,-6.705834866E-1
3.805805292E1,-2.434659958E0,-4.917523265E-1,-8.660593629E-1
3.807832235E1,-2.403767347E0,-7.575356364E-1,-6.972150803E-1
3.809859183E1,-2.008155107E0,-1.009869933E0,-4.795017838E-1
3.811886126E1,-1.643302321E0,-1.334242702E0,-4.816323221E-1
3.813926126E1,-1.363271117E0,-1.293762684E0,-5.024049878E-1
3.815940016E1,-9.430246353E-1,-7.964177132E-1,-4.651207328E-1
3.817966959E1,-3.099917173E-1,-2.197106332E-1,-3.042659163E-1
3.819993902E1,2.326269448E-1,3.275685757E-2,-6.351634115E-2
3.822032720E1,6.315681934E-1,-1.579253376E-1,1.717737615E-1
3.824063574E1,9.856351614E-1,-2.884201407E-1,3.534012139E-1
3.826074792E1,1.249154806E0,-4.114580750E-1,2.926811874E-1
3.828101725E1,1.236371636E0,-6.328997612E-1,2.063948363E-1
3.830128657E1,9.275783300E-1,-8.123967052E-1,2.330264151E-1
3.832155673E1,3.817638457E-1,2.771016955E-1,3.608580530E-1
3.834195673E1,-1.121988893E0,1.977395654E0,5.791039467E-1
3.836209475E1,-2.336123228E0,1.454484344E0,7.293061018E-1
3.838236412E1,-2.908169627E-1,3.846933246E-1,1.573926955E-1
3.840263355E1,2.285523176E0,1.249421120E0,-1.204147339E0
3.842290292E1,2.762628078E0,1.579652786E0,-9.843035936E-1
3.844330292E1,1.980857730E0,1.025848866E0,4.636560082E-1
3.846344178E1,6.651239991E-1,2.280329943E0,1.829457164E0
3.848371121E1,2.183790505E-2,3.579685211E0,2.485526323E0
3.850398068E1,4.813660085E-1,2.924681425E0,8.864325285E-1
3.852425011E1,1.166197419E0,1.810149193E0,-4.901544452E-1
3.854451949E1,1.607083321E0,9.448888302E-1,-4.209122956E-1
3.856478891E1,1.269394755E0,1.502953887E0,-3.223754168E-1
3.858505839E1,8.359656334E-1,2.504035234E0,-1.929458827E-1
3.860532782E1,9.126646519E-1,2.732001781E0,3.134538233E-1
3.862559725E1,1.001614094E0,2.891125441E0,8.496809006E-1
3.864586667E1,9.499488473E-1,2.437456369E0,9.844367504E-1
3.866613615E1,7.965508699E-1,1.887913465E0,7.884282470E-1
3.868640558E1,6.033387184E-1,1.489105463E0,4.066644013E-1
3.870667501E1,5.767071247E-1,1.406547427E0,1.888179779E-1
3.872694444E1,7.294392586E-1,1.625459194E0,2.537990510E-1
3.874721386E1,7.779088020E-1,1.517867565E0,3.970770240E-1
3.876748334E1,4.984102249E-1,1.337837934E0,5.040028691E-1
3.878775277E1,1.123853177E-1,1.537042260E0,5.231776237E-1
3.880802220E1,1.331579592E-2,1.429450631E0,4.167844057E-1
3.882829167E1,6.391582079E-3,1.333576918E0,2.314285189E-1
3.884856110E1,4.580633715E-2,1.418797970E0,8.815056831E-2
3.886883053E1,-1.320926845E-1,7.520761490E-1,-1.849564016E-1
3.888909996E1,-4.121238589E-1,1.817606091E-1,-6.221139431E-1
3.890936944E1,-5.783050060E-1,4.028028250E-1,-9.251814485E-1
3.892963886E1,-1.044757366E0,6.498108506E-1,-9.022783041E-1
3.894990829E1,-2.212019920E0,9.661940932E-1,-9.837709665E-1
3.897017772E1,-3.181676149E0,1.424124360E0,-9.102677703E-1
3.899044714E1,-2.981539726E0,1.858086109E0,-8.372972012E-1
3.901071662E1,-2.615621805E0,3.098319292E0,-7.068024278E-1
3.903098600E1,-2.424007416E0,3.560510635E0,-6.093307734E-1
3.905125548E1,-2.229064226E0,1.213734746E0,-8.207856417E-1
3.907152496E1,-2.635329008E0,-1.210672140E0,-1.526389599E0
3.909179438E1,-3.226949930E0,-1.841175079E0,-2.220675230E0
3.911206381E1,-3.841473818E0,-1.472726941E0,-2.098303080E0
3.913233324E1,-4.023633957E0,-1.275653243E0,-1.449690700E0
3.915260272E1,-2.433594704E0,-4.496744275E-1,-4.534028471E-1
3.917287214E1,-1.898432970E0,-6.653903127E-1,7.190529723E-3
3.919314157E1,-2.199236870E0,-6.584661007E-1,1.731053367E-2
3.921341100E1,-1.647030711E0,-4.130559862E-1,2.154495716E-1
3.923381100E1,-9.536772966E-1,-7.330345511E-1,4.929507375E-1
3.925394990E1,-4.717786312E-1,-6.824344993E-1,5.476786494E-1
3.927421933E1,-1.954758763E-1,-3.725759685E-1,4.050664902E-1
3.929448876E1,1.399490088E-1,-3.171822429E-1,2.916159332E-1
3.931475824E1,4.850944281E-1,6.205160543E-2,3.486075401E-1
3.933502761E1,7.134603262E-1,5.652555227E-1,4.476770461E-1
3.935529709E1,8.897614479E-1,2.776343226E-1,3.784348965E-1
3.937556652E1,9.403614998E-1,-1.312937438E-1,1.286305785E-1
3.939583600E1,4.217112362E-1,3.900196552E-1,-2.637858987E-1
3.941610542E1,-6.038713455E-1,5.577986836E-1,-4.768386483E-1
3.943637485E1,1.351952672E0,-3.150517344E-1,-2.296974659E-1
3.945660490E1,1.624127626E0,9.576719999E-1,-2.616553903E-1
3.947691365E1,1.220392704E0,2.105759859E0,8.282424510E-2
3.949718308E1,1.353550673E0,1.758484006E0,4.673844278E-1
3.951745256E1,1.396161199E0,1.764342904E0,8.608661890E-1
3.953772199E1,1.471794844E0,1.616404414E0,1.129712105E0
3.955799141E1,1.702957034E0,1.194027424E0,1.017459989E0
3.957826084E1,1.778990269E0,1.008804679E0,9.263799191E-1
3.959853027E1,1.806154490E0,1.138234258E0,1.041295171E0
3.961879970E1,1.879125118E0,1.419330597E0,1.274587989E0
3.963919970E1,1.933453560E0,1.865543008E0,1.594566464E0
3.965933860E1,1.918007135E0,2.184589386E0,1.828924537E0
3.967960803E1,1.715207577E0,2.087650537E0,1.933320403E0
3.969987746E1,1.441434860E0,1.645166516E0,1.788977146E0
3.972014688E1,1.098553181E0,1.331446409E0,1.238901615E0
3.974054629E1,5.090628862E-1,1.281911612E0,6.350302696E-1
3.976068514E1,9.054740891E-3,1.328783274E0,4.684496820E-1
3.978095457E1,4.261054564E-3,1.379915833E0,5.205144286E-1
3.980122400E1,4.163849354E-1,1.195625305E0,5.807018280E-1
3.982149342E1,9.089362025E-1,9.017456770E-1,7.484808564E-1
3.984189342E1,1.309342146E0,9.534109831E-1,8.017440438E-1
3.986203233E1,1.692837119E0,9.017456770E-1,3.608580530E-1
3.988230181E1,1.649161220E0,1.295626909E-1,-1.972069293E-1
3.990257124E1,1.298156857E0,-6.829671264E-1,-3.319627941E-1
3.992284066E1,1.118260503E0,-1.013598323E0,-2.930806577E-1
3.994299222E1,8.689888120E-1,-7.617966533E-1,-3.542001545E-2
3.996338024E1,1.724395454E-1,-1.573926955E-1,4.364917874E-1
3.998364910E1,-6.523408294E-1,-3.667170107E-1,2.303632647E-1
4.000391853E1,-1.162468910E0,-8.310387731E-1,-3.149185777E-1
4.002418790E1,-1.306279540E0,-3.997401893E-1,-5.928192139E-1
4.004458790E1,-2.002296209E0,-3.336938322E-1,-4.619249403E-1
4.006472670E1,-2.632133245E0,-2.841590643E-1,-7.408908606E-1
4.008499613E1,-3.346791983E0,-2.458095849E-1,-1.049817324E0
4.010526556E1,-3.838810682E0,-2.479401082E-1,-1.133839965E0
4.012553498E1,-3.239732981E0,-9.684578180E-1,-9.416930676E-1
4.014580446E1,-2.286055803E0,-2.340117931E0,-7.494129539E-1
4.016607384E1,-1.811614037E0,-1.681385517E0,-3.937480748E-1
4.018634327E1,-2.414952755E0,-2.564622164E-1,-3.798996508E-1
4.020661269E1,-3.608314276E0,-1.440769136E-1,-5.093291998E-1
4.022688212E1,-3.736012697E0,-9.072051644E-1,-5.210470557E-1
4.024715155E1,-2.281262159E0,-6.611292362E-1,-3.282343447E-1
4.026742097E1,-2.210422039E0,-3.363569975E-1,-2.808301151E-1
4.028769040E1,-1.955957174E0,-7.522093058E-1,-1.471395344E-1
4.030795983E1,-9.978857040E-1,-5.562008023E-1,1.206411049E-1
4.032822926E1,-2.018674612E-1,-3.241064548E-1,3.459443748E-1
4.034849868E1,5.287702680E-1,-1.784316637E-2,4.135886133E-1
4.036876811E1,9.350351691E-1,5.396891832E-1,3.102580309E-1
4.038903759E1,9.030772448E-1,1.025848866E0,1.243695319E-1
4.040930702E1,1.558613896E0,1.272324204E0,1.864211401E-3
4.042957644E1,2.250902176E0,1.163267851E0,4.554001987E-2
4.044984587E1,-5.149217844E-1,1.426254869E0,-2.174469382E-1
4.047011530E1,1.528253794E0,1.290300637E-1,-2.893522382E-1
4.049038472E1,2.637459517E0,-6.824344993E-1,1.707084924E-1
4.051065415E1,2.010685205E0,4.283691347E-1,3.994738683E-3
4.053092353E1,1.286971688E0,1.775528193E0,3.406180441E-1
4.055119301E1,1.330647469E0,2.309624672E0,1.513739586E0
4.057146238E1,1.309342146E0,1.899631381E0,2.457296848E0
4.059173181E1,1.598028660E0,1.120124698E0,2.257027388E0
4.061200129E1,2.078861952E0,1.067394137E0,1.329981685E0
4.063227066E1,2.240782022E0,1.016794205E0,5.748428702E-1
4.065254009E1,2.095373631E0,8.820382953E-1,2.585927546E-1
4.067280952E1,1.867939830E0,1.035968900E0,3.986749053E-1
4.069307894E1,1.406281114E0,1.521595955E0,5.993439555E-1
4.071334837E1,7.241129875E-1,1.319195867E0,7.772429585E-1
4.073361780E1,1.974732429E-1,6.583329439E-1,8.768451214E-1
4.075388722E1,1.458079666E-1,1.652490199E-1,7.713840604E-1
4.077415665E1,4.366249442E-1,4.283691347E-1,6.563355327E-1
4.079442608E1,6.953508258E-1,1.255280018E0,5.103944540E-1
4.081469551E1,9.616667628E-1,1.470995903E0,3.512706757E-1
4.083496488E1,1.209340572E0,1.043958426E0,2.383527458E-1
4.085523436E1,1.346626401E0,3.159838319E-1,5.033370852E-2
4.087550374E1,1.294428468E0,-4.434159994E-1,-2.089248300E-1
4.089577316E1,1.252883196E0,-1.174985766E0,-2.531332672E-1
4.091604259E1,1.300287485E0,-1.489771247E0,-1.450090110E-1
4.093631202E1,1.086835265E0,-1.176583648E0,-7.190529723E-3
4.095658144E1,4.824312627E-1,-5.530049801E-1,4.817654788E-1
4.097685087E1,-3.840275407E-1,-6.414218545E-1,2.745717168E-1
4.099712025E1,-1.192296386E0,-1.018392086E0,-2.515353858E-1
4.101738967E1,-1.462340713E0,-6.712492704E-1,-6.375603080E-1
4.103778967E1,-1.921336174E0,-7.213166356E-1,-6.684529185E-1
4.105792853E1,-2.630535364E0,-5.759081841E-1,-8.165245652E-1
4.107819795E1,-3.501255274E0,-1.547295451E-1,-1.032773137E0
4.109846738E1,-3.717903376E0,-1.616537571E-1,-1.022120476E0
4.111873676E1,-2.943190336E0,-7.239798307E-1,-9.906951785E-1
4.113913676E1,-1.816940308E0,-2.131326199E0,-1.068459392E0
4.115927561E1,-1.371260643E0,-2.404033661E0,-1.041295171E0
4.117954504E1,-2.218411446E0,-1.409876466E0,-1.120524168E0
4.119981446E1,-3.549192190E0,-1.430649042E0,-1.057274222E0
4.122004452E1,-3.979425430E0,-2.191513538E0,-8.261119723E-1
