"Time (s)","Acceleration x (m/s^2)","Acceleration y (m/s^2)","Acceleration z (m/s^2)"
2.317022600E-2,-2.240878344E0,1.055832982E0,9.421140671E0
4.353673700E-2,-1.587039590E0,7.944171429E-1,9.892526627E0
6.379288300E-2,-7.561319470E-1,4.761717021E-1,9.976275444E0
8.391043500E-2,-7.010970116E-1,5.096712112E-1,9.476176262E0
1.041842890E-1,-7.322037220E-1,4.953143001E-1,9.147761345E0
1.244575700E-1,-7.752745152E-1,6.149554253E-1,9.214759827E0
1.447304350E-1,-8.141579032E-1,7.441678643E-1,9.066405296E0
1.650029350E-1,-9.361918569E-1,9.092726111E-1,8.901300430E0
1.852750700E-1,-1.024726272E0,1.340578914E0,9.020941734E0
2.055469450E-1,-7.058826685E-1,1.390828133E0,8.982656479E0
2.258186640E-1,-2.368894368E-1,1.271187067E0,8.889336586E0
2.460902260E-1,1.555334777E-1,1.596610904E0,9.375677109E0
2.663616330E-1,2.321037948E-1,1.546361685E0,9.526425362E0
2.866326740E-1,1.196411327E-1,1.354935765E0,9.322437286E0
3.070228310E-1,-9.571290575E-3,1.199402332E0,9.466604233E0
3.271753830E-1,1.674975902E-1,1.220937729E0,9.909276962E0
3.474466330E-1,8.572286963E-1,1.493719578E0,1.043150997E1
3.677178310E-1,1.786242127E0,1.369292736E0,1.039561844E1
3.879888200E-1,2.803789854E0,7.226324677E-1,1.029212856E1
4.083889760E-1,3.119642496E0,-2.350948304E-1,9.837491989E0
4.285311120E-1,2.700898647E0,-9.529415965E-1,8.729017258E0
4.488022060E-1,2.892324448E0,-1.192822099E0,8.096714020E0
4.690732990E-1,3.291925669E0,-1.429711580E0,7.886145115E0
4.893443410E-1,3.503092289E0,-1.905883193E0,7.771289825E0
5.097443930E-1,2.638685226E0,-2.741576433E0,1.107039356E1
5.298864240E-1,2.909074068E0,-3.122633457E0,1.008156013E1
5.501575180E-1,2.703291416E0,-2.310868502E0,8.573483467E0
5.704285600E-1,2.468794823E0,-2.464009047E0,7.453044415E0
5.906995490E-1,1.704886079E0,-1.889133453E0,8.134998322E0
6.110995490E-1,2.111665964E0,-2.672184706E0,8.642875671E0
6.312416330E-1,2.288734913E0,-3.687339783E0,9.231510162E0
6.515126740E-1,1.322034478E0,-3.957728624E0,9.646066666E0
6.717837160E-1,3.786641955E-1,-3.993621111E0,1.000498962E1
6.920547060E-1,1.866401732E-1,-3.050250769E0,1.052483082E1
7.124547060E-1,-5.599204898E-1,-2.825325251E0,1.113260746E1
7.325967370E-1,-3.565305769E-1,-3.117249727E0,9.696315765E0
7.528677260E-1,-1.431506157E0,-2.925823927E0,6.543173313E0
7.731387680E-1,-2.297109663E-1,-3.120240688E0,9.147761345E0
7.934098100E-1,1.278365493E0,-4.125226021E0,9.226723671E0
8.136808510E-1,5.365904570E-1,-3.718446493E0,9.763314247E0
8.339518930E-1,4.719842672E-1,-3.028715372E0,9.660423279E0
8.543518930E-1,9.810572863E-2,-4.046263218E0,9.887741089E0
8.744939240E-1,1.220339537E-1,-3.388236761E0,9.445069313E0
8.947649660E-1,3.523431420E-1,-3.637090445E0,9.997811317E0
9.150360080E-1,8.069794178E-1,-3.651447296E0,9.935597420E0
9.353069970E-1,2.949153781E-1,-2.684148788E0,9.521639824E0
9.555780390E-1,-1.818545163E-1,-2.724826813E0,8.829515457E0
9.758490810E-1,-5.120640397E-1,-2.631506681E0,9.758528709E0
9.961201220E-1,-8.907282352E-1,-1.972882271E0,9.552745819E0
1.016391164E0,3.110669367E-2,-2.612364054E0,8.798408508E0
1.036662206E0,2.853440940E-1,-2.061416626E0,8.846264839E0
1.056933195E0,1.435693651E-1,-7.615157962E-1,9.409176826E0
1.077196320E0,4.193421602E-1,5.742774159E-2,9.183652878E0
1.097398299E0,4.815555513E-1,4.905286431E-1,8.975478172E0
1.117747466E0,4.983053207E-1,9.786644578E-1,9.162117958E0
1.138018299E0,5.724828243E-1,1.886142492E0,9.681958199E0
1.158289133E0,5.653043389E-1,2.090130568E0,1.003131104E1
1.178560018E0,4.025924206E-1,1.955534339E0,9.792028427E0
1.198830904E0,2.488535494E-1,2.109273195E0,9.571888924E0
1.219101893E0,2.949153781E-1,2.193022013E0,9.521639824E0
1.239372779E0,3.427718580E-1,2.051247120E0,9.658030510E0
1.259643768E0,4.546362907E-2,1.974676847E0,9.796813965E0
1.279914810E0,-2.871387079E-2,1.498505235E0,1.002173901E1
1.300185799E0,3.547359705E-1,3.756731451E-1,9.973882675E0
1.320456841E0,8.931210637E-1,-6.083751321E-1,9.588638306E0
1.340727831E0,7.974081635E-1,-4.791627228E-1,9.751350403E0
1.360998820E0,9.194421172E-1,-6.897311211E-1,9.995418549E0
1.381269862E0,2.442473650E0,-1.721635938E0,9.581459999E0
1.401540904E0,3.668197155E0,-2.160120726E0,9.332008362E0
1.421811945E0,3.383451223E0,-1.800599098E0,9.457033157E0
1.442082987E0,2.109273195E0,-3.978067636E-1,9.782457352E0
1.462354029E0,2.315055847E0,5.886343718E-1,9.818349838E0
1.482625018E0,4.043870449E0,2.703889608E-1,9.461818695E0
1.502896060E0,5.324628353E0,-1.274178028E-1,9.471389771E0
1.523296060E0,4.659423828E0,8.614161611E-2,9.514460564E0
1.543438143E0,4.295116425E0,-5.563312769E-2,9.147761345E0
1.563709237E0,4.503890514E0,1.220339537E-1,8.944371223E0
1.583980226E0,4.819743156E0,3.206382394E-1,8.980263710E0
1.604251268E0,5.370092392E0,9.571290575E-3,8.903693199E0
1.624522362E0,5.181059361E0,2.081755698E-1,8.908478737E0
1.644793404E0,4.987240791E0,2.177468538E-1,8.913264275E0
1.665064445E0,4.735994339E0,1.197009563E0,8.910871506E0
1.685335487E0,4.491926193E0,1.299900889E0,8.786444664E0
1.705606529E0,4.390829563E0,1.338186026E0,8.654839516E0
1.725877570E0,4.314259052E0,8.470591903E-1,8.762516975E0
1.746148664E0,4.127619267E0,1.108475089E0,9.176474571E0
1.766419706E0,4.158725739E0,1.235294700E0,9.358927727E0
1.786690747E0,4.113262177E0,1.053440213E0,9.430712700E0
1.807090747E0,4.731208801E0,6.939185858E-1,9.466604233E0
1.827232883E0,4.989633560E0,3.924229145E-1,9.461818695E0
1.847503924E0,4.896313190E0,2.608176768E-1,9.385248184E0
1.867774966E0,5.190630436E0,5.503492057E-2,8.906085968E0
1.888046060E0,5.844469070E0,-1.920240223E-1,8.879764557E0
1.908446060E0,5.679364681E0,3.828516230E-2,9.109476089E0
1.928588143E0,5.082953453E0,-1.974078640E-2,8.951549530E0
1.948859185E0,3.924229145E0,-6.490531564E-1,7.847859859E0
1.969130279E0,4.271188259E0,-9.481559992E-1,8.618947029E0
1.989401320E0,4.089334011E0,-1.475175142E0,8.748159409E0
2.009801320E0,4.094119549E0,-1.506281853E0,8.206783295E0
2.029943456E0,4.647459984E0,-2.485544443E0,7.265805721E0
2.050214497E0,4.307080746E0,-3.605983734E0,6.346961975E0
2.070485539E0,4.371686935E0,-4.178466320E0,5.640480995E0
2.090883404E0,2.338984251E0,-5.763113499E0,7.071987152E0
2.111176268E0,7.543373108E-1,-5.521438122E0,8.580661774E0
2.131291841E0,8.614161611E-2,-4.786243439E0,9.368498802E0
2.151564341E0,1.130010486E0,-3.689732552E0,1.047218800E1
2.171836476E0,2.003988981E0,-3.254238844E0,1.108714390E1
2.192108456E0,1.590030670E0,-2.483151674E0,1.142453194E1
2.212380174E0,0.000000000E0,-9.050851464E-1,1.043150997E1
2.232651841E0,-2.319841623E0,7.776673436E-1,1.035673428E1
2.252923299E0,-3.873381615E0,1.551147223E0,1.065404320E1
2.273194758E0,-3.579064369E0,1.429113269E0,1.002891827E1
2.293465851E0,-2.846262455E0,1.082154036E0,8.884550095E0
2.313866164E0,-3.284747362E0,1.591825247E0,8.341380119E0
2.334008508E0,-3.960121393E0,2.370090723E0,7.790432453E0
2.354279758E0,-4.342973232E0,2.592623234E0,7.000202656E0
2.374550956E0,-4.570291042E0,2.827120066E0,6.260820389E0
2.394822101E0,-4.845465660E0,3.684348583E0,5.707480431E0
2.415093247E0,-5.099703312E0,4.661218643E0,5.798407555E0
2.435364445E0,-5.066203594E0,4.536791801E0,6.655636311E0
2.455635539E0,-5.087738991E0,3.770490170E0,8.039285660E0
2.475906685E0,-5.149952412E0,3.097508907E0,9.178867340E0
2.496177779E0,-4.637290478E0,2.319841623E0,9.394820213E0
2.516448872E0,-4.132404804E0,1.761715651E0,9.445069313E0
2.536719966E0,-3.919443607E0,1.285543919E0,9.727422714E0
2.556991060E0,-4.311866283E0,7.992027402E-1,9.631709099E0
2.577262101E0,-5.228915691E0,4.570291340E-1,9.198010445E0
2.597533143E0,-6.351747513E0,-8.913264424E-2,8.659625053E0
2.617804185E0,-7.522436142E0,-1.017547846E0,8.516056061E0
2.638075331E0,-8.542376518E0,-1.654636860E0,8.853444099E0
2.658346372E0,-8.291130066E0,-2.030309916E0,9.339186668E0
2.678746372E0,-7.366902828E0,-2.430509567E0,9.454640388E0
2.698888508E0,-6.559923172E0,-2.674577475E0,9.116654396E0
2.719159601E0,-6.260820389E0,-2.964108944E0,8.482556343E0
2.739430643E0,-6.169893265E0,-3.139383316E0,8.233104706E0
2.759701737E0,-5.556732178E0,-3.311666489E0,8.413164139E0
2.779972779E0,-3.839882135E0,-3.203989506E0,8.717052460E0
2.800243820E0,-2.506481647E0,-2.325225353E0,8.769695282E0
2.820514914E0,-2.027917147E0,-9.361918569E-1,8.762516975E0
2.840785956E0,-2.740978241E0,8.757730722E-1,8.884550095E0
2.861185956E0,-3.972085476E0,1.543968797E0,9.190832138E0
2.881328039E0,-4.878965378E0,1.354935765E0,9.154939651E0
2.901599185E0,-5.568696499E0,1.689931035E0,8.891729355E0
2.921870226E0,-5.420341492E0,1.936391711E0,9.006584167E0
2.942141268E0,-4.567898273E0,1.467398524E0,1.018684387E1
2.962412362E0,-3.373281717E0,1.125224829E0,1.172423267E1
2.982683404E0,-3.181855917E0,1.340578914E0,1.096271706E1
3.002954497E0,-3.600599766E0,1.101296663E0,9.753743172E0
3.023225539E0,-4.204189301E0,7.465606928E-1,8.266604424E0
3.043496633E0,-5.027918816E0,6.317051649E-1,7.244270325E0
3.063767674E0,-5.731408596E0,8.997012973E-1,6.354140759E0
3.084038768E0,-6.502495766E0,1.261615753E0,5.736194134E0
3.104438768E0,-7.414759159E0,1.290329576E0,5.611767292E0
3.124580904E0,-8.159524918E0,1.689931035E0,6.294320107E0
3.144851945E0,-7.584649563E0,2.072782516E0,7.091129780E0
3.165122987E0,-6.148357868E0,2.573480844E0,7.493722439E0
3.185394081E0,-5.286343575E0,2.609373093E0,8.630910873E0
3.205665122E0,-5.243272781E0,2.231307030E0,9.598209381E0
3.225936216E0,-5.130809784E0,2.039283037E0,9.219545364E0
3.246207258E0,-5.427519798E0,1.699502230E0,9.049654961E0
3.266478351E0,-5.769693375E0,1.125224829E0,6.346961975E0
3.286749445E0,-5.903691769E0,8.518448472E-1,6.983452797E0
3.307149445E0,-6.090929985E0,1.376471281E0,7.931608677E0
3.327291581E0,-5.932405472E0,2.329412937E0,7.637291908E0
3.347562622E0,-6.904489517E0,3.165106058E0,4.862215519E0
3.367833716E0,-6.937989235E0,2.348555326E0,4.168296814E0
3.388104810E0,-5.769693375E0,1.924427629E0,5.851049423E0
3.408512779E0,-8.298309326E0,2.133201361E0,6.966702938E0
3.428795591E0,-8.810373306E0,1.400399446E0,6.753741741E0
3.448911216E0,-7.476972580E0,1.223330617E0,7.680362701E0
3.469183664E0,-7.536793232E0,9.810572863E-1,7.780860901E0
3.489454654E0,-8.219346046E0,2.597409010E0,4.996213913E0
3.509855851E0,-6.923632145E0,2.506481647E0,4.991427898E0
3.529998872E0,-4.795216560E0,1.510469317E0,8.463413239E0
3.550270695E0,-7.830511928E-1,6.042475224E0,6.327819347E0
3.570542310E0,-3.083750248E0,9.109476089E0,2.669193745E0
3.590813351E0,-1.859821320E1,1.134796143E0,1.307438278E1
3.611221789E0,-7.019943237E0,-1.824527234E-1,8.280961037E0
3.631505018E0,-6.098108292E0,-1.101894855E0,6.131010056E0
3.651620956E0,-5.831906796E0,-2.779861689E0,3.203391314E0
3.671893716E0,-7.098906517E0,-1.568495274E0,3.825525284E0
3.692164654E0,-6.265605927E0,-1.771885157E0,5.953940868E0
3.712566060E0,-6.775277138E0,-2.398804724E-1,6.662814617E0
3.732709289E0,-7.704290867E0,7.657032460E-2,6.032904148E0
3.752981268E0,-8.022536278E0,-2.051845312E0,7.241877556E0
3.773252987E0,-7.067800045E0,-3.016751051E0,6.801598549E0
3.793524601E0,-7.340581894E0,-2.966501951E0,6.097510338E0
3.813796164E0,-7.694719315E0,-3.811766386E0,6.442675114E0
3.834067622E0,-7.261618614E0,-2.492722988E0,6.964310169E0
3.854338976E0,-6.897311211E0,-1.525424480E0,7.345367432E0
3.874610383E0,-5.915655613E0,-1.884347796E0,6.966702938E0
3.894881633E0,-5.910870075E0,-2.155334949E0,6.868597507E0
3.915152883E0,-6.299105644E0,-1.743171334E0,6.662814617E0
3.935424185E0,-6.466603279E0,-1.735992789E0,6.734599113E0
3.955695383E0,-5.712265968E0,-1.920240164E0,6.535995007E0
3.975966581E0,-6.911668301E0,-1.121037364E0,7.076773167E0
3.996237779E0,-8.745766640E0,-3.212364316E-1,7.670791149E0
4.016508976E0,-8.760123253E0,-4.648058116E-1,6.495316982E0
4.036780122E0,-8.053643227E0,-6.993024349E-1,5.729015827E0
4.057051268E0,-7.275975227E0,-9.672985673E-1,5.721837044E0
4.077322414E0,-6.976274490E0,-1.089930773E0,6.109474182E0
4.097593560E0,-7.067800045E0,-9.601200819E-1,6.591030121E0
4.117864758E0,-6.878168583E0,-1.058824062E0,6.820741177E0
4.138135904E0,-7.163512707E0,-9.433703423E-1,6.823133945E0
4.158407049E0,-7.041478634E0,-2.997010350E-1,7.009773731E0
4.178678195E0,-6.550352097E0,8.757730722E-1,6.753741741E0
4.198949393E0,-6.533602238E0,-5.383851007E-3,7.220342159E0
4.219220591E0,-6.684350014E0,-2.015953064E-1,6.782455921E0
4.239491737E0,-6.808776855E0,3.182454109E-1,6.138188362E0
4.259762883E0,-6.311069489E0,1.591825247E0,6.454638958E0
4.280034029E0,-5.561518192E0,1.800000787E0,6.981060028E0
4.300305174E0,-6.251249313E0,1.225723386E0,6.897311211E0
4.320576320E0,-7.247261524E0,6.795616150E-1,6.526423931E0
4.340976320E0,-7.297510624E0,-7.956135273E-2,5.839085579E0
4.361118612E0,-6.995417118E0,-1.154536963E0,5.975476265E0
4.381389810E0,-7.177869797E0,-2.631506681E0,6.870990276E0
4.401660956E0,-7.197012424E0,-4.843671322E0,6.306283951E0
4.421932101E0,-7.658827305E0,-6.651448727E0,6.083153248E0
4.442203247E0,-8.276773453E0,-7.261618614E0,6.765706062E0
4.462474445E0,-7.747361660E0,-4.444069862E0,7.577471256E0
4.482745591E0,-6.782455921E0,-1.566102386E0,6.796812534E0
4.503016737E0,-6.320641041E0,-1.520638824E0,6.775277138E0
4.523287935E0,-6.337390900E0,-1.341177106E0,7.543971539E0
4.543559081E0,-5.874977589E0,-2.164906263E0,7.881359577E0
4.563830226E0,-5.556732178E0,-2.813361168E0,7.484150887E0
4.584101372E0,-5.925227165E0,-1.017547846E0,7.560721397E0
4.604372570E0,-5.831906796E0,-6.035895348E-1,7.579864025E0
4.624643716E0,-6.136393547E0,-1.161715388E0,7.450651646E0
4.644914862E0,-6.088537216E0,-3.421736479E0,7.237092018E0
4.665186060E0,-6.815955162E0,-2.602792740E0,7.307082176E0
4.685457206E0,-6.940382004E0,-2.061416626E0,7.160521984E0
4.705728299E0,-6.990631580E0,-2.061416626E0,6.887740135E0
4.725999549E0,-6.808776855E0,-2.035095692E0,6.691528320E0
4.746270695E0,-7.031907558E0,-2.564507723E0,6.959524632E0
4.766541841E0,-7.613363266E0,-2.933002472E0,6.942774773E0
4.786813039E0,-7.694719315E0,-2.586043119E0,6.753741741E0
4.807213039E0,-6.626922131E0,-1.630708575E0,6.765706062E0
4.827355331E0,-5.738586903E0,-1.221535921E0,7.369295597E0
4.847626529E0,-5.477769375E0,-1.396211982E0,7.802396297E0
4.867897674E0,-5.757729530E0,-9.601200819E-1,7.407580853E0
4.888168768E0,-6.861418724E0,-1.188036442E0,7.371688366E0
4.908568768E0,-6.729813576E0,-9.314061999E-1,7.520043373E0
4.928711164E0,-6.540780544E0,-1.657029688E-1,7.364510059E0
4.948982310E0,-5.724229813E0,-2.614158690E-1,6.557530403E0
4.969253456E0,-5.547161102E0,-7.854440212E-1,6.543173313E0
4.989524654E0,-6.086144447E0,-9.337990284E-1,7.162914753E0
5.009924654E0,-6.476174355E0,-1.192822099E0,7.632505894E0
5.030066945E0,-6.349354744E0,-1.676172256E0,7.472187042E0
5.050338143E0,-6.490531445E0,-1.322034478E0,7.016952515E0
5.070609289E0,-6.334998131E0,-9.936196208E-1,6.866204739E0
5.090880435E0,-6.325426579E0,-1.247856975E0,7.060023308E0
5.111280435E0,-6.612565517E0,-1.477568030E0,7.184450150E0
5.131422779E0,-6.859025955E0,-1.420140266E0,7.153343201E0
5.151693924E0,-6.792026997E0,-1.307677627E0,7.217949390E0
5.171965070E0,-6.643671989E0,-9.888339639E-1,7.201199532E0
5.192236216E0,-6.449853420E0,-7.830511928E-1,7.091129780E0
5.212507362E0,-6.586244106E0,-1.238285661E0,7.208378315E0
5.232778508E0,-6.725028038E0,-1.209571838E0,7.302296638E0
5.253049654E0,-6.710670948E0,-1.357926846E0,7.388438225E0
5.273320851E0,-6.765706062E0,-1.403390527E0,7.610970497E0
5.293591997E0,-6.086144447E0,-1.128215909E0,7.491329670E0
5.313863143E0,-5.640480995E0,-8.189435601E-1,7.179664135E0
5.334134289E0,-5.673980713E0,-1.051645517E0,7.366902828E0
5.354405435E0,-6.378068924E0,-2.408974171E0,7.756932735E0
5.374676581E0,-6.897311211E0,-2.959323406E0,7.771289825E0
5.394947726E0,-6.792026997E0,-1.927418590E0,7.220342159E0
5.415218872E0,-6.198606968E0,-8.668000102E-1,6.856633186E0
5.435489966E0,-5.903691769E0,-2.327020019E-1,6.926024914E0
5.455761164E0,-6.622136593E0,-1.288534999E0,7.100701332E0
5.476032310E0,-6.997809887E0,-1.017547846E0,7.136593342E0
5.496303404E0,-6.885347366E0,-1.183250785E0,6.930810928E0
5.516574549E0,-7.146762848E0,-1.779063582E0,7.069594383E0
5.536845695E0,-6.736992359E0,-1.707278967E0,7.043273449E0
5.557116841E0,-6.629314899E0,-1.506281853E0,6.918846607E0
5.577387987E0,-6.524031162E0,-1.353141189E0,6.866204739E0
5.597659133E0,-6.631708145E0,-1.348355532E0,6.904489517E0
5.617930226E0,-6.815955162E0,-1.391426325E0,6.961917400E0
5.638201320E0,-7.065407276E0,-1.518245935E0,7.016952515E0
5.658472518E0,-7.187440872E0,-1.573280931E0,7.031309128E0
5.678743612E0,-7.122834682E0,-1.458425403E0,6.995417118E0
5.699014758E0,-6.882954121E0,-1.207179070E0,7.012166977E0
5.719285851E0,-6.691528320E0,-1.219143152E0,7.007380962E0
5.739556997E0,-6.643671989E0,-1.345962763E0,6.976274490E0
5.759828091E0,-6.717849731E0,-1.427318692E0,7.009773731E0
5.780099237E0,-6.909275532E0,-1.470389485E0,6.993024349E0
5.800370331E0,-6.961917400E0,-1.467996716E0,6.993024349E0
5.820770331E0,-6.691528320E0,-1.389033556E0,7.009773731E0
5.840912570E0,-6.404389858E0,-1.398604870E0,7.091129780E0
5.861312570E0,-6.246463299E0,-1.475175142E0,7.194021225E0
5.881454810E0,-6.272784710E0,-1.484746456E0,7.229913712E0
5.901725904E0,-6.480959892E0,-1.494317770E0,7.165307522E0
5.921996945E0,-6.665207386E0,-1.439282775E0,7.038487911E0
5.942268143E0,-6.665207386E0,-1.360319614E0,6.966702938E0
5.962539237E0,-6.636493683E0,-1.336391449E0,7.107879639E0
5.982810331E0,-6.650850773E0,-1.300499082E0,7.045666218E0
6.003081424E0,-6.746563435E0,-1.259821177E0,6.914061069E0
6.023352518E0,-6.698707104E0,-1.460818172E0,7.083951473E0
6.043623612E0,-6.684350014E0,-1.623530149E0,7.208378315E0
6.063894706E0,-6.521637917E0,-1.853241086E0,7.167700291E0
6.084165799E0,-6.612565517E0,-1.970489502E0,7.280761242E0
6.104436893E0,-6.689135551E0,-1.525424480E0,6.911668301E0
6.124707935E0,-6.734599113E0,-1.240678549E0,6.911668301E0
6.144978976E0,-6.681957245E0,-1.338784218E0,7.014559746E0
6.165250018E0,-6.638886452E0,-1.405783296E0,6.988238335E0
6.185521164E0,-6.631708145E0,-1.422533035E0,6.983452797E0
6.205792258E0,-6.552744865E0,-1.448854089E0,7.095915318E0
6.226063351E0,-6.404389858E0,-1.640279889E0,7.309474945E0
6.246334393E0,-6.272784710E0,-1.941775560E0,7.455437183E0
6.266605435E0,-6.100501537E0,-1.984846354E0,7.244270325E0
6.286876529E0,-6.196214199E0,-1.049252748E0,7.196413994E0
6.307276529E0,-6.547959328E0,-4.695914388E-1,7.340581894E0
6.327418664E0,-6.614958286E0,-1.243071318E0,7.646862984E0
6.347689706E0,-6.437889099E0,-1.750349760E0,7.577471256E0
6.367960799E0,-6.102894306E0,-1.654636860E0,7.307082176E0
6.388231841E0,-5.772086620E0,-1.690529227E0,7.105486870E0
6.408631841E0,-5.724229813E0,-1.678565025E0,7.062416077E0
6.428773976E0,-6.138786316E0,-1.496710539E0,7.194021225E0
6.449045018E0,-6.746563435E0,-1.511067510E0,7.412366390E0
6.469316112E0,-7.041478634E0,-1.578066587E0,7.364510059E0
6.489587154E0,-6.784848690E0,-1.355534077E0,7.122236729E0
6.509987154E0,-6.370890141E0,-1.228714466E0,7.002595425E0
6.530129237E0,-6.196214199E0,-1.341177106E0,7.038487911E0
6.550400279E0,-6.327819347E0,-1.444068432E0,7.208378315E0
6.570671320E0,-6.643671989E0,-1.587637782E0,7.340581894E0
6.591069341E0,-6.835097790E0,-1.709671736E0,7.374081135E0
6.611176372E0,-6.602993965E0,-1.745564103E0,7.364510059E0
6.631486216E0,-6.299105644E0,-1.668993831E0,7.369295597E0
6.651756893E0,-6.055037498E0,-1.551745534E0,7.395616531E0
6.672027622E0,-5.968297958E0,-1.494317770E0,7.362117290E0
6.692298508E0,-6.045466423E0,-1.465603828E0,7.328617573E0
6.712569341E0,-6.186643124E0,-1.424925923E0,7.359724045E0
6.732840226E0,-6.287141323E0,-1.393819213E0,7.426723480E0
6.753111164E0,-6.277570248E0,-1.255035520E0,7.453044415E0
6.773382154E0,-6.181857109E0,-1.144965649E0,7.438687325E0
6.793653195E0,-6.215356827E0,-1.066002488E0,7.436294556E0
6.814053091E0,-6.294320107E0,-1.022333503E0,7.472187042E0
6.834195070E0,-6.354140759E0,-1.070788145E0,7.500900745E0
6.854466060E0,-6.311069489E0,-1.092323542E0,7.484150887E0
6.874737049E0,-6.296712875E0,-1.073180914E0,7.460222721E0
6.895007987E0,-6.282355785E0,-1.051645517E0,7.469794273E0
6.915279029E0,-6.227321148E0,-1.056431174E0,7.455437183E0
6.935550018E0,-6.167500496E0,-1.104287624E0,7.426723480E0
6.955821008E0,-6.143572330E0,-1.188036442E0,7.412366390E0
6.976092049E0,-6.138786316E0,-1.223928809E0,7.412366390E0
6.996363039E0,-6.179464340E0,-1.293320656E0,7.465008259E0
7.016634029E0,-6.232106686E0,-1.341177106E0,7.433901787E0
7.036905018E0,-6.241677761E0,-1.288534999E0,7.453044415E0
7.057176060E0,-6.210571289E0,-1.274178028E0,7.443472862E0
7.077447049E0,-6.169893265E0,-1.310070395E0,7.448258877E0
7.097718039E0,-6.155536175E0,-1.319641709E0,7.481758118E0
7.117989081E0,-6.162714481E0,-1.312463164E0,7.534400463E0
7.138260070E0,-6.186643124E0,-1.298106313E0,7.555935860E0
7.158531060E0,-6.169893265E0,-1.266999602E0,7.498507977E0
7.178802101E0,-6.172286034E0,-1.274178028E0,7.505686283E0
7.199073091E0,-6.167500496E0,-1.278963685E0,7.476972580E0
7.219344081E0,-6.162714481E0,-1.286142230E0,7.479365349E0
7.239615122E0,-6.177071571E0,-1.266999602E0,7.476972580E0
7.259886112E0,-6.191428661E0,-1.281356573E0,7.445865631E0
7.280157101E0,-6.189035892E0,-1.283749342E0,7.453044415E0
7.300428091E0,-6.174678802E0,-1.264606714E0,7.457829952E0
7.320699133E0,-6.172286034E0,-1.286142230E0,7.426723480E0
7.340970122E0,-6.134000778E0,-1.290927768E0,7.395616531E0
7.361241112E0,-6.117250919E0,-1.331605792E0,7.390830994E0
7.381512101E0,-6.145965099E0,-1.365105271E0,7.493722439E0
7.401783091E0,-6.234499454E0,-1.403390527E0,7.563114166E0
7.422054029E0,-6.337390900E0,-1.381855130E0,7.498507977E0
7.442325018E0,-6.332605362E0,-1.341177106E0,7.560721397E0
7.462596112E0,-6.323033810E0,-1.331605792E0,7.582256794E0
7.482867049E0,-6.332605362E0,-1.293320656E0,7.467401028E0
7.503138091E0,-6.308676720E0,-1.238285661E0,7.287939548E0
7.523409029E0,-6.342176437E0,-1.302891970E0,7.160521984E0
7.543680018E0,-6.327819347E0,-1.271785259E0,7.167700291E0
7.563951060E0,-6.528816700E0,-1.123430252E0,7.153343201E0
7.584222049E0,-6.579065800E0,-1.278963685E0,7.311867714E0
7.604622049E0,-6.595815659E0,-1.465603828E0,7.390830994E0
7.624764029E0,-6.356533527E0,-1.542174220E0,7.323832035E0
7.645035018E0,-6.009573936E0,-1.365105271E0,7.398009300E0
7.665306008E0,-6.007181168E0,-1.142572761E0,7.438687325E0
7.685576997E0,-6.217749596E0,-1.168893814E0,7.553543091E0
7.705847987E0,-6.358926296E0,-1.396211982E0,7.622934818E0
7.726118976E0,-6.284748554E0,-1.501496196E0,7.505686283E0
7.746389966E0,-6.105287075E0,-1.398604870E0,7.400402069E0
7.766660956E0,-5.963512421E0,-1.310070395E0,7.371688366E0
7.786931945E0,-6.004788399E0,-1.288534999E0,7.354938507E0
7.807331945E0,-6.141179085E0,-1.298106313E0,7.388438225E0
7.827473924E0,-6.244070530E0,-1.266999602E0,7.429116249E0
7.847744914E0,-6.265605927E0,-1.168893814E0,7.443472862E0
7.868015904E0,-6.241677761E0,-1.070788145E0,7.441080093E0
7.888286945E0,-6.236892223E0,-1.051645517E0,7.424330235E0
7.908686945E0,-6.346961975E0,-1.147358418E0,7.362117290E0
7.928828924E0,-6.485745907E0,-1.276570916E0,7.265805721E0
7.949099914E0,-6.514459610E0,-1.295713425E0,7.237092018E0
7.969370904E0,-6.483353138E0,-1.350748420E0,7.319046497E0
7.989641893E0,-6.375676155E0,-1.369890928E0,7.345367432E0
8.010041893E0,-6.258427620E0,-1.333998680E0,7.352545738E0
8.030183924E0,-6.229713917E0,-1.345962763E0,7.417151928E0
8.050454914E0,-6.229713917E0,-1.326820135E0,7.419544697E0
8.070725904E0,-6.256034851E0,-1.278963685E0,7.462615490E0
8.090996945E0,-6.234499454E0,-1.223928809E0,7.503293514E0
8.111396945E0,-6.227321148E0,-1.233500123E0,7.498507977E0
8.131538924E0,-6.215356827E0,-1.262213945E0,7.441080093E0
8.151809914E0,-6.198606968E0,-1.329213023E0,7.398009300E0
8.172080904E0,-6.184250355E0,-1.360319614E0,7.381259441E0
8.192351945E0,-6.150750637E0,-1.357926846E0,7.412366390E0
8.212622935E0,-6.162714481E0,-1.250249863E0,7.421937466E0
8.232893924E0,-6.141179085E0,-1.092323542E0,7.419544697E0
8.253164914E0,-6.093322754E0,-9.218349457E-1,7.414759159E0
8.273435956E0,-6.078966141E0,-8.380861282E-1,7.476972580E0
8.293706945E0,-6.126822472E0,-8.404789567E-1,7.551149845E0
8.313977935E0,-6.189035892E0,-9.720842242E-1,7.500900745E0
8.334248976E0,-6.267998695E0,-9.433703423E-1,7.419544697E0
8.354519966E0,-6.303891182E0,-1.094716311E0,7.345367432E0
8.374791008E0,-6.323033810E0,-1.133001566E0,7.285546780E0
8.395061997E0,-6.351747513E0,-1.133001566E0,7.194021225E0
8.415332987E0,-6.392425537E0,-1.137787223E0,7.227520943E0
8.435604029E0,-6.452246189E0,-1.147358418E0,7.258627415E0
8.455875018E0,-6.545566559E0,-1.159322619E0,7.283154011E0
8.476146060E0,-6.638886452E0,-1.135394335E0,7.251449108E0
8.496417049E0,-6.660421848E0,-1.137787223E0,7.220342159E0
8.516688091E0,-6.636493683E0,-1.135394335E0,7.227520943E0
8.536959081E0,-6.598208427E0,-1.106680512E0,7.285546780E0
8.557230122E0,-6.612565517E0,-1.109073281E0,7.321439266E0
8.577501112E0,-6.655636311E0,-1.097109199E0,7.354938507E0
8.597772101E0,-6.717849731E0,-1.027119160E0,7.338188648E0
8.618043143E0,-6.689135551E0,-1.027119160E0,7.234699249E0
8.638314133E0,-6.555137634E0,-1.066002488E0,7.186842918E0
8.658585174E0,-6.394818306E0,-1.101894855E0,7.205985546E0
8.678856164E0,-6.265605927E0,-1.118644595E0,7.304689407E0
8.699127206E0,-6.232106686E0,-1.092323542E0,7.340581894E0
8.719398195E0,-6.260820389E0,-9.601200819E-1,7.366902828E0
8.739669237E0,-6.318248272E0,-8.955138922E-1,7.342974663E0
8.759940279E0,-6.354140759E0,-9.146564603E-1,7.287939548E0
8.780211268E0,-6.349354744E0,-9.840483069E-1,7.261020184E0
8.800482310E0,-6.401997089E0,-1.049252748E0,7.265805721E0
8.820753299E0,-6.485745907E0,-1.085145116E0,7.261020184E0
8.841161216E0,-6.591030121E0,-1.061216831E0,7.213163853E0
8.861443976E0,-6.660421848E0,-1.034297585E0,7.167700291E0
8.881559497E0,-6.579065800E0,-1.036690354E0,7.127022266E0
8.901831945E0,-6.478567123E0,-1.202393413E0,7.340581894E0
8.922104081E0,-6.466603279E0,-1.159322619E0,7.402794838E0
8.942375904E0,-6.385247231E0,-1.135394335E0,7.419544697E0
8.962647622E0,-6.390032768E0,-1.125823021E0,7.433901787E0
8.982919237E0,-6.323033810E0,-1.075573802E0,7.457829952E0
9.003190695E0,-6.284748554E0,-1.044467092E0,7.364510059E0
9.023462154E0,-6.200999737E0,-9.744769931E-1,7.335795879E0
9.043733508E0,-6.150750637E0,-9.002995491E-1,7.362117290E0
9.064004758E0,-6.153143406E0,-7.351947427E-1,7.362117290E0
9.084275956E0,-6.184250355E0,-6.418746710E-1,7.383652687E0
9.104547154E0,-6.222535133E0,-6.921239495E-1,7.390830994E0
9.124818247E0,-6.275177479E0,-8.237292171E-1,7.414759159E0
9.145089393E0,-6.277570248E0,-9.672985673E-1,7.438687325E0
9.165360539E0,-6.313462734E0,-1.109073281E0,7.455437183E0
9.185631633E0,-6.401997089E0,-1.204786181E0,7.311867714E0
9.205902674E0,-6.471388817E0,-1.180858016E0,7.369295597E0
9.226173768E0,-6.555137634E0,-1.168893814E0,7.287939548E0
9.246444810E0,-6.581458569E0,-1.080359459E0,7.295117855E0
9.266715904E0,-6.557530403E0,-1.039083242E0,7.268796921E0
9.286986945E0,-6.468996048E0,-1.080359459E0,7.253841877E0
9.307386945E0,-6.425925255E0,-1.101894855E0,7.217949390E0
9.327529081E0,-6.378068924E0,-1.056431174E0,7.302296638E0
9.347800070E0,-6.358926296E0,-9.601200819E-1,7.345367432E0
9.368071112E0,-6.358926296E0,-9.026923180E-1,7.333403111E0
9.388342154E0,-6.387639999E0,-8.715856671E-1,7.335795879E0
9.408742154E0,-6.363711834E0,-9.170492887E-1,7.398009300E0
9.428884289E0,-6.354140759E0,-9.768698215E-1,7.433901787E0
9.449155383E0,-6.339783669E0,-1.029511929E0,7.441080093E0
9.469426424E0,-6.358926296E0,-1.125823021E0,7.386045456E0
9.489697466E0,-6.363711834E0,-1.109073281E0,7.326224804E0
9.510097466E0,-6.375676155E0,-1.073180914E0,7.307082176E0
9.530239497E0,-6.411568165E0,-9.984052777E-1,7.328617573E0
9.550510591E0,-6.452246189E0,-9.888339639E-1,7.290332317E0
9.570781633E0,-6.452246189E0,-9.984052777E-1,7.234699249E0
9.591052674E0,-6.411568165E0,-9.864411354E-1,7.278368473E0
9.611323716E0,-6.430710793E0,-9.577272534E-1,7.319046497E0
9.631594810E0,-6.480959892E0,-9.649057388E-1,7.287939548E0
9.651865851E0,-6.476174355E0,-9.696913958E-1,7.263412952E0
9.672136893E0,-6.406782627E0,-9.936196208E-1,7.295117855E0
9.692407935E0,-6.342176437E0,-9.696913958E-1,7.374081135E0
9.712678976E0,-6.306283951E0,-9.409775138E-1,7.436294556E0
9.732950070E0,-6.270391941E0,-9.146564603E-1,7.426723480E0
9.753221112E0,-6.315855503E0,-9.146564603E-1,7.433901787E0
9.773492154E0,-6.327819347E0,-9.409775138E-1,7.429116249E0
9.793763195E0,-6.363711834E0,-1.029511929E0,7.448258877E0
9.814034289E0,-6.370890141E0,-1.077966571E0,7.431509018E0
9.834305331E0,-6.344569206E0,-1.080359459E0,7.357331276E0
9.854705331E0,-6.308676720E0,-1.080359459E0,7.307082176E0
9.874847414E0,-6.308676720E0,-1.031904817E0,7.290332317E0
9.895118456E0,-6.342176437E0,-1.029511929E0,7.299903870E0
9.915389549E0,-6.373282909E0,-1.015154958E0,7.311867714E0
9.935660591E0,-6.394818306E0,-1.027119160E0,7.347760201E0
9.955931633E0,-6.406782627E0,-1.042074203E0,7.326224804E0
9.976202674E0,-6.404389858E0,-1.027119160E0,7.359724045E0
9.996473664E0,-6.430710793E0,-1.010369420E0,7.374081135E0
1.001674481E1,-6.433103561E0,-9.864411354E-1,7.340581894E0
1.003701580E1,-6.445067883E0,-9.314061999E-1,7.316653252E0
1.005728689E1,-6.413960934E0,-9.122636318E-1,7.335795879E0
1.007755794E1,-6.418746948E0,-9.337990284E-1,7.357331276E0
1.009782898E1,-6.421139717E0,-9.768698215E-1,7.364510059E0
1.011810002E1,-6.375676155E0,-9.553344250E-1,7.369295597E0
1.013837106E1,-6.323033810E0,-9.672985673E-1,7.366902828E0
1.015864210E1,-6.308676720E0,-9.696913958E-1,7.323832035E0
1.017891314E1,-6.299105644E0,-9.720842242E-1,7.345367432E0
1.019918418E1,-6.334998131E0,-9.385846853E-1,7.364510059E0
1.021945523E1,-6.404389858E0,-9.098708034E-1,7.369295597E0
1.023972627E1,-6.440282345E0,-8.883354068E-1,7.331010342E0
1.025999731E1,-6.430710793E0,-9.361918569E-1,7.304689407E0
1.028026835E1,-6.401997089E0,-1.007976532E0,7.352545738E0
1.030053939E1,-6.425925255E0,-1.046859860E0,7.357331276E0
1.032081044E1,-6.476174355E0,-1.051645517E0,7.331010342E0
1.034108148E1,-6.509674072E0,-1.034297585E0,7.302296638E0
1.036135252E1,-6.531209469E0,-9.888339639E-1,7.263412952E0
1.038162356E1,-6.483353138E0,-9.553344250E-1,7.261020184E0
1.040189460E1,-6.457031727E0,-9.481559992E-1,7.290332317E0
1.042216564E1,-6.433103561E0,-9.314061999E-1,7.340581894E0
1.044243668E1,-6.421139717E0,-9.481559992E-1,7.352545738E0
1.046270767E1,-6.397211552E0,-9.433703423E-1,7.333403111E0
1.048297872E1,-6.370890141E0,-9.792626500E-1,7.302296638E0
1.050324976E1,-6.325426579E0,-9.864411354E-1,7.359724045E0
1.052352080E1,-6.313462734E0,-9.816554785E-1,7.383652687E0
1.054379179E1,-6.380461693E0,-9.768698215E-1,7.395616531E0
1.056406283E1,-6.387639999E0,-9.577272534E-1,7.338188648E0
1.058433387E1,-6.387639999E0,-9.601200819E-1,7.378866673E0
1.060460491E1,-6.392425537E0,-9.984052777E-1,7.333403111E0
1.062487590E1,-6.416353703E0,-1.029511929E0,7.297510624E0
1.064514694E1,-6.418746948E0,-1.034297585E0,7.297510624E0
1.066541799E1,-6.440282345E0,-1.056431174E0,7.326224804E0
1.068568898E1,-6.447460651E0,-1.061216831E0,7.331010342E0
1.070596002E1,-6.447460651E0,-1.046859860E0,7.328617573E0
1.072623101E1,-6.440282345E0,-1.024726272E0,7.333403111E0
1.074650205E1,-6.423532486E0,-9.960124493E-1,7.345367432E0
1.076677304E1,-6.387639999E0,-9.601200819E-1,7.362117290E0
1.078704408E1,-6.366104603E0,-9.792626500E-1,7.374081135E0
1.080744408E1,-6.378068924E0,-9.625129104E-1,7.369295597E0
1.082758611E1,-6.370890141E0,-9.601200819E-1,7.374081135E0
1.084785710E1,-6.373282909E0,-9.649057388E-1,7.359724045E0
1.086812809E1,-6.356533527E0,-9.768698215E-1,7.364510059E0
1.088839913E1,-6.346961975E0,-1.015154958E0,7.342974663E0
1.090879913E1,-6.363711834E0,-1.017547846E0,7.338188648E0
1.092894111E1,-6.375676155E0,-1.000798106E0,7.333403111E0
1.094921215E1,-6.373282909E0,-9.768698215E-1,7.307082176E0
1.096948314E1,-6.354140759E0,-9.768698215E-1,7.338188648E0
1.098975413E1,-6.373282909E0,-9.792626500E-1,7.376473904E0
1.101015413E1,-6.356533527E0,-9.888339639E-1,7.390830994E0
1.103029611E1,-6.363711834E0,-9.840483069E-1,7.383652687E0
1.105056710E1,-6.349354744E0,-9.744769931E-1,7.369295597E0
1.107082627E1,-6.346961975E0,-9.864411354E-1,7.381259441E0
1.109097944E1,-6.373282909E0,-9.984052777E-1,7.383652687E0
1.111138778E1,-6.397211552E0,-9.888339639E-1,7.371688366E0
1.113164846E1,-6.394818306E0,-9.816554785E-1,7.366902828E0
1.115191997E1,-6.394818306E0,-9.696913958E-1,7.369295597E0
1.117219137E1,-6.354140759E0,-9.864411354E-1,7.347760201E0
1.119246273E1,-6.344569206E0,-9.744769931E-1,7.357331276E0
1.121273392E1,-6.354140759E0,-9.768698215E-1,7.369295597E0
1.123300486E1,-6.418746948E0,-9.864411354E-1,7.369295597E0
1.141030919E1,-6.382854462E0,-1.005583763E0,7.352545738E0
1.143058017E1,-6.373282909E0,-1.019940615E0,7.352545738E0
1.145085111E1,-6.363711834E0,-9.864411354E-1,7.366902828E0
1.147112210E1,-6.358926296E0,-9.720842242E-1,7.371688366E0
1.149139304E1,-6.401997089E0,-9.816554785E-1,7.376473904E0
1.151166398E1,-6.425925255E0,-9.864411354E-1,7.376473904E0
1.153193491E1,-6.387639999E0,-9.768698215E-1,7.357331276E0
1.155220585E1,-6.358926296E0,-9.720842242E-1,7.366902828E0
1.157247684E1,-6.378068924E0,-9.864411354E-1,7.362117290E0
1.159274778E1,-6.378068924E0,-9.768698215E-1,7.362117290E0
1.161301872E1,-6.397211552E0,-9.672985673E-1,7.366902828E0
1.163328965E1,-6.387639999E0,-9.672985673E-1,7.352545738E0
1.165356059E1,-6.363711834E0,-9.672985673E-1,7.362117290E0
1.167383153E1,-6.349354744E0,-9.864411354E-1,7.366902828E0
1.169410247E1,-6.339783669E0,-9.912267923E-1,7.381259441E0
1.171437335E1,-6.334998131E0,-9.720842242E-1,7.381259441E0
1.173464429E1,-6.349354744E0,-9.768698215E-1,7.381259441E0
1.175491523E1,-6.392425537E0,-9.816554785E-1,7.381259441E0
1.177518616E1,-6.406782627E0,-9.912267923E-1,7.386045456E0
1.179545705E1,-6.401997089E0,-1.000798106E0,7.376473904E0
1.181572799E1,-6.382854462E0,-9.864411354E-1,7.352545738E0
1.183599887E1,-6.373282909E0,-9.816554785E-1,7.366902828E0
1.185639887E1,-6.368497372E0,-9.912267923E-1,7.371688366E0
1.187654075E1,-6.387639999E0,-9.816554785E-1,7.366902828E0
1.189681163E1,-6.387639999E0,-9.912267923E-1,7.381259441E0
1.191708257E1,-6.373282909E0,-9.816554785E-1,7.352545738E0
1.193735346E1,-6.287141323E0,-9.625129104E-1,7.342974663E0
1.195762434E1,-6.244070530E0,-9.385846853E-1,7.405188084E0
1.197789528E1,-6.291927338E0,-9.625129104E-1,7.481758118E0
1.199816616E1,-6.382854462E0,-9.816554785E-1,7.429116249E0
1.201843700E1,-6.387639999E0,-9.960124493E-1,7.381259441E0
1.203870794E1,-6.378068924E0,-1.039083242E0,7.371688366E0
1.205897887E1,-6.392425537E0,-1.044467092E0,7.362117290E0
1.207924976E1,-6.401997089E0,-1.015154958E0,7.328617573E0
1.209952064E1,-6.421139717E0,-1.005583763E0,7.295117855E0
1.211979153E1,-6.430710793E0,-9.912267923E-1,7.299903870E0
1.214006241E1,-6.411568165E0,-1.000798106E0,7.319046497E0
1.216033330E1,-6.378068924E0,-1.019940615E0,7.352545738E0
1.218060418E1,-6.344569206E0,-9.864411354E-1,7.386045456E0
1.220087507E1,-6.354140759E0,-9.242277741E-1,7.386045456E0
1.222114596E1,-6.387639999E0,-9.002995491E-1,7.409973621E0
1.224141684E1,-6.401997089E0,-8.859425783E-1,7.405188084E0
1.226168773E1,-6.354140759E0,-8.907282352E-1,7.405188084E0
1.228195856E1,-6.311069489E0,-9.433703423E-1,7.395616531E0
1.230235856E1,-6.320641041E0,-9.672985673E-1,7.381259441E0
1.232250033E1,-6.397211552E0,-1.000798106E0,7.376473904E0
1.234277116E1,-6.464210510E0,-1.029511929E0,7.319046497E0
1.236304205E1,-6.473781586E0,-1.000798106E0,7.309474945E0
1.238331294E1,-6.425925255E0,-9.816554785E-1,7.309474945E0
1.240371294E1,-6.392425537E0,-9.768698215E-1,7.314260483E0
1.242385460E1,-6.425925255E0,-9.290133715E-1,7.319046497E0
1.244412549E1,-6.473781586E0,-9.481559992E-1,7.323832035E0
1.246439632E1,-6.497709751E0,-9.864411354E-1,7.338188648E0
1.248466721E1,-6.492924213E0,-1.010369420E0,7.309474945E0
1.250506721E1,-6.445067883E0,-9.960124493E-1,7.290332317E0
1.252520887E1,-6.382854462E0,-9.768698215E-1,7.304689407E0
1.254547971E1,-6.397211552E0,-9.625129104E-1,7.352545738E0
1.256575059E1,-6.421139717E0,-9.290133715E-1,7.352545738E0
1.258602142E1,-6.406782627E0,-8.955138922E-1,7.366902828E0
1.260629226E1,-6.397211552E0,-9.194421172E-1,7.386045456E0
1.262656304E1,-6.406782627E0,-1.000798106E0,7.395616531E0
1.264696304E1,-6.387639999E0,-1.077966571E0,7.371688366E0
1.266710476E1,-6.387639999E0,-1.092323542E0,7.357331276E0
1.268737559E1,-6.397211552E0,-1.073180914E0,7.309474945E0
1.270764642E1,-6.425925255E0,-1.039083242E0,7.304689407E0
1.272791726E1,-6.473781586E0,-1.039083242E0,7.319046497E0
1.274818809E1,-6.454638958E0,-1.082752228E0,7.366902828E0
1.276845892E1,-6.502495766E0,-1.015154958E0,7.366902828E0
1.278872976E1,-6.502495766E0,-9.577272534E-1,7.333403111E0
1.280900059E1,-6.497709751E0,-9.768698215E-1,7.338188648E0
1.282927137E1,-6.411568165E0,-1.101894855E0,7.362117290E0
1.284954221E1,-6.210571289E0,-1.140179992E0,7.491329670E0
1.286981299E1,-6.143572330E0,-1.154536963E0,7.472187042E0
1.289008382E1,-6.172286034E0,-1.116251707E0,7.357331276E0
1.291035460E1,-6.181857109E0,-1.063609719E0,7.357331276E0
1.293062544E1,-6.215356827E0,-9.960124493E-1,7.515257835E0
1.295089627E1,-6.234499454E0,-9.864411354E-1,7.668398380E0
1.297116705E1,-6.100501537E0,-1.068395257E0,7.677969456E0
1.299143788E1,-5.894120216E0,-1.116251707E0,7.673183918E0
1.301170866E1,-5.879763603E0,-1.073180914E0,7.553543091E0
1.303197948E1,-6.009573936E0,-9.625129104E-1,7.433901787E0
1.305225026E1,-6.177071571E0,-8.955138922E-1,7.419544697E0
1.307252109E1,-6.287141323E0,-9.098708034E-1,7.472187042E0
1.309279187E1,-6.354140759E0,-9.960124493E-1,7.472187042E0
1.311306265E1,-6.363711834E0,-1.034297585E0,7.448258877E0
1.313333349E1,-6.311069489E0,-1.034297585E0,7.395616531E0
1.315360427E1,-6.263213158E0,-1.039083242E0,7.366902828E0
1.317387505E1,-6.339783669E0,-1.029511929E0,7.362117290E0
1.319414583E1,-6.435496330E0,-1.058824062E0,7.448258877E0
1.321441661E1,-6.358926296E0,-1.168893814E0,7.572685242E0
1.323468739E1,-6.196214199E0,-1.207179070E0,7.601399422E0
1.325495817E1,-6.086144447E0,-1.164108157E0,7.558328629E0
1.327522890E1,-6.067001820E0,-1.106680512E0,7.524828911E0
1.329549968E1,-6.090929985E0,-1.092323542E0,7.505686283E0
1.331577046E1,-6.105287075E0,-1.130608678E0,7.520043373E0
1.333604125E1,-6.095715523E0,-1.188036442E0,7.548757076E0
1.335631198E1,-6.067001820E0,-1.188036442E0,7.567899704E0
1.337658276E1,-6.009573936E0,-1.144965649E0,7.567899704E0
1.339685323E1,-6.009573936E0,-1.159322619E0,7.610970497E0
1.341712427E1,-6.086144447E0,-1.197607756E0,7.630113125E0
1.343739505E1,-6.105287075E0,-1.197607756E0,7.634898663E0
1.345766578E1,-6.100501537E0,-1.178465128E0,7.620542049E0
1.347793656E1,-6.067001820E0,-1.188036442E0,7.567899704E0
1.349820729E1,-6.095715523E0,-1.202393413E0,7.529614449E0
1.351847807E1,-6.129215240E0,-1.197607756E0,7.539186001E0
1.353874880E1,-6.162714481E0,-1.207179070E0,7.534400463E0
1.355901953E1,-6.162714481E0,-1.197607756E0,7.510472298E0
1.357929031E1,-6.172286034E0,-1.188036442E0,7.515257835E0
1.359956104E1,-6.196214199E0,-1.168893814E0,7.510472298E0
1.361983177E1,-6.205785751E0,-1.149751306E0,7.505686283E0
1.364010250E1,-6.215356827E0,-1.121037364E0,7.500900745E0
1.366037328E1,-6.215356827E0,-1.144965649E0,7.505686283E0
1.368064401E1,-6.220142365E0,-1.154536963E0,7.520043373E0
1.370104401E1,-6.224927902E0,-1.125823021E0,7.534400463E0
1.372118547E1,-6.191428661E0,-1.121037364E0,7.539186001E0
1.374145619E1,-6.153143406E0,-1.135394335E0,7.572685242E0
1.376172692E1,-6.119643688E0,-1.159322619E0,7.567899704E0
1.378199765E1,-6.090929985E0,-1.183250785E0,7.567899704E0
1.380239765E1,-6.076572895E0,-1.202393413E0,7.563114166E0
1.382253911E1,-6.095715523E0,-1.197607756E0,7.572685242E0
1.384280984E1,-6.081358910E0,-1.202393413E0,7.596613884E0
1.386308057E1,-6.057430744E0,-1.207179070E0,7.587042332E0
1.388335130E1,-6.047859192E0,-1.197607756E0,7.582256794E0
1.390375130E1,-6.038288116E0,-1.202393413E0,7.606184959E0
1.392389270E1,-6.067001820E0,-1.183250785E0,7.630113125E0
1.394416343E1,-6.081358910E0,-1.173679471E0,7.615756035E0
1.396443411E1,-6.071787357E0,-1.178465128E0,7.610970497E0
1.398470484E1,-6.090929985E0,-1.173679471E0,7.615756035E0
1.400510484E1,-6.100501537E0,-1.183250785E0,7.582256794E0
1.402524625E1,-6.086144447E0,-1.183250785E0,7.582256794E0
1.404551698E1,-6.110072613E0,-1.164108157E0,7.610970497E0
1.406578765E1,-6.129215240E0,-1.173679471E0,7.606184959E0
1.408605838E1,-6.124429703E0,-1.183250785E0,7.606184959E0
1.410645838E1,-6.110072613E0,-1.178465128E0,7.567899704E0
1.412659979E1,-6.105287075E0,-1.159322619E0,7.529614449E0
1.414687047E1,-6.095715523E0,-1.168893814E0,7.543971539E0
1.416714119E1,-6.081358910E0,-1.197607756E0,7.572685242E0
1.418741187E1,-6.062216282E0,-1.207179070E0,7.596613884E0
1.420768255E1,-6.047859192E0,-1.216750264E0,7.610970497E0
1.422795328E1,-6.057430744E0,-1.207179070E0,7.601399422E0
1.424822395E1,-6.062216282E0,-1.192822099E0,7.606184959E0
1.426849463E1,-6.052644730E0,-1.183250785E0,7.610970497E0
1.428876531E1,-6.033502102E0,-1.192822099E0,7.630113125E0
1.430903604E1,-6.038288116E0,-1.173679471E0,7.649255753E0
1.432930672E1,-6.028716564E0,-1.173679471E0,7.654041290E0
1.434957739E1,-6.014359951E0,-1.183250785E0,7.654041290E0
1.436984807E1,-6.019145489E0,-1.207179070E0,7.644470215E0
1.439011875E1,-6.033502102E0,-1.221535921E0,7.625327587E0
1.441038942E1,-6.033502102E0,-1.197607756E0,7.596613884E0
1.443066010E1,-6.033502102E0,-1.226321578E0,7.596613884E0
1.445093078E1,-6.043073654E0,-1.231107235E0,7.601399422E0
1.447120145E1,-6.057430744E0,-1.211964726E0,7.610970497E0
1.449147213E1,-6.062216282E0,-1.211964726E0,7.610970497E0
1.451174281E1,-6.038288116E0,-1.211964726E0,7.606184959E0
1.453201349E1,-6.023931026E0,-1.226321578E0,7.610970497E0
1.455228416E1,-6.038288116E0,-1.221535921E0,7.620542049E0
1.457255484E1,-6.052644730E0,-1.197607756E0,7.596613884E0
1.459282552E1,-6.043073654E0,-1.197607756E0,7.615756035E0
1.461309614E1,-6.038288116E0,-1.197607756E0,7.639684677E0
1.463336682E1,-6.033502102E0,-1.197607756E0,7.634898663E0
1.465363750E1,-6.028716564E0,-1.207179070E0,7.649255753E0
1.467390817E1,-6.009573936E0,-1.221535921E0,7.644470215E0
1.469417880E1,-6.004788399E0,-1.221535921E0,7.639684677E0
1.471444948E1,-5.980860233E0,-1.226321578E0,7.620542049E0
1.473472015E1,-5.980860233E0,-1.240678549E0,7.639684677E0
1.475499078E1,-6.014359951E0,-1.250249863E0,7.658827305E0
1.477526145E1,-6.023931026E0,-1.231107235E0,7.649255753E0
1.479553213E1,-6.004788399E0,-1.211964726E0,7.630113125E0
1.481580276E1,-6.000002861E0,-1.202393413E0,7.634898663E0
1.483607343E1,-6.004788399E0,-1.202393413E0,7.658827305E0
1.485647343E1,-6.043073654E0,-1.231107235E0,7.663612843E0
1.487661474E1,-6.071787357E0,-1.231107235E0,7.644470215E0
1.489688541E1,-6.047859192E0,-1.226321578E0,7.615756035E0
1.491715604E1,-6.038288116E0,-1.221535921E0,7.610970497E0
1.493742672E1,-6.033502102E0,-1.245464206E0,7.625327587E0
1.495769734E1,-6.047859192E0,-1.245464206E0,7.654041290E0
1.497796797E1,-6.028716564E0,-1.250249863E0,7.644470215E0
1.499823864E1,-6.000002861E0,-1.250249863E0,7.634898663E0
1.501850927E1,-5.980860233E0,-1.235892892E0,7.630113125E0
1.503877994E1,-5.985645771E0,-1.245464206E0,7.658827305E0
1.505905057E1,-5.980860233E0,-1.216750264E0,7.663612843E0
1.507932119E1,-5.990431309E0,-1.207179070E0,7.658827305E0
1.509972119E1,-6.009573936E0,-1.211964726E0,7.654041290E0
1.511986250E1,-6.000002861E0,-1.207179070E0,7.634898663E0
1.514013312E1,-6.014359951E0,-1.226321578E0,7.668398380E0
1.516040375E1,-6.019145489E0,-1.226321578E0,7.658827305E0
1.518067437E1,-6.023931026E0,-1.226321578E0,7.649255753E0
1.520094500E1,-6.014359951E0,-1.226321578E0,7.644470215E0
1.522121567E1,-6.004788399E0,-1.226321578E0,7.639684677E0
1.524148630E1,-6.014359951E0,-1.216750264E0,7.644470215E0
1.526175692E1,-6.019145489E0,-1.245464206E0,7.639684677E0
1.528202755E1,-6.009573936E0,-1.240678549E0,7.639684677E0
1.530242755E1,-5.990431309E0,-1.221535921E0,7.639684677E0
1.532256880E1,-6.014359951E0,-1.216750264E0,7.658827305E0
1.534283942E1,-5.995217323E0,-1.211964726E0,7.649255753E0
1.536311005E1,-5.990431309E0,-1.207179070E0,7.639684677E0
1.538338067E1,-5.990431309E0,-1.216750264E0,7.658827305E0
1.540378067E1,-5.985645771E0,-1.245464206E0,7.658827305E0
1.542392187E1,-5.985645771E0,-1.231107235E0,7.654041290E0
1.544419260E1,-5.975476265E0,-1.231107235E0,7.663612843E0
1.546446312E1,-5.970690727E0,-1.235892892E0,7.663612843E0
1.548473375E1,-5.975476265E0,-1.221535921E0,7.644470215E0
1.550513375E1,-5.975476265E0,-1.235892892E0,7.663612843E0
1.552527489E1,-6.000002861E0,-1.250249863E0,7.663612843E0
1.554554557E1,-6.004788399E0,-1.250249863E0,7.663612843E0
1.556581614E1,-6.000002861E0,-1.235892892E0,7.654041290E0
1.558608677E1,-5.995217323E0,-1.240678549E0,7.668398380E0
1.560635739E1,-6.004788399E0,-1.221535921E0,7.654041290E0
1.562662796E1,-6.004788399E0,-1.235892892E0,7.644470215E0
1.564689859E1,-5.980860233E0,-1.231107235E0,7.644470215E0
1.566716922E1,-5.985645771E0,-1.226321578E0,7.677969456E0
1.568743979E1,-6.014359951E0,-1.235892892E0,7.668398380E0
1.570771041E1,-6.004788399E0,-1.235892892E0,7.668398380E0
1.572798099E1,-5.990431309E0,-1.216750264E0,7.663612843E0
1.574825161E1,-5.985645771E0,-1.202393413E0,7.634898663E0
1.576852218E1,-5.995217323E0,-1.226321578E0,7.639684677E0
1.578879281E1,-5.990431309E0,-1.240678549E0,7.663612843E0
1.580906338E1,-5.970690727E0,-1.255035520E0,7.663612843E0
1.582933401E1,-5.975476265E0,-1.255035520E0,7.654041290E0
1.584960458E1,-5.965905190E0,-1.264606714E0,7.654041290E0
1.586987520E1,-5.965905190E0,-1.245464206E0,7.682755470E0
1.589014578E1,-5.985645771E0,-1.245464206E0,7.682755470E0
1.591041630E1,-5.990431309E0,-1.221535921E0,7.663612843E0
1.593068698E1,-5.990431309E0,-1.211964726E0,7.649255753E0
1.595095755E1,-5.990431309E0,-1.226321578E0,7.649255753E0
1.597122812E1,-6.004788399E0,-1.231107235E0,7.658827305E0
1.599149875E1,-6.004788399E0,-1.235892892E0,7.663612843E0
1.601176932E1,-5.990431309E0,-1.235892892E0,7.658827305E0
1.603203989E1,-5.995217323E0,-1.221535921E0,7.649255753E0
1.605231052E1,-6.000002861E0,-1.231107235E0,7.654041290E0
1.607258109E1,-6.009573936E0,-1.264606714E0,7.654041290E0
1.609285166E1,-6.004788399E0,-1.240678549E0,7.649255753E0
1.611312224E1,-6.004788399E0,-1.231107235E0,7.658827305E0
1.613339286E1,-5.995217323E0,-1.226321578E0,7.663612843E0
1.615366343E1,-6.000002861E0,-1.226321578E0,7.654041290E0
1.617393401E1,-6.000002861E0,-1.211964726E0,7.639684677E0
1.619420458E1,-5.995217323E0,-1.221535921E0,7.654041290E0
1.621447515E1,-5.995217323E0,-1.226321578E0,7.654041290E0
1.623474578E1,-6.000002861E0,-1.235892892E0,7.658827305E0
1.625501630E1,-5.995217323E0,-1.235892892E0,7.649255753E0
1.627528692E1,-6.000002861E0,-1.235892892E0,7.658827305E0
1.629555750E1,-6.000002861E0,-1.240678549E0,7.654041290E0
1.631582807E1,-5.995217323E0,-1.240678549E0,7.649255753E0
1.633609864E1,-6.000002861E0,-1.231107235E0,7.649255753E0
1.635636922E1,-5.995217323E0,-1.226321578E0,7.630113125E0
1.637663974E1,-6.004788399E0,-1.226321578E0,7.639684677E0
1.639691036E1,-6.004788399E0,-1.221535921E0,7.644470215E0
1.641718099E1,-6.000002861E0,-1.211964726E0,7.644470215E0
1.643745156E1,-6.009573936E0,-1.231107235E0,7.639684677E0
1.645772213E1,-6.019145489E0,-1.231107235E0,7.644470215E0
1.647799270E1,-6.014359951E0,-1.231107235E0,7.634898663E0
1.649839270E1,-6.004788399E0,-1.221535921E0,7.634898663E0
1.651853385E1,-6.000002861E0,-1.231107235E0,7.673183918E0
1.653880442E1,-6.033502102E0,-1.235892892E0,7.663612843E0
1.655907500E1,-6.038288116E0,-1.235892892E0,7.639684677E0
1.657934557E1,-6.023931026E0,-1.207179070E0,7.639684677E0
1.659961609E1,-6.014359951E0,-1.197607756E0,7.630113125E0
1.661988677E1,-6.009573936E0,-1.226321578E0,7.620542049E0
1.664015734E1,-6.004788399E0,-1.245464206E0,7.639684677E0
1.666042791E1,-6.028716564E0,-1.255035520E0,7.654041290E0
1.668069849E1,-6.004788399E0,-1.274178028E0,7.634898663E0
1.670096906E1,-6.000002861E0,-1.259821177E0,7.634898663E0
1.672123963E1,-6.009573936E0,-1.240678549E0,7.630113125E0
1.674151020E1,-6.004788399E0,-1.245464206E0,7.625327587E0
1.676178078E1,-6.000002861E0,-1.231107235E0,7.639684677E0
1.678205135E1,-6.009573936E0,-1.226321578E0,7.630113125E0
1.680245135E1,-6.028716564E0,-1.231107235E0,7.620542049E0
1.682259250E1,-6.023931026E0,-1.255035520E0,7.644470215E0
1.684286307E1,-6.019145489E0,-1.245464206E0,7.644470215E0
1.686313364E1,-6.014359951E0,-1.235892892E0,7.639684677E0
1.688340422E1,-6.033502102E0,-1.235892892E0,7.630113125E0
1.690380422E1,-6.043073654E0,-1.235892892E0,7.634898663E0
1.692394536E1,-6.033502102E0,-1.255035520E0,7.625327587E0
1.694421593E1,-6.028716564E0,-1.240678549E0,7.625327587E0
1.696448651E1,-6.028716564E0,-1.235892892E0,7.620542049E0
1.698475708E1,-6.028716564E0,-1.235892892E0,7.615756035E0
1.700515708E1,-6.028716564E0,-1.245464206E0,7.620542049E0
1.702529822E1,-6.004788399E0,-1.216750264E0,7.620542049E0
1.704556875E1,-6.004788399E0,-1.226321578E0,7.639684677E0
1.706583937E1,-6.019145489E0,-1.221535921E0,7.644470215E0
1.708610994E1,-6.019145489E0,-1.235892892E0,7.644470215E0
1.710650994E1,-6.014359951E0,-1.231107235E0,7.639684677E0
1.712665114E1,-6.004788399E0,-1.231107235E0,7.634898663E0
1.714692172E1,-6.014359951E0,-1.250249863E0,7.649255753E0
1.716719229E1,-6.000002861E0,-1.255035520E0,7.658827305E0
1.718746286E1,-5.975476265E0,-1.231107235E0,7.634898663E0
1.720773343E1,-5.961119175E0,-1.235892892E0,7.630113125E0
1.722800401E1,-5.990431309E0,-1.259821177E0,7.668398380E0
1.724827458E1,-6.033502102E0,-1.245464206E0,7.682755470E0
1.726854515E1,-6.028716564E0,-1.235892892E0,7.634898663E0
1.728881573E1,-6.000002861E0,-1.197607756E0,7.625327587E0
1.730921572E1,-6.014359951E0,-1.231107235E0,7.620542049E0
1.732935687E1,-6.009573936E0,-1.240678549E0,7.639684677E0
1.734962744E1,-6.000002861E0,-1.250249863E0,7.658827305E0
1.736989802E1,-5.990431309E0,-1.259821177E0,7.644470215E0
1.739016859E1,-5.970690727E0,-1.255035520E0,7.630113125E0
1.741043916E1,-5.990431309E0,-1.250249863E0,7.634898663E0
1.743070974E1,-6.004788399E0,-1.250249863E0,7.658827305E0
1.745098031E1,-5.995217323E0,-1.245464206E0,7.663612843E0
1.747125088E1,-5.995217323E0,-1.235892892E0,7.654041290E0
1.749152145E1,-5.975476265E0,-1.235892892E0,7.644470215E0
1.751179198E1,-6.000002861E0,-1.235892892E0,7.663612843E0
1.753206260E1,-6.000002861E0,-1.235892892E0,7.673183918E0
1.755233317E1,-5.995217323E0,-1.245464206E0,7.658827305E0
1.757260375E1,-5.975476265E0,-1.235892892E0,7.644470215E0
1.759287432E1,-5.961119175E0,-1.226321578E0,7.644470215E0
1.761314489E1,-5.995217323E0,-1.221535921E0,7.658827305E0
1.763341547E1,-6.000002861E0,-1.245464206E0,7.654041290E0
1.765368604E1,-5.995217323E0,-1.250249863E0,7.658827305E0
1.767395661E1,-6.000002861E0,-1.240678549E0,7.654041290E0
1.769422718E1,-6.000002861E0,-1.240678549E0,7.663612843E0
1.771449776E1,-5.970690727E0,-1.250249863E0,7.663612843E0
1.773476833E1,-5.970690727E0,-1.235892892E0,7.673183918E0
1.775503885E1,-5.980860233E0,-1.226321578E0,7.654041290E0
1.777530942E1,-5.985645771E0,-1.240678549E0,7.663612843E0
1.779558000E1,-5.985645771E0,-1.221535921E0,7.668398380E0
1.781585057E1,-5.980860233E0,-1.250249863E0,7.668398380E0
1.783612114E1,-5.985645771E0,-1.255035520E0,7.649255753E0
1.785652114E1,-6.000002861E0,-1.245464206E0,7.673183918E0
1.787666229E1,-6.004788399E0,-1.264606714E0,7.677969456E0
1.789706229E1,-6.004788399E0,-1.278963685E0,7.677969456E0
1.791720338E1,-5.990431309E0,-1.259821177E0,7.663612843E0
1.793747395E1,-5.961119175E0,-1.216750264E0,7.644470215E0
1.795774453E1,-5.980860233E0,-1.197607756E0,7.639684677E0
1.797801510E1,-6.009573936E0,-1.197607756E0,7.668398380E0
1.799828567E1,-6.023931026E0,-1.211964726E0,7.673183918E0
1.801855625E1,-5.985645771E0,-1.221535921E0,7.663612843E0
1.803882677E1,-5.975476265E0,-1.202393413E0,7.639684677E0
1.805909734E1,-5.980860233E0,-1.216750264E0,7.625327587E0
1.807936791E1,-5.990431309E0,-1.250249863E0,7.663612843E0
1.809963849E1,-5.965905190E0,-1.293320656E0,7.682755470E0
1.811990906E1,-5.961119175E0,-1.298106313E0,7.682755470E0
1.814017958E1,-5.965905190E0,-1.283749342E0,7.663612843E0
1.816045015E1,-5.937191010E0,-1.255035520E0,7.663612843E0
1.818072072E1,-5.932405472E0,-1.250249863E0,7.677969456E0
1.820099130E1,-5.946762562E0,-1.255035520E0,7.687541008E0
1.822126187E1,-5.965905190E0,-1.216750264E0,7.677969456E0
1.824153244E1,-5.985645771E0,-1.207179070E0,7.654041290E0
1.826180302E1,-5.985645771E0,-1.216750264E0,7.658827305E0
1.828207354E1,-6.004788399E0,-1.226321578E0,7.668398380E0
1.830247354E1,-5.995217323E0,-1.211964726E0,7.663612843E0
1.832261468E1,-5.980860233E0,-1.221535921E0,7.654041290E0
1.834288526E1,-5.990431309E0,-1.221535921E0,7.644470215E0
1.836315583E1,-5.995217323E0,-1.240678549E0,7.654041290E0
1.838342635E1,-6.000002861E0,-1.245464206E0,7.663612843E0
1.840382635E1,-5.995217323E0,-1.235892892E0,7.658827305E0
1.842396750E1,-5.961119175E0,-1.235892892E0,7.673183918E0
1.844423802E1,-5.965905190E0,-1.221535921E0,7.677969456E0
1.846450859E1,-5.961119175E0,-1.235892892E0,7.673183918E0
1.848477916E1,-5.985645771E0,-1.235892892E0,7.668398380E0
1.850517916E1,-5.975476265E0,-1.245464206E0,7.687541008E0
1.852532026E1,-5.961119175E0,-1.250249863E0,7.668398380E0
1.854559083E1,-5.965905190E0,-1.235892892E0,7.668398380E0
1.856586135E1,-5.961119175E0,-1.245464206E0,7.668398380E0
1.858613192E1,-5.980860233E0,-1.240678549E0,7.673183918E0
1.860640250E1,-5.975476265E0,-1.231107235E0,7.663612843E0
1.862667302E1,-5.970690727E0,-1.235892892E0,7.673183918E0
1.864694359E1,-5.956333637E0,-1.250249863E0,7.682755470E0
1.866721416E1,-5.970690727E0,-1.235892892E0,7.692326546E0
1.868748468E1,-5.970690727E0,-1.235892892E0,7.687541008E0
1.870775526E1,-5.951548100E0,-1.235892892E0,7.663612843E0
1.872802578E1,-5.961119175E0,-1.240678549E0,7.673183918E0
1.874829635E1,-5.980860233E0,-1.250249863E0,7.687541008E0
1.876856687E1,-5.990431309E0,-1.269392371E0,7.706683636E0
1.878883744E1,-5.980860233E0,-1.240678549E0,7.682755470E0
1.880910797E1,-5.965905190E0,-1.216750264E0,7.658827305E0
1.882937854E1,-5.951548100E0,-1.226321578E0,7.644470215E0
1.884964906E1,-5.970690727E0,-1.235892892E0,7.692326546E0
1.886991958E1,-5.970690727E0,-1.269392371E0,7.701898098E0
1.889019015E1,-5.956333637E0,-1.250249863E0,7.677969456E0
1.891046062E1,-5.946762562E0,-1.259821177E0,7.658827305E0
1.893073119E1,-5.951548100E0,-1.250249863E0,7.673183918E0
1.895100177E1,-5.951548100E0,-1.245464206E0,7.697112083E0
1.897127229E1,-5.946762562E0,-1.231107235E0,7.687541008E0
1.899154286E1,-5.956333637E0,-1.211964726E0,7.668398380E0
1.901181338E1,-5.951548100E0,-1.221535921E0,7.668398380E0
1.903208390E1,-5.956333637E0,-1.235892892E0,7.668398380E0
1.905235442E1,-5.956333637E0,-1.245464206E0,7.687541008E0
1.907262494E1,-5.951548100E0,-1.240678549E0,7.697112083E0
1.909289552E1,-5.951548100E0,-1.221535921E0,7.668398380E0
1.911316604E1,-5.961119175E0,-1.231107235E0,7.673183918E0
1.913343656E1,-5.975476265E0,-1.235892892E0,7.668398380E0
1.915370708E1,-5.975476265E0,-1.259821177E0,7.663612843E0
1.917397765E1,-5.980860233E0,-1.245464206E0,7.673183918E0
1.919424817E1,-5.965905190E0,-1.245464206E0,7.677969456E0
1.921451869E1,-5.970690727E0,-1.245464206E0,7.682755470E0
1.923478922E1,-5.980860233E0,-1.221535921E0,7.668398380E0
1.925505974E1,-5.965905190E0,-1.235892892E0,7.673183918E0
1.927533026E1,-5.985645771E0,-1.240678549E0,7.677969456E0
1.929560078E1,-5.980860233E0,-1.240678549E0,7.682755470E0
1.931587130E1,-5.970690727E0,-1.240678549E0,7.673183918E0
1.933614182E1,-5.975476265E0,-1.250249863E0,7.668398380E0
1.935641234E1,-5.975476265E0,-1.250249863E0,7.663612843E0
1.937668286E1,-5.975476265E0,-1.250249863E0,7.668398380E0
1.939695338E1,-5.975476265E0,-1.250249863E0,7.677969456E0
1.941722390E1,-5.965905190E0,-1.255035520E0,7.677969456E0
1.943762390E1,-5.980860233E0,-1.250249863E0,7.654041290E0
1.945776494E1,-5.965905190E0,-1.255035520E0,7.682755470E0
1.947803546E1,-5.965905190E0,-1.245464206E0,7.677969456E0
1.949830593E1,-5.961119175E0,-1.245464206E0,7.668398380E0
1.951857651E1,-5.965905190E0,-1.240678549E0,7.658827305E0
1.953884703E1,-5.980860233E0,-1.250249863E0,7.687541008E0
1.955911755E1,-6.004788399E0,-1.259821177E0,7.692326546E0
1.957938802E1,-6.019145489E0,-1.250249863E0,7.663612843E0
1.959965854E1,-5.995217323E0,-1.216750264E0,7.658827305E0
1.961992906E1,-5.980860233E0,-1.207179070E0,7.644470215E0
1.964019958E1,-6.000002861E0,-1.226321578E0,7.654041290E0
1.966047010E1,-6.009573936E0,-1.264606714E0,7.663612843E0
1.968074052E1,-5.995217323E0,-1.264606714E0,7.673183918E0
1.970101109E1,-5.985645771E0,-1.269392371E0,7.654041290E0
1.972128156E1,-5.990431309E0,-1.269392371E0,7.658827305E0
1.974155208E1,-5.985645771E0,-1.259821177E0,7.677969456E0
1.976182260E1,-5.990431309E0,-1.250249863E0,7.668398380E0
1.978209307E1,-5.980860233E0,-1.231107235E0,7.644470215E0
1.980249307E1,-5.990431309E0,-1.245464206E0,7.649255753E0
1.982263411E1,-5.980860233E0,-1.259821177E0,7.644470215E0
1.984290458E1,-5.990431309E0,-1.274178028E0,7.663612843E0
1.986317510E1,-6.000002861E0,-1.250249863E0,7.673183918E0
1.988344557E1,-5.985645771E0,-1.245464206E0,7.663612843E0
1.990384557E1,-5.990431309E0,-1.240678549E0,7.654041290E0
1.992398656E1,-6.004788399E0,-1.235892892E0,7.663612843E0
1.994425708E1,-6.009573936E0,-1.264606714E0,7.663612843E0
1.996452755E1,-5.980860233E0,-1.264606714E0,7.692326546E0
1.998479802E1,-5.990431309E0,-1.269392371E0,7.682755470E0
2.000519802E1,-5.980860233E0,-1.259821177E0,7.663612843E0
2.002533901E1,-5.965905190E0,-1.250249863E0,7.644470215E0
2.004560948E1,-5.965905190E0,-1.250249863E0,7.673183918E0
2.006587994E1,-5.965905190E0,-1.264606714E0,7.697112083E0
2.008615047E1,-5.970690727E0,-1.278963685E0,7.687541008E0
2.010655046E1,-5.961119175E0,-1.264606714E0,7.654041290E0
2.012669140E1,-5.961119175E0,-1.259821177E0,7.654041290E0
2.014696187E1,-5.965905190E0,-1.259821177E0,7.663612843E0
2.016723239E1,-5.985645771E0,-1.278963685E0,7.682755470E0
2.018750286E1,-5.951548100E0,-1.274178028E0,7.658827305E0
2.020777333E1,-5.951548100E0,-1.255035520E0,7.649255753E0
2.022804380E1,-5.965905190E0,-1.245464206E0,7.687541008E0
2.024831427E1,-5.980860233E0,-1.255035520E0,7.711469173E0
2.026858474E1,-5.995217323E0,-1.274178028E0,7.687541008E0
2.028885520E1,-5.980860233E0,-1.255035520E0,7.682755470E0
2.030912567E1,-5.961119175E0,-1.216750264E0,7.668398380E0
2.032939619E1,-5.961119175E0,-1.231107235E0,7.663612843E0
2.034966661E1,-5.961119175E0,-1.255035520E0,7.687541008E0
2.036993703E1,-5.961119175E0,-1.259821177E0,7.692326546E0
2.039020760E1,-5.951548100E0,-1.264606714E0,7.677969456E0
2.041047802E1,-5.956333637E0,-1.259821177E0,7.668398380E0
2.043074849E1,-5.951548100E0,-1.269392371E0,7.687541008E0
2.045101895E1,-5.956333637E0,-1.269392371E0,7.692326546E0
2.047128942E1,-5.980860233E0,-1.269392371E0,7.682755470E0
2.049155989E1,-5.961119175E0,-1.255035520E0,7.682755470E0
2.051183031E1,-5.922834396E0,-1.235892892E0,7.692326546E0
2.053210078E1,-5.946762562E0,-1.240678549E0,7.673183918E0
2.055237125E1,-5.980860233E0,-1.269392371E0,7.677969456E0
2.057264172E1,-5.946762562E0,-1.264606714E0,7.701898098E0
2.059291218E1,-5.913262844E0,-1.245464206E0,7.692326546E0
2.061318260E1,-5.927619934E0,-1.240678549E0,7.668398380E0
2.063345307E1,-5.975476265E0,-1.269392371E0,7.673183918E0
2.065372354E1,-5.970690727E0,-1.274178028E0,7.692326546E0
2.067399395E1,-5.956333637E0,-1.269392371E0,7.706683636E0
2.069426442E1,-5.951548100E0,-1.274178028E0,7.692326546E0
2.071453484E1,-5.975476265E0,-1.269392371E0,7.687541008E0
2.073480531E1,-5.961119175E0,-1.278963685E0,7.677969456E0
2.075507572E1,-5.937191010E0,-1.259821177E0,7.697112083E0
2.077534614E1,-5.937191010E0,-1.264606714E0,7.701898098E0
2.079561661E1,-5.951548100E0,-1.283749342E0,7.697112083E0
2.081588703E1,-5.951548100E0,-1.278963685E0,7.687541008E0
2.083615750E1,-5.941977024E0,-1.259821177E0,7.682755470E0
2.085655750E1,-5.941977024E0,-1.264606714E0,7.697112083E0
2.087669833E1,-5.946762562E0,-1.264606714E0,7.697112083E0
2.089696869E1,-5.941977024E0,-1.259821177E0,7.706683636E0
2.091723922E1,-5.956333637E0,-1.274178028E0,7.721040249E0
2.093750963E1,-5.941977024E0,-1.269392371E0,7.711469173E0
2.095778005E1,-5.922834396E0,-1.278963685E0,7.711469173E0
2.097805052E1,-5.927619934E0,-1.283749342E0,7.697112083E0
2.099832093E1,-5.922834396E0,-1.288534999E0,7.692326546E0
2.101859135E1,-5.956333637E0,-1.312463164E0,7.711469173E0
2.103886177E1,-5.980860233E0,-1.307677627E0,7.701898098E0
2.105913218E1,-5.961119175E0,-1.274178028E0,7.677969456E0
2.107940260E1,-5.937191010E0,-1.240678549E0,7.668398380E0
2.109967302E1,-5.937191010E0,-1.240678549E0,7.687541008E0
2.111994338E1,-5.951548100E0,-1.245464206E0,7.701898098E0
2.114021385E1,-5.932405472E0,-1.269392371E0,7.697112083E0
2.116048427E1,-5.927619934E0,-1.264606714E0,7.697112083E0
2.118075463E1,-5.927619934E0,-1.278963685E0,7.701898098E0
2.120102510E1,-5.932405472E0,-1.283749342E0,7.701898098E0
2.122129552E1,-5.932405472E0,-1.259821177E0,7.711469173E0
2.124156588E1,-5.946762562E0,-1.255035520E0,7.711469173E0
2.126183630E1,-5.927619934E0,-1.240678549E0,7.701898098E0
2.128210672E1,-5.922834396E0,-1.240678549E0,7.687541008E0
2.130250672E1,-5.941977024E0,-1.264606714E0,7.706683636E0
2.132264750E1,-5.956333637E0,-1.269392371E0,7.711469173E0
2.134291791E1,-5.951548100E0,-1.255035520E0,7.697112083E0
2.136318833E1,-5.946762562E0,-1.264606714E0,7.692326546E0
2.138345869E1,-5.927619934E0,-1.283749342E0,7.692326546E0
2.140385869E1,-5.946762562E0,-1.274178028E0,7.692326546E0
2.142399948E1,-5.956333637E0,-1.269392371E0,7.677969456E0
2.144426989E1,-5.927619934E0,-1.274178028E0,7.697112083E0
2.146454026E1,-5.922834396E0,-1.269392371E0,7.706683636E0
2.148481067E1,-5.941977024E0,-1.259821177E0,7.697112083E0
2.150521067E1,-5.937191010E0,-1.264606714E0,7.711469173E0
2.152535145E1,-5.946762562E0,-1.264606714E0,7.706683636E0
2.154562182E1,-5.922834396E0,-1.269392371E0,7.716254711E0
2.156589218E1,-5.918048382E0,-1.274178028E0,7.711469173E0
2.158616260E1,-5.922834396E0,-1.274178028E0,7.692326546E0
2.160643296E1,-5.913262844E0,-1.269392371E0,7.701898098E0
2.162670333E1,-5.908477306E0,-1.264606714E0,7.711469173E0
2.164697375E1,-5.922834396E0,-1.259821177E0,7.721040249E0
2.166724411E1,-5.941977024E0,-1.278963685E0,7.692326546E0
2.168751448E1,-5.932405472E0,-1.283749342E0,7.701898098E0
2.170778484E1,-5.927619934E0,-1.274178028E0,7.701898098E0
2.172805520E1,-5.941977024E0,-1.250249863E0,7.701898098E0
2.174832562E1,-5.951548100E0,-1.250249863E0,7.697112083E0
2.176859599E1,-5.941977024E0,-1.264606714E0,7.687541008E0
2.178886630E1,-5.951548100E0,-1.245464206E0,7.677969456E0
2.180913672E1,-5.951548100E0,-1.264606714E0,7.706683636E0
2.182940708E1,-5.965905190E0,-1.269392371E0,7.721040249E0
2.184967744E1,-5.965905190E0,-1.264606714E0,7.716254711E0
2.186994781E1,-5.951548100E0,-1.264606714E0,7.706683636E0
2.189021812E1,-5.927619934E0,-1.245464206E0,7.682755470E0
2.191048849E1,-5.913262844E0,-1.269392371E0,7.687541008E0
2.193075885E1,-5.922834396E0,-1.288534999E0,7.716254711E0
2.195102922E1,-5.932405472E0,-1.302891970E0,7.725826263E0
2.197129958E1,-5.932405472E0,-1.288534999E0,7.701898098E0
2.199156994E1,-5.913262844E0,-1.274178028E0,7.706683636E0
2.201184031E1,-5.922834396E0,-1.274178028E0,7.692326546E0
2.203211062E1,-5.932405472E0,-1.255035520E0,7.697112083E0
2.205238099E1,-5.946762562E0,-1.245464206E0,7.706683636E0
2.207265135E1,-5.941977024E0,-1.235892892E0,7.697112083E0
2.209292166E1,-5.937191010E0,-1.264606714E0,7.692326546E0
2.211319203E1,-5.956333637E0,-1.259821177E0,7.697112083E0
2.213346239E1,-5.961119175E0,-1.255035520E0,7.701898098E0
2.215373270E1,-5.951548100E0,-1.259821177E0,7.687541008E0
2.217400307E1,-5.951548100E0,-1.255035520E0,7.677969456E0
2.219427338E1,-5.961119175E0,-1.259821177E0,7.677969456E0
2.221454375E1,-5.965905190E0,-1.259821177E0,7.682755470E0
2.223481411E1,-5.965905190E0,-1.259821177E0,7.687541008E0
2.225508442E1,-5.970690727E0,-1.250249863E0,7.697112083E0
2.227535479E1,-5.961119175E0,-1.250249863E0,7.697112083E0
2.229562510E1,-5.956333637E0,-1.264606714E0,7.701898098E0
2.231589541E1,-5.951548100E0,-1.259821177E0,7.692326546E0
2.233616578E1,-5.951548100E0,-1.269392371E0,7.687541008E0
2.235643609E1,-5.951548100E0,-1.269392371E0,7.706683636E0
2.237670640E1,-5.956333637E0,-1.264606714E0,7.697112083E0
2.239697672E1,-5.965905190E0,-1.274178028E0,7.682755470E0
2.241724708E1,-5.961119175E0,-1.264606714E0,7.687541008E0
2.243751739E1,-5.961119175E0,-1.269392371E0,7.687541008E0
2.245778770E1,-5.956333637E0,-1.259821177E0,7.677969456E0
2.247805802E1,-5.956333637E0,-1.274178028E0,7.687541008E0
2.249832833E1,-5.965905190E0,-1.274178028E0,7.682755470E0
2.251859864E1,-5.961119175E0,-1.259821177E0,7.677969456E0
2.253886895E1,-5.956333637E0,-1.259821177E0,7.673183918E0
2.255913927E1,-5.946762562E0,-1.259821177E0,7.697112083E0
2.257940958E1,-5.985645771E0,-1.283749342E0,7.721040249E0
2.259967989E1,-6.000002861E0,-1.278963685E0,7.692326546E0
2.261995020E1,-5.985645771E0,-1.250249863E0,7.673183918E0
2.264022052E1,-5.980860233E0,-1.245464206E0,7.677969456E0
2.266049083E1,-5.965905190E0,-1.264606714E0,7.644470215E0
2.268076114E1,-5.985645771E0,-1.288534999E0,7.658827305E0
2.270103145E1,-5.980860233E0,-1.312463164E0,7.668398380E0
2.272130172E1,-5.965905190E0,-1.302891970E0,7.668398380E0
2.274157203E1,-5.965905190E0,-1.283749342E0,7.677969456E0
2.276184234E1,-5.961119175E0,-1.269392371E0,7.677969456E0
2.278211260E1,-5.970690727E0,-1.235892892E0,7.692326546E0
2.280251260E1,-5.951548100E0,-1.235892892E0,7.706683636E0
2.282265322E1,-5.956333637E0,-1.250249863E0,7.687541008E0
2.284292354E1,-5.951548100E0,-1.250249863E0,7.677969456E0
2.286319375E1,-5.970690727E0,-1.255035520E0,7.697112083E0
2.288346411E1,-5.965905190E0,-1.269392371E0,7.711469173E0
2.290386411E1,-5.956333637E0,-1.255035520E0,7.697112083E0
2.292400468E1,-5.946762562E0,-1.245464206E0,7.682755470E0
2.294427500E1,-5.941977024E0,-1.269392371E0,7.677969456E0
2.296454526E1,-5.956333637E0,-1.278963685E0,7.687541008E0
2.298481552E1,-5.965905190E0,-1.269392371E0,7.668398380E0
2.300521552E1,-5.970690727E0,-1.274178028E0,7.673183918E0
2.302535609E1,-5.965905190E0,-1.269392371E0,7.673183918E0
2.304562635E1,-5.975476265E0,-1.269392371E0,7.673183918E0
2.306589666E1,-5.956333637E0,-1.259821177E0,7.673183918E0
2.308616692E1,-5.970690727E0,-1.255035520E0,7.701898098E0
2.310656692E1,-5.956333637E0,-1.264606714E0,7.692326546E0
2.312670750E1,-5.956333637E0,-1.269392371E0,7.692326546E0
2.314710750E1,-5.941977024E0,-1.269392371E0,7.687541008E0
2.316724802E1,-5.941977024E0,-1.250249863E0,7.687541008E0
2.318751833E1,-5.932405472E0,-1.259821177E0,7.697112083E0
2.320778859E1,-5.937191010E0,-1.288534999E0,7.725826263E0
2.322805885E1,-5.937191010E0,-1.269392371E0,7.706683636E0
2.324832911E1,-5.922834396E0,-1.264606714E0,7.697112083E0
2.326859937E1,-5.918048382E0,-1.278963685E0,7.706683636E0
2.328886963E1,-5.951548100E0,-1.288534999E0,7.730611801E0
2.330913979E1,-5.980860233E0,-1.288534999E0,7.716254711E0
2.332941010E1,-5.946762562E0,-1.269392371E0,7.706683636E0
2.334968041E1,-5.927619934E0,-1.255035520E0,7.673183918E0
2.336995067E1,-5.932405472E0,-1.269392371E0,7.658827305E0
2.339022093E1,-5.946762562E0,-1.264606714E0,7.701898098E0
2.341049119E1,-5.937191010E0,-1.278963685E0,7.706683636E0
2.343076140E1,-5.932405472E0,-1.278963685E0,7.682755470E0
2.345103166E1,-5.946762562E0,-1.283749342E0,7.692326546E0
2.347130192E1,-5.946762562E0,-1.283749342E0,7.706683636E0
2.349157218E1,-5.932405472E0,-1.278963685E0,7.711469173E0
2.351184244E1,-5.932405472E0,-1.269392371E0,7.716254711E0
2.353211265E1,-5.922834396E0,-1.259821177E0,7.692326546E0
2.355238291E1,-5.908477306E0,-1.269392371E0,7.687541008E0
2.357265317E1,-5.937191010E0,-1.269392371E0,7.725826263E0
2.359292338E1,-5.941977024E0,-1.278963685E0,7.716254711E0
2.361319364E1,-5.932405472E0,-1.269392371E0,7.721040249E0
2.363346390E1,-5.932405472E0,-1.264606714E0,7.721040249E0
2.365373411E1,-5.922834396E0,-1.250249863E0,7.701898098E0
2.367400437E1,-5.941977024E0,-1.269392371E0,7.711469173E0
2.369427458E1,-5.946762562E0,-1.278963685E0,7.711469173E0
2.371454484E1,-5.927619934E0,-1.269392371E0,7.706683636E0
2.373481505E1,-5.922834396E0,-1.288534999E0,7.701898098E0
2.375508531E1,-5.937191010E0,-1.278963685E0,7.716254711E0
2.377535552E1,-5.937191010E0,-1.259821177E0,7.711469173E0
2.379562572E1,-5.922834396E0,-1.259821177E0,7.711469173E0
2.381589599E1,-5.918048382E0,-1.293320656E0,7.711469173E0
2.383616619E1,-5.922834396E0,-1.283749342E0,7.721040249E0
2.385656619E1,-5.922834396E0,-1.269392371E0,7.701898098E0
2.387670656E1,-5.922834396E0,-1.259821177E0,7.697112083E0
2.389697687E1,-5.918048382E0,-1.269392371E0,7.721040249E0
2.391724713E1,-5.927619934E0,-1.278963685E0,7.721040249E0
2.393751734E1,-5.927619934E0,-1.274178028E0,7.706683636E0
2.395778755E1,-5.922834396E0,-1.274178028E0,7.716254711E0
2.397805776E1,-5.922834396E0,-1.278963685E0,7.721040249E0
2.399832796E1,-5.937191010E0,-1.288534999E0,7.721040249E0
2.401859822E1,-5.927619934E0,-1.259821177E0,7.692326546E0
2.403886843E1,-5.922834396E0,-1.269392371E0,7.706683636E0
2.405913864E1,-5.918048382E0,-1.293320656E0,7.730611801E0
2.407940885E1,-5.946762562E0,-1.302891970E0,7.716254711E0
2.409967906E1,-5.951548100E0,-1.264606714E0,7.706683636E0
2.411994927E1,-5.927619934E0,-1.250249863E0,7.687541008E0
2.414021948E1,-5.913262844E0,-1.269392371E0,7.687541008E0
2.416048968E1,-5.903691769E0,-1.288534999E0,7.711469173E0
2.418075989E1,-5.918048382E0,-1.288534999E0,7.725826263E0
2.420115989E1,-5.918048382E0,-1.283749342E0,7.711469173E0
2.422130031E1,-5.903691769E0,-1.293320656E0,7.697112083E0
2.424157047E1,-5.903691769E0,-1.298106313E0,7.711469173E0
2.426184067E1,-5.922834396E0,-1.274178028E0,7.725826263E0
2.428211093E1,-5.922834396E0,-1.274178028E0,7.716254711E0
2.430251093E1,-5.918048382E0,-1.259821177E0,7.701898098E0
2.432265135E1,-5.918048382E0,-1.259821177E0,7.706683636E0
2.434292151E1,-5.922834396E0,-1.278963685E0,7.701898098E0
2.436319172E1,-5.937191010E0,-1.278963685E0,7.721040249E0
2.438346192E1,-5.922834396E0,-1.278963685E0,7.711469173E0
2.440386192E1,-5.918048382E0,-1.259821177E0,7.716254711E0
2.442400234E1,-5.903691769E0,-1.259821177E0,7.697112083E0
2.444427250E1,-5.932405472E0,-1.283749342E0,7.701898098E0
2.446454270E1,-5.922834396E0,-1.278963685E0,7.706683636E0
2.448481291E1,-5.927619934E0,-1.278963685E0,7.706683636E0
2.450521291E1,-5.922834396E0,-1.269392371E0,7.716254711E0
2.452535333E1,-5.913262844E0,-1.278963685E0,7.711469173E0
2.454562349E1,-5.922834396E0,-1.264606714E0,7.716254711E0
2.456589369E1,-5.908477306E0,-1.278963685E0,7.725826263E0
2.458616385E1,-5.903691769E0,-1.283749342E0,7.721040249E0
2.460643406E1,-5.918048382E0,-1.307677627E0,7.730611801E0
2.462670427E1,-5.918048382E0,-1.293320656E0,7.725826263E0
2.464710427E1,-5.922834396E0,-1.274178028E0,7.725826263E0
2.466724463E1,-5.937191010E0,-1.274178028E0,7.716254711E0
2.468751479E1,-5.932405472E0,-1.278963685E0,7.716254711E0
2.470778500E1,-5.927619934E0,-1.274178028E0,7.721040249E0
2.472805515E1,-5.927619934E0,-1.264606714E0,7.721040249E0
2.474832536E1,-5.927619934E0,-1.259821177E0,7.721040249E0
2.476859552E1,-5.918048382E0,-1.264606714E0,7.721040249E0
2.478886572E1,-5.922834396E0,-1.269392371E0,7.711469173E0
2.480913588E1,-5.932405472E0,-1.255035520E0,7.706683636E0
2.482940609E1,-5.918048382E0,-1.255035520E0,7.687541008E0
2.484980609E1,-5.922834396E0,-1.274178028E0,7.730611801E0
2.487010432E1,-5.937191010E0,-1.293320656E0,7.740182877E0
2.489021724E1,-5.956333637E0,-1.288534999E0,7.706683636E0
2.491048724E1,-5.961119175E0,-1.255035520E0,7.692326546E0
2.493075734E1,-5.946762562E0,-1.245464206E0,7.677969456E0
2.495102744E1,-5.946762562E0,-1.250249863E0,7.668398380E0
2.497129750E1,-5.937191010E0,-1.269392371E0,7.701898098E0
2.499156765E1,-5.937191010E0,-1.293320656E0,7.706683636E0
2.501183776E1,-5.932405472E0,-1.302891970E0,7.697112083E0
2.503210791E1,-5.941977024E0,-1.288534999E0,7.682755470E0
2.505237812E1,-5.946762562E0,-1.298106313E0,7.697112083E0
2.507264828E1,-5.946762562E0,-1.274178028E0,7.706683636E0
2.509291838E1,-5.941977024E0,-1.264606714E0,7.701898098E0
2.511318854E1,-5.937191010E0,-1.259821177E0,7.692326546E0
2.513345869E1,-5.946762562E0,-1.278963685E0,7.692326546E0
2.515372885E1,-5.956333637E0,-1.298106313E0,7.682755470E0
2.517399906E1,-5.970690727E0,-1.278963685E0,7.697112083E0
2.519426922E1,-5.961119175E0,-1.269392371E0,7.687541008E0
2.521453932E1,-5.956333637E0,-1.264606714E0,7.668398380E0
2.523480948E1,-5.975476265E0,-1.269392371E0,7.682755470E0
2.525507963E1,-5.975476265E0,-1.269392371E0,7.692326546E0
2.527534979E1,-5.965905190E0,-1.250249863E0,7.687541008E0
2.529561994E1,-5.970690727E0,-1.278963685E0,7.692326546E0
2.531589010E1,-5.970690727E0,-1.278963685E0,7.697112083E0
2.533616026E1,-5.951548100E0,-1.274178028E0,7.701898098E0
2.535643041E1,-5.937191010E0,-1.278963685E0,7.682755470E0
2.537670052E1,-5.946762562E0,-1.274178028E0,7.687541008E0
2.539697073E1,-5.951548100E0,-1.269392371E0,7.697112083E0
2.541724088E1,-5.946762562E0,-1.259821177E0,7.682755470E0
2.543751104E1,-5.951548100E0,-1.264606714E0,7.673183918E0
2.545778119E1,-5.956333637E0,-1.264606714E0,7.682755470E0
2.547805135E1,-5.975476265E0,-1.264606714E0,7.673183918E0
2.549832151E1,-5.965905190E0,-1.264606714E0,7.697112083E0
2.551859166E1,-5.961119175E0,-1.259821177E0,7.682755470E0
2.553886182E1,-5.951548100E0,-1.269392371E0,7.663612843E0
2.555913198E1,-5.941977024E0,-1.278963685E0,7.677969456E0
2.557940213E1,-5.990431309E0,-1.278963685E0,7.701898098E0
2.559980213E1,-6.000002861E0,-1.288534999E0,7.716254711E0
2.561994239E1,-5.975476265E0,-1.255035520E0,7.677969456E0
2.564021255E1,-5.970690727E0,-1.240678549E0,7.654041290E0
2.566048270E1,-5.956333637E0,-1.274178028E0,7.654041290E0
2.568075286E1,-5.951548100E0,-1.293320656E0,7.677969456E0
2.570102302E1,-5.951548100E0,-1.298106313E0,7.692326546E0
2.572129312E1,-5.946762562E0,-1.317248821E0,7.677969456E0
2.574156328E1,-5.956333637E0,-1.302891970E0,7.682755470E0
2.576183343E1,-5.965905190E0,-1.283749342E0,7.697112083E0
2.578210354E1,-5.937191010E0,-1.274178028E0,7.711469173E0
2.580250354E1,-5.937191010E0,-1.264606714E0,7.692326546E0
2.582264385E1,-5.922834396E0,-1.264606714E0,7.687541008E0
2.584291395E1,-5.932405472E0,-1.264606714E0,7.697112083E0
2.586318411E1,-5.956333637E0,-1.264606714E0,7.706683636E0
2.588345427E1,-5.951548100E0,-1.274178028E0,7.706683636E0
2.590385427E1,-5.946762562E0,-1.269392371E0,7.692326546E0
2.592399453E1,-5.932405472E0,-1.259821177E0,7.701898098E0
2.594426463E1,-5.941977024E0,-1.259821177E0,7.706683636E0
2.596453479E1,-5.951548100E0,-1.264606714E0,7.701898098E0
2.598480489E1,-5.951548100E0,-1.274178028E0,7.701898098E0
2.600520489E1,-5.937191010E0,-1.264606714E0,7.701898098E0
2.602534515E1,-5.956333637E0,-1.274178028E0,7.701898098E0
2.604561531E1,-5.941977024E0,-1.288534999E0,7.697112083E0
2.606588536E1,-5.941977024E0,-1.274178028E0,7.697112083E0
2.608615557E1,-5.922834396E0,-1.264606714E0,7.716254711E0
2.610655557E1,-5.932405472E0,-1.259821177E0,7.711469173E0
2.612669583E1,-5.937191010E0,-1.278963685E0,7.711469173E0
2.614696599E1,-5.932405472E0,-1.278963685E0,7.711469173E0
2.616723609E1,-5.932405472E0,-1.274178028E0,7.711469173E0
2.618750625E1,-5.927619934E0,-1.274178028E0,7.706683636E0
2.620777635E1,-5.922834396E0,-1.278963685E0,7.716254711E0
2.622804651E1,-5.908477306E0,-1.269392371E0,7.697112083E0
2.624831661E1,-5.918048382E0,-1.264606714E0,7.701898098E0
2.626858672E1,-5.913262844E0,-1.278963685E0,7.711469173E0
2.628885687E1,-5.927619934E0,-1.283749342E0,7.730611801E0
2.630912698E1,-5.951548100E0,-1.278963685E0,7.725826263E0
2.632939713E1,-5.932405472E0,-1.274178028E0,7.701898098E0
2.634966724E1,-5.913262844E0,-1.264606714E0,7.697112083E0
2.636993734E1,-5.927619934E0,-1.274178028E0,7.701898098E0
2.639020750E1,-5.932405472E0,-1.278963685E0,7.721040249E0
2.641047760E1,-5.908477306E0,-1.302891970E0,7.730611801E0
2.643074776E1,-5.903691769E0,-1.298106313E0,7.701898098E0
2.645101786E1,-5.918048382E0,-1.298106313E0,7.730611801E0
2.647128797E1,-5.922834396E0,-1.298106313E0,7.730611801E0
2.649155807E1,-5.922834396E0,-1.298106313E0,7.744968891E0
2.651182823E1,-5.932405472E0,-1.283749342E0,7.721040249E0
2.653209833E1,-5.937191010E0,-1.274178028E0,7.687541008E0
2.655236843E1,-5.932405472E0,-1.269392371E0,7.682755470E0
2.657263859E1,-5.951548100E0,-1.278963685E0,7.701898098E0
2.659290869E1,-5.946762562E0,-1.293320656E0,7.721040249E0
2.661317880E1,-5.913262844E0,-1.278963685E0,7.716254711E0
2.663344890E1,-5.894120216E0,-1.274178028E0,7.711469173E0
2.665371906E1,-5.898906231E0,-1.274178028E0,7.716254711E0
2.667398916E1,-5.903691769E0,-1.255035520E0,7.721040249E0
2.669425927E1,-5.908477306E0,-1.264606714E0,7.730611801E0
2.671452942E1,-5.903691769E0,-1.274178028E0,7.725826263E0
2.673479953E1,-5.908477306E0,-1.293320656E0,7.716254711E0
2.675506963E1,-5.908477306E0,-1.293320656E0,7.735397339E0
2.677533974E1,-5.913262844E0,-1.293320656E0,7.730611801E0
2.679560984E1,-5.908477306E0,-1.288534999E0,7.725826263E0
2.681587994E1,-5.913262844E0,-1.298106313E0,7.725826263E0
2.683615010E1,-5.918048382E0,-1.288534999E0,7.706683636E0
2.685655010E1,-5.903691769E0,-1.293320656E0,7.716254711E0
2.687669031E1,-5.889334679E0,-1.288534999E0,7.730611801E0
2.689696041E1,-5.894120216E0,-1.288534999E0,7.711469173E0
2.691723052E1,-5.903691769E0,-1.293320656E0,7.721040249E0
2.693750062E1,-5.908477306E0,-1.298106313E0,7.725826263E0
2.695777073E1,-5.898906231E0,-1.293320656E0,7.730611801E0
2.697804088E1,-5.898906231E0,-1.298106313E0,7.735397339E0
2.699844088E1,-5.894120216E0,-1.298106313E0,7.730611801E0
2.701858109E1,-5.898906231E0,-1.283749342E0,7.744968891E0
2.703885119E1,-5.903691769E0,-1.298106313E0,7.725826263E0
2.705912130E1,-5.903691769E0,-1.302891970E0,7.725826263E0
2.707939140E1,-5.898906231E0,-1.293320656E0,7.735397339E0
2.709966151E1,-5.908477306E0,-1.302891970E0,7.740182877E0
2.711993161E1,-5.918048382E0,-1.312463164E0,7.725826263E0
2.714020172E1,-5.908477306E0,-1.283749342E0,7.706683636E0
2.716047182E1,-5.903691769E0,-1.264606714E0,7.701898098E0
2.718074192E1,-5.889334679E0,-1.278963685E0,7.721040249E0
2.720101203E1,-5.908477306E0,-1.307677627E0,7.740182877E0
2.722128218E1,-5.884549141E0,-1.317248821E0,7.730611801E0
2.724155229E1,-5.898906231E0,-1.302891970E0,7.716254711E0
2.726182239E1,-5.894120216E0,-1.293320656E0,7.711469173E0
2.728209250E1,-5.913262844E0,-1.293320656E0,7.730611801E0
2.730249250E1,-5.913262844E0,-1.259821177E0,7.721040249E0
2.732263270E1,-5.922834396E0,-1.250249863E0,7.711469173E0
2.734290281E1,-5.922834396E0,-1.240678549E0,7.706683636E0
2.736317291E1,-5.903691769E0,-1.250249863E0,7.706683636E0
2.738344302E1,-5.913262844E0,-1.269392371E0,7.716254711E0
2.740384302E1,-5.927619934E0,-1.269392371E0,7.711469173E0
2.742398322E1,-5.913262844E0,-1.274178028E0,7.711469173E0
2.744425333E1,-5.913262844E0,-1.278963685E0,7.711469173E0
2.746452343E1,-5.932405472E0,-1.274178028E0,7.706683636E0
2.748479354E1,-5.941977024E0,-1.259821177E0,7.716254711E0
2.750519354E1,-5.932405472E0,-1.255035520E0,7.692326546E0
2.752533375E1,-5.922834396E0,-1.264606714E0,7.697112083E0
2.754560390E1,-5.927619934E0,-1.288534999E0,7.697112083E0
2.756587401E1,-5.927619934E0,-1.283749342E0,7.692326546E0
2.758614411E1,-5.918048382E0,-1.278963685E0,7.701898098E0
2.760641422E1,-5.922834396E0,-1.274178028E0,7.687541008E0
2.762668432E1,-5.937191010E0,-1.269392371E0,7.701898098E0
2.764695442E1,-5.932405472E0,-1.293320656E0,7.711469173E0
2.766722453E1,-5.918048382E0,-1.288534999E0,7.716254711E0
2.768749463E1,-5.932405472E0,-1.274178028E0,7.692326546E0
2.770776474E1,-5.951548100E0,-1.274178028E0,7.692326546E0
2.772803484E1,-5.946762562E0,-1.264606714E0,7.706683636E0
2.774830494E1,-5.937191010E0,-1.288534999E0,7.692326546E0
2.776857505E1,-5.946762562E0,-1.293320656E0,7.687541008E0
2.778884515E1,-5.946762562E0,-1.274178028E0,7.711469173E0
2.780911526E1,-5.932405472E0,-1.278963685E0,7.687541008E0
2.782938541E1,-5.937191010E0,-1.274178028E0,7.697112083E0
2.784965552E1,-5.932405472E0,-1.250249863E0,7.668398380E0
2.786992562E1,-5.922834396E0,-1.259821177E0,7.677969456E0
2.789019572E1,-5.961119175E0,-1.278963685E0,7.721040249E0
2.791046583E1,-6.000002861E0,-1.288534999E0,7.706683636E0
2.793073593E1,-5.975476265E0,-1.259821177E0,7.677969456E0
2.795100604E1,-5.970690727E0,-1.231107235E0,7.668398380E0
2.797127619E1,-5.956333637E0,-1.235892892E0,7.668398380E0
2.799154630E1,-5.961119175E0,-1.259821177E0,7.658827305E0
2.801181640E1,-5.961119175E0,-1.283749342E0,7.677969456E0
2.803208651E1,-5.951548100E0,-1.293320656E0,7.692326546E0
2.805235661E1,-5.941977024E0,-1.298106313E0,7.687541008E0
2.807262672E1,-5.951548100E0,-1.274178028E0,7.663612843E0
2.809289687E1,-5.970690727E0,-1.278963685E0,7.687541008E0
2.811316698E1,-5.985645771E0,-1.264606714E0,7.687541008E0
2.813343708E1,-5.956333637E0,-1.259821177E0,7.668398380E0
2.815370724E1,-5.941977024E0,-1.269392371E0,7.673183918E0
2.817397734E1,-5.951548100E0,-1.278963685E0,7.677969456E0
2.819424744E1,-5.975476265E0,-1.298106313E0,7.677969456E0
2.821451755E1,-5.961119175E0,-1.283749342E0,7.682755470E0
2.823478770E1,-5.951548100E0,-1.269392371E0,7.677969456E0
2.825505781E1,-5.970690727E0,-1.274178028E0,7.682755470E0
2.827532791E1,-5.980860233E0,-1.250249863E0,7.682755470E0
2.829559807E1,-5.980860233E0,-1.231107235E0,7.677969456E0
2.831586817E1,-5.975476265E0,-1.235892892E0,7.677969456E0
2.833613833E1,-5.965905190E0,-1.240678549E0,7.687541008E0
2.835640843E1,-5.951548100E0,-1.269392371E0,7.668398380E0
2.837667859E1,-5.941977024E0,-1.288534999E0,7.668398380E0
2.839707859E1,-5.932405472E0,-1.293320656E0,7.682755470E0
2.841721885E1,-5.937191010E0,-1.302891970E0,7.701898098E0
2.843748895E1,-5.965905190E0,-1.326820135E0,7.701898098E0
2.845775911E1,-5.980860233E0,-1.317248821E0,7.682755470E0
2.847802927E1,-5.961119175E0,-1.269392371E0,7.682755470E0
2.849829937E1,-5.951548100E0,-1.264606714E0,7.697112083E0
2.851856953E1,-5.951548100E0,-1.259821177E0,7.682755470E0
2.853883958E1,-5.946762562E0,-1.255035520E0,7.673183918E0
2.855910979E1,-5.937191010E0,-1.264606714E0,7.677969456E0
2.857937994E1,-5.956333637E0,-1.259821177E0,7.706683636E0
2.859965010E1,-5.961119175E0,-1.283749342E0,7.673183918E0
2.861992020E1,-5.965905190E0,-1.269392371E0,7.677969456E0
2.864019036E1,-5.937191010E0,-1.255035520E0,7.663612843E0
2.866046052E1,-5.937191010E0,-1.240678549E0,7.644470215E0
2.868073067E1,-5.937191010E0,-1.240678549E0,7.644470215E0
2.870100083E1,-5.946762562E0,-1.278963685E0,7.697112083E0
2.872127099E1,-5.946762562E0,-1.302891970E0,7.706683636E0
2.874154114E1,-5.932405472E0,-1.302891970E0,7.697112083E0
2.876181130E1,-5.918048382E0,-1.293320656E0,7.682755470E0
2.878208145E1,-5.932405472E0,-1.264606714E0,7.687541008E0
2.880248145E1,-5.941977024E0,-1.264606714E0,7.706683636E0
2.882262177E1,-5.956333637E0,-1.255035520E0,7.668398380E0
2.884289192E1,-5.941977024E0,-1.250249863E0,7.677969456E0
2.886316208E1,-5.932405472E0,-1.259821177E0,7.697112083E0
2.888343224E1,-5.946762562E0,-1.269392371E0,7.677969456E0
2.890383224E1,-5.975476265E0,-1.259821177E0,7.673183918E0
2.892397260E1,-5.975476265E0,-1.255035520E0,7.663612843E0
2.894424276E1,-5.961119175E0,-1.274178028E0,7.677969456E0
2.896451296E1,-5.956333637E0,-1.278963685E0,7.673183918E0
2.898478312E1,-5.937191010E0,-1.274178028E0,7.673183918E0
2.900518312E1,-5.922834396E0,-1.274178028E0,7.682755470E0
2.902532349E1,-5.922834396E0,-1.288534999E0,7.711469173E0
2.904559369E1,-5.913262844E0,-1.298106313E0,7.716254711E0
2.906586385E1,-5.903691769E0,-1.288534999E0,7.706683636E0
2.908613401E1,-5.941977024E0,-1.274178028E0,7.682755470E0
2.910653401E1,-5.975476265E0,-1.250249863E0,7.673183918E0
2.912667442E1,-5.941977024E0,-1.302891970E0,7.687541008E0
2.914694458E1,-5.908477306E0,-1.350748420E0,7.697112083E0
2.916721479E1,-5.913262844E0,-1.317248821E0,7.654041290E0
2.918748500E1,-5.951548100E0,-1.293320656E0,7.677969456E0
2.920775515E1,-5.975476265E0,-1.274178028E0,7.716254711E0
2.922802536E1,-5.946762562E0,-1.264606714E0,7.701898098E0
2.924829557E1,-5.913262844E0,-1.245464206E0,7.697112083E0
2.926856573E1,-5.908477306E0,-1.240678549E0,7.711469173E0
2.928883593E1,-5.941977024E0,-1.255035520E0,7.677969456E0
2.930910614E1,-5.985645771E0,-1.255035520E0,7.682755470E0
2.932937635E1,-5.990431309E0,-1.221535921E0,7.677969456E0
2.934964656E1,-5.961119175E0,-1.221535921E0,7.654041290E0
2.936991672E1,-5.956333637E0,-1.250249863E0,7.677969456E0
2.939018692E1,-5.951548100E0,-1.259821177E0,7.706683636E0
2.941045718E1,-5.922834396E0,-1.307677627E0,7.706683636E0
2.943072734E1,-5.908477306E0,-1.331605792E0,7.687541008E0
2.945099755E1,-5.908477306E0,-1.317248821E0,7.711469173E0
2.947126781E1,-5.918048382E0,-1.307677627E0,7.711469173E0
2.949153802E1,-5.922834396E0,-1.322034478E0,7.697112083E0
2.951180823E1,-5.898906231E0,-1.317248821E0,7.682755470E0
2.953207843E1,-5.879763603E0,-1.341177106E0,7.687541008E0
2.955234864E1,-5.879763603E0,-1.326820135E0,7.721040249E0
2.957261885E1,-5.894120216E0,-1.317248821E0,7.735397339E0
2.959288906E1,-5.898906231E0,-1.322034478E0,7.716254711E0
2.961315927E1,-5.879763603E0,-1.307677627E0,7.706683636E0
2.963342948E1,-5.870192051E0,-1.288534999E0,7.701898098E0
2.965369974E1,-5.874977589E0,-1.274178028E0,7.721040249E0
2.967396994E1,-5.879763603E0,-1.312463164E0,7.725826263E0
2.969420088E1,-5.884549141E0,-1.312463164E0,7.711469173E0
2.971451036E1,-5.908477306E0,-1.307677627E0,7.711469173E0
2.973478062E1,-5.932405472E0,-1.288534999E0,7.711469173E0
2.975505083E1,-5.941977024E0,-1.278963685E0,7.716254711E0
2.977532109E1,-5.941977024E0,-1.278963685E0,7.706683636E0
2.979559135E1,-5.932405472E0,-1.293320656E0,7.677969456E0
2.981586156E1,-5.927619934E0,-1.283749342E0,7.682755470E0
2.983613182E1,-5.918048382E0,-1.269392371E0,7.692326546E0
2.985653182E1,-5.908477306E0,-1.255035520E0,7.706683636E0
2.987667229E1,-5.913262844E0,-1.269392371E0,7.701898098E0
2.989694250E1,-5.908477306E0,-1.255035520E0,7.687541008E0
2.991721276E1,-5.898906231E0,-1.264606714E0,7.706683636E0
2.993748302E1,-5.894120216E0,-1.278963685E0,7.697112083E0
2.995775322E1,-5.884549141E0,-1.283749342E0,7.692326546E0
2.997802349E1,-5.865406513E0,-1.274178028E0,7.721040249E0
2.999829375E1,-5.908477306E0,-1.288534999E0,7.735397339E0
3.001856395E1,-5.965905190E0,-1.341177106E0,7.706683636E0
3.003883422E1,-5.965905190E0,-1.298106313E0,7.687541008E0
3.005910448E1,-5.956333637E0,-1.240678549E0,7.673183918E0
3.007937468E1,-5.922834396E0,-1.250249863E0,7.682755470E0
3.009964494E1,-5.918048382E0,-1.288534999E0,7.721040249E0
3.011991520E1,-5.937191010E0,-1.326820135E0,7.697112083E0
3.014018541E1,-5.946762562E0,-1.384247899E0,7.654041290E0
3.016045567E1,-5.946762562E0,-1.384247899E0,7.620542049E0
3.018072593E1,-5.980860233E0,-1.369890928E0,7.668398380E0
3.020099619E1,-6.062216282E0,-1.384247899E0,7.759325504E0
3.022126645E1,-6.143572330E0,-1.374676585E0,7.735397339E0
3.024153672E1,-6.110072613E0,-1.350748420E0,7.615756035E0
3.026180698E1,-6.009573936E0,-1.293320656E0,7.587042332E0
3.028207718E1,-5.908477306E0,-1.283749342E0,7.601399422E0
3.030247718E1,-5.894120216E0,-1.269392371E0,7.582256794E0
3.032261770E1,-5.879763603E0,-1.140179992E0,7.567899704E0
3.034288797E1,-5.870192051E0,-1.101894855E0,7.634898663E0
3.036315823E1,-5.918048382E0,-1.178465128E0,7.677969456E0
3.038342843E1,-5.985645771E0,-1.269392371E0,7.721040249E0
3.040382843E1,-6.023931026E0,-1.355534077E0,7.764111042E0
3.042396895E1,-5.985645771E0,-1.393819213E0,7.754539967E0
3.044423922E1,-5.941977024E0,-1.379462242E0,7.749754429E0
3.046463922E1,-5.898906231E0,-1.341177106E0,7.735397339E0
3.048478072E1,-5.903691769E0,-1.312463164E0,7.701898098E0
3.050518073E1,-5.908477306E0,-1.259821177E0,7.682755470E0
3.052532104E1,-5.908477306E0,-1.231107235E0,7.639684677E0
3.054559114E1,-5.908477306E0,-1.202393413E0,7.587042332E0
3.056586125E1,-5.913262844E0,-1.202393413E0,7.596613884E0
3.058613140E1,-5.951548100E0,-1.216750264E0,7.654041290E0
3.060640156E1,-6.023931026E0,-1.211964726E0,7.744968891E0
3.062667166E1,-6.095715523E0,-1.274178028E0,7.811967850E0
3.064694187E1,-6.124429703E0,-1.360319614E0,7.764111042E0
3.066721213E1,-6.033502102E0,-1.355534077E0,7.630113125E0
3.068748234E1,-5.913262844E0,-1.283749342E0,7.587042332E0
3.070788234E1,-5.898906231E0,-1.235892892E0,7.625327587E0
3.072802281E1,-6.028716564E0,-1.240678549E0,7.610970497E0
3.074829307E1,-6.067001820E0,-1.207179070E0,7.572685242E0
3.076856333E1,-5.946762562E0,-1.097109199E0,7.587042332E0
3.078883354E1,-5.841478348E0,-1.082752228E0,7.615756035E0
3.080910380E1,-5.913262844E0,-1.250249863E0,7.649255753E0
3.082937401E1,-6.028716564E0,-1.355534077E0,7.701898098E0
3.084964427E1,-6.009573936E0,-1.326820135E0,7.768897057E0
3.086991453E1,-5.908477306E0,-1.293320656E0,7.855038643E0
3.089018474E1,-5.884549141E0,-1.250249863E0,7.840681553E0
3.091045494E1,-5.937191010E0,-1.255035520E0,7.788039684E0
3.093072520E1,-6.019145489E0,-1.226321578E0,7.706683636E0
3.095099547E1,-6.019145489E0,-1.202393413E0,7.601399422E0
3.097126573E1,-5.961119175E0,-1.226321578E0,7.529614449E0
3.099153599E1,-5.961119175E0,-1.255035520E0,7.539186001E0
3.101180619E1,-5.970690727E0,-1.274178028E0,7.563114166E0
3.103207645E1,-5.980860233E0,-1.307677627E0,7.577471256E0
3.105234672E1,-6.004788399E0,-1.331605792E0,7.591827869E0
3.107261692E1,-6.014359951E0,-1.269392371E0,7.610970497E0
3.109288718E1,-5.995217323E0,-1.226321578E0,7.697112083E0
3.111315744E1,-6.014359951E0,-1.259821177E0,7.783253670E0
3.113342765E1,-6.071787357E0,-1.283749342E0,7.811967850E0
3.115369791E1,-6.057430744E0,-1.278963685E0,7.821538925E0
3.117396817E1,-5.985645771E0,-1.274178028E0,7.764111042E0
3.119423838E1,-5.937191010E0,-1.245464206E0,7.649255753E0
3.121450864E1,-5.937191010E0,-1.207179070E0,7.577471256E0
3.123477885E1,-5.946762562E0,-1.183250785E0,7.548757076E0
3.125504911E1,-5.918048382E0,-1.188036442E0,7.587042332E0
3.127531937E1,-5.865406513E0,-1.192822099E0,7.625327587E0
3.129558958E1,-5.889334679E0,-1.202393413E0,7.654041290E0
3.131585984E1,-5.937191010E0,-1.259821177E0,7.658827305E0
3.133613005E1,-5.995217323E0,-1.331605792E0,7.687541008E0
3.135640031E1,-6.033502102E0,-1.389033556E0,7.768897057E0
3.137667052E1,-6.067001820E0,-1.408176184E0,7.826324463E0
3.139694078E1,-6.043073654E0,-1.355534077E0,7.797610760E0
3.141721104E1,-6.028716564E0,-1.298106313E0,7.697112083E0
3.143748125E1,-6.019145489E0,-1.216750264E0,7.615756035E0
3.145775145E1,-5.985645771E0,-1.154536963E0,7.577471256E0
3.147802172E1,-5.927619934E0,-1.149751306E0,7.567899704E0
3.149829192E1,-5.889334679E0,-1.159322619E0,7.582256794E0
3.151856218E1,-5.894120216E0,-1.240678549E0,7.610970497E0
3.153883239E1,-5.932405472E0,-1.298106313E0,7.625327587E0
3.155910265E1,-5.951548100E0,-1.322034478E0,7.682755470E0
3.157937286E1,-5.970690727E0,-1.355534077E0,7.735397339E0
3.159964307E1,-6.009573936E0,-1.331605792E0,7.759325504E0
3.161991333E1,-6.028716564E0,-1.293320656E0,7.744968891E0
3.164018354E1,-6.004788399E0,-1.274178028E0,7.730611801E0
3.166045380E1,-5.946762562E0,-1.269392371E0,7.716254711E0
3.168072401E1,-5.908477306E0,-1.255035520E0,7.673183918E0
3.170099422E1,-5.884549141E0,-1.216750264E0,7.644470215E0
3.172126442E1,-5.903691769E0,-1.207179070E0,7.639684677E0
3.174153468E1,-5.946762562E0,-1.226321578E0,7.634898663E0
3.176180489E1,-5.961119175E0,-1.235892892E0,7.639684677E0
3.178207510E1,-5.985645771E0,-1.250249863E0,7.649255753E0
3.180247510E1,-5.975476265E0,-1.283749342E0,7.677969456E0
3.182261557E1,-5.980860233E0,-1.326820135E0,7.721040249E0
3.184288573E1,-6.000002861E0,-1.322034478E0,7.716254711E0
3.186315599E1,-5.965905190E0,-1.288534999E0,7.682755470E0
3.188342619E1,-5.961119175E0,-1.278963685E0,7.716254711E0
3.190382619E1,-5.965905190E0,-1.283749342E0,7.721040249E0
3.192396666E1,-5.956333637E0,-1.278963685E0,7.711469173E0
3.194423687E1,-5.918048382E0,-1.231107235E0,7.677969456E0
3.196450708E1,-5.918048382E0,-1.226321578E0,7.644470215E0
3.198477729E1,-5.927619934E0,-1.264606714E0,7.668398380E0
3.200517729E1,-5.941977024E0,-1.283749342E0,7.663612843E0
3.202531770E1,-5.932405472E0,-1.298106313E0,7.644470215E0
3.204558791E1,-5.913262844E0,-1.298106313E0,7.668398380E0
3.206585817E1,-5.965905190E0,-1.278963685E0,7.711469173E0
3.208612833E1,-6.004788399E0,-1.264606714E0,7.725826263E0
3.210652833E1,-6.004788399E0,-1.259821177E0,7.716254711E0
3.212666875E1,-5.970690727E0,-1.235892892E0,7.706683636E0
3.214693895E1,-5.980860233E0,-1.245464206E0,7.701898098E0
3.216720916E1,-5.970690727E0,-1.274178028E0,7.687541008E0
3.218747937E1,-5.956333637E0,-1.278963685E0,7.687541008E0
3.220774958E1,-5.937191010E0,-1.278963685E0,7.682755470E0
3.222801979E1,-5.946762562E0,-1.278963685E0,7.654041290E0
3.224829000E1,-5.965905190E0,-1.278963685E0,7.639684677E0
3.226856020E1,-5.970690727E0,-1.274178028E0,7.673183918E0
3.228883036E1,-5.965905190E0,-1.278963685E0,7.663612843E0
3.230910057E1,-5.956333637E0,-1.298106313E0,7.677969456E0
3.232937078E1,-5.961119175E0,-1.312463164E0,7.687541008E0
3.234964099E1,-5.980860233E0,-1.298106313E0,7.687541008E0
3.236991119E1,-5.980860233E0,-1.298106313E0,7.692326546E0
3.239018135E1,-5.985645771E0,-1.278963685E0,7.687541008E0
3.241045156E1,-5.985645771E0,-1.264606714E0,7.677969456E0
3.243072172E1,-5.956333637E0,-1.259821177E0,7.663612843E0
3.245099192E1,-5.956333637E0,-1.255035520E0,7.658827305E0
3.247126213E1,-5.956333637E0,-1.274178028E0,7.677969456E0
3.249153234E1,-5.970690727E0,-1.298106313E0,7.687541008E0
3.251180250E1,-5.990431309E0,-1.288534999E0,7.687541008E0
3.253207270E1,-5.961119175E0,-1.269392371E0,7.692326546E0
3.255234286E1,-5.956333637E0,-1.264606714E0,7.668398380E0
3.257261307E1,-5.956333637E0,-1.288534999E0,7.682755470E0
3.259288322E1,-5.932405472E0,-1.298106313E0,7.697112083E0
3.261315343E1,-5.956333637E0,-1.302891970E0,7.701898098E0
3.263342359E1,-5.951548100E0,-1.312463164E0,7.677969456E0
3.265369380E1,-5.961119175E0,-1.307677627E0,7.663612843E0
3.267396395E1,-5.956333637E0,-1.283749342E0,7.654041290E0
3.269423411E1,-5.965905190E0,-1.264606714E0,7.668398380E0
3.271450432E1,-5.961119175E0,-1.259821177E0,7.682755470E0
3.273477448E1,-5.951548100E0,-1.269392371E0,7.668398380E0
3.275504468E1,-5.956333637E0,-1.283749342E0,7.658827305E0
3.277531484E1,-5.961119175E0,-1.278963685E0,7.682755470E0
3.279558500E1,-5.970690727E0,-1.264606714E0,7.701898098E0
3.281585520E1,-5.965905190E0,-1.283749342E0,7.682755470E0
3.283612536E1,-5.951548100E0,-1.274178028E0,7.673183918E0
3.285652536E1,-5.937191010E0,-1.255035520E0,7.682755470E0
3.287666567E1,-5.941977024E0,-1.278963685E0,7.701898098E0
3.289693588E1,-5.946762562E0,-1.288534999E0,7.687541008E0
3.291720604E1,-5.956333637E0,-1.283749342E0,7.682755470E0
3.293747619E1,-5.965905190E0,-1.283749342E0,7.682755470E0
3.295774635E1,-5.956333637E0,-1.302891970E0,7.677969456E0
3.297801656E1,-5.946762562E0,-1.312463164E0,7.682755470E0
3.299828672E1,-5.956333637E0,-1.312463164E0,7.697112083E0
3.301855687E1,-5.937191010E0,-1.278963685E0,7.682755470E0
3.303882703E1,-5.937191010E0,-1.264606714E0,7.687541008E0
3.305909718E1,-5.946762562E0,-1.288534999E0,7.692326546E0
3.307936734E1,-5.965905190E0,-1.307677627E0,7.716254711E0
3.309963750E1,-5.965905190E0,-1.312463164E0,7.711469173E0
3.311990765E1,-5.946762562E0,-1.288534999E0,7.687541008E0
3.314017781E1,-5.922834396E0,-1.278963685E0,7.677969456E0
3.316044796E1,-5.932405472E0,-1.293320656E0,7.701898098E0
3.318071812E1,-5.937191010E0,-1.302891970E0,7.716254711E0
3.320098828E1,-5.927619934E0,-1.293320656E0,7.725826263E0
3.322125843E1,-5.908477306E0,-1.288534999E0,7.716254711E0
3.324152859E1,-5.903691769E0,-1.307677627E0,7.725826263E0
3.326179875E1,-5.922834396E0,-1.322034478E0,7.725826263E0
3.328206890E1,-5.922834396E0,-1.302891970E0,7.735397339E0
3.330246890E1,-5.903691769E0,-1.283749342E0,7.701898098E0
3.332260916E1,-5.908477306E0,-1.283749342E0,7.692326546E0
3.334287932E1,-5.927619934E0,-1.288534999E0,7.701898098E0
3.336314948E1,-5.932405472E0,-1.293320656E0,7.716254711E0
3.338341958E1,-5.913262844E0,-1.283749342E0,7.711469173E0
3.340381958E1,-5.908477306E0,-1.274178028E0,7.701898098E0
3.342395984E1,-5.908477306E0,-1.283749342E0,7.711469173E0
3.344423000E1,-5.922834396E0,-1.298106313E0,7.711469173E0
3.346450015E1,-5.927619934E0,-1.293320656E0,7.721040249E0
3.348477031E1,-5.918048382E0,-1.288534999E0,7.725826263E0
3.350517031E1,-5.913262844E0,-1.288534999E0,7.721040249E0
3.352531057E1,-5.908477306E0,-1.283749342E0,7.730611801E0
3.354558072E1,-5.884549141E0,-1.302891970E0,7.735397339E0
3.356585083E1,-5.894120216E0,-1.298106313E0,7.740182877E0
3.358612099E1,-5.894120216E0,-1.307677627E0,7.730611801E0
3.360639109E1,-5.894120216E0,-1.302891970E0,7.735397339E0
3.362666125E1,-5.884549141E0,-1.298106313E0,7.721040249E0
3.364706125E1,-5.884549141E0,-1.302891970E0,7.725826263E0
3.366720151E1,-5.908477306E0,-1.288534999E0,7.754539967E0
3.368747161E1,-5.918048382E0,-1.307677627E0,7.744968891E0
3.370774177E1,-5.918048382E0,-1.307677627E0,7.730611801E0
3.372801187E1,-5.913262844E0,-1.283749342E0,7.725826263E0
3.374828203E1,-5.898906231E0,-1.288534999E0,7.711469173E0
3.376855213E1,-5.903691769E0,-1.302891970E0,7.730611801E0
3.378882224E1,-5.908477306E0,-1.326820135E0,7.744968891E0
3.380909239E1,-5.889334679E0,-1.322034478E0,7.730611801E0
3.382936250E1,-5.898906231E0,-1.322034478E0,7.721040249E0
3.384963260E1,-5.898906231E0,-1.326820135E0,7.754539967E0
3.386990276E1,-5.903691769E0,-1.307677627E0,7.735397339E0
3.389017286E1,-5.889334679E0,-1.283749342E0,7.730611801E0
3.391044296E1,-5.889334679E0,-1.293320656E0,7.721040249E0
3.393071307E1,-5.894120216E0,-1.312463164E0,7.730611801E0
3.395098322E1,-5.894120216E0,-1.307677627E0,7.754539967E0
3.397125333E1,-5.884549141E0,-1.307677627E0,7.749754429E0
3.399152343E1,-5.884549141E0,-1.302891970E0,7.716254711E0
3.401179354E1,-5.879763603E0,-1.283749342E0,7.721040249E0
3.403206364E1,-5.879763603E0,-1.298106313E0,7.716254711E0
3.405233375E1,-5.898906231E0,-1.298106313E0,7.725826263E0
3.407260385E1,-5.913262844E0,-1.307677627E0,7.735397339E0
3.409287401E1,-5.918048382E0,-1.302891970E0,7.735397339E0
3.411314411E1,-5.898906231E0,-1.307677627E0,7.735397339E0
3.413341422E1,-5.894120216E0,-1.293320656E0,7.740182877E0
3.415368432E1,-5.903691769E0,-1.293320656E0,7.725826263E0
3.417395442E1,-5.903691769E0,-1.307677627E0,7.725826263E0
3.419422453E1,-5.889334679E0,-1.312463164E0,7.725826263E0
3.421449463E1,-5.879763603E0,-1.312463164E0,7.740182877E0
3.423476474E1,-5.870192051E0,-1.312463164E0,7.716254711E0
3.425503484E1,-5.894120216E0,-1.283749342E0,7.730611801E0
3.427530494E1,-5.903691769E0,-1.298106313E0,7.725826263E0
3.429557505E1,-5.894120216E0,-1.302891970E0,7.711469173E0
3.431584510E1,-5.903691769E0,-1.322034478E0,7.744968891E0
3.433611520E1,-5.918048382E0,-1.331605792E0,7.759325504E0
3.435638531E1,-5.913262844E0,-1.331605792E0,7.740182877E0
3.437665541E1,-5.889334679E0,-1.298106313E0,7.740182877E0
3.439692552E1,-5.889334679E0,-1.293320656E0,7.716254711E0
3.441719562E1,-5.884549141E0,-1.307677627E0,7.711469173E0
3.443746567E1,-5.879763603E0,-1.326820135E0,7.740182877E0
3.445773578E1,-5.874977589E0,-1.326820135E0,7.721040249E0
3.447800588E1,-5.879763603E0,-1.331605792E0,7.721040249E0
3.449827593E1,-5.879763603E0,-1.302891970E0,7.740182877E0
3.451854604E1,-5.879763603E0,-1.317248821E0,7.754539967E0
3.453881614E1,-5.884549141E0,-1.302891970E0,7.735397339E0
3.455908619E1,-5.894120216E0,-1.288534999E0,7.730611801E0
3.457935630E1,-5.894120216E0,-1.298106313E0,7.735397339E0
3.459962640E1,-5.903691769E0,-1.298106313E0,7.730611801E0
3.461989651E1,-5.903691769E0,-1.302891970E0,7.735397339E0
3.464016656E1,-5.894120216E0,-1.298106313E0,7.730611801E0
3.466043666E1,-5.879763603E0,-1.298106313E0,7.721040249E0
3.468070672E1,-5.889334679E0,-1.302891970E0,7.716254711E0
3.470110672E1,-5.874977589E0,-1.293320656E0,7.725826263E0
3.472124687E1,-5.903691769E0,-1.312463164E0,7.730611801E0
3.474151698E1,-5.898906231E0,-1.322034478E0,7.754539967E0
3.476178703E1,-5.898906231E0,-1.322034478E0,7.744968891E0
3.478205713E1,-5.894120216E0,-1.307677627E0,7.749754429E0
3.480245713E1,-5.884549141E0,-1.302891970E0,7.740182877E0
3.482259729E1,-5.894120216E0,-1.302891970E0,7.740182877E0
3.484286734E1,-5.884549141E0,-1.302891970E0,7.735397339E0
3.486313744E1,-5.889334679E0,-1.307677627E0,7.740182877E0
3.488340750E1,-5.879763603E0,-1.307677627E0,7.749754429E0
3.490380750E1,-5.879763603E0,-1.307677627E0,7.725826263E0
3.492394765E1,-5.879763603E0,-1.302891970E0,7.730611801E0
3.494421770E1,-5.879763603E0,-1.312463164E0,7.735397339E0
3.496448781E1,-5.874977589E0,-1.302891970E0,7.740182877E0
3.498475786E1,-5.884549141E0,-1.317248821E0,7.740182877E0
3.500515786E1,-5.884549141E0,-1.312463164E0,7.749754429E0
3.502529802E1,-5.874977589E0,-1.317248821E0,7.773682594E0
3.504556812E1,-5.894120216E0,-1.326820135E0,7.778468132E0
3.506583817E1,-5.894120216E0,-1.322034478E0,7.744968891E0
3.508610823E1,-5.874977589E0,-1.293320656E0,7.725826263E0
3.510650822E1,-5.879763603E0,-1.288534999E0,7.706683636E0
3.512664838E1,-5.894120216E0,-1.302891970E0,7.706683636E0
3.514691843E1,-5.870192051E0,-1.312463164E0,7.754539967E0
3.516718849E1,-5.879763603E0,-1.322034478E0,7.744968891E0
3.518745859E1,-5.855835438E0,-1.331605792E0,7.721040249E0
3.520772864E1,-5.870192051E0,-1.317248821E0,7.740182877E0
3.522799869E1,-5.874977589E0,-1.312463164E0,7.744968891E0
3.524826875E1,-5.865406513E0,-1.302891970E0,7.749754429E0
3.526853880E1,-5.874977589E0,-1.283749342E0,7.744968891E0
3.528880885E1,-5.870192051E0,-1.293320656E0,7.740182877E0
3.530907895E1,-5.879763603E0,-1.302891970E0,7.744968891E0
3.532934901E1,-5.898906231E0,-1.312463164E0,7.759325504E0
3.534961906E1,-5.879763603E0,-1.302891970E0,7.754539967E0
3.536988911E1,-5.870192051E0,-1.293320656E0,7.725826263E0
3.539015916E1,-5.879763603E0,-1.302891970E0,7.730611801E0
3.541042922E1,-5.879763603E0,-1.307677627E0,7.725826263E0
3.543069927E1,-5.870192051E0,-1.298106313E0,7.744968891E0
3.545096932E1,-5.879763603E0,-1.298106313E0,7.749754429E0
3.547123937E1,-5.889334679E0,-1.298106313E0,7.740182877E0
3.549150942E1,-5.884549141E0,-1.298106313E0,7.735397339E0
3.551177948E1,-5.879763603E0,-1.293320656E0,7.749754429E0
3.553204953E1,-5.884549141E0,-1.298106313E0,7.740182877E0
3.555231958E1,-5.884549141E0,-1.302891970E0,7.744968891E0
3.557258963E1,-5.894120216E0,-1.312463164E0,7.740182877E0
3.559285968E1,-5.889334679E0,-1.302891970E0,7.730611801E0
3.561312974E1,-5.898906231E0,-1.293320656E0,7.740182877E0
3.563339979E1,-5.898906231E0,-1.322034478E0,7.716254711E0
3.565366984E1,-5.889334679E0,-1.317248821E0,7.716254711E0
3.567393984E1,-5.879763603E0,-1.312463164E0,7.725826263E0
3.569420989E1,-5.903691769E0,-1.317248821E0,7.735397339E0
3.571447994E1,-5.903691769E0,-1.322034478E0,7.735397339E0
3.573475000E1,-5.884549141E0,-1.307677627E0,7.716254711E0
3.575502005E1,-5.884549141E0,-1.293320656E0,7.725826263E0
3.577529010E1,-5.889334679E0,-1.307677627E0,7.740182877E0
3.579556015E1,-5.913262844E0,-1.336391449E0,7.754539967E0
3.581583020E1,-5.927619934E0,-1.331605792E0,7.735397339E0
3.583610020E1,-5.908477306E0,-1.283749342E0,7.706683636E0
3.585650020E1,-5.898906231E0,-1.269392371E0,7.697112083E0
3.587664031E1,-5.898906231E0,-1.307677627E0,7.701898098E0
3.589691036E1,-5.903691769E0,-1.317248821E0,7.730611801E0
3.591718036E1,-5.898906231E0,-1.326820135E0,7.740182877E0
3.593745041E1,-5.874977589E0,-1.326820135E0,7.730611801E0
3.595772046E1,-5.884549141E0,-1.326820135E0,7.730611801E0
3.597799052E1,-5.918048382E0,-1.326820135E0,7.735397339E0
3.599826057E1,-5.908477306E0,-1.298106313E0,7.730611801E0
3.601853062E1,-5.898906231E0,-1.278963685E0,7.721040249E0
3.603880062E1,-5.918048382E0,-1.283749342E0,7.711469173E0
3.605907067E1,-5.922834396E0,-1.307677627E0,7.716254711E0
3.607934072E1,-5.913262844E0,-1.312463164E0,7.721040249E0
3.609974073E1,-5.922834396E0,-1.293320656E0,7.725826263E0
3.611988083E1,-5.913262844E0,-1.283749342E0,7.711469173E0
3.614015083E1,-5.908477306E0,-1.288534999E0,7.706683636E0
3.616042088E1,-5.918048382E0,-1.293320656E0,7.706683636E0
3.618069093E1,-5.932405472E0,-1.307677627E0,7.706683636E0
3.620096093E1,-5.922834396E0,-1.312463164E0,7.711469173E0
3.622123099E1,-5.922834396E0,-1.312463164E0,7.716254711E0
3.624150104E1,-5.903691769E0,-1.317248821E0,7.716254711E0
3.626177109E1,-5.889334679E0,-1.312463164E0,7.721040249E0
3.628204109E1,-5.898906231E0,-1.312463164E0,7.716254711E0
3.630244109E1,-5.913262844E0,-1.298106313E0,7.711469173E0
3.632258119E1,-5.903691769E0,-1.312463164E0,7.706683636E0
3.634285119E1,-5.889334679E0,-1.312463164E0,7.711469173E0
3.636312125E1,-5.884549141E0,-1.312463164E0,7.730611801E0
3.638339130E1,-5.889334679E0,-1.312463164E0,7.725826263E0
3.640379130E1,-5.898906231E0,-1.307677627E0,7.706683636E0
3.642393135E1,-5.898906231E0,-1.331605792E0,7.711469173E0
3.644420140E1,-5.903691769E0,-1.307677627E0,7.735397339E0
3.646447140E1,-5.903691769E0,-1.302891970E0,7.725826263E0
3.648474145E1,-5.889334679E0,-1.293320656E0,7.711469173E0
3.650514145E1,-5.903691769E0,-1.293320656E0,7.730611801E0
3.652528156E1,-5.918048382E0,-1.312463164E0,7.749754429E0
3.654555156E1,-5.903691769E0,-1.322034478E0,7.740182877E0
3.656582161E1,-5.884549141E0,-1.302891970E0,7.725826263E0
3.658609166E1,-5.884549141E0,-1.293320656E0,7.716254711E0
3.660636166E1,-5.884549141E0,-1.302891970E0,7.725826263E0
3.662663172E1,-5.884549141E0,-1.307677627E0,7.744968891E0
3.664690172E1,-5.879763603E0,-1.326820135E0,7.744968891E0
3.666717177E1,-5.870192051E0,-1.326820135E0,7.740182877E0
3.668744182E1,-5.870192051E0,-1.317248821E0,7.721040249E0
3.670771182E1,-5.879763603E0,-1.326820135E0,7.735397339E0
3.672798187E1,-5.884549141E0,-1.298106313E0,7.759325504E0
3.674825187E1,-5.879763603E0,-1.302891970E0,7.735397339E0
3.676852192E1,-5.884549141E0,-1.298106313E0,7.721040249E0
3.678879198E1,-5.884549141E0,-1.302891970E0,7.716254711E0
3.680906198E1,-5.898906231E0,-1.312463164E0,7.740182877E0
3.682933203E1,-5.898906231E0,-1.293320656E0,7.740182877E0
3.684960208E1,-5.879763603E0,-1.288534999E0,7.740182877E0
3.686987208E1,-5.884549141E0,-1.298106313E0,7.735397339E0
3.689014213E1,-5.879763603E0,-1.312463164E0,7.744968891E0
3.691041218E1,-5.884549141E0,-1.312463164E0,7.749754429E0
3.693068218E1,-5.870192051E0,-1.317248821E0,7.735397339E0
3.695095224E1,-5.874977589E0,-1.331605792E0,7.749754429E0
3.697122229E1,-5.879763603E0,-1.322034478E0,7.749754429E0
3.699149234E1,-5.874977589E0,-1.302891970E0,7.725826263E0
3.701176234E1,-5.879763603E0,-1.312463164E0,7.730611801E0
3.703203239E1,-5.874977589E0,-1.317248821E0,7.740182877E0
3.705230244E1,-5.865406513E0,-1.312463164E0,7.749754429E0
3.707257244E1,-5.865406513E0,-1.312463164E0,7.730611801E0
3.709284250E1,-5.860620975E0,-1.312463164E0,7.735397339E0
3.711311255E1,-5.874977589E0,-1.322034478E0,7.740182877E0
3.713338255E1,-5.884549141E0,-1.307677627E0,7.735397339E0
3.715365260E1,-5.860620975E0,-1.307677627E0,7.735397339E0
3.717392265E1,-5.865406513E0,-1.307677627E0,7.740182877E0
3.719419265E1,-5.884549141E0,-1.326820135E0,7.740182877E0
3.721446270E1,-5.879763603E0,-1.322034478E0,7.730611801E0
3.723473276E1,-5.874977589E0,-1.317248821E0,7.735397339E0
3.725500281E1,-5.860620975E0,-1.312463164E0,7.725826263E0
3.727527286E1,-5.855835438E0,-1.317248821E0,7.735397339E0
3.729554286E1,-5.879763603E0,-1.326820135E0,7.759325504E0
3.731581291E1,-5.894120216E0,-1.317248821E0,7.768897057E0
3.733608296E1,-5.874977589E0,-1.293320656E0,7.740182877E0
3.735635302E1,-5.865406513E0,-1.293320656E0,7.721040249E0
3.737662307E1,-5.870192051E0,-1.293320656E0,7.716254711E0
3.739689312E1,-5.865406513E0,-1.307677627E0,7.740182877E0
3.741716317E1,-5.870192051E0,-1.317248821E0,7.754539967E0
3.743743317E1,-5.860620975E0,-1.326820135E0,7.730611801E0
3.745770322E1,-5.860620975E0,-1.322034478E0,7.730611801E0
3.747797328E1,-5.865406513E0,-1.322034478E0,7.740182877E0
3.749837328E1,-5.855835438E0,-1.302891970E0,7.749754429E0
3.751851338E1,-5.874977589E0,-1.302891970E0,7.744968891E0
3.753878343E1,-5.879763603E0,-1.298106313E0,7.725826263E0
3.755905349E1,-5.879763603E0,-1.298106313E0,7.730611801E0
3.757932354E1,-5.865406513E0,-1.312463164E0,7.735397339E0
3.759959359E1,-5.889334679E0,-1.317248821E0,7.759325504E0
3.761986364E1,-5.879763603E0,-1.312463164E0,7.744968891E0
3.764013375E1,-5.870192051E0,-1.302891970E0,7.721040249E0
3.766040380E1,-5.870192051E0,-1.298106313E0,7.735397339E0
3.768067385E1,-5.884549141E0,-1.307677627E0,7.735397339E0
3.770094390E1,-5.879763603E0,-1.317248821E0,7.730611801E0
3.772121395E1,-5.874977589E0,-1.317248821E0,7.749754429E0
3.774148401E1,-5.889334679E0,-1.331605792E0,7.754539967E0
3.776175406E1,-5.879763603E0,-1.312463164E0,7.735397339E0
3.778202411E1,-5.874977589E0,-1.322034478E0,7.744968891E0
3.780242411E1,-5.874977589E0,-1.312463164E0,7.754539967E0
3.782256416E1,-5.870192051E0,-1.312463164E0,7.749754429E0
3.784283432E1,-5.870192051E0,-1.307677627E0,7.744968891E0
3.786310437E1,-5.865406513E0,-1.312463164E0,7.730611801E0
3.788337442E1,-5.860620975E0,-1.307677627E0,7.744968891E0
3.790377442E1,-5.874977589E0,-1.283749342E0,7.740182877E0
3.792391458E1,-5.879763603E0,-1.288534999E0,7.735397339E0
3.794418463E1,-5.884549141E0,-1.307677627E0,7.749754429E0
3.796445468E1,-5.884549141E0,-1.307677627E0,7.740182877E0
3.798472474E1,-5.874977589E0,-1.307677627E0,7.754539967E0
3.800512474E1,-5.874977589E0,-1.322034478E0,7.754539967E0
3.802526489E1,-5.870192051E0,-1.322034478E0,7.740182877E0
3.804553494E1,-5.874977589E0,-1.317248821E0,7.711469173E0
3.806580500E1,-5.879763603E0,-1.302891970E0,7.721040249E0
3.808607505E1,-5.898906231E0,-1.322034478E0,7.754539967E0
3.810647505E1,-5.903691769E0,-1.341177106E0,7.754539967E0
3.812661520E1,-5.898906231E0,-1.312463164E0,7.735397339E0
3.814688526E1,-5.879763603E0,-1.274178028E0,7.706683636E0
3.816715536E1,-5.865406513E0,-1.288534999E0,7.701898098E0
3.818742541E1,-5.894120216E0,-1.312463164E0,7.725826263E0
3.820769546E1,-5.879763603E0,-1.336391449E0,7.735397339E0
3.822796552E1,-5.870192051E0,-1.336391449E0,7.730611801E0
3.824823562E1,-5.870192051E0,-1.326820135E0,7.725826263E0
3.826850567E1,-5.889334679E0,-1.331605792E0,7.730611801E0
3.828877572E1,-5.898906231E0,-1.326820135E0,7.744968891E0
3.830904578E1,-5.894120216E0,-1.307677627E0,7.721040249E0
3.832931588E1,-5.894120216E0,-1.283749342E0,7.701898098E0
3.834958593E1,-5.903691769E0,-1.298106313E0,7.716254711E0
3.836985599E1,-5.918048382E0,-1.326820135E0,7.744968891E0
3.839012604E1,-5.908477306E0,-1.302891970E0,7.740182877E0
3.841039614E1,-5.903691769E0,-1.302891970E0,7.711469173E0
3.843066619E1,-5.889334679E0,-1.307677627E0,7.711469173E0
3.845093625E1,-5.908477306E0,-1.293320656E0,7.711469173E0
3.847120635E1,-5.927619934E0,-1.298106313E0,7.711469173E0
3.849147640E1,-5.922834396E0,-1.298106313E0,7.711469173E0
3.851174645E1,-5.903691769E0,-1.302891970E0,7.735397339E0
3.853201656E1,-5.898906231E0,-1.312463164E0,7.721040249E0
3.855228661E1,-5.908477306E0,-1.307677627E0,7.706683636E0
3.857255666E1,-5.898906231E0,-1.298106313E0,7.716254711E0
3.859282672E1,-5.903691769E0,-1.302891970E0,7.716254711E0
3.861309677E1,-5.898906231E0,-1.293320656E0,7.716254711E0
3.863336687E1,-5.898906231E0,-1.302891970E0,7.706683636E0
3.865363692E1,-5.894120216E0,-1.307677627E0,7.701898098E0
3.867390698E1,-5.908477306E0,-1.302891970E0,7.701898098E0
3.869417708E1,-5.908477306E0,-1.312463164E0,7.701898098E0
3.871444713E1,-5.908477306E0,-1.293320656E0,7.687541008E0
3.873471718E1,-5.898906231E0,-1.302891970E0,7.687541008E0
3.875498729E1,-5.898906231E0,-1.307677627E0,7.706683636E0
3.877525734E1,-5.927619934E0,-1.312463164E0,7.725826263E0
3.879552739E1,-5.946762562E0,-1.341177106E0,7.744968891E0
3.881579744E1,-5.941977024E0,-1.307677627E0,7.716254711E0
3.883606755E1,-5.922834396E0,-1.274178028E0,7.692326546E0
3.885646755E1,-5.908477306E0,-1.288534999E0,7.677969456E0
3.887660765E1,-5.913262844E0,-1.312463164E0,7.701898098E0
3.889700765E1,-5.913262844E0,-1.341177106E0,7.716254711E0
3.891714781E1,-5.903691769E0,-1.341177106E0,7.701898098E0
3.893741786E1,-5.913262844E0,-1.336391449E0,7.701898098E0
3.895768791E1,-5.908477306E0,-1.322034478E0,7.701898098E0
3.897795802E1,-5.913262844E0,-1.322034478E0,7.754539967E0
3.899822807E1,-5.913262844E0,-1.293320656E0,7.749754429E0
3.901849812E1,-5.908477306E0,-1.283749342E0,7.721040249E0
3.903876817E1,-5.908477306E0,-1.302891970E0,7.697112083E0
3.905903822E1,-5.927619934E0,-1.307677627E0,7.711469173E0
3.907930828E1,-5.927619934E0,-1.317248821E0,7.716254711E0
3.909957838E1,-5.913262844E0,-1.307677627E0,7.711469173E0
3.911984843E1,-5.903691769E0,-1.278963685E0,7.701898098E0
3.914011849E1,-5.903691769E0,-1.293320656E0,7.701898098E0
3.916038854E1,-5.898906231E0,-1.293320656E0,7.735397339E0
3.918065859E1,-5.894120216E0,-1.298106313E0,7.725826263E0
3.920092869E1,-5.898906231E0,-1.302891970E0,7.716254711E0
3.922119875E1,-5.898906231E0,-1.302891970E0,7.740182877E0
3.924146880E1,-5.889334679E0,-1.317248821E0,7.744968891E0
3.926173885E1,-5.879763603E0,-1.298106313E0,7.730611801E0
3.928200890E1,-5.903691769E0,-1.293320656E0,7.730611801E0
3.930240890E1,-5.894120216E0,-1.317248821E0,7.735397339E0
3.932254906E1,-5.894120216E0,-1.326820135E0,7.730611801E0
3.934281911E1,-5.874977589E0,-1.312463164E0,7.740182877E0
3.936308916E1,-5.874977589E0,-1.293320656E0,7.721040249E0
3.938335922E1,-5.884549141E0,-1.302891970E0,7.721040249E0
3.940375922E1,-5.884549141E0,-1.307677627E0,7.716254711E0
3.942389932E1,-5.884549141E0,-1.302891970E0,7.725826263E0
3.944416937E1,-5.884549141E0,-1.326820135E0,7.749754429E0
3.946443942E1,-5.908477306E0,-1.336391449E0,7.740182877E0
3.948470953E1,-5.918048382E0,-1.322034478E0,7.725826263E0
3.950510953E1,-5.889334679E0,-1.302891970E0,7.725826263E0
3.952524963E1,-5.879763603E0,-1.298106313E0,7.721040249E0
3.954551968E1,-5.889334679E0,-1.307677627E0,7.735397339E0
3.956578974E1,-5.894120216E0,-1.331605792E0,7.754539967E0
3.958605979E1,-5.870192051E0,-1.341177106E0,7.730611801E0
3.960632984E1,-5.860620975E0,-1.326820135E0,7.716254711E0
3.962659989E1,-5.874977589E0,-1.317248821E0,7.735397339E0
3.964686994E1,-5.894120216E0,-1.307677627E0,7.744968891E0
3.966714000E1,-5.874977589E0,-1.307677627E0,7.740182877E0
3.968741010E1,-5.870192051E0,-1.302891970E0,7.716254711E0
3.970768015E1,-5.870192051E0,-1.302891970E0,7.730611801E0
3.972795020E1,-5.884549141E0,-1.317248821E0,7.740182877E0
3.974822026E1,-5.889334679E0,-1.326820135E0,7.744968891E0
3.976849026E1,-5.879763603E0,-1.317248821E0,7.735397339E0
3.978876036E1,-5.865406513E0,-1.302891970E0,7.725826263E0
3.980903041E1,-5.874977589E0,-1.302891970E0,7.735397339E0
3.982930046E1,-5.889334679E0,-1.317248821E0,7.730611801E0
3.984957052E1,-5.879763603E0,-1.307677627E0,7.749754429E0
3.986984057E1,-5.870192051E0,-1.307677627E0,7.735397339E0
3.989011062E1,-5.874977589E0,-1.317248821E0,7.749754429E0
3.991038067E1,-5.879763603E0,-1.312463164E0,7.749754429E0
3.993078067E1,-5.884549141E0,-1.307677627E0,7.744968891E0
3.995092078E1,-5.874977589E0,-1.312463164E0,7.749754429E0
3.997119083E1,-5.860620975E0,-1.326820135E0,7.749754429E0
3.999146088E1,-5.870192051E0,-1.331605792E0,7.749754429E0
4.001173093E1,-5.865406513E0,-1.336391449E0,7.735397339E0
4.003213093E1,-5.860620975E0,-1.326820135E0,7.744968891E0
4.005227104E1,-5.879763603E0,-1.317248821E0,7.740182877E0
4.007254109E1,-5.870192051E0,-1.322034478E0,7.744968891E0
4.009281114E1,-5.860620975E0,-1.317248821E0,7.754539967E0
4.011308119E1,-5.860620975E0,-1.317248821E0,7.740182877E0
4.013335119E1,-5.870192051E0,-1.317248821E0,7.764111042E0
4.015362125E1,-5.884549141E0,-1.326820135E0,7.783253670E0
4.017389130E1,-5.889334679E0,-1.331605792E0,7.754539967E0
4.019416135E1,-5.879763603E0,-1.312463164E0,7.730611801E0
4.021443140E1,-5.865406513E0,-1.298106313E0,7.725826263E0
4.023470145E1,-5.879763603E0,-1.312463164E0,7.725826263E0
4.025497145E1,-5.865406513E0,-1.336391449E0,7.759325504E0
4.027524151E1,-5.870192051E0,-1.350748420E0,7.744968891E0
4.029551156E1,-5.855835438E0,-1.331605792E0,7.725826263E0
4.031578161E1,-5.855835438E0,-1.317248821E0,7.740182877E0
4.033605166E1,-5.874977589E0,-1.331605792E0,7.759325504E0
4.035632166E1,-5.860620975E0,-1.298106313E0,7.768897057E0
4.037659166E1,-5.870192051E0,-1.283749342E0,7.759325504E0
4.039686177E1,-5.865406513E0,-1.288534999E0,7.730611801E0
4.041713182E1,-5.870192051E0,-1.283749342E0,7.725826263E0
4.043740187E1,-5.874977589E0,-1.312463164E0,7.744968891E0
4.045767187E1,-5.884549141E0,-1.302891970E0,7.749754429E0
4.047794192E1,-5.865406513E0,-1.298106313E0,7.744968891E0
4.049821198E1,-5.874977589E0,-1.307677627E0,7.725826263E0
4.051848203E1,-5.889334679E0,-1.312463164E0,7.725826263E0
4.053875203E1,-5.908477306E0,-1.298106313E0,7.725826263E0
4.055902208E1,-5.913262844E0,-1.322034478E0,7.721040249E0
4.057929208E1,-5.913262844E0,-1.312463164E0,7.735397339E0
4.059956213E1,-5.908477306E0,-1.317248821E0,7.725826263E0
4.061983218E1,-5.879763603E0,-1.312463164E0,7.725826263E0
4.064010218E1,-5.879763603E0,-1.307677627E0,7.735397339E0
4.066037224E1,-5.898906231E0,-1.317248821E0,7.725826263E0
4.068064224E1,-5.884549141E0,-1.317248821E0,7.735397339E0
4.070091229E1,-5.898906231E0,-1.312463164E0,7.744968891E0
4.072118234E1,-5.908477306E0,-1.326820135E0,7.711469173E0
4.074145234E1,-5.898906231E0,-1.326820135E0,7.716254711E0
4.076172239E1,-5.889334679E0,-1.307677627E0,7.730611801E0
4.078199239E1,-5.898906231E0,-1.322034478E0,7.730611801E0
4.080239239E1,-5.894120216E0,-1.312463164E0,7.716254711E0
4.082253244E1,-5.894120216E0,-1.312463164E0,7.711469173E0
4.084280250E1,-5.889334679E0,-1.317248821E0,7.711469173E0
4.086307255E1,-5.913262844E0,-1.317248821E0,7.744968891E0
4.088334255E1,-5.937191010E0,-1.322034478E0,7.735397339E0
4.090374255E1,-5.927619934E0,-1.302891970E0,7.716254711E0
4.092388260E1,-5.922834396E0,-1.264606714E0,7.697112083E0
4.094415265E1,-5.918048382E0,-1.278963685E0,7.668398380E0
4.096442265E1,-5.913262844E0,-1.307677627E0,7.692326546E0
4.098469265E1,-5.908477306E0,-1.331605792E0,7.716254711E0
4.100509265E1,-5.908477306E0,-1.341177106E0,7.735397339E0
4.102523270E1,-5.903691769E0,-1.326820135E0,7.721040249E0
4.104550270E1,-5.913262844E0,-1.345962763E0,7.706683636E0
4.106577276E1,-5.918048382E0,-1.326820135E0,7.730611801E0
4.108604281E1,-5.913262844E0,-1.317248821E0,7.716254711E0
4.110644281E1,-5.918048382E0,-1.293320656E0,7.706683636E0
4.112658281E1,-5.908477306E0,-1.293320656E0,7.701898098E0
4.114685281E1,-5.918048382E0,-1.326820135E0,7.711469173E0
4.116712286E1,-5.918048382E0,-1.331605792E0,7.716254711E0
4.118739286E1,-5.922834396E0,-1.302891970E0,7.721040249E0
4.120766286E1,-5.903691769E0,-1.298106313E0,7.716254711E0
4.122793291E1,-5.918048382E0,-1.307677627E0,7.701898098E0
4.124820291E1,-5.937191010E0,-1.307677627E0,7.706683636E0
4.126847291E1,-5.918048382E0,-1.298106313E0,7.711469173E0
4.128874297E1,-5.903691769E0,-1.312463164E0,7.716254711E0
4.130901296E1,-5.908477306E0,-1.312463164E0,7.721040249E0
4.132928291E1,-5.898906231E0,-1.312463164E0,7.721040249E0
4.134955302E1,-5.884549141E0,-1.298106313E0,7.721040249E0
4.136982302E1,-5.889334679E0,-1.317248821E0,7.725826263E0
4.139009302E1,-5.908477306E0,-1.326820135E0,7.730611801E0
4.141036302E1,-5.903691769E0,-1.331605792E0,7.730611801E0
4.143063307E1,-5.908477306E0,-1.326820135E0,7.721040249E0
4.145090307E1,-5.903691769E0,-1.312463164E0,7.730611801E0
4.147117307E1,-5.908477306E0,-1.302891970E0,7.725826263E0
4.149144307E1,-5.884549141E0,-1.302891970E0,7.716254711E0
4.151171307E1,-5.889334679E0,-1.302891970E0,7.725826263E0
4.153198307E1,-5.898906231E0,-1.317248821E0,7.744968891E0
4.155225307E1,-5.913262844E0,-1.331605792E0,7.740182877E0
4.157252307E1,-5.922834396E0,-1.302891970E0,7.749754429E0
4.159279307E1,-5.898906231E0,-1.288534999E0,7.721040249E0
4.161306312E1,-5.894120216E0,-1.298106313E0,7.725826263E0
4.163333312E1,-5.879763603E0,-1.326820135E0,7.730611801E0
4.165360312E1,-5.879763603E0,-1.350748420E0,7.730611801E0
4.167387312E1,-5.884549141E0,-1.350748420E0,7.721040249E0
4.169414312E1,-5.870192051E0,-1.350748420E0,7.735397339E0
4.171441312E1,-5.860620975E0,-1.336391449E0,7.744968891E0
4.173468312E1,-5.870192051E0,-1.322034478E0,7.749754429E0
4.175495312E1,-5.879763603E0,-1.302891970E0,7.744968891E0
4.177522312E1,-5.860620975E0,-1.312463164E0,7.740182877E0
4.179549312E1,-5.874977589E0,-1.307677627E0,7.764111042E0
4.181576312E1,-5.874977589E0,-1.312463164E0,7.764111042E0
4.183603312E1,-5.879763603E0,-1.302891970E0,7.744968891E0
4.185643312E1,-5.870192051E0,-1.317248821E0,7.744968891E0
4.187657307E1,-5.851049423E0,-1.312463164E0,7.735397339E0
4.189684307E1,-5.846263885E0,-1.307677627E0,7.735397339E0
4.191711307E1,-5.874977589E0,-1.312463164E0,7.740182877E0
4.193738307E1,-5.879763603E0,-1.312463164E0,7.749754429E0
4.195765307E1,-5.870192051E0,-1.322034478E0,7.754539967E0
4.197792307E1,-5.884549141E0,-1.322034478E0,7.754539967E0
4.199819302E1,-5.884549141E0,-1.326820135E0,7.749754429E0
4.201846302E1,-5.874977589E0,-1.336391449E0,7.754539967E0
