"Time (s)","Acceleration x (m/s^2)","Acceleration y (m/s^2)","Acceleration z (m/s^2)"
1.627705200E-2,-3.212962627E0,3.825525284E0,7.500900745E0
3.657736500E-2,-2.547159672E0,3.813561201E0,8.563912392E0
5.684830200E-2,-1.639681697E0,3.638885021E0,9.095118523E0
7.696189600E-2,-1.055832982E0,3.246462107E0,9.233902931E0
9.723262500E-2,-8.787640929E-1,2.841476917E0,8.647661209E0
1.175034060E-1,-8.380861282E-1,2.685943365E0,7.386045456E0
1.377742920E-1,-1.005583763E0,2.415554523E0,6.602993965E0
1.581742920E-1,-7.250252366E-1,1.878963947E0,6.665207386E0
1.783160630E-1,3.355933726E-1,1.220937729E0,7.162914753E0
1.985868960E-1,1.884347796E0,3.302095234E-1,9.068798065E0
2.188577290E-1,2.509472847E0,1.890329868E-1,9.500103951E0
2.391286150E-1,2.023131609E0,1.076770201E-1,9.602995872E0
2.593995000E-1,1.048654556E0,-9.152546525E-2,9.152546883E0
2.796704900E-1,8.859425783E-1,7.657032460E-2,1.020120144E1
2.999414270E-1,-4.642075896E-1,1.674975902E-1,1.027298546E1
3.202122610E-1,-4.594219327E-1,2.895315289E-1,1.054158020E1
3.404831460E-1,4.432703853E-1,3.589234129E-2,1.162373447E1
3.607541360E-1,1.153938770E0,-6.705885530E-1,1.202094269E1
3.810250730E-1,1.733600020E0,-1.501496196E0,1.160459137E1
4.012959580E-1,2.442473650E0,-2.540579557E0,1.026819992E1
4.215669480E-1,2.104487419E0,-3.495913982E0,9.059226990E0
4.418378860E-1,1.084546804E0,-4.415356159E0,9.610174179E0
4.622378860E-1,-6.747759581E-1,-3.960121393E0,1.097468090E1
4.823797080E-1,-3.074178934E0,-2.947359324E0,1.314138222E1
5.026506460E-1,-4.192225456E0,-2.042274237E0,1.143470097E1
5.229215830E-1,-5.080560684E0,-3.045464993E0,9.466604233E0
5.431925210E-1,-7.582256794E0,-6.112465382E0,6.681957245E0
5.634634580E-1,-6.289534092E0,-8.237292171E-1,6.658029079E0
5.837343960E-1,-5.408377171E0,-2.047059774E0,5.458626747E0
6.040053330E-1,-4.584648132E0,-1.403390527E0,5.915655613E0
6.242762190E-1,-3.929014683E0,-8.021938205E-1,7.319046497E0
6.445471560E-1,-3.789632797E0,-3.379862010E-1,8.913264275E0
6.648180940E-1,-5.118845940E0,-4.528416991E-1,1.035673428E1
6.850890310E-1,-5.865406513E0,-1.367498159E0,9.253045082E0
7.053599170E-1,-6.861418724E0,-1.984846354E0,7.421937466E0
7.256308020E-1,-7.689933777E0,-2.174477577E0,6.102295876E0
7.459017400E-1,-8.027321815E0,-1.994417667E0,6.650850773E0
7.661726250E-1,-7.699504852E0,-1.788634896E0,7.340581894E0
7.865623650E-1,-7.177869797E0,-1.506281853E0,7.268796921E0
8.068724690E-1,-8.159524918E0,-1.441675663E0,6.607779503E0
8.271434580E-1,-7.479365349E0,-2.729612350E0,6.765706062E0
8.474144480E-1,-7.051050186E0,-1.269392371E0,7.572685242E0
8.675279900E-1,-5.367699623E0,-1.604387641E0,7.112665176E0
8.877987710E-1,-5.939583778E0,-1.104287624E0,5.841478348E0
9.081987710E-1,-6.571887493E0,-1.649851203E0,6.303891182E0
9.283404900E-1,-5.154737949E0,-2.015953064E0,6.224329948E0
9.487404900E-1,-5.690730572E0,-2.181656122E0,5.029713154E0
9.688822080E-1,-7.347760201E0,-2.810968399E0,4.004986763E0
9.891529900E-1,-5.884549141E0,-3.488735437E0,3.945166349E0
1.009423875E0,-5.082953453E0,-4.139583111E0,7.491329670E0
1.029694708E0,-5.286343575E0,-3.211168051E0,7.711469173E0
1.050094708E0,-5.042275429E0,-3.969692707E0,7.331010342E0
1.070236479E0,-6.969096184E0,-3.474378586E0,5.973083496E0
1.090507365E0,-1.088136101E1,-3.491128206E0,4.776073933E0
1.110778250E0,-1.140359497E1,-3.127419233E0,1.950748682E0
1.131049136E0,-6.880561352E0,-4.195216179E0,4.235295951E-1
1.151449136E0,-3.263211966E0,-6.035895348E0,-2.111666054E-1
1.171590906E0,-8.189435601E-1,-8.020741463E0,1.206580877E0
1.191861844E0,-1.941775560E0,-5.236692429E0,1.462612867E0
1.212132677E0,-5.015954494E0,-3.515056372E0,4.036093712E0
1.232403563E0,-5.001597404E0,-5.490331650E0,4.792823792E0
1.252803563E0,-6.820741177E0,-7.051050186E0,7.560721397E0
1.272945386E0,-9.751350403E0,-7.305287361E0,9.176474571E0
1.293216271E0,-1.064207840E1,-5.636293888E0,7.436294556E0
1.313487208E0,-1.222732353E1,-4.257429600E0,9.468997002E0
1.333758094E0,-1.086939716E1,-2.456830740E0,1.127856922E1
1.354158094E0,-1.026161957E1,-3.170490026E0,1.233679581E1
1.374299917E0,-1.093400288E1,-2.813361168E0,1.210708427E1
1.394570802E0,-1.164766216E1,-2.356332064E0,1.189890862E1
1.414841740E0,-1.195633698E1,-2.222334146E0,1.175055408E1
1.435112625E0,-1.216690540E1,-2.306082726E0,1.120439243E1
1.455383302E0,-1.250249863E1,-1.314856052E0,1.040518951E1
1.475654344E0,-9.543174744E0,-5.413761139E-1,9.765707016E0
1.496062313E0,-4.845465660E0,1.435693540E-2,8.965906143E0
1.516344761E0,-4.249652863E0,-1.511067510E0,8.985049248E0
1.536458354E0,-6.655636311E0,-1.683350682E0,6.342176437E0
1.556868198E0,-6.222535133E0,-1.819741607E0,3.138785124E0
1.577152000E0,-6.399604321E0,-3.503092289E0,3.674777269E0
1.597265542E0,-9.196215630E0,-4.412963390E0,4.129413605E0
1.617668615E0,-1.074497032E1,-4.867599487E0,4.211367965E-1
1.637810281E0,-9.634101868E0,-5.968895912E0,-1.932204247E0
1.658212729E0,-5.516054630E0,-9.383454323E0,-1.826920033E0
1.678356323E0,-6.428318024E0,-8.085348129E0,1.034297585E0
1.698628771E0,-8.231309891E0,-4.867599487E0,3.540779352E0
1.718900802E0,-7.809575081E0,-5.691328526E0,3.686741590E0
1.739171636E0,-8.853444099E0,-4.965705395E0,3.452244759E0
1.759572625E0,-1.015155029E1,-3.826123476E0,2.183450699E0
1.779715229E0,-1.062293625E1,-5.645864964E0,8.087740541E-1
1.799986115E0,-1.113500023E1,-6.169893265E0,-2.901297510E-1
1.820386740E0,-1.140598774E1,-4.453640938E0,7.657032609E-1
1.840528563E0,-1.006241703E1,-3.747160196E0,1.266401410E0
1.860929083E0,-8.719446182E0,-1.948953986E0,2.140379906E0
1.881071375E0,-9.859027863E0,1.658824325E0,1.991426587E0
1.901342677E0,-1.068036366E1,1.596610904E0,1.668395638E0
1.921613823E0,-1.034536839E1,2.621337175E0,1.443470240E0
1.941884708E0,-9.892526627E0,2.518445730E0,1.687538147E0
1.962156792E0,-1.009352398E1,1.969891191E0,1.948355794E0
1.982427677E0,-9.492925644E0,2.286342144E0,2.118844509E0
2.002698615E0,-7.878966808E0,2.161915302E0,1.756929994E0
2.022969604E0,-5.889334679E0,9.092725813E-2,-2.470589429E-1
2.043240594E0,-6.098108292E0,-4.118047714E0,-3.116651475E-1
2.063511531E0,-7.512865067E0,-1.379462242E0,-1.841277003E0
2.083911531E0,-8.915657043E0,-1.444068432E0,-5.796613097E-1
2.104053458E0,-7.524828911E0,-9.960124493E-1,-8.548358679E-1
2.124324448E0,-8.396414757E0,-4.115654945E0,-3.571287692E-1
2.144595438E0,-6.971488953E0,-5.992824078E0,-1.410568953E0
2.164866427E0,-7.455437183E0,-5.799005508E0,-6.777670383E-1
2.185137365E0,-7.809575081E0,-5.030311584E0,6.005984545E-1
2.205408354E0,-6.792026997E0,-4.726422787E0,6.317051649E-1
2.225679344E0,-6.535995007E0,-7.688138962E0,-1.537388563E-1
2.245950281E0,-8.190631866E0,-1.172961617E1,-1.010369420E0
2.266350281E0,-1.237328625E1,-1.432463264E1,2.392822690E-2
2.286610750E0,-1.209990597E1,-1.185404301E1,-2.350948304E-1
2.306921167E0,-8.884550095E0,-7.716853142E0,-1.499103427E0
2.327192313E0,-5.597410202E0,-7.733603001E0,-1.738385677E0
2.347463406E0,-6.801598549E0,-9.052646637E0,-7.734799385E-1
2.367734396E0,-5.559125423E0,-7.163512707E0,-4.839483798E-1
2.387848094E0,-3.905086517E0,-6.787839413E0,-1.317248821E0
2.408118927E0,-4.646861553E0,-8.492725372E0,-1.271785259E0
2.428389813E0,-5.142774105E0,-9.141180992E0,-1.082752228E0
2.448789813E0,-4.096512318E0,-8.363512993E0,-5.700899959E-1
2.468931740E0,-4.467400074E0,-7.201797962E0,-6.011967063E-1
2.489202343E0,-5.472983360E0,-7.484749317E0,-9.792626500E-1
2.509473229E0,-5.731408596E0,-6.328417778E0,-1.058824062E0
2.529744270E0,-5.068596363E0,-9.503094673E0,-2.858824968E0
2.550144270E0,-4.108476639E0,-1.317787266E1,5.647061467E-1
2.570286249E0,9.571290575E-3,-8.832506180E0,1.124626622E-1
2.590557291E0,-3.882952929E0,-7.802994728E0,2.392822644E-3
2.610828281E0,-3.354139090E0,-8.190631866E0,-1.185643673E0
2.631099270E0,-4.438685894E0,-4.750350952E0,-7.136593461E-1
2.651499270E0,-4.661218643E0,-3.976871252E0,-2.227119684E0
2.671641302E0,-4.027120590E0,-9.299106598E0,-6.346961856E-1
2.691912343E0,-3.473780155E0,-9.931410789E0,-6.969096065E-1
2.712183333E0,-3.239283562E0,-8.075776100E0,-3.786641955E-1
2.732454374E0,-3.972085476E0,-1.002712345E1,-1.094716311E0
2.752854374E0,-4.347758770E0,-1.012522888E1,-7.519445419E-1
2.772996406E0,-3.677170277E0,-8.140382767E0,2.871387079E-2
2.793267499E0,-2.350948334E0,-6.517450809E0,-1.728814393E-1
2.813667499E0,-8.380861282E-1,-6.316453457E0,-1.652244091E0
2.833967499E0,-9.409775138E-1,-6.428916454E0,-2.015953064E0
2.854238645E0,-1.929811478E0,-7.225726128E0,-1.494317770E0
2.874352343E0,-1.896311998E0,-8.717651367E0,-1.233500123E0
2.894623229E0,-1.350150228E0,-9.346963882E0,-9.409775138E-1
2.914894166E0,-7.561319470E-1,-1.039083195E1,-3.014358282E0
2.935165104E0,-5.048855543E-1,-1.273280716E1,-3.014358282E0
2.955426197E0,-7.106683254E-1,-1.733659744E1,9.092725813E-2
2.975703593E0,-8.596215248E-1,-1.739641953E1,-1.221535921E0
2.995975260E0,-5.173880577E0,-1.155015469E1,-1.506281853E0
3.016254791E0,-1.718644857E0,-1.059721375E1,-2.042274237E0
3.036611354E0,1.860419631E0,-8.679366112E0,-2.015953064E0
3.056958802E0,2.271985054E0,-8.576474190E0,-1.434497118E0
3.077212239E0,6.801598072E-1,-1.023529911E1,-2.401795626E0
3.097327552E0,4.360919297E-1,-9.802198410E0,-2.674577475E0
3.117599687E0,1.601994753E0,-9.059824944E0,-2.179263115E0
3.137870624E0,1.963310957E0,-8.856434822E0,-1.968096614E0
3.158271614E0,1.786242127E0,-8.569295883E0,-2.140978098E0
3.178413697E0,1.841277003E0,-8.547760963E0,-2.519043922E0
3.198814479E0,1.740778446E0,-1.094417286E1,-2.617149830E0
3.218957187E0,1.072582722E0,-1.098963642E1,-2.502294302E0
3.239228229E0,4.935196638E-1,-7.479963779E0,-2.365903378E0
3.259636666E0,3.165106058E0,-1.151426220E1,-3.404986620E0
3.279919791E0,3.689732552E0,-1.146401310E1,-2.483151674E0
3.300035729E0,2.349153519E0,-1.071446133E1,-1.635494232E0
3.320308437E0,3.479164124E0,-1.133898830E1,-1.048654556E0
3.340579322E0,2.894717216E0,-1.013719273E1,-1.975275040E0
3.360980729E0,1.386640668E0,-6.326025009E0,-1.886740685E0
3.381123906E0,3.762713671E-1,-7.381857872E0,-1.932204247E0
3.401395833E0,1.052841991E-1,-9.658628464E0,-2.643470764E0
3.421667499E0,3.020938635E-1,-9.471988678E0,-3.011965513E0
3.441938541E0,4.408775866E-1,-9.184251785E0,-2.466402054E0
3.462212447E0,6.442674994E-1,-9.246464729E0,-1.848455548E0
3.482483541E0,2.249253243E-1,-9.493523598E0,-1.781456470E0
3.502754531E0,1.339980662E-1,-9.864411354E0,-2.112264156E0
3.523025624E0,1.118046403E0,-9.797411919E0,-2.042274237E0
3.543296614E0,1.532602906E0,-9.847661972E0,-1.834098577E0
3.563696614E0,1.745564103E0,-9.775876999E0,-1.661815286E0
3.583838749E0,1.463211060E0,-9.586843491E0,-1.671386600E0
3.604109843E0,1.302891970E0,-9.670592308E0,-1.881955028E0
3.624380885E0,1.300499082E0,-9.613164902E0,-2.176870346E0
3.644780885E0,1.235294700E0,-9.543772697E0,-2.155334949E0
3.664923020E0,1.122832060E0,-9.486345291E0,-2.131406784E0
3.685194114E0,1.168295622E0,-9.536594391E0,-2.093121529E0
3.705465156E0,1.230509043E0,-9.675378799E0,-1.956132531E0
3.725865156E0,1.163509965E0,-9.749555588E0,-1.841277003E0
3.746007291E0,8.835497499E-1,-9.716055870E0,-1.831705689E0
3.766278385E0,4.600201547E-1,-9.613164902E0,-1.929811478E0
3.786678385E0,2.877369225E-1,-9.517452240E0,-2.087737799E0
3.806978437E0,4.384847581E-1,-9.303893089E0,-2.082952023E0
3.827052864E0,6.993024349E-1,-9.402596474E0,-2.039881229E0
3.847452864E0,9.864411354E-1,-9.577272415E0,-2.167299032E0
3.867634270E0,1.240080357E0,-9.536594391E0,-2.306082726E0
3.887905208E0,1.410568953E0,-9.409774780E0,-2.231905222E0
3.908176145E0,1.496710539E0,-9.517452240E0,-2.027917147E0
3.928447135E0,1.537388563E0,-9.668199539E0,-1.836491346E0
3.948847135E0,1.506281853E0,-9.728020668E0,-1.764706731E0
3.968989166E0,1.393819213E0,-9.706484795E0,-1.786242127E0
3.989260208E0,1.232901812E0,-9.665806770E0,-1.865205288E0
4.009531197E0,1.101296663E0,-9.594022751E0,-1.960918188E0
4.029802291E0,1.015154958E0,-9.553344727E0,-2.049452543E0
4.050202291E0,9.553344250E-1,-9.570094109E0,-2.049452543E0
4.070344374E0,9.146564603E-1,-9.582057953E0,-2.003988981E0
4.090615416E0,8.620143533E-1,-9.577272415E0,-1.925025821E0
4.110886510E0,8.213363886E-1,-9.622735977E0,-1.836491346E0
4.131157499E0,8.476574421E-1,-9.637093544E0,-1.793420553E0
4.151557499E0,9.170492887E-1,-9.639486313E0,-1.762313843E0
4.171857552E0,9.505487680E-1,-9.653842926E0,-1.791027784E0
4.191971249E0,9.649057388E-1,-9.634700775E0,-1.812563181E0
4.212242239E0,9.529415965E-1,-9.637093544E0,-1.812563181E0
4.232513124E0,9.696913958E-1,-9.603593826E0,-1.781456470E0
4.252913124E0,9.577272534E-1,-9.594022751E0,-1.771885157E0
4.273055208E0,9.816554785E-1,-9.622735977E0,-1.779063582E0
4.293326145E0,1.010369420E0,-9.603593826E0,-1.805384636E0
4.313597135E0,9.888339639E-1,-9.608379364E0,-1.802991867E0
4.333868124E0,9.481559992E-1,-9.622735977E0,-1.774278045E0
4.354268124E0,9.457631707E-1,-9.637093544E0,-1.752742529E0
4.374410208E0,8.979067206E-1,-9.677771568E0,-1.750349760E0
4.394681302E0,9.218349457E-1,-9.677771568E0,-1.757528186E0
4.414952291E0,9.768698215E-1,-9.620343208E0,-1.793420553E0
4.435223333E0,1.053440213E0,-9.629914284E0,-1.853241086E0
4.455492499E0,1.091725349E0,-9.610772133E0,-1.855633974E0
4.475764739E0,1.106082320E0,-9.625128746E0,-1.862812400E0
4.496035885E0,1.067797065E0,-9.610772133E0,-1.901097536E0
4.516306927E0,1.058225870E0,-9.527023315E0,-1.989632010E0
4.536704791E0,1.161117196E0,-9.536594391E0,-2.070987940E0
4.557013489E0,1.223330617E0,-9.601201057E0,-2.070987940E0
4.577267708E0,1.247258782E0,-9.594022751E0,-2.059023857E0
4.597381406E0,1.228116274E0,-9.558130264E0,-1.996810555E0
4.617783593E0,1.173081279E0,-9.531808853E0,-2.001596212E0
4.637925520E0,1.189831018E0,-9.541379929E0,-1.913061738E0
4.658327239E0,1.199402332E0,-9.582057953E0,-1.922633052E0
4.678470572E0,1.218544960E0,-9.639486313E0,-1.987239242E0
4.698742604E0,1.216152072E0,-9.620343208E0,-2.023131609E0
4.719014479E0,1.187438250E0,-9.562915802E0,-2.013560295E0
4.739285416E0,1.204187989E0,-9.594022751E0,-1.977667928E0
4.759686145E0,1.244866014E0,-9.579665184E0,-1.917847395E0
4.779828697E0,1.319641709E0,-9.594022751E0,-1.905883193E0
4.800100208E0,1.331605792E0,-9.668199539E0,-1.855633974E0
4.820371614E0,1.275972724E0,-9.682557106E0,-1.817348838E0
4.840642552E0,1.173081279E0,-9.663414001E0,-1.829312921E0
4.861050781E0,1.012762189E0,-9.632308006E0,-1.960918188E0
4.881333697E0,8.907282352E-1,-9.570094109E0,-2.044667006E0
4.901449427E0,8.596215248E-1,-9.541379929E0,-2.073380709E0
4.921721979E0,9.625129104E-1,-9.541379929E0,-2.056631088E0
4.941992864E0,1.089332461E0,-9.550951958E0,-2.011167526E0
4.962392864E0,1.218544960E0,-9.546165466E0,-1.989632010E0
4.982541302E0,1.287936807E0,-9.570094109E0,-1.972882271E0
5.002812343E0,1.275972724E0,-9.601201057E0,-1.977667928E0
5.023083281E0,1.216152072E0,-9.603593826E0,-1.994417667E0
5.043354270E0,1.218544960E0,-9.577272415E0,-1.992024899E0
5.063625260E0,1.268794179E0,-9.541379929E0,-1.982453585E0
5.083896249E0,1.310070395E0,-9.574879646E0,-2.047059774E0
5.104167239E0,1.290329576E0,-9.558130264E0,-2.054238319E0
5.124438229E0,1.273579836E0,-9.548559189E0,-2.047059774E0
5.144709218E0,1.247258782E0,-9.582057953E0,-2.025524378E0
5.164980156E0,1.225723386E0,-9.620343208E0,-2.015953064E0
5.185251145E0,1.156331539E0,-9.661021233E0,-1.994417667E0
5.205522187E0,1.091725349E0,-9.646664619E0,-1.994417667E0
5.225793177E0,1.072582722E0,-9.596415520E0,-1.989632010E0
5.246064166E0,1.115653515E0,-9.493523598E0,-2.023131609E0
5.266335156E0,1.175474167E0,-9.507881165E0,-2.075773716E0
5.286735156E0,1.220937729E0,-9.586843491E0,-2.102692842E0
5.307035052E0,1.225723386E0,-9.589237213E0,-2.078166485E0
5.327148697E0,1.161117196E0,-9.560523033E0,-2.020738840E0
5.347548697E0,1.118046403E0,-9.553344727E0,-2.020738840E0
5.367690572E0,1.098903775E0,-9.553344727E0,-2.047059774E0
5.387961458E0,1.137188911E0,-9.596415520E0,-2.044667006E0
5.408361458E0,1.144367456E0,-9.594022751E0,-2.018345833E0
5.428503333E0,1.130010486E0,-9.598808289E0,-2.011167526E0
5.448903333E0,1.084546804E0,-9.574879646E0,-2.018345833E0
5.469045260E0,1.079761267E0,-9.574879646E0,-2.020738840E0
5.489316145E0,1.118046403E0,-9.579665184E0,-2.023131609E0
5.509587083E0,1.149153113E0,-9.574879646E0,-2.018345833E0
5.529858072E0,1.130010486E0,-9.541379929E0,-2.030309916E0
5.550258072E0,1.089332461E0,-9.562915802E0,-1.984846354E0
5.570399999E0,1.067797065E0,-9.596415520E0,-1.934597135E0
5.590670937E0,1.091725349E0,-9.586843491E0,-1.908276081E0
5.610941927E0,1.108475089E0,-9.613164902E0,-1.903490424E0
5.631212864E0,1.077368379E0,-9.610772133E0,-1.915454507E0
5.651612864E0,1.070189953E0,-9.594022751E0,-1.939382792E0
5.671754739E0,1.048654556E0,-9.584450722E0,-1.901097536E0
5.692025729E0,1.005583763E0,-9.632308006E0,-1.915454507E0
5.712296666E0,9.529415965E-1,-9.605986595E0,-1.934597135E0
5.732567604E0,9.337990284E-1,-9.560523033E0,-1.910668850E0
5.752967604E0,9.553344250E-1,-9.574879646E0,-1.925025821E0
5.773109531E0,9.912267923E-1,-9.608379364E0,-1.946561217E0
5.793380468E0,9.744769931E-1,-9.622735977E0,-1.946561217E0
5.813651458E0,9.888339639E-1,-9.596415520E0,-1.872383714E0
5.833922395E0,1.029511929E0,-9.574879646E0,-1.948953986E0
5.854322395E0,1.027119160E0,-9.620343208E0,-1.922633052E0
5.874464270E0,1.015154958E0,-9.584450722E0,-1.917847395E0
5.894735260E0,1.120439172E0,-9.582057953E0,-1.786242127E0
5.915006197E0,1.360319614E0,-9.546165466E0,-1.582852125E0
5.935277083E0,1.324427366E0,-9.565308571E0,-1.776670814E0
5.955547864E0,5.198407173E-1,-9.902696609E0,-2.117049932E0
5.975818958E0,5.653043389E-1,-9.517452240E0,-2.107478619E0
5.996089947E0,1.165902853E0,-9.550951958E0,-1.905883193E0
6.016360833E0,1.165902853E0,-9.617950439E0,-2.015953064E0
6.036758489E0,1.077368379E0,-9.613164902E0,-1.877169371E0
6.057043541E0,9.290133715E-1,-9.594022751E0,-1.805384636E0
6.077089895E0,9.050851464E-1,-9.610772133E0,-1.846062660E0
6.097440312E0,9.696913958E-1,-9.610772133E0,-1.867598057E0
6.117712083E0,1.019940615E0,-9.617950439E0,-1.846062660E0
6.137982968E0,1.034297585E0,-9.617950439E0,-1.881955028E0
6.158383697E0,9.553344250E-1,-9.605986595E0,-1.915454507E0
6.178526041E0,8.859425783E-1,-9.608379364E0,-1.929811478E0
6.198797447E0,9.266205430E-1,-9.620343208E0,-1.925025821E0
6.219068749E0,1.000798106E0,-9.622735977E0,-1.910668850E0
6.239339635E0,1.046261668E0,-9.598808289E0,-1.853241086E0
6.259739947E0,1.120439172E0,-9.601201057E0,-1.848455548E0
6.279881927E0,1.118046403E0,-9.634700775E0,-1.934597135E0
6.300152864E0,1.029511929E0,-9.620343208E0,-1.915454507E0
6.320553072E0,9.768698215E-1,-9.613164902E0,-1.922633052E0
6.340694843E0,9.816554785E-1,-9.622735977E0,-1.936989903E0
6.361094999E0,1.039083242E0,-9.591629982E0,-1.901097536E0
6.381236874E0,1.106082320E0,-9.603593826E0,-1.922633052E0
6.401507864E0,1.130010486E0,-9.608379364E0,-1.922633052E0
6.421778906E0,1.137188911E0,-9.601201057E0,-1.965703845E0
6.442049791E0,1.197009563E0,-9.586843491E0,-1.975275040E0
6.462320937E0,1.228116274E0,-9.562915802E0,-1.977667928E0
6.482591874E0,1.206580877E0,-9.574879646E0,-1.956132531E0
6.502862760E0,1.199402332E0,-9.567701340E0,-1.936989903E0
6.523133645E0,1.189831018E0,-9.565308571E0,-1.939382792E0
6.543404531E0,1.165902853E0,-9.579665184E0,-1.970489502E0
6.563804531E0,1.137188911E0,-9.605986595E0,-1.963310957E0
6.583946249E0,1.101296663E0,-9.605986595E0,-1.936989903E0
6.604217135E0,1.058225870E0,-9.603593826E0,-1.901097536E0
6.624488020E0,1.031904817E0,-9.634700775E0,-1.889133453E0
6.644758906E0,9.912267923E-1,-9.613164902E0,-1.869990945E0
6.665029791E0,1.082154036E0,-9.663414001E0,-1.877169371E0
6.685300677E0,9.409775138E-1,-9.598808289E0,-1.948953986E0
6.705571458E0,9.649057388E-1,-9.613164902E0,-1.920240164E0
6.725842395E0,9.816554785E-1,-9.584450722E0,-1.975275040E0
6.746113281E0,1.000798106E0,-9.596415520E0,-1.929811478E0
6.766513281E0,1.046261668E0,-9.596415520E0,-1.913061738E0
6.786812916E0,1.082154036E0,-9.596415520E0,-1.941775560E0
6.807083854E0,1.115653515E0,-9.591629982E0,-1.929811478E0
6.827197395E0,1.103689432E0,-9.582057953E0,-1.927418590E0
6.847597395E0,1.091725349E0,-9.601201057E0,-1.927418590E0
6.867896822E0,1.063011408E0,-9.584450722E0,-1.922633052E0
6.888010312E0,1.053440213E0,-9.594022751E0,-1.901097536E0
6.908280989E0,1.036690354E0,-9.613164902E0,-1.905883193E0
6.928551614E0,1.036690354E0,-9.632308006E0,-1.877169371E0
6.948951614E0,1.036690354E0,-9.629914284E0,-1.860419631E0
6.969093177E0,1.074975610E0,-9.603593826E0,-1.860419631E0
6.989363906E0,1.110867858E0,-9.598808289E0,-1.877169371E0
7.009634635E0,1.175474167E0,-9.617950439E0,-1.867598057E0
7.029905468E0,1.187438250E0,-9.610772133E0,-1.879562140E0
7.050305468E0,1.161117196E0,-9.613164902E0,-1.910668850E0
7.070447031E0,1.106082320E0,-9.617950439E0,-1.917847395E0
7.090717812E0,1.043868899E0,-9.610772133E0,-1.917847395E0
7.110988645E0,9.936196208E-1,-9.608379364E0,-1.920240164E0
7.131259479E0,9.912267923E-1,-9.582057953E0,-1.881955028E0
7.151659479E0,9.696913958E-1,-9.601201057E0,-1.831705689E0
7.171801093E0,9.577272534E-1,-9.651450157E0,-1.834098577E0
7.192071874E0,9.816554785E-1,-9.663414001E0,-1.872383714E0
7.212342708E0,1.012762189E0,-9.634700775E0,-1.925025821E0
7.232613541E0,1.053440213E0,-9.603593826E0,-1.980060697E0
7.253013541E0,1.000798106E0,-9.613164902E0,-1.958525300E0
7.273155104E0,9.290133715E-1,-9.589237213E0,-1.858026743E0
7.293425937E0,9.720842242E-1,-9.589237213E0,-1.927418590E0
7.313696770E0,9.864411354E-1,-9.608379364E0,-1.891526341E0
7.333967552E0,1.015154958E0,-9.617950439E0,-1.812563181E0
7.354367552E0,1.055832982E0,-9.637093544E0,-1.853241086E0
7.374509166E0,1.106082320E0,-9.658628464E0,-1.843669891E0
7.394779999E0,1.153938770E0,-9.591629982E0,-1.829312921E0
7.415050781E0,1.156331539E0,-9.536594391E0,-1.913061738E0
7.435321614E0,1.199402332E0,-9.503094673E0,-2.047059774E0
7.455592187E0,1.175474167E0,-9.486345291E0,-2.075773716E0
7.475863124E0,1.118046403E0,-9.538987160E0,-2.051845312E0
7.496133906E0,1.034297585E0,-9.591629982E0,-1.982453585E0
7.516404739E0,9.194421172E-1,-9.615557671E0,-1.917847395E0
7.536812656E0,8.428717852E-1,-9.632308006E0,-1.881955028E0
7.557091041E0,7.902296782E-1,-9.613164902E0,-1.881955028E0
7.577171822E0,7.806583643E-1,-9.637093544E0,-1.917847395E0
7.597481718E0,8.165507317E-1,-9.632308006E0,-1.901097536E0
7.617883020E0,8.237292171E-1,-9.632308006E0,-1.898704767E0
7.638024479E0,8.620143533E-1,-9.675378799E0,-1.877169371E0
7.658425572E0,9.098708034E-1,-9.682557106E0,-1.853241086E0
7.678567916E0,1.005583763E0,-9.651450157E0,-1.817348838E0
7.698839270E0,1.089332461E0,-9.610772133E0,-1.834098577E0
7.719110572E0,1.151545882E0,-9.596415520E0,-1.867598057E0
7.739381354E0,1.177866936E0,-9.586843491E0,-1.886740685E0
7.759789739E0,1.242473125E0,-9.589237213E0,-1.910668850E0
7.780072239E0,1.266401410E0,-9.560523033E0,-1.948953986E0
7.800187760E0,1.211366415E0,-9.586843491E0,-1.939382792E0
7.820460156E0,1.103689432E0,-9.594022751E0,-1.896311998E0
7.840730781E0,9.625129104E-1,-9.591629982E0,-1.855633974E0
7.861132187E0,8.907282352E-1,-9.579665184E0,-1.877169371E0
7.881274687E0,8.261220455E-1,-9.594022751E0,-1.884347796E0
7.901546302E0,7.663014531E-1,-9.627521515E0,-1.824527264E0
7.921817656E0,7.088736892E-1,-9.661021233E0,-1.791027784E0
7.942088437E0,7.136593461E-1,-9.663414001E0,-1.747956991E0
7.962361927E0,7.232306600E-1,-9.649057388E0,-1.788634896E0
7.982632656E0,7.830511928E-1,-9.646664619E0,-1.822134495E0
8.002903385E0,8.452646136E-1,-9.639486313E0,-1.831705689E0
8.023174114E0,8.811569214E-1,-9.653842926E0,-1.805384636E0
8.043444843E0,9.074779749E-1,-9.649057388E0,-1.795813441E0
8.063715572E0,9.314061999E-1,-9.627521515E0,-1.810170293E0
8.083986249E0,9.840483069E-1,-9.622735977E0,-1.834098577E0
8.104257031E0,1.029511929E0,-9.615557671E0,-1.867598057E0
8.124527760E0,1.079761267E0,-9.603593826E0,-1.915454507E0
8.144798489E0,1.149153113E0,-9.617950439E0,-1.929811478E0
8.165069218E0,1.201795220E0,-9.639486313E0,-1.896311998E0
8.185339947E0,1.180259824E0,-9.644271851E0,-1.884347796E0
8.205610677E0,1.096511006E0,-9.610772133E0,-1.862812400E0
8.226010677E0,9.768698215E-1,-9.584450722E0,-1.865205288E0
8.246152135E0,8.883354068E-1,-9.565308571E0,-1.898704767E0
8.266541614E0,8.787640929E-1,-9.572486877E0,-1.929811478E0
8.286851510E0,8.596215248E-1,-9.594022751E0,-1.867598057E0
8.307122291E0,8.500502706E-1,-9.644271851E0,-1.858026743E0
8.327235677E0,8.141579032E-1,-9.629914284E0,-1.824527264E0
8.347635677E0,8.356932998E-1,-9.622735977E0,-1.834098577E0
8.367777031E0,8.955138922E-1,-9.629914284E0,-1.838884234E0
8.388047552E0,9.936196208E-1,-9.622735977E0,-1.822134495E0
8.408318177E0,1.051047325E0,-9.613164902E0,-1.807777524E0
8.428588802E0,1.046261668E0,-9.651450157E0,-1.802991867E0
8.448988802E0,9.936196208E-1,-9.677771568E0,-1.791027784E0
8.469130208E0,9.290133715E-1,-9.644271851E0,-1.788634896E0
8.489400833E0,9.361918569E-1,-9.601201057E0,-1.826920033E0
8.509671510E0,9.577272534E-1,-9.620343208E0,-1.860419631E0
8.529942187E0,9.816554785E-1,-9.637093544E0,-1.826920033E0
8.550342187E0,1.017547846E0,-9.632308006E0,-1.819741607E0
8.570483593E0,1.048654556E0,-9.620343208E0,-1.834098577E0
8.590754218E0,1.077368379E0,-9.594022751E0,-1.884347796E0
8.611024895E0,1.074975610E0,-9.562915802E0,-1.934597135E0
8.631295624E0,1.074975610E0,-9.589237213E0,-1.920240164E0
8.651695624E0,1.084546804E0,-9.598808289E0,-1.874776483E0
8.671994895E0,1.089332461E0,-9.608379364E0,-1.838884234E0
8.692108229E0,1.041476011E0,-9.605986595E0,-1.831705689E0
8.712378802E0,1.003190875E0,-9.629914284E0,-1.802991867E0
8.732649374E0,9.672985673E-1,-9.627521515E0,-1.769492388E0
8.753049374E0,9.529415965E-1,-9.634700775E0,-1.795813441E0
8.773190624E0,9.361918569E-1,-9.651450157E0,-1.826920033E0
8.793461197E0,9.098708034E-1,-9.661021233E0,-1.793420553E0
8.813731822E0,9.098708034E-1,-9.649057388E0,-1.774278045E0
8.834002447E0,9.122636318E-1,-9.617950439E0,-1.800599098E0
8.854402447E0,9.002995491E-1,-9.596415520E0,-1.838884234E0
8.874543749E0,8.931210637E-1,-9.596415520E0,-1.872383714E0
8.894814427E0,9.314061999E-1,-9.615557671E0,-1.872383714E0
8.915085104E0,9.481559992E-1,-9.637093544E0,-1.850848317E0
8.935355729E0,9.768698215E-1,-9.634700775E0,-1.826920033E0
8.955624479E0,9.888339639E-1,-9.625128746E0,-1.810170293E0
8.975896354E0,1.017547846E0,-9.622735977E0,-1.826920033E0
8.996167135E0,1.017547846E0,-9.620343208E0,-1.860419631E0
9.016437760E0,1.029511929E0,-9.610772133E0,-1.869990945E0
9.036845833E0,1.031904817E0,-9.617950439E0,-1.858026743E0
9.057123958E0,1.039083242E0,-9.610772133E0,-1.865205288E0
9.077204739E0,1.029511929E0,-9.598808289E0,-1.874776483E0
9.097515781E0,1.053440213E0,-9.608379364E0,-1.898704767E0
9.117787499E0,1.063011408E0,-9.594022751E0,-1.893919110E0
9.138058020E0,1.041476011E0,-9.598808289E0,-1.903490424E0
9.158458906E0,1.003190875E0,-9.589237213E0,-1.879562140E0
9.178600885E0,9.577272534E-1,-9.589237213E0,-1.910668850E0
9.198872031E0,9.840483069E-1,-9.610772133E0,-1.889133453E0
9.219143072E0,1.029511929E0,-9.620343208E0,-1.908276081E0
9.239413697E0,1.072582722E0,-9.625128746E0,-1.898704767E0
9.259814062E0,1.089332461E0,-9.622735977E0,-1.915454507E0
9.279955677E0,1.089332461E0,-9.577272415E0,-1.905883193E0
9.300226458E0,1.098903775E0,-9.572486877E0,-1.896311998E0
9.320497239E0,1.113260746E0,-9.610772133E0,-1.867598057E0
9.340767968E0,1.070189953E0,-9.622735977E0,-1.834098577E0
9.361168124E0,1.007976532E0,-9.625128746E0,-1.838884234E0
9.381309479E0,9.864411354E-1,-9.649057388E0,-1.819741607E0
9.401580156E0,1.007976532E0,-9.646664619E0,-1.850848317E0
9.421850833E0,1.027119160E0,-9.656235695E0,-1.843669891E0
9.442121510E0,1.017547846E0,-9.649057388E0,-1.826920033E0
9.462521510E0,1.015154958E0,-9.634700775E0,-1.834098577E0
9.482663020E0,9.984052777E-1,-9.620343208E0,-1.865205288E0
9.502933645E0,1.012762189E0,-9.601201057E0,-1.905883193E0
9.523204270E0,1.055832982E0,-9.584450722E0,-1.951346874E0
9.543474895E0,1.086939692E0,-9.594022751E0,-1.953739643E0
9.563745520E0,1.086939692E0,-9.574879646E0,-1.944168448E0
9.584016145E0,1.072582722E0,-9.577272415E0,-1.936989903E0
9.604286770E0,1.041476011E0,-9.560523033E0,-1.925025821E0
9.624557395E0,9.792626500E-1,-9.572486877E0,-1.891526341E0
9.644828020E0,9.672985673E-1,-9.596415520E0,-1.905883193E0
9.665098593E0,9.649057388E-1,-9.608379364E0,-1.908276081E0
9.685369218E0,9.409775138E-1,-9.625128746E0,-1.869990945E0
9.705639843E0,9.266205430E-1,-9.620343208E0,-1.865205288E0
9.725910468E0,9.409775138E-1,-9.625128746E0,-1.858026743E0
9.746181093E0,1.005583763E0,-9.641879082E0,-1.874776483E0
9.766570468E0,1.053440213E0,-9.617950439E0,-1.872383714E0
9.786880260E0,1.077368379E0,-9.620343208E0,-1.858026743E0
9.807150937E0,1.084546804E0,-9.622735977E0,-1.867598057E0
9.827264218E0,1.036690354E0,-9.608379364E0,-1.891526341E0
9.847664218E0,1.027119160E0,-9.605986595E0,-1.905883193E0
9.867805364E0,1.051047325E0,-9.613164902E0,-1.915454507E0
9.888075781E0,1.084546804E0,-9.603593826E0,-1.901097536E0
9.908475781E0,1.096511006E0,-9.589237213E0,-1.917847395E0
9.928616927E0,1.089332461E0,-9.603593826E0,-1.917847395E0
9.949016927E0,1.070189953E0,-9.608379364E0,-1.920240164E0
9.969158072E0,1.053440213E0,-9.596415520E0,-1.889133453E0
9.989428645E0,1.029511929E0,-9.589237213E0,-1.881955028E0
1.000969922E1,1.022333503E0,-9.584450722E0,-1.896311998E0
1.002996979E1,9.816554785E-1,-9.598808289E0,-1.886740685E0
1.005036979E1,9.529415965E-1,-9.613164902E0,-1.858026743E0
1.007051099E1,9.409775138E-1,-9.610772133E0,-1.853241086E0
1.009078161E1,9.816554785E-1,-9.625128746E0,-1.855633974E0
1.011105219E1,1.003190875E0,-9.656235695E0,-1.853241086E0
1.013132276E1,9.960124493E-1,-9.632308006E0,-1.843669891E0
1.015172276E1,1.029511929E0,-9.591629982E0,-1.893919110E0
1.017186401E1,1.053440213E0,-9.567701340E0,-1.920240164E0
1.019213458E1,1.110867858E0,-9.560523033E0,-1.951346874E0
1.021240516E1,1.141974568E0,-9.577272415E0,-1.975275040E0
1.023267578E1,1.151545882E0,-9.598808289E0,-1.929811478E0
1.025307578E1,1.113260746E0,-9.586843491E0,-1.910668850E0
1.027321698E1,1.082154036E0,-9.608379364E0,-1.869990945E0
1.029348760E1,1.034297585E0,-9.639486313E0,-1.862812400E0
1.031375823E1,1.000798106E0,-9.653842926E0,-1.802991867E0
1.033402885E1,9.577272534E-1,-9.629914284E0,-1.819741607E0
1.035442885E1,8.955138922E-1,-9.617950439E0,-1.846062660E0
1.037457005E1,8.668000102E-1,-9.649057388E0,-1.879562140E0
1.039484068E1,9.002995491E-1,-9.646664619E0,-1.881955028E0
1.041511130E1,9.194421172E-1,-9.605986595E0,-1.884347796E0
1.043538187E1,9.433703423E-1,-9.589237213E0,-1.889133453E0
1.045565234E1,9.505487680E-1,-9.586843491E0,-1.889133453E0
1.047592307E1,9.314061999E-1,-9.610772133E0,-1.846062660E0
1.049619364E1,9.601200819E-1,-9.617950439E0,-1.846062660E0
1.051646432E1,9.840483069E-1,-9.617950439E0,-1.869990945E0
1.053687229E1,1.007976532E0,-9.613164902E0,-1.869990945E0
1.055715411E1,1.005583763E0,-9.601201057E0,-1.891526341E0
1.057726927E1,1.029511929E0,-9.620343208E0,-1.893919110E0
1.059753979E1,1.027119160E0,-9.632308006E0,-1.889133453E0
1.061794130E1,1.053440213E0,-9.649057388E0,-1.848455548E0
1.063808240E1,1.039083242E0,-9.634700775E0,-1.860419631E0
1.065848359E1,1.039083242E0,-9.620343208E0,-1.867598057E0
1.067862568E1,1.027119160E0,-9.613164902E0,-1.910668850E0
1.069889698E1,1.022333503E0,-9.622735977E0,-1.932204247E0
1.071916818E1,1.007976532E0,-9.617950439E0,-1.905883193E0
1.073943870E1,1.024726272E0,-9.610772133E0,-1.898704767E0
1.075983917E1,1.024726272E0,-9.610772133E0,-1.905883193E0
1.077998083E1,1.017547846E0,-9.603593826E0,-1.917847395E0
1.080025146E1,9.840483069E-1,-9.601201057E0,-1.905883193E0
1.082065177E1,9.960124493E-1,-9.582057953E0,-1.936989903E0
1.084079292E1,1.024726272E0,-9.586843491E0,-1.915454507E0
1.086119318E1,1.031904817E0,-9.594022751E0,-1.941775560E0
1.088133458E1,1.017547846E0,-9.584450722E0,-1.946561217E0
1.090160531E1,9.864411354E-1,-9.579665184E0,-1.898704767E0
1.092187609E1,9.888339639E-1,-9.584450722E0,-1.927418590E0
1.094214667E1,9.960124493E-1,-9.589237213E0,-1.929811478E0
1.096241771E1,1.065404296E0,-9.617950439E0,-1.901097536E0
1.098268839E1,1.137188911E0,-9.622735977E0,-1.877169371E0
1.100295901E1,1.127617717E0,-9.641879082E0,-1.860419631E0
1.102322958E1,1.077368379E0,-9.620343208E0,-1.898704767E0
1.104350021E1,1.029511929E0,-9.586843491E0,-1.896311998E0
1.106377083E1,1.010369420E0,-9.577272415E0,-1.913061738E0
1.108404141E1,1.036690354E0,-9.586843491E0,-1.915454507E0
1.110431203E1,1.007976532E0,-9.603593826E0,-1.898704767E0
1.112458266E1,1.005583763E0,-9.610772133E0,-1.908276081E0
1.114485323E1,1.012762189E0,-9.620343208E0,-1.872383714E0
1.116512385E1,1.039083242E0,-9.627521515E0,-1.865205288E0
1.118539443E1,1.077368379E0,-9.589237213E0,-1.881955028E0
1.120566500E1,1.118046403E0,-9.603593826E0,-1.936989903E0
1.122593568E1,1.151545882E0,-9.601201057E0,-1.939382792E0
1.124620625E1,1.158724308E0,-9.625128746E0,-1.939382792E0
1.126660625E1,1.118046403E0,-9.627521515E0,-1.922633052E0
1.128690542E1,1.070189953E0,-9.591629982E0,-1.896311998E0
1.130717615E1,1.039083242E0,-9.584450722E0,-1.898704767E0
1.132728937E1,1.041476011E0,-9.586843491E0,-1.917847395E0
1.134768937E1,1.036690354E0,-9.594022751E0,-1.941775560E0
1.136798833E1,1.015154958E0,-9.582057953E0,-1.951346874E0
1.138810156E1,9.553344250E-1,-9.596415520E0,-1.936989903E0
1.140837198E1,9.433703423E-1,-9.622735977E0,-1.884347796E0
1.142864240E1,9.433703423E-1,-9.622735977E0,-1.862812400E0
1.144904240E1,9.840483069E-1,-9.644271851E0,-1.843669891E0
1.146918349E1,1.019940615E0,-9.649057388E0,-1.843669891E0
1.148945396E1,1.046261668E0,-9.637093544E0,-1.865205288E0
1.150972448E1,1.051047325E0,-9.622735977E0,-1.879562140E0
1.152999505E1,1.051047325E0,-9.586843491E0,-1.884347796E0
1.155039505E1,1.074975610E0,-9.582057953E0,-1.929811478E0
1.157053620E1,1.048654556E0,-9.596415520E0,-1.936989903E0
1.159080677E1,1.051047325E0,-9.608379364E0,-1.946561217E0
1.161107729E1,1.051047325E0,-9.596415520E0,-1.929811478E0
1.163134792E1,1.029511929E0,-9.601201057E0,-1.881955028E0
1.165174792E1,1.005583763E0,-9.610772133E0,-1.860419631E0
1.167188911E1,9.625129104E-1,-9.603593826E0,-1.858026743E0
1.169215969E1,9.649057388E-1,-9.615557671E0,-1.867598057E0
1.171243026E1,9.649057388E-1,-9.613164902E0,-1.891526341E0
1.173270088E1,1.007976532E0,-9.605986595E0,-1.891526341E0
1.175310088E1,1.024726272E0,-9.625128746E0,-1.913061738E0
1.177324208E1,1.048654556E0,-9.613164902E0,-1.905883193E0
1.179351266E1,1.070189953E0,-9.608379364E0,-1.915454507E0
1.181378323E1,1.060618639E0,-9.584450722E0,-1.915454507E0
1.183405385E1,1.031904817E0,-9.596415520E0,-1.925025821E0
1.185445385E1,1.036690354E0,-9.589237213E0,-1.915454507E0
1.187459505E1,1.015154958E0,-9.574879646E0,-1.898704767E0
1.189486568E1,1.017547846E0,-9.577272415E0,-1.893919110E0
1.191513630E1,1.005583763E0,-9.582057953E0,-1.932204247E0
1.193540687E1,1.000798106E0,-9.598808289E0,-1.927418590E0
1.195567724E1,1.046261668E0,-9.584450722E0,-1.901097536E0
1.197594802E1,1.065404296E0,-9.615557671E0,-1.872383714E0
1.199622260E1,1.043868899E0,-9.625128746E0,-1.855633974E0
1.201653255E1,1.000798106E0,-9.634700775E0,-1.853241086E0
1.203692714E1,9.912267923E-1,-9.622735977E0,-1.874776483E0
1.205717995E1,9.888339639E-1,-9.634700775E0,-1.913061738E0
1.207729495E1,1.003190875E0,-9.601201057E0,-1.910668850E0
1.209756677E1,1.015154958E0,-9.608379364E0,-1.925025821E0
1.211783833E1,1.005583763E0,-9.613164902E0,-1.936989903E0
1.213810891E1,9.744769931E-1,-9.605986595E0,-1.925025821E0
1.215850974E1,9.625129104E-1,-9.577272415E0,-1.901097536E0
1.217865161E1,1.005583763E0,-9.565308571E0,-1.893919110E0
1.219892271E1,1.036690354E0,-9.579665184E0,-1.929811478E0
1.221919375E1,1.051047325E0,-9.605986595E0,-1.896311998E0
1.223946437E1,1.027119160E0,-9.594022751E0,-1.867598057E0
1.225987266E1,1.015154958E0,-9.615557671E0,-1.867598057E0
1.228015479E1,1.027119160E0,-9.637093544E0,-1.910668850E0
1.230027016E1,1.041476011E0,-9.637093544E0,-1.929811478E0
1.232054229E1,1.096511006E0,-9.646664619E0,-1.905883193E0
1.234081276E1,1.084546804E0,-9.627521515E0,-1.869990945E0
1.236121411E1,1.034297585E0,-9.634700775E0,-1.867598057E0
1.238135630E1,1.041476011E0,-9.610772133E0,-1.877169371E0
1.240162771E1,1.051047325E0,-9.579665184E0,-1.922633052E0
1.242189896E1,1.074975610E0,-9.589237213E0,-1.927418590E0
1.244216953E1,1.063011408E0,-9.598808289E0,-1.946561217E0
1.246244286E1,1.065404296E0,-9.591629982E0,-1.944168448E0
1.248271349E1,1.046261668E0,-9.596415520E0,-1.934597135E0
1.250298406E1,1.060618639E0,-9.584450722E0,-1.936989903E0
1.252325464E1,1.070189953E0,-9.589237213E0,-1.929811478E0
1.254352526E1,1.101296663E0,-9.608379364E0,-1.951346874E0
1.256379589E1,1.098903775E0,-9.584450722E0,-1.965703845E0
1.258406651E1,1.125224829E0,-9.567701340E0,-1.963310957E0
1.260433708E1,1.094118118E0,-9.589237213E0,-1.987239242E0
1.262460766E1,1.089332461E0,-9.601201057E0,-1.970489502E0
1.264487828E1,1.079761267E0,-9.591629982E0,-1.963310957E0
1.266514885E1,1.082154036E0,-9.591629982E0,-1.929811478E0
1.268541953E1,1.089332461E0,-9.586843491E0,-1.936989903E0
1.270569016E1,1.072582722E0,-9.586843491E0,-1.929811478E0
1.272609016E1,1.072582722E0,-9.615557671E0,-1.932204247E0
1.274623135E1,1.046261668E0,-9.615557671E0,-1.948953986E0
1.276663135E1,1.058225870E0,-9.620343208E0,-1.960918188E0
1.278693052E1,1.043868899E0,-9.598808289E0,-1.927418590E0
1.280696526E1,1.063011408E0,-9.603593826E0,-1.915454507E0
1.282731422E1,1.051047325E0,-9.594022751E0,-1.925025821E0
1.284771422E1,1.067797065E0,-9.572486877E0,-1.901097536E0
1.286785531E1,1.072582722E0,-9.596415520E0,-1.932204247E0
1.288812589E1,1.079761267E0,-9.605986595E0,-1.941775560E0
1.290839646E1,1.039083242E0,-9.594022751E0,-1.965703845E0
1.292866703E1,9.864411354E-1,-9.572486877E0,-1.948953986E0
1.294906703E1,9.912267923E-1,-9.586843491E0,-1.929811478E0
1.296920823E1,1.017547846E0,-9.637093544E0,-1.903490424E0
1.298947885E1,1.053440213E0,-9.637093544E0,-1.903490424E0
1.300974943E1,1.046261668E0,-9.622735977E0,-1.901097536E0
1.303002000E1,1.036690354E0,-9.622735977E0,-1.898704767E0
1.305042000E1,1.007976532E0,-9.598808289E0,-1.915454507E0
1.307056125E1,1.027119160E0,-9.596415520E0,-1.925025821E0
1.309083187E1,1.022333503E0,-9.591629982E0,-1.936989903E0
1.311110240E1,1.003190875E0,-9.598808289E0,-1.915454507E0
1.313137302E1,9.792626500E-1,-9.584450722E0,-1.948953986E0
1.315177302E1,9.912267923E-1,-9.601201057E0,-1.934597135E0
1.317207219E1,1.039083242E0,-9.601201057E0,-1.917847395E0
1.319218542E1,1.077368379E0,-9.601201057E0,-1.889133453E0
1.321245594E1,1.079761267E0,-9.617950439E0,-1.891526341E0
1.323272641E1,1.053440213E0,-9.629914284E0,-1.903490424E0
1.325312641E1,1.022333503E0,-9.620343208E0,-1.893919110E0
1.327326755E1,9.960124493E-1,-9.610772133E0,-1.903490424E0
1.329353807E1,1.015154958E0,-9.601201057E0,-1.929811478E0
1.331380864E1,1.058225870E0,-9.605986595E0,-1.922633052E0
1.333407911E1,1.084546804E0,-9.613164902E0,-1.922633052E0
1.335447911E1,1.091725349E0,-9.610772133E0,-1.905883193E0
1.337462036E1,1.079761267E0,-9.591629982E0,-1.915454507E0
1.339489099E1,1.051047325E0,-9.584450722E0,-1.913061738E0
1.341516161E1,1.003190875E0,-9.601201057E0,-1.884347796E0
1.343543214E1,9.625129104E-1,-9.608379364E0,-1.862812400E0
1.345570083E1,9.002995491E-1,-9.627521515E0,-1.872383714E0
1.347597266E1,8.715856671E-1,-9.594022751E0,-1.838884234E0
1.349624740E1,8.811569214E-1,-9.622735977E0,-1.860419631E0
1.351655729E1,9.002995491E-1,-9.637093544E0,-1.884347796E0
1.353695198E1,9.625129104E-1,-9.605986595E0,-1.908276081E0
1.355720479E1,1.034297585E0,-9.584450722E0,-1.934597135E0
1.357731979E1,1.091725349E0,-9.603593826E0,-1.925025821E0
1.359759031E1,1.086939692E0,-9.605986595E0,-1.920240164E0
1.361799172E1,1.060618639E0,-9.615557671E0,-1.901097536E0
1.363813276E1,1.031904817E0,-9.591629982E0,-1.884347796E0
1.365853391E1,1.017547846E0,-9.586843491E0,-1.886740685E0
1.367867594E1,1.055832982E0,-9.603593826E0,-1.917847395E0
1.369894719E1,1.074975610E0,-9.598808289E0,-1.934597135E0
1.371921833E1,1.051047325E0,-9.613164902E0,-1.917847395E0
1.373948885E1,1.036690354E0,-9.596415520E0,-1.922633052E0
1.375988927E1,1.024726272E0,-9.591629982E0,-1.939382792E0
1.378003083E1,1.041476011E0,-9.622735977E0,-1.939382792E0
1.380030172E1,1.024726272E0,-9.625128746E0,-1.869990945E0
1.382057255E1,9.912267923E-1,-9.639486313E0,-1.834098577E0
1.384084312E1,9.768698215E-1,-9.649057388E0,-1.831705689E0
1.386125125E1,9.601200819E-1,-9.634700775E0,-1.879562140E0
1.388153323E1,9.792626500E-1,-9.629914284E0,-1.920240164E0
1.390164844E1,1.000798106E0,-9.610772133E0,-1.908276081E0
1.392192047E1,1.024726272E0,-9.613164902E0,-1.934597135E0
1.394219094E1,1.065404296E0,-9.608379364E0,-1.920240164E0
1.396259094E1,1.067797065E0,-9.613164902E0,-1.920240164E0
1.398273839E1,1.060618639E0,-9.596415520E0,-1.886740685E0
1.400300891E1,1.072582722E0,-9.570094109E0,-1.884347796E0
1.402327943E1,1.089332461E0,-9.577272415E0,-1.948953986E0
1.404354995E1,1.089332461E0,-9.610772133E0,-1.960918188E0
1.406382052E1,1.096511006E0,-9.632308006E0,-1.956132531E0
1.408409109E1,1.072582722E0,-9.627521515E0,-1.893919110E0
1.410436167E1,1.022333503E0,-9.622735977E0,-1.865205288E0
1.412463219E1,9.960124493E-1,-9.608379364E0,-1.877169371E0
1.414503219E1,9.912267923E-1,-9.637093544E0,-1.903490424E0
1.416533125E1,9.984052777E-1,-9.608379364E0,-1.884347796E0
1.418544448E1,1.015154958E0,-9.615557671E0,-1.915454507E0
1.420571495E1,1.036690354E0,-9.610772133E0,-1.951346874E0
1.422598542E1,1.010369420E0,-9.617950439E0,-1.953739643E0
1.424625588E1,1.029511929E0,-9.574879646E0,-1.960918188E0
1.426665588E1,1.079761267E0,-9.591629982E0,-1.934597135E0
1.428695484E1,1.108475089E0,-9.596415520E0,-1.953739643E0
1.430722547E1,1.070189953E0,-9.582057953E0,-1.948953986E0
1.432733875E1,1.007976532E0,-9.601201057E0,-1.905883193E0
1.434773875E1,9.553344250E-1,-9.637093544E0,-1.853241086E0
1.436787969E1,9.314061999E-1,-9.672985077E0,-1.822134495E0
1.438815016E1,8.763712645E-1,-9.601201057E0,-1.834098577E0
1.440855016E1,9.026923180E-1,-9.582057953E0,-1.913061738E0
1.442869109E1,9.744769931E-1,-9.584450722E0,-1.960918188E0
1.444909109E1,1.101296663E0,-9.570094109E0,-1.946561217E0
1.446923214E1,1.122832060E0,-9.608379364E0,-1.922633052E0
1.448950266E1,1.070189953E0,-9.629914284E0,-1.908276081E0
1.450977312E1,1.027119160E0,-9.641879082E0,-1.824527264E0
1.453004365E1,9.888339639E-1,-9.641879082E0,-1.831705689E0
1.455044365E1,1.000798106E0,-9.639486313E0,-1.858026743E0
1.457058474E1,1.007976532E0,-9.668199539E0,-1.872383714E0
1.459085531E1,1.007976532E0,-9.663414001E0,-1.893919110E0
1.461112583E1,1.003190875E0,-9.608379364E0,-1.903490424E0
1.463139635E1,9.720842242E-1,-9.582057953E0,-1.901097536E0
1.465179635E1,9.553344250E-1,-9.570094109E0,-1.917847395E0
1.467193745E1,9.744769931E-1,-9.560523033E0,-1.908276081E0
1.469220802E1,1.027119160E0,-9.579665184E0,-1.905883193E0
1.471247854E1,1.022333503E0,-9.586843491E0,-1.869990945E0
1.473274906E1,9.649057388E-1,-9.625128746E0,-1.886740685E0
1.475314906E1,9.385846853E-1,-9.632308006E0,-1.889133453E0
1.477329016E1,9.672985673E-1,-9.651450157E0,-1.853241086E0
1.479356068E1,9.744769931E-1,-9.661021233E0,-1.812563181E0
1.481383125E1,9.936196208E-1,-9.656235695E0,-1.836491346E0
1.483410177E1,1.000798106E0,-9.651450157E0,-1.903490424E0
1.485450177E1,1.031904817E0,-9.627521515E0,-1.958525300E0
1.487464286E1,1.039083242E0,-9.589237213E0,-1.987239242E0
1.489491338E1,1.082154036E0,-9.553344727E0,-1.987239242E0
1.491518396E1,1.055832982E0,-9.589237213E0,-1.958525300E0
1.493545448E1,9.960124493E-1,-9.586843491E0,-1.901097536E0
1.495572484E1,9.385846853E-1,-9.570094109E0,-1.862812400E0
1.497599552E1,9.529415965E-1,-9.577272415E0,-1.872383714E0
1.499627401E1,1.015154958E0,-9.610772133E0,-1.893919110E0
1.501662958E1,1.027119160E0,-9.608379364E0,-1.860419631E0
1.503697614E1,1.019940615E0,-9.622735977E0,-1.879562140E0
1.505722885E1,9.960124493E-1,-9.627521515E0,-1.901097536E0
1.507734338E1,1.019940615E0,-9.658628464E0,-1.889133453E0
1.509761484E1,1.043868899E0,-9.627521515E0,-1.850848317E0
1.511788615E1,1.043868899E0,-9.622735977E0,-1.853241086E0
1.513815661E1,1.017547846E0,-9.598808289E0,-1.869990945E0
1.515855729E1,1.007976532E0,-9.610772133E0,-1.905883193E0
1.517869885E1,1.015154958E0,-9.601201057E0,-1.915454507E0
1.519896974E1,1.041476011E0,-9.586843491E0,-1.932204247E0
1.521924062E1,1.070189953E0,-9.598808289E0,-1.934597135E0
1.523951120E1,1.089332461E0,-9.608379364E0,-1.898704767E0
1.525991146E1,1.084546804E0,-9.601201057E0,-1.881955028E0
1.528005266E1,1.060618639E0,-9.589237213E0,-1.891526341E0
1.530032318E1,1.091725349E0,-9.579665184E0,-1.944168448E0
1.532072338E1,1.118046403E0,-9.596415520E0,-1.958525300E0
1.534086443E1,1.115653515E0,-9.620343208E0,-1.929811478E0
1.536126453E1,1.091725349E0,-9.627521515E0,-1.922633052E0
1.538140562E1,1.058225870E0,-9.622735977E0,-1.908276081E0
1.540167620E1,1.048654556E0,-9.613164902E0,-1.889133453E0
1.542194677E1,1.048654556E0,-9.605986595E0,-1.891526341E0
1.544221729E1,1.072582722E0,-9.637093544E0,-1.910668850E0
1.546248812E1,1.070189953E0,-9.596415520E0,-1.905883193E0
1.548275864E1,1.082154036E0,-9.560523033E0,-1.905883193E0
1.550302917E1,1.113260746E0,-9.565308571E0,-1.922633052E0
1.552329969E1,1.122832060E0,-9.574879646E0,-1.958525300E0
1.554357016E1,1.130010486E0,-9.598808289E0,-1.934597135E0
1.556384068E1,1.063011408E0,-9.582057953E0,-1.905883193E0
1.558411120E1,1.022333503E0,-9.613164902E0,-1.893919110E0
1.560438172E1,9.505487680E-1,-9.653842926E0,-1.905883193E0
1.562465219E1,8.644071817E-1,-9.649057388E0,-1.884347796E0
1.564492271E1,8.356932998E-1,-9.608379364E0,-1.836491346E0
1.566519323E1,8.739784956E-1,-9.598808289E0,-1.848455548E0
1.568546370E1,9.385846853E-1,-9.608379364E0,-1.889133453E0
1.570586370E1,9.553344250E-1,-9.613164902E0,-1.898704767E0
1.572600474E1,9.816554785E-1,-9.596415520E0,-1.867598057E0
1.574627521E1,1.012762189E0,-9.605986595E0,-1.877169371E0
1.576667521E1,1.055832982E0,-9.622735977E0,-1.889133453E0
1.578697411E1,1.084546804E0,-9.634700775E0,-1.893919110E0
1.580700875E1,1.077368379E0,-9.634700775E0,-1.908276081E0
1.582735755E1,1.063011408E0,-9.610772133E0,-1.925025821E0
1.584775755E1,1.074975610E0,-9.613164902E0,-1.939382792E0
1.586805635E1,1.101296663E0,-9.589237213E0,-1.939382792E0
1.588816953E1,1.120439172E0,-9.558130264E0,-1.934597135E0
1.590843984E1,1.132403374E0,-9.562915802E0,-1.939382792E0
1.592871026E1,1.101296663E0,-9.577272415E0,-1.915454507E0
1.594911026E1,1.019940615E0,-9.589237213E0,-1.884347796E0
1.596925104E1,9.361918569E-1,-9.617950439E0,-1.824527264E0
1.598952141E1,8.715856671E-1,-9.637093544E0,-1.762313843E0
1.600979187E1,8.117650747E-1,-9.598808289E0,-1.745564103E0
1.603006229E1,8.093722463E-1,-9.594022751E0,-1.767099500E0
1.605046229E1,8.524430394E-1,-9.649057388E0,-1.774278045E0
1.607060323E1,9.002995491E-1,-9.696913719E0,-1.755135417E0
1.609087365E1,9.242277741E-1,-9.670592308E0,-1.752742529E0
1.611114411E1,9.409775138E-1,-9.665806770E0,-1.769492388E0
1.613141458E1,9.290133715E-1,-9.651450157E0,-1.805384636E0
1.615181458E1,9.649057388E-1,-9.591629982E0,-1.877169371E0
1.617195552E1,9.792626500E-1,-9.567701340E0,-1.920240164E0
1.619222599E1,1.003190875E0,-9.596415520E0,-1.917847395E0
1.621249646E1,1.017547846E0,-9.620343208E0,-1.913061738E0
1.623276693E1,9.672985673E-1,-9.634700775E0,-1.903490424E0
1.625316693E1,9.218349457E-1,-9.632308006E0,-1.884347796E0
1.627330781E1,9.457631707E-1,-9.634700775E0,-1.867598057E0
1.629357828E1,9.936196208E-1,-9.608379364E0,-1.860419631E0
1.631384875E1,1.051047325E0,-9.591629982E0,-1.853241086E0
1.633411922E1,1.130010486E0,-9.586843491E0,-1.858026743E0
1.635451922E1,1.127617717E0,-9.591629982E0,-1.884347796E0
1.637466016E1,1.051047325E0,-9.598808289E0,-1.836491346E0
1.639493062E1,9.840483069E-1,-9.594022751E0,-1.819741607E0
1.641520109E1,9.792626500E-1,-9.615557671E0,-1.793420553E0
1.643547151E1,9.672985673E-1,-9.644271851E0,-1.776670814E0
1.645574182E1,9.409775138E-1,-9.644271851E0,-1.814955950E0
1.647601234E1,9.074779749E-1,-9.644271851E0,-1.822134495E0
1.649629078E1,8.691928387E-1,-9.639486313E0,-1.810170293E0
1.651664630E1,9.098708034E-1,-9.670592308E0,-1.807777524E0
1.653699292E1,9.529415965E-1,-9.651450157E0,-1.783849239E0
1.655724542E1,1.010369420E0,-9.639486313E0,-1.834098577E0
1.657735984E1,1.015154958E0,-9.605986595E0,-1.865205288E0
1.659762339E1,1.019940615E0,-9.601201057E0,-1.903490424E0
1.661782557E1,1.005583763E0,-9.577272415E0,-1.920240164E0
1.663817443E1,9.936196208E-1,-9.570094109E0,-1.915454507E0
1.665857479E1,9.984052777E-1,-9.579665184E0,-1.908276081E0
1.667871594E1,1.048654556E0,-9.617950439E0,-1.896311998E0
1.669898651E1,1.046261668E0,-9.634700775E0,-1.869990945E0
1.671925714E1,1.055832982E0,-9.639486313E0,-1.874776483E0
1.673952755E1,1.043868899E0,-9.675378799E0,-1.824527264E0
1.675993562E1,1.034297585E0,-9.651450157E0,-1.800599098E0
1.678021729E1,1.005583763E0,-9.634700775E0,-1.826920033E0
1.680033234E1,9.936196208E-1,-9.596415520E0,-1.881955028E0
1.682060427E1,1.005583763E0,-9.570094109E0,-1.886740685E0
1.684087458E1,9.768698215E-1,-9.582057953E0,-1.913061738E0
1.686127583E1,9.481559992E-1,-9.594022751E0,-1.896311998E0
1.688141755E1,9.409775138E-1,-9.620343208E0,-1.865205288E0
1.690168880E1,9.242277741E-1,-9.644271851E0,-1.824527264E0
1.692195974E1,9.266205430E-1,-9.610772133E0,-1.814955950E0
1.694223010E1,9.457631707E-1,-9.634700775E0,-1.819741607E0
1.696250312E1,9.696913958E-1,-9.651450157E0,-1.826920033E0
1.698277354E1,9.553344250E-1,-9.637093544E0,-1.812563181E0
1.700304396E1,9.960124493E-1,-9.613164902E0,-1.822134495E0
1.702331432E1,1.043868899E0,-9.632308006E0,-1.881955028E0
1.704358474E1,1.034297585E0,-9.627521515E0,-1.862812400E0
1.706385516E1,1.005583763E0,-9.608379364E0,-1.831705689E0
1.708412557E1,1.007976532E0,-9.594022751E0,-1.846062660E0
1.710439594E1,1.029511929E0,-9.629914284E0,-1.874776483E0
1.712466635E1,1.012762189E0,-9.651450157E0,-1.850848317E0
1.714493677E1,1.000798106E0,-9.615557671E0,-1.843669891E0
1.716520719E1,9.696913958E-1,-9.608379364E0,-1.819741607E0
1.718547755E1,9.481559992E-1,-9.610772133E0,-1.843669891E0
1.720574797E1,9.170492887E-1,-9.620343208E0,-1.850848317E0
1.722614797E1,9.146564603E-1,-9.610772133E0,-1.869990945E0
1.724628880E1,9.409775138E-1,-9.601201057E0,-1.884347796E0
1.726668880E1,9.481559992E-1,-9.591629982E0,-1.867598057E0
1.728698755E1,9.720842242E-1,-9.610772133E0,-1.867598057E0
1.730706135E1,9.816554785E-1,-9.625128746E0,-1.836491346E0
1.732737083E1,1.007976532E0,-9.634700775E0,-1.814955950E0
1.734777083E1,1.046261668E0,-9.651450157E0,-1.831705689E0
1.736791151E1,1.079761267E0,-9.646664619E0,-1.850848317E0
1.738818187E1,1.089332461E0,-9.629914284E0,-1.867598057E0
1.740845219E1,1.094118118E0,-9.605986595E0,-1.867598057E0
1.742872255E1,1.051047325E0,-9.622735977E0,-1.881955028E0
1.744912255E1,1.022333503E0,-9.632308006E0,-1.853241086E0
1.746926328E1,9.792626500E-1,-9.615557671E0,-1.855633974E0
1.748953364E1,9.792626500E-1,-9.601201057E0,-1.860419631E0
1.750980406E1,9.672985673E-1,-9.598808289E0,-1.874776483E0
1.753007443E1,9.720842242E-1,-9.615557671E0,-1.889133453E0
1.755047443E1,9.314061999E-1,-9.620343208E0,-1.891526341E0
1.757061516E1,9.409775138E-1,-9.622735977E0,-1.846062660E0
1.759088557E1,9.314061999E-1,-9.629914284E0,-1.822134495E0
1.761115594E1,9.433703423E-1,-9.637093544E0,-1.824527264E0
1.763142630E1,9.290133715E-1,-9.627521515E0,-1.836491346E0
1.765182630E1,9.553344250E-1,-9.579665184E0,-1.867598057E0
1.767212500E1,1.019940615E0,-9.586843491E0,-1.896311998E0
1.769223802E1,1.060618639E0,-9.601201057E0,-1.886740685E0
1.771250833E1,1.046261668E0,-9.613164902E0,-1.903490424E0
1.773277859E1,1.019940615E0,-9.610772133E0,-1.884347796E0
1.775317859E1,9.984052777E-1,-9.596415520E0,-1.843669891E0
1.777331922E1,9.960124493E-1,-9.589237213E0,-1.886740685E0
1.779358948E1,1.012762189E0,-9.586843491E0,-1.915454507E0
1.781385974E1,1.041476011E0,-9.617950439E0,-1.908276081E0
1.783413010E1,1.031904817E0,-9.637093544E0,-1.867598057E0
1.785453010E1,1.036690354E0,-9.637093544E0,-1.846062660E0
1.787467083E1,1.036690354E0,-9.617950439E0,-1.855633974E0
1.789494120E1,1.055832982E0,-9.622735977E0,-1.874776483E0
1.791521156E1,1.072582722E0,-9.598808289E0,-1.877169371E0
1.793548187E1,1.089332461E0,-9.584450722E0,-1.901097536E0
1.795575036E1,1.079761267E0,-9.589237213E0,-1.881955028E0
1.797602193E1,1.053440213E0,-9.608379364E0,-1.893919110E0
1.799629229E1,1.043868899E0,-9.634700775E0,-1.834098577E0
1.801668948E1,1.017547846E0,-9.632308006E0,-1.836491346E0
1.803699750E1,9.744769931E-1,-9.613164902E0,-1.848455548E0
1.805725104E1,9.266205430E-1,-9.617950439E0,-1.860419631E0
1.807736625E1,9.146564603E-1,-9.603593826E0,-1.886740685E0
1.809763823E1,9.122636318E-1,-9.605986595E0,-1.877169371E0
1.811790990E1,9.266205430E-1,-9.613164902E0,-1.879562140E0
1.813818016E1,9.481559992E-1,-9.584450722E0,-1.896311998E0
1.815858125E1,9.696913958E-1,-9.579665184E0,-1.886740685E0
1.817872271E1,1.003190875E0,-9.594022751E0,-1.915454507E0
1.819899375E1,1.034297585E0,-9.615557671E0,-1.901097536E0
1.821926464E1,1.063011408E0,-9.634700775E0,-1.843669891E0
1.823953490E1,1.089332461E0,-9.644271851E0,-1.807777524E0
1.825993536E1,1.084546804E0,-9.646664619E0,-1.819741607E0
1.828007646E1,1.084546804E0,-9.613164902E0,-1.874776483E0
1.830034708E1,1.063011408E0,-9.586843491E0,-1.891526341E0
1.832061766E1,1.074975610E0,-9.586843491E0,-1.915454507E0
1.834088792E1,1.036690354E0,-9.572486877E0,-1.932204247E0
1.836128812E1,9.816554785E-1,-9.594022751E0,-1.905883193E0
1.838142896E1,9.194421172E-1,-9.603593826E0,-1.881955028E0
1.840169943E1,9.433703423E-1,-9.615557671E0,-1.848455548E0
1.842196984E1,1.034297585E0,-9.617950439E0,-1.858026743E0
1.844224010E1,1.070189953E0,-9.637093544E0,-1.896311998E0
1.846264010E1,1.084546804E0,-9.637093544E0,-1.898704767E0
1.848278114E1,1.074975610E0,-9.622735977E0,-1.879562140E0
1.850305146E1,1.010369420E0,-9.613164902E0,-1.879562140E0
1.852332177E1,9.768698215E-1,-9.596415520E0,-1.877169371E0
1.854359214E1,9.792626500E-1,-9.582057953E0,-1.874776483E0
1.856386245E1,9.768698215E-1,-9.586843491E0,-1.898704767E0
1.858413276E1,1.015154958E0,-9.591629982E0,-1.903490424E0
1.860440312E1,1.036690354E0,-9.603593826E0,-1.903490424E0
1.862467344E1,1.029511929E0,-9.617950439E0,-1.869990945E0
1.864494375E1,1.017547846E0,-9.617950439E0,-1.838884234E0
1.866521406E1,1.022333503E0,-9.608379364E0,-1.822134495E0
1.868548437E1,1.031904817E0,-9.615557671E0,-1.831705689E0
1.870575469E1,9.984052777E-1,-9.641879082E0,-1.841277003E0
1.872602500E1,9.792626500E-1,-9.620343208E0,-1.865205288E0
1.874629531E1,9.361918569E-1,-9.625128746E0,-1.855633974E0
1.876669531E1,9.481559992E-1,-9.591629982E0,-1.860419631E0
1.878699385E1,9.577272534E-1,-9.603593826E0,-1.862812400E0
1.880706760E1,9.505487680E-1,-9.632308006E0,-1.855633974E0
1.882737698E1,9.840483069E-1,-9.620343208E0,-1.834098577E0
1.884777698E1,9.529415965E-1,-9.641879082E0,-1.805384636E0
1.886791750E1,9.672985673E-1,-9.632308006E0,-1.826920033E0
1.888818776E1,9.696913958E-1,-9.615557671E0,-1.862812400E0
1.890858776E1,1.027119160E0,-9.622735977E0,-1.879562140E0
1.892874151E1,1.048654556E0,-9.610772133E0,-1.884347796E0
1.894914151E1,1.072582722E0,-9.629914284E0,-1.898704767E0
1.896926885E1,1.084546804E0,-9.639486313E0,-1.884347796E0
1.898953906E1,1.084546804E0,-9.637093544E0,-1.858026743E0
1.900980937E1,1.058225870E0,-9.603593826E0,-1.855633974E0
1.903007969E1,9.672985673E-1,-9.594022751E0,-1.872383714E0
1.905047969E1,9.649057388E-1,-9.558130264E0,-1.865205288E0
1.907062031E1,9.529415965E-1,-9.582057953E0,-1.893919110E0
1.909089052E1,9.433703423E-1,-9.601201057E0,-1.905883193E0
1.911116083E1,9.026923180E-1,-9.615557671E0,-1.872383714E0
1.913143114E1,8.955138922E-1,-9.608379364E0,-1.819741607E0
1.915183115E1,8.931210637E-1,-9.601201057E0,-1.814955950E0
1.917197172E1,9.816554785E-1,-9.641879082E0,-1.848455548E0
1.919224198E1,1.089332461E0,-9.680164337E0,-1.829312921E0
1.921251229E1,1.132403374E0,-9.656235695E0,-1.805384636E0
1.923278255E1,1.101296663E0,-9.649057388E0,-1.774278045E0
1.925318255E1,1.017547846E0,-9.627521515E0,-1.795813441E0
1.927332318E1,9.505487680E-1,-9.632308006E0,-1.822134495E0
1.929359344E1,9.385846853E-1,-9.598808289E0,-1.855633974E0
1.931386375E1,9.529415965E-1,-9.601201057E0,-1.877169371E0
1.933413406E1,9.314061999E-1,-9.596415520E0,-1.922633052E0
1.935453406E1,9.002995491E-1,-9.603593826E0,-1.889133453E0
1.937467464E1,9.122636318E-1,-9.608379364E0,-1.862812400E0
1.939494495E1,9.577272534E-1,-9.603593826E0,-1.855633974E0
1.941521521E1,9.912267923E-1,-9.632308006E0,-1.858026743E0
1.943548552E1,1.027119160E0,-9.634700775E0,-1.872383714E0
1.945575573E1,9.984052777E-1,-9.622735977E0,-1.901097536E0
1.947602208E1,9.864411354E-1,-9.608379364E0,-1.920240164E0
1.949625307E1,9.290133715E-1,-9.603593826E0,-1.901097536E0
1.951666385E1,9.481559992E-1,-9.598808289E0,-1.908276081E0
1.953700036E1,1.003190875E0,-9.577272415E0,-1.898704767E0
1.955725396E1,1.077368379E0,-9.601201057E0,-1.893919110E0
1.957736922E1,1.077368379E0,-9.627521515E0,-1.886740685E0
1.959763932E1,1.046261668E0,-9.589237213E0,-1.886740685E0
1.961804115E1,1.012762189E0,-9.582057953E0,-1.884347796E0
1.963818167E1,1.000798106E0,-9.608379364E0,-1.896311998E0
1.965858312E1,9.553344250E-1,-9.613164902E0,-1.884347796E0
1.967872474E1,9.720842242E-1,-9.639486313E0,-1.855633974E0
1.969899589E1,9.696913958E-1,-9.622735977E0,-1.819741607E0
1.971926687E1,9.840483069E-1,-9.653842926E0,-1.824527264E0
1.973953714E1,9.696913958E-1,-9.644271851E0,-1.850848317E0
1.975993771E1,9.553344250E-1,-9.627521515E0,-1.860419631E0
1.978007870E1,9.242277741E-1,-9.620343208E0,-1.843669891E0
1.980034901E1,9.122636318E-1,-9.622735977E0,-1.841277003E0
1.982074943E1,8.955138922E-1,-9.622735977E0,-1.838884234E0
1.984089000E1,9.002995491E-1,-9.610772133E0,-1.862812400E0
1.986129026E1,9.361918569E-1,-9.620343208E0,-1.865205288E0
1.988143109E1,9.433703423E-1,-9.629914284E0,-1.886740685E0
1.990170156E1,9.553344250E-1,-9.634700775E0,-1.867598057E0
1.992197203E1,9.625129104E-1,-9.622735977E0,-1.865205288E0
1.994224229E1,1.003190875E0,-9.632308006E0,-1.872383714E0
1.996251323E1,1.043868899E0,-9.610772133E0,-1.891526341E0
1.998278349E1,1.036690354E0,-9.596415520E0,-1.917847395E0
2.000305375E1,1.051047325E0,-9.586843491E0,-1.929811478E0
2.002332406E1,1.043868899E0,-9.589237213E0,-1.910668850E0
2.004359437E1,1.041476011E0,-9.589237213E0,-1.884347796E0
2.006386464E1,1.031904817E0,-9.586843491E0,-1.838884234E0
2.008413495E1,1.048654556E0,-9.610772133E0,-1.824527264E0
2.010440526E1,1.058225870E0,-9.625128746E0,-1.824527264E0
2.012467552E1,1.077368379E0,-9.644271851E0,-1.817348838E0
2.014494583E1,1.077368379E0,-9.653842926E0,-1.824527264E0
2.016521615E1,1.041476011E0,-9.651450157E0,-1.822134495E0
2.018548641E1,1.010369420E0,-9.639486313E0,-1.841277003E0
2.020575672E1,9.888339639E-1,-9.646664619E0,-1.834098577E0
2.022602703E1,9.744769931E-1,-9.639486313E0,-1.853241086E0
2.024629734E1,9.529415965E-1,-9.622735977E0,-1.853241086E0
2.026669734E1,9.481559992E-1,-9.584450722E0,-1.881955028E0
2.028699583E1,9.768698215E-1,-9.613164902E0,-1.867598057E0
2.030706953E1,9.936196208E-1,-9.627521515E0,-1.867598057E0
2.032737891E1,9.457631707E-1,-9.627521515E0,-1.865205288E0
2.034777891E1,9.170492887E-1,-9.639486313E0,-1.846062660E0
2.036807724E1,9.050851464E-1,-9.627521515E0,-1.848455548E0
2.038819026E1,8.883354068E-1,-9.610772133E0,-1.872383714E0
2.040846031E1,9.194421172E-1,-9.639486313E0,-1.901097536E0
2.042873047E1,9.601200819E-1,-9.629914284E0,-1.879562140E0
2.044913047E1,9.840483069E-1,-9.598808289E0,-1.860419631E0
2.046927099E1,9.912267923E-1,-9.603593826E0,-1.886740685E0
2.048954120E1,9.816554785E-1,-9.603593826E0,-1.889133453E0
2.050981141E1,9.888339639E-1,-9.601201057E0,-1.889133453E0
2.053008167E1,9.768698215E-1,-9.591629982E0,-1.874776483E0
2.055048167E1,9.649057388E-1,-9.596415520E0,-1.898704767E0
2.057062214E1,9.672985673E-1,-9.639486313E0,-1.872383714E0
2.059089240E1,9.936196208E-1,-9.627521515E0,-1.872383714E0
2.061116271E1,1.017547846E0,-9.615557671E0,-1.858026743E0
2.063143297E1,1.060618639E0,-9.627521515E0,-1.879562140E0
2.065183297E1,1.070189953E0,-9.625128746E0,-1.872383714E0
2.067197354E1,1.063011408E0,-9.598808289E0,-1.872383714E0
2.069224380E1,1.065404296E0,-9.615557671E0,-1.891526341E0
2.071251406E1,1.084546804E0,-9.605986595E0,-1.901097536E0
2.073278437E1,1.070189953E0,-9.610772133E0,-1.915454507E0
2.075318437E1,1.070189953E0,-9.596415520E0,-1.898704767E0
2.077332495E1,1.058225870E0,-9.589237213E0,-1.889133453E0
2.079359516E1,1.058225870E0,-9.591629982E0,-1.896311998E0
2.081386547E1,1.017547846E0,-9.605986595E0,-1.893919110E0
2.083413573E1,1.024726272E0,-9.625128746E0,-1.901097536E0
2.085453573E1,1.022333503E0,-9.605986595E0,-1.889133453E0
2.087467630E1,1.022333503E0,-9.608379364E0,-1.893919110E0
2.089494661E1,1.012762189E0,-9.617950439E0,-1.898704767E0
2.091521687E1,9.936196208E-1,-9.617950439E0,-1.855633974E0
2.093548714E1,9.960124493E-1,-9.586843491E0,-1.843669891E0
2.095575719E1,1.005583763E0,-9.608379364E0,-1.881955028E0
2.097602370E1,9.577272534E-1,-9.617950439E0,-1.898704767E0
2.099625469E1,9.481559992E-1,-9.617950439E0,-1.891526341E0
2.101666542E1,9.457631707E-1,-9.620343208E0,-1.862812400E0
2.103700198E1,9.625129104E-1,-9.632308006E0,-1.853241086E0
2.105725552E1,1.003190875E0,-9.634700775E0,-1.836491346E0
2.107737073E1,1.017547846E0,-9.622735977E0,-1.836491346E0
2.109764271E1,1.048654556E0,-9.596415520E0,-1.884347796E0
2.111791432E1,1.039083242E0,-9.603593826E0,-1.893919110E0
2.113818448E1,1.003190875E0,-9.598808289E0,-1.891526341E0
2.115858562E1,9.864411354E-1,-9.605986595E0,-1.855633974E0
2.117872708E1,9.720842242E-1,-9.617950439E0,-1.802991867E0
2.119899797E1,9.481559992E-1,-9.620343208E0,-1.819741607E0
2.121926880E1,9.553344250E-1,-9.622735977E0,-1.826920033E0
2.123953906E1,9.457631707E-1,-9.610772133E0,-1.843669891E0
2.125994750E1,9.792626500E-1,-9.627521515E0,-1.822134495E0
2.128022911E1,9.696913958E-1,-9.644271851E0,-1.802991867E0
2.130034411E1,9.649057388E-1,-9.639486313E0,-1.795813441E0
2.132061599E1,9.601200819E-1,-9.641879082E0,-1.829312921E0
2.134088620E1,9.601200819E-1,-9.644271851E0,-1.843669891E0
2.136128760E1,1.000798106E0,-9.622735977E0,-1.865205288E0
2.138142917E1,1.027119160E0,-9.601201057E0,-1.886740685E0
2.140170021E1,1.053440213E0,-9.589237213E0,-1.925025821E0
2.142197114E1,1.077368379E0,-9.589237213E0,-1.951346874E0
2.144224135E1,1.108475089E0,-9.567701340E0,-1.936989903E0
2.146251443E1,1.079761267E0,-9.603593826E0,-1.905883193E0
2.148278469E1,1.055832982E0,-9.605986595E0,-1.860419631E0
2.150305495E1,1.022333503E0,-9.598808289E0,-1.848455548E0
2.152332521E1,9.768698215E-1,-9.591629982E0,-1.858026743E0
2.154359542E1,9.649057388E-1,-9.586843491E0,-1.862812400E0
2.156386573E1,9.529415965E-1,-9.615557671E0,-1.834098577E0
2.158413599E1,9.433703423E-1,-9.617950439E0,-1.805384636E0
2.160440625E1,9.529415965E-1,-9.617950439E0,-1.781456470E0
2.162467646E1,9.792626500E-1,-9.663414001E0,-1.810170293E0
2.164494672E1,9.696913958E-1,-9.665806770E0,-1.822134495E0
2.166521698E1,9.792626500E-1,-9.634700775E0,-1.824527264E0
2.168548724E1,1.031904817E0,-9.617950439E0,-1.879562140E0
2.170575750E1,1.048654556E0,-9.622735977E0,-1.893919110E0
2.172615750E1,1.043868899E0,-9.620343208E0,-1.881955028E0
2.174629802E1,9.888339639E-1,-9.610772133E0,-1.877169371E0
2.176669802E1,9.361918569E-1,-9.589237213E0,-1.862812400E0
2.178699646E1,9.649057388E-1,-9.627521515E0,-1.874776483E0
2.180707016E1,1.034297585E0,-9.646664619E0,-1.841277003E0
2.182737948E1,1.077368379E0,-9.627521515E0,-1.810170293E0
2.184777948E1,1.077368379E0,-9.625128746E0,-1.838884234E0
2.186791995E1,9.864411354E-1,-9.601201057E0,-1.874776483E0
2.188819010E1,9.122636318E-1,-9.582057953E0,-1.891526341E0
2.190846031E1,8.668000102E-1,-9.582057953E0,-1.841277003E0
2.192873052E1,8.883354068E-1,-9.594022751E0,-1.824527264E0
2.194913052E1,8.979067206E-1,-9.661021233E0,-1.805384636E0
2.196927099E1,9.026923180E-1,-9.670592308E0,-1.805384636E0
2.198954120E1,8.955138922E-1,-9.644271851E0,-1.793420553E0
2.200981146E1,8.476574421E-1,-9.615557671E0,-1.853241086E0
2.203008172E1,8.835497499E-1,-9.620343208E0,-1.874776483E0
2.205048172E1,9.290133715E-1,-9.665806770E0,-1.858026743E0
2.207062219E1,9.433703423E-1,-9.634700775E0,-1.843669891E0
2.209089240E1,9.026923180E-1,-9.601201057E0,-1.829312921E0
2.211116266E1,8.979067206E-1,-9.598808289E0,-1.860419631E0
2.213143292E1,9.577272534E-1,-9.622735977E0,-1.872383714E0
2.215183292E1,1.022333503E0,-9.601201057E0,-1.896311998E0
2.217213130E1,1.070189953E0,-9.582057953E0,-1.913061738E0
2.219224422E1,1.060618639E0,-9.613164902E0,-1.932204247E0
2.221251437E1,1.019940615E0,-9.649057388E0,-1.869990945E0
2.223278448E1,1.015154958E0,-9.617950439E0,-1.884347796E0
2.225318448E1,1.063011408E0,-9.582057953E0,-1.862812400E0
2.227332490E1,1.101296663E0,-9.596415520E0,-1.908276081E0
2.229359510E1,1.055832982E0,-9.608379364E0,-1.879562140E0
2.231386521E1,9.840483069E-1,-9.625128746E0,-1.853241086E0
2.233413547E1,9.337990284E-1,-9.617950439E0,-1.853241086E0
2.235453547E1,9.529415965E-1,-9.622735977E0,-1.838884234E0
2.237467589E1,9.816554785E-1,-9.639486313E0,-1.841277003E0
2.239494615E1,9.649057388E-1,-9.644271851E0,-1.850848317E0
2.241521641E1,9.625129104E-1,-9.610772133E0,-1.843669891E0
2.243548661E1,9.385846853E-1,-9.617950439E0,-1.858026743E0
2.245575505E1,9.122636318E-1,-9.617950439E0,-1.841277003E0
2.247602646E1,9.146564603E-1,-9.632308006E0,-1.846062660E0
2.249629672E1,9.146564603E-1,-9.617950439E0,-1.826920033E0
2.251669375E1,9.409775138E-1,-9.625128746E0,-1.836491346E0
2.253700167E1,9.481559992E-1,-9.615557671E0,-1.843669891E0
2.255727083E1,9.720842242E-1,-9.646664619E0,-1.826920033E0
2.257754021E1,9.936196208E-1,-9.641879082E0,-1.853241086E0
2.259779016E1,9.864411354E-1,-9.637093544E0,-1.867598057E0
2.261787109E1,1.003190875E0,-9.620343208E0,-1.901097536E0
2.263818031E1,1.015154958E0,-9.613164902E0,-1.905883193E0
2.265858219E1,1.012762189E0,-9.577272415E0,-1.893919110E0
2.267872411E1,9.912267923E-1,-9.610772133E0,-1.896311998E0
2.269899542E1,9.936196208E-1,-9.608379364E0,-1.855633974E0
2.271926656E1,9.912267923E-1,-9.613164902E0,-1.860419631E0
2.273953672E1,9.936196208E-1,-9.634700775E0,-1.862812400E0
2.275993750E1,9.792626500E-1,-9.639486313E0,-1.886740685E0
2.278007859E1,9.457631707E-1,-9.653842926E0,-1.853241086E0
2.280034927E1,9.409775138E-1,-9.634700775E0,-1.819741607E0
2.282062000E1,9.553344250E-1,-9.625128746E0,-1.853241086E0
2.284089026E1,9.409775138E-1,-9.627521515E0,-1.889133453E0
2.286129057E1,9.433703423E-1,-9.615557671E0,-1.893919110E0
2.288143130E1,9.744769931E-1,-9.586843491E0,-1.872383714E0
2.290170172E1,1.005583763E0,-9.617950439E0,-1.872383714E0
2.292197219E1,9.912267923E-1,-9.627521515E0,-1.874776483E0
2.294224245E1,9.601200819E-1,-9.639486313E0,-1.843669891E0
2.296264245E1,9.457631707E-1,-9.617950439E0,-1.846062660E0
2.298278370E1,9.744769931E-1,-9.634700775E0,-1.884347796E0
2.300305396E1,1.005583763E0,-9.632308006E0,-1.915454507E0
2.302332422E1,1.043868899E0,-9.632308006E0,-1.917847395E0
2.304359448E1,1.019940615E0,-9.634700775E0,-1.884347796E0
2.306386479E1,9.768698215E-1,-9.613164902E0,-1.858026743E0
2.308413505E1,9.242277741E-1,-9.610772133E0,-1.865205288E0
2.310440536E1,9.361918569E-1,-9.603593826E0,-1.872383714E0
2.312467568E1,9.720842242E-1,-9.596415520E0,-1.889133453E0
2.314494599E1,9.672985673E-1,-9.584450722E0,-1.889133453E0
2.316521630E1,9.577272534E-1,-9.605986595E0,-1.869990945E0
2.318548661E1,9.481559992E-1,-9.591629982E0,-1.843669891E0
2.320575687E1,9.314061999E-1,-9.625128746E0,-1.831705689E0
2.322602724E1,9.146564603E-1,-9.637093544E0,-1.817348838E0
2.324629755E1,8.668000102E-1,-9.629914284E0,-1.802991867E0
2.326669755E1,8.213363886E-1,-9.637093544E0,-1.805384636E0
2.328699604E1,8.069794178E-1,-9.656235695E0,-1.795813441E0
2.330706984E1,8.141579032E-1,-9.658628464E0,-1.795813441E0
2.332737927E1,8.452646136E-1,-9.665806770E0,-1.812563181E0
2.334777927E1,8.835497499E-1,-9.653842926E0,-1.805384636E0
2.336791979E1,9.194421172E-1,-9.644271851E0,-1.824527264E0
2.338819010E1,9.505487680E-1,-9.627521515E0,-1.846062660E0
2.340859010E1,9.601200819E-1,-9.644271851E0,-1.848455548E0
2.342873073E1,9.601200819E-1,-9.610772133E0,-1.843669891E0
2.344913073E1,9.529415965E-1,-9.605986595E0,-1.862812400E0
2.346927135E1,9.194421172E-1,-9.615557671E0,-1.877169371E0
2.348954167E1,9.002995491E-1,-9.617950439E0,-1.903490424E0
2.350981203E1,9.002995491E-1,-9.594022751E0,-1.889133453E0
2.353008240E1,9.505487680E-1,-9.601201057E0,-1.889133453E0
2.355048240E1,9.744769931E-1,-9.603593826E0,-1.891526341E0
2.357062307E1,9.744769931E-1,-9.617950439E0,-1.872383714E0
2.359089344E1,9.385846853E-1,-9.632308006E0,-1.848455548E0
2.361116380E1,9.218349457E-1,-9.625128746E0,-1.846062660E0
2.363143417E1,9.625129104E-1,-9.639486313E0,-1.831705689E0
2.365183417E1,1.010369420E0,-9.644271851E0,-1.843669891E0
2.367197490E1,1.043868899E0,-9.646664619E0,-1.855633974E0
2.369224521E1,1.058225870E0,-9.644271851E0,-1.848455548E0
2.371251562E1,1.048654556E0,-9.649057388E0,-1.838884234E0
2.373278599E1,1.048654556E0,-9.639486313E0,-1.836491346E0
2.375318599E1,1.029511929E0,-9.634700775E0,-1.838884234E0
2.377332677E1,9.816554785E-1,-9.617950439E0,-1.841277003E0
2.379359714E1,9.337990284E-1,-9.617950439E0,-1.850848317E0
2.381386755E1,8.715856671E-1,-9.591629982E0,-1.860419631E0
2.383413797E1,8.476574421E-1,-9.591629982E0,-1.881955028E0
2.385453797E1,8.380861282E-1,-9.610772133E0,-1.884347796E0
2.387467875E1,8.955138922E-1,-9.620343208E0,-1.872383714E0
2.389494917E1,9.098708034E-1,-9.622735977E0,-1.869990945E0
2.391521958E1,9.314061999E-1,-9.653842926E0,-1.858026743E0
2.393549000E1,9.433703423E-1,-9.656235695E0,-1.838884234E0
2.395576031E1,9.481559992E-1,-9.625128746E0,-1.814955950E0
2.397603078E1,9.792626500E-1,-9.617950439E0,-1.786242127E0
2.399630120E1,9.936196208E-1,-9.615557671E0,-1.807777524E0
2.401669833E1,9.649057388E-1,-9.634700775E0,-1.843669891E0
2.403700635E1,9.457631707E-1,-9.641879082E0,-1.846062660E0
2.405725990E1,9.122636318E-1,-9.627521515E0,-1.817348838E0
2.407737510E1,9.098708034E-1,-9.627521515E0,-1.822134495E0
2.409764714E1,8.979067206E-1,-9.641879082E0,-1.817348838E0
2.411791880E1,8.548358679E-1,-9.656235695E0,-1.826920033E0
2.413818911E1,8.380861282E-1,-9.649057388E0,-1.791027784E0
2.415859021E1,8.835497499E-1,-9.632308006E0,-1.826920033E0
2.417873187E1,9.314061999E-1,-9.639486313E0,-1.865205288E0
2.419900302E1,9.577272534E-1,-9.620343208E0,-1.915454507E0
2.421927396E1,9.840483069E-1,-9.608379364E0,-1.917847395E0
2.423954432E1,1.005583763E0,-9.598808289E0,-1.901097536E0
2.425994479E1,1.029511929E0,-9.608379364E0,-1.901097536E0
2.428008609E1,1.046261668E0,-9.620343208E0,-1.879562140E0
2.430035656E1,1.039083242E0,-9.586843491E0,-1.862812400E0
2.432075682E1,1.003190875E0,-9.577272415E0,-1.824527264E0
2.434089771E1,1.000798106E0,-9.608379364E0,-1.850848317E0
2.436129797E1,1.022333503E0,-9.641879082E0,-1.881955028E0
2.438143901E1,1.012762189E0,-9.634700775E0,-1.881955028E0
2.440170969E1,9.864411354E-1,-9.632308006E0,-1.846062660E0
2.442198031E1,9.361918569E-1,-9.641879082E0,-1.838884234E0
2.444225073E1,9.098708034E-1,-9.634700775E0,-1.858026743E0
2.446252167E1,9.026923180E-1,-9.620343208E0,-1.848455548E0
2.448279214E1,9.505487680E-1,-9.622735977E0,-1.862812400E0
2.450306266E1,9.816554785E-1,-9.649057388E0,-1.874776483E0
2.452333312E1,9.601200819E-1,-9.661021233E0,-1.862812400E0
2.454360359E1,9.266205430E-1,-9.622735977E0,-1.865205288E0
2.456387406E1,9.266205430E-1,-9.591629982E0,-1.848455548E0
2.458414464E1,9.625129104E-1,-9.591629982E0,-1.886740685E0
2.460441510E1,1.015154958E0,-9.596415520E0,-1.893919110E0
2.462468562E1,1.019940615E0,-9.596415520E0,-1.869990945E0
2.464495604E1,9.577272534E-1,-9.629914284E0,-1.819741607E0
2.466522661E1,9.361918569E-1,-9.637093544E0,-1.831705689E0
2.468549714E1,9.481559992E-1,-9.629914284E0,-1.838884234E0
2.470576766E1,9.696913958E-1,-9.637093544E0,-1.841277003E0
2.472603818E1,9.768698215E-1,-9.615557671E0,-1.836491346E0
2.474630870E1,9.601200819E-1,-9.625128746E0,-1.838884234E0
2.476670870E1,9.768698215E-1,-9.605986595E0,-1.848455548E0
2.478700766E1,9.672985673E-1,-9.598808289E0,-1.898704767E0
2.480712083E1,9.577272534E-1,-9.594022751E0,-1.910668850E0
2.482739125E1,9.577272534E-1,-9.639486313E0,-1.865205288E0
2.484779125E1,1.010369420E0,-9.680164337E0,-1.879562140E0
2.486809005E1,1.060618639E0,-9.675378799E0,-1.872383714E0
2.488820328E1,1.096511006E0,-9.603593826E0,-1.905883193E0
2.490847364E1,1.091725349E0,-9.589237213E0,-1.956132531E0
2.492874401E1,1.070189953E0,-9.565308571E0,-1.992024899E0
2.494914401E1,1.031904817E0,-9.567701340E0,-1.982453585E0
2.496928500E1,9.936196208E-1,-9.546165466E0,-1.982453585E0
2.498955542E1,9.481559992E-1,-9.562915802E0,-1.934597135E0
2.500982588E1,9.481559992E-1,-9.572486877E0,-1.891526341E0
2.503009635E1,9.314061999E-1,-9.620343208E0,-1.850848317E0
2.505049635E1,9.481559992E-1,-9.625128746E0,-1.848455548E0
2.507063745E1,1.003190875E0,-9.637093544E0,-1.848455548E0
2.509090792E1,1.065404296E0,-9.661021233E0,-1.800599098E0
2.511117849E1,1.091725349E0,-9.656235695E0,-1.829312921E0
2.513144906E1,1.137188911E0,-9.677771568E0,-1.862812400E0
2.515184906E1,1.139581800E0,-9.668199539E0,-1.881955028E0
2.517199010E1,1.134796143E0,-9.639486313E0,-1.877169371E0
2.519226068E1,1.125224829E0,-9.601201057E0,-1.908276081E0
2.521253125E1,1.103689432E0,-9.596415520E0,-1.944168448E0
2.523280182E1,1.118046403E0,-9.577272415E0,-1.992024899E0
2.525320182E1,1.084546804E0,-9.584450722E0,-2.001596212E0
2.527334292E1,1.094118118E0,-9.589237213E0,-1.972882271E0
2.529361349E1,1.108475089E0,-9.553344727E0,-1.977667928E0
2.531388406E1,1.106082320E0,-9.570094109E0,-1.960918188E0
2.533415464E1,1.086939692E0,-9.605986595E0,-1.946561217E0
2.535455464E1,1.017547846E0,-9.615557671E0,-1.910668850E0
2.537469583E1,9.529415965E-1,-9.586843491E0,-1.874776483E0
2.539496641E1,9.337990284E-1,-9.589237213E0,-1.898704767E0
2.541523698E1,9.625129104E-1,-9.629914284E0,-1.922633052E0
2.543546818E1,9.672985673E-1,-9.644271851E0,-1.903490424E0
2.545573411E1,9.816554785E-1,-9.634700775E0,-1.855633974E0
2.547604828E1,1.019940615E0,-9.622735977E0,-1.855633974E0
2.549631885E1,1.091725349E0,-9.639486313E0,-1.889133453E0
2.551671625E1,1.108475089E0,-9.641879082E0,-1.905883193E0
2.553702453E1,1.118046403E0,-9.627521515E0,-1.889133453E0
2.555727828E1,1.089332461E0,-9.613164902E0,-1.843669891E0
2.557739375E1,1.055832982E0,-9.598808289E0,-1.879562140E0
2.559766588E1,1.055832982E0,-9.582057953E0,-1.932204247E0
2.561793786E1,1.084546804E0,-9.574879646E0,-1.963310957E0
2.563820833E1,1.106082320E0,-9.572486877E0,-1.936989903E0
2.565860943E1,1.063011408E0,-9.591629982E0,-1.963310957E0
2.567875146E1,1.046261668E0,-9.598808289E0,-1.936989903E0
2.569902271E1,1.046261668E0,-9.615557671E0,-1.901097536E0
2.571929385E1,1.070189953E0,-9.615557671E0,-1.884347796E0
2.573956443E1,1.086939692E0,-9.605986595E0,-1.903490424E0
2.575997281E1,1.115653515E0,-9.603593826E0,-1.925025821E0
2.578025500E1,1.067797065E0,-9.608379364E0,-1.898704767E0
2.580037047E1,1.003190875E0,-9.572486877E0,-1.903490424E0
2.582064266E1,9.314061999E-1,-9.589237213E0,-1.920240164E0
2.584091323E1,9.122636318E-1,-9.589237213E0,-1.934597135E0
2.586131464E1,9.553344250E-1,-9.594022751E0,-1.910668850E0
2.588145687E1,9.888339639E-1,-9.617950439E0,-1.872383714E0
2.590172828E1,1.003190875E0,-9.639486313E0,-1.846062660E0
2.592199953E1,1.029511929E0,-9.637093544E0,-1.836491346E0
2.594227010E1,1.039083242E0,-9.617950439E0,-1.841277003E0
2.596254354E1,1.063011408E0,-9.629914284E0,-1.881955028E0
2.598281417E1,1.053440213E0,-9.625128746E0,-1.920240164E0
2.600308479E1,1.055832982E0,-9.596415520E0,-1.913061738E0
2.602335536E1,1.091725349E0,-9.591629982E0,-1.920240164E0
2.604362604E1,1.089332461E0,-9.613164902E0,-1.920240164E0
2.606389667E1,1.060618639E0,-9.622735977E0,-1.898704767E0
2.608416729E1,1.027119160E0,-9.605986595E0,-1.893919110E0
2.610443786E1,1.058225870E0,-9.596415520E0,-1.881955028E0
2.612470854E1,1.074975610E0,-9.603593826E0,-1.881955028E0
2.614497917E1,1.079761267E0,-9.586843491E0,-1.915454507E0
2.616524979E1,1.041476011E0,-9.579665184E0,-1.908276081E0
2.618552047E1,1.027119160E0,-9.586843491E0,-1.896311998E0
2.620579109E1,9.984052777E-1,-9.605986595E0,-1.884347796E0
2.622619109E1,9.768698215E-1,-9.613164902E0,-1.877169371E0
2.624633240E1,1.027119160E0,-9.627521515E0,-1.877169371E0
2.626673240E1,1.031904817E0,-9.625128746E0,-1.855633974E0
2.628703161E1,1.017547846E0,-9.610772133E0,-1.865205288E0
2.630714495E1,1.022333503E0,-9.625128746E0,-1.858026743E0
2.632741547E1,1.031904817E0,-9.625128746E0,-1.905883193E0
2.634781547E1,1.029511929E0,-9.605986595E0,-1.893919110E0
2.636795667E1,1.024726272E0,-9.601201057E0,-1.915454507E0
2.638822729E1,9.984052777E-1,-9.586843491E0,-1.884347796E0
2.640849781E1,9.960124493E-1,-9.620343208E0,-1.858026743E0
2.642876844E1,9.912267923E-1,-9.617950439E0,-1.867598057E0
2.644916844E1,9.864411354E-1,-9.613164902E0,-1.858026743E0
2.646930964E1,9.864411354E-1,-9.658628464E0,-1.846062660E0
2.648958036E1,9.768698215E-1,-9.665806770E0,-1.810170293E0
2.650985104E1,9.864411354E-1,-9.649057388E0,-1.802991867E0
2.653012161E1,9.936196208E-1,-9.601201057E0,-1.858026743E0
2.655052161E1,9.840483069E-1,-9.570094109E0,-1.893919110E0
2.657066297E1,1.012762189E0,-9.586843491E0,-1.934597135E0
2.659093365E1,1.003190875E0,-9.596415520E0,-1.958525300E0
2.661120427E1,1.010369420E0,-9.584450722E0,-1.913061738E0
2.663147490E1,1.048654556E0,-9.579665184E0,-1.891526341E0
2.665187490E1,1.130010486E0,-9.613164902E0,-1.910668850E0
2.667217417E1,1.158724308E0,-9.625128746E0,-1.896311998E0
2.669228745E1,1.115653515E0,-9.610772133E0,-1.910668850E0
2.671255807E1,1.065404296E0,-9.610772133E0,-1.877169371E0
2.673282859E1,1.022333503E0,-9.613164902E0,-1.905883193E0
2.675322859E1,9.960124493E-1,-9.627521515E0,-1.920240164E0
2.677336984E1,1.007976532E0,-9.598808289E0,-1.920240164E0
2.679364042E1,9.888339639E-1,-9.605986595E0,-1.903490424E0
2.681391104E1,1.003190875E0,-9.601201057E0,-1.903490424E0
2.683418167E1,1.015154958E0,-9.605986595E0,-1.879562140E0
2.685458167E1,1.036690354E0,-9.620343208E0,-1.896311998E0
2.687472297E1,1.067797065E0,-9.608379364E0,-1.867598057E0
2.689499365E1,1.031904817E0,-9.615557671E0,-1.865205288E0
2.691526427E1,9.577272534E-1,-9.613164902E0,-1.860419631E0
2.693553495E1,8.620143533E-1,-9.605986595E0,-1.862812400E0
2.695580370E1,8.356932998E-1,-9.596415520E0,-1.831705689E0
2.697607562E1,8.261220455E-1,-9.603593826E0,-1.846062660E0
2.699634630E1,8.596215248E-1,-9.613164902E0,-1.850848317E0
2.701674375E1,9.050851464E-1,-9.632308006E0,-1.858026743E0
2.703705208E1,9.314061999E-1,-9.634700775E0,-1.853241086E0
2.705730599E1,9.792626500E-1,-9.639486313E0,-1.831705689E0
2.707742146E1,1.003190875E0,-9.656235695E0,-1.810170293E0
2.709769375E1,1.012762189E0,-9.627521515E0,-1.810170293E0
2.711796578E1,1.055832982E0,-9.634700775E0,-1.829312921E0
2.713823630E1,1.079761267E0,-9.627521515E0,-1.872383714E0
2.715863740E1,1.103689432E0,-9.617950439E0,-1.891526341E0
2.717877953E1,1.108475089E0,-9.589237213E0,-1.893919110E0
2.719905083E1,1.086939692E0,-9.582057953E0,-1.898704767E0
2.721932203E1,1.060618639E0,-9.572486877E0,-1.872383714E0
2.723959266E1,1.017547846E0,-9.577272415E0,-1.896311998E0
2.725999312E1,1.029511929E0,-9.596415520E0,-1.867598057E0
2.728013479E1,1.005583763E0,-9.620343208E0,-1.886740685E0
2.730040578E1,9.505487680E-1,-9.627521515E0,-1.862812400E0
2.732067661E1,8.811569214E-1,-9.629914284E0,-1.831705689E0
2.734094724E1,8.548358679E-1,-9.639486313E0,-1.843669891E0
2.736134745E1,9.026923180E-1,-9.665806770E0,-1.843669891E0
2.738148896E1,9.242277741E-1,-9.651450157E0,-1.822134495E0
2.740175974E1,9.577272534E-1,-9.668199539E0,-1.786242127E0
2.742203042E1,9.553344250E-1,-9.658628464E0,-1.788634896E0
2.744230109E1,9.433703423E-1,-9.663414001E0,-1.798206210E0
2.746270109E1,9.433703423E-1,-9.651450157E0,-1.838884234E0
2.748284276E1,1.005583763E0,-9.622735977E0,-1.869990945E0
2.750311344E1,1.055832982E0,-9.577272415E0,-1.881955028E0
2.752338411E1,1.077368379E0,-9.582057953E0,-1.908276081E0
2.754365474E1,1.065404296E0,-9.584450722E0,-1.922633052E0
2.756405474E1,1.051047325E0,-9.570094109E0,-1.917847395E0
2.758419604E1,1.077368379E0,-9.584450722E0,-1.920240164E0
2.760446672E1,1.053440213E0,-9.603593826E0,-1.901097536E0
2.762473740E1,1.029511929E0,-9.591629982E0,-1.891526341E0
2.764500802E1,9.984052777E-1,-9.601201057E0,-1.898704767E0
2.766527870E1,9.768698215E-1,-9.613164902E0,-1.891526341E0
2.768554932E1,9.577272534E-1,-9.584450722E0,-1.877169371E0
2.770582000E1,9.433703423E-1,-9.622735977E0,-1.869990945E0
2.772609062E1,9.649057388E-1,-9.653842926E0,-1.846062660E0
2.774640062E1,9.864411354E-1,-9.658628464E0,-1.834098577E0
2.776679005E1,9.696913958E-1,-9.675378799E0,-1.807777524E0
2.778706047E1,9.912267923E-1,-9.661021233E0,-1.838884234E0
2.780717380E1,9.840483069E-1,-9.627521515E0,-1.858026743E0
2.782744427E1,9.720842242E-1,-9.622735977E0,-1.891526341E0
2.784784427E1,9.361918569E-1,-9.603593826E0,-1.908276081E0
2.786798552E1,9.457631707E-1,-9.584450722E0,-1.908276081E0
2.788825609E1,9.385846853E-1,-9.601201057E0,-1.908276081E0
2.790865609E1,9.266205430E-1,-9.601201057E0,-1.879562140E0
2.792879734E1,8.859425783E-1,-9.562915802E0,-1.884347796E0
2.794912922E1,9.242277741E-1,-9.550951958E0,-1.903490424E0
2.796952990E1,9.696913958E-1,-9.565308571E0,-1.908276081E0
2.798960698E1,1.010369420E0,-9.605986595E0,-1.889133453E0
2.800987802E1,1.024726272E0,-9.613164902E0,-1.836491346E0
2.803014901E1,9.720842242E-1,-9.627521515E0,-1.802991867E0
2.805041990E1,9.074779749E-1,-9.641879082E0,-1.802991867E0
2.807069073E1,9.050851464E-1,-9.644271851E0,-1.791027784E0
2.809096156E1,9.290133715E-1,-9.627521515E0,-1.829312921E0
2.811123234E1,9.672985673E-1,-9.653842926E0,-1.867598057E0
2.813150302E1,9.840483069E-1,-9.637093544E0,-1.853241086E0
2.815177375E1,9.936196208E-1,-9.627521515E0,-1.862812400E0
2.817204443E1,1.017547846E0,-9.615557671E0,-1.846062660E0
2.819231521E1,1.019940615E0,-9.598808289E0,-1.860419631E0
2.821258583E1,1.039083242E0,-9.582057953E0,-1.886740685E0
2.823285651E1,1.070189953E0,-9.589237213E0,-1.920240164E0
2.825312719E1,1.067797065E0,-9.620343208E0,-1.915454507E0
2.827339781E1,1.017547846E0,-9.634700775E0,-1.898704767E0
2.829366849E1,9.912267923E-1,-9.627521515E0,-1.905883193E0
2.831393911E1,9.840483069E-1,-9.610772133E0,-1.869990945E0
2.833420974E1,9.720842242E-1,-9.603593826E0,-1.898704767E0
2.835448036E1,1.003190875E0,-9.601201057E0,-1.915454507E0
2.837488036E1,1.003190875E0,-9.577272415E0,-1.925025821E0
2.839502161E1,9.505487680E-1,-9.598808289E0,-1.917847395E0
2.841529229E1,9.266205430E-1,-9.617950439E0,-1.913061738E0
2.843556292E1,8.907282352E-1,-9.617950439E0,-1.865205288E0
2.845583354E1,9.026923180E-1,-9.579665184E0,-1.853241086E0
2.847610417E1,9.601200819E-1,-9.596415520E0,-1.867598057E0
2.849637479E1,9.888339639E-1,-9.615557671E0,-1.881955028E0
2.851678271E1,1.019940615E0,-9.637093544E0,-1.877169371E0
2.853708031E1,1.019940615E0,-9.634700775E0,-1.838884234E0
2.855733406E1,1.055832982E0,-9.639486313E0,-1.831705689E0
2.857744943E1,1.084546804E0,-9.625128746E0,-1.877169371E0
2.859772000E1,1.149153113E0,-9.641879082E0,-1.910668850E0
2.861812167E1,1.151545882E0,-9.632308006E0,-1.879562140E0
2.863826271E1,1.139581800E0,-9.605986595E0,-1.891526341E0
2.865866406E1,1.086939692E0,-9.589237213E0,-1.910668850E0
2.867880625E1,1.046261668E0,-9.586843491E0,-1.920240164E0
2.869907771E1,1.027119160E0,-9.591629982E0,-1.910668850E0
2.871934896E1,1.010369420E0,-9.572486877E0,-1.905883193E0
2.873961948E1,1.000798106E0,-9.584450722E0,-1.891526341E0
2.876002005E1,1.007976532E0,-9.596415520E0,-1.893919110E0
2.878016172E1,9.888339639E-1,-9.613164902E0,-1.905883193E0
2.880043229E1,9.984052777E-1,-9.646664619E0,-1.879562140E0
2.882083260E1,9.936196208E-1,-9.629914284E0,-1.855633974E0
2.884097380E1,9.912267923E-1,-9.596415520E0,-1.860419631E0
2.886137411E1,1.007976532E0,-9.601201057E0,-1.879562140E0
2.888151547E1,1.005583763E0,-9.589237213E0,-1.913061738E0
2.890178630E1,1.005583763E0,-9.598808289E0,-1.905883193E0
2.892205703E1,9.792626500E-1,-9.584450722E0,-1.929811478E0
2.894232760E1,9.792626500E-1,-9.617950439E0,-1.917847395E0
2.896259875E1,9.888339639E-1,-9.627521515E0,-1.862812400E0
2.898286932E1,1.019940615E0,-9.639486313E0,-1.831705689E0
2.900313984E1,1.063011408E0,-9.625128746E0,-1.841277003E0
2.902341052E1,1.041476011E0,-9.620343208E0,-1.858026743E0
2.904368109E1,1.043868899E0,-9.582057953E0,-1.920240164E0
2.906395167E1,1.034297585E0,-9.582057953E0,-1.929811478E0
2.908422229E1,1.015154958E0,-9.617950439E0,-1.927418590E0
2.910449286E1,9.792626500E-1,-9.613164902E0,-1.905883193E0
2.912476344E1,9.816554785E-1,-9.594022751E0,-1.869990945E0
2.914503401E1,1.019940615E0,-9.603593826E0,-1.850848317E0
2.916530458E1,1.041476011E0,-9.601201057E0,-1.853241086E0
2.918557521E1,1.048654556E0,-9.610772133E0,-1.867598057E0
2.920584578E1,1.027119160E0,-9.637093544E0,-1.836491346E0
2.922611635E1,1.022333503E0,-9.641879082E0,-1.810170293E0
2.924646562E1,1.003190875E0,-9.629914284E0,-1.807777524E0
2.926681510E1,9.649057388E-1,-9.627521515E0,-1.853241086E0
2.928708583E1,9.720842242E-1,-9.617950439E0,-1.853241086E0
2.930719906E1,9.792626500E-1,-9.613164902E0,-1.817348838E0
2.932746953E1,9.266205430E-1,-9.625128746E0,-1.853241086E0
2.934786953E1,9.002995491E-1,-9.620343208E0,-1.843669891E0
2.936816849E1,9.026923180E-1,-9.627521515E0,-1.831705689E0
2.938828177E1,9.314061999E-1,-9.639486313E0,-1.853241086E0
2.940855208E1,9.768698215E-1,-9.615557671E0,-1.867598057E0
2.942882255E1,9.816554785E-1,-9.591629982E0,-1.913061738E0
2.944914969E1,9.792626500E-1,-9.589237213E0,-1.944168448E0
2.946954745E1,9.888339639E-1,-9.594022751E0,-1.908276081E0
2.948962891E1,9.960124493E-1,-9.601201057E0,-1.879562140E0
2.950990042E1,9.864411354E-1,-9.598808289E0,-1.867598057E0
2.953017177E1,9.649057388E-1,-9.589237213E0,-1.860419631E0
2.955044286E1,9.744769931E-1,-9.594022751E0,-1.865205288E0
2.957071396E1,1.036690354E0,-9.594022751E0,-1.860419631E0
2.959098490E1,1.065404296E0,-9.620343208E0,-1.846062660E0
2.961125578E1,1.065404296E0,-9.613164902E0,-1.860419631E0
2.963152661E1,1.051047325E0,-9.601201057E0,-1.853241086E0
2.965179734E1,1.072582722E0,-9.584450722E0,-1.891526341E0
2.967206807E1,1.024726272E0,-9.613164902E0,-1.872383714E0
2.969233875E1,9.816554785E-1,-9.644271851E0,-1.846062660E0
2.971260943E1,9.505487680E-1,-9.632308006E0,-1.814955950E0
2.973287995E1,9.553344250E-1,-9.646664619E0,-1.783849239E0
2.975315057E1,9.864411354E-1,-9.651450157E0,-1.829312921E0
2.977342120E1,1.000798106E0,-9.663414001E0,-1.848455548E0
2.979369177E1,9.984052777E-1,-9.629914284E0,-1.850848317E0
2.981396229E1,9.457631707E-1,-9.605986595E0,-1.869990945E0
2.983436229E1,9.146564603E-1,-9.598808289E0,-1.848455548E0
2.985450344E1,9.098708034E-1,-9.608379364E0,-1.879562140E0
2.987477396E1,9.409775138E-1,-9.596415520E0,-1.901097536E0
2.989504453E1,9.672985673E-1,-9.589237213E0,-1.913061738E0
2.991531505E1,9.840483069E-1,-9.598808289E0,-1.915454507E0
2.993558562E1,1.007976532E0,-9.625128746E0,-1.898704767E0
2.995585615E1,1.041476011E0,-9.627521515E0,-1.891526341E0
2.997612672E1,1.070189953E0,-9.594022751E0,-1.917847395E0
2.999639724E1,1.113260746E0,-9.605986595E0,-1.901097536E0
3.001680516E1,1.094118118E0,-9.613164902E0,-1.889133453E0
3.003710255E1,1.051047325E0,-9.615557671E0,-1.862812400E0
3.005735620E1,1.017547846E0,-9.620343208E0,-1.865205288E0
3.007747151E1,1.015154958E0,-9.620343208E0,-1.858026743E0
3.009774359E1,1.034297585E0,-9.594022751E0,-1.848455548E0
3.011801531E1,1.053440213E0,-9.574879646E0,-1.874776483E0
3.013828578E1,1.067797065E0,-9.591629982E0,-1.889133453E0
3.015868687E1,1.086939692E0,-9.629914284E0,-1.898704767E0
3.017882870E1,1.027119160E0,-9.653842926E0,-1.869990945E0
3.019909984E1,9.984052777E-1,-9.605986595E0,-1.834098577E0
3.021937083E1,9.984052777E-1,-9.586843491E0,-1.853241086E0
3.023964130E1,1.010369420E0,-9.617950439E0,-1.913061738E0
3.026004969E1,1.003190875E0,-9.620343208E0,-1.913061738E0
3.028033172E1,9.672985673E-1,-9.586843491E0,-1.905883193E0
3.030044703E1,9.361918569E-1,-9.579665184E0,-1.927418590E0
3.032071906E1,9.170492887E-1,-9.601201057E0,-1.932204247E0
3.034098953E1,9.170492887E-1,-9.622735977E0,-1.903490424E0
3.036139094E1,9.242277741E-1,-9.617950439E0,-1.853241086E0
3.038153292E1,8.955138922E-1,-9.615557671E0,-1.841277003E0
3.040180422E1,8.979067206E-1,-9.625128746E0,-1.865205288E0
3.042207536E1,9.601200819E-1,-9.603593826E0,-1.891526341E0
3.044234583E1,1.012762189E0,-9.625128746E0,-1.901097536E0
3.046261906E1,1.022333503E0,-9.610772133E0,-1.872383714E0
3.048288953E1,1.055832982E0,-9.622735977E0,-1.872383714E0
3.050316005E1,1.084546804E0,-9.613164902E0,-1.879562140E0
3.052343047E1,1.127617717E0,-9.615557671E0,-1.853241086E0
3.054370094E1,1.106082320E0,-9.629914284E0,-1.862812400E0
3.056397146E1,1.086939692E0,-9.632308006E0,-1.858026743E0
3.058424193E1,1.053440213E0,-9.601201057E0,-1.865205288E0
3.060451240E1,1.029511929E0,-9.596415520E0,-1.886740685E0
3.062478276E1,1.034297585E0,-9.608379364E0,-1.913061738E0
3.064505333E1,1.060618639E0,-9.603593826E0,-1.915454507E0
3.066532380E1,1.055832982E0,-9.601201057E0,-1.896311998E0
3.068559427E1,1.041476011E0,-9.601201057E0,-1.869990945E0
3.070586474E1,1.036690354E0,-9.613164902E0,-1.872383714E0
3.072626474E1,1.029511929E0,-9.605986595E0,-1.886740685E0
3.074648464E1,1.063011408E0,-9.608379364E0,-1.910668850E0
3.076683385E1,1.067797065E0,-9.610772133E0,-1.903490424E0
3.078710448E1,1.034297585E0,-9.589237213E0,-1.908276081E0
3.080721760E1,1.029511929E0,-9.579665184E0,-1.925025821E0
3.082748802E1,1.012762189E0,-9.601201057E0,-1.915454507E0
3.084788802E1,1.000798106E0,-9.613164902E0,-1.869990945E0
3.086802885E1,1.022333503E0,-9.596415520E0,-1.853241086E0
3.088829922E1,1.029511929E0,-9.584450722E0,-1.884347796E0
3.090856964E1,1.070189953E0,-9.644271851E0,-1.913061738E0
3.092884000E1,1.058225870E0,-9.634700775E0,-1.901097536E0
3.094917240E1,1.065404296E0,-9.613164902E0,-1.877169371E0
3.096957297E1,1.043868899E0,-9.605986595E0,-1.836491346E0
3.098964953E1,1.012762189E0,-9.594022751E0,-1.879562140E0
3.100992036E1,9.984052777E-1,-9.615557671E0,-1.903490424E0
3.103019109E1,1.007976532E0,-9.603593826E0,-1.908276081E0
3.105046146E1,9.816554785E-1,-9.594022751E0,-1.925025821E0
3.107086172E1,9.361918569E-1,-9.594022751E0,-1.889133453E0
3.109100281E1,9.314061999E-1,-9.613164902E0,-1.884347796E0
3.111127338E1,9.433703423E-1,-9.610772133E0,-1.865205288E0
3.113154396E1,9.720842242E-1,-9.625128746E0,-1.869990945E0
3.115181443E1,1.003190875E0,-9.617950439E0,-1.872383714E0
3.117208495E1,9.936196208E-1,-9.634700775E0,-1.886740685E0
3.119235547E1,1.019940615E0,-9.615557671E0,-1.843669891E0
3.121262599E1,1.019940615E0,-9.610772133E0,-1.814955950E0
3.123289641E1,1.022333503E0,-9.610772133E0,-1.848455548E0
3.125316687E1,1.041476011E0,-9.608379364E0,-1.874776483E0
3.127343729E1,1.041476011E0,-9.641879082E0,-1.891526341E0
3.129370781E1,1.070189953E0,-9.637093544E0,-1.860419631E0
3.131397823E1,1.077368379E0,-9.605986595E0,-1.848455548E0
3.133424865E1,1.103689432E0,-9.601201057E0,-1.860419631E0
3.135451911E1,1.113260746E0,-9.615557671E0,-1.889133453E0
3.137478958E1,1.103689432E0,-9.615557671E0,-1.881955028E0
3.139506000E1,1.067797065E0,-9.579665184E0,-1.898704767E0
3.141533042E1,1.051047325E0,-9.572486877E0,-1.934597135E0
3.143560083E1,1.051047325E0,-9.584450722E0,-1.970489502E0
3.145587125E1,1.019940615E0,-9.610772133E0,-1.948953986E0
3.147614167E1,1.012762189E0,-9.601201057E0,-1.891526341E0
3.149641208E1,1.031904817E0,-9.622735977E0,-1.867598057E0
3.151682005E1,1.029511929E0,-9.622735977E0,-1.874776483E0
3.153711719E1,1.031904817E0,-9.627521515E0,-1.877169371E0
3.155737073E1,1.019940615E0,-9.596415520E0,-1.869990945E0
3.157748594E1,9.601200819E-1,-9.605986595E0,-1.858026743E0
3.159775625E1,9.457631707E-1,-9.570094109E0,-1.865205288E0
3.161815792E1,9.505487680E-1,-9.605986595E0,-1.877169371E0
3.163829865E1,9.529415965E-1,-9.634700775E0,-1.841277003E0
3.165870000E1,9.481559992E-1,-9.641879082E0,-1.800599098E0
3.167884177E1,9.672985673E-1,-9.629914284E0,-1.824527264E0
3.169911297E1,1.024726272E0,-9.629914284E0,-1.853241086E0
3.171938401E1,1.106082320E0,-9.634700775E0,-1.855633974E0
3.173965432E1,1.115653515E0,-9.646664619E0,-1.872383714E0
3.176005490E1,1.122832060E0,-9.617950439E0,-1.910668850E0
3.178019609E1,1.113260746E0,-9.610772133E0,-1.939382792E0
3.180046687E1,1.096511006E0,-9.579665184E0,-1.970489502E0
3.182073755E1,1.103689432E0,-9.579665184E0,-1.965703845E0
3.184100786E1,1.115653515E0,-9.570094109E0,-1.927418590E0
3.186140807E1,1.096511006E0,-9.570094109E0,-1.915454507E0
3.188154906E1,1.060618639E0,-9.608379364E0,-1.886740685E0
3.190181964E1,1.060618639E0,-9.629914284E0,-1.891526341E0
3.192209010E1,1.055832982E0,-9.610772133E0,-1.874776483E0
3.194236047E1,1.027119160E0,-9.596415520E0,-1.877169371E0
3.196276047E1,1.000798106E0,-9.613164902E0,-1.889133453E0
3.198290167E1,9.840483069E-1,-9.625128746E0,-1.850848317E0
3.200317208E1,9.720842242E-1,-9.627521515E0,-1.824527264E0
3.202344245E1,9.768698215E-1,-9.608379364E0,-1.817348838E0
3.204371281E1,9.577272534E-1,-9.622735977E0,-1.893919110E0
3.206398318E1,9.361918569E-1,-9.605986595E0,-1.889133453E0
3.208425359E1,9.098708034E-1,-9.594022751E0,-1.853241086E0
3.210452396E1,9.170492887E-1,-9.601201057E0,-1.822134495E0
3.212479432E1,9.194421172E-1,-9.649057388E0,-1.793420553E0
3.214506469E1,9.457631707E-1,-9.663414001E0,-1.812563181E0
3.216533505E1,9.888339639E-1,-9.656235695E0,-1.819741607E0
3.218560542E1,9.936196208E-1,-9.629914284E0,-1.805384636E0
3.220587578E1,1.015154958E0,-9.622735977E0,-1.829312921E0
3.222614614E1,1.024726272E0,-9.620343208E0,-1.850848317E0
3.224649521E1,1.051047325E0,-9.615557671E0,-1.872383714E0
3.226684453E1,1.065404296E0,-9.601201057E0,-1.879562140E0
3.228711500E1,1.022333503E0,-9.603593826E0,-1.860419631E0
3.230722797E1,1.012762189E0,-9.603593826E0,-1.848455548E0
3.232749828E1,9.936196208E-1,-9.610772133E0,-1.819741607E0
3.234789828E1,9.984052777E-1,-9.603593826E0,-1.826920033E0
3.236803896E1,9.840483069E-1,-9.625128746E0,-1.834098577E0
3.238830927E1,9.385846853E-1,-9.634700775E0,-1.838884234E0
3.240870927E1,9.122636318E-1,-9.639486313E0,-1.829312921E0
3.242884990E1,8.787640929E-1,-9.617950439E0,-1.791027784E0
3.244918240E1,8.524430394E-1,-9.608379364E0,-1.798206210E0
3.246957724E1,8.476574421E-1,-9.613164902E0,-1.850848317E0
3.248965917E1,8.811569214E-1,-9.617950439E0,-1.867598057E0
3.250992990E1,9.601200819E-1,-9.637093544E0,-1.848455548E0
3.253020047E1,1.024726272E0,-9.641879082E0,-1.848455548E0
3.255047099E1,1.086939692E0,-9.634700775E0,-1.834098577E0
3.257074151E1,1.130010486E0,-9.629914284E0,-1.850848317E0
3.259101203E1,1.134796143E0,-9.615557671E0,-1.848455548E0
3.261128250E1,1.094118118E0,-9.591629982E0,-1.862812400E0
3.263155292E1,1.122832060E0,-9.562915802E0,-1.869990945E0
3.265182328E1,1.156331539E0,-9.572486877E0,-1.901097536E0
3.267209370E1,1.118046403E0,-9.591629982E0,-1.913061738E0
3.269236411E1,1.036690354E0,-9.603593826E0,-1.884347796E0
3.271263448E1,1.024726272E0,-9.622735977E0,-1.877169371E0
3.273290484E1,1.017547846E0,-9.653842926E0,-1.869990945E0
3.275317521E1,1.005583763E0,-9.622735977E0,-1.860419631E0
3.277344557E1,1.007976532E0,-9.613164902E0,-1.865205288E0
3.279371589E1,9.672985673E-1,-9.613164902E0,-1.879562140E0
3.281398620E1,9.840483069E-1,-9.603593826E0,-1.889133453E0
3.283425656E1,9.888339639E-1,-9.605986595E0,-1.869990945E0
3.285452687E1,1.007976532E0,-9.620343208E0,-1.869990945E0
3.287492693E1,1.019940615E0,-9.586843491E0,-1.889133453E0
3.289506760E1,1.012762189E0,-9.591629982E0,-1.896311998E0
3.291533792E1,1.012762189E0,-9.582057953E0,-1.896311998E0
3.293560823E1,1.012762189E0,-9.567701340E0,-1.905883193E0
3.295587859E1,1.010369420E0,-9.594022751E0,-1.896311998E0
3.297614891E1,1.019940615E0,-9.622735977E0,-1.850848317E0
3.299641922E1,1.019940615E0,-9.646664619E0,-1.841277003E0
3.301682719E1,9.744769931E-1,-9.646664619E0,-1.812563181E0
3.303712411E1,9.720842242E-1,-9.641879082E0,-1.826920033E0
3.305737755E1,9.768698215E-1,-9.622735977E0,-1.848455548E0
3.307749266E1,1.017547846E0,-9.615557671E0,-1.853241086E0
3.309776453E1,1.017547846E0,-9.625128746E0,-1.869990945E0
3.311803620E1,9.816554785E-1,-9.620343208E0,-1.869990945E0
3.313830641E1,9.649057388E-1,-9.610772133E0,-1.872383714E0
3.315870745E1,9.912267923E-1,-9.610772133E0,-1.853241086E0
3.317884880E1,9.936196208E-1,-9.620343208E0,-1.865205288E0
3.319911984E1,9.960124493E-1,-9.615557671E0,-1.855633974E0
3.321939062E1,9.960124493E-1,-9.591629982E0,-1.853241086E0
3.323966088E1,1.007976532E0,-9.594022751E0,-1.865205288E0
3.326006135E1,1.007976532E0,-9.591629982E0,-1.901097536E0
3.328020234E1,1.015154958E0,-9.605986595E0,-1.893919110E0
3.330047266E1,9.936196208E-1,-9.594022751E0,-1.879562140E0
3.332087292E1,1.017547846E0,-9.620343208E0,-1.896311998E0
3.334101349E1,1.043868899E0,-9.639486313E0,-1.884347796E0
3.336141370E1,9.984052777E-1,-9.632308006E0,-1.879562140E0
3.338155448E1,9.888339639E-1,-9.617950439E0,-1.874776483E0
3.340182495E1,1.003190875E0,-9.598808289E0,-1.858026743E0
3.342209536E1,1.010369420E0,-9.613164902E0,-1.872383714E0
3.344236562E1,1.017547846E0,-9.605986595E0,-1.858026743E0
3.346263635E1,1.027119160E0,-9.622735977E0,-1.843669891E0
3.348290667E1,1.017547846E0,-9.615557671E0,-1.867598057E0
3.350317693E1,1.027119160E0,-9.586843491E0,-1.889133453E0
3.352344724E1,1.024726272E0,-9.594022751E0,-1.893919110E0
3.354371755E1,1.029511929E0,-9.608379364E0,-1.884347796E0
3.356398786E1,1.058225870E0,-9.608379364E0,-1.862812400E0
3.358425812E1,1.034297585E0,-9.617950439E0,-1.879562140E0
3.360452844E1,1.005583763E0,-9.637093544E0,-1.858026743E0
3.362479870E1,1.010369420E0,-9.637093544E0,-1.846062660E0
3.364506901E1,1.005583763E0,-9.617950439E0,-1.872383714E0
3.366533927E1,1.003190875E0,-9.598808289E0,-1.848455548E0
3.368560958E1,1.012762189E0,-9.603593826E0,-1.881955028E0
3.370587984E1,1.022333503E0,-9.615557671E0,-1.891526341E0
3.372615016E1,1.015154958E0,-9.617950439E0,-1.886740685E0
3.374653917E1,1.012762189E0,-9.627521515E0,-1.862812400E0
3.376684864E1,1.019940615E0,-9.594022751E0,-1.855633974E0
3.378711901E1,1.039083242E0,-9.615557671E0,-1.869990945E0
3.398452859E1,9.912267923E-1,-9.672985077E0,-1.831705689E0
3.400479885E1,9.625129104E-1,-9.653842926E0,-1.822134495E0
3.402506911E1,9.242277741E-1,-9.591629982E0,-1.817348838E0
3.404546911E1,9.290133715E-1,-9.562915802E0,-1.874776483E0
3.406576635E1,9.816554785E-1,-9.558130264E0,-1.932204247E0
3.408588359E1,1.063011408E0,-9.567701340E0,-1.932204247E0
3.410615089E1,1.086939692E0,-9.596415520E0,-1.903490424E0
3.412642052E1,1.048654556E0,-9.605986595E0,-1.860419631E0
3.414669073E1,1.029511929E0,-9.629914284E0,-1.855633974E0
3.416696094E1,1.034297585E0,-9.653842926E0,-1.822134495E0
3.418723125E1,1.043868899E0,-9.653842926E0,-1.807777524E0
3.420750146E1,1.048654556E0,-9.653842926E0,-1.817348838E0
3.422777172E1,1.010369420E0,-9.658628464E0,-1.846062660E0
3.424804198E1,9.768698215E-1,-9.615557671E0,-1.889133453E0
3.426831224E1,9.385846853E-1,-9.605986595E0,-1.908276081E0
3.428858250E1,9.242277741E-1,-9.601201057E0,-1.908276081E0
3.430885276E1,9.912267923E-1,-9.582057953E0,-1.903490424E0
3.432912297E1,1.019940615E0,-9.562915802E0,-1.903490424E0
3.434939323E1,1.029511929E0,-9.596415520E0,-1.927418590E0
3.436974219E1,1.053440213E0,-9.620343208E0,-1.913061738E0
3.438993380E1,1.067797065E0,-9.577272415E0,-1.889133453E0
3.441020406E1,1.063011408E0,-9.577272415E0,-1.884347796E0
3.443047427E1,9.960124493E-1,-9.615557671E0,-1.855633974E0
3.445074453E1,9.577272534E-1,-9.625128746E0,-1.836491346E0
3.447101474E1,9.864411354E-1,-9.625128746E0,-1.822134495E0
3.449128500E1,1.034297585E0,-9.610772133E0,-1.807777524E0
3.451155526E1,1.039083242E0,-9.596415520E0,-1.846062660E0
3.453182547E1,1.015154958E0,-9.605986595E0,-1.865205288E0
3.455209568E1,9.816554785E-1,-9.610772133E0,-1.846062660E0
3.457236588E1,1.000798106E0,-9.615557671E0,-1.831705689E0
3.459263614E1,1.010369420E0,-9.601201057E0,-1.812563181E0
3.461290635E1,1.005583763E0,-9.620343208E0,-1.798206210E0
3.463317661E1,9.816554785E-1,-9.639486313E0,-1.807777524E0
3.465344687E1,9.385846853E-1,-9.615557671E0,-1.817348838E0
3.467371708E1,9.002995491E-1,-9.601201057E0,-1.807777524E0
3.469398729E1,9.146564603E-1,-9.605986595E0,-1.807777524E0
3.471425750E1,9.433703423E-1,-9.629914284E0,-1.822134495E0
3.473452776E1,9.481559992E-1,-9.658628464E0,-1.855633974E0
3.475479797E1,9.529415965E-1,-9.653842926E0,-1.850848317E0
3.477506823E1,9.433703423E-1,-9.634700775E0,-1.822134495E0
3.479533844E1,9.625129104E-1,-9.625128746E0,-1.817348838E0
3.481560865E1,9.864411354E-1,-9.620343208E0,-1.826920033E0
3.483587885E1,9.912267923E-1,-9.620343208E0,-1.860419631E0
3.485614911E1,1.005583763E0,-9.629914284E0,-1.855633974E0
3.487641932E1,1.000798106E0,-9.615557671E0,-1.850848317E0
3.489668953E1,1.015154958E0,-9.610772133E0,-1.860419631E0
3.491695974E1,1.053440213E0,-9.601201057E0,-1.898704767E0
3.493723000E1,1.091725349E0,-9.591629982E0,-1.922633052E0
3.495750021E1,1.086939692E0,-9.596415520E0,-1.908276081E0
3.497777042E1,1.053440213E0,-9.615557671E0,-1.860419631E0
3.499804062E1,1.029511929E0,-9.620343208E0,-1.817348838E0
3.501831078E1,1.029511929E0,-9.615557671E0,-1.817348838E0
3.503858104E1,1.034297585E0,-9.620343208E0,-1.874776483E0
3.505898104E1,1.048654556E0,-9.591629982E0,-1.889133453E0
3.507912146E1,1.000798106E0,-9.567701340E0,-1.898704767E0
3.509939167E1,9.864411354E-1,-9.586843491E0,-1.903490424E0
3.511966187E1,1.005583763E0,-9.620343208E0,-1.884347796E0
3.513993208E1,1.010369420E0,-9.625128746E0,-1.874776483E0
3.516033208E1,9.529415965E-1,-9.610772133E0,-1.822134495E0
3.518047250E1,9.337990284E-1,-9.615557671E0,-1.798206210E0
3.520074271E1,9.816554785E-1,-9.644271851E0,-1.807777524E0
3.522101292E1,1.053440213E0,-9.653842926E0,-1.822134495E0
3.524128307E1,1.067797065E0,-9.634700775E0,-1.812563181E0
3.526168307E1,1.048654556E0,-9.620343208E0,-1.826920033E0
3.528182349E1,1.019940615E0,-9.596415520E0,-1.841277003E0
3.530209370E1,1.039083242E0,-9.596415520E0,-1.889133453E0
3.532236391E1,1.039083242E0,-9.601201057E0,-1.893919110E0
3.534263401E1,1.067797065E0,-9.605986595E0,-1.869990945E0
3.536303401E1,1.058225870E0,-9.615557671E0,-1.865205288E0
3.538317448E1,1.039083242E0,-9.610772133E0,-1.855633974E0
3.540344464E1,1.024726272E0,-9.629914284E0,-1.860419631E0
3.542371484E1,1.010369420E0,-9.620343208E0,-1.874776483E0
3.544398505E1,1.015154958E0,-9.605986595E0,-1.874776483E0
3.546425521E1,1.043868899E0,-9.596415520E0,-1.879562140E0
3.548452542E1,1.024726272E0,-9.601201057E0,-1.917847395E0
3.550479562E1,1.019940615E0,-9.620343208E0,-1.908276081E0
3.552506578E1,1.000798106E0,-9.605986595E0,-1.850848317E0
3.554533599E1,9.625129104E-1,-9.634700775E0,-1.855633974E0
3.556560620E1,9.912267923E-1,-9.658628464E0,-1.893919110E0
3.558587635E1,1.058225870E0,-9.582057953E0,-1.889133453E0
3.560614651E1,1.067797065E0,-9.582057953E0,-1.855633974E0
3.562641672E1,1.034297585E0,-9.582057953E0,-1.831705689E0
3.564668687E1,1.029511929E0,-9.534201622E0,-1.793420553E0
3.566695708E1,1.024726272E0,-9.548559189E0,-1.802991867E0
3.568722724E1,9.816554785E-1,-9.601201057E0,-1.855633974E0
3.570749745E1,9.337990284E-1,-9.615557671E0,-1.855633974E0
3.572776760E1,9.242277741E-1,-9.629914284E0,-1.779063582E0
3.574803781E1,9.577272534E-1,-9.653842926E0,-1.764706731E0
3.576830797E1,1.000798106E0,-9.682557106E0,-1.783849239E0
3.578857812E1,1.086939692E0,-9.658628464E0,-1.807777524E0
3.580884833E1,1.182652593E0,-9.649057388E0,-1.855633974E0
3.582911849E1,1.235294700E0,-9.639486313E0,-1.913061738E0
3.584938865E1,1.211366415E0,-9.605986595E0,-1.965703845E0
3.586965885E1,1.177866936E0,-9.567701340E0,-1.984846354E0
3.588992901E1,1.101296663E0,-9.582057953E0,-1.951346874E0
3.591019917E1,1.048654556E0,-9.582057953E0,-1.889133453E0
3.593046937E1,1.019940615E0,-9.586843491E0,-1.865205288E0
3.595073953E1,9.768698215E-1,-9.605986595E0,-1.850848317E0
3.597100969E1,9.337990284E-1,-9.615557671E0,-1.860419631E0
3.599127984E1,9.050851464E-1,-9.634700775E0,-1.841277003E0
3.601155000E1,9.433703423E-1,-9.620343208E0,-1.841277003E0
3.603182021E1,9.577272534E-1,-9.610772133E0,-1.841277003E0
3.605209036E1,9.960124493E-1,-9.610772133E0,-1.855633974E0
3.607236052E1,1.029511929E0,-9.605986595E0,-1.884347796E0
3.609263068E1,1.048654556E0,-9.605986595E0,-1.913061738E0
3.611290083E1,1.086939692E0,-9.605986595E0,-1.903490424E0
3.613317099E1,1.120439172E0,-9.605986595E0,-1.874776483E0
3.615344114E1,1.173081279E0,-9.625128746E0,-1.889133453E0
3.617371130E1,1.254437327E0,-9.553344727E0,-1.889133453E0
3.619398146E1,1.240080357E0,-9.515059471E0,-1.893919110E0
3.621425161E1,1.197009563E0,-9.596415520E0,-1.884347796E0
3.623452177E1,1.077368379E0,-9.605986595E0,-1.860419631E0
3.625479193E1,9.960124493E-1,-9.586843491E0,-1.846062660E0
3.627506208E1,9.529415965E-1,-9.625128746E0,-1.822134495E0
3.629533219E1,9.098708034E-1,-9.677771568E0,-1.798206210E0
3.631560240E1,8.907282352E-1,-9.682557106E0,-1.783849239E0
3.633587255E1,8.380861282E-1,-9.663414001E0,-1.779063582E0
3.635614266E1,8.333004713E-1,-9.644271851E0,-1.831705689E0
3.637641281E1,8.285148144E-1,-9.615557671E0,-1.884347796E0
3.639668297E1,8.811569214E-1,-9.605986595E0,-1.869990945E0
3.641695312E1,9.481559992E-1,-9.591629982E0,-1.869990945E0
3.643722328E1,1.024726272E0,-9.591629982E0,-1.884347796E0
3.645745406E1,1.077368379E0,-9.601201057E0,-1.913061738E0
3.647776349E1,1.168295622E0,-9.605986595E0,-1.884347796E0
3.649803364E1,1.197009563E0,-9.577272415E0,-1.855633974E0
3.651830375E1,1.220937729E0,-9.572486877E0,-1.879562140E0
3.653857396E1,1.244866014E0,-9.605986595E0,-1.908276081E0
3.655897396E1,1.268794179E0,-9.610772133E0,-1.908276081E0
3.657911422E1,1.259222865E0,-9.601201057E0,-1.855633974E0
3.659938437E1,1.211366415E0,-9.620343208E0,-1.850848317E0
3.661965453E1,1.144367456E0,-9.601201057E0,-1.865205288E0
3.663992464E1,1.091725349E0,-9.586843491E0,-1.865205288E0
3.666032464E1,1.067797065E0,-9.610772133E0,-1.846062660E0
3.668046490E1,1.043868899E0,-9.620343208E0,-1.850848317E0
3.670073505E1,1.034297585E0,-9.615557671E0,-1.860419631E0
3.672100521E1,1.029511929E0,-9.629914284E0,-1.865205288E0
3.674127531E1,1.034297585E0,-9.625128746E0,-1.860419631E0
3.676167531E1,1.034297585E0,-9.620343208E0,-1.850848317E0
3.678181557E1,1.034297585E0,-9.591629982E0,-1.889133453E0
3.680208568E1,1.058225870E0,-9.605986595E0,-1.879562140E0
3.682235583E1,1.091725349E0,-9.620343208E0,-1.874776483E0
3.684262594E1,1.115653515E0,-9.586843491E0,-1.836491346E0
3.686289604E1,1.115653515E0,-9.586843491E0,-1.822134495E0
3.688316620E1,1.106082320E0,-9.615557671E0,-1.841277003E0
3.690343630E1,1.101296663E0,-9.620343208E0,-1.874776483E0
3.692370646E1,1.091725349E0,-9.620343208E0,-1.898704767E0
3.694397656E1,1.072582722E0,-9.615557671E0,-1.889133453E0
3.696424667E1,1.072582722E0,-9.625128746E0,-1.889133453E0
3.698451682E1,1.024726272E0,-9.649057388E0,-1.846062660E0
3.700478693E1,1.034297585E0,-9.610772133E0,-1.817348838E0
3.702505703E1,1.091725349E0,-9.586843491E0,-1.826920033E0
3.704532714E1,1.106082320E0,-9.582057953E0,-1.893919110E0
3.706559729E1,1.120439172E0,-9.572486877E0,-1.941775560E0
3.708586740E1,1.082154036E0,-9.572486877E0,-1.913061738E0
3.710613750E1,9.768698215E-1,-9.567701340E0,-1.869990945E0
3.712640760E1,8.524430394E-1,-9.625128746E0,-1.841277003E0
3.714667771E1,7.950153351E-1,-9.687342644E0,-1.841277003E0
3.716694786E1,8.476574421E-1,-9.658628464E0,-1.807777524E0
3.718721797E1,9.481559992E-1,-9.610772133E0,-1.788634896E0
3.720748807E1,9.672985673E-1,-9.605986595E0,-1.807777524E0
3.722775818E1,9.002995491E-1,-9.663414001E0,-1.822134495E0
3.724802828E1,8.763712645E-1,-9.601201057E0,-1.836491346E0
3.726829838E1,8.763712645E-1,-9.582057953E0,-1.836491346E0
3.728856849E1,9.672985673E-1,-9.639486313E0,-1.855633974E0
3.730883859E1,1.043868899E0,-9.653842926E0,-1.865205288E0
3.732910870E1,1.058225870E0,-9.639486313E0,-1.826920033E0
3.734937880E1,1.024726272E0,-9.629914284E0,-1.798206210E0
3.736964891E1,1.058225870E0,-9.620343208E0,-1.812563181E0
3.738991901E1,1.130010486E0,-9.601201057E0,-1.879562140E0
3.741018911E1,1.158724308E0,-9.558130264E0,-1.936989903E0
3.743045922E1,1.130010486E0,-9.538987160E0,-1.936989903E0
3.745072932E1,1.029511929E0,-9.577272415E0,-1.941775560E0
3.747099943E1,9.529415965E-1,-9.577272415E0,-1.884347796E0
3.749126953E1,9.002995491E-1,-9.596415520E0,-1.807777524E0
3.751153964E1,8.715856671E-1,-9.658628464E0,-1.759921074E0
3.753180969E1,9.481559992E-1,-9.649057388E0,-1.726421595E0
3.755207979E1,1.043868899E0,-9.634700775E0,-1.740778446E0
3.757234990E1,1.072582722E0,-9.653842926E0,-1.731207132E0
3.759262000E1,1.058225870E0,-9.687342644E0,-1.735992789E0
3.761302000E1,1.110867858E0,-9.672985077E0,-1.726421595E0
3.763316016E1,1.163509965E0,-9.668199539E0,-1.702493310E0
3.765343026E1,1.182652593E0,-9.677771568E0,-1.721635938E0
3.767370036E1,1.149153113E0,-9.672985077E0,-1.750349760E0
3.769397047E1,1.115653515E0,-9.644271851E0,-1.798206210E0
3.771424052E1,1.067797065E0,-9.601201057E0,-1.807777524E0
3.773451062E1,1.034297585E0,-9.572486877E0,-1.802991867E0
3.775478073E1,1.043868899E0,-9.567701340E0,-1.841277003E0
3.777505078E1,1.010369420E0,-9.567701340E0,-1.898704767E0
3.779532088E1,9.337990284E-1,-9.548559189E0,-1.903490424E0
3.781559099E1,8.811569214E-1,-9.586843491E0,-1.903490424E0
3.783599099E1,8.668000102E-1,-9.620343208E0,-1.908276081E0
3.785613109E1,8.763712645E-1,-9.653842926E0,-1.836491346E0
3.787640125E1,8.811569214E-1,-9.701699257E0,-1.759921074E0
3.789667130E1,9.290133715E-1,-9.663414001E0,-1.759921074E0
3.791694141E1,9.864411354E-1,-9.596415520E0,-1.846062660E0
3.793721141E1,1.029511929E0,-9.572486877E0,-1.903490424E0
3.795748156E1,1.072582722E0,-9.572486877E0,-1.917847395E0
3.797775167E1,1.096511006E0,-9.577272415E0,-1.903490424E0
3.799802172E1,1.120439172E0,-9.615557671E0,-1.927418590E0
3.801829177E1,1.106082320E0,-9.634700775E0,-1.869990945E0
3.803856187E1,1.091725349E0,-9.596415520E0,-1.812563181E0
3.805896187E1,1.063011408E0,-9.577272415E0,-1.812563181E0
3.807910203E1,1.058225870E0,-9.596415520E0,-1.831705689E0
3.809937208E1,1.039083242E0,-9.634700775E0,-1.822134495E0
3.811964219E1,9.625129104E-1,-9.696913719E0,-1.802991867E0
3.813991224E1,8.955138922E-1,-9.682557106E0,-1.783849239E0
3.816031224E1,9.146564603E-1,-9.634700775E0,-1.826920033E0
3.818045240E1,9.816554785E-1,-9.567701340E0,-1.917847395E0
3.820072245E1,1.072582722E0,-9.534201622E0,-1.970489502E0
3.822099255E1,1.153938770E0,-9.553344727E0,-1.922633052E0
3.824126260E1,1.158724308E0,-9.582057953E0,-1.889133453E0
3.826166260E1,1.125224829E0,-9.567701340E0,-1.869990945E0
3.828180276E1,1.106082320E0,-9.577272415E0,-1.855633974E0
3.830207281E1,1.149153113E0,-9.649057388E0,-1.822134495E0
3.832234297E1,1.173081279E0,-9.658628464E0,-1.836491346E0
3.834261292E1,1.125224829E0,-9.625128746E0,-1.889133453E0
3.836301292E1,1.120439172E0,-9.591629982E0,-1.917847395E0
3.838315307E1,1.182652593E0,-9.601201057E0,-1.941775560E0
3.840342312E1,1.235294700E0,-9.605986595E0,-1.922633052E0
3.842369318E1,1.163509965E0,-9.610772133E0,-1.893919110E0
3.844396323E1,1.067797065E0,-9.610772133E0,-1.869990945E0
3.846423333E1,1.058225870E0,-9.577272415E0,-1.869990945E0
3.848450339E1,1.101296663E0,-9.567701340E0,-1.874776483E0
3.850477344E1,1.144367456E0,-9.596415520E0,-1.860419631E0
3.852504349E1,1.134796143E0,-9.629914284E0,-1.884347796E0
3.854531354E1,1.115653515E0,-9.605986595E0,-1.860419631E0
3.856558359E1,1.096511006E0,-9.591629982E0,-1.850848317E0
3.858585364E1,1.115653515E0,-9.605986595E0,-1.865205288E0
3.860612370E1,1.106082320E0,-9.596415520E0,-1.855633974E0
3.862639375E1,1.072582722E0,-9.605986595E0,-1.850848317E0
3.864666380E1,1.048654556E0,-9.620343208E0,-1.817348838E0
3.866693385E1,1.015154958E0,-9.610772133E0,-1.802991867E0
3.868720391E1,9.912267923E-1,-9.629914284E0,-1.817348838E0
3.870747396E1,1.019940615E0,-9.644271851E0,-1.865205288E0
3.872774401E1,1.058225870E0,-9.639486313E0,-1.893919110E0
3.874801411E1,1.082154036E0,-9.610772133E0,-1.874776483E0
3.876828411E1,1.063011408E0,-9.605986595E0,-1.850848317E0
3.878855422E1,1.034297585E0,-9.639486313E0,-1.846062660E0
3.880882427E1,9.816554785E-1,-9.634700775E0,-1.783849239E0
3.882909432E1,9.816554785E-1,-9.629914284E0,-1.755135417E0
3.884936432E1,1.005583763E0,-9.629914284E0,-1.764706731E0
3.886963437E1,1.019940615E0,-9.605986595E0,-1.841277003E0
3.888990443E1,1.005583763E0,-9.610772133E0,-1.855633974E0
3.891017448E1,9.816554785E-1,-9.601201057E0,-1.798206210E0
3.893044453E1,9.625129104E-1,-9.605986595E0,-1.783849239E0
3.895071458E1,9.385846853E-1,-9.605986595E0,-1.764706731E0
3.897098458E1,9.337990284E-1,-9.610772133E0,-1.774278045E0
3.899125464E1,9.529415965E-1,-9.620343208E0,-1.774278045E0
3.901152469E1,9.720842242E-1,-9.634700775E0,-1.774278045E0
3.903179474E1,9.912267923E-1,-9.658628464E0,-1.759921074E0
3.905206479E1,9.912267923E-1,-9.663414001E0,-1.740778446E0
3.907233479E1,9.481559992E-1,-9.663414001E0,-1.731207132E0
3.909260479E1,9.337990284E-1,-9.629914284E0,-1.769492388E0
3.911287490E1,9.768698215E-1,-9.625128746E0,-1.812563181E0
3.913314495E1,1.000798106E0,-9.605986595E0,-1.831705689E0
3.915341495E1,1.015154958E0,-9.615557671E0,-1.812563181E0
3.917368500E1,1.000798106E0,-9.629914284E0,-1.793420553E0
3.919395505E1,9.960124493E-1,-9.639486313E0,-1.779063582E0
3.921422510E1,1.010369420E0,-9.615557671E0,-1.793420553E0
3.923449510E1,1.010369420E0,-9.601201057E0,-1.807777524E0
3.925476516E1,1.024726272E0,-9.634700775E0,-1.798206210E0
3.927503521E1,1.000798106E0,-9.649057388E0,-1.779063582E0
3.929530521E1,9.768698215E-1,-9.639486313E0,-1.822134495E0
3.931557526E1,9.481559992E-1,-9.629914284E0,-1.807777524E0
3.933584526E1,9.720842242E-1,-9.634700775E0,-1.779063582E0
3.935611531E1,9.720842242E-1,-9.629914284E0,-1.793420553E0
3.937638536E1,9.768698215E-1,-9.639486313E0,-1.802991867E0
3.939665536E1,1.010369420E0,-9.639486313E0,-1.802991867E0
3.941692542E1,1.015154958E0,-9.629914284E0,-1.798206210E0
3.943719542E1,9.720842242E-1,-9.634700775E0,-1.793420553E0
3.945746547E1,9.672985673E-1,-9.625128746E0,-1.793420553E0
3.947773547E1,9.768698215E-1,-9.610772133E0,-1.807777524E0
3.949800552E1,9.672985673E-1,-9.605986595E0,-1.826920033E0
3.951827552E1,9.864411354E-1,-9.629914284E0,-1.822134495E0
3.953854557E1,9.816554785E-1,-9.615557671E0,-1.802991867E0
3.955894557E1,9.816554785E-1,-9.610772133E0,-1.817348838E0
3.957908562E1,9.768698215E-1,-9.605986595E0,-1.822134495E0
3.959935562E1,9.912267923E-1,-9.605986595E0,-1.812563181E0
3.961962568E1,9.912267923E-1,-9.601201057E0,-1.822134495E0
3.963989568E1,1.000798106E0,-9.615557671E0,-1.812563181E0
3.966029568E1,1.015154958E0,-9.620343208E0,-1.812563181E0
3.968043573E1,1.029511929E0,-9.610772133E0,-1.817348838E0
3.970070578E1,1.010369420E0,-9.615557671E0,-1.826920033E0
3.972097578E1,1.015154958E0,-9.620343208E0,-1.807777524E0
3.974124578E1,9.960124493E-1,-9.625128746E0,-1.788634896E0
3.976164578E1,9.672985673E-1,-9.658628464E0,-1.783849239E0
3.978178583E1,9.242277741E-1,-9.653842926E0,-1.783849239E0
3.980205588E1,9.290133715E-1,-9.634700775E0,-1.783849239E0
3.982232589E1,9.385846853E-1,-9.625128746E0,-1.802991867E0
3.984259588E1,9.481559992E-1,-9.663414001E0,-1.793420553E0
3.986286589E1,9.529415965E-1,-9.653842926E0,-1.779063582E0
3.988313594E1,9.768698215E-1,-9.634700775E0,-1.764706731E0
3.990340594E1,9.577272534E-1,-9.644271851E0,-1.783849239E0
3.992367594E1,9.481559992E-1,-9.658628464E0,-1.793420553E0
3.994394594E1,9.433703423E-1,-9.634700775E0,-1.788634896E0
3.996421599E1,9.529415965E-1,-9.596415520E0,-1.802991867E0
3.998448599E1,9.577272534E-1,-9.601201057E0,-1.841277003E0
4.000475599E1,9.960124493E-1,-9.610772133E0,-1.884347796E0
4.002502594E1,1.005583763E0,-9.596415520E0,-1.860419631E0
4.004529599E1,1.010369420E0,-9.601201057E0,-1.855633974E0
4.006556599E1,9.672985673E-1,-9.644271851E0,-1.817348838E0
4.008583604E1,9.194421172E-1,-9.677771568E0,-1.759921074E0
4.010610599E1,9.290133715E-1,-9.629914284E0,-1.759921074E0
4.012637604E1,9.672985673E-1,-9.601201057E0,-1.788634896E0
4.014664604E1,1.015154958E0,-9.605986595E0,-1.879562140E0
4.016691604E1,1.063011408E0,-9.610772133E0,-1.893919110E0
4.018718604E1,1.015154958E0,-9.605986595E0,-1.855633974E0
4.020745604E1,9.577272534E-1,-9.601201057E0,-1.822134495E0
4.022772604E1,9.290133715E-1,-9.639486313E0,-1.788634896E0
4.024799604E1,9.577272534E-1,-9.649057388E0,-1.759921074E0
4.026826604E1,9.864411354E-1,-9.629914284E0,-1.759921074E0
4.028853604E1,9.960124493E-1,-9.620343208E0,-1.798206210E0
4.030880604E1,9.816554785E-1,-9.610772133E0,-1.822134495E0
4.032907604E1,9.816554785E-1,-9.615557671E0,-1.836491346E0
4.034934604E1,9.768698215E-1,-9.625128746E0,-1.836491346E0
4.036961604E1,9.768698215E-1,-9.625128746E0,-1.807777524E0
4.038988609E1,1.010369420E0,-9.634700775E0,-1.798206210E0
4.041015609E1,1.010369420E0,-9.615557671E0,-1.793420553E0
4.043042609E1,9.768698215E-1,-9.605986595E0,-1.817348838E0
4.045069609E1,9.960124493E-1,-9.620343208E0,-1.826920033E0
4.047096609E1,9.912267923E-1,-9.625128746E0,-1.802991867E0
4.049123609E1,9.720842242E-1,-9.634700775E0,-1.802991867E0
4.051150609E1,9.720842242E-1,-9.644271851E0,-1.812563181E0
4.053177609E1,9.529415965E-1,-9.625128746E0,-1.807777524E0
4.055204604E1,9.433703423E-1,-9.610772133E0,-1.783849239E0
4.057231609E1,9.385846853E-1,-9.644271851E0,-1.788634896E0
4.059258609E1,9.529415965E-1,-9.672985077E0,-1.779063582E0
4.061298609E1,9.481559992E-1,-9.663414001E0,-1.764706731E0
4.063312609E1,9.529415965E-1,-9.644271851E0,-1.774278045E0
4.065339609E1,9.337990284E-1,-9.615557671E0,-1.783849239E0
4.067366609E1,9.912267923E-1,-9.615557671E0,-1.836491346E0
4.069393609E1,1.067797065E0,-9.605986595E0,-1.874776483E0
4.071420609E1,1.091725349E0,-9.582057953E0,-1.893919110E0
4.073447609E1,1.053440213E0,-9.572486877E0,-1.884347796E0
4.075474609E1,9.960124493E-1,-9.582057953E0,-1.841277003E0
4.077501609E1,1.015154958E0,-9.610772133E0,-1.807777524E0
4.079528609E1,1.039083242E0,-9.653842926E0,-1.802991867E0
4.081555609E1,1.048654556E0,-9.634700775E0,-1.807777524E0
4.083582609E1,1.019940615E0,-9.601201057E0,-1.798206210E0
4.085609609E1,9.960124493E-1,-9.596415520E0,-1.802991867E0
4.087636609E1,9.768698215E-1,-9.596415520E0,-1.841277003E0
4.089663609E1,9.864411354E-1,-9.596415520E0,-1.869990945E0
4.091690609E1,1.005583763E0,-9.596415520E0,-1.850848317E0
4.093717609E1,9.864411354E-1,-9.605986595E0,-1.836491346E0
4.095744609E1,9.481559992E-1,-9.605986595E0,-1.841277003E0
4.097771609E1,9.194421172E-1,-9.620343208E0,-1.836491346E0
4.099798609E1,9.337990284E-1,-9.677771568E0,-1.817348838E0
4.101825609E1,9.577272534E-1,-9.711270332E0,-1.783849239E0
4.103852604E1,9.912267923E-1,-9.687342644E0,-1.759921074E0
4.105892604E1,1.024726272E0,-9.668199539E0,-1.807777524E0
4.107906609E1,1.039083242E0,-9.644271851E0,-1.836491346E0
4.109933609E1,1.077368379E0,-9.605986595E0,-1.855633974E0
4.111960609E1,1.091725349E0,-9.596415520E0,-1.860419631E0
4.113987609E1,1.096511006E0,-9.586843491E0,-1.860419631E0
4.116027609E1,1.063011408E0,-9.605986595E0,-1.865205288E0
4.118041614E1,1.034297585E0,-9.605986595E0,-1.841277003E0
4.120068615E1,1.019940615E0,-9.591629982E0,-1.836491346E0
4.122095614E1,1.048654556E0,-9.596415520E0,-1.846062660E0
4.124122615E1,1.096511006E0,-9.596415520E0,-1.850848317E0
4.126162614E1,1.144367456E0,-9.572486877E0,-1.879562140E0
4.128176620E1,1.149153113E0,-9.605986595E0,-1.903490424E0
4.130203620E1,1.096511006E0,-9.620343208E0,-1.889133453E0
4.132230625E1,1.024726272E0,-9.596415520E0,-1.841277003E0
4.134257625E1,1.039083242E0,-9.591629982E0,-1.822134495E0
4.136297625E1,1.058225870E0,-9.639486313E0,-1.846062660E0
4.138311630E1,1.067797065E0,-9.639486313E0,-1.860419631E0
4.140338630E1,1.086939692E0,-9.605986595E0,-1.822134495E0
4.142365635E1,1.149153113E0,-9.620343208E0,-1.841277003E0
4.144392635E1,1.220937729E0,-9.620343208E0,-1.903490424E0
4.146419635E1,1.244866014E0,-9.601201057E0,-1.927418590E0
4.148446641E1,1.220937729E0,-9.605986595E0,-1.903490424E0
4.150473646E1,1.173081279E0,-9.567701340E0,-1.884347796E0
4.152500646E1,1.120439172E0,-9.567701340E0,-1.879562140E0
4.154527651E1,1.082154036E0,-9.591629982E0,-1.889133453E0
4.156554656E1,1.053440213E0,-9.625128746E0,-1.889133453E0
4.158581661E1,1.000798106E0,-9.629914284E0,-1.841277003E0
4.160608667E1,9.290133715E-1,-9.653842926E0,-1.802991867E0
4.162635667E1,8.668000102E-1,-9.663414001E0,-1.802991867E0
4.164662672E1,8.524430394E-1,-9.649057388E0,-1.812563181E0
4.166689677E1,8.524430394E-1,-9.620343208E0,-1.812563181E0
4.168716682E1,8.859425783E-1,-9.620343208E0,-1.836491346E0
4.170743693E1,9.385846853E-1,-9.615557671E0,-1.869990945E0
4.172770693E1,9.577272534E-1,-9.639486313E0,-1.869990945E0
4.174797703E1,9.385846853E-1,-9.605986595E0,-1.860419631E0
