"Time (s)","Acceleration x (m/s^2)","Acceleration y (m/s^2)","Acceleration z (m/s^2)"
2.641252100E-2,-3.190899849E0,3.652249098E0,8.523474693E0
4.671283300E-2,-3.000469923E0,3.522533894E0,8.646347046E0
6.696804200E-2,-2.774601460E0,3.382767439E0,8.776608467E0
8.708481300E-2,-2.608641863E0,3.229499102E0,8.884576797E0
1.073580420E-1,-2.476208448E0,3.063040733E0,8.980898857E0
1.276308540E-1,-2.302255392E0,2.850254536E0,9.096486092E0
1.479017400E-1,-2.021371603E0,2.559151173E0,9.248523712E0
1.683033020E-1,-1.647878289E0,2.183917522E0,9.417291641E0
1.884463750E-1,-1.222125530E0,1.738557220E0,9.573620796E0
2.087182500E-1,-7.805204988E-1,1.271981001E0,9.692432404E0
2.289899170E-1,-3.961377740E-1,8.628351092E-1,9.760582924E0
2.492614270E-1,-8.270580322E-2,5.460634828E-1,9.791085243E0
2.695328860E-1,1.417364478E-1,2.933152318E-1,9.801239014E0
2.898042920E-1,4.306766093E-1,6.259409338E-2,9.796988487E0
3.100755420E-1,6.650697589E-1,-1.522446424E-1,9.782887459E0
3.303466360E-1,6.545296311E-1,-3.406729698E-1,9.778850555E0
3.506177290E-1,6.101433039E-1,-5.172037482E-1,9.773976326E0
3.708889270E-1,6.320850253E-1,-7.014315724E-1,9.761088371E0
3.911599690E-1,6.154570580E-1,-8.785048723E-1,9.747811317E0
4.114310110E-1,3.872366250E-1,-1.072664618E0,9.740115166E0
4.317020520E-1,-6.464522332E-2,-1.329651237E0,9.715875626E0
4.519729900E-1,-7.651544213E-1,-1.640907168E0,9.638068199E0
4.723730940E-1,-1.792992711E0,-1.917499423E0,9.448744774E0
4.925149690E-1,-2.685320377E0,-2.026916981E0,9.211462975E0
5.127859580E-1,-3.146033049E0,-1.907248378E0,9.090394020E0
5.330568960E-1,-3.318424702E0,-1.627278447E0,9.083523750E0
5.533278860E-1,-3.481702805E0,-1.342888236E0,9.068890572E0
5.735988230E-1,-3.646438360E0,-1.054185033E0,9.042265892E0
5.938698130E-1,-3.817315817E0,-9.002757072E-1,8.988214493E0
6.141407500E-1,-4.001869678E0,-9.820399284E-1,8.898934364E0
6.344116360E-1,-4.217317581E0,-1.232517600E0,8.767297745E0
6.546825730E-1,-4.608540058E0,-1.527629852E0,8.520451546E0
6.749535110E-1,-5.157399654E0,-1.715421319E0,8.162655830E0
6.952244480E-1,-5.696666241E0,-1.793295741E0,7.778333187E0
7.154953860E-1,-6.096304417E0,-1.851936579E0,7.454917431E0
7.357662710E-1,-6.411767006E0,-1.958183646E0,7.157174110E0
7.560372080E-1,-6.726459503E0,-2.079873800E0,6.826365471E0
7.763080940E-1,-6.981488228E0,-2.130427122E0,6.549082756E0
7.967057500E-1,-7.083960056E0,-2.123065710E0,6.440536022E0
8.170142920E-1,-7.080623627E0,-2.080727339E0,6.457996845E0
8.372839790E-1,-7.140713692E0,-1.989394426E0,6.420506954E0
8.575382500E-1,-7.232230186E0,-1.851117849E0,6.359135151E0
8.776541360E-1,-7.312636852E0,-1.768260837E0,6.290387630E0
8.979249170E-1,-7.373066425E0,-1.763873219E0,6.220693111E0
9.183267920E-1,-7.591491699E0,-1.809994578E0,5.938313961E0
9.384685110E-1,-7.848678589E0,-1.905636787E0,5.562119961E0
9.588699690E-1,-8.072393417E0,-2.075145960E0,5.167263985E0
9.790128860E-1,-8.213627815E0,-2.310280800E0,4.834182262E0
9.992846560E-1,-8.331263542E0,-2.568416834E0,4.490396976E0
1.019556271E0,-8.370736122E0,-2.794715881E0,4.276766300E0
1.039827104E0,-8.380297661E0,-2.913235664E0,4.177805424E0
1.060227729E0,-8.294604301E0,-2.867035389E0,4.376073360E0
1.080369969E0,-8.100884438E0,-2.571918964E0,4.891963482E0
1.100641271E0,-7.878258228E0,-1.962901950E0,5.500040531E0
1.120912469E0,-7.702303886E0,-1.086132407E0,5.972036839E0
1.141183354E0,-7.503641605E0,-1.577035636E-1,6.311963081E0
1.161583563E0,-7.184056282E0,5.193752050E-1,6.655071735E0
1.181725542E0,-6.767214775E0,7.266024351E-1,7.060259342E0
1.201996636E0,-6.344083786E0,4.003248513E-1,7.467443466E0
1.222267625E0,-5.871751785E0,-2.559919059E-1,7.850311279E0
1.242538511E0,-5.542755604E0,-1.096534371E0,8.015351295E0
1.262938615E0,-5.450122833E0,-1.930191875E0,7.920917034E0
1.283080490E0,-5.394577503E0,-2.709262133E0,7.728441238E0
1.303351479E0,-5.479381084E0,-3.472758532E0,7.354366779E0
1.323622469E0,-5.633354187E0,-4.122769356E0,6.887560368E0
1.343893354E0,-5.861478329E0,-4.634215832E0,6.351180553E0
1.364293354E0,-6.071195602E0,-5.029518604E0,5.832229614E0
1.384435229E0,-6.257122517E0,-5.306240559E0,5.372394085E0
1.404706167E0,-6.470849514E0,-5.466771126E0,4.940941811E0
1.424977104E0,-6.722225666E0,-5.509610176E0,4.541616440E0
1.445247938E0,-7.005831718E0,-5.444050789E0,4.177441120E0
1.465518979E0,-7.352871418E0,-5.233533382E0,3.836118460E0
1.485918979E0,-7.729255676E0,-4.912233353E0,3.506987095E0
1.506218719E0,-8.025488853E0,-4.612740040E0,3.237987280E0
1.526332313E0,-8.198612213E0,-4.390392303E0,3.110886812E0
1.546732313E0,-8.341010094E0,-4.150152206E0,3.061728954E0
1.567031896E0,-8.459477425E0,-3.956321239E0,2.992513418E0
1.587145438E0,-8.517175674E0,-3.870459557E0,2.940689564E0
1.607545438E0,-8.582586288E0,-3.723484755E0,2.940280914E0
1.627687104E0,-8.689878464E0,-3.445431471E0,2.964019775E0
1.648087104E0,-8.839523315E0,-3.091244698E0,2.911601543E0
1.668228719E0,-8.912980080E0,-2.928330421E0,2.855531216E0
1.688499604E0,-8.951164246E0,-2.886855125E0,2.777245522E0
1.708770386E0,-9.028383255E0,-2.751872540E0,2.661931276E0
1.729041219E0,-9.117957115E0,-2.608495951E0,2.495795965E0
1.749441219E0,-9.213850975E0,-2.480959415E0,2.262776852E0
1.769582990E0,-9.310645103E0,-2.386607409E0,1.945860624E0
1.789853875E0,-9.376403809E0,-2.391972065E0,1.591191411E0
1.810253875E0,-9.420143127E0,-2.450892210E0,1.193483591E0
1.830395698E0,-9.458769798E0,-2.449048042E0,8.391744494E-1
1.850795698E0,-9.488902092E0,-2.405785084E0,5.859374404E-1
1.870937573E0,-9.501640320E0,-2.393416882E0,4.009562135E-1
1.891208511E0,-9.503942490E0,-2.403803825E0,2.592178285E-1
1.911479396E0,-9.511079788E0,-2.385455608E0,1.391206831E-1
1.931750333E0,-9.522392273E0,-2.343883038E0,2.542196959E-2
1.952019344E0,-9.547342300E0,-2.239273071E0,-6.553740799E-2
1.972291583E0,-9.605300903E0,-1.975074172E0,-8.751835674E-2
1.992562625E0,-9.684485435E0,-1.541090488E0,-7.846754789E-2
2.012833667E0,-9.755547523E0,-9.994311929E-1,-2.822876535E-2
2.033104761E0,-9.797826767E0,-4.154907763E-1,1.893597655E-2
2.053375802E0,-9.804956436E0,3.650818020E-2,1.785342693E-1
2.073646740E0,-9.796050072E0,1.868528128E-1,4.157820642E-1
2.094046792E0,-9.783082962E0,-1.430597454E-1,6.642335653E-1
2.114188771E0,-9.754718781E0,-8.445587754E-1,5.500496626E-1
2.134459813E0,-9.637738228E0,-1.783574581E0,3.213229477E-1
2.154730802E0,-9.392160416E0,-2.820421219E0,-5.431244895E-2
2.175001844E0,-8.999762535E0,-3.876159906E0,-3.873698711E-1
2.195272781E0,-8.492768288E0,-4.887557983E0,-3.937546909E-1
2.215543771E0,-7.879992962E0,-5.832451344E0,-2.420881242E-1
2.235814761E0,-7.189760685E0,-6.661741257E0,-3.145180643E-1
2.256085698E0,-6.554968834E0,-7.256315708E0,-7.407082319E-1
2.276491688E0,-6.140472412E0,-7.577176094E0,-1.025376558E0
2.296754917E0,-5.958151340E0,-7.736496925E0,-9.041179419E-1
2.317063615E0,-5.897531033E0,-7.798879623E0,-7.529825568E-1
2.337333354E0,-5.787609100E0,-7.879093170E0,-7.706212401E-1
2.357603354E0,-5.673027039E0,-7.952149868E0,-8.662885427E-1
2.377857729E0,-5.588594437E0,-8.013895988E0,-8.458529115E-1
2.397973875E0,-5.501729488E0,-8.084521294E0,-7.361350656E-1
2.418246636E0,-5.406044960E0,-8.155572891E0,-6.570336819E-1
2.438517521E0,-5.328582764E0,-8.206217766E0,-6.592292190E-1
2.458919083E0,-5.317608356E0,-8.209383965E0,-7.067186236E-1
2.479062261E0,-5.342858315E0,-8.196635246E0,-6.628872752E-1
2.499333854E0,-5.276782990E0,-8.247763634E0,-5.480322838E-1
2.519605572E0,-4.908247948E0,-8.479642868E0,-4.184959233E-1
2.539876614E0,-4.225491047E0,-8.833377838E0,-5.357639790E-1
2.560277239E0,-3.895576000E0,-8.981891632E0,-5.661291480E-1
2.580419739E0,-3.876032591E0,-8.990838051E0,-5.582016706E-1
2.600691145E0,-3.919138908E0,-8.969181061E0,-6.037542224E-1
2.620962499E0,-3.994372845E0,-8.932718277E0,-6.495335698E-1
2.641233489E0,-4.084421158E0,-8.893198013E0,-6.316026449E-1
2.661633749E0,-4.178097725E0,-8.840860367E0,-7.436905503E-1
2.681775989E0,-4.208337784E0,-8.821970940E0,-7.956795692E-1
2.702047187E0,-4.223061085E0,-8.817722321E0,-7.641398311E-1
2.722318333E0,-4.182847500E0,-8.845088005E0,-6.622593999E-1
2.742589374E0,-4.085119247E0,-8.896788597E0,-5.738725066E-1
2.762989479E0,-3.955849171E0,-8.958779335E0,-5.117709637E-1
2.783131562E0,-3.813347101E0,-9.024048805E0,-4.419589043E-1
2.803402656E0,-3.626810074E0,-9.102787018E0,-3.948496580E-1
2.823810677E0,-3.299892426E0,-9.220181465E0,-5.189781189E-1
2.844109166E0,-2.831900120E0,-9.351390839E0,-8.379875422E-1
2.864363385E0,-2.413673401E0,-9.441852570E0,-1.093618393E0
2.884479218E0,-2.015478611E0,-9.519677162E0,-1.218185663E0
2.904751822E0,-1.688704133E0,-9.582275391E0,-1.224195361E0
2.925024166E0,-1.438417315E0,-9.599882126E0,-1.394127965E0
2.945295104E0,-1.276632786E0,-9.568078995E0,-1.729875445E0
2.965571614E0,-1.142940521E0,-9.562808990E0,-1.848450780E0
2.985842552E0,-6.270362139E-1,-9.611160278E0,-1.844670296E0
3.006113593E0,-8.448814601E-2,-9.635139465E0,-1.824098110E0
3.026463333E0,2.463241667E-1,-9.629582405E0,-1.838710308E0
3.046813281E0,5.228902698E-1,-9.604407310E0,-1.911105633E0
3.067084427E0,7.313728929E-1,-9.581792831E0,-1.955693483E0
3.087198177E0,8.982388377E-1,-9.561470985E0,-1.985407710E0
3.107469114E0,1.012958288E0,-9.535880089E0,-2.052141190E0
3.127740052E0,1.085482240E0,-9.506566048E0,-2.148794889E0
3.148140052E0,1.165068507E0,-9.478630066E0,-2.229032040E0
3.168282135E0,1.254361868E0,-9.456619263E0,-2.273610592E0
3.188682135E0,1.352067709E0,-9.435249329E0,-2.306155205E0
3.208824166E0,1.445119619E0,-9.415496826E0,-2.330328703E0
3.229095208E0,1.509475470E0,-9.393589973E0,-2.377465725E0
3.249495208E0,1.473017097E0,-9.402674675E0,-2.364385366E0
3.269795260E0,1.413879871E0,-9.442822456E0,-2.237061739E0
3.289908958E0,1.371998429E0,-9.484420776E0,-2.081768990E0
3.310179947E0,1.296505570E0,-9.536050797E0,-1.884992599E0
3.330450833E0,1.241440415E0,-9.572855949E0,-1.729062080E0
3.350850833E0,1.144559622E0,-9.574431419E0,-1.786237955E0
3.370992864E0,1.089909196E0,-9.566977501E0,-1.858878374E0
3.391263906E0,1.058255553E0,-9.564967155E0,-1.887295842E0
3.411534843E0,1.036383510E0,-9.571998596E0,-1.863638163E0
3.431805833E0,1.005337834E0,-9.584484100E0,-1.815855980E0
3.452071770E0,9.661604762E-1,-9.590289116E0,-1.806455016E0
3.472346145E0,9.154960513E-1,-9.588739395E0,-1.840744853E0
3.492617604E0,8.791843057E-1,-9.589130402E0,-1.856339455E0
3.512888906E0,8.631787896E-1,-9.591128349E0,-1.853528976E0
3.533160208E0,8.537676930E-1,-9.591809273E0,-1.854365110E0
3.553431197E0,8.549279571E-1,-9.590569496E0,-1.860229135E0
3.573831406E0,8.584311008E-1,-9.590857506E0,-1.857129812E0
3.593973697E0,8.624439836E-1,-9.590778351E0,-1.855684161E0
3.614244895E0,8.639659286E-1,-9.592202187E0,-1.847600222E0
3.634515937E0,8.635202050E-1,-9.594156265E0,-1.837632298E0
3.654916041E0,8.620698452E-1,-9.595070839E0,-1.833531618E0
3.675058229E0,8.598325849E-1,-9.595273972E0,-1.833521843E0
3.695329427E0,8.564583659E-1,-9.595296860E0,-1.834976435E0
3.715600468E0,8.537248969E-1,-9.595216751E0,-1.836667538E0
3.736000468E0,8.547365069E-1,-9.595479012E0,-1.834829092E0
3.756142656E0,8.597857356E-1,-9.596020699E0,-1.829634666E0
3.776413749E0,8.627725840E-1,-9.596905708E0,-1.823571920E0
3.796821770E0,8.572279215E-1,-9.598489761E0,-1.817846417E0
3.817100624E0,8.430938721E-1,-9.600588799E0,-1.813357592E0
3.837175052E0,8.271787763E-1,-9.602772713E0,-1.809128046E0
3.857579687E0,8.165190816E-1,-9.604213715E0,-1.806312442E0
3.877762864E0,8.135955334E-1,-9.604192734E0,-1.807741046E0
3.898035156E0,8.163506389E-1,-9.602761269E0,-1.814096689E0
3.918307239E0,8.415923715E-1,-9.598219872E0,-1.826545238E0
3.938578229E0,8.697397113E-1,-9.595370293E0,-1.828335285E0
3.958979114E0,8.980357647E-1,-9.593900681E0,-1.822359920E0
3.979121874E0,9.217711091E-1,-9.593188286E0,-1.814236760E0
3.999393437E0,9.364285469E-1,-9.592883110E0,-1.808337092E0
4.019664895E0,9.431670904E-1,-9.592638016E0,-1.806131601E0
4.039935989E0,9.442830682E-1,-9.592226028E0,-1.807735443E0
4.060336354E0,9.423781037E-1,-9.591922760E0,-1.810342908E0
4.080478749E0,9.389583468E-1,-9.591954231E0,-1.811946034E0
4.100749999E0,9.338690042E-1,-9.592442513E0,-1.811996937E0
4.121021302E0,9.269099236E-1,-9.593509674E0,-1.809914589E0
4.141292291E0,9.201421142E-1,-9.594755173E0,-1.806764841E0
4.161700364E0,9.164875746E-1,-9.595909119E0,-1.802493691E0
4.181983229E0,9.146870375E-1,-9.596807480E0,-1.798618317E0
4.202098906E0,9.147015214E-1,-9.597326279E0,-1.795839787E0
4.222371458E0,9.156352282E-1,-9.597635269E0,-1.793710351E0
4.242642343E0,9.183822274E-1,-9.597784042E0,-1.791508675E0
4.263043645E0,9.211336374E-1,-9.597892761E0,-1.789511085E0
4.283186718E0,9.244019985E-1,-9.597761154E0,-1.788533807E0
4.303458437E0,9.286142588E-1,-9.597031593E0,-1.790267944E0
4.323730104E0,9.333254695E-1,-9.596084595E0,-1.792886972E0
4.344001093E0,9.382255077E-1,-9.595184326E0,-1.795143723E0
4.364401562E0,9.450719953E-1,-9.594212532E0,-1.796745420E0
4.384544062E0,9.509880543E-1,-9.593313217E0,-1.798431993E0
4.404815520E0,9.570918679E-1,-9.592422485E0,-1.799944162E0
4.425086770E0,9.629374146E-1,-9.591217995E0,-1.803243876E0
4.445357812E0,9.694305658E-1,-9.589525223E0,-1.808753729E0
4.465629895E0,9.768744111E-1,-9.587671280E0,-1.814567685E0
4.485900885E0,9.848794937E-1,-9.586025238E0,-1.818934798E0
4.506171927E0,9.924596548E-1,-9.584374428E0,-1.823508382E0
4.526561770E0,9.988015294E-1,-9.582202911E0,-1.831442833E0
4.546871927E0,1.006706953E0,-9.579161644E0,-1.842984676E0
4.567143072E0,1.014720321E0,-9.576005936E0,-1.854949594E0
4.587256770E0,1.022960424E0,-9.573103905E0,-1.865376115E0
4.607656770E0,1.029754400E0,-9.570590973E0,-1.874513268E0
4.627798697E0,1.035373807E0,-9.568007469E0,-1.884573102E0
4.648198697E0,1.042915463E0,-9.565733910E0,-1.891943932E0
4.668340624E0,1.052498460E0,-9.563528061E0,-1.897780180E0
4.688611562E0,1.062614799E0,-9.561289787E0,-1.903413057E0
4.708882552E0,1.071855307E0,-9.559117317E0,-1.909131527E0
4.729153489E0,1.078531265E0,-9.557033539E0,-1.915797353E0
4.749553489E0,1.084356546E0,-9.555363655E0,-1.920827508E0
4.769695468E0,1.090625525E0,-9.553845406E0,-1.924826980E0
4.789966510E0,1.099015117E0,-9.551974297E0,-1.929334044E0
4.810237552E0,1.109126925E0,-9.550759315E0,-1.929561019E0
4.830508489E0,1.118002892E0,-9.550732613E0,-1.924569488E0
4.850908489E0,1.123057365E0,-9.551544189E0,-1.917585611E0
4.871208489E0,1.121979713E0,-9.552109718E0,-1.915398121E0
4.891322135E0,1.115515113E0,-9.552428246E0,-1.917582870E0
4.911593072E0,1.106863379E0,-9.552465439E0,-1.922409177E0
4.931863958E0,1.100352287E0,-9.552016258E0,-1.928367615E0
4.952121770E0,1.097219586E0,-9.551237106E0,-1.934005141E0
4.972523124E0,1.099040031E0,-9.549960136E0,-1.939270139E0
4.992672604E0,1.104963779E0,-9.548522949E0,-1.942976952E0
5.012944479E0,1.112130404E0,-9.547133446E0,-1.945709586E0
5.033216093E0,1.117376208E0,-9.545923233E0,-1.948642492E0
5.053487604E0,1.122690320E0,-9.544805527E0,-1.951059818E0
5.073759062E0,1.129259109E0,-9.543634415E0,-1.953002214E0
5.094030364E0,1.137272120E0,-9.541942596E0,-1.956614852E0
5.114301666E0,1.144112825E0,-9.540130615E0,-1.961455941E0
5.134572864E0,1.149085879E0,-9.538526535E0,-1.966340542E0
5.154844010E0,1.152266026E0,-9.537397385E0,-1.969952941E0
5.175115104E0,1.153488517E0,-9.536806107E0,-1.972101927E0
5.195386197E0,1.150867581E0,-9.537227631E0,-1.971590757E0
5.215657343E0,1.144839048E0,-9.538309097E0,-1.969872952E0
5.235928385E0,1.136661649E0,-9.539841652E0,-1.967180490E0
5.256199427E0,1.129445314E0,-9.540834427E0,-1.966527820E0
5.276470416E0,1.125229716E0,-9.541000366E0,-1.968135595E0
5.296878437E0,1.123520255E0,-9.540589333E0,-1.971101046E0
5.317161041E0,1.123723388E0,-9.540020943E0,-1.973736286E0
5.337274687E0,1.122733355E0,-9.539950371E0,-1.974640369E0
5.357676614E0,1.120503187E0,-9.540145874E0,-1.974963546E0
5.377819999E0,1.117953539E0,-9.540300369E0,-1.975659966E0
5.398090885E0,1.116466403E0,-9.540430069E0,-1.975874782E0
5.418492083E0,1.113974690E0,-9.541047096E0,-1.974300623E0
5.438633958E0,1.109735250E0,-9.542032242E0,-1.971928477E0
5.459034947E0,1.102914333E0,-9.543391228E0,-1.969172478E0
5.479177656E0,1.095768809E0,-9.544835091E0,-1.966162205E0
5.499449166E0,1.090737820E0,-9.546012878E0,-1.963240266E0
5.519720572E0,1.088041663E0,-9.546838760E0,-1.960719705E0
5.539991562E0,1.085640311E0,-9.547278404E0,-1.959910631E0
5.560391979E0,1.081690550E0,-9.547959328E0,-1.958778858E0
5.580534218E0,1.076679111E0,-9.549138069E0,-1.955784082E0
5.600805416E0,1.072666526E0,-9.550341606E0,-1.952114105E0
5.621076614E0,1.069907784E0,-9.551461220E0,-1.948143244E0
5.641347552E0,1.067118049E0,-9.552481651E0,-1.944668531E0
5.661747708E0,1.064747095E0,-9.553236961E0,-1.942262650E0
5.681889687E0,1.062110305E0,-9.554213524E0,-1.938894629E0
5.702160781E0,1.058592677E0,-9.555212021E0,-1.935897708E0
5.722431822E0,1.053780437E0,-9.556167603E0,-1.933804750E0
5.742702760E0,1.048849821E0,-9.557156563E0,-1.931594968E0
5.763102812E0,1.044921398E0,-9.557774544E0,-1.930666089E0
5.783244791E0,1.042796254E0,-9.558287621E0,-1.929276466E0
5.803515781E0,1.040038943E0,-9.559304237E0,-1.925719619E0
5.823786822E0,1.035824895E0,-9.562297821E0,-1.913089991E0
5.844057760E0,1.031682730E0,-9.565682411E0,-1.898355842E0
5.864457760E0,1.027038932E0,-9.568479538E0,-1.886736393E0
5.884599687E0,1.022369504E0,-9.569503784E0,-1.884079099E0
5.904870677E0,1.020215034E0,-9.569032669E0,-1.887634635E0
5.925141614E0,1.022642970E0,-9.569453239E0,-1.884182692E0
5.945412447E0,1.018260121E0,-9.569681168E0,-1.885395765E0
5.965683541E0,1.000321269E0,-9.569447517E0,-1.896162152E0
5.985954479E0,9.862448573E-1,-9.569495201E0,-1.903281212E0
6.006225364E0,9.908117652E-1,-9.568857193E0,-1.904114842E0
6.026615104E0,9.949638247E-1,-9.566957474E0,-1.911481142E0
6.046925208E0,9.974946380E-1,-9.566614151E0,-1.911882401E0
6.066960208E0,9.971488714E-1,-9.567230225E0,-1.908980012E0
6.087309479E0,9.964375496E-1,-9.567557335E0,-1.907706261E0
6.107580312E0,9.983499050E-1,-9.567436218E0,-1.907316923E0
6.127851197E0,1.001582742E0,-9.567487717E0,-1.905363560E0
6.148251197E0,1.004515886E0,-9.567426682E0,-1.904122233E0
6.168392916E0,1.004296422E0,-9.567222595E0,-1.905268312E0
6.188663854E0,1.001292109E0,-9.567040443E0,-1.907759786E0
6.208934791E0,9.999616146E-1,-9.566763878E0,-1.909838915E0
6.229205677E0,1.001631856E0,-9.566179276E0,-1.911894560E0
6.249605677E0,1.005552292E0,-9.565751076E0,-1.911973357E0
6.269747447E0,1.011426330E0,-9.565466881E0,-1.910300374E0
6.290018385E0,1.017290711E0,-9.564613342E0,-1.911462069E0
6.310418385E0,1.019684076E0,-9.564268112E0,-1.911908031E0
6.330560156E0,1.019446373E0,-9.564236641E0,-1.912198067E0
6.350960156E0,1.018223643E0,-9.564138412E0,-1.913334370E0
6.371101927E0,1.018339515E0,-9.564135551E0,-1.913293123E0
6.391372812E0,1.020255804E0,-9.563871384E0,-1.913591981E0
6.411643749E0,1.022458553E0,-9.563653946E0,-1.913500547E0
6.431914635E0,1.024599075E0,-9.563217163E0,-1.914541483E0
6.452184999E0,1.029312611E0,-9.562424660E0,-1.915969968E0
6.472456197E0,1.035927892E0,-9.561392784E0,-1.917551041E0
6.492727187E0,1.042368531E0,-9.560459137E0,-1.918717265E0
6.512998072E0,1.048916459E0,-9.559584618E0,-1.919507742E0
6.533269010E0,1.055278659E0,-9.558636665E0,-1.920736074E0
6.553539895E0,1.060832024E0,-9.557516098E0,-1.923250794E0
6.573939895E0,1.065065265E0,-9.556622505E0,-1.925354838E0
6.594081614E0,1.067402840E0,-9.556245804E0,-1.925927997E0
6.614352552E0,1.067913771E0,-9.556372643E0,-1.925017595E0
6.634623437E0,1.066105604E0,-9.556941032E0,-1.923200488E0
6.654894322E0,1.061015010E0,-9.557907104E0,-1.921210885E0
6.675165208E0,1.059989810E0,-9.558350563E0,-1.919569373E0
6.695436093E0,1.054720879E0,-9.559181213E0,-1.918334603E0
6.715706874E0,1.050480843E0,-9.559969902E0,-1.916727066E0
6.735977812E0,1.046313643E0,-9.560392380E0,-1.916901827E0
6.756248697E0,1.042703032E0,-9.560896873E0,-1.916347623E0
6.776656666E0,1.040904045E0,-9.561235428E0,-1.915642142E0
6.796954687E0,1.040713072E0,-9.561313629E0,-1.915357351E0
6.817208645E0,1.042533517E0,-9.561242104E0,-1.914719820E0
6.837322187E0,1.045067191E0,-9.561065674E0,-1.914223790E0
6.857732291E0,1.047548413E0,-9.560883522E0,-1.913776636E0
6.878016093E0,1.049158692E0,-9.560709000E0,-1.913764834E0
6.898132812E0,1.050393224E0,-9.560676575E0,-1.913243890E0
6.918406093E0,1.050357580E0,-9.560752869E0,-1.912884831E0
6.938676718E0,1.049498320E0,-9.561157227E0,-1.911334395E0
6.959078749E0,1.047500610E0,-9.561873436E0,-1.908849478E0
6.979221979E0,1.045940757E0,-9.562555313E0,-1.906286716E0
6.999494010E0,1.045179605E0,-9.563004494E0,-1.904448032E0
7.019765833E0,1.046283960E0,-9.563301086E0,-1.902356982E0
7.040036666E0,1.047678113E0,-9.563440323E0,-1.900887847E0
7.060437499E0,1.048530698E0,-9.563594818E0,-1.899637580E0
7.080579739E0,1.047695279E0,-9.564051628E0,-1.897801757E0
7.100851041E0,1.045427918E0,-9.564705849E0,-1.895749450E0
7.121122343E0,1.041830778E0,-9.565400124E0,-1.894226313E0
7.141393177E0,1.039232731E0,-9.565936089E0,-1.892948866E0
7.161793489E0,1.036885858E0,-9.566570282E0,-1.891029477E0
7.181935416E0,1.033895254E0,-9.567432404E0,-1.888298273E0
7.202206406E0,1.031363845E0,-9.568341255E0,-1.885080338E0
7.222477395E0,1.029617548E0,-9.569006920E0,-1.882648826E0
7.242748229E0,1.028929949E0,-9.569185257E0,-1.882117987E0
7.263148385E0,1.025627732E0,-9.569678307E0,-1.881416678E0
7.283290052E0,1.018223763E0,-9.571117401E0,-1.878117919E0
7.303560989E0,1.012091637E0,-9.571587563E0,-1.879034996E0
7.323831874E0,1.006450653E0,-9.572061539E0,-1.879651546E0
7.344102656E0,1.002155304E0,-9.573251724E0,-1.875879169E0
7.364502708E0,9.992911220E-1,-9.574240685E0,-1.872357845E0
7.384644374E0,9.990692735E-1,-9.575002670E0,-1.868572474E0
7.404915260E0,1.001951575E0,-9.575620651E0,-1.863859892E0
7.425186093E0,1.006723166E0,-9.575310707E0,-1.862880111E0
7.445456874E0,1.013937473E0,-9.573352814E0,-1.869020820E0
7.465727812E0,1.021870852E0,-9.570874214E0,-1.877373695E0
7.485998541E0,1.029498577E0,-9.568377495E0,-1.885913014E0
7.506269374E0,1.035202503E0,-9.566501617E0,-1.892298579E0
7.526669374E0,1.037024379E0,-9.565587997E0,-1.895914435E0
7.546968906E0,1.034991622E0,-9.565529823E0,-1.897313237E0
7.567043072E0,1.029435635E0,-9.566010475E0,-1.897916794E0
7.587352968E0,1.021158457E0,-9.566643715E0,-1.899198532E0
7.607752968E0,1.012140036E0,-9.567393303E0,-1.900248170E0
7.627894427E0,1.001743913E0,-9.568278313E0,-1.901300788E0
7.648294427E0,9.906439185E-1,-9.569703102E0,-1.899945498E0
7.668435937E0,9.796928763E-1,-9.571567535E0,-1.896232128E0
7.688706614E0,9.709867239E-1,-9.573660851E0,-1.890129685E0
7.708977343E0,9.651809931E-1,-9.575477600E0,-1.883892775E0
7.729248124E0,9.618986249E-1,-9.576777458E0,-1.878953576E0
7.749648124E0,9.606153369E-1,-9.577685356E0,-1.874977708E0
7.769947604E0,9.634919167E-1,-9.577964783E0,-1.872074962E0
7.790060989E0,9.700662494E-1,-9.577476501E0,-1.871175289E0
7.810331666E0,9.774753451E-1,-9.576826096E0,-1.870648623E0
7.830602291E0,9.831937551E-1,-9.576488495E0,-1.869376421E0
7.851002291E0,9.853818417E-1,-9.576679230E0,-1.867249250E0
7.871143697E0,9.852901101E-1,-9.576744080E0,-1.866966128E0
7.891414427E0,9.827640653E-1,-9.576869011E0,-1.867660165E0
7.911685104E0,9.777379036E-1,-9.577406883E0,-1.867535949E0
7.931955833E0,9.699834585E-1,-9.578318596E0,-1.866904259E0
7.952221562E0,9.616370797E-1,-9.579711914E0,-1.864071608E0
7.972495520E0,9.534229040E-1,-9.581010818E0,-1.861608744E0
7.992766614E0,9.471405745E-1,-9.581961632E0,-1.859928727E0
8.013037604E0,9.430049062E-1,-9.582580566E0,-1.858834386E0
8.033308593E0,9.398081303E-1,-9.583279610E0,-1.856850743E0
8.053579479E0,9.369024634E-1,-9.584059715E0,-1.854289412E0
8.073850364E0,9.338724017E-1,-9.584861755E0,-1.851673245E0
8.094121145E0,9.324282408E-1,-9.585406303E0,-1.849581838E0
8.114392031E0,9.328470230E-1,-9.585459709E0,-1.849092245E0
8.134662812E0,9.353690147E-1,-9.584823608E0,-1.851117969E0
8.154933593E0,9.404537678E-1,-9.583837509E0,-1.853646755E0
8.175204374E0,9.477465749E-1,-9.583116531E0,-1.853653908E0
8.195475156E0,9.550277591E-1,-9.582823753E0,-1.851429701E0
8.215745885E0,9.600822330E-1,-9.583026886E0,-1.847762942E0
8.236145937E0,9.616000056E-1,-9.583519936E0,-1.844410896E0
8.256287395E0,9.599752426E-1,-9.583740234E0,-1.844113469E0
8.276684843E0,9.576192498E-1,-9.583420753E0,-1.847003102E0
8.296993177E0,9.547150135E-1,-9.583308220E0,-1.849084377E0
8.317246979E0,9.521028996E-1,-9.583167076E0,-1.851161242E0
8.337360364E0,9.486007690E-1,-9.583406448E0,-1.851721048E0
8.357762499E0,9.457685351E-1,-9.583631516E0,-1.852005720E0
8.377905572E0,9.447145462E-1,-9.583676338E0,-1.852310419E0
8.398177447E0,9.468170404E-1,-9.583494186E0,-1.852178931E0
8.418449166E0,9.508171082E-1,-9.583132744E0,-1.851997137E0
8.438719791E0,9.545469880E-1,-9.582912445E0,-1.851219296E0
8.459120677E0,9.564396739E-1,-9.583149910E0,-1.849010110E0
8.479262760E0,9.562461972E-1,-9.583723068E0,-1.846135736E0
8.499533958E0,9.560809731E-1,-9.584065437E0,-1.844449520E0
8.519805052E0,9.563220143E-1,-9.584017754E0,-1.844572663E0
8.540075729E0,9.567404389E-1,-9.584135056E0,-1.843741298E0
8.560476093E0,9.576122165E-1,-9.584328651E0,-1.842281938E0
8.580617812E0,9.593905807E-1,-9.584406853E0,-1.840953708E0
8.600888645E0,9.627343416E-1,-9.584026337E0,-1.841187954E0
8.621159531E0,9.666752219E-1,-9.583157539E0,-1.843643785E0
8.641430260E0,9.706107974E-1,-9.582267761E0,-1.846195221E0
8.661838333E0,9.747390747E-1,-9.581530571E0,-1.847845435E0
8.682120416E0,9.792572260E-1,-9.580919266E0,-1.848631978E0
8.702235729E0,9.825837016E-1,-9.580492973E0,-1.849072576E0
8.722507864E0,9.850063920E-1,-9.580334663E0,-1.848601341E0
8.742778437E0,9.865609407E-1,-9.580449104E0,-1.847180247E0
8.763179687E0,9.878708720E-1,-9.580451012E0,-1.846473932E0
8.783321927E0,9.876076579E-1,-9.580525398E0,-1.846224546E0
8.803593333E0,9.858919382E-1,-9.581145287E0,-1.843925238E0
8.823864583E0,9.838261008E-1,-9.582075119E0,-1.840193748E0
8.844135208E0,9.821915627E-1,-9.582698822E0,-1.837818146E0
8.864535729E0,9.807331562E-1,-9.582850456E0,-1.837808490E0
8.884677447E0,9.788208604E-1,-9.582626343E0,-1.839993358E0
8.904948437E0,9.778346419E-1,-9.582204819E0,-1.842707396E0
8.925219374E0,9.770063162E-1,-9.581955910E0,-1.844441295E0
8.945489999E0,9.770534039E-1,-9.581891060E0,-1.844757318E0
8.965761718E0,9.780263901E-1,-9.581999779E0,-1.843675256E0
8.986032343E0,9.804589152E-1,-9.581836700E0,-1.843230128E0
9.006302968E0,9.829282165E-1,-9.581383705E0,-1.844265461E0
9.026702968E0,9.849376678E-1,-9.580857277E0,-1.845930219E0
9.047002239E0,9.861233830E-1,-9.580574036E0,-1.846765995E0
9.067076302E0,9.871730804E-1,-9.580348969E0,-1.847371578E0
9.087385989E0,9.879376888E-1,-9.579989433E0,-1.848825693E0
9.107656614E0,9.895605445E-1,-9.579295158E0,-1.851553559E0
9.127927135E0,9.926354289E-1,-9.578474998E0,-1.854150176E0
9.148327135E0,9.956090450E-1,-9.577672958E0,-1.856699467E0
9.168468385E0,9.968611002E-1,-9.577218056E0,-1.858371139E0
9.188738958E0,9.955305457E-1,-9.576779366E0,-1.861344576E0
9.209009583E0,9.939526320E-1,-9.576547623E0,-1.863378882E0
9.229280208E0,9.934924245E-1,-9.576113701E0,-1.865855217E0
9.249680208E0,9.952437878E-1,-9.575632095E0,-1.867386818E0
9.269821510E0,9.985215664E-1,-9.575145721E0,-1.868134022E0
9.290092083E0,1.002723575E0,-9.574472427E0,-1.869333148E0
9.310362656E0,1.007897615E0,-9.573561668E0,-1.871213913E0
9.330633385E0,1.013423085E0,-9.572671890E0,-1.872785211E0
9.351033385E0,1.017182231E0,-9.572176933E0,-1.873276114E0
9.371174635E0,1.018039584E0,-9.572021484E0,-1.873605728E0
9.391445208E0,1.017642736E0,-9.572157860E0,-1.873120308E0
9.411715833E0,1.017613769E0,-9.572161674E0,-1.873116732E0
9.431986458E0,1.017785549E0,-9.572272301E0,-1.872458935E0
9.452256510E0,1.017533183E0,-9.572690010E0,-1.870460629E0
9.472656562E0,1.016711593E0,-9.573303223E0,-1.867764235E0
9.492798124E0,1.014863968E0,-9.573913574E0,-1.865640402E0
9.513068802E0,1.012777925E0,-9.574291229E0,-1.864834428E0
9.533339479E0,1.011584044E0,-9.574152946E0,-1.866196752E0
9.553610104E0,1.011199594E0,-9.573817253E0,-1.868120909E0
9.573880729E0,1.011417866E0,-9.573451042E0,-1.869882703E0
9.594151406E0,1.012452960E0,-9.572977066E0,-1.871749640E0
9.614422031E0,1.013418913E0,-9.572494507E0,-1.873689771E0
9.634692656E0,1.013215184E0,-9.572278023E0,-1.874908090E0
9.654963281E0,1.012736678E0,-9.571966171E0,-1.876757026E0
9.675233854E0,1.012439489E0,-9.571534157E0,-1.879117012E0
9.695504531E0,1.010681272E0,-9.571453094E0,-1.880474448E0
9.715775156E0,1.007772207E0,-9.571646690E0,-1.881056905E0
9.736045781E0,1.004739523E0,-9.571998596E0,-1.880886674E0
9.756316406E0,1.003742456E0,-9.572097778E0,-1.880916119E0
9.776713697E0,1.004187346E0,-9.572151184E0,-1.880407453E0
9.797021927E0,1.005651593E0,-9.572203636E0,-1.879357457E0
9.817275624E0,1.007611871E0,-9.572171211E0,-1.878471732E0
9.837388906E0,1.008006573E0,-9.572156906E0,-1.878331661E0
9.857791041E0,1.007177114E0,-9.572199821E0,-1.878555655E0
9.877933854E0,1.006628990E0,-9.572144508E0,-1.879128098E0
9.898204270E0,1.006967425E0,-9.572078705E0,-1.879284024E0
9.918605624E0,1.007910490E0,-9.571859360E0,-1.879896879E0
9.938746770E0,1.009315729E0,-9.571655273E0,-1.880180717E0
9.959147864E0,1.010253191E0,-9.571496964E0,-1.880484581E0
9.979289895E0,1.011056662E0,-9.571519852E0,-1.879934788E0
9.999561145E0,1.011669755E0,-9.571702957E0,-1.878677368E0
1.001983229E1,1.012567878E0,-9.571637154E0,-1.878527761E0
1.004010286E1,1.012456775E0,-9.571553230E0,-1.879012942E0
1.006050333E1,1.011047244E0,-9.571629524E0,-1.879379630E0
1.008064490E1,1.008468270E0,-9.571777344E0,-1.880016565E0
1.010091578E1,1.006566048E0,-9.571901321E0,-1.880408883E0
1.012118656E1,1.004673600E0,-9.572221756E0,-1.879783034E0
1.014145714E1,1.002689004E0,-9.572805405E0,-1.877869248E0
1.016185734E1,1.001820207E0,-9.572994232E0,-1.877369046E0
1.018199875E1,1.002086282E0,-9.572726250E0,-1.878593802E0
1.020226943E1,1.004504800E0,-9.571777344E0,-1.882136345E0
1.022254010E1,1.007696390E0,-9.570434570E0,-1.887252331E0
1.024281073E1,1.011532664E0,-9.569237709E0,-1.891258121E0
1.026321078E1,1.014991164E0,-9.568262100E0,-1.894344211E0
1.028335203E1,1.018489718E0,-9.567741394E0,-1.895096421E0
1.030362271E1,1.021024466E0,-9.567584991E0,-1.894525170E0
1.032389338E1,1.022143841E0,-9.568132401E0,-1.891148925E0
1.034416401E1,1.020385146E0,-9.568900108E0,-1.888213634E0
1.036456406E1,1.014942050E0,-9.569884300E0,-1.886155963E0
1.038470526E1,1.007396460E0,-9.570940018E0,-1.884847045E0
1.040497588E1,1.000917435E0,-9.571856499E0,-1.883642673E0
1.042524656E1,9.960791469E-1,-9.572463989E0,-1.883120894E0
1.044551708E1,9.931244254E-1,-9.572731972E0,-1.883324385E0
1.046578781E1,9.910174608E-1,-9.572809219E0,-1.884037614E0
1.048605839E1,9.888024330E-1,-9.573081970E0,-1.883813977E0
1.050632906E1,9.874852896E-1,-9.573213577E0,-1.883836627E0
1.052672906E1,9.874037504E-1,-9.573109627E0,-1.884405851E0
1.054702818E1,9.885249734E-1,-9.572835922E0,-1.885212779E0
1.056714146E1,9.894702435E-1,-9.572398186E0,-1.886932611E0
1.058741198E1,9.911276102E-1,-9.571881294E0,-1.888688207E0
1.060781198E1,9.923541546E-1,-9.571555138E0,-1.889696598E0
1.062795307E1,9.942346811E-1,-9.571584702E0,-1.888557553E0
1.064835307E1,9.956808686E-1,-9.571699142E0,-1.887212873E0
1.066849422E1,9.974358082E-1,-9.571800232E0,-1.885774493E0
1.068876474E1,9.990767837E-1,-9.571527481E0,-1.886290073E0
1.070903531E1,9.998409152E-1,-9.571164131E0,-1.887730837E0
1.072930583E1,9.997815490E-1,-9.571087837E0,-1.888152719E0
1.074970583E1,9.997953176E-1,-9.571213722E0,-1.887504578E0
1.076984708E1,1.000244260E0,-9.571316719E0,-1.886741996E0
1.079011771E1,1.000995636E0,-9.571225166E0,-1.886808872E0
1.081051771E1,1.000160336E0,-9.571319580E0,-1.886770606E0
1.083065885E1,9.996556044E-1,-9.571096420E0,-1.888168931E0
1.085105885E1,9.999851584E-1,-9.570939064E0,-1.888791919E0
1.087120010E1,1.001036763E0,-9.570597649E0,-1.889964700E0
1.089147068E1,1.002429247E0,-9.570068359E0,-1.891907454E0
1.091174130E1,1.003180385E0,-9.569799423E0,-1.892867565E0
1.093201187E1,1.003870130E0,-9.569211960E0,-1.895471096E0
1.095228156E1,1.003656626E0,-9.568629265E0,-1.898529053E0
1.097255271E1,1.004915237E0,-9.568202019E0,-1.900009632E0
1.099282344E1,1.008749604E0,-9.567916870E0,-1.899416208E0
1.101309411E1,1.012884974E0,-9.567921638E0,-1.897189617E0
1.103336474E1,1.016032219E0,-9.567815781E0,-1.896039486E0
1.105363536E1,1.017853498E0,-9.567775726E0,-1.895264268E0
1.107390604E1,1.019145608E0,-9.567551613E0,-1.895700574E0
1.109417661E1,1.021028638E0,-9.567117691E0,-1.896879077E0
1.111444729E1,1.021224737E0,-9.566898346E0,-1.897877216E0
1.113471792E1,1.021166205E0,-9.566567421E0,-1.899578691E0
1.115498849E1,1.021476746E0,-9.566432953E0,-1.900089383E0
1.117525911E1,1.022901416E0,-9.566388130E0,-1.899549484E0
1.119552969E1,1.025892735E0,-9.566126823E0,-1.899250388E0
1.121580026E1,1.030271769E0,-9.565423012E0,-1.900419950E0
1.123607094E1,1.035371184E0,-9.564631462E0,-1.901631236E0
1.125634151E1,1.039934993E0,-9.563973427E0,-1.902455688E0
1.127674948E1,1.042235017E0,-9.563771248E0,-1.902215123E0
1.129704708E1,1.042148829E0,-9.564064026E0,-1.900790691E0
1.131730083E1,1.041625381E0,-9.564441681E0,-1.899172306E0
1.133741406E1,1.042050600E0,-9.564573288E0,-1.898278117E0
1.135782411E1,1.042755485E0,-9.564333916E0,-1.899095654E0
1.137810745E1,1.042502165E0,-9.563976288E0,-1.901033998E0
1.139822396E1,1.039853096E0,-9.563754082E0,-1.903603077E0
1.141849693E1,1.036368966E0,-9.563852310E0,-1.905008435E0
1.143876734E1,1.032317162E0,-9.564384460E0,-1.904533267E0
1.145916943E1,1.029047847E0,-9.565140724E0,-1.902504563E0
1.147931219E1,1.026650310E0,-9.565969467E0,-1.899632812E0
1.149958396E1,1.025210977E0,-9.566716194E0,-1.896647811E0
1.151985557E1,1.023758173E0,-9.567248344E0,-1.894746661E0
1.154012614E1,1.022992969E0,-9.567620277E0,-1.893282533E0
1.156052698E1,1.023539066E0,-9.567374229E0,-1.894228101E0
1.158066880E1,1.023460507E0,-9.567131996E0,-1.895499825E0
1.160093990E1,1.023449421E0,-9.566838264E0,-1.896984577E0
1.162121088E1,1.023429155E0,-9.566641808E0,-1.897983909E0
1.164148151E1,1.023036242E0,-9.566792488E0,-1.897440553E0
1.166188182E1,1.022109270E0,-9.567097664E0,-1.896399260E0
1.168202333E1,1.020024896E0,-9.567520142E0,-1.895384550E0
1.170229411E1,1.017784476E0,-9.567840576E0,-1.894973636E0
1.172256484E1,1.015054226E0,-9.568146706E0,-1.894895434E0
1.174283547E1,1.013136625E0,-9.568388939E0,-1.894698858E0
1.176323562E1,1.011382222E0,-9.568516731E0,-1.894992113E0
1.178337693E1,1.010460377E0,-9.568654060E0,-1.894790530E0
1.180364760E1,1.010451674E0,-9.568707466E0,-1.894521236E0
1.182391823E1,1.009868503E0,-9.568835258E0,-1.894186020E0
1.184418885E1,1.008334517E0,-9.568954468E0,-1.894400835E0
1.186458891E1,1.007025599E0,-9.569005013E0,-1.894843221E0
1.188473016E1,1.005616069E0,-9.569102287E0,-1.895101190E0
1.190500083E1,1.004916668E0,-9.569089890E0,-1.895534039E0
1.192527151E1,1.004685640E0,-9.568641663E0,-1.897916913E0
1.194554203E1,1.004413009E0,-9.568209648E0,-1.900238276E0
1.196581281E1,1.006268740E0,-9.567629814E0,-1.902173996E0
1.198608338E1,1.008546591E0,-9.567226410E0,-1.902997255E0
1.200639333E1,1.010559559E0,-9.567044258E0,-1.902842879E0
1.202678276E1,1.010660648E0,-9.567304611E0,-1.901482701E0
1.204705307E1,1.010465264E0,-9.567543983E0,-1.900382280E0
1.206716641E1,1.009672761E0,-9.567603111E0,-1.900499821E0
1.208743687E1,1.008077621E0,-9.567830086E0,-1.900208473E0
1.210770734E1,1.006618023E0,-9.567890167E0,-1.900678992E0
1.212797792E1,1.004809856E0,-9.567922592E0,-1.901476145E0
1.214837792E1,1.002662539E0,-9.568087578E0,-1.901775122E0
1.216851906E1,1.001010060E0,-9.568317413E0,-1.901485085E0
1.218878964E1,1.001527309E0,-9.568205833E0,-1.901778221E0
1.220906021E1,1.003756523E0,-9.567510605E0,-1.904103160E0
1.222933083E1,1.007157922E0,-9.566717148E0,-1.906290412E0
1.224973083E1,1.009791732E0,-9.566092491E0,-1.908030033E0
1.227002995E1,1.011522174E0,-9.565677643E0,-1.909195900E0
1.229014323E1,1.013391972E0,-9.565135956E0,-1.910920858E0
1.231041370E1,1.015469909E0,-9.564599037E0,-1.912496924E0
1.233068417E1,1.018751264E0,-9.564236641E0,-1.912564397E0
1.235108417E1,1.020981073E0,-9.564355850E0,-1.910781980E0
1.237122531E1,1.021003485E0,-9.564847946E0,-1.908302188E0
1.239149583E1,1.020795107E0,-9.565345764E0,-1.905921578E0
1.241176641E1,1.021141887E0,-9.565375328E0,-1.905583024E0
1.243203698E1,1.022388339E0,-9.565138817E0,-1.906105757E0
1.245230266E1,1.023634315E0,-9.564620018E0,-1.908033013E0
1.247257641E1,1.025043130E0,-9.564083099E0,-1.909970522E0
1.249284740E1,1.026184797E0,-9.563673019E0,-1.911409855E0
1.251311823E1,1.027878761E0,-9.563232422E0,-1.912701845E0
1.253338906E1,1.029699326E0,-9.562889099E0,-1.913442135E0
1.255365984E1,1.032281280E0,-9.562297821E0,-1.915006399E0
1.257393062E1,1.034790039E0,-9.561604500E0,-1.917110920E0
1.259420135E1,1.037899375E0,-9.560892105E0,-1.918978930E0
1.261447203E1,1.040072560E0,-9.560122490E0,-1.921644330E0
1.263474266E1,1.041687369E0,-9.559580803E0,-1.923458457E0
1.265501333E1,1.042613149E0,-9.559224129E0,-1.924729109E0
1.267528396E1,1.043531179E0,-9.559064865E0,-1.925020099E0
1.269555469E1,1.044826269E0,-9.558773041E0,-1.925768137E0
1.271582531E1,1.045513630E0,-9.558593750E0,-1.926284075E0
1.273622536E1,1.046517491E0,-9.558478355E0,-1.926311612E0
1.275636656E1,1.046350718E0,-9.558384895E0,-1.926866770E0
1.277677453E1,1.045956373E0,-9.558362007E0,-1.927191973E0
1.279704864E1,1.044487596E0,-9.558794022E0,-1.925844550E0
1.281709474E1,1.044018865E0,-9.559235573E0,-1.923911929E0
1.283744370E1,1.042904735E0,-9.559634209E0,-1.922533751E0
1.285784490E1,1.042744398E0,-9.559984207E0,-1.920880437E0
1.287798693E1,1.042653799E0,-9.560093880E0,-1.920384407E0
1.289825823E1,1.043195963E0,-9.560089111E0,-1.920110226E0
1.291852937E1,1.042588949E0,-9.559923172E0,-1.921268106E0
1.293879995E1,1.040138483E0,-9.559942245E0,-1.922498822E0
1.295920042E1,1.037705302E0,-9.560037613E0,-1.923340082E0
1.297934203E1,1.036190987E0,-9.560337067E0,-1.922666192E0
1.299961297E1,1.035582781E0,-9.560716629E0,-1.921106815E0
1.301988375E1,1.034251451E0,-9.561255455E0,-1.919144034E0
1.304015432E1,1.032352567E0,-9.561985970E0,-1.916524649E0
1.306055453E1,1.030094028E0,-9.562623024E0,-1.914556146E0
1.308069594E1,1.028954029E0,-9.563070297E0,-1.912937164E0
1.310096667E1,1.027696490E0,-9.563356400E0,-1.912183404E0
1.312123729E1,1.026301503E0,-9.563660622E0,-1.911408067E0
1.314150792E1,1.023633957E0,-9.563724518E0,-1.912519932E0
1.316191594E1,1.020891905E0,-9.563837051E0,-1.913424253E0
1.318219786E1,1.019814134E0,-9.563909531E0,-1.913631916E0
1.320231302E1,1.020260453E0,-9.564082146E0,-1.912537217E0
1.322258510E1,1.021580219E0,-9.564187050E0,-1.911305189E0
1.324285557E1,1.022181869E0,-9.564399719E0,-1.909918666E0
1.326325677E1,1.021477461E0,-9.564819336E0,-1.908195019E0
1.328339891E1,1.019111395E0,-9.565339088E0,-1.906856656E0
1.330367021E1,1.016859531E0,-9.565569878E0,-1.906897664E0
1.332394141E1,1.015627742E0,-9.565744400E0,-1.906681180E0
1.334421187E1,1.014998317E0,-9.565975189E0,-1.905852795E0
1.336461240E1,1.015008807E0,-9.566267967E0,-1.904377937E0
1.338475406E1,1.015723944E0,-9.566350937E0,-1.903582573E0
1.340502500E1,1.016387224E0,-9.566388130E0,-1.903041840E0
1.342529588E1,1.016297579E0,-9.566637039E0,-1.901837707E0
1.344556635E1,1.014746428E0,-9.567119598E0,-1.900236726E0
1.346583802E1,1.010794282E0,-9.567852974E0,-1.898643851E0
1.348610865E1,1.005766034E0,-9.568855286E0,-1.896267056E0
1.350641854E1,1.000369787E0,-9.569743156E0,-1.894642591E0
1.352680797E1,9.950936437E-1,-9.570381165E0,-1.894196630E0
1.354707823E1,9.916990399E-1,-9.570612907E0,-1.894806504E0
1.356719151E1,9.906525612E-1,-9.570331573E0,-1.896772623E0
1.358746203E1,9.923903942E-1,-9.569860458E0,-1.898243189E0
1.360786203E1,9.951013327E-1,-9.569417953E0,-1.899048567E0
1.362800307E1,9.969776869E-1,-9.569146156E0,-1.899441481E0
1.364840307E1,9.982966781E-1,-9.568949699E0,-1.899733305E0
1.366854422E1,9.986361861E-1,-9.568799973E0,-1.900312304E0
1.368881474E1,1.000007272E0,-9.568307877E0,-1.902067900E0
1.370908531E1,1.002326250E0,-9.567682266E0,-1.903992295E0
1.372935583E1,1.004662752E0,-9.567069054E0,-1.905837297E0
1.374975583E1,1.007450223E0,-9.566420555E0,-1.907626271E0
1.376989703E1,1.010207534E0,-9.565642357E0,-1.910068750E0
1.379016760E1,1.013452053E0,-9.564718246E0,-1.912974119E0
1.381043818E1,1.015755177E0,-9.564372063E0,-1.913479924E0
1.383070875E1,1.016217828E0,-9.564653397E0,-1.911831737E0
1.385110875E1,1.015349984E0,-9.565316200E0,-1.908972383E0
1.387140786E1,1.012836695E0,-9.565834999E0,-1.907705426E0
1.389152109E1,1.010475397E0,-9.566081047E0,-1.907721996E0
1.391179156E1,1.008644342E0,-9.566327095E0,-1.907465577E0
1.393206203E1,1.007555127E0,-9.566370964E0,-1.907816410E0
1.395231984E1,1.008304000E0,-9.566268921E0,-1.907930851E0
1.397272115E1,1.009183884E0,-9.566121101E0,-1.908211112E0
1.399286958E1,1.009827852E0,-9.566205978E0,-1.907446504E0
1.401314094E1,1.011166334E0,-9.566260338E0,-1.906463981E0
1.403341214E1,1.013462543E0,-9.565670013E0,-1.908204913E0
1.405368318E1,1.016040087E0,-9.564865112E0,-1.910862207E0
1.407395417E1,1.018278360E0,-9.564211845E0,-1.912941933E0
1.409422505E1,1.019394159E0,-9.564357758E0,-1.911618352E0
1.411449588E1,1.018637657E0,-9.565033913E0,-1.908638000E0
1.413476641E1,1.017140388E0,-9.565617561E0,-1.906508327E0
1.415517458E1,1.015035272E0,-9.566091537E0,-1.905250907E0
1.417545651E1,1.012432575E0,-9.566761971E0,-1.903269053E0
1.419557172E1,1.009605885E0,-9.567317963E0,-1.901977420E0
1.421584380E1,1.006792903E0,-9.567687035E0,-1.901613474E0
1.423611557E1,1.003243566E0,-9.568135262E0,-1.901231885E0
1.425638604E1,1.000419974E0,-9.568421364E0,-1.901282430E0
1.427679500E1,1.000544786E0,-9.568580627E0,-1.900409460E0
1.429709318E1,1.002531290E0,-9.568392754E0,-1.900312066E0
1.431734750E1,1.003846169E0,-9.568161011E0,-1.900781393E0
1.433746078E1,1.003283858E0,-9.568292618E0,-1.900416374E0
1.435786344E1,1.001041055E0,-9.568970680E0,-1.898184896E0
1.437800651E1,9.980170131E-1,-9.570118904E0,-1.893981457E0
1.439827698E1,9.936119914E-1,-9.571389198E0,-1.889878392E0
1.441867865E1,9.904657006E-1,-9.571807861E0,-1.889403224E0
1.443881958E1,9.901432395E-1,-9.571325302E0,-1.892016530E0
1.445922094E1,9.950487614E-1,-9.570134163E0,-1.895469189E0
1.447936307E1,1.000172973E0,-9.568976402E0,-1.898610950E0
1.449963448E1,1.003058434E0,-9.568181038E0,-1.901090860E0
1.451990562E1,1.004304647E0,-9.568322182E0,-1.899725676E0
1.454017614E1,1.003843188E0,-9.568971634E0,-1.896701217E0
1.456057672E1,1.003416419E0,-9.569581985E0,-1.893841624E0
1.458071823E1,1.001904249E0,-9.570354462E0,-1.890741587E0
1.460098917E1,9.986573458E-1,-9.571313858E0,-1.887596011E0
1.462126000E1,9.954380393E-1,-9.572138786E0,-1.885113478E0
1.464153052E1,9.922911525E-1,-9.572768211E0,-1.883572936E0
1.466193073E1,9.900578856E-1,-9.572860718E0,-1.884280324E0
1.468207198E1,9.901697636E-1,-9.572372437E0,-1.886699915E0
1.470234271E1,9.929730296E-1,-9.571448326E0,-1.889911056E0
1.472261333E1,9.968872666E-1,-9.570678711E0,-1.891749978E0
1.474288385E1,9.993042946E-1,-9.570095062E0,-1.893429875E0
1.476328396E1,1.000851274E0,-9.569647789E0,-1.894868135E0
1.478342516E1,1.003004670E0,-9.569464684E0,-1.894650340E0
1.480369573E1,1.003801942E0,-9.570003510E0,-1.891508341E0
1.482396635E1,1.003123164E0,-9.570808411E0,-1.887793422E0
1.484423687E1,1.001075983E0,-9.571381569E0,-1.885970473E0
1.486463687E1,9.993271828E-1,-9.571619034E0,-1.885694146E0
1.488477802E1,9.981504679E-1,-9.571507454E0,-1.886884212E0
1.490504854E1,9.994867444E-1,-9.570933342E0,-1.889081955E0
1.492531917E1,1.000451446E0,-9.570444107E0,-1.891054988E0
1.494558964E1,1.000642419E0,-9.570387840E0,-1.891237378E0
1.496586031E1,9.999191165E-1,-9.570700645E0,-1.890031934E0
1.498613083E1,1.000299573E0,-9.570650101E0,-1.890096307E0
1.500648005E1,1.002858520E0,-9.570117950E0,-1.891427040E0
1.502682948E1,1.005480766E0,-9.569749832E0,-1.891900301E0
1.504710016E1,1.007235765E0,-9.569382668E0,-1.892824888E0
1.506721338E1,1.007529736E0,-9.569143295E0,-1.893874407E0
1.508748380E1,1.008788824E0,-9.569043159E0,-1.893711090E0
1.510775427E1,1.010720134E0,-9.569207191E0,-1.891856074E0
1.512802474E1,1.012459159E0,-9.569529533E0,-1.889285564E0
1.514842474E1,1.012927175E0,-9.569771767E0,-1.887808442E0
1.516856573E1,1.012681842E0,-9.569686890E0,-1.888377905E0
1.518883620E1,1.012527823E0,-9.569494247E0,-1.889432907E0
1.520910672E1,1.013777733E0,-9.568983078E0,-1.891353965E0
1.522937729E1,1.016246915E0,-9.568283081E0,-1.893561244E0
1.524977729E1,1.019200921E0,-9.567790985E0,-1.894465566E0
1.526991828E1,1.021967173E0,-9.567444801E0,-1.894724965E0
1.529018880E1,1.024371386E0,-9.567115784E0,-1.895081878E0
1.531058880E1,1.028040767E0,-9.566187859E0,-1.897784114E0
1.533072984E1,1.032406688E0,-9.565060616E0,-1.901089907E0
1.535112984E1,1.036065578E0,-9.564262390E0,-1.903112650E0
1.537127083E1,1.037374973E0,-9.563982010E0,-1.903808713E0
1.539154130E1,1.037124991E0,-9.564092636E0,-1.903393149E0
1.541181182E1,1.036195040E0,-9.564449310E0,-1.902103543E0
1.543208234E1,1.034541011E0,-9.564931870E0,-1.900577784E0
1.545235234E1,1.032811284E0,-9.565429688E0,-1.899013042E0
1.547262318E1,1.029904604E0,-9.566110611E0,-1.897158861E0
1.549289375E1,1.027168393E0,-9.566852570E0,-1.894899368E0
1.551316432E1,1.026531577E0,-9.567252159E0,-1.893228531E0
1.553343484E1,1.027847767E0,-9.566890717E0,-1.894341707E0
1.555370531E1,1.030032158E0,-9.566449165E0,-1.895381212E0
1.557397589E1,1.030582070E0,-9.566247940E0,-1.896099091E0
1.559424641E1,1.030220509E0,-9.566439629E0,-1.895330548E0
1.561451693E1,1.028086066E0,-9.566890717E0,-1.894208312E0
1.563478740E1,1.022589207E0,-9.567955017E0,-1.891806722E0
1.565505792E1,1.015467882E0,-9.569414139E0,-1.888262510E0
1.567532844E1,1.009330153E0,-9.570542336E0,-1.885828853E0
1.569559891E1,1.005308390E0,-9.571008682E0,-1.885613441E0
1.571599896E1,1.002207875E0,-9.571167946E0,-1.886454225E0
1.573614000E1,9.999731779E-1,-9.571449280E0,-1.886206388E0
1.575641047E1,9.990488291E-1,-9.571623802E0,-1.885815382E0
1.577681838E1,9.991335869E-1,-9.571853638E0,-1.884603739E0
1.579709224E1,1.000161648E0,-9.572166443E0,-1.882470608E0
1.581713823E1,1.000348926E0,-9.572575569E0,-1.880284071E0
1.583748703E1,9.989886284E-1,-9.573064804E0,-1.878520012E0
1.585789615E1,9.966481924E-1,-9.573621750E0,-1.876925588E0
1.587817859E1,9.944311976E-1,-9.574319839E0,-1.874538422E0
1.589829437E1,9.930786490E-1,-9.574844360E0,-1.872572541E0
1.591856677E1,9.930365682E-1,-9.575149536E0,-1.871033192E0
1.593883719E1,9.935603738E-1,-9.575297356E0,-1.869999409E0
1.595923885E1,9.923610687E-1,-9.575632095E0,-1.868923903E0
1.597938094E1,9.888581634E-1,-9.576555252E0,-1.866044998E0
1.599965240E1,9.830603600E-1,-9.578110695E0,-1.861118674E0
1.601992370E1,9.760908484E-1,-9.579668999E0,-1.856766105E0
1.604019411E1,9.702834487E-1,-9.580555916E0,-1.855228424E0
1.606059479E1,9.669500589E-1,-9.580886841E0,-1.855267644E0
1.608073630E1,9.657346010E-1,-9.581224442E0,-1.854154348E0
1.610100714E1,9.654592276E-1,-9.581665039E0,-1.852017760E0
1.612127797E1,9.652309418E-1,-9.582296371E0,-1.848867893E0
1.614154844E1,9.638245106E-1,-9.583036423E0,-1.845765471E0
1.616194870E1,9.632856846E-1,-9.583210945E0,-1.845136404E0
1.618208984E1,9.627557397E-1,-9.582930565E0,-1.846869111E0
1.620236052E1,9.627066851E-1,-9.582451820E0,-1.849381685E0
1.622263114E1,9.629189968E-1,-9.582035065E0,-1.851421475E0
1.624290161E1,9.608989954E-1,-9.582039833E0,-1.852450132E0
1.626330172E1,9.564736485E-1,-9.582549095E0,-1.852105856E0
1.628344271E1,9.524852633E-1,-9.583181381E0,-1.850891113E0
1.630371323E1,9.497245550E-1,-9.583737373E0,-1.849429131E0
1.632398375E1,9.491803050E-1,-9.584063530E0,-1.848013043E0
1.634425422E1,9.527741671E-1,-9.583937645E0,-1.846820354E0
1.636465427E1,9.579398036E-1,-9.583433151E0,-1.846767306E0
1.638479526E1,9.614934921E-1,-9.583127975E0,-1.846499920E0
1.640506573E1,9.636917114E-1,-9.582839012E0,-1.846855283E0
1.642533625E1,9.661755562E-1,-9.582610130E0,-1.846746445E0
1.644560667E1,9.691118002E-1,-9.582499504E0,-1.845787406E0
1.646587719E1,9.710096121E-1,-9.582316399E0,-1.845735550E0
1.648614766E1,9.712872505E-1,-9.582205772E0,-1.846168399E0
1.650649682E1,9.687684774E-1,-9.582445145E0,-1.846243143E0
1.652684625E1,9.655861855E-1,-9.582927704E0,-1.845409632E0
1.654711677E1,9.628233314E-1,-9.583753586E0,-1.842562318E0
1.656722990E1,9.621816874E-1,-9.584250450E0,-1.840309978E0
1.658750026E1,9.630790353E-1,-9.584379196E0,-1.839167356E0
1.660769208E1,9.652901888E-1,-9.583984375E0,-1.840070248E0
1.662804094E1,9.673725367E-1,-9.583246231E0,-1.842811823E0
1.664844094E1,9.689766765E-1,-9.582366943E0,-1.846537948E0
1.666858182E1,9.705880880E-1,-9.581380844E0,-1.850805402E0
1.668885219E1,9.735645056E-1,-9.580412865E0,-1.854255557E0
1.670912260E1,9.759764671E-1,-9.579844475E0,-1.855913281E0
1.672939302E1,9.782562852E-1,-9.579401970E0,-1.857001424E0
1.674979302E1,9.792895913E-1,-9.579778671E0,-1.854513288E0
1.677009187E1,9.795036912E-1,-9.580644608E0,-1.849926353E0
1.679020495E1,9.785900712E-1,-9.581516266E0,-1.845890284E0
1.681047531E1,9.773268700E-1,-9.581902504E0,-1.844549894E0
1.683074562E1,9.769691229E-1,-9.581895828E0,-1.844772935E0
1.685114562E1,9.763895869E-1,-9.581467628E0,-1.847301364E0
1.687128635E1,9.752115011E-1,-9.581014633E0,-1.850274801E0
1.689155677E1,9.745377898E-1,-9.580763817E0,-1.851927161E0
1.691182708E1,9.738450646E-1,-9.580915451E0,-1.851505399E0
1.693209745E1,9.733294249E-1,-9.581120491E0,-1.850715399E0
1.695236328E1,9.729579091E-1,-9.581237793E0,-1.850305319E0
1.697263672E1,9.725120068E-1,-9.581344604E0,-1.849982738E0
1.699290745E1,9.712675214E-1,-9.581803322E0,-1.848258972E0
1.701317812E1,9.710702300E-1,-9.582168579E0,-1.846469522E0
1.703344870E1,9.730054140E-1,-9.581951141E0,-1.846578121E0
1.705371927E1,9.751461148E-1,-9.581677437E0,-1.846874356E0
1.707398984E1,9.762172103E-1,-9.581665039E0,-1.846369147E0
1.709426036E1,9.770532250E-1,-9.581538200E0,-1.846588373E0
1.711453078E1,9.785515070E-1,-9.581165314E0,-1.847726345E0
1.713480130E1,9.795866013E-1,-9.581095695E0,-1.847536325E0
1.715507177E1,9.806109071E-1,-9.581153870E0,-1.846698642E0
1.717534224E1,9.808197021E-1,-9.581414223E0,-1.845235825E0
1.719561260E1,9.806746244E-1,-9.581501961E0,-1.844848752E0
1.721588302E1,9.792025685E-1,-9.581593513E0,-1.845157504E0
1.723628307E1,9.778520465E-1,-9.581507683E0,-1.846324801E0
1.725642391E1,9.777052402E-1,-9.581119537E0,-1.848406911E0
1.727683187E1,9.779016376E-1,-9.580650330E0,-1.850736618E0
1.729710943E1,9.789534807E-1,-9.579985619E0,-1.853627205E0
1.731718990E1,9.802469611E-1,-9.579517365E0,-1.855356932E0
1.733749937E1,9.818952084E-1,-9.579258919E0,-1.855820537E0
1.735790068E1,9.843363762E-1,-9.578983307E0,-1.855950952E0
1.737804245E1,9.875058532E-1,-9.578680992E0,-1.855822206E0
1.739831364E1,9.910362363E-1,-9.578414917E0,-1.855318546E0
1.741858464E1,9.947907329E-1,-9.578134537E0,-1.854757190E0
1.743885500E1,9.966915250E-1,-9.577896118E0,-1.854961991E0
1.745925557E1,9.975892901E-1,-9.578002930E0,-1.853932500E0
1.747939672E1,9.967138171E-1,-9.578208923E0,-1.853340030E0
1.749966745E1,9.954137206E-1,-9.578379631E0,-1.853158236E0
1.751993812E1,9.940429926E-1,-9.578325272E0,-1.854175806E0
1.754020849E1,9.933788776E-1,-9.578032494E0,-1.856038094E0
1.756060875E1,9.914944768E-1,-9.577833176E0,-1.858074188E0
1.758074964E1,9.896969199E-1,-9.578048706E0,-1.857922316E0
1.760102021E1,9.873199463E-1,-9.578582764E0,-1.856436491E0
1.762129068E1,9.852904081E-1,-9.579103470E0,-1.854825258E0
1.764156104E1,9.828413725E-1,-9.579604149E0,-1.853539944E0
1.766196906E1,9.812316895E-1,-9.579739571E0,-1.853688478E0
1.768225052E1,9.821215272E-1,-9.579405785E0,-1.854938984E0
1.770236552E1,9.845986962E-1,-9.578942299E0,-1.856015325E0
1.772263734E1,9.869551659E-1,-9.578260422E0,-1.858290911E0
1.774290760E1,9.888314009E-1,-9.577755928E0,-1.859890461E0
1.776330885E1,9.899929762E-1,-9.577594757E0,-1.860100269E0
1.778345047E1,9.912343621E-1,-9.577058792E0,-1.862200618E0
1.780372151E1,9.927572608E-1,-9.576186180E0,-1.865869522E0
1.782399240E1,9.947988391E-1,-9.575381279E0,-1.868916631E0
1.784426276E1,9.958213568E-1,-9.575073242E0,-1.869947076E0
1.786466328E1,9.961544871E-1,-9.575260162E0,-1.868810534E0
1.788480437E1,9.962238669E-1,-9.575566292E0,-1.867201567E0
1.790507510E1,9.969183803E-1,-9.575711250E0,-1.866086721E0
1.792534573E1,9.983587265E-1,-9.575665474E0,-1.865553379E0
1.794561599E1,1.000597239E0,-9.575236320E0,-1.866553664E0
1.796588740E1,1.002148867E0,-9.574932098E0,-1.867287636E0
1.798615776E1,1.002473712E0,-9.574700356E0,-1.868299603E0
1.800654687E1,1.003304482E0,-9.574813843E0,-1.867271781E0
1.802685641E1,1.004754066E0,-9.574864388E0,-1.866237044E0
1.804712682E1,1.005753040E0,-9.574905396E0,-1.865486503E0
1.806723984E1,1.005088687E0,-9.575087547E0,-1.864910364E0
1.808751005E1,1.003389120E0,-9.575158119E0,-1.865458727E0
1.810778031E1,1.000712872E0,-9.575331688E0,-1.866004467E0
1.812805057E1,9.980362654E-1,-9.575431824E0,-1.866926670E0
1.814845057E1,9.961166978E-1,-9.575269699E0,-1.868780732E0
1.816859114E1,9.946759939E-1,-9.575126648E0,-1.870280027E0
1.818886146E1,9.941104650E-1,-9.574705124E0,-1.872739673E0
1.820913177E1,9.942814708E-1,-9.574280739E0,-1.874820590E0
1.822940203E1,9.952841401E-1,-9.574327469E0,-1.874046445E0
1.824980203E1,9.966796041E-1,-9.574732780E0,-1.871231437E0
1.826994276E1,9.981270432E-1,-9.575222015E0,-1.867956638E0
1.829021307E1,1.000107050E0,-9.575350761E0,-1.866238236E0
1.831048344E1,1.002505183E0,-9.575295448E0,-1.865226746E0
1.833075370E1,1.005895257E0,-9.574829102E0,-1.865802050E0
1.835115370E1,1.008217812E0,-9.574239731E0,-1.867572904E0
1.837129437E1,1.007994413E0,-9.573906898E0,-1.869398832E0
1.839156474E1,1.004254103E0,-9.574057579E0,-1.870635986E0
1.841183505E1,1.000570655E0,-9.574422836E0,-1.870742083E0
1.843210531E1,9.995645881E-1,-9.574607849E0,-1.870335698E0
1.845237490E1,9.999403954E-1,-9.574585915E0,-1.870244384E0
1.847277495E1,1.001079321E0,-9.574572563E0,-1.869702578E0
1.849291604E1,1.002020478E0,-9.574836731E0,-1.867838264E0
1.851318641E1,1.000985503E0,-9.575334549E0,-1.865841627E0
1.853345677E1,9.987376332E-1,-9.575908661E0,-1.864107609E0
1.855372719E1,9.967330098E-1,-9.576298714E0,-1.863172412E0
1.857399750E1,9.946323633E-1,-9.576425552E0,-1.863641858E0
1.859426786E1,9.938279390E-1,-9.576282501E0,-1.864808798E0
1.861453823E1,9.938607216E-1,-9.575992584E0,-1.866280198E0
1.863480854E1,9.937470555E-1,-9.575984001E0,-1.866383433E0
1.865507885E1,9.937555194E-1,-9.576244354E0,-1.865039229E0
1.867534917E1,9.943381548E-1,-9.576587677E0,-1.862966299E0
1.869561953E1,9.951251149E-1,-9.576830864E0,-1.861297846E0
1.871588984E1,9.947294593E-1,-9.577137947E0,-1.859929323E0
1.873616016E1,9.935371280E-1,-9.577326775E0,-1.859590769E0
1.875643047E1,9.908226728E-1,-9.577736855E0,-1.858927608E0
1.877683838E1,9.885348678E-1,-9.577945709E0,-1.859070778E0
1.879711578E1,9.867219925E-1,-9.578011513E0,-1.859694719E0
1.881719614E1,9.844916463E-1,-9.578148842E0,-1.860165715E0
1.883750552E1,9.835834503E-1,-9.578285217E0,-1.859945774E0
1.885790682E1,9.812858701E-1,-9.578933716E0,-1.857819676E0
1.887804838E1,9.789345860E-1,-9.579579353E0,-1.855730534E0
1.889831864E1,9.764189720E-1,-9.580049515E0,-1.854626417E0
1.891872016E1,9.754462838E-1,-9.580153465E0,-1.854602218E0
1.893887391E1,9.749466181E-1,-9.580171585E0,-1.854769707E0
1.895927380E1,9.747306705E-1,-9.580137253E0,-1.855063200E0
1.897940172E1,9.749395847E-1,-9.580208778E0,-1.854583383E0
1.899967240E1,9.757939577E-1,-9.580688477E0,-1.851652861E0
1.901994307E1,9.768144488E-1,-9.581090927E0,-1.849032402E0
1.904021338E1,9.752923250E-1,-9.581488609E0,-1.847771168E0
1.906061370E1,9.750272036E-1,-9.581585884E0,-1.847407222E0
1.908075453E1,9.755421877E-1,-9.581136703E0,-1.849461794E0
1.910102495E1,9.770856500E-1,-9.580284119E0,-1.853064418E0
1.912129536E1,9.768871069E-1,-9.579690933E0,-1.856235623E0
1.914156568E1,9.753322005E-1,-9.579513550E0,-1.857968450E0
1.916196583E1,9.722539186E-1,-9.579632759E0,-1.858959913E0
1.918210651E1,9.713012576E-1,-9.579483986E0,-1.860223532E0
1.920237682E1,9.737291336E-1,-9.579326630E0,-1.859767795E0
1.922264719E1,9.778271914E-1,-9.579349518E0,-1.857498169E0
1.924291745E1,9.811397791E-1,-9.579736710E0,-1.853749990E0
1.926331750E1,9.815127850E-1,-9.580385208E0,-1.850200295E0
1.928345818E1,9.798833132E-1,-9.581127167E0,-1.847224355E0
1.930372844E1,9.785441160E-1,-9.581537247E0,-1.845803380E0
1.932399880E1,9.780958295E-1,-9.581504822E0,-1.846210718E0
1.934426911E1,9.771361351E-1,-9.580906868E0,-1.849817872E0
1.936466911E1,9.749361277E-1,-9.580514908E0,-1.853002787E0
1.938480974E1,9.722420573E-1,-9.580390930E0,-1.855054975E0
1.940508005E1,9.705042243E-1,-9.580338478E0,-1.856239557E0
1.942535031E1,9.701678753E-1,-9.580323219E0,-1.856492639E0
1.944562062E1,9.710039496E-1,-9.580254555E0,-1.856410146E0
1.946589094E1,9.711042047E-1,-9.580152512E0,-1.856880903E0
1.948612193E1,9.707399607E-1,-9.579993248E0,-1.857895732E0
1.950652193E1,9.682956338E-1,-9.580087662E0,-1.858683467E0
1.952685979E1,9.657931328E-1,-9.580107689E0,-1.859883666E0
1.954713021E1,9.648489952E-1,-9.579967499E0,-1.861097217E0
1.956724318E1,9.669513702E-1,-9.579435349E0,-1.862746477E0
1.958751328E1,9.701269865E-1,-9.578892708E0,-1.863883972E0
1.960791328E1,9.733783007E-1,-9.578384399E0,-1.864800453E0
1.962805380E1,9.757264853E-1,-9.578052521E0,-1.865272284E0
1.964845380E1,9.776757956E-1,-9.577678680E0,-1.866172791E0
1.966859427E1,9.773188829E-1,-9.577552795E0,-1.867011905E0
1.968886448E1,9.767865539E-1,-9.577604294E0,-1.867025137E0
1.970913469E1,9.758387804E-1,-9.577926636E0,-1.865867138E0
1.972940495E1,9.751939774E-1,-9.578306198E0,-1.864251614E0
1.974980495E1,9.742867351E-1,-9.578708649E0,-1.862655997E0
1.976994547E1,9.732456207E-1,-9.579027176E0,-1.861561060E0
1.979021578E1,9.714921117E-1,-9.579390526E0,-1.860606194E0
1.981061578E1,9.693020582E-1,-9.579710960E0,-1.860102892E0
1.983075635E1,9.666424990E-1,-9.580125809E0,-1.859348297E0
1.985115635E1,9.643963575E-1,-9.580315590E0,-1.859538555E0
1.987129693E1,9.632220268E-1,-9.580334663E0,-1.860043168E0
1.989156719E1,9.619785547E-1,-9.580301285E0,-1.860861063E0
1.991183750E1,9.605699182E-1,-9.580503464E0,-1.860551476E0
1.993210781E1,9.586231709E-1,-9.580936432E0,-1.859324574E0
1.995237693E1,9.578683972E-1,-9.581303596E0,-1.857824683E0
1.997264797E1,9.587945342E-1,-9.581366539E0,-1.857014418E0
1.999291833E1,9.596478343E-1,-9.581161499E0,-1.857637167E0
2.001318864E1,9.620702267E-1,-9.580493927E0,-1.859822035E0
2.003345901E1,9.649010301E-1,-9.579776764E0,-1.862052441E0
2.005372937E1,9.684123397E-1,-9.578956604E0,-1.864448309E0
2.007399964E1,9.720847607E-1,-9.578340530E0,-1.865700126E0
2.009427000E1,9.763146043E-1,-9.577764511E0,-1.866442561E0
2.011454031E1,9.806834459E-1,-9.577248573E0,-1.866804242E0
2.013481062E1,9.854705334E-1,-9.576807976E0,-1.866540551E0
2.015508094E1,9.899121523E-1,-9.576519966E0,-1.865672231E0
2.017535125E1,9.928042889E-1,-9.576545715E0,-1.863997221E0
2.019562151E1,9.942930937E-1,-9.576687813E0,-1.862477183E0
2.021589182E1,9.937970638E-1,-9.577144623E0,-1.860391736E0
2.023616214E1,9.925082922E-1,-9.577547073E0,-1.859007716E0
2.025643245E1,9.901667833E-1,-9.578013420E0,-1.857856750E0
2.027684042E1,9.878458977E-1,-9.578166008E0,-1.858301401E0
2.029711771E1,9.867647290E-1,-9.578271866E0,-1.858329177E0
2.031719802E1,9.869828820E-1,-9.578183174E0,-1.858674645E0
2.033750740E1,9.860919118E-1,-9.578213692E0,-1.858989596E0
2.035791667E1,9.844536781E-1,-9.578419685E0,-1.858793974E0
2.037819880E1,9.822208285E-1,-9.578693390E0,-1.858565807E0
2.039831453E1,9.793343544E-1,-9.578954697E0,-1.858739495E0
2.041858677E1,9.767452478E-1,-9.579044342E0,-1.859642744E0
2.043885693E1,9.744534492E-1,-9.579207420E0,-1.860002637E0
2.045925865E1,9.732335210E-1,-9.579446793E0,-1.859412670E0
2.047940057E1,9.730110765E-1,-9.579483032E0,-1.859339237E0
2.049967187E1,9.732331038E-1,-9.579444885E0,-1.859415293E0
2.051994297E1,9.743941426E-1,-9.579184532E0,-1.860149503E0
2.054021323E1,9.753880501E-1,-9.578888893E0,-1.861158013E0
2.056061396E1,9.756957889E-1,-9.578439713E0,-1.863305569E0
2.058075500E1,9.756470323E-1,-9.578258514E0,-1.864260435E0
2.060102573E1,9.759458303E-1,-9.578157425E0,-1.864627123E0
2.062129641E1,9.770444632E-1,-9.578090668E0,-1.864389181E0
2.064156667E1,9.797040224E-1,-9.577714920E0,-1.864925504E0
2.066196693E1,9.826188684E-1,-9.577409744E0,-1.864962816E0
2.068210776E1,9.845071435E-1,-9.577245712E0,-1.864805341E0
2.070237818E1,9.857794046E-1,-9.577089310E0,-1.864939451E0
2.072264859E1,9.873639941E-1,-9.576870918E0,-1.865222573E0
2.074291891E1,9.888761640E-1,-9.576583862E0,-1.865893960E0
2.076331906E1,9.909281135E-1,-9.576288223E0,-1.866320014E0
2.078345969E1,9.929884076E-1,-9.576018333E0,-1.866609812E0
2.080373000E1,9.948062301E-1,-9.575620651E0,-1.867681265E0
2.082400036E1,9.948615432E-1,-9.575438499E0,-1.868588209E0
2.084427062E1,9.946472645E-1,-9.575293541E0,-1.869444370E0
2.086467068E1,9.944451451E-1,-9.575342178E0,-1.869295239E0
2.088481130E1,9.938910604E-1,-9.575375557E0,-1.869423628E0
2.090508161E1,9.933583140E-1,-9.575325012E0,-1.869965672E0
2.092535193E1,9.923048615E-1,-9.575642586E0,-1.868895888E0
2.094562214E1,9.918937683E-1,-9.576043129E0,-1.867059350E0
2.096589255E1,9.927685857E-1,-9.575957298E0,-1.867035627E0
2.098612354E1,9.926930666E-1,-9.575764656E0,-1.868067026E0
2.100652354E1,9.917467237E-1,-9.575574875E0,-1.869543791E0
2.102686146E1,9.899671078E-1,-9.575613022E0,-1.870291829E0
2.104713177E1,9.879068136E-1,-9.575853348E0,-1.870151043E0
2.106724469E1,9.866855741E-1,-9.576459885E0,-1.867685199E0
2.108751484E1,9.858745337E-1,-9.577249527E0,-1.864063978E0
2.110778500E1,9.866817594E-1,-9.577484131E0,-1.862424374E0
2.112805516E1,9.873592257E-1,-9.577470779E0,-1.862137794E0
2.114845516E1,9.871131778E-1,-9.577376366E0,-1.862758160E0
2.116859568E1,9.862387180E-1,-9.577596664E0,-1.862080693E0
2.118886583E1,9.853132367E-1,-9.578208923E0,-1.859425426E0
2.120913604E1,9.846351147E-1,-9.578664780E0,-1.857436299E0
2.122940630E1,9.846255779E-1,-9.578854561E0,-1.856464624E0
2.124980630E1,9.847618937E-1,-9.578796387E0,-1.856687307E0
2.127010484E1,9.856331348E-1,-9.578704834E0,-1.856698394E0
2.129021771E1,9.850865006E-1,-9.578961372E0,-1.855664134E0
2.131048781E1,9.836260080E-1,-9.579485893E0,-1.853726625E0
2.133075802E1,9.813233018E-1,-9.580035210E0,-1.852111936E0
2.135115802E1,9.788419604E-1,-9.580553055E0,-1.850747585E0
2.137129849E1,9.772744179E-1,-9.580871582E0,-1.849923253E0
2.139156865E1,9.766026139E-1,-9.580992699E0,-1.849653959E0
2.141183885E1,9.762527943E-1,-9.580755234E0,-1.851066232E0
2.143210906E1,9.769170880E-1,-9.580171585E0,-1.853737712E0
2.145237422E1,9.790744185E-1,-9.579463005E0,-1.856260657E0
2.147264776E1,9.805928469E-1,-9.579027176E0,-1.857707858E0
2.149291839E1,9.812948108E-1,-9.579042435E0,-1.857250452E0
2.151318891E1,9.811575413E-1,-9.579394341E0,-1.855509043E0
2.153345943E1,9.803618789E-1,-9.579644203E0,-1.854643106E0
2.155372979E1,9.804528952E-1,-9.579463959E0,-1.855526567E0
2.157400026E1,9.807103872E-1,-9.579231262E0,-1.856587768E0
2.159427062E1,9.807116985E-1,-9.579118729E0,-1.857171535E0
2.161454099E1,9.804879427E-1,-9.579224586E0,-1.856745005E0
2.163481130E1,9.806212783E-1,-9.579360008E0,-1.855972767E0
2.165508161E1,9.796336889E-1,-9.579748154E0,-1.854488969E0
2.167535193E1,9.785097837E-1,-9.580217361E0,-1.852655530E0
2.169562224E1,9.783751369E-1,-9.580258369E0,-1.852516770E0
2.171589250E1,9.782486558E-1,-9.580224037E0,-1.852761745E0
2.173629250E1,9.781444073E-1,-9.580414772E0,-1.851831079E0
2.175643302E1,9.765280485E-1,-9.580717087E0,-1.851118565E0
2.177684099E1,9.725864530E-1,-9.581166267E0,-1.850873351E0
2.179711828E1,9.688358307E-1,-9.581383705E0,-1.851713300E0
2.181719859E1,9.671114087E-1,-9.581861496E0,-1.850140333E0
2.183750792E1,9.675899148E-1,-9.582562447E0,-1.846251369E0
2.185790927E1,9.701102972E-1,-9.582940102E0,-1.842972040E0
2.187805078E1,9.709895253E-1,-9.583029747E0,-1.842041373E0
2.189832182E1,9.698186517E-1,-9.582886696E0,-1.843399763E0
2.191859271E1,9.666103125E-1,-9.583068848E0,-1.844142675E0
2.193886292E1,9.637768269E-1,-9.583275795E0,-1.844548821E0
2.195926344E1,9.611835480E-1,-9.583580971E0,-1.844312906E0
2.197940437E1,9.593376517E-1,-9.583922386E0,-1.843498826E0
2.199967490E1,9.577799439E-1,-9.584362984E0,-1.842019081E0
2.201994547E1,9.549311996E-1,-9.584521294E0,-1.842669725E0
2.204021573E1,9.534068704E-1,-9.584399223E0,-1.844096661E0
2.206061594E1,9.526243210E-1,-9.584355354E0,-1.844726801E0
2.208075661E1,9.518778920E-1,-9.584456444E0,-1.844590664E0
2.210102693E1,9.493914247E-1,-9.584865570E0,-1.843748212E0
2.212129734E1,9.463497400E-1,-9.585072517E0,-1.844227552E0
2.214156760E1,9.454040527E-1,-9.585012436E0,-1.845033169E0
2.216197562E1,9.470601678E-1,-9.584561348E0,-1.846521616E0
2.218225677E1,9.506489635E-1,-9.583718300E0,-1.849056721E0
2.220237161E1,9.539102316E-1,-9.582734108E0,-1.852469087E0
2.222264333E1,9.553391337E-1,-9.582453728E0,-1.853187323E0
2.224291344E1,9.557617307E-1,-9.582336426E0,-1.853575826E0
2.226331469E1,9.579466581E-1,-9.582248688E0,-1.852897286E0
2.228345609E1,9.619989395E-1,-9.581645966E0,-1.853915095E0
2.230372708E1,9.657510519E-1,-9.581205368E0,-1.854246497E0
2.232399781E1,9.667664766E-1,-9.581038475E0,-1.854572773E0
2.234426807E1,9.658279419E-1,-9.581009865E0,-1.855214238E0
2.236466859E1,9.642019868E-1,-9.581252098E0,-1.854806542E0
2.238480937E1,9.632773995E-1,-9.581559181E0,-1.853699565E0
2.240508000E1,9.619829059E-1,-9.581877708E0,-1.852725625E0
2.242535052E1,9.619473815E-1,-9.581998825E0,-1.852121353E0
2.244562073E1,9.616845250E-1,-9.581907272E0,-1.852728367E0
2.246589198E1,9.601912498E-1,-9.582034111E0,-1.852845669E0
2.248616224E1,9.584878683E-1,-9.582218170E0,-1.852772593E0
2.250655120E1,9.564800262E-1,-9.582523346E0,-1.852239490E0
2.252686062E1,9.554978609E-1,-9.582577705E0,-1.852458119E0
2.254713094E1,9.549338222E-1,-9.582511902E0,-1.853091717E0
2.256740130E1,9.550070763E-1,-9.582590103E0,-1.852652073E0
2.258767161E1,9.553052783E-1,-9.582593918E0,-1.852476597E0
2.260774526E1,9.551126957E-1,-9.582650185E0,-1.852284431E0
2.262805448E1,9.549939036E-1,-9.582599640E0,-1.852609158E0
2.264845448E1,9.553434849E-1,-9.582415581E0,-1.853379846E0
2.266859495E1,9.560754895E-1,-9.582087517E0,-1.854698181E0
2.268886505E1,9.565369487E-1,-9.581649780E0,-1.856717587E0
2.270913526E1,9.575325847E-1,-9.581426620E0,-1.857360005E0
2.272940542E1,9.587172270E-1,-9.581223488E0,-1.857796073E0
2.274980542E1,9.598499537E-1,-9.581124306E0,-1.857721806E0
2.276994589E1,9.600047469E-1,-9.581031799E0,-1.858116031E0
2.279021609E1,9.582289457E-1,-9.581444740E0,-1.856906176E0
2.281048641E1,9.560751319E-1,-9.582209587E0,-1.854063988E0
2.283075667E1,9.545143247E-1,-9.582703590E0,-1.852319121E0
2.285115667E1,9.525532126E-1,-9.582894325E0,-1.852339983E0
2.287129719E1,9.507114887E-1,-9.582942963E0,-1.853033304E0
2.289156740E1,9.496939182E-1,-9.583003044E0,-1.853247285E0
2.291183771E1,9.499328136E-1,-9.582931519E0,-1.853494763E0
2.293210797E1,9.502304792E-1,-9.582819939E0,-1.853922129E0
2.295237693E1,9.493147731E-1,-9.583075523E0,-1.853064537E0
2.297277708E1,9.478344321E-1,-9.583401680E0,-1.852139711E0
2.299291844E1,9.470096231E-1,-9.583538055E0,-1.851851463E0
2.301318875E1,9.462307096E-1,-9.583548546E0,-1.852199554E0
2.303345911E1,9.454516768E-1,-9.583580017E0,-1.852430224E0
2.305372943E1,9.437364936E-1,-9.584108353E0,-1.850572586E0
2.307399974E1,9.411328435E-1,-9.585005760E0,-1.847244263E0
2.309427005E1,9.364816546E-1,-9.586056709E0,-1.844154716E0
2.311454042E1,9.327142835E-1,-9.586833000E0,-1.842026830E0
2.313481073E1,9.307264090E-1,-9.587176323E0,-1.841250062E0
2.315508109E1,9.295346141E-1,-9.587185860E0,-1.841802359E0
2.317535141E1,9.288058281E-1,-9.587169647E0,-1.842253089E0
2.319562172E1,9.283655882E-1,-9.587216377E0,-1.842228651E0
2.321589198E1,9.283084273E-1,-9.587347984E0,-1.841569304E0
2.323616234E1,9.286696911E-1,-9.587469101E0,-1.840760231E0
2.325643266E1,9.280431867E-1,-9.587694168E0,-1.839906096E0
2.327684062E1,9.255134463E-1,-9.588064194E0,-1.839251518E0
2.329711792E1,9.218657613E-1,-9.588571548E0,-1.838434577E0
2.331719838E1,9.176660180E-1,-9.589178085E0,-1.837372541E0
2.333750781E1,9.138816595E-1,-9.589738846E0,-1.836330771E0
2.335790911E1,9.111450315E-1,-9.590287209E0,-1.834827185E0
2.337805073E1,9.100798965E-1,-9.590615273E0,-1.833646536E0
2.339832104E1,9.104484320E-1,-9.590549469E0,-1.833804369E0
2.341872187E1,9.110814929E-1,-9.590429306E0,-1.834118366E0
2.343886250E1,9.118268490E-1,-9.590368271E0,-1.834062696E0
2.345926318E1,9.126019478E-1,-9.590268135E0,-1.834202766E0
2.347940432E1,9.125917554E-1,-9.590167999E0,-1.834730506E0
2.349967510E1,9.121279120E-1,-9.589897156E0,-1.836376309E0
2.351994583E1,9.118255973E-1,-9.589650154E0,-1.837819934E0
2.354021620E1,9.133273959E-1,-9.589134216E0,-1.839761853E0
2.356061646E1,9.158723354E-1,-9.588425636E0,-1.842189074E0
2.358075734E1,9.188646674E-1,-9.587756157E0,-1.844183922E0
2.360102792E1,9.203943014E-1,-9.587352753E0,-1.845515966E0
2.362129839E1,9.207246304E-1,-9.587056160E0,-1.846891284E0
2.364156875E1,9.216858745E-1,-9.586918831E0,-1.847129464E0
2.366196891E1,9.235716462E-1,-9.586793900E0,-1.846832991E0
2.368210969E1,9.265054464E-1,-9.586537361E0,-1.846688628E0
2.370238010E1,9.298542142E-1,-9.586336136E0,-1.846057773E0
2.372265057E1,9.329591990E-1,-9.586232185E0,-1.845020294E0
2.374292094E1,9.361024499E-1,-9.586239815E0,-1.843392015E0
2.376332099E1,9.382880926E-1,-9.586373329E0,-1.841589689E0
2.378346182E1,9.392333031E-1,-9.586577415E0,-1.840043306E0
2.380373219E1,9.394253492E-1,-9.586741447E0,-1.839094281E0
2.382400266E1,9.382480383E-1,-9.586858749E0,-1.839078307E0
2.384427307E1,9.362640381E-1,-9.586791039E0,-1.840444565E0
2.386467307E1,9.336633682E-1,-9.586661339E0,-1.842443228E0
2.388481391E1,9.333134294E-1,-9.586282730E0,-1.844584107E0
2.390508432E1,9.335483909E-1,-9.585898399E0,-1.846462727E0
2.392535474E1,9.343684316E-1,-9.585597992E0,-1.847604156E0
2.394562516E1,9.347133040E-1,-9.585528374E0,-1.847794890E0
2.396589562E1,9.341914058E-1,-9.585856438E0,-1.846360922E0
2.398616604E1,9.338262677E-1,-9.586453438E0,-1.843440652E0
2.400655521E1,9.345524907E-1,-9.586716652E0,-1.841702104E0
2.402686479E1,9.352312684E-1,-9.586646080E0,-1.841725469E0
2.404713531E1,9.359189868E-1,-9.586420059E0,-1.842550159E0
2.406724839E1,9.357644320E-1,-9.586461067E0,-1.842415929E0
2.408751875E1,9.361814260E-1,-9.586427689E0,-1.842376947E0
2.410778906E1,9.366533160E-1,-9.586423874E0,-1.842154384E0
2.412805937E1,9.352533817E-1,-9.586545944E0,-1.842230916E0
2.414845937E1,9.328565001E-1,-9.587009430E0,-1.841037631E0
2.416860016E1,9.307280779E-1,-9.587267876E0,-1.840768337E0
2.418887057E1,9.295331240E-1,-9.587396622E0,-1.840696096E0
2.420914099E1,9.293273091E-1,-9.587117195E0,-1.842259526E0
2.422941135E1,9.298060536E-1,-9.586742401E0,-1.843965530E0
2.424981135E1,9.310708642E-1,-9.586375237E0,-1.845240712E0
2.426995229E1,9.331998229E-1,-9.585860252E0,-1.846835971E0
2.429022276E1,9.359551072E-1,-9.585392952E0,-1.847866416E0
2.431062276E1,9.391490817E-1,-9.584927559E0,-1.848659754E0
2.433076364E1,9.416619539E-1,-9.584635735E0,-1.848893404E0
2.435116364E1,9.447485209E-1,-9.584047318E0,-1.850369811E0
2.437130453E1,9.490965605E-1,-9.583119392E0,-1.852952480E0
2.439157505E1,9.534191489E-1,-9.582214355E0,-1.855410695E0
2.441184552E1,9.568188787E-1,-9.581715584E0,-1.856238008E0
2.443211594E1,9.584392309E-1,-9.581565857E0,-1.856169581E0
2.445238557E1,9.587059021E-1,-9.581476212E0,-1.856496572E0
2.447265661E1,9.579760432E-1,-9.581577301E0,-1.856348753E0
2.449292714E1,9.579542875E-1,-9.581432343E0,-1.857111692E0
2.451319771E1,9.582556486E-1,-9.581228256E0,-1.858011246E0
2.453346823E1,9.574949145E-1,-9.581355095E0,-1.857747555E0
2.455373870E1,9.556970596E-1,-9.581657410E0,-1.857115388E0
2.457400922E1,9.548418522E-1,-9.581906319E0,-1.856269240E0
2.459427979E1,9.556466341E-1,-9.581574440E0,-1.857565522E0
2.461455031E1,9.595594406E-1,-9.580628395E0,-1.860426188E0
2.463482083E1,9.644415975E-1,-9.579509735E0,-1.863661408E0
2.465509125E1,9.670244455E-1,-9.578984261E0,-1.865023136E0
2.467536182E1,9.684991837E-1,-9.578658104E0,-1.865931511E0
2.469563234E1,9.705508947E-1,-9.578326225E0,-1.866565347E0
2.471590292E1,9.737539291E-1,-9.577990532E0,-1.866626501E0
2.473617344E1,9.767199755E-1,-9.577696800E0,-1.866581082E0
2.475644396E1,9.789232612E-1,-9.577496529E0,-1.866454482E0
2.477685187E1,9.811716080E-1,-9.577189445E0,-1.866851807E0
2.479713354E1,9.830383062E-1,-9.576536179E0,-1.869212270E0
2.481724859E1,9.840168357E-1,-9.575777054E0,-1.872591972E0
2.483751901E1,9.840843081E-1,-9.575429916E0,-1.874330521E0
2.485792849E1,9.850686193E-1,-9.575052261E0,-1.875741482E0
2.487821114E1,9.862135649E-1,-9.575029373E0,-1.875254989E0
2.489832724E1,9.877462983E-1,-9.574993134E0,-1.874628544E0
2.491859984E1,9.898409247E-1,-9.574740410E0,-1.874816418E0
2.493887021E1,9.929901958E-1,-9.574032784E0,-1.876765609E0
2.495927203E1,9.961870909E-1,-9.573194504E0,-1.879345536E0
2.497941448E1,9.990046024E-1,-9.572058678E0,-1.883631349E0
2.499968604E1,9.999764562E-1,-9.571152687E0,-1.887712121E0
2.501995745E1,1.001757145E0,-9.570305824E0,-1.891059279E0
2.504022792E1,1.003358483E0,-9.569648743E0,-1.893535018E0
2.506062864E1,1.005248904E0,-9.568801880E0,-1.896809697E0
2.508077036E1,1.008775115E0,-9.567894936E0,-1.899513960E0
2.510104130E1,1.013541698E0,-9.567481041E0,-1.899060845E0
2.512131224E1,1.017949581E0,-9.567178726E0,-1.898224115E0
2.514158281E1,1.022047758E0,-9.566967010E0,-1.897090197E0
2.516198312E1,1.025320053E0,-9.566925049E0,-1.895532966E0
2.518212443E1,1.027410388E0,-9.567289352E0,-1.892563581E0
2.520239516E1,1.028532386E0,-9.567625999E0,-1.890249252E0
2.522266588E1,1.028798819E0,-9.567773819E0,-1.889348626E0
2.524293646E1,1.029661417E0,-9.567342758E0,-1.891069651E0
2.526333661E1,1.029398561E0,-9.566789627E0,-1.894004703E0
2.528347781E1,1.029372931E0,-9.566345215E0,-1.896263003E0
2.530374844E1,1.030225754E0,-9.565748215E0,-1.898813367E0
2.532401911E1,1.032004118E0,-9.565232277E0,-1.900443196E0
2.534428969E1,1.034539342E0,-9.564736366E0,-1.901559234E0
2.536468974E1,1.035915971E0,-9.564502716E0,-1.901985884E0
2.538483094E1,1.035621524E0,-9.564603806E0,-1.901639342E0
2.540510156E1,1.034541607E0,-9.564595222E0,-1.902265429E0
2.542536823E1,1.033926845E0,-9.564297676E0,-1.904098988E0
2.544559943E1,1.032197118E0,-9.564342499E0,-1.904813528E0
2.546591349E1,1.029846311E0,-9.564725876E0,-1.904156446E0
2.548618406E1,1.027496338E0,-9.565306664E0,-1.902511477E0
2.550657339E1,1.027069449E0,-9.565575600E0,-1.901386380E0
2.552688318E1,1.027794123E0,-9.565715790E0,-1.900293827E0
2.554715385E1,1.029150128E0,-9.565967560E0,-1.898292065E0
2.556726714E1,1.029390693E0,-9.566606522E0,-1.894934535E0
2.558753755E1,1.028275728E0,-9.567204475E0,-1.892517209E0
2.560780812E1,1.027678251E0,-9.567305565E0,-1.892334700E0
2.562807859E1,1.028625846E0,-9.566876411E0,-1.893987298E0
2.564847859E1,1.031817555E0,-9.566217422E0,-1.895576835E0
2.566861974E1,1.033735514E0,-9.565363884E0,-1.898838997E0
2.568889026E1,1.033782244E0,-9.564908028E0,-1.901112199E0
2.570916083E1,1.032236457E0,-9.565079689E0,-1.901083469E0
2.572943141E1,1.030958176E0,-9.565565109E0,-1.899334073E0
2.574983141E1,1.030475259E0,-9.565895081E0,-1.897934318E0
2.577013052E1,1.031575084E0,-9.565871239E0,-1.897460699E0
2.579024380E1,1.031895518E0,-9.566102028E0,-1.896116853E0
2.581051427E1,1.031136990E0,-9.566323280E0,-1.895416260E0
2.583078484E1,1.028538942E0,-9.566517830E0,-1.895846367E0
2.585118484E1,1.025154233E0,-9.566441536E0,-1.898066998E0
2.587132599E1,1.022775650E0,-9.566264153E0,-1.900239944E0
2.589159651E1,1.020962596E0,-9.566318512E0,-1.900940418E0
2.591186708E1,1.019326329E0,-9.566703796E0,-1.899878383E0
2.593213760E1,1.018224001E0,-9.567305565E0,-1.897438407E0
2.595240312E1,1.017972112E0,-9.567949295E0,-1.894320011E0
2.597267703E1,1.018186927E0,-9.568338394E0,-1.892241120E0
2.599294802E1,1.017453194E0,-9.568611145E0,-1.891255856E0
2.601321896E1,1.016027808E0,-9.568940163E0,-1.890358090E0
2.603348974E1,1.015280724E0,-9.569108963E0,-1.889903426E0
2.605376062E1,1.014764071E0,-9.569304466E0,-1.889193892E0
2.607403141E1,1.013441443E0,-9.569699287E0,-1.887903929E0
2.609430214E1,1.011502624E0,-9.570023537E0,-1.887292862E0
2.611457281E1,1.010909677E0,-9.570273399E0,-1.886348367E0
2.613484354E1,1.010921955E0,-9.570390701E0,-1.885747313E0
2.615511422E1,1.011703014E0,-9.570179939E0,-1.886396050E0
2.617538490E1,1.012026548E0,-9.569847107E0,-1.887909770E0
2.619565562E1,1.012470365E0,-9.569437981E0,-1.889743209E0
2.621592625E1,1.012300491E0,-9.569171906E0,-1.891185403E0
2.623632630E1,1.011233091E0,-9.569119453E0,-1.892024159E0
2.625646760E1,1.011425495E0,-9.569037437E0,-1.892338037E0
2.627687557E1,1.011306047E0,-9.569181442E0,-1.891667247E0
2.629715750E1,1.010043263E0,-9.569422722E0,-1.891124487E0
2.631727271E1,1.009045720E0,-9.569824219E0,-1.889625907E0
2.633754323E1,1.008034110E0,-9.570002556E0,-1.889258981E0
2.635794474E1,1.007561564E0,-9.570197105E0,-1.888528228E0
2.637808719E1,1.007064700E0,-9.570165634E0,-1.888954043E0
2.639835875E1,1.006222725E0,-9.570311546E0,-1.888660312E0
2.641863005E1,1.005498648E0,-9.570547104E0,-1.887852073E0
2.643890068E1,1.004885316E0,-9.570645332E0,-1.887678623E0
2.645930130E1,1.003916502E0,-9.570869446E0,-1.887062430E0
2.647944297E1,1.002204776E0,-9.571440697E0,-1.885066867E0
2.649971411E1,9.994102716E-1,-9.572590828E0,-1.880709887E0
2.651998510E1,9.969617724E-1,-9.573892593E0,-1.875372648E0
2.654025568E1,9.949320555E-1,-9.574701309E0,-1.872323751E0
2.656065594E1,9.933437109E-1,-9.575155258E0,-1.870846272E0
2.658079750E1,9.932845235E-1,-9.574845314E0,-1.872463942E0
2.660106833E1,9.925293326E-1,-9.574228287E0,-1.876013517E0
2.662133906E1,9.912093282E-1,-9.573933601E0,-1.878214717E0
2.664160969E1,9.906782508E-1,-9.573760986E0,-1.879375339E0
2.666201776E1,9.931120872E-1,-9.573320389E0,-1.880330801E0
2.668229979E1,9.978199005E-1,-9.572793961E0,-1.880520701E0
2.670241505E1,1.001391411E0,-9.572340012E0,-1.880928755E0
2.672268719E1,1.002989888E0,-9.572339058E0,-1.880087852E0
2.674295771E1,1.002751708E0,-9.572405815E0,-1.879875064E0
2.676335896E1,1.001208663E0,-9.572633743E0,-1.879533648E0
2.678350120E1,9.997424483E-1,-9.572836876E0,-1.879282236E0
2.680377260E1,9.970986843E-1,-9.573245049E0,-1.878608942E0
2.682404385E1,9.945562482E-1,-9.573603630E0,-1.878124952E0
2.684431448E1,9.920349717E-1,-9.574078560E0,-1.877037644E0
2.686471495E1,9.905251861E-1,-9.574337959E0,-1.876510739E0
2.688485667E1,9.912264347E-1,-9.574607849E0,-1.874764681E0
2.690512771E1,9.918850660E-1,-9.574851990E0,-1.873166680E0
2.692539859E1,9.912748933E-1,-9.575183868E0,-1.871792197E0
2.694566922E1,9.876860976E-1,-9.575712204E0,-1.870990992E0
2.696594094E1,9.833105206E-1,-9.576375008E0,-1.869903326E0
2.698621161E1,9.786436558E-1,-9.576906204E0,-1.869629145E0
2.700660099E1,9.753497839E-1,-9.577115059E0,-1.870276451E0
2.702691083E1,9.734719992E-1,-9.577148438E0,-1.871088862E0
2.704718161E1,9.719366431E-1,-9.577209473E0,-1.871575952E0
2.706729490E1,9.710117579E-1,-9.577445030E0,-1.870849252E0
2.708756542E1,9.697772861E-1,-9.578021049E0,-1.868536472E0
2.710783604E1,9.679529667E-1,-9.578780174E0,-1.865592718E0
2.712810656E1,9.677108526E-1,-9.579334259E0,-1.862868547E0
2.714850656E1,9.678753614E-1,-9.579628944E0,-1.861263514E0
2.716864781E1,9.692962766E-1,-9.579668045E0,-1.860328436E0
2.718891838E1,9.711571932E-1,-9.579575539E0,-1.859834433E0
2.720918901E1,9.734645486E-1,-9.579324722E0,-1.859916568E0
2.722945964E1,9.767705798E-1,-9.578986168E0,-1.859926701E0
2.724985964E1,9.802294970E-1,-9.578239441E0,-1.861953497E0
2.727000094E1,9.849305153E-1,-9.577382088E0,-1.863879919E0
2.729027161E1,9.886398911E-1,-9.576456070E0,-1.866674781E0
2.731054224E1,9.896128178E-1,-9.575940132E0,-1.868803501E0
2.733081286E1,9.879055023E-1,-9.575954437E0,-1.869636536E0
2.735121286E1,9.851158857E-1,-9.576158524E0,-1.870058298E0
2.737135422E1,9.833841324E-1,-9.576337814E0,-1.870051742E0
2.739162490E1,9.813732505E-1,-9.576661110E0,-1.869453192E0
2.741189547E1,9.790319204E-1,-9.577272415E0,-1.867546678E0
2.743216614E1,9.753453732E-1,-9.578157425E0,-1.864933372E0
2.745243604E1,9.709879756E-1,-9.579291344E0,-1.861381650E0
2.747283609E1,9.669878483E-1,-9.580225945E0,-1.858652353E0
2.749297786E1,9.655517936E-1,-9.580704689E0,-1.856927872E0
2.751324859E1,9.663408399E-1,-9.580722809E0,-1.856430769E0
2.753351927E1,9.682866335E-1,-9.580192566E0,-1.858150601E0
2.755378990E1,9.700018167E-1,-9.579475403E0,-1.860946894E0
2.757418995E1,9.717687964E-1,-9.578745842E0,-1.863781214E0
2.759433125E1,9.757651091E-1,-9.577774048E0,-1.866686821E0
2.761460198E1,9.799249172E-1,-9.576953888E0,-1.868713975E0
2.763487266E1,9.835796356E-1,-9.576256752E0,-1.870364308E0
2.765514328E1,9.861122966E-1,-9.575554848E0,-1.872618437E0
2.767541396E1,9.868972301E-1,-9.575152397E0,-1.874265909E0
2.769568464E1,9.870883822E-1,-9.574782372E0,-1.876057982E0
2.771595531E1,9.861381054E-1,-9.574587822E0,-1.877549171E0
2.773622990E1,9.847784042E-1,-9.574679375E0,-1.877794981E0
2.775653990E1,9.836043119E-1,-9.575065613E0,-1.876440167E0
2.777693448E1,9.809933901E-1,-9.576019287E0,-1.872932792E0
2.779718740E1,9.783370495E-1,-9.576999664E0,-1.869311452E0
2.781730240E1,9.754893780E-1,-9.577919960E0,-1.866085291E0
2.783757286E1,9.721779227E-1,-9.578734398E0,-1.863627791E0
2.785797422E1,9.683746696E-1,-9.579438210E0,-1.861991405E0
2.787811651E1,9.651304483E-1,-9.579948425E0,-1.861046433E0
2.789838708E1,9.620693922E-1,-9.580434799E0,-1.860129476E0
2.791878797E1,9.589893222E-1,-9.580955505E0,-1.859040737E0
2.793899734E1,9.554796815E-1,-9.581267357E0,-1.859234214E0
2.795939734E1,9.542588592E-1,-9.580872536E0,-1.861896992E0
2.797947385E1,9.554065466E-1,-9.580058098E0,-1.865491629E0
2.799974448E1,9.585995674E-1,-9.579178810E0,-1.868367195E0
2.802001510E1,9.626832008E-1,-9.578597069E0,-1.869249463E0
2.804028573E1,9.647899270E-1,-9.578471184E0,-1.868815660E0
2.806055630E1,9.650688767E-1,-9.578555107E0,-1.868237972E0
2.808082698E1,9.645383358E-1,-9.578861237E0,-1.866942763E0
2.810109760E1,9.644848108E-1,-9.578887939E0,-1.866835713E0
2.812136818E1,9.655825496E-1,-9.578565598E0,-1.867921114E0
2.814163880E1,9.668766260E-1,-9.578341484E0,-1.868393779E0
2.816190943E1,9.681842923E-1,-9.578101158E0,-1.868950963E0
2.818218010E1,9.700356722E-1,-9.577996254E0,-1.868530631E0
2.820245073E1,9.721830487E-1,-9.577713966E0,-1.868864536E0
2.822272135E1,9.755038619E-1,-9.577079773E0,-1.870380640E0
2.824299198E1,9.799126983E-1,-9.576050758E0,-1.873343468E0
2.826326260E1,9.838176966E-1,-9.575139999E0,-1.875951648E0
2.828353323E1,9.854037762E-1,-9.574676514E0,-1.877478957E0
2.830380385E1,9.856299162E-1,-9.574467659E0,-1.878426552E0
2.832407448E1,9.856684208E-1,-9.574633598E0,-1.877562165E0
2.834434510E1,9.852935672E-1,-9.574683189E0,-1.877504945E0
2.836474510E1,9.856548309E-1,-9.574512482E0,-1.878181219E0
2.838488635E1,9.861048460E-1,-9.574289322E0,-1.879091978E0
2.840515698E1,9.849632382E-1,-9.574310303E0,-1.879579782E0
2.842542760E1,9.837341309E-1,-9.574209213E0,-1.880734921E0
2.844569823E1,9.818401337E-1,-9.574454308E0,-1.880476356E0
2.846596885E1,9.804004431E-1,-9.574607849E0,-1.880447030E0
2.848623948E1,9.815353751E-1,-9.574306488E0,-1.881387949E0
2.850663948E1,9.835978150E-1,-9.573751450E0,-1.883142591E0
2.852693864E1,9.860792160E-1,-9.573167801E0,-1.884804368E0
2.854720937E1,9.875491261E-1,-9.573110580E0,-1.884330034E0
2.856732260E1,9.893186688E-1,-9.573278427E0,-1.882543683E0
2.858759318E1,9.909628630E-1,-9.573294640E0,-1.881599426E0
2.860799318E1,9.943200946E-1,-9.573098183E0,-1.880826950E0
2.862813422E1,9.975302219E-1,-9.573124886E0,-1.878992677E0
2.864853422E1,1.000273466E0,-9.573187828E0,-1.877211213E0
2.866867531E1,1.001139522E0,-9.573427200E0,-1.875525951E0
2.868894589E1,1.001004457E0,-9.573596954E0,-1.874733329E0
2.870921646E1,1.000969172E0,-9.573641777E0,-1.874516726E0
2.872948698E1,1.001072288E0,-9.573473930E0,-1.875324488E0
2.874988698E1,1.001376510E0,-9.573197365E0,-1.876569748E0
2.877002818E1,1.001765966E0,-9.572883606E0,-1.877964258E0
2.879029875E1,1.001032829E0,-9.572635651E0,-1.879620433E0
2.881069875E1,1.000242949E0,-9.572787285E0,-1.879266858E0
2.883083995E1,9.989022017E-1,-9.573358536E0,-1.877074242E0
2.885123995E1,9.974188805E-1,-9.573928833E0,-1.874948978E0
2.887138109E1,9.966793060E-1,-9.574240685E0,-1.873752475E0
2.889165172E1,9.963356256E-1,-9.574224472E0,-1.874015331E0
2.891192229E1,9.959396124E-1,-9.574121475E0,-1.874752641E0
2.893219292E1,9.946473241E-1,-9.573789597E0,-1.877130508E0
2.895246245E1,9.929590225E-1,-9.573615074E0,-1.878910422E0
2.897273370E1,9.914069772E-1,-9.573909760E0,-1.878225684E0
2.899300432E1,9.911100864E-1,-9.574440956E0,-1.875674963E0
2.901327490E1,9.924581051E-1,-9.574701309E0,-1.873635411E0
2.903354562E1,9.930577278E-1,-9.575009346E0,-1.871743917E0
2.905381625E1,9.937188029E-1,-9.574874878E0,-1.872080088E0
2.907408682E1,9.940716624E-1,-9.574737549E0,-1.872593164E0
2.909435750E1,9.936844110E-1,-9.574769020E0,-1.872640729E0
2.911462807E1,9.920813441E-1,-9.575003624E0,-1.872291327E0
2.913489865E1,9.907636046E-1,-9.575314522E0,-1.871397495E0
2.915516927E1,9.908340573E-1,-9.575551987E0,-1.870139956E0
2.917543984E1,9.914731383E-1,-9.575569153E0,-1.869718909E0
2.919571047E1,9.925400615E-1,-9.575407982E0,-1.869972587E0
2.921598104E1,9.926359653E-1,-9.575578690E0,-1.869052052E0
2.923625958E1,9.925934076E-1,-9.576112747E0,-1.866335154E0
2.925661521E1,9.919597507E-1,-9.576766968E0,-1.863315701E0
2.927696182E1,9.906852841E-1,-9.577167511E0,-1.861929893E0
2.929721453E1,9.904008508E-1,-9.577385902E0,-1.860958457E0
2.931732911E1,9.907583594E-1,-9.577620506E0,-1.859565020E0
2.933759958E1,9.892612696E-1,-9.577727318E0,-1.859811068E0
2.935800854E1,9.861090183E-1,-9.578040123E0,-1.859873295E0
2.937829104E1,9.824697375E-1,-9.578547478E0,-1.859182477E0
2.939840687E1,9.790428281E-1,-9.578987122E0,-1.858724833E0
2.941867922E1,9.773074389E-1,-9.579257011E0,-1.858253360E0
2.943902255E1,9.762542844E-1,-9.579173088E0,-1.859236002E0
2.945941870E1,9.754865766E-1,-9.578825951E0,-1.861428499E0
2.947949885E1,9.752565026E-1,-9.578625679E0,-1.862578034E0
2.949976932E1,9.753426909E-1,-9.578597069E0,-1.862679720E0
2.952003984E1,9.761284590E-1,-9.578461647E0,-1.862966299E0
2.954031026E1,9.764757752E-1,-9.578282356E0,-1.863706708E0
2.956058083E1,9.766271710E-1,-9.578008652E0,-1.865029454E0
2.958085130E1,9.786791205E-1,-9.577486038E0,-1.866633892E0
2.960112187E1,9.817478657E-1,-9.577046394E0,-1.867283702E0
2.962139245E1,9.849422574E-1,-9.576675415E0,-1.867504120E0
2.964166292E1,9.879328012E-1,-9.576349258E0,-1.867595673E0
2.966193349E1,9.923714995E-1,-9.575541496E0,-1.869382620E0
2.968220401E1,9.957184792E-1,-9.574822426E0,-1.871281266E0
2.970247458E1,9.971982241E-1,-9.574403763E0,-1.872641921E0
2.972274505E1,9.967968464E-1,-9.574393272E0,-1.872905493E0
2.974301557E1,9.955225587E-1,-9.574832916E0,-1.871335626E0
2.976328615E1,9.946647286E-1,-9.575178146E0,-1.870021343E0
2.978355667E1,9.942536950E-1,-9.575493813E0,-1.868630052E0
2.980382719E1,9.938859940E-1,-9.575777054E0,-1.867370725E0
2.982422719E1,9.920329452E-1,-9.575998306E0,-1.867223144E0
2.984436828E1,9.888707399E-1,-9.576473236E0,-1.866463423E0
2.986463880E1,9.856506586E-1,-9.576709747E0,-1.866953135E0
2.988490932E1,9.839734435E-1,-9.576477051E0,-1.869033337E0
2.990517984E1,9.836412072E-1,-9.575919151E0,-1.872058868E0
2.992545042E1,9.838988185E-1,-9.575265884E0,-1.875261664E0
2.994572094E1,9.849549532E-1,-9.574760437E0,-1.877292037E0
2.996599146E1,9.868282676E-1,-9.574338913E0,-1.878455877E0
2.998626198E1,9.889878035E-1,-9.573832512E0,-1.879898429E0
3.000666198E1,9.921528101E-1,-9.573386192E0,-1.880502343E0
3.002696094E1,9.949061275E-1,-9.573092461E0,-1.880546212E0
3.004723156E1,9.965159297E-1,-9.573164940E0,-1.879324913E0
3.006734474E1,9.969289899E-1,-9.573367119E0,-1.878070831E0
3.008761516E1,9.967341423E-1,-9.573610306E0,-1.876937032E0
3.010788552E1,9.967312813E-1,-9.573881149E0,-1.875558376E0
3.012815599E1,9.971630573E-1,-9.573917389E0,-1.875143290E0
3.014855599E1,9.984360337E-1,-9.573645592E0,-1.875854731E0
3.016869693E1,1.000806451E0,-9.573160172E0,-1.877064347E0
3.018896740E1,1.001123071E0,-9.573184967E0,-1.876774430E0
3.020923781E1,1.000822902E0,-9.573724747E0,-1.874178529E0
3.022950828E1,1.000256419E0,-9.574159622E0,-1.872254491E0
3.024990828E1,1.000618577E0,-9.574000359E0,-1.872874379E0
3.027020724E1,1.000750422E0,-9.573822975E0,-1.873711705E0
3.029032042E1,9.997645020E-1,-9.573652267E0,-1.875111341E0
3.031059073E1,9.979644418E-1,-9.573382378E0,-1.877446890E0
3.033086120E1,9.957030416E-1,-9.573175430E0,-1.879699588E0
3.035126120E1,9.937499762E-1,-9.573135376E0,-1.880939007E0
3.037140208E1,9.923381209E-1,-9.573338509E0,-1.880647898E0
3.039167250E1,9.898954630E-1,-9.573726654E0,-1.879957199E0
3.041194292E1,9.869952202E-1,-9.574009895E0,-1.880041480E0
3.043221338E1,9.861364961E-1,-9.573970795E0,-1.880692840E0
3.045247880E1,9.870232940E-1,-9.573616028E0,-1.882031560E0
3.047275250E1,9.889574647E-1,-9.573297501E0,-1.882639527E0
3.049302333E1,9.915469289E-1,-9.572967529E0,-1.882949471E0
3.051329417E1,9.944592118E-1,-9.572587967E0,-1.883348942E0
3.053356479E1,9.986928701E-1,-9.572364807E0,-1.882243514E0
3.055383547E1,1.002196670E0,-9.572240829E0,-1.881008744E0
3.057410609E1,1.005123854E0,-9.572248459E0,-1.879413486E0
3.059437672E1,1.006451130E0,-9.572323799E0,-1.878315687E0
3.061464724E1,1.007207990E0,-9.572314262E0,-1.877957225E0
3.063491771E1,1.008100510E0,-9.572113991E0,-1.878496408E0
3.065518833E1,1.009942770E0,-9.571721077E0,-1.879505992E0
3.067545885E1,1.011328459E0,-9.571395874E0,-1.880418062E0
3.069572937E1,1.011933565E0,-9.571364403E0,-1.880256295E0
3.071599984E1,1.012198329E0,-9.571492195E0,-1.879464030E0
3.073640380E1,1.012005329E0,-9.571601868E0,-1.879008412E0
3.075663089E1,1.012979746E0,-9.571469307E0,-1.879159451E0
3.077697792E1,1.014296174E0,-9.571350098E0,-1.879048705E0
3.079723104E1,1.014324903E0,-9.571352959E0,-1.879023314E0
3.081734594E1,1.014418364E0,-9.571151733E0,-1.879999518E0
3.083761635E1,1.014365792E0,-9.570899010E0,-1.881314635E0
3.085801771E1,1.014154792E0,-9.570904732E0,-1.881399989E0
3.087815964E1,1.014510036E0,-9.570877075E0,-1.881348014E0
3.089843089E1,1.014733553E0,-9.570692062E0,-1.882164836E0
3.091870203E1,1.015785336E0,-9.570336342E0,-1.883410454E0
3.093904000E1,1.016341686E0,-9.570270538E0,-1.883441091E0
3.095944000E1,1.016956329E0,-9.570450783E0,-1.882193089E0
3.097951609E1,1.016767502E0,-9.571014404E0,-1.879427433E0
3.099978656E1,1.015861869E0,-9.571475983E0,-1.877564073E0
3.102005703E1,1.014465332E0,-9.571798325E0,-1.876682878E0
3.104032740E1,1.013909101E0,-9.571885109E0,-1.876536727E0
3.106072740E1,1.012894988E0,-9.571806908E0,-1.877484679E0
3.108086833E1,1.010587454E0,-9.571877480E0,-1.878371000E0
3.110113875E1,1.007746100E0,-9.571990013E0,-1.879319549E0
3.112140922E1,1.005535841E0,-9.572143555E0,-1.879724622E0
3.114167958E1,1.004552603E0,-9.572254181E0,-1.879681826E0
3.116195005E1,1.004729271E0,-9.572212219E0,-1.879803896E0
3.118222047E1,1.004482746E0,-9.572070122E0,-1.880656600E0
3.120249094E1,1.005079627E0,-9.572104454E0,-1.880162239E0
3.122276135E1,1.005568862E0,-9.572438240E0,-1.878201962E0
3.124303177E1,1.006136894E0,-9.572653770E0,-1.876804709E0
3.126330219E1,1.007206440E0,-9.572560310E0,-1.876698494E0
3.128357266E1,1.008076787E0,-9.572294235E0,-1.877591848E0
3.130384307E1,1.009159207E0,-9.572278023E0,-1.877092957E0
3.132411349E1,1.010190845E0,-9.572453499E0,-1.875643134E0
3.134438396E1,1.011956096E0,-9.572573662E0,-1.874079823E0
3.136465437E1,1.014702678E0,-9.572389603E0,-1.873533607E0
3.138492479E1,1.017583966E0,-9.572225571E0,-1.872807860E0
3.140519521E1,1.019436240E0,-9.572066307E0,-1.872614026E0
3.142546562E1,1.020768166E0,-9.571650505E0,-1.874016881E0
3.144573604E1,1.021586180E0,-9.571059227E0,-1.876587272E0
3.146600646E1,1.020862699E0,-9.570652962E0,-1.879049063E0
3.148627687E1,1.019523144E0,-9.570657730E0,-1.879751563E0
3.150667687E1,1.018733740E0,-9.570889473E0,-1.878998280E0
3.152697562E1,1.017748594E0,-9.571247101E0,-1.877716899E0
3.154724615E1,1.017114639E0,-9.571622849E0,-1.876140594E0
3.156735922E1,1.016781569E0,-9.572042465E0,-1.874175429E0
3.158762953E1,1.014848113E0,-9.572610855E0,-1.872323513E0
3.160802953E1,1.013271093E0,-9.572875023E0,-1.871830344E0
3.162817026E1,1.011816502E0,-9.572868347E0,-1.872650504E0
3.164857026E1,1.010174513E0,-9.573037148E0,-1.872671366E0
3.166871094E1,1.007403493E0,-9.573661804E0,-1.870965004E0
3.168898125E1,1.004342437E0,-9.574216843E0,-1.869775057E0
3.170925161E1,1.002914667E0,-9.574414253E0,-1.869525790E0
3.172952193E1,1.004549742E0,-9.574395180E0,-1.868747950E0
3.174992193E1,1.006421089E0,-9.574446678E0,-1.867474914E0
3.177006266E1,1.008355379E0,-9.574374199E0,-1.866808414E0
3.179033307E1,1.010018826E0,-9.574217796E0,-1.866707802E0
3.181060349E1,1.010730624E0,-9.573869705E0,-1.868108749E0
3.183087380E1,1.011633396E0,-9.573365211E0,-1.870209455E0
3.185127380E1,1.013141632E0,-9.572950363E0,-1.871509552E0
3.187141458E1,1.013584495E0,-9.572698593E0,-1.872558951E0
3.189168500E1,1.012843966E0,-9.572844505E0,-1.872212052E0
3.191195536E1,1.012666821E0,-9.573064804E0,-1.871181488E0
3.193222578E1,1.012831926E0,-9.573383331E0,-1.869460225E0
3.195249521E1,1.012434840E0,-9.573689461E0,-1.868111730E0
3.197289531E1,1.010773301E0,-9.573911667E0,-1.867868304E0
3.199303656E1,1.008141518E0,-9.574477196E0,-1.866395593E0
3.201330703E1,1.005027175E0,-9.575423241E0,-1.863214612E0
3.203357745E1,1.003040195E0,-9.576348305E0,-1.859525800E0
3.205384786E1,1.001826763E0,-9.576623917E0,-1.858761907E0
3.207411823E1,1.000410318E0,-9.576707840E0,-1.859091282E0
3.209438870E1,9.980307817E-1,-9.576806068E0,-1.859869361E0
3.211465906E1,9.954572916E-1,-9.577038765E0,-1.860046864E0
3.213492943E1,9.919538498E-1,-9.577685356E0,-1.858585000E0
3.215519984E1,9.886662960E-1,-9.578406334E0,-1.856624365E0
3.217547021E1,9.867761731E-1,-9.579005241E0,-1.854541659E0
3.219574057E1,9.855205417E-1,-9.579737663E0,-1.851416826E0
3.221601094E1,9.851459861E-1,-9.580160141E0,-1.849434018E0
3.223628927E1,9.848117828E-1,-9.580451965E0,-1.848104954E0
3.225664469E1,9.853237867E-1,-9.580491066E0,-1.847626567E0
3.227699115E1,9.869903922E-1,-9.580286026E0,-1.847791910E0
3.229724359E1,9.879086614E-1,-9.580231667E0,-1.847592235E0
3.231735792E1,9.887076616E-1,-9.580221176E0,-1.847212672E0
3.233762823E1,9.891613126E-1,-9.580403328E0,-1.846029758E0
3.235802927E1,9.903975129E-1,-9.580416679E0,-1.845294833E0
3.237817078E1,9.914335608E-1,-9.580378532E0,-1.844941139E0
3.239844109E1,9.913794398E-1,-9.580391884E0,-1.844897151E0
3.241884177E1,9.905683398E-1,-9.580554008E0,-1.844489574E0
3.243904990E1,9.887588024E-1,-9.581100464E0,-1.842618823E0
3.245944422E1,9.871589541E-1,-9.581521988E0,-1.841288567E0
3.247952573E1,9.846178293E-1,-9.581514359E0,-1.842685103E0
3.249979609E1,9.814954400E-1,-9.581239700E0,-1.845779300E0
3.252006641E1,9.789998531E-1,-9.581064224E0,-1.848013282E0
3.254033672E1,9.777126908E-1,-9.581036568E0,-1.848840833E0
3.256060703E1,9.790133238E-1,-9.581087112E0,-1.847892046E0
3.258087740E1,9.829543233E-1,-9.580860138E0,-1.846969366E0
3.260114776E1,9.878191948E-1,-9.580575943E0,-1.845852494E0
3.262141812E1,9.914880395E-1,-9.580277443E0,-1.845431328E0
3.264168838E1,9.954423904E-1,-9.579734802E0,-1.846117139E0
3.266195875E1,1.000705123E0,-9.578797340E0,-1.848140478E0
3.268222911E1,1.004682779E0,-9.577775002E0,-1.851273537E0
3.270249943E1,1.006193995E0,-9.577189445E0,-1.853479624E0
3.272276979E1,1.007341981E0,-9.576765060E0,-1.855051041E0
3.274304010E1,1.007214785E0,-9.576653481E0,-1.855701089E0
3.276331047E1,1.005928397E0,-9.576902390E0,-1.855111957E0
3.278358078E1,1.004034162E0,-9.577241898E0,-1.854385495E0
3.280385109E1,1.000778913E0,-9.577596664E0,-1.854312062E0
3.282412146E1,9.981339574E-1,-9.577682495E0,-1.855290294E0
3.284439177E1,9.959034324E-1,-9.577859879E0,-1.855578899E0
3.286479177E1,9.946451783E-1,-9.578015327E0,-1.855449677E0
3.288493245E1,9.949325323E-1,-9.577812195E0,-1.856338501E0
3.290520276E1,9.956954718E-1,-9.577395439E0,-1.858085036E0
3.292547307E1,9.971089959E-1,-9.576815605E0,-1.860315084E0
3.294574344E1,9.991967082E-1,-9.575904846E0,-1.863875866E0
3.296601375E1,1.001579165E0,-9.574902534E0,-1.867743969E0
3.298628406E1,1.003854990E0,-9.574295044E0,-1.869637609E0
3.300668406E1,1.005612254E0,-9.573946953E0,-1.870470285E0
3.302698260E1,1.004866362E0,-9.574301720E0,-1.869053364E0
3.304725302E1,1.003147602E0,-9.574819565E0,-1.867327452E0
3.306736599E1,1.001435518E0,-9.575239182E0,-1.866093516E0
3.308763620E1,1.000972271E0,-9.575491905E0,-1.865048170E0
3.310790646E1,1.000265360E0,-9.575695992E0,-1.864377618E0
3.312817667E1,9.980649352E-1,-9.576015472E0,-1.863917589E0
3.314857667E1,9.948072433E-1,-9.576500893E0,-1.863165736E0
3.316871714E1,9.927001595E-1,-9.576966286E0,-1.861897707E0
3.318898745E1,9.917649627E-1,-9.577198982E0,-1.861195564E0
3.320925771E1,9.910258055E-1,-9.577486992E0,-1.860110879E0
3.322952797E1,9.907743335E-1,-9.577651024E0,-1.859394550E0
3.324992797E1,9.909627438E-1,-9.577673912E0,-1.859178305E0
3.327006859E1,9.910482168E-1,-9.577404022E0,-1.860520840E0
3.329033891E1,9.918242097E-1,-9.577008247E0,-1.862148046E0
3.331073891E1,9.920794368E-1,-9.576654434E0,-1.863828659E0
3.333087948E1,9.931942225E-1,-9.576124191E0,-1.865957141E0
3.335127948E1,9.948222637E-1,-9.575764656E0,-1.866938591E0
3.337142005E1,9.944429994E-1,-9.575774193E0,-1.867088318E0
3.339169036E1,9.937074184E-1,-9.575921059E0,-1.866723180E0
3.341196068E1,9.934397340E-1,-9.576052666E0,-1.866191268E0
3.343223099E1,9.930025339E-1,-9.576121330E0,-1.866074681E0
3.345250042E1,9.929098487E-1,-9.576210976E0,-1.865662575E0
3.347277120E1,9.932913184E-1,-9.576466560E0,-1.864147067E0
3.349304156E1,9.934510589E-1,-9.576547623E0,-1.863646746E0
3.351331187E1,9.943588972E-1,-9.576308250E0,-1.864392400E0
3.353358224E1,9.951313138E-1,-9.576007843E0,-1.865523815E0
3.355385260E1,9.961743951E-1,-9.575683594E0,-1.866628885E0
3.357412292E1,9.980825782E-1,-9.575447083E0,-1.866820812E0
3.359439318E1,9.993951917E-1,-9.575227737E0,-1.867247105E0
3.361466354E1,9.993264675E-1,-9.575345039E0,-1.866686225E0
3.363493380E1,9.991617799E-1,-9.575634956E0,-1.865285516E0
3.365520411E1,9.989107251E-1,-9.575797081E0,-1.864585161E0
3.367547437E1,9.982487559E-1,-9.576121330E0,-1.863272190E0
3.369574469E1,9.980275631E-1,-9.576125145E0,-1.863371134E0
3.371601495E1,9.977054000E-1,-9.575990677E0,-1.864235044E0
3.373628526E1,9.970533848E-1,-9.575908661E0,-1.865006447E0
3.375668224E1,9.958383441E-1,-9.576148987E0,-1.864417076E0
3.377699016E1,9.951187968E-1,-9.576448441E0,-1.863268137E0
3.379726052E1,9.955134988E-1,-9.576584816E0,-1.862352848E0
3.384269510E1,9.963172078E-1,-9.576882362E0,-1.860390782E0
3.386290620E1,9.975321889E-1,-9.576794624E0,-1.860192418E0
3.388316573E1,9.989002943E-1,-9.576554298E0,-1.860694408E0
3.390344781E1,1.000539660E0,-9.576185226E0,-1.861717105E0
3.392371786E1,1.001930118E0,-9.575826645E0,-1.862808704E0
3.394398807E1,1.003202081E0,-9.575460434E0,-1.864009976E0
3.396425833E1,1.004076123E0,-9.575281143E0,-1.864455700E0
3.398452859E1,1.002621770E0,-9.575849533E0,-1.862317681E0
3.400479885E1,9.999815226E-1,-9.576760292E0,-1.859061480E0
3.402506911E1,9.964620471E-1,-9.577791214E0,-1.855629563E0
3.404546911E1,9.931121469E-1,-9.578378677E0,-1.854394197E0
3.406576635E1,9.914342761E-1,-9.578216553E0,-1.856129169E0
3.408588359E1,9.928705096E-1,-9.577434540E0,-1.859393477E0
3.410615089E1,9.959669113E-1,-9.576500893E0,-1.862546325E0
3.412642052E1,9.984562993E-1,-9.575880051E0,-1.864402175E0
3.414669073E1,1.000433564E0,-9.575387955E0,-1.865866661E0
3.416696094E1,1.002156138E0,-9.575282097E0,-1.865492702E0
3.418723125E1,1.003535509E0,-9.575533867E0,-1.863457918E0
3.420750146E1,1.004015207E0,-9.575982094E0,-1.860890627E0
3.422777172E1,1.002708197E0,-9.576569557E0,-1.858566165E0
3.424804198E1,1.000104070E0,-9.577093124E0,-1.857269406E0
3.426831224E1,9.968308806E-1,-9.577608109E0,-1.856374502E0
3.428858250E1,9.932942986E-1,-9.578084946E0,-1.855809808E0
3.430885276E1,9.919049740E-1,-9.578191757E0,-1.856005311E0
3.432912297E1,9.908142686E-1,-9.578039169E0,-1.857375622E0
3.434939323E1,9.897941351E-1,-9.577762604E0,-1.859336972E0
3.436974219E1,9.897502661E-1,-9.577584267E0,-1.860285401E0
3.438993380E1,9.908152819E-1,-9.577520370E0,-1.860050201E0
3.441020406E1,9.924337268E-1,-9.577385902E0,-1.859881759E0
3.443047427E1,9.922038317E-1,-9.577552795E0,-1.859143257E0
3.445074453E1,9.906643033E-1,-9.577971458E0,-1.857802629E0
3.447101474E1,9.890971184E-1,-9.578608513E0,-1.855353594E0
3.449128500E1,9.882185459E-1,-9.579370499E0,-1.851887465E0
3.451155526E1,9.878647923E-1,-9.579812050E0,-1.849786282E0
3.453182547E1,9.874919057E-1,-9.579977036E0,-1.849124908E0
3.455209568E1,9.869099259E-1,-9.580154419E0,-1.848525524E0
3.457236588E1,9.874929190E-1,-9.580141068E0,-1.848285437E0
3.459263614E1,9.878375530E-1,-9.580232620E0,-1.847624302E0
3.461290635E1,9.874901175E-1,-9.580552101E0,-1.846155405E0
3.463317661E1,9.875369668E-1,-9.580861092E0,-1.844519973E0
3.465344687E1,9.878299832E-1,-9.581024170E0,-1.843516111E0
3.467371708E1,9.874297380E-1,-9.581166267E0,-1.842991829E0
3.469398729E1,9.867529869E-1,-9.581151009E0,-1.843431830E0
3.471425750E1,9.860097170E-1,-9.581014633E0,-1.844538331E0
3.473452776E1,9.855020046E-1,-9.580703735E0,-1.846426487E0
3.475479797E1,9.859086871E-1,-9.580327034E0,-1.848165274E0
3.477506823E1,9.861436486E-1,-9.580217361E0,-1.848608494E0
3.479533844E1,9.863508940E-1,-9.580300331E0,-1.848068237E0
3.481560865E1,9.867027998E-1,-9.580394745E0,-1.847384810E0
3.483587885E1,9.864573479E-1,-9.580388069E0,-1.847553730E0
3.485614911E1,9.863483310E-1,-9.580360413E0,-1.847757220E0
3.487641932E1,9.862194061E-1,-9.580335617E0,-1.847953320E0
3.489668953E1,9.871763587E-1,-9.580213547E0,-1.848069906E0
3.491695974E1,9.898835421E-1,-9.579759598E0,-1.848983288E0
3.493723000E1,9.941678047E-1,-9.578855515E0,-1.851365089E0
3.495750021E1,9.985753298E-1,-9.577914238E0,-1.853857279E0
3.497777042E1,1.001532793E0,-9.577323914E0,-1.855312943E0
3.499804062E1,1.002849460E0,-9.577323914E0,-1.854601383E0
3.501831078E1,1.003248692E0,-9.577634811E0,-1.852776527E0
3.503858104E1,1.003603220E0,-9.577754974E0,-1.851969361E0
3.505898104E1,1.004369855E0,-9.577733994E0,-1.851659894E0
3.507912146E1,1.004574060E0,-9.577591896E0,-1.852280259E0
3.509939167E1,1.004680157E0,-9.577247620E0,-1.854002476E0
3.511966187E1,1.005313873E0,-9.576904297E0,-1.855435610E0
3.513993208E1,1.006306887E0,-9.576581955E0,-1.856554747E0
3.516033208E1,1.005305052E0,-9.576745033E0,-1.856260300E0
3.518047250E1,1.003348827E0,-9.577122688E0,-1.855366826E0
3.520074271E1,1.002423644E0,-9.577373505E0,-1.854579091E0
3.522101292E1,1.003493786E0,-9.577439308E0,-1.853657007E0
3.524128307E1,1.005069613E0,-9.577600479E0,-1.851967931E0
3.526168307E1,1.005960464E0,-9.577865601E0,-1.850111961E0
3.528182349E1,1.005792856E0,-9.578149796E0,-1.848732710E0
3.530209370E1,1.006225705E0,-9.578068733E0,-1.848914742E0
3.532236391E1,1.007109046E0,-9.577790260E0,-1.849877238E0
3.534263401E1,1.009628773E0,-9.577417374E0,-1.850435019E0
3.536303401E1,1.012049198E0,-9.577011108E0,-1.851213217E0
3.538317448E1,1.013417363E0,-9.576758385E0,-1.851777554E0
3.540344464E1,1.013843656E0,-9.576718330E0,-1.851752162E0
3.542371484E1,1.013477325E0,-9.576765060E0,-1.851707697E0
3.544398505E1,1.013122320E0,-9.576853752E0,-1.851444364E0
3.546425521E1,1.013236046E0,-9.576879501E0,-1.851246476E0
3.548452542E1,1.012714744E0,-9.576742172E0,-1.852243900E0
3.550479562E1,1.012627363E0,-9.576555252E0,-1.853260040E0
3.552506578E1,1.012237310E0,-9.576746941E0,-1.852481246E0
3.554533599E1,1.010393262E0,-9.577168465E0,-1.851300240E0
3.556560620E1,1.008857369E0,-9.577443123E0,-1.850726366E0
3.558587635E1,1.008827090E0,-9.577713966E0,-1.849338770E0
3.560614651E1,1.008495569E0,-9.578327179E0,-1.846339345E0
3.562641672E1,1.007973433E0,-9.578994751E0,-1.843156815E0
3.564668687E1,1.009617805E0,-9.579277039E0,-1.840788722E0
3.566695708E1,1.012888551E0,-9.578874588E0,-1.841089368E0
3.568722724E1,1.016029358E0,-9.577927589E0,-1.844280958E0
3.570749745E1,1.018447995E0,-9.576950073E0,-1.848016381E0
3.572776760E1,1.020529270E0,-9.576309204E0,-1.850189447E0
3.574803781E1,1.022467375E0,-9.575725555E0,-1.852139592E0
3.576830797E1,1.024562359E0,-9.575147629E0,-1.853971362E0
3.578857812E1,1.028149366E0,-9.574458122E0,-1.855544209E0
3.580884833E1,1.033184171E0,-9.573701859E0,-1.856654048E0
3.582911849E1,1.038034439E0,-9.572910309E0,-1.858026147E0
3.584938865E1,1.041192174E0,-9.572217941E0,-1.859827638E0
3.586965885E1,1.043589354E0,-9.571572304E0,-1.861808658E0
3.588992901E1,1.044105053E0,-9.571322441E0,-1.862796426E0
3.591019917E1,1.043351293E0,-9.571508408E0,-1.862262368E0
3.593046937E1,1.041767359E0,-9.571821213E0,-1.861544132E0
3.595073953E1,1.038619757E0,-9.572190285E0,-1.861406446E0
3.597100969E1,1.034250021E0,-9.572566032E0,-1.861904025E0
3.599127984E1,1.029351950E0,-9.573246956E0,-1.861121655E0
3.601155000E1,1.026288986E0,-9.573761940E0,-1.860160828E0
3.603182021E1,1.024003506E0,-9.574131012E0,-1.859519243E0
3.605209036E1,1.022654772E0,-9.574347496E0,-1.859149337E0
3.607236052E1,1.022016287E0,-9.574396133E0,-1.859248400E0
3.609263068E1,1.021893144E0,-9.574163437E0,-1.860515237E0
3.611290083E1,1.023316383E0,-9.573767662E0,-1.861764431E0
3.613317099E1,1.026450276E0,-9.573385239E0,-1.862008810E0
3.615344114E1,1.031328559E0,-9.572737694E0,-1.862643361E0
3.617371130E1,1.038912416E0,-9.571761131E0,-1.863449097E0
3.619398146E1,1.045530796E0,-9.570819855E0,-1.864583492E0
3.621425161E1,1.050990582E0,-9.570121765E0,-1.865098238E0
3.623452177E1,1.053631186E0,-9.569758415E0,-1.865468740E0
3.625479193E1,1.054538369E0,-9.569645882E0,-1.865538359E0
3.627506208E1,1.054000139E0,-9.569815636E0,-1.864964008E0
3.629533219E1,1.051064491E0,-9.570466995E0,-1.863281012E0
3.631560240E1,1.046689749E0,-9.571393967E0,-1.860977530E0
3.633587255E1,1.040505528E0,-9.572673798E0,-1.857859135E0
3.635614266E1,1.034217834E0,-9.573759079E0,-1.855780602E0
3.637641281E1,1.027690411E0,-9.574626923E0,-1.854923606E0
3.639668297E1,1.023163915E0,-9.575239182E0,-1.854272366E0
3.641695312E1,1.020825148E0,-9.575399399E0,-1.854733348E0
3.643722328E1,1.021050811E0,-9.574988365E0,-1.856727600E0
3.645745406E1,1.022513747E0,-9.574194908E0,-1.860005856E0
3.647776349E1,1.026669621E0,-9.573385239E0,-1.861888051E0
3.649803364E1,1.032178998E0,-9.572651863E0,-1.862618804E0
3.651830375E1,1.038762689E0,-9.571677208E0,-1.863958955E0
3.653857396E1,1.046166062E0,-9.570525169E0,-1.865738988E0
3.655897396E1,1.053760052E0,-9.569375038E0,-1.867358804E0
3.657911422E1,1.060480118E0,-9.568691254E0,-1.867057085E0
3.659938437E1,1.065530181E0,-9.568393707E0,-1.865709066E0
3.661965453E1,1.068497777E0,-9.568282127E0,-1.864584804E0
3.663992464E1,1.069839001E0,-9.568280220E0,-1.863819838E0
3.666032464E1,1.070120811E0,-9.568543434E0,-1.862309337E0
3.668046490E1,1.069287896E0,-9.568926811E0,-1.860814691E0
3.670073505E1,1.067225337E0,-9.569395065E0,-1.859597206E0
3.672100521E1,1.064149380E0,-9.569884300E0,-1.858844638E0
3.674127531E1,1.060997963E0,-9.570381165E0,-1.858080268E0
3.676167531E1,1.057884097E0,-9.570992470E0,-1.856703758E0
3.678181557E1,1.054544806E0,-9.571359634E0,-1.856720328E0
3.680208568E1,1.052171111E0,-9.571668625E0,-1.856473327E0
3.682235583E1,1.050613880E0,-9.571885109E0,-1.856235623E0
3.684262594E1,1.050114036E0,-9.572155952E0,-1.855125070E0
3.686289604E1,1.050040007E0,-9.572537422E0,-1.853191614E0
3.688316620E1,1.050019026E0,-9.572786331E0,-1.851922631E0
3.690343630E1,1.050440192E0,-9.572701454E0,-1.852120161E0
3.692370646E1,1.051038742E0,-9.572479248E0,-1.852928162E0
3.694397656E1,1.050657392E0,-9.572480202E0,-1.853133202E0
3.696424667E1,1.049372673E0,-9.572685242E0,-1.852807045E0
3.698451682E1,1.045216918E0,-9.573562622E0,-1.850623369E0
3.700478693E1,1.040536284E0,-9.574759483E0,-1.847068429E0
3.702505703E1,1.037410975E0,-9.575723648E0,-1.843825340E0
3.704532714E1,1.035470605E0,-9.576085091E0,-1.843035340E0
3.706559729E1,1.035497308E0,-9.575910568E0,-1.843925238E0
3.708586740E1,1.035522580E0,-9.575803757E0,-1.844468713E0
3.710613750E1,1.033546686E0,-9.575813293E0,-1.845526457E0
3.712640760E1,1.028745294E0,-9.576238632E0,-1.845997453E0
3.714667771E1,1.022496462E0,-9.576815605E0,-1.846480966E0
3.716694786E1,1.016875267E0,-9.577594757E0,-1.845542073E0
3.718721797E1,1.012727022E0,-9.578495979E0,-1.843151927E0
3.720748807E1,1.008481503E0,-9.579353333E0,-1.841016769E0
3.722775818E1,1.003344297E0,-9.580273628E0,-1.839030027E0
3.724802828E1,1.000052214E0,-9.580729485E0,-1.838453174E0
3.726829838E1,9.975950718E-1,-9.580937386E0,-1.838701606E0
3.728856849E1,9.974152446E-1,-9.580698013E0,-1.840048432E0
3.730883859E1,9.988194704E-1,-9.580357552E0,-1.841057539E0
3.732910870E1,9.991586208E-1,-9.580475807E0,-1.840264559E0
3.734937880E1,9.972750545E-1,-9.581061363E0,-1.838236451E0
3.736964891E1,9.956417680E-1,-9.581750870E0,-1.835520506E0
3.738991901E1,9.964690804E-1,-9.582093239E0,-1.833284378E0
3.741018911E1,9.981883764E-1,-9.581994057E0,-1.832862139E0
3.743045922E1,9.997141957E-1,-9.581694603E0,-1.833603263E0
3.745072932E1,9.999747276E-1,-9.581346512E0,-1.835276127E0
3.747099943E1,1.000020385E0,-9.581192017E0,-1.836058736E0
3.749126953E1,9.990658164E-1,-9.581449509E0,-1.835232258E0
3.751153964E1,9.960184097E-1,-9.582046509E0,-1.833775282E0
3.753180969E1,9.938250184E-1,-9.582742691E0,-1.831326604E0
3.755207979E1,9.936567545E-1,-9.583153725E0,-1.829263568E0
3.757234990E1,9.944133162E-1,-9.583563805E0,-1.826703787E0
3.759262000E1,9.952954054E-1,-9.583929062E0,-1.824300766E0
3.761302000E1,9.972186089E-1,-9.584231377E0,-1.821663260E0
3.763316016E1,9.993370175E-1,-9.584746361E0,-1.817787170E0
3.765343026E1,1.001291752E0,-9.585410118E0,-1.813202858E0
3.767370036E1,1.002396226E0,-9.586251259E0,-1.808146596E0
3.769397047E1,1.003055215E0,-9.587014198E0,-1.803727269E0
3.771424052E1,1.002580047E0,-9.587771416E0,-1.799955845E0
3.773451062E1,1.001014709E0,-9.588605881E0,-1.796381116E0
3.775478073E1,1.000066638E0,-9.588920593E0,-1.795232773E0
3.777505078E1,1.000251651E0,-9.588500977E0,-1.797367573E0
3.779532088E1,1.000453591E0,-9.587640762E0,-1.801839113E0
3.781559099E1,1.000793815E0,-9.586464882E0,-1.807900786E0
3.783599099E1,1.001444459E0,-9.584895134E0,-1.815845728E0
3.785613109E1,1.002013683E0,-9.583685875E0,-1.821901083E0
3.787640125E1,1.001699567E0,-9.583352089E0,-1.823830962E0
3.789667130E1,1.001211524E0,-9.583554268E0,-1.823035121E0
3.791694141E1,1.001624584E0,-9.583390236E0,-1.823671460E0
3.793721141E1,1.003473401E0,-9.582611084E0,-1.826741576E0
3.795748156E1,1.006744146E0,-9.581437111E0,-1.831100821E0
3.797775167E1,1.010839224E0,-9.580158234E0,-1.835524440E0
3.799802172E1,1.016117692E0,-9.578687668E0,-1.840276837E0
3.801829177E1,1.021473885E0,-9.577703476E0,-1.842434764E0
3.803856187E1,1.027146101E0,-9.577273369E0,-1.841521502E0
3.805896187E1,1.032940865E0,-9.576905251E0,-1.840191007E0
3.807910203E1,1.039195418E0,-9.576128960E0,-1.840712309E0
3.809937208E1,1.045436859E0,-9.575119972E0,-1.842424989E0
3.811964219E1,1.048044682E0,-9.574665070E0,-1.843311310E0
3.813991224E1,1.045922518E0,-9.575212479E0,-1.841664195E0
3.816031224E1,1.040836930E0,-9.576333046E0,-1.838719964E0
3.818045240E1,1.036143899E0,-9.576969147E0,-1.838057399E0
3.820072245E1,1.034733415E0,-9.576636314E0,-1.840584755E0
3.822099255E1,1.037701726E0,-9.575716972E0,-1.843695402E0
3.824126260E1,1.042672753E0,-9.574506760E0,-1.847172976E0
3.826166260E1,1.047140360E0,-9.573236465E0,-1.851226449E0
3.828180276E1,1.050385952E0,-9.572227478E0,-1.854597926E0
3.830207281E1,1.054589987E0,-9.571614265E0,-1.855383515E0
3.832234297E1,1.059981942E0,-9.571070671E0,-1.855109453E0
3.834261292E1,1.063381076E0,-9.570495605E0,-1.856126189E0
3.836301292E1,1.065092921E0,-9.569961548E0,-1.857904434E0
3.838315307E1,1.067665577E0,-9.569339752E0,-1.859627128E0
3.840342312E1,1.071702361E0,-9.568918228E0,-1.859477282E0
3.842369318E1,1.073688507E0,-9.568980217E0,-1.858009577E0
3.844396323E1,1.072200418E0,-9.569571495E0,-1.855823398E0
3.846423333E1,1.069760442E0,-9.570196152E0,-1.854009986E0
3.848450339E1,1.068323374E0,-9.570552826E0,-1.852994561E0
3.850477344E1,1.068501234E0,-9.570757866E0,-1.851836801E0
3.852504349E1,1.068707228E0,-9.570712090E0,-1.851951480E0
3.854531354E1,1.068617105E0,-9.570784569E0,-1.851632833E0
3.856558359E1,1.067321062E0,-9.571101189E0,-1.850742221E0
3.858585364E1,1.066313386E0,-9.571434021E0,-1.849596620E0
3.860612370E1,1.065895915E0,-9.571844101E0,-1.847715259E0
3.862639375E1,1.064998627E0,-9.572258949E0,-1.846084118E0
3.864666380E1,1.063601494E0,-9.572772026E0,-1.844228745E0
3.866693385E1,1.060808897E0,-9.573456764E0,-1.842278004E0
3.868720391E1,1.056500793E0,-9.574342728E0,-1.840152383E0
3.870747396E1,1.052920580E0,-9.574887276E0,-1.839368939E0
3.872774401E1,1.050553203E0,-9.575119972E0,-1.839512825E0
3.874801411E1,1.048724890E0,-9.575339317E0,-1.839418769E0
3.876828411E1,1.045800328E0,-9.575934410E0,-1.837981105E0
3.878855422E1,1.041463375E0,-9.576852798E0,-1.835657239E0
3.880882427E1,1.034229517E0,-9.578498840E0,-1.831150651E0
3.882909432E1,1.026184559E0,-9.580492973E0,-1.825239301E0
3.884936432E1,1.018612385E0,-9.582508087E0,-1.818890095E0
3.886963437E1,1.012332439E0,-9.583882332E0,-1.815154910E0
3.888990443E1,1.007075191E0,-9.584932327E0,-1.812524796E0
3.891017448E1,1.002894759E0,-9.585957527E0,-1.809424520E0
3.893044453E1,9.992119074E-1,-9.586857796E0,-1.806685925E0
3.895071458E1,9.956616759E-1,-9.587720871E0,-1.804068327E0
3.897098458E1,9.927753806E-1,-9.588360786E0,-1.802260280E0
3.899125464E1,9.911713600E-1,-9.588699341E0,-1.801339746E0
3.901152469E1,9.905040860E-1,-9.588833809E0,-1.800987124E0
3.903179474E1,9.898939133E-1,-9.589046478E0,-1.800189853E0
3.905206479E1,9.883494377E-1,-9.589605331E0,-1.798058391E0
3.907233479E1,9.848949909E-1,-9.590646744E0,-1.794398904E0
3.909260479E1,9.803686142E-1,-9.591690063E0,-1.791298151E0
3.911287490E1,9.773853421E-1,-9.592314720E0,-1.789583802E0
3.913314495E1,9.762516022E-1,-9.592393875E0,-1.789780974E0
3.915341495E1,9.760597348E-1,-9.592264175E0,-1.790573478E0
3.917368500E1,9.753807187E-1,-9.592301369E0,-1.790750265E0
3.919395505E1,9.743070006E-1,-9.592508316E0,-1.790226340E0
3.921422510E1,9.741595984E-1,-9.592558861E0,-1.790032744E0
3.923449510E1,9.746419191E-1,-9.592461586E0,-1.790290475E0
3.925476516E1,9.759907126E-1,-9.592310905E0,-1.790363789E0
3.927503521E1,9.768353701E-1,-9.592298508E0,-1.789969444E0
3.929530521E1,9.761568308E-1,-9.592193604E0,-1.790903449E0
3.931557526E1,9.741210341E-1,-9.592333794E0,-1.791260123E0
3.933584526E1,9.724668860E-1,-9.592609406E0,-1.790680408E0
3.935611531E1,9.707999229E-1,-9.592783928E0,-1.790650129E0
3.937638536E1,9.695097804E-1,-9.592948914E0,-1.790468693E0
3.939665536E1,9.693886042E-1,-9.593056679E0,-1.789951444E0
3.941692542E1,9.694863558E-1,-9.593219757E0,-1.789030671E0
3.943719542E1,9.682901502E-1,-9.593545914E0,-1.787925243E0
3.945746547E1,9.668202996E-1,-9.593863487E0,-1.787017345E0
3.947773547E1,9.654395580E-1,-9.594016075E0,-1.786940694E0
3.949800552E1,9.632440805E-1,-9.594078064E0,-1.787796259E0
3.951827552E1,9.619901776E-1,-9.594155312E0,-1.788055778E0
3.953854557E1,9.610783458E-1,-9.594261169E0,-1.787979960E0
3.955894557E1,9.606859088E-1,-9.594174385E0,-1.788655400E0
3.957908562E1,9.606223702E-1,-9.593935013E0,-1.789972782E0
3.959935562E1,9.613985419E-1,-9.593599319E0,-1.791353226E0
3.961962568E1,9.621954560E-1,-9.593173981E0,-1.793203712E0
3.963989568E1,9.633153677E-1,-9.592697144E0,-1.795154929E0
3.966029568E1,9.650934339E-1,-9.592135429E0,-1.797194600E0
3.968043573E1,9.679812193E-1,-9.591411591E0,-1.799506068E0
3.970070578E1,9.708022475E-1,-9.590582848E0,-1.802402973E0
3.972097578E1,9.741204381E-1,-9.589882851E0,-1.804336190E0
3.974124578E1,9.769694209E-1,-9.589404106E0,-1.805332661E0
3.976164578E1,9.787630439E-1,-9.589072227E0,-1.806130528E0
3.978178583E1,9.787430167E-1,-9.588968277E0,-1.806693435E0
3.980205588E1,9.783178568E-1,-9.588957787E0,-1.806979418E0
3.982232589E1,9.773651361E-1,-9.588944435E0,-1.807562947E0
3.984259588E1,9.758408666E-1,-9.589133263E0,-1.807384372E0
3.986286589E1,9.738889337E-1,-9.589471817E0,-1.806646109E0
3.988313594E1,9.727842808E-1,-9.589890480E0,-1.805011749E0
3.990340594E1,9.714068770E-1,-9.590254784E0,-1.803820848E0
3.992367594E1,9.698595405E-1,-9.590638161E0,-1.802615881E0
3.994394594E1,9.681234956E-1,-9.591150284E0,-1.800822854E0
3.996421599E1,9.665986300E-1,-9.591530800E0,-1.799612403E0
3.998448599E1,9.650059342E-1,-9.591644287E0,-1.799860835E0
4.000475599E1,9.650324583E-1,-9.591198921E0,-1.802224398E0
4.002502594E1,9.662337899E-1,-9.590664864E0,-1.804421425E0
4.004529599E1,9.680156708E-1,-9.590014458E0,-1.806920528E0
4.006556599E1,9.686813354E-1,-9.589736938E0,-1.808035016E0
4.008583604E1,9.668769240E-1,-9.590246201E0,-1.806296587E0
4.010610599E1,9.646120667E-1,-9.590870857E0,-1.804197311E0
4.012637604E1,9.628432393E-1,-9.591403961E0,-1.802297115E0
4.014664604E1,9.626644254E-1,-9.591253281E0,-1.803202271E0
4.016691604E1,9.648686051E-1,-9.590662956E0,-1.805160522E0
4.018718604E1,9.668262005E-1,-9.590175629E0,-1.806702137E0
4.020745604E1,9.675519466E-1,-9.589925766E0,-1.807640791E0
4.022772604E1,9.667679667E-1,-9.590034485E0,-1.807481170E0
4.024799604E1,9.666661620E-1,-9.590291023E0,-1.806170583E0
4.026826604E1,9.671739340E-1,-9.590535164E0,-1.804600716E0
4.028853604E1,9.678626060E-1,-9.590556145E0,-1.804123044E0
4.030880604E1,9.685851336E-1,-9.590386391E0,-1.804634929E0
4.032907604E1,9.692597389E-1,-9.590144157E0,-1.805562615E0
4.034934604E1,9.694365859E-1,-9.589941025E0,-1.806544065E0
4.036961604E1,9.695002437E-1,-9.589861870E0,-1.806930900E0
4.038988609E1,9.704014063E-1,-9.589768410E0,-1.806940079E0
4.041015609E1,9.718620181E-1,-9.589619637E0,-1.806950212E0
4.043042609E1,9.727882147E-1,-9.589365005E0,-1.807805777E0
4.045069609E1,9.747371078E-1,-9.588866234E0,-1.809401751E0
4.047096609E1,9.766628146E-1,-9.588489532E0,-1.810350299E0
4.049123609E1,9.777013659E-1,-9.588223457E0,-1.811200976E0
4.051150609E1,9.783439040E-1,-9.588077545E0,-1.811631680E0
4.053177609E1,9.780378938E-1,-9.588150978E0,-1.811400175E0
4.055204604E1,9.771748781E-1,-9.588435173E0,-1.810361981E0
4.057231609E1,9.759581089E-1,-9.588746071E0,-1.809375167E0
4.059258609E1,9.752163887E-1,-9.589039803E0,-1.808214903E0
4.061298609E1,9.737148285E-1,-9.589604378E0,-1.806032538E0
4.063312609E1,9.716610312E-1,-9.590293884E0,-1.803473115E0
4.065339609E1,9.686874151E-1,-9.591153145E0,-1.800499916E0
4.067366609E1,9.672337770E-1,-9.591601372E0,-1.798900604E0
4.069393609E1,9.691190124E-1,-9.591351509E0,-1.799214959E0
4.071420609E1,9.730199575E-1,-9.590631485E0,-1.800941229E0
4.073447609E1,9.765186310E-1,-9.589833260E0,-1.803303599E0
4.075474609E1,9.785312414E-1,-9.589265823E0,-1.805224299E0
4.077501609E1,9.812337756E-1,-9.588765144E0,-1.806422353E0
4.079528609E1,9.845713973E-1,-9.588179588E0,-1.807714105E0
4.081555609E1,9.883599281E-1,-9.587561607E0,-1.808922291E0
4.083582609E1,9.913821816E-1,-9.587254524E0,-1.808897734E0
4.085609609E1,9.936047196E-1,-9.587187767E0,-1.808028936E0
4.087636609E1,9.952129126E-1,-9.586918831E0,-1.808567524E0
4.089663609E1,9.975025654E-1,-9.586262703E0,-1.810783982E0
4.091690609E1,1.001120567E0,-9.585407257E0,-1.813320279E0
4.093717609E1,1.005052328E0,-9.584463120E0,-1.816127419E0
4.095744609E1,1.008839011E0,-9.583312035E0,-1.820102572E0
4.097771609E1,1.011443257E0,-9.582167625E0,-1.824670434E0
4.099798609E1,1.013155818E0,-9.581163406E0,-1.828989387E0
4.101825609E1,1.013685822E0,-9.580665588E0,-1.831304193E0
4.103852604E1,1.013480902E0,-9.580752373E0,-1.830962539E0
4.105892604E1,1.012364626E0,-9.581020355E0,-1.830180168E0
4.107906609E1,1.010739684E0,-9.581490517E0,-1.828611970E0
4.109933609E1,1.009910107E0,-9.581830025E0,-1.827296972E0
4.111960609E1,1.009923458E0,-9.581967354E0,-1.826564312E0
4.113987609E1,1.010649562E0,-9.581892967E0,-1.826553106E0
4.116027609E1,1.010505319E0,-9.581757545E0,-1.827347040E0
4.118041614E1,1.009430766E0,-9.581767082E0,-1.827891707E0
4.120068615E1,1.008283138E0,-9.581750870E0,-1.828604460E0
4.122095614E1,1.008333206E0,-9.581493378E0,-1.829931617E0
4.124122615E1,1.010113478E0,-9.581070900E0,-1.831158400E0
4.126162614E1,1.014228702E0,-9.580244064E0,-1.833204985E0
4.128176620E1,1.019346356E0,-9.579190254E0,-1.835874438E0
4.130203620E1,1.023318529E0,-9.578274727E0,-1.838440180E0
4.132230625E1,1.024548769E0,-9.577890396E0,-1.839757442E0
4.134257625E1,1.025638580E0,-9.577718735E0,-1.840037465E0
4.136297625E1,1.026536465E0,-9.577541351E0,-1.840468884E0
4.138311630E1,1.026906371E0,-9.577316284E0,-1.841423392E0
4.140338630E1,1.025997877E0,-9.577410698E0,-1.841444492E0
4.142365635E1,1.026072621E0,-9.577434540E0,-1.841278553E0
4.144392635E1,1.028255105E0,-9.577032089E0,-1.842159152E0
4.146419635E1,1.031698585E0,-9.576460838E0,-1.843199372E0
4.148446641E1,1.034855127E0,-9.576181412E0,-1.842880011E0
4.150473646E1,1.037584782E0,-9.575968742E0,-1.842447758E0
