"Time (s)","Gyroscope x (rad/s)","Gyroscope y (rad/s)","Gyroscope z (rad/s)"
3.657736500E-2,-7.945535183E-1,-9.334372878E-1,6.684529036E-2
5.684830200E-2,-8.206524849E-1,-1.059537888E0,-2.370211668E-2
7.696189600E-2,-7.993472219E-1,-1.052080989E0,-1.657816470E-1
9.723262500E-2,-8.089345694E-1,-8.615319729E-1,-2.408827394E-1
1.175034060E-1,-9.404946566E-1,-8.215845823E-1,-2.696448565E-1
1.377742920E-1,-1.297757387E0,-1.306146383E0,-2.909501195E-1
1.581742920E-1,-1.718936086E0,-1.809882879E0,-2.946785688E-1
1.783160630E-1,-2.106558800E0,-2.211886883E0,-3.639206886E-1
1.985868960E-1,-2.316948414E0,-2.318945885E0,-6.483460665E-1
2.188577290E-1,-2.156626225E0,-2.223604679E0,-1.127048969E0
2.391286150E-1,-1.758883476E0,-1.827459812E0,-1.594033837E0
2.593995000E-1,-1.378717422E0,-1.423858047E0,-1.886848211E0
2.796704900E-1,-1.213601589E0,-1.182043195E0,-1.811214447E0
2.999414270E-1,-1.199220538E0,-1.619200706E0,-1.349555850E0
3.202122610E-1,-1.058073163E0,-5.099949837E-1,-4.688491523E-1
3.404831460E-1,-8.957535625E-1,2.519348562E-1,3.438138366E-1
3.607541360E-1,-8.866988420E-1,-2.530001104E-3,6.414218545E-1
3.810250730E-1,-8.856335878E-1,-1.319595277E-1,4.560659826E-1
4.012959580E-1,-8.669914603E-1,5.491434336E-1,2.937464416E-1
4.215669480E-1,-1.064997315E0,1.807885528E0,1.691105962E-1
4.418378860E-1,-1.410142779E0,2.949049234E0,-3.671164811E-1
4.622378860E-1,-1.438372254E0,4.645081997E0,-7.914909124E-1
4.823797080E-1,-9.388967156E-1,5.616336346E0,-7.190529704E-1
5.026506460E-1,1.000016257E-1,3.653055429E0,-2.371543199E-1
5.229215830E-1,9.137299061E-1,1.425589085E0,7.069355845E-1
5.431925210E-1,1.363137960E0,4.655202031E-1,9.885646701E-1
5.634634580E-1,1.639041305E0,8.893619776E-1,-8.016108721E-2
5.837343960E-1,1.354083300E0,7.668566704E-1,2.796317078E-2
6.040053330E-1,3.375554085E-1,9.735178351E-1,-2.744385600E-1
6.242762190E-1,-8.904272318E-1,1.056608319E0,-2.131858915E-1
6.445471560E-1,-1.494831204E0,1.649827123E0,-3.553985953E-1
6.648180940E-1,-9.873662591E-1,3.053445101E0,-9.757815003E-1
6.850890310E-1,2.539322078E-1,3.774495363E0,-1.612143397E0
7.053599170E-1,9.414267540E-1,3.466634274E0,-1.811214447E0
7.256308020E-1,6.340981722E-1,2.501239061E0,-1.382579088E0
7.459017400E-1,-1.470063776E-1,2.405365229E0,-8.266445994E-1
7.661726250E-1,-1.965411454E-1,2.254630566E0,-4.757733643E-1
7.865623650E-1,2.379532605E-1,1.541702747E0,-3.745733202E-1
8.068724690E-1,5.687175989E-1,3.174485564E-1,-3.580617309E-1
8.271434580E-1,4.121238589E-1,1.278316379E-1,4.287686199E-2
8.474144480E-1,5.277049541E-1,4.932170510E-1,3.997401893E-1
8.675279900E-1,7.118624449E-1,7.434208393E-1,1.696432382E-1
8.877987710E-1,6.522076726E-1,5.757750273E-1,-2.552638054E-1
9.081987710E-1,3.625891209E-1,1.193361640E0,-5.215796828E-1
9.283404900E-1,4.840291739E-1,2.345710516E0,-7.749792933E-1
9.487404900E-1,5.522060394E-1,2.779672384E0,-1.203215241E0
9.688822080E-1,2.556632832E-2,2.173803568E0,-1.248355865E0
9.891529900E-1,-7.029408216E-1,1.795102358E0,-1.118526816E0
1.009423875E0,-5.058670640E-1,1.701891780E0,-1.124385715E0
1.029694708E0,3.066627681E-1,1.117328405E0,-1.202682614E0
1.050094708E0,1.286971688E0,4.767054915E-1,-8.703203797E-1
1.070236479E0,2.051165104E0,-1.514937997E0,-9.773793817E-2
1.090507365E0,2.348240614E0,-2.875412941E0,1.355548024E0
1.110778250E0,2.218278408E0,-3.101248741E0,3.236803532E0
1.131049136E0,1.793371320E0,-2.305097342E0,4.775177479E0
1.151449136E0,6.511424184E-1,-2.269411087E0,5.070255280E0
1.171590906E0,-9.378314614E-1,-2.446244717E0,4.363053322E0
1.191861844E0,-2.945320845E0,-2.767821312E0,2.791656494E0
1.212132677E0,-4.679170609E0,-2.853574991E0,1.654221296E0
1.232403563E0,-5.534843445E0,-2.856238127E0,1.100417376E0
1.252803563E0,-5.223387241E0,-1.168727398E0,1.653821766E-1
1.272945386E0,-4.338286400E0,-2.858901322E-1,-7.227813601E-1
1.293216271E0,-4.218577385E0,3.366233110E-1,-9.789772630E-1
1.313487208E0,-4.365450382E0,9.852356911E-1,-6.446176767E-1
1.333758094E0,-4.189815044E0,1.401620626E0,-9.028109163E-2
1.354158094E0,-3.831353903E0,1.568866968E0,1.371526867E-1
1.374299917E0,-3.275419474E0,1.443165898E0,2.271674722E-1
1.394570802E0,-2.857969284E0,1.197622657E0,4.720449448E-1
1.414841740E0,-2.408028364E0,1.368064880E0,8.390282989E-1
1.435112625E0,-1.783917069E0,1.495896459E0,1.059937358E0
1.455383302E0,-1.257277369E0,1.641837597E0,1.463139653E0
1.475654344E0,-9.639304280E-1,1.790841341E0,2.186187267E0
1.496062313E0,-7.093324065E-1,1.659813881E0,2.250635862E0
1.516344761E0,-1.209074259E-1,1.436774373E0,1.564739108E0
1.536458354E0,6.660560966E-1,9.186567068E-1,1.027979374E0
1.556868198E0,8.311719298E-1,8.446208835E-1,1.052480459E0
1.577152000E0,3.769701719E-1,5.475454926E-1,6.078660488E-1
1.597265542E0,4.153196514E-1,4.671181142E-1,4.219775498E-1
1.617668615E0,5.436839461E-1,-2.223737910E-2,1.037566781E0
1.637810281E0,1.261005849E-1,8.255793154E-2,1.927994013E0
1.658212729E0,-7.743135095E-1,-1.031974182E-1,2.006823540E0
1.678356323E0,-1.654487610E0,-2.597911656E-1,1.069524646E0
1.698628771E0,-1.458612204E0,7.829687744E-2,1.024783611E0
1.718900802E0,-7.759113908E-1,5.134570599E-1,1.117994189E0
1.739171636E0,-3.978759646E-1,9.964209795E-1,9.173251390E-1
1.759572625E0,-3.877559602E-1,1.416001678E0,7.665903568E-1
1.779715229E0,-6.890923977E-1,1.589107037E0,4.534028471E-1
1.799986115E0,-1.164066792E0,1.633848071E0,3.914843872E-2
1.820386740E0,-1.690173984E0,1.590172291E0,7.483477145E-2
1.840528563E0,-1.833451867E0,1.092827320E0,3.656517565E-1
1.860929083E0,-1.495363832E0,8.137282729E-1,3.150517344E-1
1.881071375E0,-1.309475303E0,5.390233994E-1,-7.749792933E-2
1.901342677E0,-9.863009453E-1,4.452801943E-1,-4.607265070E-2
1.921613823E0,-5.612607598E-1,5.091960430E-1,3.701791167E-2
1.941884708E0,-2.242379934E-1,5.358276367E-1,1.957421899E-1
1.962156792E0,8.189214021E-2,3.749727905E-1,8.033419251E-1
1.982427677E0,6.591318846E-1,2.162485123E-1,1.728789687E0
2.002698615E0,1.199620008E0,7.030740380E-2,2.424806356E0
2.022969604E0,1.529319167E0,-8.775109053E-2,2.900313377E0
2.043240594E0,1.286439061E0,-3.370227814E-1,2.747448206E0
2.063511531E0,1.385508537E0,-1.188434720E0,1.743170738E0
2.083911531E0,1.644900203E0,-1.286439061E0,-4.699144363E-1
2.104053458E0,1.884984016E0,-5.494097471E-1,-2.852776051E0
2.124324448E0,1.406813741E0,1.163001537E0,-4.271440983E0
2.144595438E0,1.356213808E0,1.612542868E0,-5.089296818E0
2.164866427E0,1.299754858E0,2.663691759E0,-5.450421333E0
2.185137365E0,1.489904404E0,1.518267035E0,-5.614871502E0
2.205408354E0,1.441967487E0,2.119874656E-1,-5.617002010E0
2.225679344E0,6.181192398E-1,-3.715106845E-2,-5.609012604E0
2.245950281E0,-4.803007543E-1,1.381913304E0,-4.963196278E0
2.266350281E0,-8.685893416E-1,2.330796957E0,-3.406047344E0
2.286610750E0,-2.881538272E-1,2.599243224E-1,-1.925730348E0
2.306921167E0,1.207742617E-1,-1.448891759E0,-8.399603963E-1
2.327192313E0,-1.603221744E-1,-7.944203615E-1,-6.126597524E-1
2.347463406E0,-3.334275186E-1,1.832253486E-1,-7.371624112E-1
2.367734396E0,-2.034653574E-1,2.434127480E-1,-5.977460742E-1
2.387848094E0,1.814942956E-1,-5.233107805E-1,-5.652555227E-1
2.408118927E0,1.820269227E-1,-6.681866050E-1,-5.881586671E-1
2.428389813E0,-1.107874215E-1,-6.202497482E-1,-6.105292439E-1
2.448789813E0,-3.563306928E-1,-1.239700541E-1,-2.643185556E-1
2.468931740E0,-2.748380303E-1,-3.924165070E-1,8.921582997E-2
2.489202603E0,6.591318548E-2,-6.554034352E-1,-6.364950538E-2
2.509473229E0,3.183806837E-1,-7.890940309E-1,-1.189899445E0
2.529744270E0,4.527370632E-2,-3.322291076E-1,-3.317763567E0
2.550144270E0,-6.411555409E-1,2.343579978E-1,-3.354515314E0
2.570286249E0,5.432844535E-2,-3.050648868E-1,-4.571312666E-1
2.590557291E0,-3.014696240E-1,-1.804290265E-1,5.566002429E-2
2.610828281E0,-3.888212144E-1,-2.986733019E-1,3.406180441E-1
2.631099270E0,-2.284990549E-1,-2.731069624E-1,4.246407151E-1
2.651499270E0,-1.683116555E-1,-1.745700836E-1,4.438154697E-1
2.671641302E0,-4.074633420E-1,4.681833684E-1,3.832286000E-1
2.691912343E0,-1.864211448E-2,-3.821633384E-2,1.169126853E-1
2.712183333E0,3.034669757E-1,-2.022669315E-1,-2.796317078E-2
2.732454374E0,4.339617789E-1,-2.715090811E-1,-4.070638716E-1
2.752854374E0,4.360923171E-1,1.504684892E-2,-6.398239732E-1
2.772996406E0,4.004059732E-1,1.794969290E-1,-7.344992757E-1
2.793267499E0,2.230395675E-1,-4.190480709E-1,-8.862993717E-1
2.813667499E0,-3.680485785E-1,-7.022750378E-1,-1.323989511E0
2.833967499E0,-1.247157454E0,7.882951200E-2,-2.180860996E0
2.854238645E0,-1.623062372E0,-9.467530251E-2,-2.378866911E0
2.874352343E0,-9.607346654E-1,2.210422009E-1,-2.122804165E0
2.894623229E0,-1.507348120E-1,4.660528302E-1,-1.842639804E0
2.914894166E0,-2.412822098E-1,8.362319320E-2,-1.467800140E0
2.935165104E0,-1.470862746E0,-2.097237855E-1,-1.066861510E0
2.955426197E0,-1.412805915E0,-7.976161689E-2,-6.297039986E-1
2.975703593E0,-1.763011366E-1,-6.165213138E-2,-1.349023223E0
2.995975260E0,6.072002649E-2,6.241113544E-1,-3.278881550E0
3.016254791E0,4.740423337E-2,8.735162020E-2,-2.123336792E0
3.036611354E0,-2.258358896E-1,2.569948509E-2,-1.534379125E0
3.056958802E0,-3.632549047E-1,1.238369010E-2,-1.179779530E0
3.077212239E0,-1.352884769E-1,-1.436774284E-1,-9.976193905E-1
3.097327552E0,-2.157158852E-1,-3.342264518E-2,-7.440866828E-1
3.117599687E0,-4.175833464E-1,-1.761679798E-1,-5.002744198E-1
3.137870624E0,-4.543349445E-1,-3.114564717E-1,-4.273038805E-1
3.158271614E0,-2.812296152E-1,-2.619217038E-1,-4.784365296E-1
3.178413697E0,-1.533979625E-1,-3.135869801E-1,-5.631250143E-1
3.198814479E0,-6.125266105E-2,-4.568649530E-1,-6.014744639E-1
3.218957187E0,-4.900212586E-2,-8.082687855E-1,-6.435524225E-1
3.239228229E0,-5.379581451E-2,-1.108539939E0,-4.342280924E-1
3.259636666E0,5.591302514E-1,-4.929507375E-1,2.575274706E-1
3.279919791E0,7.241129875E-1,1.262337416E-1,2.814959288E-1
3.300035729E0,8.956204057E-1,2.162485123E-1,4.187817574E-1
3.320308437E0,8.977509141E-1,5.225118399E-1,4.683165252E-1
3.340579322E0,3.402185738E-1,-3.226417303E-1,3.874896467E-1
3.360980729E0,-3.472759426E-1,-1.174586296E0,2.308958918E-1
3.381123906E0,-1.635179669E-1,-6.543381810E-1,8.815056831E-2
3.401395833E0,8.522109129E-3,-6.857634336E-2,8.122635633E-2
3.421667499E0,1.974732429E-1,4.458128214E-1,2.042642981E-1
3.441938541E0,1.719069183E-1,3.840275407E-1,2.314285189E-1
3.462212447E0,-7.936213911E-2,-1.069258377E-1,2.101232558E-1
3.482483541E0,-1.246358454E-1,-3.285006881E-1,1.691105962E-1
3.502754531E0,-5.326318205E-4,-1.314269006E-1,7.430213690E-2
3.523025624E0,1.651158556E-2,8.655266836E-3,6.258423626E-2
3.543296614E0,-2.183790505E-2,6.524739787E-3,3.115896136E-2
3.563696614E0,-7.989477366E-3,-4.886896908E-2,3.462106921E-3
3.583838749E0,1.065263618E-2,-5.792371184E-2,-1.997369342E-2
3.604109843E0,2.237053588E-2,-4.301001877E-2,-7.723161485E-3
3.624380885E0,5.592634156E-2,3.262370080E-2,1.358211134E-2
3.644780885E0,4.207791388E-2,3.901528195E-2,2.423474751E-2
3.664923020E0,1.384842768E-2,2.676474862E-2,2.263685316E-2
3.685194114E0,-5.326318205E-4,4.380896688E-2,2.956106514E-2
3.705465156E0,-7.989477366E-3,3.688475490E-2,3.328948840E-2
3.725865156E0,-3.195791040E-3,1.664474420E-2,1.890842989E-2
3.746007291E0,1.917474531E-2,6.657897611E-4,-1.251684781E-2
3.766278385E0,3.249054030E-2,-1.957421936E-2,-3.595264629E-2
3.786678385E0,3.941475600E-2,-3.821633384E-2,-1.677790284E-2
3.806978437E0,4.101264849E-2,-7.070687413E-2,2.743053809E-2
3.827052864E0,4.154528305E-2,-1.335574239E-1,5.086633936E-2
3.847452864E0,4.048001766E-2,-1.537974328E-1,4.394212365E-2
3.867634270E0,2.769685537E-2,-1.303616315E-1,1.731053367E-2
3.887905208E0,2.663159044E-3,-1.324921697E-1,-1.304947957E-2
3.908176145E0,-1.544632297E-2,-1.591237634E-1,-3.701791167E-2
3.928447135E0,-1.012000442E-2,-1.468732208E-1,-4.820318148E-2
3.948847135E0,1.065263618E-2,-1.010668874E-1,-5.459476262E-2
3.968989166E0,3.036001325E-2,-5.898897350E-2,-5.406212807E-2
3.989260208E0,3.888212144E-2,-2.862896025E-2,-3.914843872E-2
4.009531197E0,3.728422895E-2,-9.321057005E-4,-1.571263932E-2
4.029802291E0,3.408843651E-2,2.623211779E-2,5.060002208E-3
4.050202291E0,2.609895915E-2,5.060002208E-2,1.997369342E-2
4.070344374E0,2.024000883E-2,6.178529188E-2,2.370211668E-2
4.090615416E0,1.917474531E-2,4.687159881E-2,2.210422046E-2
4.110886510E0,1.438105945E-2,2.090579830E-2,1.837579720E-2
4.131157499E0,1.278316416E-2,1.731053460E-3,1.997369342E-2
4.151557499E0,1.438105945E-2,-7.856319658E-3,1.890842989E-2
4.171857552E0,1.544632297E-2,-6.791055668E-3,1.518000662E-2
4.191971249E0,1.864211448E-2,-1.211737376E-2,9.321057238E-3
4.212242239E0,1.651158556E-2,-1.957421936E-2,1.331579522E-3
4.232513124E0,1.278316416E-2,-2.277000993E-2,-7.190529723E-3
4.252913124E0,1.118526794E-2,-2.862896025E-2,-1.198421605E-2
4.273055208E0,9.587372653E-3,-4.087949172E-2,-1.571263932E-2
4.293326145E0,2.663159044E-3,-5.153212696E-2,-1.571263932E-2
4.313597135E0,-3.195791040E-3,-6.697845459E-2,-2.316948399E-2
4.333868124E0,-6.391582079E-3,-8.562056720E-2,-3.542001545E-2
4.354268124E0,-6.924213842E-3,-9.840372950E-2,-4.767054692E-2
4.374410208E0,-7.456845604E-3,-1.058605760E-1,-5.938844755E-2
4.394681302E0,-7.989477366E-3,-1.149153188E-1,-6.311687082E-2
4.414952291E0,-5.858949851E-3,-1.181111038E-1,-5.566002429E-2
4.435223333E0,-1.012000442E-2,-1.106542572E-1,-4.394212365E-2
4.455492499E0,-1.384842768E-2,-9.733846784E-2,-3.701791167E-2
4.475764739E0,-1.118526794E-2,-9.414267540E-2,-3.648528084E-2
4.496035885E0,-3.195791040E-3,-9.307741374E-2,-4.234423116E-2
4.516306927E0,-3.195791040E-3,-8.189214021E-2,-4.074633494E-2
4.536704791E0,-7.456845604E-3,-6.964161247E-2,-3.062633052E-2
4.557013489E0,-1.917474531E-2,-5.419528857E-2,-1.997369342E-2
4.577267708E0,-1.757685095E-2,-5.259739235E-2,-1.571263932E-2
4.597381406E0,-1.864211448E-2,-4.673844203E-2,-1.038632076E-2
4.617783593E0,-2.290316857E-2,-5.206476152E-2,-1.198421605E-2
4.637925520E0,-3.089264594E-2,-2.490053698E-2,-1.251684781E-2
4.658327239E0,-3.195790946E-2,2.796316985E-3,-1.890842989E-2
4.678470572E0,-2.183790505E-2,-1.464737463E-3,-2.689790726E-2
4.698742604E0,-1.171789970E-2,-2.223737910E-2,-3.062633052E-2
4.719014479E0,-9.587372653E-3,-4.993423447E-2,-2.902843431E-2
4.739285416E0,-1.225053146E-2,-5.685844645E-2,-2.476738021E-2
4.759686145E0,-1.651158556E-2,-2.436790615E-2,-1.304947957E-2
4.779828697E0,-2.929474972E-2,1.451421715E-2,-7.989477599E-4
4.800100208E0,-3.089264594E-2,4.380896688E-2,-1.331579522E-3
4.820371614E0,-1.597895473E-2,6.338318437E-2,-5.060002208E-3
4.840642552E0,5.326318089E-3,5.379581451E-2,-1.038632076E-2
4.861050781E0,1.491369121E-2,2.783001214E-2,-1.198421605E-2
4.881333697E0,1.331579592E-2,9.187898599E-3,-9.321057238E-3
4.901449427E0,5.858949851E-3,8.655266836E-3,-1.331579522E-3
4.921721979E0,-5.326318089E-3,1.984053478E-2,9.853689000E-3
4.941992864E0,-1.384842768E-2,1.451421715E-2,1.518000662E-2
4.962392864E0,-1.757685095E-2,-3.062632866E-3,1.304947957E-2
4.982541302E0,-1.597895473E-2,-1.584579609E-2,3.994738683E-3
5.002812343E0,-1.118526794E-2,-1.904158667E-2,-9.321057238E-3
5.023083281E0,-8.522109129E-3,-1.424790081E-2,-1.358211134E-2
5.043354270E0,-7.456845604E-3,-4.127896391E-3,-1.251684781E-2
5.063625260E0,-6.924213842E-3,2.263685223E-3,-9.853689000E-3
5.083896249E0,-5.326318089E-3,7.057371549E-3,-9.321057238E-3
5.104167239E0,-9.054740891E-3,1.504684892E-2,-8.788425475E-3
5.124438229E0,-1.384842768E-2,1.717737690E-2,-4.527370445E-3
5.144709218E0,-1.438105945E-2,1.771000773E-2,1.331579522E-3
5.164980156E0,-1.171789970E-2,2.090579830E-2,5.592633970E-3
5.185251145E0,-5.326318089E-3,2.410159074E-2,1.358211134E-2
5.205522187E0,3.195791040E-3,2.356895804E-2,1.997369342E-2
5.225793177E0,1.118526794E-2,2.143843099E-2,2.902843431E-2
5.246064166E0,1.438105945E-2,1.771000773E-2,3.755054250E-2
5.266335156E0,1.118526794E-2,1.611211337E-2,3.755054250E-2
5.286735156E0,5.326318089E-3,1.984053478E-2,3.169159219E-2
5.307035052E0,1.597895520E-3,1.664474420E-2,2.316948399E-2
5.327148697E0,1.597895520E-3,2.263685223E-3,1.358211134E-2
5.347548697E0,3.195791040E-3,-3.062632866E-3,9.853689000E-3
5.367690572E0,7.989477366E-3,2.796316985E-3,1.038632076E-2
5.387961458E0,6.391582079E-3,1.238369010E-2,1.145158429E-2
5.408361458E0,9.587372653E-3,1.451421715E-2,1.624527015E-2
5.428503333E0,1.438105945E-2,1.078579482E-2,2.263685316E-2
5.448903333E0,1.757685095E-2,1.078579482E-2,3.062633052E-2
5.469045260E0,2.077264152E-2,2.143843099E-2,3.701791167E-2
5.489316145E0,2.183790505E-2,2.729738131E-2,3.808317333E-2
5.509587083E0,1.970737800E-2,2.783001214E-2,3.275685757E-2
5.529858072E0,1.757685095E-2,1.504684892E-2,2.423474751E-2
5.550258072E0,1.225053146E-2,3.328948980E-3,2.157158963E-2
5.570399999E0,9.587372653E-3,1.731053460E-3,2.210422046E-2
5.590670937E0,9.587372653E-3,4.926844500E-3,2.530001104E-2
5.610941927E0,1.012000442E-2,7.590003312E-3,2.316948399E-2
5.631212864E0,9.054740891E-3,1.185105834E-2,2.050632425E-2
5.651612864E0,1.012000442E-2,1.238369010E-2,1.624527015E-2
5.671754739E0,9.587372653E-3,3.861580743E-3,1.198421605E-2
5.692025729E0,1.012000442E-2,-3.062632866E-3,9.321057238E-3
5.712296666E0,1.012000442E-2,-5.725792143E-3,4.527370445E-3
5.732567604E0,1.065263618E-2,-1.105211023E-2,3.994738683E-3
5.752967604E0,8.522109129E-3,-2.277000993E-2,2.663159103E-4
5.773109531E0,7.989477366E-3,-2.490053698E-2,-2.396843163E-3
5.793380468E0,1.651158556E-2,-3.129211813E-2,-5.592633970E-3
5.813651458E0,4.207791388E-2,-7.017423958E-2,-8.255792782E-3
5.833922395E0,9.574057162E-2,-1.687111259E-1,-1.677790284E-2
5.854322395E0,1.015995219E-1,-2.294311523E-1,-2.210422046E-2
5.874464270E0,6.910897791E-2,-1.980058849E-1,-1.731053367E-2
5.894735260E0,-1.225053146E-2,-2.916159295E-2,1.944106072E-2
5.915006197E0,-4.846949503E-2,7.669898123E-2,5.139897019E-2
5.935277083E0,-3.036001325E-2,4.008054361E-2,7.110634446E-2
5.955547864E0,-1.970737800E-2,-9.520793706E-2,3.861580789E-2
5.975818958E0,-1.597895473E-2,3.102580272E-2,-1.358211134E-2
5.996089947E0,-9.054740891E-3,1.198421568E-1,3.009369783E-2
6.016360833E0,-1.597895473E-2,1.198421582E-3,9.321057238E-3
6.036758489E0,-1.384842768E-2,-4.301001877E-2,-3.994738683E-3
6.057043541E0,-5.326318205E-4,-3.235738352E-2,-1.251684781E-2
6.077089895E0,-2.130527282E-3,-1.957421936E-2,-1.571263932E-2
6.097440312E0,-4.261054564E-3,-1.797632314E-2,-1.784316637E-2
6.117712083E0,-2.130527282E-3,-1.797632314E-2,-1.944106072E-2
6.137982968E0,4.261054564E-3,-4.087949172E-2,-1.997369342E-2
6.158383697E0,6.924213842E-3,-7.177213579E-2,-2.423474751E-2
6.178526041E0,-5.326318205E-4,-8.029424399E-2,-2.263685316E-2
6.198797447E0,-4.261054564E-3,-5.206476152E-2,-1.624527015E-2
6.219068749E0,-8.522109129E-3,-2.383527346E-2,-1.251684781E-2
6.239339635E0,-1.278316416E-2,-1.997369342E-3,-1.304947957E-2
6.259739947E0,-7.456845604E-3,3.861580743E-3,-1.198421605E-2
6.279881927E0,1.065263641E-3,-4.141212255E-2,-1.997369342E-2
6.300152864E0,1.065263641E-3,-5.898897350E-2,-2.583264373E-2
6.320553072E0,4.261054564E-3,-5.366265774E-2,-1.997369342E-2
6.340694843E0,2.663159044E-3,-4.886896908E-2,-1.411474310E-2
6.361094999E0,2.130527282E-3,-4.780370742E-2,-8.255792782E-3
6.381236874E0,2.130527282E-3,-4.407528415E-2,-5.592633970E-3
6.401507864E0,4.261054564E-3,-4.673844203E-2,-3.462106921E-3
6.421778906E0,6.391582079E-3,-4.886896908E-2,-2.929474926E-3
6.442049791E0,6.391582079E-3,-4.460791498E-2,-1.864211401E-3
6.462320937E0,4.261054564E-3,-2.649843320E-2,-3.994738683E-3
6.482591874E0,1.597895520E-3,-7.323687430E-3,-3.994738683E-3
6.502862760E0,-2.130527282E-3,3.861580743E-3,-6.125265732E-3
6.523133645E0,-3.728422802E-3,1.131842658E-2,-6.125265732E-3
6.543404531E0,-6.391582079E-3,1.557948068E-2,-7.190529723E-3
6.563804531E0,-9.054740891E-3,2.143843099E-2,-6.657897960E-3
6.583946249E0,-7.989477366E-3,3.155843541E-2,-1.864211401E-3
6.604217135E0,-6.391582079E-3,3.954791278E-2,7.989477599E-4
6.624488020E0,-4.261054564E-3,3.954791278E-2,6.657897960E-3
6.644758906E0,-1.597895520E-3,3.901528195E-2,1.304947957E-2
6.665029791E0,-1.012000442E-2,2.356895804E-2,2.103895694E-2
6.685300677E0,7.989477366E-3,2.037316747E-2,8.255792782E-3
6.705571458E0,4.261054564E-3,2.250369452E-2,9.853689000E-3
6.725842395E0,7.989477366E-3,1.930790395E-2,1.198421605E-2
6.746113281E0,4.793686327E-3,9.187898599E-3,1.251684781E-2
6.766513281E0,1.597895520E-3,3.328948980E-3,1.038632076E-2
6.786812916E0,3.195791040E-3,6.524739787E-3,1.038632076E-2
6.807083854E0,3.728422802E-3,9.720530361E-3,6.657897960E-3
6.827197395E0,3.195791040E-3,9.720530361E-3,2.396843163E-3
6.847597395E0,2.663159044E-3,1.344895363E-2,-2.396843163E-3
6.867896822E0,-0.000000000E0,1.611211337E-2,-3.462106921E-3
6.888010312E0,-2.130527282E-3,1.877527125E-2,-2.396843163E-3
6.908280989E0,-3.728422802E-3,2.250369452E-2,-7.989477599E-4
6.928551614E0,-3.195791040E-3,2.729738131E-2,3.994738683E-3
6.948951614E0,-2.130527282E-3,2.942790836E-2,9.853689000E-3
6.969093177E0,-5.326318205E-4,3.422159329E-2,1.731053367E-2
6.989363906E0,-0.000000000E0,3.954791278E-2,2.157158963E-2
7.009634635E0,-1.597895520E-3,4.274370521E-2,2.423474751E-2
7.029905468E0,-3.195791040E-3,4.487423226E-2,2.530001104E-2
7.050305468E0,-1.597895520E-3,4.953476042E-2,2.583264373E-2
7.070447031E0,2.663159044E-3,5.645897239E-2,2.476738021E-2
7.090717812E0,5.326318089E-3,6.711161137E-2,2.530001104E-2
7.110988645E0,4.793686327E-3,6.977476925E-2,2.423474751E-2
7.131259479E0,1.597895520E-3,6.231792271E-2,1.944106072E-2
7.151659479E0,-4.793686327E-3,4.740423337E-2,1.145158429E-2
7.171801093E0,-3.728422802E-3,3.262370080E-2,6.125265732E-3
7.192071874E0,4.261054564E-3,2.410159074E-2,6.125265732E-3
7.212342708E0,1.278316416E-2,2.410159074E-2,8.788425475E-3
7.232613541E0,1.544632297E-2,2.889527567E-2,1.198421605E-2
7.253013541E0,1.384842768E-2,3.102580272E-2,1.358211134E-2
7.273155104E0,1.065263618E-2,3.049317189E-2,2.316948399E-2
7.293425937E0,5.326318089E-3,4.740423337E-2,3.382211924E-2
7.313696770E0,-7.456845604E-3,4.953476042E-2,3.382211924E-2
7.333967552E0,-0.000000000E0,2.143843099E-2,2.849580161E-2
7.354367552E0,1.012000442E-2,5.459476262E-3,2.583264373E-2
7.374509166E0,1.331579592E-2,-8.921583183E-3,1.944106072E-2
7.394779999E0,1.597895473E-2,-1.531316526E-2,1.251684781E-2
7.415050781E0,1.917474531E-2,-8.921583183E-3,5.060002208E-3
7.435321614E0,8.522109129E-3,-1.051947847E-2,-3.462106921E-3
7.455592187E0,-3.195791040E-3,-6.791055668E-3,-9.853689000E-3
7.475863124E0,-1.171789970E-2,8.122635074E-3,-1.624527015E-2
7.496133906E0,-1.970737800E-2,2.037316747E-2,-2.423474751E-2
7.516404739E0,-1.970737800E-2,2.197106183E-2,-2.689790726E-2
7.536812656E0,-1.597895473E-2,1.717737690E-2,-2.530001104E-2
7.557091041E0,-9.587372653E-3,1.131842658E-2,-1.731053367E-2
7.577171822E0,-5.858949851E-3,3.861580743E-3,-6.657897960E-3
7.597481718E0,-3.728422802E-3,-1.691105962E-2,1.864211401E-3
7.617883020E0,-3.728422802E-3,-3.448791057E-2,9.321057238E-3
7.638024479E0,-0.000000000E0,-4.141212255E-2,1.837579720E-2
7.658425572E0,7.989477366E-3,-3.608580679E-2,3.115896136E-2
7.678567916E0,1.544632297E-2,-2.596580051E-2,4.127896577E-2
7.698839270E0,2.077264152E-2,-1.637842879E-2,4.873581231E-2
7.719110572E0,2.450106293E-2,-1.158474199E-2,4.767054692E-2
7.739381354E0,2.290316857E-2,-1.051947847E-2,4.607265070E-2
7.759789739E0,2.130527236E-2,-6.258423906E-3,3.808317333E-2
7.780072239E0,1.864211448E-2,9.187898599E-3,2.796317078E-2
7.800187760E0,1.331579592E-2,2.303632535E-2,1.518000662E-2
7.820460156E0,8.522109129E-3,3.049317189E-2,1.864211401E-3
7.840730781E0,5.858949851E-3,3.635212034E-2,-6.125265732E-3
7.861132187E0,5.326318205E-4,4.900212586E-2,-6.125265732E-3
7.881274687E0,-3.728422802E-3,5.752423778E-2,-5.060002208E-3
7.901546302E0,-9.587372653E-3,4.900212586E-2,-3.462106921E-3
7.921817656E0,-1.331579592E-2,2.996053919E-2,-4.527370445E-3
7.942088437E0,-1.065263618E-2,8.655266836E-3,-1.864211401E-3
7.962361927E0,-4.793686327E-3,2.796316985E-3,2.663159103E-4
7.982632656E0,5.326318205E-4,4.926844500E-3,2.929474926E-3
8.002903385E0,5.326318205E-4,-4.127896391E-3,2.396843163E-3
8.023174114E0,5.326318205E-4,-1.424790081E-2,7.989477599E-4
8.043444843E0,1.597895520E-3,-1.637842879E-2,3.462106921E-3
8.063715572E0,4.793686327E-3,-1.158474199E-2,1.038632076E-2
8.083986249E0,6.391582079E-3,-4.127896391E-3,1.464737486E-2
8.104257031E0,6.391582079E-3,1.198421582E-3,1.518000662E-2
8.124527760E0,1.065263641E-3,4.394212738E-3,1.411474310E-2
8.144798489E0,-2.663159044E-3,7.590003312E-3,1.251684781E-2
8.165069218E0,-0.000000000E0,1.238369010E-2,9.853689000E-3
8.185339947E0,7.456845604E-3,1.877527125E-2,7.190529723E-3
8.205610677E0,1.544632297E-2,2.410159074E-2,3.462106921E-3
8.226010677E0,1.917474531E-2,2.729738131E-2,1.331579522E-3
8.246152135E0,1.491369121E-2,2.197106183E-2,-1.331579522E-3
8.266541614E0,4.793686327E-3,1.025316212E-2,-2.663159103E-4
8.286851510E0,-3.195791040E-3,-1.371526904E-2,-4.527370445E-3
8.307122291E0,-5.858949851E-3,-3.874896467E-2,-1.091895252E-2
8.327235677E0,-5.858949851E-3,-5.259739235E-2,-1.624527015E-2
8.347635677E0,-5.326318205E-4,-5.206476152E-2,-1.677790284E-2
8.367777031E0,-1.597895520E-3,-4.460791498E-2,-1.251684781E-2
8.388047552E0,-1.065263641E-3,-3.874896467E-2,-1.145158429E-2
8.408318177E0,-3.195791040E-3,-3.608580679E-2,-1.038632076E-2
8.428588802E0,-4.793686327E-3,-3.608580679E-2,-1.038632076E-2
8.448988802E0,-1.065263641E-3,-3.235738352E-2,-1.038632076E-2
8.469130208E0,3.728422802E-3,-2.117211558E-2,-9.321057238E-3
8.489400833E0,5.326318089E-3,-1.051947847E-2,-5.592633970E-3
8.509671510E0,4.261054564E-3,-1.997369342E-3,-2.929474926E-3
8.529942187E0,-1.065263641E-3,-3.595264861E-3,-1.331579522E-3
8.550342187E0,3.195791040E-3,-1.371526904E-2,1.331579522E-3
8.570483593E0,4.261054564E-3,-1.637842879E-2,2.929474926E-3
8.590754218E0,5.858949851E-3,-1.464737463E-3,3.994738683E-3
8.611024895E0,2.663159044E-3,1.611211337E-2,3.462106921E-3
8.631295624E0,-1.065263641E-3,2.303632535E-2,1.864211401E-3
8.651695624E0,-4.261054564E-3,1.984053478E-2,2.396843163E-3
8.671994895E0,-7.989477366E-3,1.557948068E-2,-7.989477599E-4
8.692108229E0,-8.522109129E-3,1.877527125E-2,-1.864211401E-3
8.712378802E0,-9.054740891E-3,2.516685426E-2,-3.462106921E-3
8.732649374E0,-1.012000442E-2,2.410159074E-2,-7.190529723E-3
8.753049374E0,-9.054740891E-3,2.037316747E-2,-8.788425475E-3
8.773190624E0,-7.456845604E-3,1.824264042E-2,-7.723161485E-3
8.793461197E0,-3.195791040E-3,1.557948068E-2,-4.527370445E-3
8.813731822E0,2.130527282E-3,1.398158539E-2,-1.864211401E-3
8.834002447E0,5.326318089E-3,1.291632187E-2,-2.663159103E-4
8.854402447E0,2.130527282E-3,1.238369010E-2,-3.994738683E-3
8.874543749E0,-4.261054564E-3,9.187898599E-3,-4.527370445E-3
8.894814427E0,-9.054740891E-3,1.331579551E-4,-5.592633970E-3
8.915085104E0,-7.989477366E-3,-1.158474199E-2,-3.994738683E-3
8.935355729E0,-6.391582079E-3,-1.531316526E-2,-3.994738683E-3
8.955624479E0,-2.663159044E-3,-1.265000552E-2,-5.060002208E-3
8.975896354E0,-1.065263641E-3,-6.258423906E-3,-6.125265732E-3
8.996167135E0,-2.663159044E-3,1.731053460E-3,-7.723161485E-3
9.016437760E0,-5.326318089E-3,4.394212738E-3,-4.527370445E-3
9.036845833E0,-5.326318089E-3,2.263685223E-3,-2.663159103E-4
9.057123958E0,-2.130527282E-3,-9.321057005E-4,2.396843163E-3
9.077204739E0,-1.597895520E-3,1.331579551E-4,2.929474926E-3
9.097515781E0,-5.326318089E-3,-3.994738800E-4,2.929474926E-3
9.117787499E0,-7.989477366E-3,-2.530001104E-3,-1.331579522E-3
9.138058020E0,-5.326318089E-3,-4.127896391E-3,-6.657897960E-3
9.158458906E0,-5.326318089E-3,-7.323687430E-3,-9.321057238E-3
9.178600885E0,-4.261054564E-3,-1.318263728E-2,-5.592633970E-3
9.198872031E0,-5.858949851E-3,-1.850895584E-2,-7.989477599E-4
9.219143072E0,-5.326318089E-3,-1.478053257E-2,5.060002208E-3
9.239413697E0,-5.858949851E-3,-7.856319658E-3,3.994738683E-3
9.259814062E0,-0.000000000E0,-4.127896391E-3,2.663159103E-4
9.279955677E0,2.663159044E-3,6.657897611E-4,-4.527370445E-3
9.300226458E0,-3.728422802E-3,4.926844500E-3,-7.190529723E-3
9.320497239E0,-9.587372653E-3,8.122635074E-3,-1.038632076E-2
9.340767968E0,-1.171789970E-2,6.524739787E-3,-1.038632076E-2
9.361168124E0,-1.065263618E-2,8.122635074E-3,-7.723161485E-3
9.381309479E0,-1.012000442E-2,6.524739787E-3,-3.994738683E-3
9.401580156E0,-8.522109129E-3,5.992108025E-3,-2.929474926E-3
9.421850833E0,-5.858949851E-3,1.025316212E-2,-2.663159103E-4
9.442121510E0,-3.195791040E-3,9.187898599E-3,2.929474926E-3
9.462521510E0,2.130527282E-3,8.655266836E-3,2.396843163E-3
9.482663020E0,7.456845604E-3,8.655266836E-3,6.125265732E-3
9.502933645E0,9.587372653E-3,1.078579482E-2,9.321057238E-3
9.523204270E0,7.456845604E-3,1.291632187E-2,1.464737486E-2
9.543474895E0,4.261054564E-3,1.131842658E-2,1.731053367E-2
9.563745520E0,2.130527282E-3,1.131842658E-2,1.571263932E-2
9.584016145E0,5.326318205E-4,1.238369010E-2,1.038632076E-2
9.604286770E0,-0.000000000E0,9.720530361E-3,4.527370445E-3
9.624557395E0,-3.195791040E-3,3.328948980E-3,-2.396843163E-3
9.644828020E0,-3.195791040E-3,-1.464737463E-3,-6.125265732E-3
9.665098593E0,-6.391582079E-3,-7.323687430E-3,-7.723161485E-3
9.685369218E0,-7.456845604E-3,-1.637842879E-2,-9.853689000E-3
9.705639843E0,-6.391582079E-3,-2.383527346E-2,-7.190529723E-3
9.725910468E0,-3.195791040E-3,-2.490053698E-2,-2.396843163E-3
9.746181093E0,-2.130527282E-3,-1.850895584E-2,2.663159103E-4
9.766570468E0,5.326318205E-4,-1.797632314E-2,1.331579522E-3
9.786880260E0,1.597895520E-3,-1.957421936E-2,7.989477599E-4
9.807150937E0,2.663159044E-3,-2.117211558E-2,-2.663159103E-4
9.827264218E0,3.728422802E-3,-2.170474641E-2,-2.396843163E-3
9.847664218E0,3.728422802E-3,-1.531316526E-2,1.331579522E-3
9.867805364E0,3.195791040E-3,-9.986846708E-3,6.657897960E-3
9.888075781E0,2.663159044E-3,-6.258423906E-3,9.853689000E-3
9.908475781E0,2.130527282E-3,-2.530001104E-3,1.091895252E-2
9.928616927E0,3.195791040E-3,-3.994738800E-4,7.190529723E-3
9.949016927E0,3.728422802E-3,6.657897611E-4,6.125265732E-3
9.969158072E0,3.195791040E-3,2.796316985E-3,3.994738683E-3
9.989428645E0,5.326318089E-3,3.861580743E-3,2.396843163E-3
1.000969922E1,3.728422802E-3,9.187898599E-3,-2.663159103E-4
1.002996979E1,-0.000000000E0,1.344895363E-2,-2.396843163E-3
1.005036979E1,-5.858949851E-3,8.655266836E-3,-2.396843163E-3
1.007051099E1,-7.456845604E-3,-2.530001104E-3,-2.929474926E-3
1.009078161E1,-7.456845604E-3,-1.211737376E-2,1.331579522E-3
1.011105219E1,-5.326318089E-3,-1.424790081E-2,2.929474926E-3
1.013132276E1,1.065263641E-3,-8.921583183E-3,7.190529723E-3
1.015172276E1,4.261054564E-3,-1.997369342E-3,7.723161485E-3
1.017186401E1,2.663159044E-3,1.198421582E-3,9.321057238E-3
1.019213458E1,-2.663159044E-3,4.926844500E-3,7.190529723E-3
1.021240516E1,-9.587372653E-3,4.926844500E-3,7.190529723E-3
1.023267578E1,-1.491369121E-2,2.796316985E-3,6.657897960E-3
1.025307578E1,-1.651158556E-2,8.122635074E-3,3.462106921E-3
1.027321698E1,-1.384842768E-2,2.303632535E-2,2.663159103E-4
1.029348760E1,-1.118526794E-2,3.155843541E-2,-3.994738683E-3
1.031375823E1,-5.858949851E-3,3.741738573E-2,-5.060002208E-3
1.033402885E1,-2.663159044E-3,3.315633163E-2,-7.989477599E-4
1.035442885E1,-0.000000000E0,1.930790395E-2,5.592633970E-3
1.037457005E1,1.597895520E-3,1.291632187E-2,1.251684781E-2
1.039484068E1,3.728422802E-3,9.187898599E-3,1.677790284E-2
1.041511130E1,2.663159044E-3,3.328948980E-3,1.358211134E-2
1.043538187E1,1.597895520E-3,-3.062632866E-3,7.723161485E-3
1.045565234E1,-5.326318205E-4,-1.478053257E-2,1.864211401E-3
1.047592307E1,-2.663159044E-3,-2.170474641E-2,-2.396843163E-3
1.049619364E1,-4.261054564E-3,-2.756369673E-2,-4.527370445E-3
1.051646432E1,-4.261054564E-3,-2.969422378E-2,-5.592633970E-3
1.053687229E1,-4.261054564E-3,-2.809632942E-2,-7.190529723E-3
1.055715411E1,-5.858949851E-3,-2.649843320E-2,-8.788425475E-3
1.057726927E1,-6.924213842E-3,-2.436790615E-2,-7.190529723E-3
1.059753979E1,-6.924213842E-3,-2.063948289E-2,-5.592633970E-3
1.061794130E1,-4.261054564E-3,-1.904158667E-2,-5.060002208E-3
1.063808240E1,5.326318205E-4,-2.010685205E-2,-5.060002208E-3
1.065848359E1,4.261054564E-3,-1.637842879E-2,-3.994738683E-3
1.067862568E1,3.195791040E-3,-1.424790081E-2,-7.190529723E-3
1.069889698E1,-0.000000000E0,-1.478053257E-2,-5.592633970E-3
1.071916818E1,5.326318205E-4,-1.584579609E-2,-3.462106921E-3
1.073943870E1,2.663159044E-3,-1.424790081E-2,2.663159103E-4
1.075983917E1,6.391582079E-3,-2.530001104E-3,1.864211401E-3
1.077998083E1,4.793686327E-3,2.263685223E-3,-2.663159103E-4
1.080025146E1,2.663159044E-3,-1.464737463E-3,-1.331579522E-3
1.082065177E1,3.195791040E-3,-9.454214945E-3,-2.663159103E-4
1.084079292E1,2.130527282E-3,-1.318263728E-2,2.663159103E-4
1.086119318E1,2.130527282E-3,-9.986846708E-3,-1.864211401E-3
1.088133458E1,1.597895520E-3,-5.193160381E-3,-2.929474926E-3
1.090160531E1,-2.130527282E-3,-7.323687430E-3,-7.723161485E-3
1.092187609E1,-4.793686327E-3,-8.921583183E-3,-9.853689000E-3
1.094214667E1,-9.587372653E-3,-8.388951421E-3,-5.060002208E-3
1.096241771E1,-9.587372653E-3,-7.856319658E-3,2.663159103E-4
1.098268839E1,-6.391582079E-3,-4.127896391E-3,1.864211401E-3
1.100295901E1,5.326318205E-4,-9.321057005E-4,-2.663159103E-4
1.102322958E1,3.728422802E-3,7.590003312E-3,-2.929474926E-3
1.104350021E1,2.130527282E-3,1.611211337E-2,-4.527370445E-3
1.106377083E1,-5.326318205E-4,2.090579830E-2,-3.994738683E-3
1.108404141E1,-3.195791040E-3,1.611211337E-2,-5.060002208E-3
1.110431203E1,-5.326318089E-3,7.057371549E-3,-3.994738683E-3
1.112458266E1,-7.989477366E-3,-3.994738800E-4,-3.994738683E-3
1.114485323E1,-8.522109129E-3,-3.994738800E-4,-2.929474926E-3
1.116512385E1,-7.989477366E-3,1.198421582E-3,-4.527370445E-3
1.118539443E1,-3.195791040E-3,4.394212738E-3,-5.592633970E-3
1.120566500E1,-3.728422802E-3,1.344895363E-2,-5.060002208E-3
1.122593568E1,-3.195791040E-3,2.090579830E-2,-2.929474926E-3
1.124620625E1,-3.195791040E-3,2.197106183E-2,-1.331579522E-3
1.126660625E1,-1.597895520E-3,2.090579830E-2,1.864211401E-3
1.128690542E1,1.065263641E-3,2.250369452E-2,7.190529723E-3
1.130717615E1,4.793686327E-3,2.516685426E-2,8.788425475E-3
1.132728937E1,4.793686327E-3,2.569948509E-2,5.060002208E-3
1.134768937E1,3.195791040E-3,1.984053478E-2,-2.663159103E-4
1.136798833E1,-1.065263641E-3,9.187898599E-3,-3.994738683E-3
1.138810156E1,-4.261054564E-3,-3.062632866E-3,-2.929474926E-3
1.140837198E1,-1.012000442E-2,-1.211737376E-2,-3.462106921E-3
1.142864240E1,-7.989477366E-3,-1.744369231E-2,-1.331579522E-3
1.144904240E1,-1.597895520E-3,-1.691105962E-2,3.462106921E-3
1.146918349E1,5.326318205E-4,-6.258423906E-3,8.255792782E-3
1.148945396E1,5.326318089E-3,2.263685223E-3,9.853689000E-3
1.150972448E1,6.924213842E-3,-3.994738800E-4,1.091895252E-2
1.152999505E1,6.391582079E-3,-7.856319658E-3,8.788425475E-3
1.155039505E1,4.793686327E-3,-1.211737376E-2,4.527370445E-3
1.157053620E1,1.065263641E-3,-1.424790081E-2,1.331579522E-3
1.159080677E1,5.326318205E-4,-1.318263728E-2,1.864211401E-3
1.161107729E1,-0.000000000E0,-8.388951421E-3,2.396843163E-3
1.163134792E1,-0.000000000E0,-4.660528619E-3,2.396843163E-3
1.165174792E1,-1.597895520E-3,-1.997369342E-3,1.864211401E-3
1.167188911E1,-1.597895520E-3,1.731053460E-3,7.989477599E-4
1.169215969E1,-3.195791040E-3,-1.997369342E-3,-2.663159103E-4
1.171243026E1,-1.597895520E-3,-1.051947847E-2,7.989477599E-4
1.173270088E1,5.326318205E-4,-1.531316526E-2,3.462106921E-3
1.175310088E1,1.065263641E-3,-1.531316526E-2,7.190529723E-3
1.177324208E1,1.597895520E-3,-9.454214945E-3,7.723161485E-3
1.179351266E1,3.195791040E-3,-4.127896391E-3,9.321057238E-3
1.181378323E1,4.261054564E-3,-9.321057005E-4,1.091895252E-2
1.183405385E1,4.261054564E-3,-3.994738800E-4,1.145158429E-2
1.185445385E1,1.597895520E-3,1.331579551E-4,1.145158429E-2
1.187459505E1,5.326318205E-4,-9.321057005E-4,1.038632076E-2
1.189486568E1,-2.130527282E-3,-4.127896391E-3,6.125265732E-3
1.191513630E1,-3.195791040E-3,-7.323687430E-3,1.864211401E-3
1.193540687E1,-6.924213842E-3,-1.051947847E-2,-1.864211401E-3
1.195567724E1,-7.989477366E-3,-1.531316526E-2,-3.462106921E-3
1.197594802E1,-9.054740891E-3,-1.584579609E-2,-6.657897960E-3
1.199622260E1,-9.587372653E-3,-1.371526904E-2,-6.657897960E-3
1.201653255E1,-5.326318089E-3,-9.454214945E-3,-6.125265732E-3
1.203692714E1,-1.065263641E-3,-4.660528619E-3,-3.994738683E-3
1.205717995E1,5.326318205E-4,-3.595264861E-3,-3.462106921E-3
1.207729495E1,1.065263641E-3,-8.388951421E-3,7.989477599E-4
1.209756677E1,4.261054564E-3,-1.850895584E-2,5.060002208E-3
1.211783833E1,2.130527282E-3,-2.330264263E-2,3.462106921E-3
1.213810891E1,3.728422802E-3,-2.490053698E-2,2.396843163E-3
1.215850974E1,4.261054564E-3,-2.117211558E-2,-7.989477599E-4
1.217865161E1,-0.000000000E0,-1.105211023E-2,-2.396843163E-3
1.219892271E1,-4.261054564E-3,-9.321057005E-4,-3.994738683E-3
1.221919375E1,-1.118526794E-2,-4.127896391E-3,-9.321057238E-3
1.223946437E1,-1.438105945E-2,-1.637842879E-2,-1.464737486E-2
1.225987266E1,-1.331579592E-2,-2.596580051E-2,-1.518000662E-2
1.228015479E1,-1.065263618E-2,-2.596580051E-2,-1.358211134E-2
1.230027016E1,-7.456845604E-3,-1.744369231E-2,-1.145158429E-2
1.232054229E1,-5.326318089E-3,-7.856319658E-3,-8.788425475E-3
1.234081276E1,-1.597895520E-3,-6.258423906E-3,-3.994738683E-3
1.236121411E1,2.663159044E-3,-3.595264861E-3,-7.989477599E-4
1.238135630E1,4.793686327E-3,1.331579551E-4,2.929474926E-3
1.240162771E1,5.326318089E-3,-3.994738800E-4,3.994738683E-3
1.242189896E1,2.663159044E-3,-1.997369342E-3,1.864211401E-3
1.244216953E1,-2.130527282E-3,-6.791055668E-3,-2.663159103E-4
1.246244286E1,-3.728422802E-3,-1.051947847E-2,-2.396843163E-3
1.248271349E1,-3.195791040E-3,-1.371526904E-2,-5.060002208E-3
1.250298406E1,-3.195791040E-3,-1.158474199E-2,-5.592633970E-3
1.252325464E1,-1.597895520E-3,-9.986846708E-3,-5.060002208E-3
1.254352526E1,-1.065263641E-3,-6.258423906E-3,-3.994738683E-3
1.256379589E1,-4.793686327E-3,-3.994738800E-4,-2.396843163E-3
1.258406651E1,-2.663159044E-3,2.796316985E-3,-1.331579522E-3
1.260433708E1,-3.195791040E-3,1.331579551E-4,-1.331579522E-3
1.262460766E1,-3.728422802E-3,2.263685223E-3,-1.331579522E-3
1.264487828E1,-2.130527282E-3,3.861580743E-3,7.989477599E-4
1.266514885E1,-1.597895520E-3,5.992108025E-3,2.396843163E-3
1.268541953E1,-3.728422802E-3,9.720530361E-3,2.929474926E-3
1.270569016E1,-4.261054564E-3,1.238369010E-2,3.462106921E-3
1.272609016E1,-3.728422802E-3,1.025316212E-2,1.331579522E-3
1.274623135E1,-2.130527282E-3,9.720530361E-3,2.663159103E-4
1.276663135E1,-1.065263641E-3,1.238369010E-2,3.994738683E-3
1.278693052E1,3.195791040E-3,1.398158539E-2,7.723161485E-3
1.280696526E1,4.261054564E-3,1.824264042E-2,9.853689000E-3
1.282731422E1,4.261054564E-3,2.410159074E-2,1.038632076E-2
1.284771422E1,3.728422802E-3,2.250369452E-2,1.038632076E-2
1.286785531E1,1.597895520E-3,1.557948068E-2,8.255792782E-3
1.288812589E1,1.597895520E-3,1.930790395E-2,7.723161485E-3
1.290839646E1,-5.326318205E-4,2.516685426E-2,7.190529723E-3
1.292866703E1,-3.195791040E-3,2.090579830E-2,6.125265732E-3
1.294906703E1,-4.261054564E-3,1.131842658E-2,6.125265732E-3
1.296920823E1,-4.261054564E-3,6.524739787E-3,4.527370445E-3
1.298947885E1,-0.000000000E0,3.328948980E-3,4.527370445E-3
1.300974943E1,3.195791040E-3,4.394212738E-3,7.190529723E-3
1.303002000E1,5.858949851E-3,8.655266836E-3,1.145158429E-2
1.305042000E1,7.989477366E-3,1.131842658E-2,9.853689000E-3
1.307056125E1,7.989477366E-3,9.720530361E-3,8.788425475E-3
1.309083187E1,8.522109129E-3,6.524739787E-3,5.592633970E-3
1.311110240E1,5.326318089E-3,1.198421582E-3,3.994738683E-3
1.313137302E1,1.597895520E-3,-2.530001104E-3,2.396843163E-3
1.315177302E1,-5.326318205E-4,-5.725792143E-3,6.125265732E-3
1.317207219E1,-1.597895520E-3,-2.530001104E-3,8.255792782E-3
1.319218542E1,-5.326318205E-4,1.731053460E-3,8.255792782E-3
1.321245594E1,-0.000000000E0,4.394212738E-3,5.592633970E-3
1.323272641E1,1.597895520E-3,5.459476262E-3,2.396843163E-3
1.325312641E1,3.728422802E-3,7.057371549E-3,3.462106921E-3
1.327326755E1,4.261054564E-3,8.122635074E-3,6.657897960E-3
1.329353807E1,3.195791040E-3,5.992108025E-3,9.853689000E-3
1.331380864E1,1.597895520E-3,3.328948980E-3,1.304947957E-2
1.333407911E1,3.728422802E-3,1.731053460E-3,1.411474310E-2
1.335447911E1,5.858949851E-3,1.198421582E-3,1.411474310E-2
1.337462036E1,5.326318089E-3,5.459476262E-3,1.145158429E-2
1.339489099E1,3.195791040E-3,1.078579482E-2,6.125265732E-3
1.341516161E1,2.130527282E-3,1.131842658E-2,2.396843163E-3
1.343543214E1,-0.000000000E0,7.057371549E-3,-1.864211401E-3
1.345570083E1,2.130527282E-3,-9.321057005E-4,-7.989477599E-4
1.347597266E1,2.663159044E-3,-6.791055668E-3,-2.663159103E-4
1.349624740E1,3.195791040E-3,-1.211737376E-2,2.396843163E-3
1.351655729E1,2.130527282E-3,-1.424790081E-2,3.994738683E-3
1.353695198E1,-0.000000000E0,-1.904158667E-2,7.190529723E-3
1.355720479E1,-0.000000000E0,-2.756369673E-2,7.190529723E-3
1.357731979E1,-2.130527282E-3,-3.022685647E-2,4.527370445E-3
1.359759031E1,-5.326318205E-4,-2.277000993E-2,2.663159103E-4
1.361799172E1,-5.326318205E-4,-1.584579609E-2,-2.396843163E-3
1.363813276E1,-3.195791040E-3,-1.051947847E-2,-3.462106921E-3
1.365853391E1,-3.728422802E-3,-1.318263728E-2,-2.396843163E-3
1.367867594E1,-5.326318089E-3,-1.957421936E-2,-1.331579522E-3
1.369894719E1,-3.728422802E-3,-2.330264263E-2,-3.462106921E-3
1.371921833E1,-4.793686327E-3,-2.916159295E-2,-8.255792782E-3
1.373948885E1,-5.326318089E-3,-2.969422378E-2,-1.358211134E-2
1.375988927E1,-4.793686327E-3,-2.596580051E-2,-1.571263932E-2
1.378003083E1,-7.989477366E-3,-2.436790615E-2,-1.837579720E-2
1.380030172E1,-1.012000442E-2,-3.022685647E-2,-1.837579720E-2
1.382057255E1,-5.858949851E-3,-3.555317223E-2,-1.677790284E-2
1.384084312E1,-0.000000000E0,-3.608580679E-2,-1.304947957E-2
1.386125125E1,3.195791040E-3,-3.289001435E-2,-7.190529723E-3
1.388153323E1,3.728422802E-3,-3.235738352E-2,-1.331579522E-3
1.390164844E1,2.663159044E-3,-2.596580051E-2,7.989477599E-4
1.392192047E1,3.195791040E-3,-2.383527346E-2,2.929474926E-3
1.394219094E1,3.195791040E-3,-2.490053698E-2,1.864211401E-3
1.396259094E1,2.663159044E-3,-2.543316968E-2,-2.663159103E-4
1.398273839E1,1.065263641E-3,-2.436790615E-2,2.663159103E-4
1.400300891E1,2.663159044E-3,-1.850895584E-2,7.989477599E-4
1.402327943E1,1.065263641E-3,-1.211737376E-2,2.663159103E-4
1.404354995E1,-4.793686327E-3,-6.791055668E-3,-1.864211401E-3
1.406382052E1,-6.924213842E-3,-2.530001104E-3,-1.331579522E-3
1.408409109E1,-2.663159044E-3,2.796316985E-3,2.396843163E-3
1.410436167E1,3.195791040E-3,8.122635074E-3,5.060002208E-3
1.412463219E1,4.793686327E-3,1.664474420E-2,6.125265732E-3
1.414503219E1,1.597895520E-3,1.877527125E-2,8.255792782E-3
1.416533125E1,3.195791040E-3,1.611211337E-2,1.038632076E-2
1.418544448E1,5.326318089E-3,1.131842658E-2,1.518000662E-2
1.420571495E1,7.456845604E-3,9.720530361E-3,1.890842989E-2
1.422598542E1,8.522109129E-3,8.655266836E-3,2.050632425E-2
1.424625588E1,8.522109129E-3,5.992108025E-3,2.050632425E-2
1.426665588E1,9.054740891E-3,5.992108025E-3,1.784316637E-2
1.428695484E1,7.989477366E-3,1.131842658E-2,1.198421605E-2
1.430722547E1,4.793686327E-3,1.451421715E-2,8.788425475E-3
1.432733875E1,2.663159044E-3,1.131842658E-2,5.592633970E-3
1.434773875E1,5.326318205E-4,2.263685223E-3,2.929474926E-3
1.436787969E1,4.793686327E-3,-7.856319658E-3,7.989477599E-4
1.438815016E1,1.065263618E-2,-1.105211023E-2,2.663159103E-4
1.440855016E1,1.065263618E-2,-7.856319658E-3,-2.663159103E-4
1.442869109E1,2.663159044E-3,-2.530001104E-3,-2.663159103E-4
1.444909109E1,-5.326318089E-3,-8.388951421E-3,-6.657897960E-3
1.446923214E1,-1.012000442E-2,-1.478053257E-2,-9.853689000E-3
1.448950266E1,-1.278316416E-2,-1.371526904E-2,-7.190529723E-3
1.450977312E1,-1.171789970E-2,-3.595264861E-3,-4.527370445E-3
1.453004365E1,-4.261054564E-3,9.187898599E-3,-7.989477599E-4
1.455044365E1,2.663159044E-3,2.197106183E-2,3.462106921E-3
1.457058474E1,5.326318089E-3,2.676474862E-2,9.321057238E-3
1.459085531E1,9.587372653E-3,2.569948509E-2,1.677790284E-2
1.461112583E1,1.225053146E-2,2.250369452E-2,2.263685316E-2
1.463139635E1,1.225053146E-2,1.717737690E-2,1.890842989E-2
1.465179635E1,5.326318089E-3,1.771000773E-2,1.198421605E-2
1.467193745E1,-5.326318089E-3,1.504684892E-2,4.527370445E-3
1.469220802E1,-1.331579592E-2,1.025316212E-2,-4.527370445E-3
1.471247854E1,-1.438105945E-2,3.861580743E-3,-1.145158429E-2
1.473274906E1,-1.278316416E-2,6.657897611E-4,-1.837579720E-2
1.475314906E1,-1.118526794E-2,7.057371549E-3,-1.837579720E-2
1.477329016E1,-1.118526794E-2,1.078579482E-2,-1.731053367E-2
1.479356068E1,-5.326318089E-3,9.187898599E-3,-1.411474310E-2
1.481383125E1,3.195791040E-3,1.185105834E-2,-2.929474926E-3
1.483410177E1,7.456845604E-3,1.185105834E-2,7.723161485E-3
1.485450177E1,9.587372653E-3,1.238369010E-2,1.464737486E-2
1.487464286E1,1.065263618E-2,1.131842658E-2,1.571263932E-2
1.489491338E1,6.924213842E-3,1.611211337E-2,1.358211134E-2
1.491518396E1,-0.000000000E0,2.356895804E-2,1.038632076E-2
1.493545448E1,-3.195791040E-3,2.836264484E-2,6.657897960E-3
1.495572484E1,-1.065263641E-3,2.729738131E-2,7.989477599E-4
1.497599552E1,-3.195791040E-3,2.942790836E-2,-2.929474926E-3
1.499627401E1,-8.522109129E-3,2.783001214E-2,-6.125265732E-3
1.501662958E1,-1.118526794E-2,1.664474420E-2,-7.723161485E-3
1.503697614E1,-9.054740891E-3,4.926844500E-3,-8.255792782E-3
1.505722885E1,-7.989477366E-3,2.796316985E-3,-5.592633970E-3
1.507734338E1,-5.326318089E-3,5.459476262E-3,-3.462106921E-3
1.509761484E1,-2.130527282E-3,9.187898599E-3,-5.060002208E-3
1.511788615E1,2.130527282E-3,1.344895363E-2,-1.331579522E-3
1.513815661E1,3.195791040E-3,1.557948068E-2,-2.663159103E-4
1.515855729E1,5.326318205E-4,1.131842658E-2,1.331579522E-3
1.517869885E1,-3.195791040E-3,7.057371549E-3,1.331579522E-3
1.519896974E1,-3.195791040E-3,8.655266836E-3,1.864211401E-3
1.521924062E1,-6.391582079E-3,1.344895363E-2,-1.331579522E-3
1.523951120E1,-7.456845604E-3,1.238369010E-2,-1.864211401E-3
1.525991146E1,-5.326318089E-3,6.524739787E-3,-1.864211401E-3
1.528005266E1,-4.261054564E-3,5.459476262E-3,-3.994738683E-3
1.530032318E1,-5.858949851E-3,1.451421715E-2,-4.527370445E-3
1.532072338E1,-1.012000442E-2,2.037316747E-2,-4.527370445E-3
1.534086443E1,-1.065263618E-2,1.717737690E-2,-4.527370445E-3
1.536126453E1,-6.924213842E-3,1.398158539E-2,7.989477599E-4
1.538140562E1,-2.663159044E-3,1.771000773E-2,6.657897960E-3
1.540167620E1,-0.000000000E0,2.090579830E-2,9.321057238E-3
1.542194677E1,1.065263641E-3,1.984053478E-2,1.198421605E-2
1.544221729E1,5.326318089E-3,1.344895363E-2,1.464737486E-2
1.546248812E1,7.456845604E-3,9.720530361E-3,1.944106072E-2
1.548275864E1,1.118526794E-2,9.720530361E-3,2.636527456E-2
1.550302917E1,1.225053146E-2,1.664474420E-2,2.423474751E-2
1.552329969E1,6.924213842E-3,2.623211779E-2,1.944106072E-2
1.554357016E1,-1.597895520E-3,2.836264484E-2,1.304947957E-2
1.556384068E1,-3.728422802E-3,1.930790395E-2,7.190529723E-3
1.558411120E1,-1.597895520E-3,1.291632187E-2,3.994738683E-3
1.560438172E1,2.130527282E-3,1.078579482E-2,-7.989477599E-4
1.562465219E1,6.924213842E-3,5.992108025E-3,-1.864211401E-3
1.564492271E1,1.012000442E-2,-6.258423906E-3,7.989477599E-4
1.566519323E1,1.012000442E-2,-1.637842879E-2,3.462106921E-3
1.568546370E1,5.326318089E-3,-2.596580051E-2,2.929474926E-3
1.570586370E1,2.663159044E-3,-4.034686089E-2,-2.663159103E-4
1.572600474E1,2.130527282E-3,-5.206476152E-2,-2.929474926E-3
1.574627521E1,4.261054564E-3,-5.739107728E-2,-3.994738683E-3
1.576667521E1,6.924213842E-3,-5.259739235E-2,-3.462106921E-3
1.578697411E1,1.331579592E-2,-4.141212255E-2,7.989477599E-4
1.580700875E1,1.544632297E-2,-2.916159295E-2,3.462106921E-3
1.582735755E1,1.704421826E-2,-2.117211558E-2,9.853689000E-3
1.584775755E1,1.757685095E-2,-1.691105962E-2,1.784316637E-2
1.586805635E1,2.130527236E-2,-8.388951421E-3,2.583264373E-2
1.588816953E1,2.183790505E-2,2.796316985E-3,3.062633052E-2
1.590843984E1,1.970737800E-2,1.185105834E-2,3.062633052E-2
1.592871026E1,1.438105945E-2,1.557948068E-2,2.263685316E-2
1.594911026E1,8.522109129E-3,1.398158539E-2,1.624527015E-2
1.596925104E1,5.858949851E-3,1.025316212E-2,1.038632076E-2
1.598952141E1,6.391582079E-3,4.926844500E-3,1.038632076E-2
1.600979187E1,6.391582079E-3,-3.062632866E-3,8.255792782E-3
1.603006229E1,-0.000000000E0,-1.105211023E-2,2.396843163E-3
1.605046229E1,-1.012000442E-2,-2.436790615E-2,-5.592633970E-3
1.607060323E1,-1.118526794E-2,-4.460791498E-2,-1.518000662E-2
1.609087365E1,-5.858949851E-3,-6.538055837E-2,-1.944106072E-2
1.611114411E1,2.663159044E-3,-7.070687413E-2,-1.944106072E-2
1.613141458E1,1.065263618E-2,-6.058686972E-2,-1.358211134E-2
1.615181458E1,1.225053146E-2,-4.141212255E-2,-7.190529723E-3
1.617195552E1,9.587372653E-3,-2.383527346E-2,2.663159103E-4
1.619222599E1,1.597895520E-3,-1.371526904E-2,3.462106921E-3
1.621249646E1,-5.326318205E-4,-1.158474199E-2,5.060002208E-3
1.623276693E1,1.597895520E-3,-1.637842879E-2,5.592633970E-3
1.625316693E1,6.391582079E-3,-2.117211558E-2,8.255792782E-3
1.627330781E1,8.522109129E-3,-2.117211558E-2,1.358211134E-2
1.629357828E1,9.587372653E-3,-1.797632314E-2,1.677790284E-2
1.631384875E1,1.012000442E-2,-1.531316526E-2,1.890842989E-2
1.633411922E1,9.054740891E-3,-9.986846708E-3,1.571263932E-2
1.635451922E1,6.924213842E-3,6.657897611E-4,7.190529723E-3
1.637466016E1,1.597895520E-3,9.187898599E-3,1.331579522E-3
1.639493062E1,-5.326318089E-3,1.185105834E-2,-3.994738683E-3
1.641520109E1,-9.587372653E-3,9.720530361E-3,-6.657897960E-3
1.643547151E1,-9.587372653E-3,1.198421582E-3,-1.358211134E-2
1.645574182E1,-6.924213842E-3,-6.791055668E-3,-1.784316637E-2
1.647601234E1,-5.858949851E-3,-1.211737376E-2,-1.837579720E-2
1.649629078E1,-6.391582079E-3,-1.957421936E-2,-1.304947957E-2
1.651664630E1,-4.793686327E-3,-2.063948289E-2,-4.527370445E-3
1.653699292E1,-0.000000000E0,-1.850895584E-2,5.592633970E-3
1.655724542E1,8.522109129E-3,-1.584579609E-2,9.321057238E-3
1.657735984E1,1.065263618E-2,-9.986846708E-3,6.125265732E-3
1.659762339E1,7.989477366E-3,-3.062632866E-3,-7.989477599E-4
1.661782557E1,3.195791040E-3,-5.193160381E-3,-4.527370445E-3
1.663817443E1,-3.195791040E-3,-7.323687430E-3,-5.060002208E-3
1.665857479E1,-9.587372653E-3,-4.660528619E-3,-5.060002208E-3
1.667871594E1,-1.225053146E-2,-4.127896391E-3,-3.994738683E-3
1.669898651E1,-1.012000442E-2,6.657897611E-4,-1.864211401E-3
1.671925714E1,-7.456845604E-3,7.590003312E-3,7.989477599E-4
1.673952755E1,-2.130527282E-3,1.504684892E-2,5.060002208E-3
1.675993562E1,6.924213842E-3,1.877527125E-2,9.853689000E-3
1.678021729E1,1.278316416E-2,2.303632535E-2,1.304947957E-2
1.680033234E1,1.225053146E-2,2.729738131E-2,1.358211134E-2
1.682060427E1,7.456845604E-3,2.463422157E-2,1.358211134E-2
1.684087458E1,5.326318205E-4,1.717737690E-2,8.255792782E-3
1.686127583E1,-6.391582079E-3,1.185105834E-2,3.462106921E-3
1.688141755E1,-8.522109129E-3,3.861580743E-3,2.663159103E-4
1.690168880E1,-5.858949851E-3,-3.994738800E-4,-5.060002208E-3
1.692195974E1,-3.195791040E-3,1.331579551E-4,-6.657897960E-3
1.694223010E1,-3.195791040E-3,1.331579551E-4,-5.060002208E-3
1.696250312E1,-5.858949851E-3,-3.994738800E-4,-1.331579522E-3
1.698277354E1,-1.065263641E-3,-3.062632866E-3,7.989477599E-4
1.700304396E1,3.195791040E-3,-4.660528619E-3,3.994738683E-3
1.702331432E1,4.261054564E-3,1.198421582E-3,3.462106921E-3
1.704358474E1,1.597895520E-3,7.057371549E-3,7.989477599E-4
1.706385516E1,-2.130527282E-3,4.926844500E-3,-2.663159103E-4
1.708412557E1,-5.326318205E-4,6.657897611E-4,2.663159103E-4
1.710439594E1,-3.195791040E-3,6.657897611E-4,7.989477599E-4
1.712466635E1,-2.130527282E-3,4.926844500E-3,7.989477599E-4
1.714493677E1,-5.326318205E-4,1.078579482E-2,7.989477599E-4
1.716520719E1,2.130527282E-3,9.720530361E-3,-1.864211401E-3
1.718547755E1,1.597895520E-3,6.524739787E-3,-2.929474926E-3
1.720574797E1,-1.065263641E-3,2.796316985E-3,-3.994738683E-3
1.722614797E1,-1.597895520E-3,-2.530001104E-3,-5.060002208E-3
1.724628880E1,-3.195791040E-3,-6.258423906E-3,-6.125265732E-3
1.726668880E1,-5.858949851E-3,-9.986846708E-3,-8.788425475E-3
1.728698755E1,-1.012000442E-2,-1.424790081E-2,-9.321057238E-3
1.730706135E1,-1.225053146E-2,-1.797632314E-2,-1.091895252E-2
1.732737083E1,-1.118526794E-2,-1.797632314E-2,-9.853689000E-3
1.734777083E1,-7.456845604E-3,-1.211737376E-2,-6.125265732E-3
1.736791151E1,-4.793686327E-3,-4.660528619E-3,-2.396843163E-3
1.738818187E1,-5.326318205E-4,5.459476262E-3,-7.989477599E-4
1.740845219E1,2.130527282E-3,1.717737690E-2,7.989477599E-4
1.742872255E1,5.326318205E-4,2.676474862E-2,3.462106921E-3
1.744912255E1,-1.065263641E-3,3.102580272E-2,5.060002208E-3
1.746926328E1,-0.000000000E0,3.422159329E-2,5.592633970E-3
1.748953364E1,-1.065263641E-3,3.102580272E-2,8.255792782E-3
1.750980406E1,-3.728422802E-3,3.102580272E-2,9.853689000E-3
1.753007443E1,-6.391582079E-3,2.676474862E-2,5.060002208E-3
1.755047443E1,-7.456845604E-3,1.984053478E-2,2.929474926E-3
1.757061516E1,-6.391582079E-3,1.131842658E-2,7.989477599E-4
1.759088557E1,-1.065263641E-3,3.861580743E-3,1.331579522E-3
1.761115594E1,5.326318205E-4,4.394212738E-3,3.462106921E-3
1.763142630E1,1.597895520E-3,3.861580743E-3,2.396843163E-3
1.765182630E1,2.663159044E-3,1.731053460E-3,3.462106921E-3
1.767212500E1,-0.000000000E0,2.263685223E-3,3.462106921E-3
1.769223802E1,-5.326318205E-4,3.861580743E-3,1.864211401E-3
1.771250833E1,-3.195791040E-3,2.796316985E-3,-1.331579522E-3
1.773277859E1,-5.858949851E-3,-1.997369342E-3,-3.462106921E-3
1.775317859E1,-3.728422802E-3,-2.530001104E-3,-6.125265732E-3
1.777331922E1,-5.858949851E-3,6.657897611E-4,-5.060002208E-3
1.779358948E1,-9.054740891E-3,7.590003312E-3,-3.994738683E-3
1.781385974E1,-1.225053146E-2,8.655266836E-3,-2.396843163E-3
1.783413010E1,-1.065263618E-2,6.524739787E-3,-7.989477599E-4
1.785453010E1,-4.793686327E-3,7.590003312E-3,3.994738683E-3
1.787467083E1,1.597895520E-3,1.025316212E-2,7.723161485E-3
1.789494120E1,4.793686327E-3,1.451421715E-2,8.788425475E-3
1.791521156E1,2.663159044E-3,1.771000773E-2,9.321057238E-3
1.793548187E1,5.326318205E-4,1.504684892E-2,6.657897960E-3
1.795575036E1,-2.130527282E-3,8.655266836E-3,6.657897960E-3
1.797602193E1,-2.663159044E-3,6.524739787E-3,6.657897960E-3
1.799629229E1,-2.663159044E-3,4.926844500E-3,6.125265732E-3
1.801668948E1,-2.663159044E-3,1.198421582E-3,-1.331579522E-3
1.803699750E1,-5.326318205E-4,-3.994738800E-4,-9.853689000E-3
1.805725104E1,1.065263641E-3,-1.997369342E-3,-1.198421605E-2
1.807736625E1,1.597895520E-3,-8.388951421E-3,-1.145158429E-2
1.809763823E1,1.065263641E-3,-1.584579609E-2,-7.723161485E-3
1.811790990E1,-5.326318205E-4,-2.277000993E-2,-5.060002208E-3
1.813818016E1,-1.597895520E-3,-2.223737910E-2,-3.462106921E-3
1.815858125E1,-2.130527282E-3,-2.170474641E-2,-1.331579522E-3
1.817872271E1,-3.728422802E-3,-1.904158667E-2,-1.331579522E-3
1.819899375E1,-5.858949851E-3,-1.424790081E-2,1.864211401E-3
1.821926464E1,-4.261054564E-3,-1.158474199E-2,3.462106921E-3
1.823953490E1,-5.326318205E-4,-1.105211023E-2,5.060002208E-3
1.825993536E1,4.793686327E-3,-5.725792143E-3,6.125265732E-3
1.828007646E1,7.456845604E-3,1.331579551E-4,6.125265732E-3
1.830034708E1,9.054740891E-3,5.459476262E-3,1.864211401E-3
1.832061766E1,6.391582079E-3,8.655266836E-3,-2.929474926E-3
1.834088792E1,2.130527282E-3,1.398158539E-2,-3.994738683E-3
1.836128812E1,-2.130527282E-3,1.078579482E-2,-3.994738683E-3
1.838142896E1,-4.793686327E-3,-1.997369342E-3,-7.989477599E-4
1.840169943E1,-4.261054564E-3,-9.454214945E-3,4.527370445E-3
1.842196984E1,-2.663159044E-3,-1.105211023E-2,8.255792782E-3
1.844224010E1,1.597895520E-3,-7.323687430E-3,8.255792782E-3
1.846264010E1,4.261054564E-3,-9.321057005E-4,8.255792782E-3
1.848278114E1,7.456845604E-3,2.263685223E-3,7.190529723E-3
1.850305146E1,1.012000442E-2,5.459476262E-3,8.255792782E-3
1.852332177E1,1.065263618E-2,8.655266836E-3,8.255792782E-3
1.854359214E1,7.989477366E-3,1.078579482E-2,8.788425475E-3
1.856386245E1,4.261054564E-3,5.459476262E-3,8.788425475E-3
1.858413276E1,1.597895520E-3,-1.464737463E-3,6.657897960E-3
1.860440312E1,-5.326318205E-4,-5.725792143E-3,6.657897960E-3
1.862467344E1,-1.597895520E-3,-5.193160381E-3,5.060002208E-3
1.864494375E1,-0.000000000E0,1.731053460E-3,5.592633970E-3
1.866521406E1,1.065263641E-3,8.122635074E-3,3.462106921E-3
1.868548437E1,1.597895520E-3,1.131842658E-2,3.994738683E-3
1.870575469E1,5.326318205E-4,1.185105834E-2,3.994738683E-3
1.872602500E1,5.326318205E-4,1.131842658E-2,3.994738683E-3
1.874629531E1,1.065263641E-3,5.992108025E-3,5.060002208E-3
1.876669531E1,-0.000000000E0,4.394212738E-3,4.527370445E-3
1.878699385E1,-2.663159044E-3,3.328948980E-3,4.527370445E-3
1.880706760E1,-4.261054564E-3,4.926844500E-3,5.592633970E-3
1.882737698E1,-5.858949851E-3,3.328948980E-3,4.527370445E-3
1.884777698E1,-2.663159044E-3,1.731053460E-3,5.592633970E-3
1.886791750E1,2.663159044E-3,1.331579551E-4,7.190529723E-3
1.888818776E1,5.326318089E-3,6.657897611E-4,1.091895252E-2
1.890858776E1,4.793686327E-3,2.796316985E-3,1.251684781E-2
1.892874151E1,2.130527282E-3,6.657897611E-4,1.411474310E-2
1.894914151E1,4.261054564E-3,-4.127896391E-3,1.518000662E-2
1.896926885E1,4.793686327E-3,-9.454214945E-3,1.518000662E-2
1.898953906E1,1.118526794E-2,-7.856319658E-3,1.518000662E-2
1.900980937E1,1.384842768E-2,1.198421582E-3,1.091895252E-2
1.903007969E1,1.278316416E-2,4.394212738E-3,7.723161485E-3
1.905047969E1,7.456845604E-3,1.198421582E-3,4.527370445E-3
1.907062031E1,2.663159044E-3,-4.660528619E-3,-5.060002208E-3
1.909089052E1,-6.391582079E-3,-7.856319658E-3,-1.251684781E-2
1.911116083E1,-1.118526794E-2,-1.371526904E-2,-1.677790284E-2
1.913143114E1,-1.225053146E-2,-3.022685647E-2,-1.624527015E-2
1.915183115E1,-1.118526794E-2,-3.928159550E-2,-9.321057238E-3
1.917197172E1,-7.989477366E-3,-3.502054140E-2,-2.929474926E-3
1.919224198E1,-6.391582079E-3,-2.383527346E-2,1.864211401E-3
1.921251229E1,-2.130527282E-3,-8.921583183E-3,3.462106921E-3
1.923278255E1,1.065263641E-3,2.796316985E-3,3.994738683E-3
1.925318255E1,4.793686327E-3,7.590003312E-3,5.060002208E-3
1.927332318E1,7.456845604E-3,1.025316212E-2,5.592633970E-3
1.929359344E1,8.522109129E-3,9.720530361E-3,2.929474926E-3
1.931386375E1,6.391582079E-3,1.731053460E-3,-1.331579522E-3
1.933413406E1,-1.065263641E-3,-1.051947847E-2,-5.592633970E-3
1.935453406E1,-6.924213842E-3,-2.117211558E-2,-7.190529723E-3
1.937467464E1,-7.989477366E-3,-2.596580051E-2,-5.060002208E-3
1.939494495E1,-6.391582079E-3,-2.277000993E-2,7.989477599E-4
1.941521521E1,-3.195791040E-3,-1.744369231E-2,1.864211401E-3
1.943548552E1,1.065263641E-3,-1.584579609E-2,1.864211401E-3
1.945575573E1,4.261054564E-3,-1.158474199E-2,1.864211401E-3
1.947602208E1,4.793686327E-3,-9.454214945E-3,1.331579522E-3
1.949625307E1,4.793686327E-3,-6.258423906E-3,2.396843163E-3
1.951666385E1,2.663159044E-3,-5.193160381E-3,6.657897960E-3
1.953700036E1,1.597895520E-3,-6.791055668E-3,9.853689000E-3
1.955725396E1,-1.597895520E-3,-7.323687430E-3,8.788425475E-3
1.957736922E1,-3.728422802E-3,-3.062632866E-3,4.527370445E-3
1.959763932E1,-3.195791040E-3,6.657897611E-4,-1.864211401E-3
1.961804115E1,-0.000000000E0,2.796316985E-3,-4.527370445E-3
1.963818167E1,-1.065263641E-3,1.131842658E-2,-3.994738683E-3
1.965858312E1,-3.728422802E-3,2.090579830E-2,-1.331579522E-3
1.967872474E1,-5.326318089E-3,2.250369452E-2,3.994738683E-3
1.969899589E1,-5.326318089E-3,1.398158539E-2,4.527370445E-3
1.971926687E1,-3.195791040E-3,7.590003312E-3,5.060002208E-3
1.973953714E1,1.065263641E-3,7.057371549E-3,5.060002208E-3
1.975993771E1,3.195791040E-3,1.238369010E-2,3.994738683E-3
1.978007870E1,2.130527282E-3,1.185105834E-2,2.929474926E-3
1.980034901E1,-2.130527282E-3,6.524739787E-3,1.331579522E-3
1.982074943E1,-1.597895520E-3,6.657897611E-4,1.331579522E-3
1.984089000E1,5.326318205E-4,-2.530001104E-3,-7.989477599E-4
1.986129026E1,-1.597895520E-3,-9.986846708E-3,-1.331579522E-3
1.988143109E1,-1.065263641E-3,-1.265000552E-2,-1.864211401E-3
1.990170156E1,1.065263641E-3,-1.424790081E-2,7.989477599E-4
1.992197203E1,4.793686327E-3,-1.478053257E-2,5.592633970E-3
1.994224229E1,9.587372653E-3,-1.478053257E-2,7.190529723E-3
1.996251323E1,1.012000442E-2,-1.744369231E-2,7.723161485E-3
1.998278349E1,1.012000442E-2,-1.904158667E-2,5.592633970E-3
2.000305375E1,5.858949851E-3,-2.277000993E-2,7.989477599E-4
2.002332406E1,1.065263641E-3,-2.490053698E-2,-3.994738683E-3
2.004359437E1,-4.261054564E-3,-2.543316968E-2,-8.255792782E-3
2.006386464E1,-8.522109129E-3,-2.383527346E-2,-1.198421605E-2
2.008413495E1,-9.587372653E-3,-2.277000993E-2,-1.304947957E-2
2.010440526E1,-1.012000442E-2,-1.691105962E-2,-1.358211134E-2
2.012467552E1,-9.054740891E-3,-8.388951421E-3,-1.091895252E-2
2.014494583E1,-7.989477366E-3,1.198421582E-3,-9.321057238E-3
2.016521615E1,-4.261054564E-3,9.720530361E-3,-5.592633970E-3
2.018548641E1,-1.597895520E-3,2.143843099E-2,-3.462106921E-3
2.020575672E1,5.326318205E-4,3.049317189E-2,3.462106921E-3
2.022602703E1,-0.000000000E0,3.795001656E-2,8.788425475E-3
2.024629734E1,-0.000000000E0,4.274370521E-2,1.251684781E-2
2.026669734E1,-1.065263641E-3,4.274370521E-2,1.251684781E-2
2.028699583E1,-3.728422802E-3,4.327633604E-2,1.304947957E-2
2.030706953E1,-5.858949851E-3,4.580633715E-2,1.038632076E-2
2.032737891E1,-5.326318089E-3,4.167843983E-2,5.592633970E-3
2.034777891E1,-6.924213842E-3,3.368896246E-2,2.396843163E-3
2.036807724E1,-4.261054564E-3,2.410159074E-2,1.331579522E-3
2.038819026E1,-2.130527282E-3,1.557948068E-2,-2.663159103E-4
2.040846031E1,-5.326318205E-4,9.720530361E-3,2.396843163E-3
2.042873047E1,5.326318205E-4,3.861580743E-3,5.592633970E-3
2.044913047E1,5.326318205E-4,-4.127896391E-3,8.788425475E-3
2.046927099E1,4.261054564E-3,-5.193160381E-3,4.527370445E-3
2.048954120E1,5.326318089E-3,-4.127896391E-3,7.989477599E-4
2.050981141E1,2.663159044E-3,-3.595264861E-3,-2.929474926E-3
2.053008167E1,-0.000000000E0,-8.388951421E-3,-6.125265732E-3
2.055048167E1,-3.728422802E-3,-1.318263728E-2,-7.723161485E-3
2.057062214E1,-3.728422802E-3,-1.957421936E-2,-6.657897960E-3
2.059089240E1,-1.597895520E-3,-2.330264263E-2,-5.060002208E-3
2.061116271E1,5.326318205E-4,-1.904158667E-2,-2.929474926E-3
2.063143297E1,-0.000000000E0,-1.265000552E-2,-2.396843163E-3
2.065183297E1,-1.065263641E-3,-7.856319658E-3,-2.396843163E-3
2.067197354E1,1.065263641E-3,-5.725792143E-3,2.663159103E-4
2.069224380E1,2.130527282E-3,-2.530001104E-3,5.060002208E-3
2.071251406E1,3.195791040E-3,-3.062632866E-3,7.190529723E-3
2.073278437E1,3.728422802E-3,-1.464737463E-3,6.657897960E-3
2.075318437E1,2.663159044E-3,1.731053460E-3,4.527370445E-3
2.077332495E1,2.130527282E-3,5.459476262E-3,2.396843163E-3
2.079359516E1,-5.326318205E-4,7.590003312E-3,2.396843163E-3
2.081386547E1,-2.663159044E-3,8.122635074E-3,3.462106921E-3
2.083413573E1,-2.130527282E-3,5.992108025E-3,5.060002208E-3
2.085453573E1,1.597895520E-3,2.796316985E-3,6.657897960E-3
2.087467630E1,2.130527282E-3,6.524739787E-3,7.190529723E-3
2.089494661E1,1.065263641E-3,8.655266836E-3,8.255792782E-3
2.091521687E1,-0.000000000E0,4.926844500E-3,6.125265732E-3
2.093548714E1,3.728422802E-3,2.796316985E-3,4.527370445E-3
2.095575719E1,3.195791040E-3,7.057371549E-3,7.989477599E-4
2.097602370E1,-5.326318205E-4,1.344895363E-2,-1.864211401E-3
2.099625469E1,-4.793686327E-3,9.187898599E-3,-3.462106921E-3
2.101666542E1,-6.391582079E-3,-1.464737463E-3,-1.864211401E-3
2.103700198E1,-4.793686327E-3,-6.258423906E-3,7.989477599E-4
2.105725552E1,1.065263641E-3,-5.193160381E-3,6.657897960E-3
2.107737073E1,9.587372653E-3,1.198421582E-3,9.321057238E-3
2.109764271E1,1.171789970E-2,1.131842658E-2,9.853689000E-3
2.111791432E1,7.456845604E-3,1.344895363E-2,8.255792782E-3
2.113818448E1,2.130527282E-3,7.590003312E-3,5.592633970E-3
2.115858562E1,5.326318205E-4,2.263685223E-3,3.994738683E-3
2.117872708E1,2.663159044E-3,-1.997369342E-3,2.929474926E-3
2.119899797E1,3.195791040E-3,-3.595264861E-3,-7.989477599E-4
2.121926880E1,2.130527282E-3,-7.323687430E-3,-6.657897960E-3
2.123953906E1,-2.130527282E-3,-7.856319658E-3,-8.255792782E-3
2.125994750E1,-4.793686327E-3,-1.158474199E-2,-1.038632076E-2
2.128022911E1,-4.793686327E-3,-2.010685205E-2,-7.723161485E-3
2.130034411E1,-1.597895520E-3,-2.649843320E-2,-3.994738683E-3
2.132061599E1,3.728422802E-3,-2.543316968E-2,7.989477599E-4
2.134088620E1,4.793686327E-3,-1.797632314E-2,4.527370445E-3
2.136128760E1,5.858949851E-3,-1.105211023E-2,7.723161485E-3
2.138142917E1,7.456845604E-3,-6.258423906E-3,9.853689000E-3
2.140170021E1,6.391582079E-3,-3.595264861E-3,1.304947957E-2
2.142197114E1,3.728422802E-3,-2.530001104E-3,1.464737486E-2
2.144224135E1,1.065263641E-3,5.992108025E-3,1.358211134E-2
2.146251443E1,-1.065263641E-3,1.078579482E-2,1.198421605E-2
2.148278469E1,-1.597895520E-3,1.291632187E-2,1.145158429E-2
2.150305495E1,3.728422802E-3,1.451421715E-2,1.145158429E-2
2.152332521E1,4.793686327E-3,1.930790395E-2,9.853689000E-3
2.154359542E1,-1.065263641E-3,2.143843099E-2,3.462106921E-3
2.156386573E1,-8.522109129E-3,1.185105834E-2,-2.929474926E-3
2.158413599E1,-1.171789970E-2,-5.193160381E-3,-8.788425475E-3
2.160440625E1,-1.065263618E-2,-1.584579609E-2,-8.255792782E-3
2.162467646E1,-9.054740891E-3,-1.158474199E-2,-5.592633970E-3
2.164494672E1,-2.663159044E-3,-2.530001104E-3,-7.989477599E-4
2.166521698E1,1.597895520E-3,1.198421582E-3,3.462106921E-3
2.168548724E1,3.195791040E-3,3.328948980E-3,8.255792782E-3
2.170575750E1,3.195791040E-3,3.861580743E-3,1.145158429E-2
2.172615750E1,6.391582079E-3,6.524739787E-3,1.358211134E-2
2.174629802E1,6.924213842E-3,1.238369010E-2,1.251684781E-2
2.176669802E1,3.728422802E-3,1.291632187E-2,1.358211134E-2
2.178699646E1,-5.326318205E-4,6.524739787E-3,1.731053367E-2
2.180707016E1,5.326318205E-4,1.198421582E-3,1.997369342E-2
2.182737948E1,7.989477366E-3,4.926844500E-3,1.890842989E-2
2.184777948E1,1.278316416E-2,1.291632187E-2,1.358211134E-2
2.186791995E1,1.118526794E-2,1.877527125E-2,3.994738683E-3
2.188819010E1,3.728422802E-3,1.771000773E-2,-2.663159103E-4
2.190846031E1,-2.663159044E-3,1.185105834E-2,-2.663159103E-4
2.192873052E1,-5.858949851E-3,6.524739787E-3,1.331579522E-3
2.194913052E1,-6.924213842E-3,-9.321057005E-4,1.331579522E-3
2.196927099E1,-4.793686327E-3,-1.211737376E-2,-2.396843163E-3
2.198954120E1,-1.597895520E-3,-2.117211558E-2,-7.190529723E-3
2.200981146E1,-0.000000000E0,-2.330264263E-2,-8.788425475E-3
2.203008172E1,-0.000000000E0,-1.957421936E-2,-9.321057238E-3
2.205048172E1,-1.597895520E-3,-2.010685205E-2,-7.190529723E-3
2.207062219E1,5.326318205E-4,-2.809632942E-2,-5.592633970E-3
2.209089240E1,3.195791040E-3,-3.235738352E-2,-3.462106921E-3
2.211116266E1,4.793686327E-3,-3.075948730E-2,2.663159103E-4
2.213143292E1,1.597895520E-3,-2.010685205E-2,2.929474926E-3
2.215183292E1,1.065263641E-3,-1.637842879E-2,1.864211401E-3
2.217213130E1,5.326318205E-4,-1.424790081E-2,1.331579522E-3
2.219224422E1,-2.663159044E-3,-1.105211023E-2,-1.331579522E-3
2.221251437E1,-4.261054564E-3,-8.388951421E-3,2.663159103E-4
2.223278448E1,-5.326318205E-4,-9.321057005E-4,5.060002208E-3
2.225318448E1,3.195791040E-3,9.720530361E-3,9.853689000E-3
2.227332490E1,1.597895520E-3,2.569948509E-2,1.038632076E-2
2.229359510E1,-1.065263641E-3,3.581948951E-2,6.125265732E-3
2.231386521E1,-4.793686327E-3,3.422159329E-2,2.396843163E-3
2.233413547E1,-6.391582079E-3,2.623211779E-2,2.396843163E-3
2.235453547E1,-6.391582079E-3,2.037316747E-2,6.125265732E-3
2.237467589E1,-5.326318205E-4,1.717737690E-2,1.038632076E-2
2.239494615E1,5.326318205E-4,1.717737690E-2,1.038632076E-2
2.241521641E1,5.326318205E-4,1.611211337E-2,5.592633970E-3
2.243548661E1,-2.130527282E-3,9.187898599E-3,2.663159103E-4
2.245575505E1,-3.728422802E-3,-1.464737463E-3,-3.462106921E-3
2.247602646E1,-1.597895520E-3,-1.318263728E-2,-2.929474926E-3
2.249629672E1,-5.326318205E-4,-1.850895584E-2,-1.864211401E-3
2.251669375E1,-1.065263641E-3,-1.904158667E-2,-1.331579522E-3
2.253700167E1,-4.261054564E-3,-2.063948289E-2,-2.396843163E-3
2.255727083E1,-3.195791040E-3,-2.117211558E-2,-2.929474926E-3
2.257754021E1,-1.065263641E-3,-1.957421936E-2,-1.331579522E-3
2.259779016E1,2.663159044E-3,-2.010685205E-2,7.989477599E-4
2.261787109E1,5.858949851E-3,-1.744369231E-2,3.462106921E-3
2.263818031E1,6.391582079E-3,-1.584579609E-2,5.592633970E-3
2.265858219E1,3.728422802E-3,-1.318263728E-2,5.060002208E-3
2.267872411E1,-1.597895520E-3,-9.454214945E-3,2.929474926E-3
2.269899542E1,-4.261054564E-3,-8.388951421E-3,-2.663159103E-4
2.271926656E1,-3.195791040E-3,-7.856319658E-3,-2.396843163E-3
2.273953672E1,-1.065263641E-3,-6.258423906E-3,-1.331579522E-3
2.275993750E1,1.065263641E-3,-4.660528619E-3,-1.864211401E-3
2.278007859E1,2.663159044E-3,-8.388951421E-3,2.396843163E-3
2.280034927E1,5.858949851E-3,-8.388951421E-3,5.592633970E-3
2.282062000E1,9.054740891E-3,-7.856319658E-3,6.125265732E-3
2.284089026E1,6.924213842E-3,-5.193160381E-3,6.125265732E-3
2.286129057E1,3.728422802E-3,-6.258423906E-3,6.125265732E-3
2.288143130E1,3.728422802E-3,-9.454214945E-3,6.125265732E-3
2.290170172E1,2.130527282E-3,-1.105211023E-2,8.255792782E-3
2.292197219E1,5.326318205E-4,-5.193160381E-3,3.994738683E-3
2.294224245E1,5.326318205E-4,-3.994738800E-4,5.592633970E-3
2.296264245E1,2.130527282E-3,1.331579551E-4,5.592633970E-3
2.298278370E1,3.728422802E-3,1.331579551E-4,7.190529723E-3
2.300305396E1,6.391582079E-3,1.731053460E-3,1.091895252E-2
2.302332422E1,6.924213842E-3,5.459476262E-3,1.784316637E-2
2.304359448E1,9.587372653E-3,9.720530361E-3,2.316948399E-2
2.306386479E1,1.438105945E-2,1.664474420E-2,2.370211668E-2
2.308413505E1,1.651158556E-2,2.303632535E-2,2.476738021E-2
2.310440536E1,1.544632297E-2,2.410159074E-2,2.476738021E-2
2.312467568E1,1.171789970E-2,2.410159074E-2,2.370211668E-2
2.314494599E1,6.391582079E-3,1.984053478E-2,1.837579720E-2
2.316521630E1,2.130527282E-3,1.131842658E-2,1.304947957E-2
2.318548661E1,-0.000000000E0,7.057371549E-3,8.255792782E-3
2.320575687E1,-5.326318205E-4,9.720530361E-3,5.060002208E-3
2.322602724E1,-1.597895520E-3,1.344895363E-2,2.663159103E-4
2.324629755E1,-3.195791040E-3,1.131842658E-2,-5.592633970E-3
2.326669755E1,-3.728422802E-3,4.926844500E-3,-6.125265732E-3
2.328699604E1,-4.261054564E-3,-1.997369342E-3,-5.060002208E-3
2.330706984E1,-3.195791040E-3,-9.986846708E-3,-1.864211401E-3
2.332737927E1,-5.326318205E-4,-1.797632314E-2,1.864211401E-3
2.334777927E1,2.130527282E-3,-2.223737910E-2,2.396843163E-3
2.336791979E1,4.261054564E-3,-2.596580051E-2,2.929474926E-3
2.338819010E1,4.793686327E-3,-2.703106403E-2,-2.663159103E-4
2.340859010E1,1.597895520E-3,-2.703106403E-2,-2.663159103E-4
2.342873073E1,2.663159044E-3,-2.703106403E-2,-1.331579522E-3
2.344913073E1,4.261054564E-3,-2.543316968E-2,-7.989477599E-4
2.346927135E1,6.391582079E-3,-2.223737910E-2,-2.929474926E-3
2.348954167E1,5.326318089E-3,-2.170474641E-2,-4.527370445E-3
2.350981203E1,4.261054564E-3,-2.277000993E-2,-3.994738683E-3
2.353008240E1,2.130527282E-3,-2.703106403E-2,-6.657897960E-3
2.355048240E1,-1.065263641E-3,-2.436790615E-2,-6.657897960E-3
2.357062307E1,-3.728422802E-3,-1.904158667E-2,-8.788425475E-3
2.359089344E1,-5.858949851E-3,-1.850895584E-2,-9.853689000E-3
2.361116380E1,-5.858949851E-3,-2.010685205E-2,-7.723161485E-3
2.363143417E1,-5.858949851E-3,-2.117211558E-2,-5.060002208E-3
2.365183417E1,-1.597895520E-3,-1.637842879E-2,7.989477599E-4
2.367197490E1,5.326318205E-4,-6.791055668E-3,2.929474926E-3
2.369224521E1,5.326318205E-4,-4.127896391E-3,3.994738683E-3
2.371251562E1,1.597895520E-3,1.731053460E-3,3.994738683E-3
2.373278599E1,3.195791040E-3,6.524739787E-3,4.527370445E-3
2.375318599E1,4.793686327E-3,1.344895363E-2,5.060002208E-3
2.377332677E1,5.326318089E-3,2.090579830E-2,7.723161485E-3
2.379359714E1,4.261054564E-3,2.463422157E-2,5.060002208E-3
2.381386755E1,3.195791040E-3,2.090579830E-2,-7.989477599E-4
2.383413797E1,1.065263641E-3,1.291632187E-2,-3.462106921E-3
2.385453797E1,-2.130527282E-3,4.394212738E-3,-3.994738683E-3
2.387467875E1,-5.858949851E-3,1.331579551E-4,-5.060002208E-3
2.389494917E1,-6.924213842E-3,-4.660528619E-3,-5.592633970E-3
2.391521958E1,-6.391582079E-3,-3.994738800E-4,-6.657897960E-3
2.393549000E1,-5.858949851E-3,3.861580743E-3,-3.994738683E-3
2.395576031E1,-3.195791040E-3,7.057371549E-3,2.396843163E-3
2.397603078E1,2.663159044E-3,9.720530361E-3,1.038632076E-2
2.399630120E1,2.130527282E-3,1.025316212E-2,1.038632076E-2
2.401669833E1,-0.000000000E0,1.238369010E-2,6.125265732E-3
2.403700635E1,-5.326318089E-3,1.291632187E-2,7.989477599E-4
2.405725990E1,-6.391582079E-3,7.057371549E-3,-1.331579522E-3
2.407737510E1,-4.793686327E-3,4.394212738E-3,-5.592633970E-3
2.409764714E1,-4.793686327E-3,3.328948980E-3,-7.723161485E-3
2.411791880E1,-4.793686327E-3,-2.530001104E-3,-1.038632076E-2
2.413818911E1,-3.195791040E-3,-1.265000552E-2,-9.321057238E-3
2.415859021E1,-1.065263641E-3,-2.223737910E-2,-5.592633970E-3
2.417873187E1,2.130527282E-3,-2.170474641E-2,-2.663159103E-4
2.419900302E1,5.326318089E-3,-1.637842879E-2,2.396843163E-3
2.421927396E1,4.261054564E-3,-1.371526904E-2,3.462106921E-3
2.423954432E1,4.793686327E-3,-1.318263728E-2,3.462106921E-3
2.425994479E1,2.130527282E-3,-1.211737376E-2,3.994738683E-3
2.428008609E1,5.326318205E-4,-8.921583183E-3,2.929474926E-3
2.430035656E1,-1.065263641E-3,-6.258423906E-3,1.864211401E-3
2.432075682E1,-3.728422802E-3,-9.321057005E-4,-7.989477599E-4
2.434089771E1,-6.391582079E-3,1.731053460E-3,-3.462106921E-3
2.436129797E1,-1.012000442E-2,1.731053460E-3,-8.255792782E-3
2.438143901E1,-1.118526794E-2,1.731053460E-3,-1.198421605E-2
2.440170969E1,-9.054740891E-3,2.263685223E-3,-1.304947957E-2
2.442198031E1,-6.391582079E-3,5.459476262E-3,-1.198421605E-2
2.444225073E1,-4.793686327E-3,1.185105834E-2,-9.853689000E-3
2.446252167E1,-3.195791040E-3,1.557948068E-2,-6.125265732E-3
2.448279214E1,-4.261054564E-3,1.398158539E-2,-1.331579522E-3
2.450306266E1,-5.858949851E-3,7.590003312E-3,1.331579522E-3
2.452333312E1,-2.130527282E-3,-9.321057005E-4,2.396843163E-3
2.454360359E1,2.663159044E-3,-3.595264861E-3,2.396843163E-3
2.456387406E1,3.195791040E-3,-3.994738800E-4,1.864211401E-3
2.458414464E1,1.065263641E-3,4.926844500E-3,-7.989477599E-4
2.460441510E1,-6.391582079E-3,7.590003312E-3,-5.592633970E-3
2.462468562E1,-1.384842768E-2,1.198421582E-3,-1.358211134E-2
2.464495604E1,-1.651158556E-2,-6.791055668E-3,-1.731053367E-2
2.466522661E1,-1.278316416E-2,-7.323687430E-3,-1.624527015E-2
2.468549714E1,-1.118526794E-2,-1.997369342E-3,-1.464737486E-2
2.470576766E1,-7.989477366E-3,2.796316985E-3,-1.731053367E-2
2.472603818E1,-6.924213842E-3,4.394212738E-3,-1.571263932E-2
2.474630870E1,-6.391582079E-3,3.328948980E-3,-1.571263932E-2
2.476670870E1,-5.326318089E-3,5.459476262E-3,-1.251684781E-2
2.478700766E1,-7.989477366E-3,1.344895363E-2,-9.853689000E-3
2.480712083E1,-1.225053146E-2,2.197106183E-2,-7.190529723E-3
2.482739125E1,-1.438105945E-2,2.250369452E-2,-3.994738683E-3
2.484779125E1,-1.384842768E-2,1.557948068E-2,-2.396843163E-3
2.486809005E1,-6.924213842E-3,7.057371549E-3,3.462106921E-3
2.488820328E1,2.663159044E-3,7.057371549E-3,9.853689000E-3
2.490847364E1,9.054740891E-3,1.504684892E-2,1.251684781E-2
2.492874401E1,9.587372653E-3,2.143843099E-2,6.657897960E-3
2.494914401E1,4.793686327E-3,2.303632535E-2,-2.929474926E-3
2.496928500E1,-1.597895520E-3,1.877527125E-2,-9.853689000E-3
2.498955542E1,-9.587372653E-3,9.720530361E-3,-1.251684781E-2
2.500982588E1,-1.491369121E-2,-3.062632866E-3,-1.677790284E-2
2.503009635E1,-1.704421826E-2,-1.584579609E-2,-2.370211668E-2
2.505049635E1,-2.183790505E-2,-2.596580051E-2,-2.689790726E-2
2.507063745E1,-2.343579940E-2,-3.129211813E-2,-2.636527456E-2
2.509090792E1,-1.917474531E-2,-2.649843320E-2,-2.423474751E-2
2.511117849E1,-1.225053146E-2,-1.531316526E-2,-1.731053367E-2
2.513144906E1,-6.924213842E-3,-4.127896391E-3,-7.723161485E-3
2.515184906E1,-2.130527282E-3,1.025316212E-2,1.331579522E-3
2.517199010E1,3.728422802E-3,2.729738131E-2,9.321057238E-3
2.519226068E1,7.456845604E-3,3.954791278E-2,1.731053367E-2
2.521253125E1,9.587372653E-3,4.434159771E-2,1.944106072E-2
2.523280182E1,5.326318089E-3,4.487423226E-2,1.997369342E-2
2.525320182E1,1.065263641E-3,3.848264739E-2,1.784316637E-2
2.527334292E1,-1.597895520E-3,2.836264484E-2,1.571263932E-2
2.529361349E1,-2.130527282E-3,2.356895804E-2,1.518000662E-2
2.531388406E1,-2.130527282E-3,2.676474862E-2,1.198421605E-2
2.533415464E1,-2.130527282E-3,3.155843541E-2,6.125265732E-3
2.535455464E1,-4.261054564E-3,3.315633163E-2,-1.864211401E-3
2.537469583E1,-5.858949851E-3,2.197106183E-2,-9.321057238E-3
2.539496641E1,-3.728422802E-3,9.187898599E-3,-1.038632076E-2
2.541523698E1,-6.924213842E-3,2.263685223E-3,-1.198421605E-2
2.543546818E1,-6.924213842E-3,-7.323687430E-3,-8.788425475E-3
2.545573411E1,-4.261054564E-3,-1.957421936E-2,-4.527370445E-3
2.547604828E1,-1.597895520E-3,-2.703106403E-2,7.989477599E-4
2.549631885E1,2.663159044E-3,-2.490053698E-2,7.190529723E-3
2.551671625E1,4.261054564E-3,-1.371526904E-2,7.723161485E-3
2.553702453E1,5.858949851E-3,-5.725792143E-3,7.190529723E-3
2.555727828E1,6.924213842E-3,-4.127896391E-3,6.657897960E-3
2.557739375E1,8.522109129E-3,-4.127896391E-3,8.788425475E-3
2.559766588E1,9.587372653E-3,-3.062632866E-3,8.788425475E-3
2.561793786E1,5.326318089E-3,-1.464737463E-3,6.125265732E-3
2.563820833E1,5.326318205E-4,-3.062632866E-3,-7.989477599E-4
2.565860943E1,-3.195791040E-3,-6.258423906E-3,-6.657897960E-3
2.567875146E1,-6.391582079E-3,-1.105211023E-2,-5.060002208E-3
2.569902271E1,-3.728422802E-3,-1.158474199E-2,3.462106921E-3
2.571929385E1,3.195791040E-3,-5.193160381E-3,1.091895252E-2
2.573956443E1,5.326318089E-3,3.861580743E-3,1.251684781E-2
2.575997281E1,5.326318089E-3,9.187898599E-3,1.251684781E-2
2.578025500E1,5.326318089E-3,6.524739787E-3,7.190529723E-3
2.580037047E1,4.793686327E-3,4.394212738E-3,2.396843163E-3
2.582064266E1,4.261054564E-3,-1.464737463E-3,-3.462106921E-3
2.584091323E1,-1.065263641E-3,-7.323687430E-3,-5.060002208E-3
2.586131464E1,-6.924213842E-3,-1.531316526E-2,-5.060002208E-3
2.588145687E1,-7.989477366E-3,-2.277000993E-2,-2.396843163E-3
2.590172828E1,-5.858949851E-3,-2.330264263E-2,-1.864211401E-3
2.592199953E1,-1.065263641E-3,-1.797632314E-2,2.396843163E-3
2.594227010E1,3.728422802E-3,-1.318263728E-2,2.929474926E-3
2.596254354E1,7.989477366E-3,-7.323687430E-3,3.462106921E-3
2.598281417E1,7.456845604E-3,-5.193160381E-3,5.592633970E-3
2.600308479E1,9.587372653E-3,-1.265000552E-2,8.788425475E-3
2.602335536E1,8.522109129E-3,-1.478053257E-2,1.304947957E-2
2.604362604E1,7.989477366E-3,-9.986846708E-3,1.464737486E-2
2.606389667E1,7.456845604E-3,-3.062632866E-3,1.304947957E-2
2.608416729E1,5.326318089E-3,-4.660528619E-3,1.251684781E-2
2.610443786E1,3.728422802E-3,-5.193160381E-3,9.853689000E-3
2.612470854E1,3.195791040E-3,-5.193160381E-3,1.038632076E-2
2.614497917E1,1.065263641E-3,-2.530001104E-3,8.255792782E-3
2.616524979E1,-1.065263641E-3,1.331579551E-4,6.125265732E-3
2.618552047E1,-7.989477366E-3,1.731053460E-3,1.864211401E-3
2.620579109E1,-9.587372653E-3,1.198421582E-3,-1.864211401E-3
2.622619109E1,-8.522109129E-3,-3.595264861E-3,-2.929474926E-3
2.624633240E1,-6.391582079E-3,-7.323687430E-3,-1.331579522E-3
2.626673240E1,-4.793686327E-3,-7.856319658E-3,2.663159103E-4
2.628703161E1,-2.663159044E-3,-5.193160381E-3,5.060002208E-3
2.630714495E1,-1.597895520E-3,-9.321057005E-4,6.125265732E-3
2.632741547E1,2.130527282E-3,6.657897611E-4,7.723161485E-3
2.634781547E1,2.663159044E-3,3.861580743E-3,7.723161485E-3
2.636795667E1,2.663159044E-3,1.331579551E-4,5.592633970E-3
2.638822729E1,1.597895520E-3,-4.660528619E-3,2.396843163E-3
2.640849781E1,-0.000000000E0,-9.454214945E-3,7.989477599E-4
2.642876844E1,-1.597895520E-3,-1.637842879E-2,-2.396843163E-3
2.644916844E1,-2.130527282E-3,-1.850895584E-2,-3.994738683E-3
2.646930964E1,5.326318205E-4,-1.744369231E-2,-2.663159103E-4
2.648958036E1,5.326318089E-3,-1.637842879E-2,3.462106921E-3
2.650985104E1,1.225053146E-2,-1.211737376E-2,7.190529723E-3
2.653012161E1,1.384842768E-2,-8.921583183E-3,8.255792782E-3
2.655052161E1,1.331579592E-2,-5.725792143E-3,7.190529723E-3
2.657066297E1,7.989477366E-3,-5.193160381E-3,3.994738683E-3
2.659093365E1,-1.065263641E-3,-1.158474199E-2,7.989477599E-4
2.661120427E1,-3.728422802E-3,-2.117211558E-2,3.462106921E-3
2.663147490E1,-2.663159044E-3,-2.383527346E-2,6.657897960E-3
2.665187490E1,-1.597895520E-3,-1.265000552E-2,1.038632076E-2
2.667217417E1,-1.065263641E-3,4.926844500E-3,8.255792782E-3
2.669228745E1,-5.326318205E-4,1.238369010E-2,3.462106921E-3
2.671255807E1,-0.000000000E0,1.611211337E-2,3.994738683E-3
2.673282859E1,1.065263641E-3,1.877527125E-2,6.125265732E-3
2.675322859E1,3.195791040E-3,2.250369452E-2,9.853689000E-3
2.677336984E1,4.793686327E-3,2.729738131E-2,1.198421605E-2
2.679364042E1,4.793686327E-3,2.303632535E-2,1.464737486E-2
2.681391104E1,4.793686327E-3,1.504684892E-2,1.624527015E-2
2.683418167E1,4.793686327E-3,8.122635074E-3,1.677790284E-2
2.685458167E1,3.728422802E-3,8.655266836E-3,1.784316637E-2
2.687472297E1,3.195791040E-3,1.717737690E-2,1.571263932E-2
2.689499365E1,3.728422802E-3,2.569948509E-2,1.145158429E-2
2.691526427E1,2.663159044E-3,2.676474862E-2,3.994738683E-3
2.693553495E1,1.065263641E-3,2.037316747E-2,2.663159103E-4
2.695580370E1,-1.065263641E-3,1.185105834E-2,-1.864211401E-3
2.697607562E1,-1.597895520E-3,-9.321057005E-4,-2.929474926E-3
2.699634630E1,-3.728422802E-3,-1.158474199E-2,-6.125265732E-3
2.701674375E1,-6.924213842E-3,-1.531316526E-2,-7.190529723E-3
2.703705208E1,-6.391582079E-3,-1.424790081E-2,-3.994738683E-3
2.705730599E1,-4.793686327E-3,-1.318263728E-2,-7.989477599E-4
2.707742146E1,-1.597895520E-3,-1.211737376E-2,6.125265732E-3
2.709769375E1,3.195791040E-3,-1.158474199E-2,1.198421605E-2
2.711796578E1,6.391582079E-3,-1.318263728E-2,1.411474310E-2
2.713823630E1,8.522109129E-3,-8.921583183E-3,1.464737486E-2
2.715863740E1,9.054740891E-3,-6.791055668E-3,1.624527015E-2
2.717877953E1,9.054740891E-3,-3.595264861E-3,1.358211134E-2
2.719905083E1,6.924213842E-3,-1.997369342E-3,1.198421605E-2
2.721932203E1,3.728422802E-3,2.263685223E-3,3.462106921E-3
2.723959266E1,-1.597895520E-3,6.524739787E-3,-6.125265732E-3
2.725999312E1,-7.989477366E-3,7.057371549E-3,-1.304947957E-2
2.728013479E1,-1.225053146E-2,5.459476262E-3,-1.677790284E-2
2.730040578E1,-1.384842768E-2,1.731053460E-3,-1.518000662E-2
2.732067661E1,-1.278316416E-2,-4.127896391E-3,-1.198421605E-2
2.734094724E1,-9.587372653E-3,-3.994738800E-4,-1.038632076E-2
2.736134745E1,-7.989477366E-3,6.524739787E-3,-7.190529723E-3
2.738148896E1,-7.989477366E-3,7.590003312E-3,-2.396843163E-3
2.740175974E1,-6.391582079E-3,-4.127896391E-3,2.396843163E-3
2.742203042E1,-4.261054564E-3,-1.318263728E-2,7.723161485E-3
2.744230109E1,3.195791040E-3,-1.478053257E-2,1.304947957E-2
2.746270109E1,8.522109129E-3,-1.318263728E-2,1.411474310E-2
2.748284276E1,1.065263618E-2,-9.454214945E-3,1.198421605E-2
2.750311344E1,9.587372653E-3,-9.454214945E-3,1.145158429E-2
2.752338411E1,4.793686327E-3,-1.424790081E-2,7.190529723E-3
2.754365474E1,-1.065263641E-3,-1.957421936E-2,4.527370445E-3
2.756405474E1,-2.663159044E-3,-2.170474641E-2,2.396843163E-3
2.758419604E1,-4.261054564E-3,-1.584579609E-2,-1.864211401E-3
2.760446672E1,-5.858949851E-3,-4.660528619E-3,-7.723161485E-3
2.762473740E1,-5.858949851E-3,1.731053460E-3,-9.853689000E-3
2.764500802E1,-6.924213842E-3,5.459476262E-3,-1.091895252E-2
2.766527870E1,-8.522109129E-3,5.992108025E-3,-8.255792782E-3
2.768554932E1,-8.522109129E-3,8.122635074E-3,-4.527370445E-3
2.770582000E1,-1.065263618E-2,1.131842658E-2,-2.396843163E-3
2.772609062E1,-1.225053146E-2,1.664474420E-2,2.396843163E-3
2.774640062E1,-8.522109129E-3,2.037316747E-2,7.190529723E-3
2.776679005E1,-1.065263641E-3,1.664474420E-2,1.145158429E-2
2.778706047E1,5.858949851E-3,1.611211337E-2,1.518000662E-2
2.780717380E1,1.118526794E-2,1.611211337E-2,1.890842989E-2
2.782744427E1,1.331579592E-2,1.344895363E-2,1.837579720E-2
2.784784427E1,1.544632297E-2,9.720530361E-3,1.677790284E-2
2.786798552E1,1.331579592E-2,3.861580743E-3,1.358211134E-2
2.788825609E1,1.331579592E-2,1.731053460E-3,1.251684781E-2
2.790865609E1,1.012000442E-2,1.331579551E-4,1.091895252E-2
2.792879734E1,7.989477366E-3,-1.051947847E-2,5.592633970E-3
2.794912922E1,2.130527282E-3,-2.223737910E-2,2.663159103E-4
2.796952990E1,-5.858949851E-3,-3.182475269E-2,-7.723161485E-3
2.798960698E1,-8.522109129E-3,-3.289001435E-2,-1.251684781E-2
2.800987802E1,-9.054740891E-3,-3.022685647E-2,-1.518000662E-2
2.803014901E1,-7.989477366E-3,-2.756369673E-2,-1.571263932E-2
2.805041990E1,-7.989477366E-3,-2.223737910E-2,-1.571263932E-2
2.807069073E1,-7.456845604E-3,-1.797632314E-2,-1.464737486E-2
2.809096156E1,-5.326318089E-3,-1.797632314E-2,-1.091895252E-2
2.811123234E1,-6.391582079E-3,-1.850895584E-2,-1.038632076E-2
2.813150302E1,-5.858949851E-3,-1.531316526E-2,-8.788425475E-3
2.815177375E1,-4.261054564E-3,-1.531316526E-2,-6.657897960E-3
2.817204443E1,-3.728422802E-3,-8.388951421E-3,-3.462106921E-3
2.819231521E1,-3.195791040E-3,1.198421582E-3,-2.396843163E-3
2.821258583E1,-4.793686327E-3,4.394212738E-3,-3.462106921E-3
2.823285651E1,-7.456845604E-3,5.992108025E-3,-5.592633970E-3
2.825312719E1,-9.054740891E-3,5.992108025E-3,-6.125265732E-3
2.827339781E1,-7.989477366E-3,6.524739787E-3,-3.994738683E-3
2.829366849E1,-5.858949851E-3,7.590003312E-3,-7.989477599E-4
2.831393911E1,-0.000000000E0,7.590003312E-3,2.663159103E-4
2.833420974E1,2.130527282E-3,1.238369010E-2,1.864211401E-3
2.835448036E1,5.326318205E-4,1.398158539E-2,2.396843163E-3
2.837488036E1,2.130527282E-3,3.328948980E-3,1.331579522E-3
2.839502161E1,3.728422802E-3,-2.530001104E-3,-2.663159103E-4
2.841529229E1,1.597895520E-3,-3.595264861E-3,-3.462106921E-3
2.843556292E1,-1.597895520E-3,-8.921583183E-3,-7.723161485E-3
2.845583354E1,-1.065263641E-3,-1.584579609E-2,-1.038632076E-2
2.847610417E1,-3.728422802E-3,-2.383527346E-2,-1.198421605E-2
2.849637479E1,-6.391582079E-3,-2.383527346E-2,-1.518000662E-2
2.851678271E1,-9.587372653E-3,-2.596580051E-2,-1.464737486E-2
2.853708031E1,-6.924213842E-3,-3.075948730E-2,-1.145158429E-2
2.855733406E1,-2.130527282E-3,-2.703106403E-2,-6.125265732E-3
2.857744943E1,2.663159044E-3,-1.691105962E-2,7.989477599E-4
2.859772000E1,4.793686327E-3,-3.062632866E-3,8.788425475E-3
2.861812167E1,5.326318089E-3,1.025316212E-2,9.321057238E-3
2.863826271E1,7.456845604E-3,1.398158539E-2,1.304947957E-2
2.865866406E1,1.065263618E-2,1.611211337E-2,1.251684781E-2
2.867880625E1,1.118526794E-2,1.877527125E-2,1.411474310E-2
2.869907771E1,6.924213842E-3,2.569948509E-2,1.091895252E-2
2.871934896E1,-0.000000000E0,2.889527567E-2,8.255792782E-3
2.873961948E1,-3.195791040E-3,2.143843099E-2,3.462106921E-3
2.876002005E1,-6.391582079E-3,1.291632187E-2,1.331579522E-3
2.878016172E1,-6.924213842E-3,1.078579482E-2,1.331579522E-3
2.880043229E1,-4.793686327E-3,1.131842658E-2,2.929474926E-3
2.882083260E1,2.130527282E-3,1.025316212E-2,6.657897960E-3
2.884097380E1,5.858949851E-3,1.185105834E-2,8.255792782E-3
2.886137411E1,5.858949851E-3,1.451421715E-2,8.255792782E-3
2.888151547E1,4.793686327E-3,1.611211337E-2,7.723161485E-3
2.890178630E1,1.065263641E-3,1.451421715E-2,5.060002208E-3
2.892205703E1,-2.663159044E-3,1.025316212E-2,6.125265732E-3
2.894232760E1,-4.793686327E-3,5.459476262E-3,4.527370445E-3
2.896259875E1,-3.195791040E-3,2.796316985E-3,7.723161485E-3
2.898286932E1,1.597895520E-3,2.796316985E-3,6.657897960E-3
2.900313984E1,3.195791040E-3,3.328948980E-3,5.592633970E-3
2.902341052E1,3.728422802E-3,5.459476262E-3,5.592633970E-3
2.904368109E1,5.326318089E-3,5.992108025E-3,5.592633970E-3
2.906395167E1,5.326318089E-3,1.131842658E-2,7.723161485E-3
2.908422229E1,5.858949851E-3,1.664474420E-2,7.190529723E-3
2.910449286E1,5.326318089E-3,1.771000773E-2,9.321057238E-3
2.912476344E1,4.261054564E-3,1.131842658E-2,7.190529723E-3
2.914503401E1,3.195791040E-3,2.263685223E-3,4.527370445E-3
2.916530458E1,-0.000000000E0,2.796316985E-3,5.592633970E-3
2.918557521E1,-3.728422802E-3,9.187898599E-3,6.125265732E-3
2.920584578E1,-4.793686327E-3,1.398158539E-2,6.657897960E-3
2.922611635E1,-2.130527282E-3,1.185105834E-2,6.657897960E-3
2.924646562E1,2.663159044E-3,1.131842658E-2,6.657897960E-3
2.926681510E1,3.728422802E-3,1.238369010E-2,5.592633970E-3
2.928708583E1,1.597895520E-3,1.504684892E-2,2.929474926E-3
2.930719906E1,-5.326318205E-4,1.238369010E-2,-1.864211401E-3
2.932746953E1,-3.195791040E-3,7.590003312E-3,-2.929474926E-3
2.934786953E1,-4.793686327E-3,6.524739787E-3,-7.989477599E-4
2.936816849E1,-3.728422802E-3,5.992108025E-3,3.462106921E-3
2.938828177E1,-2.130527282E-3,-3.994738800E-4,6.657897960E-3
2.940855208E1,2.130527282E-3,-5.725792143E-3,7.190529723E-3
2.942882255E1,4.793686327E-3,-8.921583183E-3,5.592633970E-3
2.944914969E1,4.261054564E-3,-1.158474199E-2,2.929474926E-3
2.946954745E1,3.728422802E-3,-1.105211023E-2,7.989477599E-4
2.948962891E1,2.130527282E-3,-1.371526904E-2,7.989477599E-4
2.950990042E1,2.663159044E-3,-1.691105962E-2,-3.462106921E-3
2.953017177E1,-1.065263641E-3,-1.850895584E-2,-7.190529723E-3
2.955044286E1,-4.261054564E-3,-1.957421936E-2,-6.657897960E-3
2.957071396E1,-6.924213842E-3,-1.637842879E-2,-3.994738683E-3
2.959098490E1,-9.054740891E-3,-1.265000552E-2,-3.994738683E-3
2.961125578E1,-4.793686327E-3,-8.921583183E-3,-3.462106921E-3
2.963152661E1,-3.195791040E-3,-3.994738800E-4,-3.994738683E-3
2.965179734E1,-5.858949851E-3,8.655266836E-3,-5.060002208E-3
2.967206807E1,-1.012000442E-2,2.090579830E-2,-7.190529723E-3
2.969233875E1,-1.491369121E-2,2.197106183E-2,-8.788425475E-3
2.971260943E1,-1.491369121E-2,9.720530361E-3,-7.190529723E-3
2.973287995E1,-1.118526794E-2,6.657897611E-4,-4.527370445E-3
2.975315057E1,-6.391582079E-3,3.328948980E-3,1.331579522E-3
2.977342120E1,-1.065263641E-3,7.590003312E-3,3.462106921E-3
2.979369177E1,5.326318205E-4,9.720530361E-3,4.527370445E-3
2.981396229E1,1.065263641E-3,4.926844500E-3,1.331579522E-3
2.983436229E1,1.065263641E-3,-6.258423906E-3,7.989477599E-4
2.985450344E1,1.597895520E-3,-1.584579609E-2,-2.663159103E-4
2.987477396E1,-5.326318205E-4,-2.490053698E-2,-2.929474926E-3
2.989504453E1,-3.728422802E-3,-3.448791057E-2,-7.190529723E-3
2.991531505E1,-6.391582079E-3,-4.247738793E-2,-1.038632076E-2
2.993558562E1,-4.793686327E-3,-4.301001877E-2,-1.038632076E-2
2.995585615E1,-3.728422802E-3,-3.821633384E-2,-8.788425475E-3
2.997612672E1,-0.000000000E0,-2.809632942E-2,-5.592633970E-3
2.999639724E1,5.326318205E-4,-1.850895584E-2,2.663159103E-4
3.001680516E1,5.326318205E-4,-1.158474199E-2,1.331579522E-3
3.003710255E1,1.597895520E-3,-5.193160381E-3,7.989477599E-4
3.005735620E1,2.130527282E-3,2.796316985E-3,2.663159103E-4
3.007747151E1,1.065263641E-3,7.057371549E-3,3.462106921E-3
3.009774359E1,1.065263641E-3,3.328948980E-3,5.592633970E-3
3.011801531E1,2.130527282E-3,6.657897611E-4,7.190529723E-3
3.013828578E1,-5.326318205E-4,7.590003312E-3,8.788425475E-3
3.015868687E1,-5.326318089E-3,1.291632187E-2,5.592633970E-3
3.017882870E1,-6.924213842E-3,2.037316747E-2,5.060002208E-3
3.019909984E1,-5.326318205E-4,2.569948509E-2,6.657897960E-3
3.021937083E1,3.728422802E-3,3.155843541E-2,7.723161485E-3
3.023964130E1,5.326318205E-4,3.741738573E-2,8.255792782E-3
3.026004969E1,-2.130527282E-3,3.422159329E-2,5.060002208E-3
3.028033172E1,-3.195791040E-3,2.197106183E-2,2.929474926E-3
3.030044703E1,-3.728422802E-3,1.025316212E-2,1.331579522E-3
3.032071906E1,-4.261054564E-3,5.992108025E-3,-1.331579522E-3
3.034098953E1,-4.261054564E-3,4.926844500E-3,-2.929474926E-3
3.036139094E1,-3.728422802E-3,2.263685223E-3,-3.994738683E-3
3.038153292E1,-4.261054564E-3,-3.595264861E-3,-6.125265732E-3
3.040180422E1,-2.663159044E-3,-1.478053257E-2,-6.125265732E-3
3.042207536E1,-5.326318205E-4,-2.436790615E-2,-5.592633970E-3
3.044234583E1,-5.326318205E-4,-2.969422378E-2,-6.125265732E-3
3.046261906E1,-3.195791040E-3,-3.129211813E-2,-9.853689000E-3
3.048288953E1,-2.663159044E-3,-2.596580051E-2,-9.321057238E-3
3.050316005E1,-2.130527282E-3,-2.277000993E-2,-5.592633970E-3
3.052343047E1,-2.130527282E-3,-1.637842879E-2,-2.929474926E-3
3.054370094E1,1.597895520E-3,-4.660528619E-3,-1.331579522E-3
3.056397146E1,1.065263641E-3,4.926844500E-3,-2.663159103E-4
3.058424193E1,1.597895520E-3,8.122635074E-3,7.989477599E-4
3.060451240E1,1.597895520E-3,7.590003312E-3,2.396843163E-3
3.062478276E1,2.130527282E-3,9.720530361E-3,7.989477599E-4
3.064505333E1,-5.326318205E-4,7.590003312E-3,2.663159103E-4
3.066532380E1,-2.663159044E-3,7.057371549E-3,1.331579522E-3
3.068559427E1,-3.195791040E-3,7.057371549E-3,1.331579522E-3
3.070586474E1,-1.597895520E-3,7.590003312E-3,3.462106921E-3
3.072626474E1,1.597895520E-3,1.131842658E-2,5.592633970E-3
3.074648464E1,5.326318205E-4,1.611211337E-2,6.125265732E-3
3.076683385E1,2.130527282E-3,1.451421715E-2,5.592633970E-3
3.078710448E1,3.728422802E-3,7.057371549E-3,2.929474926E-3
3.080721760E1,3.728422802E-3,1.198421582E-3,3.994738683E-3
3.082748802E1,-5.326318205E-4,4.926844500E-3,7.989477599E-4
3.084788802E1,-3.728422802E-3,8.655266836E-3,2.663159103E-4
3.086802885E1,-4.793686327E-3,6.657897611E-4,-1.331579522E-3
3.088829922E1,-4.261054564E-3,-8.921583183E-3,-1.864211401E-3
3.090856964E1,-3.195791040E-3,-9.454214945E-3,2.663159103E-4
3.092884000E1,-1.597895520E-3,-2.530001104E-3,1.864211401E-3
3.094917240E1,2.663159044E-3,4.926844500E-3,5.592633970E-3
3.096957297E1,3.728422802E-3,9.187898599E-3,6.657897960E-3
3.098964953E1,5.858949851E-3,1.078579482E-2,6.657897960E-3
3.100992036E1,7.989477366E-3,1.344895363E-2,6.125265732E-3
3.103019109E1,5.858949851E-3,1.238369010E-2,5.060002208E-3
3.105046146E1,3.195791040E-3,4.926844500E-3,1.331579522E-3
3.107086172E1,-0.000000000E0,-5.193160381E-3,-2.929474926E-3
3.109100281E1,-2.663159044E-3,-1.318263728E-2,-2.929474926E-3
3.111127338E1,-3.728422802E-3,-2.063948289E-2,-3.462106921E-3
3.113154396E1,-1.597895520E-3,-2.277000993E-2,-5.592633970E-3
3.115181443E1,-5.326318205E-4,-2.436790615E-2,-6.657897960E-3
3.117208495E1,-1.065263641E-3,-2.916159295E-2,-7.723161485E-3
3.119235547E1,-2.130527282E-3,-2.969422378E-2,-7.190529723E-3
3.121262599E1,-1.597895520E-3,-2.543316968E-2,-6.125265732E-3
3.123289641E1,2.130527282E-3,-2.170474641E-2,-4.527370445E-3
3.125316687E1,2.663159044E-3,-1.904158667E-2,-3.994738683E-3
3.127343729E1,-1.065263641E-3,-1.904158667E-2,-3.994738683E-3
3.129370781E1,-1.597895520E-3,-1.797632314E-2,-1.864211401E-3
3.131397823E1,5.326318205E-4,-1.797632314E-2,1.331579522E-3
3.133424865E1,5.326318089E-3,-1.211737376E-2,4.527370445E-3
3.135451911E1,4.261054564E-3,-2.530001104E-3,3.994738683E-3
3.137478958E1,3.728422802E-3,2.796316985E-3,7.989477599E-4
3.139506000E1,3.195791040E-3,5.459476262E-3,7.989477599E-4
3.141533042E1,3.195791040E-3,1.291632187E-2,2.663159103E-4
3.143560083E1,5.326318205E-4,2.410159074E-2,3.994738683E-3
3.145587125E1,-3.195791040E-3,2.729738131E-2,6.657897960E-3
3.147614167E1,-4.793686327E-3,2.410159074E-2,8.788425475E-3
3.149641208E1,-3.728422802E-3,2.090579830E-2,9.321057238E-3
3.151682005E1,-5.326318205E-4,2.410159074E-2,1.091895252E-2
3.153711719E1,2.663159044E-3,2.996053919E-2,1.091895252E-2
3.155737073E1,4.793686327E-3,2.889527567E-2,9.853689000E-3
3.157748594E1,5.326318089E-3,2.623211779E-2,5.592633970E-3
3.159775625E1,1.597895520E-3,2.143843099E-2,2.396843163E-3
3.161815792E1,-2.130527282E-3,1.131842658E-2,-2.396843163E-3
3.163829865E1,-6.391582079E-3,-1.464737463E-3,-2.929474926E-3
3.165870000E1,-4.793686327E-3,-1.318263728E-2,-3.462106921E-3
3.167884177E1,-2.130527282E-3,-2.277000993E-2,1.331579522E-3
3.169911297E1,-0.000000000E0,-2.703106403E-2,5.592633970E-3
3.171938401E1,-0.000000000E0,-2.596580051E-2,3.994738683E-3
3.173965432E1,4.261054564E-3,-2.277000993E-2,2.929474926E-3
3.176005490E1,1.012000442E-2,-2.010685205E-2,5.060002208E-3
3.178019609E1,1.225053146E-2,-1.637842879E-2,5.592633970E-3
3.180046687E1,1.171789970E-2,-6.791055668E-3,8.255792782E-3
3.182073755E1,7.456845604E-3,-3.994738800E-4,1.145158429E-2
3.184100786E1,3.195791040E-3,4.394212738E-3,1.145158429E-2
3.186140807E1,1.597895520E-3,5.459476262E-3,1.198421605E-2
3.188154906E1,5.326318205E-4,9.720530361E-3,1.358211134E-2
3.190181964E1,3.728422802E-3,1.717737690E-2,1.358211134E-2
3.192209010E1,5.326318089E-3,2.037316747E-2,1.091895252E-2
3.194236047E1,6.924213842E-3,1.877527125E-2,8.255792782E-3
3.196276047E1,3.728422802E-3,1.877527125E-2,8.788425475E-3
3.198290167E1,5.326318205E-4,1.930790395E-2,1.091895252E-2
3.200317208E1,4.261054564E-3,1.504684892E-2,1.251684781E-2
3.202344245E1,8.522109129E-3,1.238369010E-2,1.038632076E-2
3.204371281E1,9.587372653E-3,1.504684892E-2,4.527370445E-3
3.206398318E1,4.261054564E-3,1.504684892E-2,-1.864211401E-3
3.208425359E1,-2.130527282E-3,6.524739787E-3,-2.929474926E-3
3.210452396E1,-6.924213842E-3,-7.323687430E-3,-3.994738683E-3
3.212479432E1,-5.326318089E-3,-1.744369231E-2,-1.864211401E-3
3.214506469E1,-1.597895520E-3,-1.478053257E-2,3.994738683E-3
3.216533505E1,2.663159044E-3,-5.725792143E-3,7.190529723E-3
3.218560542E1,4.793686327E-3,-1.997369342E-3,8.255792782E-3
3.220587578E1,5.858949851E-3,-4.127896391E-3,6.125265732E-3
3.222614614E1,6.924213842E-3,-4.660528619E-3,6.125265732E-3
3.224649521E1,5.858949851E-3,-1.464737463E-3,7.190529723E-3
3.226684453E1,4.261054564E-3,2.263685223E-3,7.723161485E-3
3.228711500E1,2.663159044E-3,6.524739787E-3,3.994738683E-3
3.230722797E1,5.326318205E-4,8.655266836E-3,1.864211401E-3
3.232749828E1,-0.000000000E0,1.025316212E-2,2.663159103E-4
3.234789828E1,-5.326318205E-4,1.398158539E-2,-2.663159103E-4
3.236803896E1,-2.663159044E-3,1.398158539E-2,-3.994738683E-3
3.238830927E1,-2.663159044E-3,1.025316212E-2,-6.657897960E-3
3.240870927E1,-3.195791040E-3,7.057371549E-3,-8.788425475E-3
3.242884990E1,-1.597895520E-3,6.524739787E-3,-9.321057238E-3
3.244918240E1,-5.326318205E-4,4.394212738E-3,-1.251684781E-2
3.246957724E1,-2.663159044E-3,-9.321057005E-4,-1.411474310E-2
3.248965917E1,-9.054740891E-3,-9.986846708E-3,-9.853689000E-3
3.250992990E1,-1.171789970E-2,-2.490053698E-2,-1.864211401E-3
3.253020047E1,-7.456845604E-3,-2.916159295E-2,7.190529723E-3
3.255047099E1,-5.326318205E-4,-2.117211558E-2,9.321057238E-3
3.257074151E1,3.728422802E-3,-9.454214945E-3,6.125265732E-3
3.259101203E1,4.261054564E-3,1.198421582E-3,1.864211401E-3
3.261128250E1,3.728422802E-3,5.992108025E-3,2.663159103E-4
3.263155292E1,2.130527282E-3,9.187898599E-3,2.396843163E-3
3.265182328E1,-2.130527282E-3,1.717737690E-2,4.527370445E-3
3.267209370E1,-6.391582079E-3,2.090579830E-2,3.994738683E-3
3.269236411E1,-9.054740891E-3,1.984053478E-2,1.331579522E-3
3.271263448E1,-8.522109129E-3,2.090579830E-2,2.663159103E-4
3.273290484E1,-7.456845604E-3,2.197106183E-2,2.396843163E-3
3.275317521E1,-3.195791040E-3,2.463422157E-2,7.723161485E-3
3.277344557E1,1.597895520E-3,2.303632535E-2,1.358211134E-2
3.279371589E1,2.663159044E-3,2.143843099E-2,1.358211134E-2
3.281398620E1,-5.326318205E-4,1.824264042E-2,1.464737486E-2
3.283425656E1,-1.065263641E-3,1.398158539E-2,1.251684781E-2
3.285452687E1,-5.326318205E-4,8.655266836E-3,1.091895252E-2
3.287492693E1,1.065263641E-3,7.057371549E-3,6.657897960E-3
3.289506760E1,-1.597895520E-3,5.459476262E-3,1.864211401E-3
3.291533792E1,-4.261054564E-3,6.657897611E-4,-2.929474926E-3
3.293560823E1,-7.456845604E-3,-1.997369342E-3,-7.723161485E-3
3.295587859E1,-1.331579592E-2,-4.127896391E-3,-9.853689000E-3
3.297614891E1,-1.491369121E-2,-9.454214945E-3,-1.304947957E-2
3.299641922E1,-1.171789970E-2,-1.265000552E-2,-1.198421605E-2
3.301682719E1,-6.924213842E-3,-1.371526904E-2,-7.190529723E-3
3.303712411E1,-5.326318205E-4,-9.454214945E-3,-1.864211401E-3
3.305737755E1,1.065263641E-3,-3.062632866E-3,2.396843163E-3
3.307749266E1,2.130527282E-3,1.331579551E-4,3.994738683E-3
3.309776453E1,3.195791040E-3,-1.997369342E-3,5.060002208E-3
3.311803620E1,2.663159044E-3,-6.791055668E-3,5.060002208E-3
3.313830641E1,4.793686327E-3,-1.265000552E-2,7.190529723E-3
3.315870745E1,5.858949851E-3,-1.318263728E-2,8.255792782E-3
3.317884880E1,4.261054564E-3,-9.454214945E-3,5.592633970E-3
3.319911984E1,4.261054564E-3,-7.856319658E-3,2.396843163E-3
3.321939062E1,4.261054564E-3,-1.371526904E-2,-2.663159103E-4
3.323966088E1,3.728422802E-3,-1.318263728E-2,-2.663159103E-4
3.326006135E1,1.065263641E-3,-6.258423906E-3,7.989477599E-4
3.328020234E1,-1.597895520E-3,-4.127896391E-3,-2.663159103E-4
3.330047266E1,-4.793686327E-3,-9.454214945E-3,-2.396843163E-3
3.332087292E1,-5.326318089E-3,-1.211737376E-2,-4.527370445E-3
3.334101349E1,-4.793686327E-3,-1.318263728E-2,-4.527370445E-3
3.336141370E1,-1.597895520E-3,-6.258423906E-3,-1.331579522E-3
3.338155448E1,1.597895520E-3,-2.530001104E-3,1.864211401E-3
3.340182495E1,1.065263641E-3,-3.994738800E-4,1.864211401E-3
3.342209536E1,1.065263641E-3,6.657897611E-4,3.994738683E-3
3.344236562E1,-5.326318205E-4,-3.994738800E-4,4.527370445E-3
3.346263635E1,1.597895520E-3,-3.062632866E-3,3.462106921E-3
3.348290667E1,3.195791040E-3,-3.595264861E-3,1.864211401E-3
3.350317693E1,1.065263641E-3,-3.994738800E-4,2.396843163E-3
3.352344724E1,-5.326318205E-4,1.331579551E-4,2.663159103E-4
3.354371755E1,-3.195791040E-3,6.657897611E-4,2.663159103E-4
3.356398786E1,-3.195791040E-3,-1.997369342E-3,-2.663159103E-4
3.358425812E1,-2.130527282E-3,-9.321057005E-4,-7.989477599E-4
3.360452844E1,-1.597895520E-3,2.796316985E-3,-7.989477599E-4
3.362479870E1,-0.000000000E0,7.057371549E-3,2.929474926E-3
3.364506901E1,2.130527282E-3,9.187898599E-3,3.462106921E-3
3.366533927E1,2.663159044E-3,9.187898599E-3,4.527370445E-3
3.368560958E1,2.130527282E-3,7.590003312E-3,5.060002208E-3
3.370587984E1,-0.000000000E0,5.992108025E-3,5.592633970E-3
3.372615016E1,-2.663159044E-3,5.459476262E-3,6.125265732E-3
3.374653917E1,-1.065263641E-3,4.394212738E-3,7.723161485E-3
3.376684864E1,2.130527282E-3,6.524739787E-3,9.853689000E-3
3.378711901E1,3.728422802E-3,9.187898599E-3,8.788425475E-3
3.384269510E1,3.728422802E-3,9.187898599E-3,2.929474926E-3
3.386290620E1,5.326318205E-4,8.122635074E-3,1.864211401E-3
3.388316573E1,-3.728422802E-3,1.344895363E-2,1.864211401E-3
3.390344781E1,-6.924213842E-3,1.664474420E-2,7.989477599E-4
3.392371786E1,-6.924213842E-3,1.131842658E-2,7.989477599E-4
3.394398807E1,-6.924213842E-3,3.861580743E-3,-2.663159103E-4
3.396425833E1,-2.663159044E-3,-3.994738800E-4,7.989477599E-4
3.398452859E1,2.663159044E-3,6.657897611E-4,3.994738683E-3
3.400479885E1,7.989477366E-3,1.731053460E-3,6.125265732E-3
3.402506911E1,1.118526794E-2,-1.464737463E-3,5.060002208E-3
3.404546911E1,1.118526794E-2,-5.725792143E-3,5.060002208E-3
3.406576635E1,5.858949851E-3,-9.986846708E-3,5.060002208E-3
3.408588359E1,-2.663159044E-3,-1.531316526E-2,1.864211401E-3
3.410615089E1,-7.989477366E-3,-2.063948289E-2,-4.527370445E-3
3.412642052E1,-9.054740891E-3,-2.170474641E-2,-8.788425475E-3
3.414669073E1,-9.054740891E-3,-1.957421936E-2,-9.853689000E-3
3.416696094E1,-6.924213842E-3,-1.105211023E-2,-6.657897960E-3
3.418723125E1,-1.597895520E-3,-3.994738800E-4,-1.331579522E-3
3.420750146E1,2.663159044E-3,4.926844500E-3,5.060002208E-3
3.422777172E1,6.924213842E-3,2.796316985E-3,7.190529723E-3
3.424804198E1,1.118526794E-2,-1.464737463E-3,8.255792782E-3
3.426831224E1,1.331579592E-2,-4.660528619E-3,5.060002208E-3
3.428858250E1,1.225053146E-2,-7.856319658E-3,3.994738683E-3
3.430885276E1,7.989477366E-3,-8.921583183E-3,5.060002208E-3
3.432912297E1,2.663159044E-3,-1.318263728E-2,8.255792782E-3
3.434939323E1,2.663159044E-3,-1.744369231E-2,8.255792782E-3
3.436974219E1,3.728422802E-3,-1.105211023E-2,8.255792782E-3
3.438993380E1,5.858949851E-3,1.731053460E-3,8.255792782E-3
3.441020406E1,3.728422802E-3,1.131842658E-2,6.125265732E-3
3.443047427E1,5.326318205E-4,1.451421715E-2,3.994738683E-3
3.445074453E1,5.326318205E-4,1.344895363E-2,3.994738683E-3
3.447101474E1,4.793686327E-3,7.057371549E-3,8.255792782E-3
3.449128500E1,9.054740891E-3,1.731053460E-3,1.251684781E-2
3.451155526E1,9.054740891E-3,4.926844500E-3,1.145158429E-2
3.453182547E1,4.793686327E-3,4.926844500E-3,7.190529723E-3
3.455209568E1,1.597895520E-3,1.731053460E-3,1.864211401E-3
3.457236588E1,-2.663159044E-3,-3.994738800E-4,-1.331579522E-3
3.459263614E1,-2.663159044E-3,-5.725792143E-3,7.989477599E-4
3.461290635E1,-5.326318205E-4,-1.318263728E-2,1.864211401E-3
3.463317661E1,1.597895520E-3,-1.211737376E-2,-4.527370445E-3
3.465344687E1,5.326318205E-4,-6.791055668E-3,-1.198421605E-2
3.467371708E1,-2.663159044E-3,-8.921583183E-3,-1.518000662E-2
3.469398729E1,-6.924213842E-3,-1.850895584E-2,-1.304947957E-2
3.471425750E1,-7.989477366E-3,-2.809632942E-2,-9.853689000E-3
3.473452776E1,-6.924213842E-3,-3.448791057E-2,-1.198421605E-2
3.475479797E1,-6.924213842E-3,-3.661843762E-2,-1.624527015E-2
3.477506823E1,-4.793686327E-3,-3.448791057E-2,-1.624527015E-2
3.479533844E1,-5.326318205E-4,-3.129211813E-2,-1.198421605E-2
3.481560865E1,1.597895520E-3,-2.703106403E-2,-7.723161485E-3
3.483587885E1,2.663159044E-3,-2.490053698E-2,-3.462106921E-3
3.485614911E1,1.597895520E-3,-2.809632942E-2,-2.396843163E-3
3.487641932E1,1.597895520E-3,-3.129211813E-2,-3.462106921E-3
3.489668953E1,3.728422802E-3,-3.129211813E-2,-6.657897960E-3
3.491695974E1,5.858949851E-3,-2.809632942E-2,-8.788425475E-3
3.493723000E1,1.597895520E-3,-2.277000993E-2,-9.853689000E-3
3.495750021E1,-2.663159044E-3,-1.637842879E-2,-1.091895252E-2
3.497777042E1,-6.924213842E-3,-9.986846708E-3,-8.788425475E-3
3.499804062E1,-3.728422802E-3,-3.595264861E-3,-3.462106921E-3
3.501831078E1,1.597895520E-3,4.926844500E-3,2.929474926E-3
3.503858104E1,4.793686327E-3,1.771000773E-2,6.125265732E-3
3.505898104E1,4.793686327E-3,2.516685426E-2,8.255792782E-3
3.507912146E1,2.663159044E-3,2.410159074E-2,2.929474926E-3
3.509939167E1,-2.663159044E-3,1.984053478E-2,-2.663159103E-4
3.511966187E1,-5.858949851E-3,1.984053478E-2,-2.663159103E-4
3.513993208E1,-6.924213842E-3,2.623211779E-2,-2.663159103E-4
3.516033208E1,-7.989477366E-3,2.729738131E-2,7.989477599E-4
3.518047250E1,-7.989477366E-3,1.771000773E-2,7.989477599E-4
3.520074271E1,-6.924213842E-3,9.187898599E-3,1.864211401E-3
3.522101292E1,-3.728422802E-3,4.926844500E-3,2.929474926E-3
3.524128307E1,-5.326318205E-4,4.926844500E-3,2.929474926E-3
3.526168307E1,3.728422802E-3,3.861580743E-3,2.929474926E-3
3.528182349E1,4.793686327E-3,4.926844500E-3,3.994738683E-3
3.530209370E1,4.793686327E-3,4.926844500E-3,3.994738683E-3
3.532236391E1,1.597895520E-3,1.731053460E-3,7.989477599E-4
3.534263401E1,-5.326318205E-4,-3.994738800E-4,-3.462106921E-3
3.536303401E1,-2.663159044E-3,-2.530001104E-3,-5.592633970E-3
3.538317448E1,-2.663159044E-3,-6.791055668E-3,-4.527370445E-3
3.540344464E1,5.326318205E-4,-5.725792143E-3,-2.396843163E-3
3.542371484E1,2.663159044E-3,1.731053460E-3,7.989477599E-4
3.544398505E1,3.728422802E-3,7.057371549E-3,2.929474926E-3
3.546425521E1,4.793686327E-3,3.861580743E-3,5.060002208E-3
3.548452542E1,4.793686327E-3,4.926844500E-3,5.060002208E-3
3.550479562E1,1.597895520E-3,1.131842658E-2,2.929474926E-3
3.552506578E1,1.597895520E-3,1.238369010E-2,1.864211401E-3
3.554533599E1,4.793686327E-3,3.861580743E-3,7.989477599E-4
3.556560620E1,7.989477366E-3,-1.464737463E-3,2.929474926E-3
3.558587635E1,1.331579592E-2,3.861580743E-3,9.321057238E-3
3.560614651E1,1.651158556E-2,2.796316985E-3,1.251684781E-2
3.562641672E1,1.438105945E-2,-3.994738800E-4,7.190529723E-3
3.564668687E1,5.858949851E-3,-2.530001104E-3,-4.527370445E-3
3.566695708E1,-5.858949851E-3,-1.105211023E-2,-1.624527015E-2
3.568722724E1,-1.331579592E-2,-1.637842879E-2,-2.583264373E-2
3.570749745E1,-1.651158556E-2,-2.170474641E-2,-3.222422674E-2
3.572776760E1,-2.077264152E-2,-3.661843762E-2,-3.542001545E-2
3.574803781E1,-2.183790505E-2,-5.046686530E-2,-3.222422674E-2
3.576830797E1,-1.970737800E-2,-4.727107286E-2,-2.583264373E-2
3.578857812E1,-1.544632297E-2,-3.448791057E-2,-1.624527015E-2
3.580884833E1,-6.924213842E-3,-1.744369231E-2,-4.527370445E-3
3.582911849E1,-5.326318205E-4,6.657897611E-4,8.255792782E-3
3.584938865E1,4.793686327E-3,2.197106183E-2,1.677790284E-2
3.586965885E1,4.793686327E-3,5.273054913E-2,2.103895694E-2
3.588992901E1,1.597895520E-3,7.297056168E-2,2.103895694E-2
3.591019917E1,-1.597895520E-3,7.936213911E-2,1.997369342E-2
3.593046937E1,-3.728422802E-3,7.084003091E-2,1.784316637E-2
3.595073953E1,-7.989477366E-3,5.592634156E-2,1.571263932E-2
3.597100969E1,-9.054740891E-3,4.846949503E-2,1.358211134E-2
3.599127984E1,-5.858949851E-3,4.633896798E-2,1.145158429E-2
3.601155000E1,-3.728422802E-3,4.008054361E-2,8.255792782E-3
3.603182021E1,-3.728422802E-3,2.836264484E-2,5.060002208E-3
3.605209036E1,-1.597895520E-3,1.771000773E-2,5.060002208E-3
3.607236052E1,1.597895520E-3,1.131842658E-2,6.125265732E-3
3.609263068E1,5.326318205E-4,8.122635074E-3,6.125265732E-3
3.611290083E1,-1.597895520E-3,1.025316212E-2,5.060002208E-3
3.613317099E1,-1.597895520E-3,1.131842658E-2,1.864211401E-3
3.615344114E1,-2.663159044E-3,1.664474420E-2,1.864211401E-3
3.617371130E1,-2.663159044E-3,2.623211779E-2,3.994738683E-3
3.619398146E1,-3.728422802E-3,3.795001656E-2,8.255792782E-3
3.621425161E1,-5.858949851E-3,4.740423337E-2,6.125265732E-3
3.623452177E1,-1.012000442E-2,5.592634156E-2,7.989477599E-4
3.625479193E1,-1.118526794E-2,6.551371515E-2,-2.396843163E-3
3.627506208E1,-1.331579592E-2,6.870950758E-2,-2.396843163E-3
3.629533219E1,-1.225053146E-2,6.231792271E-2,7.989477599E-4
3.631560240E1,-9.054740891E-3,4.327633604E-2,1.864211401E-3
3.633587255E1,-1.597895520E-3,1.877527125E-2,-1.331579522E-3
3.635614266E1,4.793686327E-3,2.796316985E-3,-3.462106921E-3
3.637641281E1,9.054740891E-3,-1.464737463E-3,-2.396843163E-3
3.639668297E1,6.924213842E-3,-1.211737376E-2,-4.527370445E-3
3.641695312E1,3.728422802E-3,-3.448791057E-2,-7.723161485E-3
3.643722328E1,-5.326318205E-4,-5.153212696E-2,-1.091895252E-2
3.645745406E1,-2.663159044E-3,-5.792371184E-2,-9.853689000E-3
3.647776349E1,-1.597895520E-3,-5.366265774E-2,-7.723161485E-3
3.649803364E1,-5.326318205E-4,-4.727107286E-2,-8.788425475E-3
3.651830375E1,-5.326318205E-4,-3.981423005E-2,-9.853689000E-3
3.653857396E1,-5.326318205E-4,-2.916159295E-2,-9.853689000E-3
3.655897396E1,-1.597895520E-3,-1.637842879E-2,-5.592633970E-3
3.657911422E1,-1.597895520E-3,-4.660528619E-3,-1.331579522E-3
3.659938437E1,1.597895520E-3,5.992108025E-3,-2.663159103E-4
3.661965453E1,2.663159044E-3,1.771000773E-2,7.989477599E-4
3.663992464E1,5.326318205E-4,2.729738131E-2,1.864211401E-3
3.666032464E1,5.326318205E-4,2.836264484E-2,2.929474926E-3
3.668046490E1,1.597895520E-3,2.623211779E-2,3.994738683E-3
3.670073505E1,2.663159044E-3,2.197106183E-2,8.255792782E-3
3.672100521E1,1.597895520E-3,1.451421715E-2,1.145158429E-2
3.674127531E1,1.597895520E-3,1.025316212E-2,1.251684781E-2
3.676167531E1,3.728422802E-3,8.122635074E-3,1.251684781E-2
3.678181557E1,4.793686327E-3,1.731053460E-3,1.358211134E-2
3.680208568E1,4.793686327E-3,-5.725792143E-3,1.145158429E-2
3.682235583E1,3.728422802E-3,-8.921583183E-3,1.251684781E-2
3.684262594E1,2.663159044E-3,-6.791055668E-3,1.251684781E-2
3.686289604E1,4.793686327E-3,-6.791055668E-3,1.038632076E-2
3.688316620E1,3.728422802E-3,-4.660528619E-3,8.255792782E-3
3.690343630E1,1.597895520E-3,-3.595264861E-3,5.060002208E-3
3.692370646E1,2.663159044E-3,-5.725792143E-3,1.864211401E-3
3.694397656E1,4.793686327E-3,-9.986846708E-3,2.929474926E-3
3.696424667E1,6.924213842E-3,-6.791055668E-3,8.255792782E-3
3.698451682E1,7.989477366E-3,1.731053460E-3,1.677790284E-2
3.700478693E1,1.118526794E-2,9.187898599E-3,2.423474751E-2
3.702505703E1,1.225053146E-2,1.025316212E-2,2.743053809E-2
3.704532714E1,1.118526794E-2,1.131842658E-2,2.423474751E-2
3.706559729E1,1.012000442E-2,1.771000773E-2,1.784316637E-2
3.708586740E1,6.924213842E-3,1.877527125E-2,1.145158429E-2
3.710613750E1,-1.597895520E-3,8.122635074E-3,1.864211401E-3
3.712640760E1,-3.728422802E-3,-3.595264861E-3,-7.723161485E-3
3.714667771E1,-4.793686327E-3,-1.211737376E-2,-1.198421605E-2
3.716694786E1,-1.597895520E-3,-1.850895584E-2,-5.592633970E-3
3.718721797E1,4.793686327E-3,-2.383527346E-2,5.060002208E-3
3.720748807E1,7.989477366E-3,-3.129211813E-2,8.255792782E-3
3.722775818E1,9.054740891E-3,-3.768370301E-2,-2.663159103E-4
3.724802828E1,7.989477366E-3,-5.259739235E-2,-1.518000662E-2
3.726829838E1,5.858949851E-3,-6.751108170E-2,-2.157158963E-2
3.728856849E1,1.597895520E-3,-7.283740491E-2,-1.944106072E-2
3.730883859E1,3.728422802E-3,-6.964161247E-2,-1.411474310E-2
3.732910870E1,6.924213842E-3,-6.857634336E-2,-5.592633970E-3
3.734937880E1,9.054740891E-3,-6.751108170E-2,7.989477599E-4
3.736964891E1,1.438105945E-2,-5.472791940E-2,8.255792782E-3
3.738991901E1,2.290316857E-2,-4.301001877E-2,1.038632076E-2
3.741018911E1,2.396843210E-2,-3.555317223E-2,1.251684781E-2
3.743045922E1,1.757685095E-2,-2.596580051E-2,1.038632076E-2
3.745072932E1,1.118526794E-2,-1.424790081E-2,7.989477599E-4
3.747099943E1,5.858949851E-3,-1.211737376E-2,-1.091895252E-2
3.749126953E1,2.663159044E-3,-3.022685647E-2,-1.837579720E-2
3.751153964E1,-1.597895520E-3,-5.259739235E-2,-1.731053367E-2
3.753180969E1,-5.326318205E-4,-6.431528926E-2,-9.853689000E-3
3.755207979E1,5.326318205E-4,-6.538055837E-2,-3.462106921E-3
3.757234990E1,5.326318205E-4,-5.898897350E-2,-2.396843163E-3
3.759262000E1,-1.597895520E-3,-4.407528415E-2,-3.462106921E-3
3.761302000E1,-2.663159044E-3,-3.022685647E-2,2.929474926E-3
3.763316016E1,-5.326318205E-4,-2.277000993E-2,1.251684781E-2
3.765343026E1,5.858949851E-3,-1.318263728E-2,1.784316637E-2
3.767370036E1,1.225053146E-2,7.057371549E-3,1.997369342E-2
3.769397047E1,1.651158556E-2,3.049317189E-2,2.103895694E-2
3.771424052E1,1.544632297E-2,4.527370632E-2,2.210422046E-2
3.773451062E1,1.438105945E-2,5.379581451E-2,2.423474751E-2
3.775478073E1,7.989477366E-3,6.125266105E-2,2.423474751E-2
3.777505078E1,5.326318205E-4,6.231792271E-2,1.251684781E-2
3.779532088E1,-9.054740891E-3,4.740423337E-2,-3.462106921E-3
3.781559099E1,-1.757685095E-2,3.049317189E-2,-1.731053367E-2
3.783599099E1,-2.716422267E-2,1.557948068E-2,-2.476738021E-2
3.785613109E1,-3.036001325E-2,-2.530001104E-3,-2.689790726E-2
3.787640125E1,-2.290316857E-2,-1.211737376E-2,-2.370211668E-2
3.789667130E1,-7.989477366E-3,-8.921583183E-3,-1.304947957E-2
3.791694141E1,5.326318205E-4,-2.530001104E-3,-5.592633970E-3
3.793721141E1,-2.663159044E-3,2.796316985E-3,-4.527370445E-3
3.795748156E1,-7.989477366E-3,4.926844500E-3,-4.527370445E-3
3.797775167E1,-1.225053146E-2,9.187898599E-3,-4.527370445E-3
3.799802172E1,-1.225053146E-2,1.131842658E-2,-7.723161485E-3
3.801829177E1,-1.012000442E-2,1.557948068E-2,-1.091895252E-2
3.803856187E1,-2.663159044E-3,1.557948068E-2,-1.518000662E-2
3.805896187E1,5.326318205E-4,1.451421715E-2,-2.157158963E-2
3.807910203E1,-6.924213842E-3,1.877527125E-2,-2.583264373E-2
3.809937208E1,-1.651158556E-2,2.197106183E-2,-3.009369783E-2
3.811964219E1,-1.651158556E-2,1.344895363E-2,-2.796317078E-2
3.813991224E1,-4.793686327E-3,4.926844500E-3,-1.624527015E-2
3.816031224E1,1.118526794E-2,4.926844500E-3,3.994738683E-3
3.818045240E1,1.651158556E-2,1.131842658E-2,1.677790284E-2
3.820072245E1,9.054740891E-3,1.344895363E-2,1.677790284E-2
3.822099255E1,-2.663159044E-3,4.926844500E-3,6.125265732E-3
3.824126260E1,-1.012000442E-2,-1.105211023E-2,-7.723161485E-3
3.826166260E1,-1.544632297E-2,-1.957421936E-2,-1.304947957E-2
3.828180276E1,-1.544632297E-2,-1.957421936E-2,-1.091895252E-2
3.830207281E1,-1.118526794E-2,-1.211737376E-2,-8.788425475E-3
3.832234297E1,-4.793686327E-3,-1.464737463E-3,-9.853689000E-3
3.834261292E1,-1.597895520E-3,6.657897611E-4,-7.723161485E-3
3.836301292E1,5.326318205E-4,-2.530001104E-3,-2.663159103E-4
3.838315307E1,3.728422802E-3,6.657897611E-4,6.125265732E-3
3.840342312E1,9.054740891E-3,7.057371549E-3,8.255792782E-3
3.842369318E1,1.118526794E-2,8.122635074E-3,6.125265732E-3
3.844396323E1,1.118526794E-2,1.131842658E-2,8.255792782E-3
3.846423333E1,1.012000442E-2,1.664474420E-2,1.358211134E-2
3.848450339E1,6.924213842E-3,1.877527125E-2,1.677790284E-2
3.850477344E1,4.793686327E-3,1.451421715E-2,1.464737486E-2
3.852504349E1,1.597895520E-3,1.131842658E-2,1.145158429E-2
3.854531354E1,5.326318205E-4,1.238369010E-2,1.038632076E-2
3.856558359E1,2.663159044E-3,1.131842658E-2,1.358211134E-2
3.858585364E1,5.858949851E-3,1.344895363E-2,1.571263932E-2
3.860612370E1,7.989477366E-3,1.984053478E-2,1.251684781E-2
3.862639375E1,5.858949851E-3,2.090579830E-2,9.321057238E-3
3.864666380E1,1.597895520E-3,1.771000773E-2,7.190529723E-3
3.866693385E1,1.597895520E-3,7.057371549E-3,7.190529723E-3
3.868720391E1,5.858949851E-3,-2.530001104E-3,9.321057238E-3
3.870747396E1,6.924213842E-3,-4.660528619E-3,1.038632076E-2
3.872774401E1,6.924213842E-3,-3.595264861E-3,1.145158429E-2
3.874801411E1,5.858949851E-3,-4.660528619E-3,1.358211134E-2
3.876828411E1,9.054740891E-3,-3.595264861E-3,1.677790284E-2
3.878855422E1,1.118526794E-2,5.992108025E-3,2.103895694E-2
3.880882427E1,1.225053146E-2,1.238369010E-2,2.956106514E-2
3.882909432E1,1.544632297E-2,1.557948068E-2,3.595264629E-2
3.884936432E1,1.970737800E-2,2.197106183E-2,4.021370411E-2
3.886963437E1,1.970737800E-2,3.155843541E-2,3.914843872E-2
3.888990443E1,1.651158556E-2,3.475422785E-2,3.275685757E-2
3.891017448E1,1.118526794E-2,2.410159074E-2,2.210422046E-2
3.893044453E1,9.054740891E-3,7.057371549E-3,1.358211134E-2
3.895071458E1,6.924213842E-3,-4.660528619E-3,7.190529723E-3
3.897098458E1,4.793686327E-3,-6.791055668E-3,2.929474926E-3
3.899125464E1,-5.326318205E-4,-1.464737463E-3,7.989477599E-4
3.901152469E1,-4.793686327E-3,7.057371549E-3,7.989477599E-4
3.903179474E1,-5.858949851E-3,9.187898599E-3,3.994738683E-3
3.905206479E1,-1.597895520E-3,4.926844500E-3,8.255792782E-3
3.907233479E1,5.858949851E-3,6.657897611E-4,1.038632076E-2
3.909260479E1,1.118526794E-2,6.657897611E-4,1.464737486E-2
3.911287490E1,1.118526794E-2,5.992108025E-3,1.571263932E-2
3.913314495E1,4.793686327E-3,9.187898599E-3,1.145158429E-2
3.915341495E1,-1.597895520E-3,4.926844500E-3,8.255792782E-3
3.917368500E1,-1.597895520E-3,-3.994738800E-4,7.190529723E-3
3.919395505E1,-5.326318205E-4,-1.464737463E-3,8.255792782E-3
3.921422510E1,5.326318205E-4,2.796316985E-3,7.190529723E-3
3.923449510E1,5.326318205E-4,8.122635074E-3,5.060002208E-3
3.925476516E1,-1.597895520E-3,1.131842658E-2,2.929474926E-3
3.927503521E1,-2.663159044E-3,1.025316212E-2,7.989477599E-4
3.929530521E1,-1.597895520E-3,7.057371549E-3,3.994738683E-3
3.931557526E1,-5.326318205E-4,4.926844500E-3,6.125265732E-3
3.933584526E1,-5.326318205E-4,2.796316985E-3,8.255792782E-3
3.935611531E1,-5.326318205E-4,6.657897611E-4,8.255792782E-3
3.937638536E1,1.597895520E-3,6.657897611E-4,7.190529723E-3
3.939665536E1,2.663159044E-3,7.057371549E-3,8.255792782E-3
3.941692542E1,3.728422802E-3,1.344895363E-2,9.321057238E-3
3.943719542E1,4.793686327E-3,5.992108025E-3,7.190529723E-3
3.945746547E1,4.793686327E-3,6.657897611E-4,7.190529723E-3
3.947773547E1,3.728422802E-3,-2.530001104E-3,8.255792782E-3
3.949800552E1,2.663159044E-3,-6.791055668E-3,1.038632076E-2
3.951827552E1,3.728422802E-3,-3.595264861E-3,9.321057238E-3
3.953854557E1,2.663159044E-3,-3.595264861E-3,7.190529723E-3
3.955894557E1,1.597895520E-3,-6.791055668E-3,3.994738683E-3
3.957908562E1,-5.326318205E-4,-1.105211023E-2,7.989477599E-4
3.959935562E1,-2.663159044E-3,-1.211737376E-2,-1.331579522E-3
3.961962568E1,-3.728422802E-3,-1.105211023E-2,-1.331579522E-3
3.963989568E1,-6.924213842E-3,-8.921583183E-3,-1.331579522E-3
3.966029568E1,-7.989477366E-3,-7.856319658E-3,-2.396843163E-3
3.968043573E1,-9.054740891E-3,-5.725792143E-3,-5.592633970E-3
3.970070578E1,-1.118526794E-2,-3.595264861E-3,-8.788425475E-3
3.972097578E1,-1.012000442E-2,-2.530001104E-3,-1.091895252E-2
3.974124578E1,-9.054740891E-3,-3.994738800E-4,-1.198421605E-2
3.976164578E1,-1.012000442E-2,1.731053460E-3,-1.198421605E-2
3.978178583E1,-9.054740891E-3,3.861580743E-3,-9.853689000E-3
3.980205588E1,-6.924213842E-3,2.796316985E-3,-6.657897960E-3
3.982232589E1,-4.793686327E-3,6.657897611E-4,-2.396843163E-3
3.984259588E1,-3.728422802E-3,6.657897611E-4,1.864211401E-3
3.986286589E1,-2.663159044E-3,-1.464737463E-3,5.060002208E-3
3.988313594E1,5.326318205E-4,-3.595264861E-3,5.060002208E-3
3.990340594E1,1.597895520E-3,-4.660528619E-3,2.929474926E-3
3.992367594E1,2.663159044E-3,-3.994738800E-4,2.929474926E-3
3.994394594E1,5.858949851E-3,6.657897611E-4,3.994738683E-3
3.996421599E1,6.924213842E-3,-1.464737463E-3,5.060002208E-3
3.998448599E1,5.858949851E-3,-2.530001104E-3,6.125265732E-3
4.000475599E1,1.597895520E-3,-3.595264861E-3,3.994738683E-3
4.002502594E1,-1.597895520E-3,-3.595264861E-3,-2.663159103E-4
4.004529599E1,-4.793686327E-3,-1.464737463E-3,-2.396843163E-3
4.006556599E1,-5.858949851E-3,6.657897611E-4,-4.527370445E-3
4.008583604E1,-1.597895520E-3,6.657897611E-4,-2.663159103E-4
4.010610599E1,2.663159044E-3,-4.660528619E-3,3.994738683E-3
4.012637604E1,7.989477366E-3,-7.856319658E-3,8.255792782E-3
4.014664604E1,7.989477366E-3,-1.464737463E-3,9.321057238E-3
4.016691604E1,3.728422802E-3,4.926844500E-3,6.125265732E-3
4.018718604E1,-5.326318205E-4,3.861580743E-3,-1.331579522E-3
4.020745604E1,-2.663159044E-3,6.657897611E-4,-5.592633970E-3
4.022772604E1,-3.728422802E-3,-3.994738800E-4,-3.462106921E-3
4.024799604E1,-2.663159044E-3,-2.530001104E-3,-2.396843163E-3
4.026826604E1,-5.326318205E-4,-2.530001104E-3,-2.663159103E-4
4.028853604E1,5.326318205E-4,-3.994738800E-4,7.989477599E-4
4.030880604E1,-5.326318205E-4,2.796316985E-3,-1.331579522E-3
4.032907604E1,-5.326318205E-4,2.796316985E-3,-1.331579522E-3
