"Time (s)","Acceleration x (m/s^2)","Acceleration y (m/s^2)","Acceleration z (m/s^2)"
3.343359400E-2,-1.244267747E-1,3.004188776E0,9.722636223E0
5.373177100E-2,-3.134597540E-1,2.827120066E0,9.370891571E0
7.384442800E-2,-4.666004181E-1,3.083152056E0,7.960322857E0
9.411416700E-2,-5.670989752E-1,3.354139090E0,7.409973621E0
1.143839070E-1,-5.407779217E-1,3.406781197E0,7.831110477E0
1.347839070E-1,-5.407779217E-1,3.466601849E0,7.996214867E0
1.549237510E-1,-3.206382394E-1,3.533600807E0,8.051250458E0
1.751934900E-1,3.110669367E-2,2.982653379E0,8.559126854E0
1.954633860E-1,-2.751746178E-1,3.011367321E0,8.843872070E0
2.157332300E-1,-3.780659735E-1,3.296711445E0,9.004191399E0
2.360031260E-1,-1.531406492E-1,3.124428272E0,9.200403214E0
2.562730210E-1,-4.283152521E-1,2.872583628E0,8.824729919E0
2.765429170E-1,-4.953143001E-1,2.831905603E0,8.386843681E0
2.968128130E-1,-3.206382394E-1,2.767299414E0,8.403593063E0
3.170827610E-1,3.427718580E-1,2.886940479E0,8.654839516E0
3.373527090E-1,8.117650747E-1,2.836691141E0,8.487341881E0
3.576226050E-1,6.729813814E-1,2.554338217E0,8.520841599E0
3.778925010E-1,5.629115105E-1,2.532802820E0,9.044869423E0
3.981624480E-1,5.270192027E-1,2.578266382E0,9.404391289E0
4.184323960E-1,7.950153351E-1,2.745764017E0,9.624530792E0
4.387023440E-1,9.194421172E-1,1.864607096E0,8.891729355E0
4.589722920E-1,6.777670383E-1,1.780858278E0,9.595816612E0
4.792421360E-1,1.520638824E0,2.458625317E0,1.048415279E1
4.995120840E-1,2.430509567E0,2.039283037E0,1.081914711E1
5.197820320E-1,2.361117840E0,1.706680775E0,1.009352398E1
5.400519800E-1,1.886740685E0,1.649253011E0,9.416355133E0
5.603218760E-1,2.121237278E0,1.795215130E0,9.183652878E0
5.805918230E-1,3.093321562E0,1.689931035E0,1.017966557E1
6.008617710E-1,3.366103172E0,1.314257860E0,1.019641590E1
6.211317190E-1,3.323032379E0,1.378864050E0,1.026341438E1
6.414016670E-1,3.632304668E0,8.757730722E-1,9.981060982E0
6.616715630E-1,3.457628727E0,7.896314859E-1,1.004566765E1
6.819415110E-1,2.973680258E0,1.197009563E0,1.014616585E1
7.022114590E-1,3.055036306E0,1.211366415E0,1.048893833E1
7.224814070E-1,3.296711445E0,8.685946465E-1,9.935597420E0
7.427513550E-1,3.897907972E0,1.345364571E0,9.054440498E0
7.630213030E-1,4.192225456E0,1.484148264E0,8.934800148E0
7.832912510E-1,3.816552162E0,1.596610904E0,9.543174744E0
8.035611460E-1,3.926621914E0,1.398006678E0,9.863813400E0
8.238310940E-1,3.306282759E0,1.223330617E0,9.717850685E0
8.441010420E-1,3.244069338E0,1.352542996E0,1.024905777E1
8.643709900E-1,3.579662561E0,1.560718536E0,1.004088211E1
8.846409380E-1,3.850051641E0,2.195414782E0,9.404391289E0
9.049108860E-1,4.041477680E0,2.626122952E0,8.740981102E0
9.251808340E-1,3.641875982E0,3.025724173E0,8.513663292E0
9.454507820E-1,3.210569859E0,3.330210924E0,8.786444664E0
9.657207300E-1,3.055036306E0,3.085544825E0,8.846264839E0
9.859906780E-1,3.229712248E0,2.542374134E0,8.618947029E0
1.006260626E0,3.055036306E0,2.293520451E0,8.908478737E0
1.026530573E0,2.693720102E0,2.537588358E0,9.260223389E0
1.046800521E0,3.023929596E0,2.937189817E0,8.762516975E0
1.067070469E0,3.294318676E0,2.673979282E0,8.346165657E0
1.087340417E0,3.102892876E0,2.528017044E0,8.671588898E0
1.107610365E0,3.759124279E0,2.092523336E0,9.641280174E0
1.127880313E0,2.959323406E0,1.230509043E0,9.969097137E0
1.148150261E0,1.903490424E0,1.314257860E0,9.598209381E0
1.168420209E0,1.668993831E0,1.362114310E0,9.006584167E0
1.188690209E0,2.166700840E0,1.340578914E0,8.566305161E0
1.208960157E0,2.753540754E0,1.893320918E0,8.372486115E0
1.229360157E0,2.806182861E0,2.063211441E0,8.190033913E0
1.249500053E0,2.698505640E0,1.917249203E0,8.072785378E0
1.269770001E0,3.289532900E0,1.663609982E0,8.367700577E0
1.290040001E0,3.426522017E0,1.656431437E0,8.695517540E0
1.310309948E0,2.147558212E0,1.438684583E0,8.568697929E0
1.330709948E0,2.293520451E0,9.978070259E-1,9.445069313E0
1.350849844E0,2.787040234E0,3.062812984E-1,1.023230743E1
1.371119792E0,2.516651154E0,9.355936646E-1,1.111825085E1
1.391389792E0,1.860419631E0,1.063011408E0,1.280399418E1
1.411659740E0,1.791027784E0,2.727817893E-1,1.280160141E1
1.432059740E0,2.049452543E0,-7.776673418E-3,1.186301613E1
1.452199688E0,2.545365095E0,2.392822644E-3,1.125464153E1
1.472469636E0,1.678565025E0,1.316052526E-1,1.117089272E1
1.492739636E0,1.268195957E-1,-4.127619043E-2,1.153041458E1
1.513009584E0,-4.450650215E-1,-1.465603858E-1,1.090768242E1
1.533409584E0,1.483550072E-1,-8.195417374E-2,9.686744690E0
1.553549532E0,1.244267747E-1,9.427721500E-1,9.677172661E0
1.573819480E0,2.853440940E-1,6.891329288E-1,9.343972206E0
1.594089428E0,6.753742099E-1,-6.538388133E-1,8.201997757E0
1.614359428E0,5.024927482E-2,-1.256231871E-2,7.352545738E0
1.634629376E0,-1.005583763E0,1.290329576E0,7.112665176E0
1.654899323E0,-1.292722464E0,1.776072621E0,5.999404430E0
1.675169323E0,-7.369893789E-1,7.920243144E-1,4.967499733E0
1.695439271E0,-1.118046403E0,-2.925225794E-1,4.441078663E0
1.715709271E0,-2.398804665E0,5.479564071E-1,4.429114819E0
1.735979219E0,-3.526422262E0,1.890928149E0,4.103092670E0
1.756249219E0,-4.754538536E0,1.804786444E0,3.677170277E0
1.776519167E0,-6.078966141E0,1.960319996E0,3.629313707E0
1.796789167E0,-6.521637917E0,2.633301258E0,2.951546669E0
1.817059115E0,-8.271987915E0,2.415554523E0,2.041675806E0
1.837329115E0,-1.066600704E1,2.484946251E0,1.436291814E0
1.857599063E0,-1.224407387E1,2.879761934E0,1.589432478E0
1.877869063E0,-1.186301613E1,3.244069338E0,2.015354872E0
1.898139011E0,-1.128634644E1,3.366103172E0,2.240878344E0
1.918408959E0,-1.150887871E1,3.239283562E0,1.811964989E0
1.938678959E0,-1.231825066E1,3.282354355E0,1.424327731E0
1.958948959E0,-1.218126202E1,3.028116941E0,1.441077471E0
1.979218907E0,-1.155434227E1,3.040081263E0,1.838286042E0
1.999488907E0,-1.092921734E1,3.215355396E0,2.024926186E0
2.019758855E0,-1.080957603E1,3.122035265E0,1.694716692E0
2.040028855E0,-1.074257755E1,2.606980324E0,1.376471281E0
2.060298803E0,-1.050568771E1,2.147558212E0,8.757730722E-1
2.080568803E0,-1.059900761E1,1.905285001E0,5.910272002E-1
2.100838803E0,-1.043868923E1,2.106880426E0,4.666004181E-1
2.121108751E0,-1.015633583E1,2.000998020E0,8.374879509E-2
2.141378751E0,-1.000738239E1,1.474576950E0,-3.284149170E-1
2.161648698E0,-1.002413273E1,1.043868899E0,-6.538388133E-1
2.181918698E0,-1.014915752E1,4.522434771E-1,-7.232306600E-1
2.202188698E0,-9.921240807E0,2.321037948E-1,-6.873382926E-1
2.222458646E0,-9.449854851E0,7.896314561E-2,-6.801598072E-1
2.242728646E0,-9.571888924E0,1.100698411E-1,-1.024726272E0
2.262998646E0,-1.030229759E1,-8.434699476E-2,-1.336391449E0
2.283268594E0,-1.053440189E1,-3.475574851E-1,-1.400997639E0
2.303538594E0,-1.020419216E1,-6.490531564E-1,-1.221535921E0
2.323808594E0,-9.614959717E0,-9.768698215E-1,-1.089930773E0
2.344078542E0,-8.894122124E0,-1.003190875E0,-1.247856975E0
2.364348542E0,-8.511270523E0,-7.328019142E-1,-1.692921996E0
2.384618490E0,-8.872586250E0,-6.370890141E-1,-2.231905222E0
2.404888490E0,-9.521639824E0,-5.772684813E-1,-2.554936409E0
2.425158490E0,-9.808777809E0,-6.203392744E-1,-2.497508526E0
2.445428490E0,-9.684351921E0,-4.648058116E-1,-2.277369022E0
2.465698438E0,-9.629316330E0,-8.434699476E-2,-2.085345030E0
2.485968438E0,-9.988240242E0,2.033899277E-1,-1.862812400E0
2.506238438E0,-1.037168980E1,1.698904037E-1,-1.575673699E0
2.526508126E0,-1.076411247E1,3.828516230E-2,-1.154536963E0
2.546778386E0,-1.084786129E1,-1.369891018E-1,-8.213363886E-1
2.567048386E0,-1.067557812E1,-4.001995921E-1,-4.719842672E-1
2.587318386E0,-1.051765156E1,-5.389832854E-1,-2.063809484E-1
2.607588334E0,-1.042193890E1,-7.184450030E-1,-1.010967568E-1
2.627858386E0,-1.047697353E1,-1.125823021E0,-1.561316848E-1
2.648128334E0,-1.075932693E1,-1.673779488E0,-4.193421602E-1
2.668398334E0,-1.102253723E1,-2.119442701E0,-8.213363886E-1
2.688668334E0,-1.104168034E1,-2.464009047E0,-1.200000525E0
2.708938334E0,-1.087178993E1,-2.803789854E0,-1.530210137E0
2.729208334E0,-1.058465099E1,-3.050250769E0,-1.666600943E0
2.749478334E0,-1.019222832E1,-3.376272678E0,-1.472782373E0
2.769748334E0,-9.756135941E0,-3.627519131E0,-1.269392371E0
2.790018334E0,-9.291928291E0,-3.541377544E0,-1.393819213E0
2.810288334E0,-9.042476654E0,-3.242274761E0,-1.805384636E0
2.830688334E0,-9.201001167E0,-3.021536827E0,-2.100300074E0
2.850828334E0,-9.461818695E0,-2.820539713E0,-2.289333105E0
2.871098334E0,-9.418747902E0,-2.583650351E0,-2.423331022E0
2.891368334E0,-8.884550095E0,-2.164906263E0,-2.605185747E0
2.911638334E0,-8.281558990E0,-1.680957913E0,-2.660220623E0
2.932038334E0,-8.092526436E0,-1.386640668E0,-2.724826813E0
2.952178386E0,-8.595019341E0,-1.266999602E0,-2.854039192E0
2.972448386E0,-9.538389206E0,-1.243071318E0,-3.045464993E0
2.992718438E0,-1.041715336E1,-1.204786181E0,-3.107678413E0
3.013118438E0,-1.077607632E1,-1.087537885E0,-3.062214851E0
3.033416355E0,-1.080479050E1,-8.715856671E-1,-2.849253654E0
3.053529063E0,-1.065165043E1,-6.969096065E-1,-2.483151674E0
3.073799011E0,-1.055832958E1,-6.873382926E-1,-2.133799553E0
3.094068959E0,-1.059422207E1,-8.883354068E-1,-1.786242127E0
3.114338855E0,-1.063729286E1,-1.192822099E0,-1.534995675E0
3.134738855E0,-1.070189953E1,-1.384247899E0,-1.281356573E0
3.154878907E0,-1.072821999E1,-1.403390527E0,-1.106680512E0
3.175148803E0,-1.045783138E1,-1.417747378E0,-9.409775138E-1
3.195418855E0,-9.930811882E0,-1.525424480E0,-7.950153351E-1
3.215688855E0,-9.442676544E0,-1.692921996E0,-8.261220455E-1
3.235958855E0,-8.965906143E0,-1.704886079E0,-9.912267923E-1
3.256228907E0,-8.652446747E0,-1.601994753E0,-1.228714466E0
3.276499011E0,-8.484949112E0,-1.396211982E0,-1.432104349E0
3.296768959E0,-8.475378036E0,-1.228714466E0,-1.731207132E0
3.317039063E0,-8.618947029E0,-1.042074203E0,-2.150549412E0
3.337309115E0,-8.932407379E0,-8.596215248E-1,-2.789433002E0
3.357579167E0,-9.703494072E0,-6.323033571E-1,-3.677768469E0
3.377849219E0,-1.078804111E1,-4.336991012E-1,-4.410570145E0
3.398119219E0,-1.152084255E1,-4.025924206E-1,-4.611567497E0
3.418389271E0,-1.165484047E1,-2.398804724E-1,-4.353142738E0
3.438659376E0,-1.110150051E1,3.828516230E-2,-3.883551121E0
3.458929428E0,-1.027836990E1,-5.324030295E-2,-3.428914785E0
3.479199480E0,-9.555138588E0,-2.303091735E-1,-3.129213810E0
3.499469584E0,-9.583852768E0,-2.398804724E-1,-2.705684185E0
3.519739636E0,-1.003370380E1,-2.231307179E-1,-2.200798512E0
3.540009688E0,-1.055354404E1,-3.044866920E-1,-1.743171334E0
3.560279792E0,-1.064447117E1,-2.374876440E-1,-1.477568030E0
3.580549844E0,-1.044347477E1,-2.853440940E-1,-1.269392371E0
3.600819948E0,-9.832706451E0,-3.882354796E-1,-1.384247899E0
3.621090001E0,-8.985049248E0,-6.251249313E-1,-1.530210137E0
3.641360105E0,-8.003393173E0,-8.069794178E-1,-1.771885157E0
3.661630209E0,-7.216155052E0,-9.888339639E-1,-2.224726915E0
3.681900261E0,-7.012166977E0,-1.066002488E0,-2.588435888E0
3.702170365E0,-7.287939548E0,-8.572286963E-1,-2.971287489E0
3.722440469E0,-7.663612843E0,-4.313062727E-1,-3.495913982E0
3.742710573E0,-8.264809608E0,1.794617027E-1,-3.976871252E0
3.762980626E0,-8.963513374E0,6.484549642E-1,-3.952943087E0
3.783250730E0,-9.677172661E0,1.302293777E0,-3.646661758E0
3.803520834E0,-1.030947590E1,2.080559254E0,-3.098107100E0
3.823790938E0,-1.098425198E1,3.318246841E0,-2.973082066E-1
3.844060938E0,-1.009591675E1,3.801596880E0,-3.649054468E-2
3.864331094E0,-9.212965012E0,3.260818958E0,-1.977667928E0
3.884601198E0,-8.800801277E0,2.863012314E0,-1.633101463E0
3.904871303E0,-7.962715626E0,2.819941521E0,-1.685743570E0
3.925102084E0,-7.744968891E0,2.274377823E0,-2.531008244E0
3.945411459E0,-8.286344528E0,1.788036704E0,-3.026322365E0
3.965681563E0,-9.299106598E0,1.730608940E0,-3.122035265E0
3.985951667E0,-9.215357780E0,2.305484533E0,-2.523829699E0
4.006221771E0,-9.071190834E0,2.444268227E0,-2.447259426E0
4.026491876E0,-8.415556908E0,1.907677889E0,-2.133799553E0
4.046762032E0,-9.097511292E0,1.431506157E0,-2.291725874E0
4.067032136E0,-1.087178993E1,1.366899967E0,-2.373081923E0
4.087302240E0,-1.120977592E1,1.132403374E0,-1.503889084E0
4.107572344E0,-1.121216869E1,5.168496966E-1,-1.010369420E0
4.127842448E0,-1.070189953E1,2.775674164E-1,-6.873382926E-1
4.148112605E0,-9.586245537E0,2.608176768E-1,-1.680957973E-1
4.168382709E0,-8.671588898E0,5.694918036E-1,4.043870270E-1
4.188652813E0,-7.677969456E0,1.254437327E0,8.901300430E-1
4.208922917E0,-1.029033375E1,5.838487148E-1,-1.561316848E-1
4.229193021E0,-1.392682552E1,3.038884699E-1,-6.442674994E-1
4.249463126E0,-1.352243900E1,-2.829512656E-1,2.871387079E-2
4.269733230E0,-9.533603668E0,-1.089930773E0,7.657032609E-1
4.290003386E0,-8.635697365E0,-9.577272534E-1,1.074975610E0
4.310273490E0,-9.198608398E0,-4.767699242E-1,1.115653515E0
4.330673490E0,-9.320642471E0,1.507478207E-1,1.268794179E0
4.350813698E0,-9.258428574E0,2.249253243E-1,1.213759303E0
4.371083803E0,-9.366106033E0,1.052841991E-1,9.284151793E-1
4.391353959E0,-9.622138023E0,-2.452643216E-2,6.891329288E-1
4.411624063E0,-1.021854877E1,-1.256231871E-2,3.613162339E-1
4.432024063E0,-1.071625614E1,-1.489532143E-1,5.886343718E-1
4.452164323E0,-1.003609657E1,-2.398804724E-1,1.000199914E0
4.472434428E0,-1.005284595E1,-3.738785386E-1,1.130010486E0
4.492704584E0,-9.234500885E0,-6.945167780E-1,1.211366415E0
4.512974688E0,-9.208179474E0,-9.266205430E-1,1.149153113E0
4.533374688E0,-1.033101177E1,-1.341177106E0,9.858429432E-1
4.553514948E0,-1.214536953E1,-2.059023857E0,7.992027402E-1
4.573785105E0,-1.147777176E1,-1.910668850E0,1.106082320E0
4.594055209E0,-1.018505001E1,-7.806583643E-1,1.680359721E0
4.614325313E0,-9.725028992E0,-9.194421172E-1,8.973084688E-1
4.634595417E0,-7.642077446E0,-2.631506681E0,4.689932466E-1
4.654865573E0,-6.370890141E0,-4.110869408E0,6.699903309E-2
4.675135730E0,-6.923632145E0,-5.916254044E0,-1.633101404E-1
4.695405834E0,-6.500102520E0,-5.636293888E0,1.448255897E0
4.715675990E0,-7.132406235E0,-4.735994339E0,2.841476917E0
4.735946094E0,-7.273582458E0,-4.166502476E0,2.394019127E0
4.756216251E0,-7.666005611E0,-5.631507874E0,1.206580877E0
4.776486355E0,-8.590232849E0,-6.381059647E0,-3.834498227E-1
4.796756511E0,-9.035298347E0,-6.033502102E0,-3.954139352E-1
4.817026615E0,-8.504091263E0,-5.294120312E0,4.953143001E-1
4.837296771E0,-7.491329670E0,-5.025525570E0,1.465005636E0
4.857566823E0,-7.776075363E0,-5.178666592E0,2.477767944E0
4.877837032E0,-8.350951195E0,-7.218547821E0,1.826321840E0
4.898107136E0,-8.798408508E0,-8.531010628E0,9.260223508E-1
4.918377292E0,-7.460222721E0,-7.372286797E0,5.120640397E-1
4.938647396E0,-7.409973621E0,-7.281359196E0,1.630110383E0
4.958917553E0,-5.377270699E0,-7.637889862E0,2.317448616E0
4.979187657E0,-4.441078663E0,-6.527021885E0,1.776072621E0
4.999457813E0,-6.256034851E0,-5.813362598E0,1.436291814E0
5.019727969E0,-6.229713917E0,-5.420939922E0,-6.999006122E-2
5.039998073E0,-5.336592674E0,-5.294120312E0,-7.686942816E-1
5.060268230E0,-5.032704353E0,-5.746363640E0,-8.524430394E-1
5.080538334E0,-4.682754040E0,-5.595615864E0,-9.074779749E-1
5.100808490E0,-3.984049797E0,-4.733601570E0,-7.495517135E-1
5.121078594E0,-4.994419098E0,-5.667400360E0,1.711466432E0
5.141348751E0,-2.831905603E0,-4.274179459E0,-8.979067206E-1
5.161618855E0,-2.286342144E0,-4.125226021E0,-1.539781332E0
5.181889011E0,-5.721837044E0,-1.031665516E1,-8.572286963E-1
5.202159115E0,-9.370891571E0,-2.118425751E1,-1.903490424E0
5.222429271E0,-9.018548965E0,-2.434696960E1,-1.207179070E0
5.242699376E0,-3.892524242E0,-1.489950848E1,2.860619545E0
5.262969532E0,-1.398006678E0,-7.884350777E0,2.731407166E0
5.283239688E0,-8.117650747E-1,-5.679364681E0,9.092725813E-2
5.303509792E0,-1.053440213E0,-7.206583500E0,-2.447259426E0
5.323779948E0,-1.359721422E0,-9.969695091E0,-3.888336897E0
5.344050053E0,-2.061416626E0,-1.093220806E1,-3.519842148E0
5.364320209E0,-2.511267424E0,-9.897911072E0,-1.724028707E0
5.384590313E0,-2.839084148E0,-9.320642471E0,-2.015953064E-1
5.404860469E0,-2.700300455E0,-9.548559189E0,2.392822644E-3
5.425130573E0,-2.590230465E0,-9.744770050E0,-8.913264424E-2
5.445400730E0,-2.724228621E0,-9.859625816E0,-1.513460279E-1
5.465670834E0,-2.556730986E0,-9.881160736E0,-3.379862010E-1
5.485940990E0,-2.379662037E0,-9.881160736E0,-7.782655358E-1
5.506211094E0,-2.324627161E0,-9.433703423E0,-1.513460279E0
5.526481251E0,-2.420340061E0,-9.136395454E0,-2.117049932E0
5.546751355E0,-2.365305185E0,-9.141180992E0,-2.253440619E0
5.567021511E0,-2.183450699E0,-9.330213547E0,-2.044667006E0
5.587291615E0,-2.123630047E0,-9.634700775E0,-1.582852125E0
5.607561719E0,-1.836491346E0,-9.766305923E0,-8.644071817E-1
5.627831823E0,-1.759322882E0,-9.833304405E0,4.785645381E-2
5.648101980E0,-1.773679733E0,-9.847661972E0,5.647061467E-1
5.668372084E0,-1.811964989E0,-9.661021233E0,7.704889178E-1
5.688642240E0,-2.123630047E0,-9.279964447E0,7.441678643E-1
5.708912292E0,-2.752942562E0,-9.052646637E0,5.647061467E-1
5.729312292E0,-3.457030535E0,-8.976076126E0,4.067798555E-1
5.749452605E0,-3.713062525E0,-8.892327309E0,5.694918036E-1
5.769722709E0,-3.677170277E0,-8.901898384E0,9.236295223E-1
5.789992813E0,-3.581457376E0,-9.067003250E0,1.450648785E0
5.810262969E0,-3.681955814E0,-9.320642471E0,2.154736757E0
5.830662969E0,-3.748954773E0,-9.711270332E0,3.042474031E0
5.850803178E0,-3.490530014E0,-1.014197922E1,3.569493294E0
5.871073282E0,-3.291925669E0,-1.122652531E1,3.512065411E0
5.891343438E0,-2.370090723E0,-1.194497108E1,3.023331404E0
5.911613542E0,-2.099701881E0,-1.167697430E1,2.683550596E0
5.932013542E0,-2.640479803E0,-1.000558758E1,1.938784599E0
5.952153751E0,-3.617349625E0,-8.808578491E0,6.843472719E-1
5.972423907E0,-3.924229145E0,-8.032705307E0,-6.945167780E-1
5.992694011E0,-3.210569859E0,-7.702496052E0,-2.179263115E0
6.012964115E0,-2.453839540E0,-7.929814339E0,-2.461616278E0
6.033364115E0,-1.948953986E0,-8.423334122E0,-1.508674622E0
6.053504323E0,-2.202593327E0,-9.172286987E0,6.771687865E-1
6.073774480E0,-1.340578914E0,-1.035972595E1,4.024129391E0
6.094044584E0,1.148554832E-1,-1.080299568E1,4.117449760E0
6.114314688E0,3.110669367E-2,-1.026401234E1,2.190629244E0
6.134714688E0,-5.647061467E-1,-9.682557106E0,1.319043517E0
6.154854896E0,-1.716252089E0,-9.601201057E0,7.274180651E-1
6.175125001E0,-3.009572744E0,-9.390632629E0,4.546363056E-1
6.195395157E0,-3.562314749E0,-9.409774780E0,9.044869542E-1
6.215665261E0,-3.629313707E0,-9.833304405E0,1.733001828E0
6.235935365E0,-3.181855917E0,-9.912267685E0,2.080559254E0
6.256205469E0,-2.870789051E0,-9.706484795E0,2.365305185E0
6.276475573E0,-2.719442844E0,-9.632308006E0,2.829512835E0
6.296745678E0,-2.551945448E0,-9.558130264E0,3.059223652E0
6.317015782E0,-2.279163599E0,-9.217751503E0,2.963510752E0
6.337285886E0,-2.044667006E0,-8.669795036E0,2.709871531E0
6.357555990E0,-1.826920033E0,-8.212167740E0,2.556730986E0
6.377826094E0,-1.713859200E0,-7.707281590E0,2.566302299E0
6.398096198E0,-1.704287887E0,-6.998407841E0,2.654836655E0
6.418366251E0,-1.754537225E0,-6.438487530E0,2.702693224E0
6.438636407E0,-2.233700037E0,-6.114858150E0,2.752942562E0
6.458906511E0,-2.997608662E0,-6.220142365E0,3.126821041E0
6.479176615E0,-4.139583111E0,-6.840481758E0,3.437887907E0
6.499446719E0,-5.472983360E0,-7.537391186E0,3.698705673E0
6.519716823E0,-6.746563435E0,-8.066205025E0,3.763311863E0
6.539986928E0,-8.161917686E0,-8.985647202E0,3.092723370E0
6.560257032E0,-9.832706451E0,-1.243549919E1,8.135597110E-1
6.580527136E0,-8.334200859E0,-1.728156281E1,1.435693651E-1
6.600797188E0,-4.295116425E0,-1.397767353E1,1.058225870E0
6.621067292E0,-5.551348329E-1,-7.525427341E0,2.087737799E0
6.641337396E0,2.142772675E0,-5.676971912E0,1.871785522E0
6.661607501E0,2.566900492E0,-6.326025009E0,-1.298106313E-1
6.681877605E0,1.362712502E0,-7.592426300E0,-1.441675663E0
6.702147709E0,9.074779749E-1,-9.883553505E0,-2.655434847E0
6.722417761E0,-2.009970993E-1,-1.205743313E1,-2.667398930E0
6.742687865E0,-2.298306227E0,-1.230150127E1,-1.951346874E0
6.762957969E0,-4.220939159E0,-1.103031445E1,2.440679073E-1
6.783228073E0,-5.212165833E0,-9.045467377E0,2.405983210E0
6.803498126E0,-4.223331928E0,-8.178668022E0,2.556730986E0
6.823768230E0,-1.925025821E0,-8.416155815E0,1.216152072E0
6.844038334E0,-7.704889178E-1,-9.081359863E0,-1.322034448E-1
6.864308438E0,-8.500502706E-1,-9.078967094E0,-1.348355532E0
6.884578490E0,-9.744769931E-1,-8.806185722E0,-2.136192322E0
6.904848594E0,-1.299900889E0,-8.801400185E0,-2.471187592E0
6.925118698E0,-1.752144337E0,-9.062217712E0,-2.027917147E0
6.945388751E0,-2.149951220E0,-9.567701340E0,-5.102694035E-1
6.965658855E0,-2.384447813E0,-9.806983948E0,1.067797065E0
6.985928959E0,-2.087737799E0,-9.541379929E0,1.488933921E0
7.006199011E0,-1.668395638E0,-9.208179474E0,6.867401004E-1
7.026469115E0,-1.517647743E0,-9.279964447E0,-7.136593461E-1
7.046739167E0,-1.675574064E0,-9.783055305E0,-1.783849239E0
7.067009271E0,-1.658824325E0,-9.682557106E0,-1.546959877E0
7.087279323E0,-1.721037745E0,-9.689735413E0,-1.704886109E-1
7.107549376E0,-2.590230465E0,-1.029751205E1,4.546363056E-1
7.127819480E0,-3.777668715E0,-1.045603657E1,1.531406492E-1
7.148089584E0,-4.895715237E0,-1.128873920E1,1.172483116E-1
7.168359636E0,-5.690730572E0,-1.284048462E1,3.134597540E-1
7.188629688E0,-4.620540619E0,-1.324726391E1,7.657032460E-2
7.208899792E0,-3.064607620E0,-1.255095291E1,2.775674164E-1
7.229169844E0,-2.382055044E0,-1.144965649E1,1.692323804E0
7.249439948E0,-1.939382792E0,-9.775876999E0,2.767299414E0
7.269710001E0,-9.960124493E-1,-9.102895737E0,2.896511793E0
7.289980105E0,1.483550072E-1,-9.830911636E0,1.656431437E0
7.310250157E0,5.150550604E-1,-1.096331501E1,-5.748756528E-1
7.330650157E0,4.959124923E-1,-1.136052418E1,-2.001596212E0
7.350790313E0,-5.670989752E-1,-1.214836025E1,-1.585245013E0
7.371060365E0,-2.831905603E0,-1.160279655E1,-1.369891018E-1
7.391330417E0,-4.474578381E0,-9.850054741E0,1.098903775E0
7.411600469E0,-4.958526611E0,-8.803792953E0,1.718644857E0
7.432000469E0,-4.938786030E0,-8.507082939E0,2.169093609E0
7.452140573E0,-4.601397991E0,-8.495118141E0,2.128415823E0
7.472410730E0,-2.575873613E0,-8.554939270E0,1.740180254E0
7.492680782E0,-1.094118118E0,-8.545368195E0,4.761717021E-1
7.512950834E0,-6.221338734E-2,-7.824530125E0,1.028913707E-1
7.533350834E0,4.289134443E-1,-6.862017155E0,-3.649054468E-2
7.553490938E0,3.906283081E-1,-5.918646812E0,2.344966233E-1
7.573760990E0,4.289134443E-1,-5.631507874E0,1.122832060E0
7.594031094E0,2.805584669E-1,-6.088537216E0,1.766501307E0
7.614301146E0,-3.613162339E-1,-6.538986206E0,2.472982168E0
7.634701146E0,-8.548358679E-1,-7.017550468E0,3.612564087E0
7.654841198E0,-2.736192703E0,-8.533403397E0,4.948357105E0
7.675111303E0,-6.349354744E0,-1.203829098E1,6.131010056E0
7.695381355E0,-6.358926296E0,-1.545942879E1,8.453842163E0
7.715651407E0,-5.183452129E0,-1.206461143E1,9.205188751E0
7.735921459E0,-6.555137634E0,-1.121695423E1,8.292924881E0
7.756191511E0,-7.948358536E0,-1.390349579E1,-1.082752228E0
7.776461563E0,-3.098107100E0,-1.360917854E1,-6.160321712E0
7.796731615E0,-4.450650215E-1,-8.813364029E0,-3.397808075E0
7.817001667E0,6.753742099E-1,-5.325226784E0,2.243271112E0
7.837271719E0,3.847658873E0,-4.908277512E0,5.415555954E0
7.857541771E0,2.581257343E0,-5.722435474E0,1.558325768E0
7.877811823E0,1.965703845E0,-9.301499367E0,-1.024726272E0
7.898081823E0,1.300499082E0,-1.314676571E1,-3.512663603E0
7.918351876E0,4.785645381E-2,-1.428156185E1,-4.163511276E0
7.938621928E0,-1.108475089E0,-1.195693493E1,-2.775076151E0
7.958891980E0,-2.269592285E0,-8.751151085E0,-9.290133715E-1
7.979162032E0,-3.540779352E0,-7.271189690E0,2.389233351E0
7.999432084E0,-2.997608662E0,-7.702496052E0,4.173082829E0
8.019702084E0,-1.498505235E0,-8.796614647E0,2.324627161E0
8.039972136E0,-4.761717021E-1,-9.409774780E0,-6.777670383E-1
8.060242188E0,-4.953143001E-1,-9.577272415E0,-3.603590965E0
8.080512188E0,-8.883354068E-1,-9.136395454E0,-3.476771355E0
8.100782292E0,-2.020738840E0,-8.533403397E0,-5.413761139E-1
8.121052292E0,-2.669193745E0,-9.055039406E0,2.781656265E0
8.141322344E0,-1.944168448E0,-9.498309135E0,4.185046673E0
8.161592396E0,-1.352542996E0,-9.529416084E0,2.482553482E0
8.181862396E0,-1.302293777E0,-9.145966530E0,-6.155536175E-1
8.202132448E0,-1.130010486E0,-8.789435387E0,-1.850848317E0
8.222402501E0,-1.000798106E0,-9.495916367E0,-3.649054468E-2
8.242672553E0,-1.299900889E0,-1.077188969E1,1.460219979E0
8.262942553E0,-1.958525300E0,-1.134377384E1,2.775674164E-1
8.283212605E0,-3.157927752E0,-1.216511059E1,-2.877369225E-1
8.303482605E0,-4.331008911E0,-1.354696560E1,4.642075896E-1
8.323752657E0,-3.380460262E0,-1.410927868E1,9.571290612E-1
8.344022709E0,-1.797608018E0,-1.220578861E1,2.377269268E0
8.364292709E0,-8.141579032E-1,-1.157169056E1,3.087937593E0
8.384562761E0,1.228116274E0,-1.151426220E1,3.488137245E0
8.404832761E0,2.509472847E0,-1.205264759E1,2.195414782E0
8.425102813E0,2.406581402E0,-1.226800156E1,-7.328019142E-1
8.445372813E0,3.256033421E0,-1.244507027E1,-2.928216696E0
8.465642865E0,3.074178934E0,-1.296969700E1,-7.639086246E-1
8.485912813E0,1.206580877E0,-1.159322548E1,3.087937593E0
8.506182917E0,-1.101296663E0,-9.725627899E0,3.535993576E0
8.526452917E0,-3.043072224E0,-8.954540253E0,2.542374134E0
8.546722969E0,-4.244867325E0,-7.884350777E0,1.524826288E0
8.566992969E0,-3.586242914E0,-7.108478069E0,6.723831892E-1
8.587262969E0,-2.410768747E0,-6.869195461E0,1.842473447E-1
8.607532969E0,-1.776072621E0,-6.395416737E0,5.120640397E-1
8.627803021E0,-1.314257860E0,-5.243870735E0,1.400399446E0
8.648073021E0,4.785645381E-2,-4.714458942E0,1.553540111E0
8.668343073E0,1.489532113E0,-4.936991215E0,5.000999570E-1
8.688613073E0,1.623530149E0,-5.003990173E0,1.125224829E0
8.708883021E0,1.163509965E0,-5.173880577E0,3.318246841E0
8.729153126E0,-1.148554832E-1,-6.548557281E0,5.468197823E0
8.749423126E0,-4.015156269E0,-1.278066349E1,7.804789066E0
8.769693126E0,-8.118846893E0,-1.998006821E1,7.251449108E0
8.789963178E0,-3.382853031E0,-1.530628872E1,6.794419765E0
8.810233178E0,-1.046261668E0,-9.035896301E0,8.817551613E0
8.830633178E0,-7.058826685E-1,-1.004865837E1,8.695517540E0
8.850773230E0,-5.168496966E-1,-1.574477291E1,3.971487284E0
8.871043230E0,7.902296782E-1,-1.502632809E1,-3.952943087E0
8.891313230E0,9.266205430E-1,-8.557332039E0,-5.466403484E0
8.911583230E0,1.101296663E0,-4.441677094E0,-2.542972326E0
8.931983230E0,8.261220455E-1,-3.230310678E0,-1.896311939E-1
8.952123282E0,1.067797065E0,-5.423332691E0,6.580262184E-1
8.972393282E0,1.444068432E0,-1.084367371E1,-8.644071817E-1
8.992663282E0,1.585245013E0,-1.426002693E1,-1.300499082E0
9.012933334E0,6.873382926E-1,-1.300080395E1,-1.913061738E0
9.033333334E0,-2.943171859E-1,-1.064028454E1,-1.451246977E0
9.053473334E0,-1.785643935E0,-8.528617859E0,2.081755698E-1
9.073743334E0,-2.709871531E0,-7.898707390E0,2.882154942E0
9.094013334E0,-1.603789330E0,-8.123632431E0,4.333401680E0
9.114283386E0,6.460621208E-2,-9.570094109E0,2.621337175E0
9.134683386E0,9.816554785E-1,-9.878767967E0,-2.272583246E0
9.154823386E0,6.658028960E-1,-9.117252350E0,-4.546961308E0
9.175093386E0,-8.500502706E-1,-8.154739380E0,-1.133001566E0
9.195363438E0,-2.231307030E0,-8.526225090E0,1.333400369E0
9.215633438E0,-2.892324448E0,-9.381061554E0,2.221735716E0
9.235903438E0,-2.396411896E0,-9.512666702E0,1.656431437E0
9.256173438E0,-1.572682738E0,-9.098110199E0,7.082754970E-1
9.276443490E0,-6.508477330E-1,-9.071788788E0,3.230310678E-1
9.296713490E0,3.906283081E-1,-9.869196892E0,1.240080357E0
9.316983490E0,7.064808607E-1,-1.072163963E1,1.651645780E0
9.337253490E0,-1.914258152E-1,-1.062353420E1,1.100698411E-1
9.357523490E0,-1.589432478E0,-1.085085201E1,-3.044866920E-1
9.377793542E0,-3.354139090E0,-1.196411324E1,1.278365493E0
9.398063542E0,-4.438685894E0,-1.408535004E1,1.632503271E0
9.418333542E0,-3.576671600E0,-1.391785336E1,1.881356835E0
9.438603542E0,-1.886740685E0,-1.207657623E1,2.396411896E0
9.458873594E0,5.150550604E-1,-1.104706383E1,2.599801779E0
9.479143594E0,2.968894720E0,-1.147119141E1,3.122035265E0
9.499413594E0,3.639483213E0,-1.309651661E1,1.106082320E0
9.519683646E0,3.639483213E0,-1.291466236E1,-9.888339639E-1
9.539953646E0,4.211368084E0,-1.317069435E1,-1.848455548E0
9.560223646E0,3.445664644E0,-1.315155125E1,1.435693651E-1
9.580493646E0,6.825526357E-1,-1.081974602E1,2.798406124E0
9.600763698E0,-1.783251047E0,-9.376275063E0,3.490530014E0
9.621033698E0,-2.985644341E0,-8.497511864E0,2.563909531E0
9.641303698E0,-2.444268227E0,-7.372286797E0,1.077368379E0
9.661573698E0,-1.613360643E0,-6.515058041E0,-9.870393574E-2
9.681843751E0,-1.524826288E0,-5.909075737E0,-5.844469070E-1
9.702113751E0,-1.053440213E0,-5.272584915E0,1.292124242E-1
9.722383751E0,-2.464607358E-1,-4.824528694E0,8.327022791E-1
9.742653751E0,8.835497499E-1,-4.920241356E0,5.958128572E-1
9.762923803E0,1.491924882E0,-4.841278553E0,8.446664214E-1
9.783193803E0,1.688136339E0,-4.917848587E0,2.559123755E0
9.803463803E0,5.581258535E-1,-5.197809219E0,5.243272781E0
9.823733855E0,-2.583052158E0,-9.962516785E0,9.250652313E0
9.844003855E0,-7.520043373E0,-2.062134552E1,7.934001446E0
9.864273907E0,-3.626920938E0,-1.887159348E1,7.874181271E0
9.884543907E0,-6.460621208E-2,-9.617950439E0,8.781659126E0
9.904813907E0,1.531406492E-1,-6.126822472E0,9.224330902E0
9.925083907E0,1.603191197E-1,-1.076231766E1,6.178866386E0
9.945353959E0,7.040880919E-1,-1.546899986E1,-1.678565025E0
9.965623959E0,1.216152072E0,-1.376471233E1,-7.412964344E0
9.985893959E0,1.700100541E0,-8.552546501E0,-5.209773064E0
1.000616401E1,4.432703853E-1,-5.075775146E0,-6.203392744E-1
1.002643401E1,-4.354937077E-1,-5.236692429E0,3.380460262E0
1.004683401E1,1.794617027E-1,-8.741579056E0,1.079761267E0
1.006697406E1,1.659422517E0,-1.149751282E1,2.871387079E-2
1.008724406E1,2.385046005E0,-1.209811115E1,-1.683350682E0
1.010751406E1,2.550150633E0,-1.111645603E1,-3.562912941E0
1.012778412E1,1.726421595E0,-8.739186287E0,-2.203191519E0
1.014805412E1,4.025924206E-1,-7.872386456E0,1.220339537E-1
1.016832412E1,-8.045865893E-1,-8.339585304E0,2.846262455E0
1.018859417E1,-4.163511395E-1,-9.007183075E0,2.752942562E0
1.020886417E1,9.960124493E-1,-9.574879646E0,-2.422732860E-1
1.022926417E1,1.936989903E0,-9.342177391E0,-3.646661758E0
1.024940422E1,2.033899277E-1,-8.676973343E0,-2.037488461E0
1.026967422E1,-1.622931957E0,-9.215357780E0,3.517449200E-1
1.028994427E1,-3.485744476E0,-1.036451149E1,1.125224829E0
1.031021427E1,-4.115654945E0,-1.053978539E1,1.419542074E0
1.033061427E1,-3.538386583E0,-9.436096191E0,2.743371248E0
1.035075432E1,-2.073380709E0,-9.014361382E0,3.153141975E0
1.037102438E1,-6.293123364E-1,-9.227322578E0,2.060818434E0
1.039129438E1,3.284149170E-1,-9.943374634E0,5.192425251E-1
1.041156443E1,3.643072546E-1,-1.024726295E1,-5.246263742E-1
1.043196443E1,-3.637090325E-1,-1.072403336E1,-2.997010350E-1
1.045210448E1,-1.027119160E0,-1.186840057E1,9.930213690E-1
1.047237448E1,-1.596610904E0,-1.316112232E1,2.181057930E0
1.049264453E1,-1.560718536E0,-1.452802277E1,2.709871531E0
1.051291458E1,-8.691928387E-1,-1.307976723E1,2.657229662E0
1.053331458E1,-1.256830096E0,-1.147119141E1,2.549552441E0
1.055345464E1,-8.853443712E-2,-1.038604641E1,2.202593327E0
1.057372464E1,1.834098577E0,-1.135334492E1,1.204187989E0
1.059399469E1,2.485544443E0,-1.279502106E1,-3.643072546E-1
1.061426469E1,3.370888948E0,-1.418824196E1,-1.697707653E0
1.063453474E1,3.998406649E0,-1.449691582E1,-9.194421172E-1
1.065480479E1,1.652244091E0,-1.171525955E1,2.690729141E0
1.067507479E1,-1.541576028E0,-9.838089943E0,3.909274101E0
1.069534484E1,-2.726621389E0,-9.023932457E0,3.267997503E0
1.071561490E1,-1.771286964E0,-7.929814339E0,2.082952023E0
1.073588490E1,-4.307080805E-1,-6.656234264E0,4.235295951E-1
1.075615495E1,-3.230310678E-1,-5.803791523E0,-9.672985673E-1
1.077642495E1,0.000000000E0,-5.808577061E0,-1.276570916E0
1.079669500E1,7.854440212E-1,-5.341976643E0,-1.034895778E-1
1.081696500E1,2.303091764E0,-4.604389191E0,4.354937077E-1
1.083723505E1,3.002394199E0,-4.616353035E0,1.866401732E-1
1.085750511E1,2.586043119E0,-5.011168957E0,1.331007600E0
1.087777511E1,1.534995675E0,-5.552545071E0,3.461816072E0
1.089804516E1,-4.594219327E-1,-7.697710514E0,6.478567123E0
1.091831521E1,-5.276772022E0,-1.518664742E1,8.688339233E0
1.093858521E1,-8.044071198E0,-2.101197433E1,8.329415321E0
1.095885526E1,-1.378864050E0,-1.319222927E1,8.288139343E0
1.097912531E1,-3.397808075E-1,-6.885945320E0,9.061619759E0
1.099939531E1,1.674975902E-1,-9.026325226E0,8.597412109E0
1.101966536E1,-1.794617027E-1,-1.471526146E1,3.047259569E0
1.103993542E1,1.613958836E0,-1.443948841E1,-4.525425911E0
1.106020542E1,1.709671736E0,-1.036929703E1,-5.894718647E0
1.108047547E1,1.022333503E0,-6.440880299E0,-2.554936409E0
1.110074547E1,6.939185411E-2,-5.111667156E0,1.072582722E0
1.112101552E1,-5.264210105E-1,-6.842874527E0,3.013760090E0
1.114128557E1,9.314061999E-1,-9.763913155E0,1.527219057E0
1.116155557E1,2.590828657E0,-1.145444202E1,-8.673982322E-2
1.118182563E1,3.007179976E0,-1.165065384E1,-2.648256540E0
1.120209568E1,2.373081923E0,-1.008455086E1,-3.134597778E0
1.122236573E1,1.108475089E0,-8.332406998E0,-1.410568953E0
1.124263573E1,-3.541377485E-1,-8.576474190E0,9.643075466E-1
1.126290578E1,-9.888339639E-1,-8.834898949E0,3.052045345E0
1.128317583E1,-5.982056633E-2,-9.150752068E0,2.774477959E0
1.130344583E1,9.960124493E-1,-9.567701340E0,4.785645381E-2
1.132371589E1,8.309076428E-1,-9.448060036E0,-2.885145903E0
1.134398589E1,-6.245267391E-1,-9.186644554E0,-2.080559254E0
1.136425594E1,-2.214557409E0,-9.531808853E0,3.014956415E-1
1.138452599E1,-2.942573547E0,-9.627521515E0,1.546361685E0
1.140479604E1,-2.221735716E0,-9.114859581E0,2.362912416E0
1.142506604E1,-4.570291340E-1,-9.395418167E0,2.298306227E0
1.144533609E1,5.270192027E-1,-9.479166985E0,8.853443861E-1
1.146560615E1,7.232306600E-1,-9.524630547E0,1.698904037E-1
1.148587615E1,1.024726272E0,-9.720842361E0,8.398807645E-1
1.150614620E1,4.073780477E-1,-1.006780148E1,1.103689432E0
1.152641625E1,-8.141579032E-1,-1.027119160E1,1.435693540E-2
1.154668625E1,-2.544766903E0,-1.058764172E1,5.503492057E-2
1.156695630E1,-2.949752092E0,-1.190429306E1,1.002592683E0
1.158722636E1,-1.965703845E0,-1.445863056E1,1.220937729E0
1.160749636E1,-3.876372576E-1,-1.455972767E1,1.622931957E0
1.162776641E1,-1.244267747E-1,-1.313958740E1,2.499303341E0
1.164803646E1,3.571287692E-1,-1.129113197E1,3.124428272E0
1.166830646E1,1.506281853E0,-9.969695091E0,3.406781197E0
1.168857651E1,2.593221426E0,-1.094417286E1,2.561516523E0
1.170884656E1,2.432902336E0,-1.189711380E1,3.349951804E-1
1.172911656E1,2.595614433E0,-1.197846985E1,-1.872383714E0
1.174938662E1,2.880360365E0,-1.318983650E1,-2.430509567E0
1.176965662E1,1.678565025E0,-1.264427280E1,2.871387303E-1
1.178992662E1,-1.412363529E0,-1.029511929E1,3.110071182E0
1.181019667E1,-2.642872572E0,-8.743971825E0,3.191427231E0
1.183059667E1,-2.283949137E0,-7.635497093E0,2.556730986E0
1.185073672E1,-1.290329576E0,-6.967301369E0,1.469791293E0
1.187100677E1,-2.895315289E-1,-6.663413048E0,6.556333899E-1
1.189127677E1,2.829512656E-1,-6.610770702E0,6.939185411E-2
1.191154682E1,7.064808607E-1,-6.570092678E0,1.914258152E-1
1.193194682E1,1.700100541E0,-6.059823513E0,2.847459018E-1
1.195208688E1,2.228914261E0,-5.679364681E0,3.349951655E-2
1.197235688E1,2.169093609E0,-5.535795212E0,7.872386575E-1
1.199262693E1,1.640279889E0,-5.799005508E0,2.934797049E0
1.201289693E1,7.854440212E-1,-6.830910206E0,4.867001057E0
1.203329693E1,-5.216353536E-1,-9.605986595E0,6.052046776E0
1.205343698E1,-3.957728624E0,-1.491386509E1,5.812764645E0
1.207370703E1,-4.780859470E0,-1.663011742E1,6.851847649E0
1.209397703E1,-2.201396823E-1,-1.185882950E1,8.520841599E0
1.211424708E1,3.667000830E-1,-7.721638680E0,8.158926964E0
1.213464708E1,1.100698411E-1,-7.712067604E0,6.926024914E0
1.215478708E1,-8.524430394E-1,-1.201196957E1,4.960321426E0
1.217505714E1,-4.809573591E-1,-1.669771385E1,-1.467996716E0
1.219532714E1,6.490531564E-1,-1.412124252E1,-6.692126751E0
1.221559719E1,9.816554785E-1,-8.751151085E0,-3.419343472E0
1.223586719E1,-6.747759581E-1,-6.153143406E0,2.937189817E0
1.225613724E1,-7.034898400E-1,-6.330810547E0,5.224130154E0
1.227640724E1,3.690928817E-1,-6.445665836E0,2.630908489E0
1.229667729E1,2.703291416E0,-7.948956966E0,1.531406492E-1
1.231694729E1,4.342973232E0,-1.090110207E1,-3.189632654E0
1.233721729E1,3.622733593E0,-1.233021545E1,-4.635495663E0
1.235748729E1,2.250449657E0,-1.140359497E1,-3.905086517E0
1.237775734E1,7.998009920E-1,-9.969695091E0,-9.553344250E-1
1.239802734E1,-1.376471281E0,-9.069396019E0,2.484946251E0
1.241829734E1,-1.752144337E0,-8.870791435E0,4.189832687E0
1.243856740E1,-1.100698411E-1,-9.303893089E0,3.332603693E0
1.245883740E1,1.613958836E0,-9.838089943E0,7.130611539E-1
1.247910740E1,1.446461320E0,-9.433703423E0,-1.812563181E0
1.249937745E1,3.188436031E-1,-8.966505051E0,-3.011965513E0
1.251964745E1,-6.005984545E-1,-9.136395454E0,-1.810170293E0
1.253991745E1,-1.103689432E0,-9.512666702E0,-2.470589429E-1
1.256018745E1,-1.359721422E0,-9.584450722E0,7.872386575E-1
1.258045745E1,-1.436291814E0,-9.739984512E0,2.034497499E0
1.260072750E1,-8.452646136E-1,-9.682557106E0,2.413161755E0
1.262099750E1,3.589234129E-2,-1.013001442E1,1.888535261E0
1.264126750E1,1.127617717E0,-1.049910736E1,1.182652593E0
1.266153750E1,1.692921996E0,-1.031426239E1,1.182652593E0
1.268180750E1,5.940182209E-1,-9.806983948E0,1.058225870E0
1.270207755E1,-8.883354068E-1,-9.629914284E0,5.000999570E-1
1.272234755E1,-1.927418590E0,-9.952945709E0,4.187439680E-1
1.274261755E1,-1.742573142E0,-1.003190899E1,4.139583111E-1
1.276288755E1,-4.091726840E-1,-1.024247742E1,1.052841991E-1
1.278315755E1,4.313062727E-1,-1.106381416E1,1.127617717E0
1.280342761E1,-2.392822690E-2,-1.262513065E1,2.831905603E0
1.282369761E1,-1.307079315E0,-1.256052399E1,2.276770830E0
1.284396761E1,-2.642872572E0,-1.216271782E1,1.421934843E0
1.286423761E1,-3.095714331E0,-1.143769264E1,1.883749604E0
1.288450761E1,-1.252044439E0,-1.004387283E1,3.210569859E0
1.290477761E1,1.597209096E0,-1.116431236E1,3.287140131E0
1.292504761E1,2.645863533E0,-1.240439224E1,6.747759581E-1
1.294531761E1,3.155534744E0,-1.285484123E1,-2.550150633E0
1.296558761E1,3.503092289E0,-1.305583858E1,-3.071786165E0
1.298585766E1,1.408176184E0,-1.117388344E1,8.877372146E-1
1.300612766E1,-2.082952023E0,-9.929018021E0,3.897309780E0
1.302639766E1,-3.368496180E0,-9.821340561E0,3.708276987E0
1.304666766E1,-3.165106058E0,-9.241679192E0,2.685943365E0
1.306693766E1,-2.154736757E0,-8.195417404E0,1.584646821E0
1.308720766E1,-9.936196208E-1,-7.623532772E0,4.666004181E-1
1.310747766E1,3.667000830E-1,-7.334001541E0,-2.931207791E-2
1.312774766E1,1.436890006E0,-6.711269379E0,-2.374876440E-1
1.314801766E1,2.571686029E0,-5.712863922E0,-1.776670814E-1
1.316828766E1,2.995215654E0,-5.073382378E0,2.512463629E-1
1.318855766E1,2.413759947E0,-5.178666592E0,1.563111424E0
1.320882766E1,1.223330617E0,-6.570092678E0,3.018545866E0
1.322909766E1,-2.991028428E-1,-8.873184204E0,4.965106964E0
1.324936766E1,-3.102892876E0,-1.157886887E1,7.500900745E0
1.326963766E1,-5.767300606E0,-1.371685600E1,6.997809887E0
1.328990766E1,-3.701098442E0,-1.358046532E1,6.332605362E0
1.331017766E1,-3.684946895E-1,-1.034536839E1,5.743372440E0
1.333057766E1,7.663014531E-1,-7.762316704E0,5.233701229E0
1.335071766E1,8.811569214E-1,-7.170691490E0,4.081557274E0
1.337098766E1,-3.110669367E-2,-9.842875481E0,1.029511929E0
1.339125766E1,6.203392744E-1,-1.422413445E1,-1.068395257E0
1.341152766E1,2.037488461E0,-1.469611835E1,1.746760458E-1
1.343192766E1,3.349353552E0,-1.059003448E1,4.723432064E0
1.345206766E1,1.932204247E0,-6.236892223E0,2.839084148E0
1.347233766E1,2.321037948E-1,-6.536593437E0,2.703889608E-1
1.349260766E1,-6.293123364E-1,-8.552546501E0,-1.453639746E0
1.351287766E1,-1.213759303E0,-9.184251785E0,-2.492722988E0
1.353327766E1,-1.433898926E0,-9.665806770E0,-2.856431961E0
1.355341761E1,-1.153938770E0,-9.991230965E0,-2.626721144E0
1.357368761E1,-1.268794179E0,-1.097527885E1,-1.858026743E0
1.359395761E1,-1.302293777E0,-1.086281681E1,1.182652593E0
1.361422761E1,5.389832854E-1,-9.339784622E0,5.664409637E0
1.363449760E1,2.880360365E0,-9.897911072E0,6.557530403E0
1.365476760E1,3.907479286E0,-1.002473068E1,4.362115860E0
1.367503760E1,2.140379906E0,-9.610772133E0,7.441678643E-1
1.369530755E1,6.460621208E-2,-8.980861664E0,-1.458425403E0
1.371557755E1,-9.290133715E-1,-8.394619942E0,-2.404188633E0
1.373584755E1,-9.361918569E-1,-8.243273735E0,-3.004786968E0
1.375611755E1,-9.888339639E-1,-8.832506180E0,-2.600399971E0
1.377638755E1,-7.974081635E-1,-1.008455086E1,-6.323033571E-1
1.379665755E1,-1.962114573E-1,-1.051585770E1,2.149951220E0
1.381692755E1,-7.178468257E-2,-9.912267685E0,4.175475597E0
1.383719750E1,2.685943544E-1,-8.858827591E0,3.413959742E0
1.385746750E1,1.074975610E0,-8.822935104E0,8.829515576E-1
1.387773750E1,1.324427366E0,-9.929018021E0,-8.117650747E-1
1.389800750E1,8.213363886E-1,-1.042014408E1,-6.275177598E-1
1.391827750E1,1.411765367E-1,-1.014437199E1,7.393822074E-1
1.393854745E1,-4.163511395E-1,-1.019222832E1,1.113260746E0
1.395881745E1,-8.907282352E-1,-1.026401234E1,7.609176040E-1
1.397908745E1,-9.050851464E-1,-1.030708313E1,7.513462901E-1
1.399935745E1,-2.249253243E-1,-1.071924686E1,1.838286042E0
1.401962740E1,7.417750359E-2,-1.185643578E1,3.141177893E0
1.403989740E1,-1.371685624E0,-1.258445263E1,2.965903759E0
1.406016740E1,-3.574278831E0,-1.257488155E1,2.053640127E0
1.408043734E1,-4.335794449E0,-1.162433243E1,1.476969719E0
1.410070734E1,-2.729014158E0,-1.044885826E1,1.843071699E0
1.412097734E1,5.222335458E-1,-1.129352474E1,2.343769789E0
1.414124734E1,2.854039192E0,-1.238764286E1,1.043868899E0
1.416151734E1,3.558127165E0,-1.296012592E1,-2.087737799E0
1.418178729E1,3.217748165E0,-1.341954803E1,-2.535793781E0
1.420205729E1,1.704886079E0,-1.261555958E1,3.661018610E-1
1.422232729E1,-1.101296663E0,-1.089153004E1,2.700300455E0
1.424259729E1,-3.256033421E0,-9.488738060E0,2.827120066E0
1.426286724E1,-3.729812384E0,-8.810971260E0,1.974676847E0
1.428313724E1,-3.318246841E0,-7.939385414E0,9.451649189E-1
1.430340724E1,-2.384447813E0,-7.360322475E0,1.962114573E-1
1.432367719E1,-1.244866014E0,-7.254439831E0,-1.274178028E-1
1.434394719E1,9.810572863E-2,-7.554141045E0,4.307080805E-2
1.436421719E1,1.702493310E0,-7.546962738E0,1.651047617E-1
1.438448714E1,3.090928555E0,-7.350750923E0,1.076770201E-1
1.440475714E1,3.267997503E0,-7.058228493E0,8.135597110E-1
1.442502714E1,2.533401012E0,-7.058228493E0,1.866999865E0
1.444529708E1,1.319641709E0,-7.182655334E0,2.496910334E0
1.446556708E1,4.145565331E-1,-7.647460938E0,3.301496983E0
1.448583708E1,2.392822653E-1,-8.760722160E0,4.847858906E0
1.450610703E1,-7.896314561E-2,-1.069531918E1,6.232106686E0
1.452637703E1,-1.192223907E0,-1.239003563E1,7.043273449E0
1.454664698E1,-9.816554785E-1,-1.212443256E1,7.038487911E0
1.456691698E1,-1.381256819E0,-9.723235130E0,6.334998131E0
1.458718693E1,-1.515254974E0,-8.952147484E0,5.757729530E0
1.460745693E1,-1.347757339E0,-1.133659554E1,5.008177757E0
1.462772693E1,-1.424327731E0,-1.467219067E1,1.936391711E0
1.464799688E1,-1.436291814E0,-1.310608768E1,-3.068794906E-1
1.466826682E1,-7.950153351E-1,-8.971290588E0,2.536391914E-1
1.468853682E1,1.100698411E-1,-7.982456207E0,3.641277790E0
1.470880682E1,1.683350682E0,-7.905886173E0,4.766502857E0
1.472920682E1,1.386640668E0,-6.634698868E0,1.716252089E0
1.474934677E1,1.518245935E0,-7.822137356E0,-1.073180914E0
1.476961672E1,2.149951220E0,-9.086145401E0,-2.210369825E0
1.478988672E1,1.611566067E0,-9.421739578E0,-2.629113913E0
1.481015667E1,8.691928387E-1,-9.792626381E0,-2.440080881E0
1.483055667E1,-1.172483116E-1,-1.106142044E1,-9.481559992E-1
1.485069656E1,-1.908276081E0,-1.173918819E1,1.563111424E0
1.487096656E1,-3.373281717E0,-1.064985561E1,3.193820000E0
1.489123656E1,-2.983251572E0,-9.179466248E0,3.571886063E0
1.491150651E1,-8.069794178E-1,-8.688937187E0,2.293520451E0
1.493190651E1,1.322034478E0,-9.483952522E0,6.149554253E-1
1.495204646E1,2.164308071E0,-9.974481583E0,2.321037948E-1
1.497231641E1,2.047059774E0,-9.596415520E0,-3.649054468E-2
1.499258641E1,1.249651670E0,-9.035896301E0,-7.088736892E-1
1.501285646E1,3.762713671E-1,-8.657830238E0,-9.912267923E-1
1.503325646E1,-2.703889608E-1,-8.593224525E0,-1.944168359E-1
1.505339630E1,-3.493520916E-1,-9.074181557E0,1.046261668E0
1.507366625E1,-1.292124242E-1,-9.337391853E0,1.622931957E0
1.509393620E1,-1.674975827E-2,-9.469595909E0,1.285543919E0
1.511420620E1,4.576273263E-1,-9.862018585E0,5.024927258E-1
1.513460620E1,1.146760225E0,-9.905089378E0,-1.734796353E-2
1.515474609E1,1.336391449E0,-9.491130829E0,5.000999570E-1
1.517501604E1,1.403390527E0,-9.493523598E0,1.991426587E0
1.519528604E1,1.927418590E0,-1.006540871E1,2.659622431E0
1.521555599E1,1.546959877E0,-1.046800041E1,9.882357717E-1
1.523582594E1,2.201396823E-1,-1.031186962E1,-8.213363886E-1
1.525609594E1,-9.290133715E-1,-1.006301594E1,-9.002995491E-1
1.527636589E1,-2.092523336E0,-1.159561825E1,4.594219327E-1
1.529663583E1,-2.863610506E0,-1.273519993E1,1.036690354E0
1.531690578E1,-3.217748165E0,-1.290509033E1,9.930213690E-1
1.533717578E1,-2.985644341E0,-1.300319672E1,8.231309652E-1
1.535744573E1,-1.319043517E0,-1.150229836E1,1.299900889E0
1.537771568E1,1.341177106E0,-9.905089378E0,2.295913219E0
1.539798568E1,3.591626883E0,-9.414560318E0,3.330210924E0
1.541825563E1,4.132404804E0,-9.320642471E0,2.403590441E0
1.543852557E1,3.878765583E0,-9.768698692E0,5.982056633E-2
1.545879552E1,3.107678413E0,-1.087956619E1,-1.700100541E0
1.547906547E1,8.069794178E-1,-1.218903828E1,-1.231107235E0
1.549933547E1,-2.784049034E0,-1.235653591E1,1.699502230E0
1.551960542E1,-4.465006828E0,-1.136291695E1,3.519243956E0
1.553987536E1,-3.796811342E0,-1.032144070E1,2.729014158E0
1.556014531E1,-3.184248686E0,-9.145966530E0,1.479362607E0
1.558041526E1,-2.542374134E0,-7.853243828E0,5.503492355E-1
1.560068526E1,-1.345364571E0,-7.520641804E0,1.316052526E-1
1.562095521E1,5.078766346E-1,-7.683353424E0,3.134597540E-1
1.564122516E1,1.685743570E0,-7.556533813E0,6.747759581E-1
1.566149510E1,2.047059774E0,-7.067800045E0,4.211367965E-1
1.568176505E1,2.099701881E0,-6.608377934E0,9.020941257E-1
1.570203500E1,1.570888042E0,-6.830910206E0,2.111665964E0
1.572230495E1,4.791627228E-1,-7.578069210E0,3.075973511E0
1.574257495E1,-8.931210637E-1,-8.799007416E0,3.679563046E0
1.576284490E1,-1.934597135E0,-1.033819008E1,4.146163464E0
1.578311484E1,-2.303091764E0,-1.089392376E1,3.995415688E0
1.580338479E1,-1.170688510E0,-1.109013462E1,3.097508907E0
1.582365474E1,1.810170293E0,-1.192343521E1,3.543172121E0
1.584392469E1,4.173082829E0,-1.190429306E1,5.956333637E0
1.586419464E1,3.114856958E0,-9.227322578E0,6.571887493E0
1.588446458E1,1.791027784E0,-6.498308182E0,4.558327198E0
1.590473453E1,2.111665964E0,-6.337988853E0,2.496910334E0
1.592500448E1,2.130808592E0,-9.828518867E0,7.657032460E-2
1.594527443E1,1.113260746E0,-1.544267941E1,-3.641875982E0
1.596554438E1,2.657827854E0,-2.027438545E1,-3.751945972E0
1.598581432E1,2.650649309E0,-1.229671574E1,2.417947292E0
1.600608427E1,-3.278166950E-1,-4.180859566E0,2.915654421E0
1.602635422E1,-3.277568817E0,-3.112463951E0,-2.518445849E-1
1.604662417E1,-4.319045067E0,-6.297310829E0,-3.211168051E0
1.606689412E1,-3.535993576E0,-9.107681274E0,-3.696911097E0
1.608716406E1,-2.365305185E0,-1.019701385E1,-2.227119684E0
1.610743401E1,7.896314561E-2,-1.196889877E1,-2.877369225E-1
1.612770396E1,2.344367981E0,-1.316351604E1,1.756929994E0
1.614797391E1,3.366103172E0,-1.199043465E1,3.995415688E0
1.616824386E1,3.050250769E0,-8.595617294E0,3.748954773E0
1.618851380E1,2.516651154E0,-8.327621460E0,1.369292736E0
1.620878375E1,1.089332461E0,-9.043074608E0,-3.355933726E-1
1.622905365E1,4.546362907E-2,-9.900303841E0,-1.860419631E0
1.624932365E1,-5.383850932E-1,-1.020179939E1,-2.210369825E0
1.626959354E1,-3.972085714E-1,-1.037408257E1,-1.348355532E0
1.628986349E1,1.339980662E-1,-1.086999512E1,2.273181528E-1
1.631013344E1,-1.076770201E-1,-1.069771194E1,1.931606054E0
1.633053344E1,-1.278365493E0,-9.617950439E0,2.551945448E0
1.635067333E1,-1.402792215E0,-9.268000603E0,1.610967875E0
1.637094328E1,-9.457631707E-1,-9.909874916E0,1.962114573E-1
1.639121323E1,5.024927482E-2,-1.025204849E1,-1.290927768E0
1.641148318E1,9.481559992E-1,-1.015633583E1,-2.385046005E0
1.643188318E1,9.553344250E-1,-9.658628464E0,-2.662613392E0
1.645202302E1,9.002995491E-1,-9.227322578E0,-2.270190477E0
1.647229297E1,1.005583763E0,-9.529416084E0,-1.479960799E0
1.649256292E1,1.139581800E0,-1.024726295E1,1.292124242E-1
1.651283281E1,9.002995491E-1,-1.098485088E1,2.592623234E0
1.653323281E1,8.404789567E-1,-1.067378330E1,3.196212769E0
1.655337271E1,8.261220455E-1,-1.010847950E1,2.348555326E0
1.657364266E1,2.009970993E-1,-1.013001442E1,9.690931439E-1
1.659391255E1,-5.575276613E-1,-1.046560764E1,-4.911268353E-1
1.661418250E1,-1.283151150E0,-1.027119160E1,-1.996810555E0
1.663458250E1,-1.646860242E0,-9.562915802E0,-2.456830740E0
1.665472240E1,-1.077368379E0,-8.968897820E0,-1.700100541E0
1.667499229E1,4.785645287E-3,-9.351749420E0,-8.428717852E-1
1.669526224E1,5.940182209E-1,-9.890732765E0,-5.150550604E-1
1.671553208E1,8.452646136E-1,-1.005344391E1,-5.509474277E-1
1.673580208E1,8.859425783E-1,-9.943374634E0,-3.355933726E-1
1.675607203E1,8.835497499E-1,-9.761520386E0,1.603191197E-1
1.677634198E1,6.705885530E-1,-9.881160736E0,8.829515576E-1
1.679661188E1,2.440679073E-1,-1.016112137E1,1.369292736E0
1.681688182E1,-3.924229145E-1,-1.008933640E1,1.321436286E0
1.683715172E1,-6.245267391E-1,-9.795019150E0,6.245267391E-1
1.685742167E1,-5.383850932E-1,-9.682557106E0,-7.956135273E-2
1.687769162E1,-6.221339107E-1,-9.500701904E0,7.178467698E-3
1.689796156E1,-1.146760225E0,-9.040681839E0,6.580262184E-1
1.691823146E1,-1.165902853E0,-8.547760963E0,1.448255897E0
1.693850141E1,1.292124242E-1,-8.387441635E0,2.240878344E0
1.695877130E1,5.557330847E-1,-8.856434822E0,3.001796007E0
1.697904125E1,1.295115232E0,-9.869196892E0,3.710669756E0
1.699931115E1,2.356332064E0,-1.187318611E1,4.287938118E0
1.701958109E1,2.904288530E0,-1.342911911E1,4.199403763E0
1.703985099E1,2.868396044E0,-1.319462204E1,3.567100286E0
1.706012089E1,5.820540786E-1,-1.142512989E1,3.275176048E0
1.708039083E1,-3.112463951E0,-9.634700775E0,3.150749207E0
1.710066078E1,-4.469792843E0,-9.086145401E0,1.424327731E0
1.712093068E1,-3.112463951E0,-8.741579056E0,-9.912267923E-1
1.714120063E1,-2.398804665E0,-8.238488197E0,-2.222334146E0
1.716147052E1,-1.208973646E0,-8.325227737E0,-2.066202402E0
1.718174042E1,-1.168295622E0,-9.088538170E0,1.746760458E-1
1.720201036E1,-9.314061999E-1,-1.054935646E1,2.726621389E0
1.722228026E1,2.358724833E0,-1.076231766E1,3.949951887E0
1.724255021E1,2.787040234E0,-9.541379929E0,3.282354355E0
1.726282010E1,2.928216696E0,-9.718449593E0,2.262413740E0
1.728309000E1,1.312463164E0,-9.905089378E0,1.771286964E0
1.730335995E1,-8.620143533E-1,-9.464810371E0,1.912463546E0
1.732362984E1,-1.120439172E0,-9.038289070E0,1.275972724E0
1.734389974E1,-9.122636318E-1,-8.504690170E0,5.168496966E-1
1.736416969E1,-6.675975323E-1,-8.126026154E0,6.604190469E-1
1.738443958E1,-4.570291340E-1,-8.183453560E0,1.804786444E0
1.740470948E1,-5.766702294E-1,-8.358727455E0,2.958725214E0
1.742497943E1,-9.601200819E-1,-8.562117577E0,3.588635683E0
1.744524932E1,-1.634896040E0,-8.978468895E0,4.278367043E0
1.746551922E1,-2.257628202E0,-9.445667267E0,4.338187218E0
1.748578917E1,-2.054238319E0,-9.476774216E0,3.636492252E0
1.750605906E1,-1.017547846E0,-8.887541771E0,3.313461065E0
1.752632896E1,-3.086741269E-1,-8.118846893E0,3.203391314E0
1.754659886E1,1.531406492E-1,-7.532605648E0,3.141177893E0
1.756686880E1,3.427718580E-1,-7.532605648E0,3.413959742E0
1.758713870E1,2.464607358E-1,-9.349356651E0,3.497708559E0
1.760740859E1,-2.033899277E-1,-1.403510094E1,2.803191662E0
1.762767849E1,-2.587837696E0,-1.851925087E1,1.376471281E0
1.764794839E1,-2.035095692E0,-1.456451321E1,3.165106058E0
1.766821833E1,1.196411327E-1,-8.023134232E0,1.402792215E0
1.768848823E1,1.187438250E0,-5.387440205E0,1.314257860E0
1.770875813E1,2.075773716E0,-6.033502102E0,2.201396823E-1
1.772902802E1,2.437688112E0,-7.290930748E0,-1.173679471E0
1.774929792E1,1.992024899E0,-8.116454124E0,-1.963310957E0
1.776956781E1,1.841277003E0,-9.967302322E0,-2.724826813E0
1.778983771E1,1.484746456E0,-1.219861031E1,-2.468794823E0
1.781010761E1,2.153540403E-2,-1.344586849E1,-3.882354796E-1
1.783050760E1,-3.184248686E0,-1.144247818E1,4.254438877E0
1.785064745E1,-2.654836655E0,-8.791828156E0,5.180460930E0
1.787091734E1,1.818545163E-1,-8.346763611E0,3.569493294E0
1.789118724E1,2.075773716E0,-9.186644554E0,9.810572863E-1
1.791145714E1,2.066202402E0,-9.775876999E0,-1.436890006E0
1.793185714E1,9.984052777E-1,-9.428917885E0,-3.546163082E0
1.795199693E1,2.757728100E-1,-8.846863747E0,-3.071786165E0
1.797226682E1,-3.230310678E-1,-8.590831757E0,-3.451646566E-1
1.799253672E1,-7.226324677E-1,-9.381061554E0,2.114058733E0
1.801280656E1,-9.002995491E-1,-9.625128746E0,3.263211966E0
1.803320656E1,-6.221339107E-1,-9.634700775E0,2.602194548E0
1.805334636E1,-1.004985496E-1,-9.471988678E0,8.685946465E-1
1.807361625E1,5.437689424E-1,-9.639486313E0,-2.925225794E-1
1.809388615E1,1.125224829E0,-9.833304405E0,-3.403790295E-1
1.811415604E1,9.984052777E-1,-9.512666702E0,9.451649189E-1
1.813455604E1,5.294120312E-1,-9.467203140E0,2.114058733E0
1.815469583E1,3.589234129E-2,-9.888339996E0,1.618146300E0
1.817496573E1,-6.317051649E-1,-1.013479996E1,1.148554832E-1
1.819523557E1,-1.331007600E0,-1.011087227E1,-5.629115105E-1
1.821550547E1,-1.266401410E0,-1.022572803E1,4.713860750E-1
1.823577537E1,8.614161611E-2,-1.209093285E1,2.224128723E0
1.825604526E1,8.333004713E-1,-1.381496143E1,3.145963669E0
1.827631516E1,2.392822653E-1,-1.285723400E1,2.508874655E0
1.829658500E1,-1.508076429E0,-1.235414314E1,1.792822361E0
1.831685490E1,-2.121237278E0,-1.134377384E1,1.503290772E0
1.833712479E1,-4.977070987E-1,-1.091785145E1,1.960319996E0
1.835739469E1,1.901097536E0,-1.172722340E1,1.819143414E0
1.837766453E1,3.531806231E0,-1.246899891E1,-1.776670814E-1
1.839793443E1,4.402793884E0,-1.304387474E1,-2.609971285E0
1.841820432E1,4.053441525E0,-1.266580868E1,-1.319641709E0
1.843847417E1,1.621137381E0,-1.054696369E1,1.788036704E0
1.845874406E1,-1.311864972E0,-9.181859016E0,3.617349625E0
1.847901396E1,-2.923431158E0,-8.880363464E0,3.468994617E0
1.849928386E1,-3.354139090E0,-8.447261810E0,2.867797852E0
1.851955370E1,-2.544766903E0,-8.037490845E0,1.692323804E0
1.853982359E1,-1.115653515E0,-7.673782349E0,1.746760458E-1
1.856009344E1,-4.067798555E-1,-7.127620220E0,-1.441675574E-1
1.858036333E1,6.538388133E-1,-6.145965099E0,1.746760458E-1
1.860063323E1,2.183450699E0,-5.423332691E0,1.651047617E-1
1.862090302E1,3.186641455E0,-5.306084156E0,3.661018610E-1
1.864117297E1,3.227319479E0,-5.822933674E0,1.675574064E0
1.866144281E1,2.238485575E0,-6.395416737E0,3.133999348E0
1.868171271E1,1.331605792E0,-6.828517437E0,3.291925669E0
1.870198260E1,8.955138922E-1,-7.881958008E0,3.832703590E0
1.872225245E1,-1.278365493E0,-1.088195896E1,4.886143684E0
1.874252229E1,-3.782454491E0,-1.460519123E1,7.229913712E0
1.876279219E1,-2.049452543E0,-1.337647724E1,8.913264275E0
1.878306203E1,-1.232901812E0,-9.529416084E0,8.365307808E0
1.880333193E1,-1.170688510E0,-8.980861664E0,8.501698494E0
1.882360177E1,-7.633104324E-1,-1.322333622E1,6.042475224E0
1.884387167E1,-3.445664644E-1,-1.707099533E1,-1.726421595E0
1.886414151E1,8.835497499E-1,-1.420020580E1,-6.273382664E0
1.888441141E1,1.869990945E0,-8.578866959E0,-4.077369690E0
1.890468125E1,2.149951220E0,-5.437689304E0,-2.051845312E0
1.892495115E1,2.066202402E0,-5.550152302E0,-2.733799815E-1
1.894522099E1,2.997608662E0,-8.293522835E0,2.654836655E0
1.896549083E1,4.051048756E0,-9.134002686E0,2.626122952E0
1.898576073E1,5.464010715E0,-1.038604641E1,1.352542996E0
1.900603057E1,6.107679844E0,-1.278544998E1,-2.075773716E0
1.902630042E1,2.521436930E0,-1.086760235E1,-1.822134495E0
1.904657031E1,5.150550604E-1,-8.200202942E0,-1.372283816E0
1.906684016E1,-1.962114573E-1,-8.190631866E0,-1.412961721E0
1.908711005E1,3.164508045E-1,-9.349356651E0,-2.665006161E0
1.910737990E1,6.921239495E-1,-9.888339996E0,-3.445664644E0
1.912764974E1,-1.387837082E-1,-1.001276588E1,-2.492722988E0
1.914791958E1,-1.244267747E-1,-9.907482147E0,-1.848455548E0
1.916818948E1,-9.242277741E-1,-1.098245811E1,-6.203392744E-1
1.918845932E1,-2.880360365E0,-1.118106174E1,3.373879790E-1
1.920872917E1,-3.344567776E0,-9.873982430E0,8.709874153E-1
1.922912917E1,-3.433102369E0,-8.916254997E0,1.491326690E0
1.924926891E1,-3.478565931E0,-8.971290588E0,2.362912416E0
1.926953875E1,-2.508874655E0,-9.522237778E0,2.065604210E0
1.928980859E1,-8.811569214E-1,-1.019701385E1,7.704889178E-1
1.931007844E1,1.387837082E-1,-1.017308521E1,5.144568682E-1
1.933047844E1,9.332008660E-2,-9.627521515E0,1.359721422E0
1.935061818E1,-2.129612118E-1,-9.929018021E0,1.340578914E0
1.937088802E1,2.416750938E-1,-1.022572803E1,6.149554253E-1
1.939115786E1,4.815555513E-1,-1.040100193E1,2.847459018E-1
1.941142771E1,9.936196208E-1,-1.016351414E1,-6.281159073E-2
1.943182771E1,1.688136339E0,-1.040100193E1,8.207381964E-1
1.945196745E1,1.403390527E0,-1.291466236E1,3.133999348E0
1.947223729E1,-1.268195957E-1,-1.417388535E1,2.834298372E0
1.949250708E1,-1.113260746E0,-1.110449123E1,1.651645780E0
1.951277698E1,-1.553540111E0,-8.665008545E0,1.912463546E0
1.953317698E1,-9.816554785E-1,-9.771091461E0,2.705085993E0
1.955331667E1,-1.076770201E-1,-1.272802162E1,1.510469317E0
1.957358646E1,1.187438250E0,-1.437009621E1,-7.615157962E-1
1.959385636E1,2.751147747E0,-1.617069626E1,-2.676970243E0
1.961412620E1,1.590030670E0,-1.471526146E1,-3.236292601E-1
1.963439604E1,-2.623729944E0,-1.020179939E1,3.150749207E0
1.965466589E1,-3.929014683E0,-8.968897820E0,3.981058598E0
1.967493573E1,-3.189034462E0,-8.923434258E0,3.643670797E0
1.969520557E1,-1.903490424E0,-8.212167740E0,2.391626120E0
1.971547542E1,-5.072783828E-1,-7.350750923E0,7.657032609E-1
1.973574526E1,-1.148554832E-1,-6.634698868E0,-3.667000830E-1
1.975601510E1,1.411765367E-1,-6.093322754E0,-1.944168359E-1
1.977628495E1,1.101296663E0,-4.848456860E0,-9.571290575E-3
1.979655479E1,2.243271112E0,-4.139583111E0,-6.275177598E-1
1.981682464E1,3.050250769E0,-4.561318398E0,-6.849454641E-1
1.983709448E1,3.129213810E0,-5.684150219E0,9.403793216E-1
1.985736432E1,1.652244091E0,-6.818946362E0,2.736192703E0
1.987763417E1,5.700899959E-1,-8.621937752E0,4.163511276E0
1.989790401E1,-1.259222865E0,-1.149512005E1,5.542375565E0
1.991817386E1,-4.922036171E0,-1.448255920E1,7.991429329E0
1.993844370E1,-5.152345181E0,-1.447059536E1,8.822337151E0
1.995871354E1,-3.047857761E0,-1.014437199E1,7.491329670E0
1.997898339E1,-2.602194548E0,-8.344370842E0,7.172485828E0
1.999925323E1,-1.010369420E0,-1.043689442E1,6.732206345E0
2.001952307E1,-1.387837082E-1,-1.546421432E1,2.133201361E0
2.003979287E1,1.067797065E0,-1.607498169E1,-4.233501434E0
2.006006271E1,1.764706731E0,-1.088435173E1,-4.757529736E0
2.008033255E1,1.503889084E0,-6.634698868E0,-2.207378894E-1
2.010060240E1,1.290329576E0,-5.641079426E0,5.865406513E0
2.012087224E1,2.078166485E0,-6.045466423E0,4.048057556E0
2.014114203E1,2.399402857E0,-6.787839413E0,7.657032609E-1
2.016141188E1,3.852444410E0,-9.613164902E0,-1.228714466E0
2.018168172E1,3.964907169E0,-1.224168110E1,-3.950550079E0
2.020195156E1,2.571686029E0,-1.218185997E1,-4.192823410E0
2.022222141E1,1.609173179E0,-1.030469036E1,-3.479164124E0
2.024249125E1,5.724828243E-1,-8.665008545E0,-1.061216831E0
2.026276104E1,-1.197009563E0,-8.801400185E0,1.419542074E0
2.028303089E1,-1.510469317E0,-9.296713829E0,2.941975355E0
2.030330073E1,-3.349951655E-2,-9.665806770E0,2.886940479E0
2.032357047E1,1.290329576E0,-1.005583763E1,1.587039590E0
2.034384037E1,1.185045362E0,-9.967302322E0,1.244267747E-1
2.036411021E1,7.178467698E-3,-9.639486313E0,-8.763712645E-1
2.038438005E1,-1.347757339E0,-9.467203140E0,-8.093722463E-1
2.040464984E1,-1.994417667E0,-9.198608398E0,-9.571290575E-3
2.042491969E1,-2.137987137E0,-9.007183075E0,1.079761267E0
2.044518948E1,-2.109273195E0,-9.282357216E0,1.840678811E0
2.046545932E1,-1.570289850E0,-9.236893654E0,1.721037745E0
2.048572917E1,-8.572286963E-1,-8.921041489E0,1.352542996E0
2.050599896E1,-2.488535494E-1,-8.837292671E0,1.393221021E0
2.052626880E1,8.931210637E-1,-9.436096191E0,1.601396561E0
2.054653859E1,1.702493310E0,-1.007019424E1,8.039883971E-1
2.056680844E1,1.384247899E0,-1.023529911E1,1.196411345E-2
2.058707828E1,4.576273263E-1,-1.077188969E1,5.766702294E-1
2.060734807E1,-1.137188911E0,-1.339322662E1,1.642074585E0
2.062761792E1,-2.791227579E0,-1.529432392E1,1.400399446E0
2.064788771E1,-3.251247883E0,-1.509572029E1,1.019342422E0
2.066815755E1,-1.577468276E0,-1.257727432E1,1.847857237E0
2.068842734E1,1.692921996E0,-1.098485088E1,3.145963669E0
2.070869719E1,4.342973232E0,-1.214357471E1,3.411566973E0
2.072896698E1,4.141975880E0,-1.250788212E1,8.757730722E-1
2.074923682E1,4.381258488E0,-1.184925747E1,-1.929811478E0
2.076950662E1,4.601995945E0,-1.222732353E1,-2.923431158E0
2.078977646E1,2.090130568E0,-1.156690502E1,9.068797827E-1
2.081004625E1,-2.693121910E0,-9.672985077E0,3.366103172E0
2.083044625E1,-4.682754040E0,-8.787042618E0,-7.615157962E-1
2.085058589E1,-5.154737949E0,-8.097311974E0,4.491328239E0
2.087085568E1,-2.573480844E0,-7.767102242E0,1.953141451E0
2.089112552E1,-1.161117196E0,-7.369893551E0,8.614161611E-2
2.091139536E1,-5.790630579E-1,-7.544569969E0,-8.715856671E-1
2.093179537E1,-9.092725813E-2,-7.733603001E0,-4.432703853E-1
2.095193495E1,1.668993831E0,-7.165905476E0,-1.920240223E-1
2.097220479E1,3.052643538E0,-6.014359951E0,-1.068395257E0
2.099247458E1,2.961716175E0,-4.771886349E0,-7.375875711E-1
2.101274438E1,2.492722988E0,-4.657031059E0,1.292722464E0
2.103314438E1,1.625923038E0,-5.851647854E0,3.564707518E0
2.105328401E1,-3.014956415E-1,-7.884350777E0,6.593422890E0
2.107355380E1,-3.875774384E0,-1.254377460E1,8.676374435E0
2.109382365E1,-6.428318024E0,-1.866282082E1,8.575876236E0
2.111409339E1,-1.096511006E0,-1.559881115E1,6.875775814E0
2.113449339E1,1.408176184E0,-9.318249702E0,7.060023308E0
2.115463307E1,1.427318692E0,-7.244868755E0,6.150152206E0
2.117490286E1,1.379462242E0,-1.202393341E1,2.231307030E0
2.119517266E1,1.975275040E0,-1.486840153E1,-4.086941242E0
2.121544250E1,2.753540754E0,-1.170568848E1,-4.513461590E0
2.123571229E1,3.035893679E0,-7.487142086E0,2.724228621E0
2.125598208E1,1.408176184E0,-5.775077343E0,5.901299000E0
2.127625188E1,-8.763712645E-1,-6.431309223E0,1.287936807E0
2.129652167E1,-1.326221943E0,-9.059824944E0,-1.389033556E0
2.131679146E1,1.220339537E-1,-1.160279655E1,-3.129213810E0
2.133706130E1,3.738785386E-1,-1.243310642E1,-4.415356159E0
2.135733109E1,4.360919297E-1,-1.062831974E1,-4.091726780E0
2.137760089E1,4.528416991E-1,-8.631509781E0,-2.925823927E0
2.139787068E1,4.384847581E-1,-7.570890903E0,-5.724828243E-1
2.141814047E1,9.337990284E-1,-8.430512428E0,3.468994617E0
2.143841021E1,1.893919110E0,-9.917053223E0,5.592624664E0
2.145868005E1,2.442473650E0,-9.900303841E0,4.864608288E0
2.147894984E1,2.748754978E0,-9.342177391E0,5.359922647E-1
2.149921964E1,1.336391449E0,-8.933005333E0,-2.825325251E0
2.151948948E1,-6.221339107E-1,-8.925827026E0,-3.976871252E0
2.153975927E1,-1.450648785E0,-9.491130829E0,-1.451246977E0
2.156002906E1,-1.259222865E0,-9.991230965E0,1.610967875E0
2.158029886E1,-9.720842242E-1,-9.440881729E0,3.447459221E0
2.160056865E1,-4.043870270E-1,-9.393025398E0,2.834298372E0
2.162083844E1,-2.632104978E-2,-9.706484795E0,1.024128079E0
2.164110823E1,7.417750359E-2,-9.358927727E0,-2.135594189E-1
2.166137802E1,5.365904570E-1,-9.062217712E0,5.838487148E-1
2.168164781E1,1.456032634E0,-1.007976532E1,2.348555326E0
2.170191761E1,1.448854089E0,-1.110927773E1,1.938784599E0
2.172218740E1,3.690928817E-1,-1.097288609E1,5.982056856E-1
2.174245719E1,-6.053841114E-1,-1.037647533E1,1.029511929E0
2.176272698E1,-1.575075507E0,-1.259641647E1,2.403590441E0
2.178299682E1,-2.295913219E0,-1.396570969E1,2.568695068E0
2.180326662E1,-2.899502754E0,-1.330469227E1,2.611765862E0
2.182353641E1,-2.952144861E0,-1.191386414E1,3.126821041E0
2.184380620E1,-8.404789567E-1,-1.063310528E1,3.087937593E0
2.186407594E1,2.408974171E0,-1.206939697E1,1.369292736E0
2.188434578E1,3.850051641E0,-1.340997601E1,-1.606780410E0
2.190461552E1,4.537389755E0,-1.389631748E1,-3.515056372E0
2.192488536E1,3.498306751E0,-1.315155125E1,-6.610172391E-1
2.194515510E1,1.196411327E-1,-1.097288609E1,3.299104214E0
2.196542490E1,-3.246462107E0,-9.897911072E0,4.256831646E0
2.198569469E1,-3.827918053E0,-9.476774216E0,3.129213810E0
2.200596448E1,-3.260818958E0,-8.442476273E0,1.335793257E0
2.202623427E1,-2.506481647E0,-7.623532772E0,-4.408775866E-1
2.204650406E1,-1.744965911E0,-7.446464062E0,-1.286142230E0
2.206677380E1,-5.934200287E-1,-7.683353424E0,-7.950153351E-1
2.208704359E1,9.864411354E-1,-6.940980434E0,-2.590230405E-1
2.210731339E1,2.954537868E0,-5.868397713E0,-6.107679605E-1
2.212758318E1,3.670589924E0,-5.030311584E0,-1.113858938E0
2.214785297E1,3.294318676E0,-4.556532383E0,4.522434771E-1
2.216812271E1,2.502294302E0,-5.310869694E0,2.468196630E0
2.218839250E1,1.247258782E0,-7.127620220E0,4.874179840E0
2.220866229E1,-5.407779217E-1,-1.088435173E1,6.272784710E0
2.222893208E1,-2.726621389E0,-1.681735611E1,7.314260483E0
2.224920188E1,-1.797608018E0,-1.727438545E1,9.445069313E0
2.226947162E1,-8.614161611E-2,-9.996016502E0,8.504091263E0
2.228974141E1,-1.086939692E0,-5.746363640E0,6.993024349E0
2.231001120E1,-9.266205430E-1,-6.304489613E0,4.831109047E0
2.233041120E1,-1.115653515E0,-1.365942764E1,-5.222335458E-1
2.235055073E1,5.389832854E-1,-1.970190430E1,-5.545366287E0
2.237082052E1,2.743969440E0,-1.422891998E1,-3.227917671E0
2.239109031E1,2.361117840E0,-7.389036179E0,5.690730572E0
2.241136010E1,1.156331539E0,-4.640281200E0,5.822335720E0
2.243176011E1,3.738785386E-1,-5.545366287E0,1.199402332E0
2.245189964E1,7.160521746E-1,-7.264011383E0,-2.059023857E0
2.247216943E1,2.420938253E0,-9.201001167E0,-4.635495663E0
2.249243917E1,2.617149830E0,-1.082692432E1,-5.126024246E0
2.251270896E1,1.893919110E0,-1.109970570E1,-3.897907972E0
2.253310896E1,1.781456470E0,-1.067617607E1,-2.380260229E0
2.255324849E1,1.507478207E-1,-9.661021233E0,2.860619545E0
2.257351828E1,-1.228116274E0,-9.397810936E0,5.212165833E0
2.259378807E1,3.451646566E-1,-9.031110764E0,5.170889854E0
2.261405781E1,2.593221426E0,-8.767900467E0,1.723430514E0
2.263432761E1,2.319841623E0,-8.674580574E0,-1.400997639E0
2.265459740E1,6.131607890E-1,-9.067003250E0,-2.475973129E0
2.267486714E1,-9.571290761E-2,-9.663414001E0,-1.209571838E0
2.269513693E1,-6.173482537E-1,-9.821340561E0,3.732803464E-1
2.271540672E1,-5.982056856E-1,-9.373882294E0,1.888535261E0
2.273567646E1,3.284149170E-1,-9.393025398E0,2.863012314E0
2.275594625E1,1.539781332E0,-1.001515961E1,1.869392633E0
2.277621599E1,1.511067510E0,-1.010608673E1,3.828516304E-1
2.279648578E1,8.261220455E-1,-9.795019150E0,5.192425251E-1
2.281675552E1,2.009970993E-1,-9.850054741E0,1.591825247E0
2.283702531E1,-5.120640397E-1,-9.909874916E0,7.154539824E-1
2.285729511E1,-1.304686546E0,-9.744770050E0,-7.758727670E-1
2.287756484E1,-2.595016241E0,-1.031426239E1,-7.686942816E-1
2.289783458E1,-2.822334290E0,-1.186122227E1,9.954141974E-1
2.291810438E1,-3.421736360E-1,-1.274716473E1,2.487339020E0
2.293837412E1,1.465603828E0,-1.257248878E1,3.394817114E0
2.295864391E1,1.012762189E0,-1.244507027E1,2.834298372E0
2.297891365E1,8.045865893E-1,-1.192343521E1,2.312663078E0
2.299918344E1,2.202593327E0,-1.079342461E1,2.559123755E0
2.301945318E1,3.510270834E0,-1.028315544E1,3.131606579E0
2.303972292E1,4.223331928E0,-1.064746284E1,1.766501307E0
2.305999271E1,4.417150497E0,-1.082213879E1,-1.137787223E0
2.308026245E1,4.156332970E0,-1.184447193E1,-2.576471806E0
2.310053224E1,3.725624800E0,-1.237807178E1,-2.327020019E-1
2.312080198E1,-6.173482537E-1,-1.055653572E1,3.942773581E0
2.314107172E1,-2.566302299E0,-9.110074043E0,3.935595036E0
2.316134146E1,-9.792626500E-1,-8.763114929E0,2.508874655E0
2.318161125E1,-1.148554832E-1,-8.286344528E0,2.073380709E0
2.320188099E1,-3.349951655E-2,-7.293323517E0,1.185045362E0
2.322215073E1,1.076770201E-1,-6.835696220E0,6.556333899E-1
2.324242052E1,3.978067636E-1,-6.594020844E0,6.340979934E-1
2.326269026E1,6.155536175E-1,-6.222535133E0,6.029912829E-1
2.328296000E1,9.409775138E-1,-6.004788399E0,6.197410822E-1
2.330322974E1,1.297508121E0,-6.093322754E0,1.553540111E0
2.332349953E1,1.432104349E0,-6.474380016E0,2.999403238E0
2.334376927E1,6.251249313E-1,-7.094120979E0,4.522434711E0
2.336403901E1,-1.086939692E0,-8.916254997E0,6.698707104E0
2.338430875E1,-3.062214851E0,-1.349851036E1,7.354938507E0
2.340457849E1,-3.275176048E0,-1.592184162E1,6.564708710E0
2.342484823E1,-6.604190469E-1,-1.259880924E1,6.679564476E0
2.344511802E1,-1.268195957E-1,-9.282357216E0,7.155735970E0
2.346538771E1,8.045865893E-1,-8.940183640E0,6.971488953E0
2.348565750E1,2.049452543E0,-1.188036442E1,4.697110653E0
2.350592724E1,2.061416626E0,-1.236132145E1,8.638089895E-1
2.352619698E1,1.290329576E0,-8.238488197E0,-2.082952023E0
2.354646672E1,8.189435601E-1,-6.455237389E0,-1.113858938E0
2.356673646E1,8.374879509E-2,-9.452845573E0,3.049652576E0
2.358700620E1,-8.189435601E-1,-1.153579807E1,3.555136204E0
2.360727594E1,-1.192223907E0,-9.828518867E0,1.718644857E0
2.362754573E1,2.392822644E-3,-7.869993687E0,8.015955687E-1
2.364781547E1,1.331605792E0,-7.941778183E0,-7.495517135E-1
2.366808521E1,2.240878344E0,-9.617950439E0,-3.009572744E0
2.368835495E1,1.743171334E0,-1.058285618E1,-3.739981890E0
2.370862469E1,1.027119160E0,-1.055174923E1,-2.626721144E0
2.372902469E1,-2.177468538E-1,-9.773484230E0,1.363908947E-1
2.374916417E1,-1.086939692E0,-9.047860146E0,2.985046148E0
2.376943391E1,1.842473447E-1,-8.655437469E0,4.682754040E0
2.378970365E1,1.530210137E0,-9.346963882E0,3.256033421E0
2.380997339E1,1.664208174E0,-9.665806770E0,2.392822653E-1
2.383037339E1,7.423732281E-1,-9.440881729E0,-1.767099500E0
2.385051287E1,-2.799602449E-1,-9.045467377E0,-1.889133453E0
2.387078261E1,-6.747759581E-1,-8.827720642E0,-5.844469070E-1
2.389105234E1,-1.866401732E-1,-8.854042053E0,9.451649189E-1
2.391132208E1,1.962114573E-1,-9.589237213E0,2.281556368E0
2.393172208E1,-1.986042857E-1,-9.862018585E0,2.592623234E0
2.395186156E1,-1.483550072E-1,-9.696913719E0,1.409970760E0
2.397213130E1,9.092725813E-2,-9.649057388E0,1.818545163E-1
2.399240104E1,2.973082066E-1,-9.565308571E0,2.033899277E-1
2.401267078E1,8.069794178E-1,-9.981659889E0,1.740180254E0
2.403307078E1,1.580459356E0,-1.061157036E1,2.831905603E0
2.405321026E1,1.714457393E0,-1.078385353E1,1.785643935E0
2.407348000E1,1.077368379E0,-1.068574810E1,1.534397483E0
2.409374974E1,3.643072546E-1,-1.134616661E1,2.370090723E0
2.411401948E1,-6.556333899E-1,-1.351765347E1,2.573480844E0
2.413441948E1,-2.307877541E0,-1.356850052E1,2.927618504E0
2.415455896E1,-3.677170277E0,-1.215314579E1,4.192225456E0
2.417482870E1,-2.384447813E0,-1.125523949E1,3.847060680E0
2.419509839E1,5.676971674E-1,-1.228714466E1,1.189831018E0
2.421536813E1,2.743969440E0,-1.313480186E1,-3.170490026E0
2.423563781E1,3.974478483E0,-1.436291790E1,-6.191428661E0
2.425590760E1,1.704886079E0,-1.213878918E1,-2.246262312E0
2.427617734E1,-6.652047038E-1,-9.471988678E0,3.545564890E0
2.429644708E1,-2.312663078E0,-1.002712345E1,5.142175674E0
2.431671682E1,-3.887738705E0,-9.785448074E0,3.535993576E0
2.433698656E1,-4.096512318E0,-8.949754715E0,1.101296663E0
2.435725630E1,-3.263211966E0,-8.307880402E0,-8.548358679E-1
2.437752599E1,-1.819143414E0,-7.932207108E0,-2.155334949E0
2.439779573E1,-5.024927258E-1,-7.700103283E0,-2.528615236E0
2.441806547E1,1.172483116E-1,-7.230511665E0,-2.389831543E0
2.443833521E1,1.913061738E0,-6.716054916E0,-2.411366940E0
2.445860495E1,4.244867325E0,-6.428916454E0,-1.601994753E0
2.447887464E1,5.365306377E0,-6.057430744E0,6.891329288E-1
2.449914438E1,4.137190342E0,-6.644270420E0,2.949153900E0
2.451941412E1,2.075773716E0,-8.971290588E0,3.705883980E0
2.453968380E1,-5.479564071E-1,-1.230150127E1,5.075176716E0
2.455995354E1,-2.130808592E0,-1.667617989E1,1.010070229E1
2.458022328E1,-3.780659735E-1,-1.514596939E1,1.132881927E1
2.460049297E1,-7.250252366E-1,-8.899505615E0,8.187641144E0
2.462076271E1,-1.369292736E0,-5.636293888E0,4.254438877E0
2.464103245E1,-8.715856671E-1,-5.705685616E0,-1.092323542E0
2.466130214E1,-8.141579032E-1,-1.018983555E1,-4.984847546E0
2.468157188E1,-3.278166950E-1,-1.751605988E1,-6.498308182E0
2.470184162E1,2.087737799E0,-1.793061638E1,-3.448057413E0
2.472211130E1,2.952144861E0,-1.210050392E1,1.159023476E1
2.474238104E1,-2.488535494E-1,-4.647459984E0,6.538387775E0
2.476265073E1,-8.907282352E-1,-3.498306751E0,3.469592929E-1
2.478292047E1,3.978067636E-1,-5.782256126E0,-2.509472847E0
2.480319021E1,1.290329576E0,-8.820542336E0,-4.707280159E0
2.482345990E1,1.144367456E0,-1.204786205E1,-5.344369411E0
2.484372964E1,-4.426721931E-1,-1.287637711E1,-4.305285931E0
2.486399938E1,-1.261615753E0,-1.133659554E1,-3.078964472E0
2.488426906E1,5.264209956E-2,-8.514261246E0,2.523231506E0
2.490453880E1,2.363510609E0,-8.763114929E0,7.902894974E0
2.492480854E1,2.779861689E0,-1.029272652E1,8.087141991E0
2.494507823E1,1.391426325E0,-9.493523598E0,3.512065411E0
2.496534797E1,-2.703889608E-1,-9.275178909E0,-8.189435601E-1
2.498561766E1,-7.489534616E-1,-8.846863747E0,-3.321237803E0
2.500588734E1,-1.674975827E-2,-8.269595146E0,-4.810171604E0
2.502615708E1,3.188436031E-1,-8.281558990E0,-3.443271875E0
2.504642682E1,1.089332461E0,-9.162715912E0,-1.499103427E0
2.506669651E1,2.411366940E0,-1.037886810E1,2.372483730E0
2.508696625E1,2.245664120E0,-1.040818024E1,4.218546391E0
2.510723594E1,1.141974568E0,-9.414560318E0,2.688336134E0
2.512750568E1,1.004985496E-1,-9.143573761E0,1.052841991E-1
2.514777536E1,-9.050851464E-1,-9.826126099E0,-8.883354068E-1
2.516804510E1,-3.541377485E-1,-1.091067314E1,9.571290575E-3
2.518823620E1,2.147558212E0,-1.134616661E1,5.264210105E-1
2.520858443E1,2.607578516E0,-1.085085201E1,1.158724308E0
2.522885412E1,1.422533035E0,-1.202632618E1,2.559123755E0
2.524912386E1,-1.156331539E0,-1.418584919E1,3.318246841E0
2.526939359E1,-3.650849104E0,-1.326162148E1,2.444268227E0
2.528966328E1,-4.673182487E0,-1.186361504E1,1.278365493E0
2.530993307E1,-5.073382378E0,-1.129352474E1,9.978070259E-1
2.533033307E1,-1.834098577E0,-1.051346493E1,1.256830096E0
2.535047250E1,2.461616278E0,-1.135813046E1,9.762716293E-1
2.537074219E1,3.830909014E0,-1.240199947E1,-1.745564103E0
2.539101188E1,4.618745804E0,-1.280219936E1,-3.641875982E0
2.541128162E1,4.704887390E0,-1.361635685E1,-4.600201547E-1
2.543168162E1,2.461616278E0,-1.209093285E1,3.332603693E0
2.545182104E1,-9.696913958E-1,-9.957731247E0,3.638885021E0
2.547209073E1,-2.539981127E0,-9.378668785E0,2.453839540E0
2.549236042E1,-3.035893679E0,-8.827720642E0,1.060618639E0
2.551263016E1,-3.617349625E0,-8.511868477E0,-8.715856671E-1
2.553303016E1,-2.858226538E0,-8.765507698E0,-1.690529227E0
2.555316953E1,-7.202396393E-1,-8.440083504E0,-9.314061999E-1
2.557343927E1,1.007976532E0,-6.682555676E0,9.332008660E-2
2.559370896E1,2.676970243E0,-5.686542988E0,3.038884699E-1
2.561397865E1,3.656233072E0,-5.239085197E0,6.221338734E-2
2.563437865E1,3.483949661E0,-4.707280159E0,7.537391186E-1
2.565451807E1,2.626721144E0,-4.767100811E0,2.647658348E0
2.567478776E1,1.798206210E0,-5.952146530E0,5.089533806E0
2.569505745E1,1.507478207E-1,-8.784649849E0,7.103094101E0
2.571532719E1,-1.551147223E0,-1.476311779E1,7.409973621E0
2.573559688E1,-8.045865893E-1,-1.770329857E1,8.463413239E0
2.575586656E1,8.715856671E-1,-1.128156090E1,7.158128738E0
2.577613630E1,-1.435693540E-2,-6.395416737E0,6.526423931E0
2.579640599E1,-4.139583111E-1,-4.934598446E0,5.884549141E0
2.581667568E1,-7.878368497E-1,-9.895518303E0,2.834298372E0
2.583694537E1,-9.696913958E-1,-1.855035782E1,-2.346760750E0
2.585721510E1,2.054238319E0,-1.758784485E1,-3.314059258E0
2.587748479E1,2.221735716E0,-1.048714352E1,4.033700943E0
2.589775448E1,3.351746321E0,-5.564508915E0,5.413163185E0
2.591802417E1,2.013560295E0,-3.524627686E0,1.046261668E0
2.593829391E1,1.953739643E0,-6.649055958E0,-2.133799553E0
2.595856359E1,2.300698996E0,-9.081359863E0,-4.051048756E0
2.597883328E1,2.514258385E0,-1.118824005E1,-4.726422787E0
2.599910297E1,1.436890006E0,-1.227996540E1,-3.134597778E0
2.601937266E1,3.762713671E-1,-1.113559818E1,-2.080559254E0
2.603964234E1,-1.761715651E0,-8.779864311E0,1.864607096E0
2.605991208E1,-2.322234392E0,-8.363512993E0,5.539982796E0
2.608018177E1,-3.014956415E-1,-8.978468895E0,5.949155331E0
2.610045146E1,1.666600943E0,-8.892327309E0,1.462612867E0
2.612072115E1,1.618744493E0,-8.808578491E0,-2.913859844E0
2.614099083E1,2.153540403E-2,-8.183453560E0,-3.790230989E0
2.616126047E1,-7.974081635E-1,-8.784649849E0,-8.596215248E-1
2.618153021E1,-8.333004713E-1,-1.016112137E1,9.858429432E-1
2.620179995E1,-3.326023519E-1,-9.787840843E0,3.157927752E0
2.622206964E1,9.337990284E-1,-9.448060036E0,4.050450325E0
2.624233932E1,1.333998680E0,-9.469595909E0,1.785643935E0
2.626260901E1,3.643072546E-1,-9.589237213E0,-4.265206456E-1
2.628287870E1,-5.312066078E-1,-9.972088814E0,2.009970993E-1
2.630314839E1,-4.019941986E-1,-1.064746284E1,2.128415823E0
2.632341807E1,-2.703889608E-1,-1.096092224E1,1.584646821E0
2.634368776E1,-9.409775138E-1,-1.123370457E1,8.614161611E-2
2.636395745E1,-1.608574986E0,-1.197846985E1,8.949156404E-1
2.638422714E1,-1.728216171E0,-1.420020580E1,2.058425665E0
2.640449682E1,-1.804786444E0,-1.444666672E1,1.589432478E0
2.642476651E1,-2.200200319E0,-1.311326599E1,2.123630047E0
2.644503620E1,-1.237687469E0,-1.103749275E1,2.930011272E0
2.646530589E1,1.668993831E0,-1.059003448E1,3.236890793E0
2.648557557E1,4.173082829E0,-1.184925747E1,1.675574064E0
2.650584526E1,4.024727821E0,-1.279502106E1,-5.533402562E-1
2.652611495E1,4.570889473E0,-1.304626751E1,-2.440080881E0
2.654638464E1,4.939383984E0,-1.344586849E1,-1.846062660E0
2.656665432E1,2.291127682E0,-1.151665497E1,2.099701881E0
2.658692401E1,-6.029912829E-1,-1.009172916E1,3.509672642E0
2.660719370E1,-2.501696110E0,-8.858827591E0,2.341377020E0
2.662746339E1,-3.299104214E0,-7.429714203E0,1.374078393E0
2.664773307E1,-2.685943365E0,-6.979265213E0,6.101697683E-1
2.666800276E1,-1.074975610E0,-7.317251682E0,-3.738785386E-1
2.668827245E1,9.092725813E-2,-7.408178806E0,-8.189435601E-1
2.670854214E1,1.165902853E0,-6.424130440E0,-1.393819153E-1
2.672881182E1,2.801397085E0,-5.330012321E0,-1.974078640E-2
2.674908151E1,3.177070379E0,-4.288536549E0,-3.499503136E-1
2.676935120E1,2.449652195E0,-3.361915827E0,1.048654556E0
2.678962089E1,1.776670814E0,-3.708875179E0,3.447459221E0
2.680989052E1,1.603191197E-1,-5.581258774E0,6.658029079E0
2.683029052E1,-3.882952929E0,-1.275195026E1,1.054158020E1
2.685042995E1,-5.269593716E0,-2.298007011E1,1.095075321E1
2.687069964E1,6.705885530E-1,-1.490190125E1,6.430710793E0
2.689096932E1,1.110867858E0,-7.700103283E0,6.564708710E0
2.691123896E1,1.582852125E0,-8.334799767E0,6.643671989E0
2.693163896E1,2.013560295E0,-1.624726486E1,8.135597110E-1
2.695177839E1,3.136392355E0,-1.645544052E1,-5.645864964E0
2.697204802E1,3.926621914E0,-1.036211872E1,-2.947359324E0
2.699231771E1,4.063013077E0,-5.459224701E0,2.865405083E0
2.701258740E1,1.903490424E0,-3.543770313E0,3.399602890E0
2.703298740E1,-9.571290575E-3,-5.837290764E0,3.326023519E-1
2.705312677E1,-4.402793646E-1,-8.799007416E0,-1.613958836E0
2.707339646E1,2.057827413E-1,-1.130070305E1,-3.306880951E0
2.709366609E1,3.547359705E-1,-1.248634720E1,-4.948955536E0
2.711393578E1,-4.546362907E-2,-1.104706383E1,-4.137190342E0
2.713433578E1,3.355933726E-1,-9.007183075E0,-2.289333105E0
2.715447516E1,5.748756528E-1,-7.463213921E0,2.288734913E0
2.717474484E1,4.241278172E-1,-8.526225090E0,6.028118610E0
2.719501453E1,1.201795220E0,-9.400203705E0,6.195616245E0
2.721528417E1,2.288734913E0,-9.723235130E0,1.393221021E0
2.723555386E1,1.439282775E0,-9.857233047E0,-3.749552965E0
2.725582354E1,-5.431707501E-1,-9.043074608E0,-3.675375462E0
2.727609323E1,-1.345364571E0,-8.784649849E0,-1.776670814E-1
2.729636287E1,-9.936196208E-1,-9.503094673E0,2.319841623E0
2.731663255E1,4.408775866E-1,-9.656235695E0,3.540779352E0
2.733690224E1,1.268794179E0,-9.464810371E0,1.857428551E0
2.735717193E1,5.150550604E-1,-9.047860146E0,-6.251249313E-1
2.737744162E1,-1.316052526E-1,-8.710473061E0,-2.805584669E-1
2.739771125E1,7.878368497E-1,-9.778269768E0,2.269592285E0
2.741798094E1,1.247258782E0,-1.132463169E1,3.155534744E0
2.743825063E1,-2.440679073E-1,-1.170090294E1,9.332008362E-1
2.745852031E1,-1.778465390E0,-1.207418346E1,-8.913264424E-2
2.747879000E1,-2.214557409E0,-1.403270817E1,6.675975323E-1
2.749905964E1,-1.259222865E0,-1.461715508E1,1.957927108E0
2.751932932E1,-9.290133715E-1,-1.327837086E1,3.332603693E0
2.753959901E1,-1.620539188E0,-1.239721394E1,3.095116138E0
2.755986870E1,1.627119333E-1,-1.095613670E1,2.022533417E0
2.758013833E1,3.515056372E0,-1.101356411E1,1.084546804E0
2.760040802E1,3.962514400E0,-1.186122227E1,-8.165507317E-1
2.762067771E1,4.012763500E0,-1.215553856E1,-2.789433002E0
2.764094740E1,4.771886349E0,-1.257488155E1,-2.586043119E0
2.766121703E1,3.378067255E0,-1.122652531E1,1.697109461E0
2.768148672E1,-1.268195957E-1,-9.558130264E0,4.136591911E0
2.770175641E1,-2.130808592E0,-9.090931892E0,3.071187973E0
2.772202604E1,-2.695514679E0,-8.535796165E0,1.761715651E0
2.774229573E1,-1.826920033E0,-7.867600918E0,2.632105052E-1
2.776256542E1,-8.859425783E-1,-7.932207108E0,-9.074779749E-1
2.778283505E1,-3.493520916E-1,-8.099704742E0,-1.054038405E0
2.780310474E1,8.524430394E-1,-6.974479675E0,2.344966233E-1
2.782337443E1,2.633899450E0,-5.070989609E0,8.374879360E-1
2.784364412E1,3.471985579E0,-3.878765583E0,5.551348329E-1
2.786391375E1,2.602792740E0,-3.050250769E0,9.284151793E-1
2.788418344E1,1.932204247E0,-3.598805189E0,2.953939438E0
2.790445313E1,1.019940615E0,-5.447260857E0,5.992226124E0
2.792472276E1,-2.075773716E0,-1.201196957E1,9.449854851E0
2.794499245E1,-5.951548100E0,-2.355913353E1,9.001798630E0
2.796526208E1,-5.216353536E-1,-1.659901047E1,6.289534092E0
2.798553172E1,1.630708575E0,-7.846065521E0,7.174878597E0
2.800580146E1,2.937788010E0,-6.699305058E0,7.383652687E0
2.802607109E1,3.275176048E0,-1.440598869E1,3.952344894E0
2.804634078E1,3.110071182E0,-1.736531258E1,-2.782254457E0
2.806661042E1,2.092523336E0,-9.976874352E0,-3.259024382E0
2.808688011E1,1.764706731E0,-5.626722336E0,1.070189953E0
2.810714974E1,1.199402332E0,-3.931407690E0,2.846262455E0
2.812741943E1,3.619144261E-1,-5.291727066E0,7.513462901E-1
2.814768906E1,-3.493520916E-1,-8.471190453E0,-1.625923038E0
2.816795875E1,9.553344250E-1,-1.138684464E1,-2.846860647E0
2.818822844E1,1.259222865E0,-1.315633678E1,-4.012763500E0
2.820849807E1,5.629115105E-1,-1.232303619E1,-3.704089403E0
2.822889807E1,-1.674975902E-1,-1.001037312E1,-1.590030670E0
2.824903740E1,-2.013560295E0,-7.755138397E0,3.150749207E0
2.826930708E1,-1.381256819E0,-8.231309891E0,6.471388817E0
2.828957672E1,1.163509965E0,-8.854042053E0,6.068796635E0
2.830984641E1,3.601198196E0,-9.301499367E0,2.456232548E0
2.833024641E1,3.378067255E0,-9.584450722E0,-3.902693748E0
2.835038573E1,1.731207132E0,-8.657830238E0,-6.393023968E0
2.837065542E1,-1.196411327E-1,-7.465606689E0,-1.683350682E0
2.839092505E1,-7.950153351E-1,-8.075776100E0,9.260223508E-1
2.841119474E1,-1.309472203E0,-9.768698692E0,3.066402197E0
2.843159474E1,1.674975827E-2,-1.031426239E1,3.602992773E0
2.845173406E1,9.002995491E-1,-9.840482712E0,1.417149186E0
2.847200370E1,7.016952634E-1,-9.553344727E0,3.158525825E-1
2.849227333E1,1.307677627E0,-9.790233612E0,1.168295622E0
2.851254302E1,2.178664923E0,-1.034536839E1,2.109273195E0
2.853294302E1,6.945167780E-1,-1.039083195E1,1.331007600E0
2.855308229E1,-1.307079315E0,-1.097049332E1,-7.716853172E-2
2.857335198E1,-2.626122952E0,-1.361874962E1,5.958128572E-1
2.859362162E1,-2.630908489E0,-1.591705608E1,1.055832982E0
2.861389125E1,-2.068595171E0,-1.474158192E1,1.187438250E0
2.863416094E1,-1.677966833E0,-1.271366501E1,2.403590441E0
2.865443057E1,9.290133715E-1,-1.160997581E1,2.293520451E0
2.867470026E1,5.032704353E0,-1.104467106E1,1.771286964E0
2.869496990E1,5.403591633E0,-1.225843048E1,2.057827413E-1
2.871523953E1,4.879563808E0,-1.216750336E1,-2.030309916E0
2.873550922E1,5.990431309E0,-1.242114258E1,-2.578864574E0
2.875577886E1,5.523830891E0,-1.260598755E1,7.393822074E-1
2.877604849E1,1.546959877E0,-1.011805058E1,3.789632797E0
2.879631818E1,-1.039083242E0,-8.772686005E0,2.726621389E0
2.881658781E1,-2.767299414E0,-7.843672752E0,1.395613790E0
2.883685745E1,-3.172284603E0,-7.156334400E0,3.134597540E-1
2.885712714E1,-2.757728100E0,-7.580461979E0,-3.170489892E-2
2.887739677E1,-1.220937729E0,-7.891529083E0,-5.892325640E-1
2.889766641E1,-4.019941986E-1,-6.972086906E0,-2.303091735E-1
2.891793604E1,6.825526357E-1,-5.061418056E0,9.571290612E-1
2.893820573E1,2.681756020E0,-4.257429600E0,9.619147182E-1
2.895847536E1,3.644268990E0,-3.924229145E0,4.163511395E-1
2.897874500E1,2.782254457E0,-3.342773199E0,1.953141451E0
2.899901469E1,1.350748420E0,-4.221537113E0,4.960321426E0
2.901928432E1,-1.694716692E0,-8.368298531E0,1.016530895E1
2.903955396E1,-6.780063152E0,-2.135893250E1,1.203529930E1
2.905982359E1,-3.380460262E0,-1.954158401E1,5.961119175E0
2.908009328E1,-4.307080805E-1,-9.605986595E0,6.552744865E0
2.910036292E1,1.295115232E0,-5.959324837E0,8.307282448E0
2.912063255E1,3.828516245E0,-1.176311588E1,7.026523590E0
2.914090219E1,3.967299938E0,-1.842353821E1,-1.444068432E0
2.916117182E1,3.098107100E0,-1.242114258E1,-3.708875179E0
2.918144151E1,2.540579557E0,-6.864409924E0,-4.648058116E-1
2.920171115E1,2.145165443E0,-4.582853794E0,1.125224829E0
2.922198078E1,1.094118118E0,-4.800600529E0,6.173482537E-1
2.924225042E1,1.435693651E-1,-8.128418922E0,-1.396211982E0
2.926252005E1,1.122832060E0,-1.116909790E1,-2.581257343E0
2.928278969E1,1.575673699E0,-1.251266766E1,-2.700898647E0
2.930305938E1,1.372283816E0,-1.161236858E1,-3.045464993E0
2.932332901E1,1.115653515E0,-9.754341125E0,-2.538186550E0
2.934359865E1,-2.392822644E-3,-8.648259163E0,-4.097708762E-1
2.936386828E1,-1.228116274E0,-7.972885132E0,3.191427231E0
2.938413792E1,8.374879509E-2,-8.569295883E0,5.585446358E0
2.940440755E1,2.674577475E0,-9.330213547E0,5.212165833E0
2.942467719E1,3.751945972E0,-9.984052658E0,2.919243574E-1
2.944494688E1,2.380260229E0,-9.687342644E0,-4.192823410E0
2.946521651E1,1.004985496E-1,-8.497511864E0,-3.035893679E0
2.948548615E1,-1.022333503E0,-8.315058708E0,-3.834498227E-1
2.950575578E1,-1.886740685E0,-8.918647766E0,1.091725349E0
2.952602542E1,-2.365305185E0,-9.622735977E0,2.843869686E0
2.954629505E1,-1.656431437E0,-1.002233791E1,2.877369165E0
2.956656469E1,-1.722832322E-1,-9.701699257E0,1.441077471E0
2.958683432E1,5.676971674E-1,-9.527023315E0,1.223330617E0
2.960710396E1,1.307677627E0,-1.025204849E1,2.394019127E0
2.962737359E1,1.034297585E0,-1.019701385E1,2.257628202E0
2.964764323E1,-1.938186288E-1,-1.050867844E1,5.575276613E-1
2.966791286E1,-1.256830096E0,-1.212443256E1,-2.422732860E-1
2.968831286E1,-1.960918188E0,-1.428156185E1,1.462612867E0
2.970845214E1,-1.965703845E0,-1.514118385E1,2.870190859E0
2.972872177E1,-2.176272154E0,-1.344347572E1,3.729812384E0
2.974899141E1,-1.522433400E0,-1.198804188E1,2.807977438E0
2.976926104E1,1.898704767E0,-1.129113197E1,1.639681697E0
2.978953068E1,4.328616142E0,-1.237807178E1,8.590233326E-1
2.980980031E1,4.501497746E0,-1.341236877E1,-1.673779488E0
2.983020031E1,5.645864964E0,-1.359003639E1,-3.716053486E0
2.985033958E1,5.578866005E0,-1.267537975E1,1.914258152E-1
2.987060922E1,2.344367981E0,-9.902696609E0,4.290330887E0
2.989087880E1,-2.392822653E-1,-9.284749985E0,3.803989887E0
2.991114849E1,-1.448255897E0,-8.727222443E0,2.767299414E0
2.993154849E1,-2.197807550E0,-7.398607731E0,8.422735929E-1
2.995168771E1,-2.429911375E0,-6.713662148E0,-5.078766346E-1
2.997195734E1,-1.247258782E0,-6.933801651E0,-1.077966571E0
2.999222698E1,-5.407779217E-1,-6.546164513E0,-1.092323542E0
3.001249662E1,2.709871531E-1,-5.330012321E0,3.589234129E-2
3.003289662E1,2.373081923E0,-4.506283283E0,1.890329868E-1
3.005303583E1,3.383451223E0,-4.034298897E0,-1.657029688E-1
3.007330552E1,2.698505640E0,-3.632304668E0,1.065404296E0
3.009357516E1,1.721635938E0,-4.334000111E0,3.363710403E0
3.011384479E1,9.092725813E-2,-7.434499741E0,7.026523590E0
3.013424479E1,-4.685146809E0,-1.842593002E1,1.056311512E1
3.015438401E1,-3.866203070E0,-2.405026054E1,9.490532875E0
3.017465365E1,3.164508045E-1,-1.184207916E1,7.345367432E0
3.019492328E1,1.204187989E0,-5.320441246E0,7.201199532E0
3.021519292E1,2.676970243E0,-5.387440205E0,5.492125988E0
3.023546255E1,3.622733593E0,-1.370967770E1,1.235294700E0
3.025573219E1,4.350151539E0,-1.945783615E1,-6.011966705E0
3.027600182E1,4.022335052E0,-1.276152134E1,-4.127619267E0
3.029627141E1,2.552543640E0,-6.443273067E0,4.905286312E0
3.031654104E1,6.969096065E-1,-4.134797573E0,4.931607246E0
3.033681068E1,-5.264209956E-2,-5.882754326E0,6.843472719E-1
3.035708031E1,-1.196411345E-2,-8.755936623E0,-1.092323542E0
3.037734995E1,1.333998680E0,-1.168654537E1,-2.743969440E0
3.039761958E1,1.630708575E0,-1.273998642E1,-4.432105541E0
3.041788917E1,6.346961856E-1,-1.062592697E1,-3.873979807E0
3.043815880E1,3.332005441E-1,-8.298309326E0,-2.648256540E0
3.045842844E1,-6.987041831E-1,-6.811768055E0,1.196411345E-2
3.047869807E1,-1.776072621E0,-7.783852100E0,3.607778311E0
3.049896771E1,4.546362907E-2,-9.098110199E0,5.343770981E0
3.051923729E1,3.471985579E0,-9.950552940E0,2.017747641E0
3.053950693E1,4.283152580E0,-9.792626381E0,-2.894717216E0
3.055977656E1,1.106082320E0,-8.767900467E0,-2.167299032E0
3.058004620E1,-1.345364571E0,-9.448060036E0,1.314257860E0
3.060031583E1,-1.956132531E0,-1.005105114E1,2.705085993E0
3.062058547E1,-6.747759581E-1,-9.385847092E0,1.900499344E0
3.064085505E1,1.531406492E-1,-8.925827026E0,-1.992024779E-1
3.066112469E1,2.632104978E-2,-9.279964447E0,-1.211964726E0
3.068139432E1,1.220339537E-1,-9.608379364E0,-3.547359705E-1
3.070166396E1,1.312463164E0,-9.448060036E0,1.199402332E0
3.072193354E1,1.948953986E0,-1.010608673E1,2.707478762E0
3.074220318E1,9.433703423E-1,-1.065224838E1,2.154736757E0
3.076247281E1,-3.469592929E-1,-1.072403336E1,7.130611539E-1
3.078274245E1,-6.029912829E-1,-1.063789082E1,-1.322034448E-1
3.080301203E1,-1.674975902E-1,-1.189472103E1,1.130010486E0
3.082341203E1,-8.931210637E-1,-1.521057510E1,3.674777269E0
3.084370922E1,-2.190629244E0,-1.427677631E1,3.533600807E0
3.086397891E1,-3.217748165E0,-1.243071365E1,2.819941521E0
3.088409125E1,-8.380861282E-1,-1.196172047E1,1.953141451E0
3.090436068E1,2.789433002E0,-1.250309658E1,4.785645306E-1
3.092463021E1,4.170690060E0,-1.391545963E1,-1.860419631E0
3.094489974E1,5.976074696E0,-1.492104340E1,-3.929014683E0
3.096516927E1,5.956932068E0,-1.297926807E1,-2.949153781E-1
3.098543880E1,2.094916344E0,-9.172286987E0,4.713860512E0
3.100570839E1,-6.101697683E-1,-9.179466248E0,4.129413605E0
3.102597797E1,-2.286342144E0,-8.648259163E0,2.894119024E0
3.104624755E1,-2.427518606E0,-7.759923935E0,1.004985452E0
3.106651719E1,-1.266401410E0,-6.814160824E0,-6.658028960E-1
3.108678677E1,-1.175474167E0,-6.455237389E0,-9.816554785E-1
3.110705641E1,-5.694918036E-1,-6.656234264E0,-1.944168359E-1
3.112732594E1,8.883354068E-1,-6.354738712E0,3.469592929E-1
3.114759557E1,2.980858803E0,-5.128417015E0,-1.974078640E-2
3.116786521E1,3.668197155E0,-4.307679176E0,-6.610172391E-1
3.118813479E1,2.873181820E0,-3.830909014E0,9.667003751E-1
3.120840443E1,2.035095692E0,-4.508676052E0,3.114856958E0
3.122867401E1,6.346961856E-1,-6.471987247E0,5.386841774E0
3.124894365E1,-2.585444927E0,-1.271366501E1,7.809575081E0
3.126921323E1,-5.453841209E0,-2.193859482E1,1.107278633E1
3.128948287E1,-1.000798106E0,-1.564427471E1,8.896514893E0
3.130975245E1,4.546362907E-2,-8.157132149E0,8.367700577E0
3.133015245E1,1.427318692E0,-6.193821430E0,6.839883327E0
3.135029167E1,2.027917147E0,-9.105288506E0,3.899702787E0
3.137056125E1,1.783849239E0,-1.661336708E1,-3.864408493E0
3.139083083E1,3.902693748E0,-1.803829384E1,-8.755936623E0
3.141110047E1,4.053441525E0,-1.165543938E1,-4.125226021E0
3.143150047E1,2.717648268E0,-8.145168304E0,8.927620888E0
3.145163969E1,2.080559254E0,-4.733601570E0,7.295117855E0
3.147190932E1,4.576273263E-1,-3.534198999E0,3.756731451E-1
3.149217891E1,9.696913958E-1,-6.043073654E0,-3.268595695E0
3.151244849E1,1.561316729E0,-9.814162254E0,-5.440082073E0
3.153284849E1,1.412961721E0,-1.242832088E1,-5.078167915E0
3.155298771E1,1.098903775E0,-1.280459213E1,-4.141975880E0
3.157325734E1,4.169493318E-1,-1.077428246E1,-2.763111830E0
3.159352693E1,-1.582253933E0,-8.693722725E0,5.551348329E-1
3.161379656E1,-2.731407166E0,-8.181060791E0,5.156532764E0
3.163406615E1,-8.117650747E-1,-9.117252350E0,6.849454880E0
3.165433578E1,2.193022013E0,-9.040681839E0,3.837489367E0
3.167460536E1,2.338984251E0,-8.959325790E0,1.746760458E-1
3.169487495E1,1.043868899E0,-8.478368759E0,-2.327618122E0
3.171514458E1,-2.464607358E-1,-9.016754150E0,-2.904288530E0
3.173537484E1,-7.878368497E-1,-9.507881165E0,-1.226321578E0
3.175568370E1,-3.445664644E-1,-9.553344727E0,1.127617717E0
3.177595333E1,6.873382926E-1,-9.605986595E0,4.012165546E0
3.179622297E1,1.695314884E0,-9.806983948E0,3.564707518E0
3.181649260E1,2.202593327E0,-9.656235695E0,6.460621208E-2
3.183676219E1,1.996810555E0,-9.327820778E0,-1.235892892E0
3.185703177E1,1.544566989E0,-9.296713829E0,6.029912829E-1
3.187730141E1,9.744769931E-1,-9.816555023E0,4.402793646E-1
3.189757099E1,-4.713860750E-1,-1.069053364E1,3.349951655E-2
3.191784057E1,-1.577468276E0,-1.071685410E1,7.776673436E-1
3.193824057E1,-5.024927258E-1,-9.759127617E0,1.809572101E0
3.195837979E1,1.028913707E-1,-1.014437199E1,3.220141172E0
3.197864938E1,-1.749751568E0,-1.423370552E1,4.151547432E0
3.199891901E1,-3.260818958E0,-1.515075493E1,1.381256819E0
3.201918859E1,-3.540779352E0,-1.398006630E1,5.551348329E-1
3.203945818E1,-1.072582722E0,-1.300558949E1,1.151545882E0
3.205972781E1,2.784647465E0,-1.287398434E1,1.857428551E0
3.207999740E1,5.142774105E0,-1.414995670E1,1.173081279E0
3.210026698E1,6.323033810E0,-1.344347572E1,-1.314856052E0
3.212053662E1,6.129215240E0,-1.156451225E1,-1.640279889E0
3.214080615E1,4.992026329E0,-1.013958549E1,6.125625968E-1
3.216107578E1,9.505487680E-1,-9.157930374E0,2.281556368E0
3.218134542E1,-2.834298372E0,-8.495118141E0,3.025724173E0
3.220161500E1,-4.656432629E0,-8.866005898E0,3.263211966E0
3.222188458E1,-2.923431158E0,-9.052646637E0,1.821536183E0
3.224215417E1,-7.776673436E-1,-7.814958572E0,-2.159522474E-1
3.226242380E1,2.805584669E-1,-7.070192814E0,-1.929811478E0
3.228269339E1,3.762713671E-1,-7.254439831E0,-2.193620205E0
3.230296297E1,-2.392822644E-3,-7.170691490E0,-7.710871100E-1
3.232323255E1,1.472782373E0,-6.416952133E0,9.451649189E-1
3.234350214E1,3.160320520E0,-5.866004944E0,2.465803623E0
3.236377177E1,2.732005358E0,-6.476772785E0,1.984248161E0
3.238404136E1,5.006981492E-1,-7.719245911E0,1.902892232E0
3.240431094E1,-2.632104978E-2,-9.055039406E0,3.507279873E0
3.242458052E1,1.890329868E-1,-9.957731247E0,5.898906231E0
3.244485010E1,4.097708762E-1,-9.114859581E0,6.219544411E0
3.246511974E1,8.500502706E-1,-7.683353424E0,4.835894585E0
3.248535000E1,9.337990284E-1,-7.688138962E0,4.510470867E0
3.250565886E1,1.172483116E-1,-8.839685440E0,5.193023205E0
3.252592844E1,-1.632503271E0,-1.027358437E1,6.142973900E0
3.254619807E1,-2.676372051E0,-1.169611740E1,5.415555954E0
3.256646766E1,-2.611765862E0,-1.088913727E1,3.394817114E0
3.258673729E1,-1.106082320E0,-8.135597229E0,3.744169235E0
3.260700688E1,-3.302095234E-1,-6.629913330E0,4.213760853E0
3.262727646E1,1.700100541E0,-8.722436905E0,5.286343575E0
3.264754604E1,3.212962627E0,-1.647458458E1,5.405984402E0
3.266781563E1,5.758327484E0,-2.317149544E1,-8.285148144E-1
3.268808521E1,8.458627701E0,-2.125364876E1,3.222533941E0
3.270835484E1,8.237292171E-1,-6.337988853E0,3.232105255E0
3.272875484E1,-8.620143533E-1,-9.152546525E-2,-7.950153351E-1
3.274889401E1,-1.577468276E0,-2.135594189E-1,-3.787838221E0
3.276916359E1,-2.200200319E0,-3.605983734E0,-4.355535507E0
3.278943318E1,-1.661217093E0,-9.122037888E0,-3.869194269E0
3.280970276E1,-5.455635786E-1,-1.317308712E1,-4.101297855E0
3.283010276E1,5.557330847E-1,-1.475833225E1,-3.783052683E0
3.285024193E1,-8.309076428E-1,-1.564188194E1,4.450650215E-1
3.287051151E1,-2.432304144E0,-1.076231766E1,8.365307808E0
3.289078109E1,1.458425403E0,-7.965706348E0,1.052004433E1
3.291105068E1,4.194618225E0,-7.951349735E0,5.556732178E0
3.293145068E1,4.261617184E0,-7.855636597E0,9.954141974E-1
3.295158990E1,1.941775560E0,-7.747959614E0,-2.105085611E0
3.297185948E1,-1.579262912E-1,-8.452047348E0,-3.651447296E0
3.299212901E1,-2.943171859E-1,-9.924231529E0,-4.415356159E0
3.301239865E1,-8.069794178E-1,-1.051107121E1,-3.208775282E0
3.303279865E1,-1.515254974E0,-9.754341125E0,2.632104978E-2
3.305293781E1,-8.356932998E-1,-9.893125534E0,2.994617462E0
3.307320740E1,9.696913958E-1,-9.907482147E0,3.196212769E0
3.309347698E1,2.286342144E0,-9.646664619E0,2.027318954E0
3.311374656E1,2.547757864E0,-9.637093544E0,6.484549642E-1
3.313414656E1,2.660220623E0,-9.548559189E0,-2.781656384E-1
3.315428573E1,2.358724833E0,-9.574879646E0,5.503492057E-2
3.317455531E1,1.590030670E0,-9.586843491E0,1.091725349E0
3.319482490E1,6.059823632E-1,-9.284749985E0,1.182652593E0
3.321509448E1,9.571290761E-2,-9.596415520E0,5.694918036E-1
3.323536406E1,-2.871387079E-2,-1.022333431E1,-3.020938635E-1
3.325563365E1,-3.900300860E-1,-1.020179939E1,-3.834498227E-1
3.327590323E1,-6.915257573E-1,-1.002951622E1,1.474576950E0
3.329617281E1,-3.134597540E-1,-1.097767162E1,4.050450325E0
3.331644240E1,-5.407779217E-1,-1.326401424E1,4.421936035E0
3.333671198E1,-1.476969719E0,-1.303430271E1,2.537588358E0
3.335698156E1,-2.011167526E0,-1.259641647E1,1.587039590E0
3.337725115E1,-1.768894196E0,-1.227996540E1,1.838286042E0
3.339752073E1,8.165507317E-1,-1.217946720E1,1.441077471E0
3.341779026E1,3.117249727E0,-1.211725426E1,-6.370890141E-1
3.343805984E1,3.512663603E0,-1.124806118E1,-2.928216696E0
3.345832943E1,2.365903378E0,-1.048475075E1,-1.518245935E0
3.347859901E1,1.467996716E0,-1.078863907E1,5.647061467E-1
3.349886859E1,-2.105683982E-1,-1.055653572E1,2.078166485E0
3.351913818E1,-1.759322882E0,-9.873982430E0,3.282354355E0
3.353940776E1,-1.713859200E0,-9.110074043E0,2.831905603E0
3.355967734E1,-9.888339639E-1,-7.972885132E0,1.084546804E0
3.357994693E1,-1.637288928E0,-7.456035137E0,-6.825526357E-1
3.360021651E1,-1.077368379E0,-7.788637638E0,-1.207179070E0
3.362048609E1,-1.674975902E-1,-8.183453560E0,-2.015953064E-1
3.364075563E1,1.268195957E-1,-8.128418922E0,8.063812256E-1
3.366102521E1,1.266401410E0,-8.195417404E0,1.596610904E0
3.368129479E1,2.444866419E0,-8.423334122E0,2.094916344E0
3.370156438E1,2.224128723E0,-8.619544983E0,2.070987940E0
3.372183391E1,1.735992789E0,-8.425726891E0,2.094916344E0
3.374210354E1,1.812563181E0,-7.917850018E0,2.092523336E0
3.376237313E1,2.137987137E0,-7.719245911E0,2.810370207E0
3.378264271E1,2.430509567E0,-7.996813297E0,4.100699902E0
3.380291224E1,2.001596212E0,-8.686544418E0,5.063212872E0
3.382318182E1,5.772684813E-1,-1.005823040E1,5.824728489E0
3.384345141E1,-1.398006678E0,-1.205504036E1,6.870990276E0
3.386372099E1,-3.351746321E0,-1.276152134E1,6.679564476E0
3.388399057E1,-3.174677372E0,-1.168175983E1,4.491328239E0
3.390426010E1,-1.230509043E0,-1.195214939E1,2.377269268E0
3.392452969E1,1.661815286E0,-1.435573959E1,-3.140579760E-1
3.394479927E1,4.819743156E0,-1.497847176E1,-1.987239242E0
3.396506886E1,5.238486767E0,-1.009412193E1,-1.776670814E0
3.398533844E1,4.496711731E0,-5.612365723E0,7.633104324E-1
3.400560802E1,3.637090445E0,-3.682554007E0,2.968296528E0
3.402587755E1,1.752742529E0,-5.176273346E0,1.728216171E0
3.404614714E1,-1.148554832E-1,-7.992027760E0,-6.107679605E-1
3.406641672E1,-9.122636318E-1,-1.063789082E1,-2.868396044E0
3.408668625E1,-6.652047038E-1,-1.271845055E1,-3.687339783E0
3.410695583E1,-4.546362907E-2,-1.288355541E1,-2.313261271E0
3.412722536E1,1.434497118E0,-1.090110207E1,9.403793216E-1
3.414749500E1,1.980060697E0,-9.134002686E0,2.587837696E0
3.416776458E1,1.731207132E0,-8.444869041E0,2.102094650E0
3.418816458E1,1.700100541E0,-8.231309891E0,5.216353536E-1
3.420830370E1,1.597209096E0,-8.030312538E0,-9.218349457E-1
3.422857328E1,1.463211060E0,-8.507082939E0,-1.166501045E0
3.424884281E1,1.156331539E0,-1.010847950E1,-1.082752272E-1
3.426911240E1,4.360919297E-1,-1.101595688E1,1.127617717E0
3.428938198E1,5.676971674E-1,-1.072881889E1,1.917249203E0
3.430965156E1,1.518245935E0,-1.001276588E1,2.046461582E0
3.433005156E1,1.905883193E0,-9.725627899E0,1.431506157E0
3.435019068E1,1.786242127E0,-1.021615601E1,7.322037220E-1
3.437046026E1,1.673779488E0,-1.054457092E1,-2.392822644E-3
3.439072984E1,2.078166485E0,-1.024487019E1,-5.892325640E-1
3.441099938E1,2.657827854E0,-9.742377281E0,-4.935196638E-1
3.443139938E1,2.894717216E0,-9.692128181E0,5.096712112E-1
3.445153854E1,2.149951220E0,-1.027358437E1,1.682752490E0
3.447180807E1,4.265206456E-1,-1.059242725E1,1.991426587E0
3.449207766E1,-6.412764788E-1,-1.010369396E1,1.797608018E0
3.451234724E1,-7.561319470E-1,-9.543772697E0,1.082154036E0
3.453274724E1,-4.043870270E-1,-9.311071396E0,1.028913707E-1
3.455288636E1,2.584248483E-1,-9.270393372E0,-6.801598072E-1
3.457315594E1,7.351947427E-1,-9.407382011E0,-9.026923180E-1
3.459342547E1,9.792626500E-1,-9.529416084E0,-5.700899959E-1
3.461369505E1,9.840483069E-1,-9.486345291E0,-8.673982322E-2
3.463409505E1,9.433703423E-1,-9.421739578E0,3.828516304E-1
3.465423417E1,7.686942816E-1,-9.617950439E0,9.523434043E-1
3.467450365E1,1.005583763E0,-9.890732765E0,1.290329576E0
3.469477333E1,1.659422517E0,-9.601201057E0,1.036690354E0
3.471504286E1,1.884347796E0,-9.548559189E0,3.780659735E-1
3.473527313E1,1.331605792E0,-9.732806206E0,-2.685943544E-1
3.475558198E1,2.781656384E-1,-9.605986595E0,-5.724828243E-1
3.477585156E1,-4.139583111E-1,-9.668199539E0,-3.355933726E-1
3.479612115E1,-7.058826685E-1,-9.909874916E0,1.196411327E-1
3.481639068E1,-4.713860750E-1,-9.984052658E0,7.968099117E-1
3.483666026E1,2.488535494E-1,-9.728020668E0,1.584646821E0
3.485692979E1,1.177866936E0,-9.670592308E0,1.955534339E0
3.487719938E1,1.611566067E0,-9.850054741E0,1.438684583E0
3.489746891E1,1.537388563E0,-9.929018021E0,5.024927258E-1
3.491773849E1,1.156331539E0,-9.775876999E0,-1.345962733E-1
3.493800802E1,7.710871100E-1,-9.560523033E0,-1.082752272E-1
3.495827760E1,4.313062727E-1,-9.560523033E0,2.967100143E-1
3.497854719E1,3.834498227E-1,-9.579665184E0,7.680960894E-1
3.499881672E1,7.184450030E-1,-9.749555588E0,1.012163997E0
3.501908630E1,1.141974568E0,-9.914660454E0,1.122832060E0
3.503935583E1,1.077368379E0,-9.897911072E0,1.319043517E0
3.505962542E1,4.528416991E-1,-9.744770050E0,1.706680775E0
3.507989495E1,-1.363908947E-1,-9.826126099E0,1.766501307E0
3.510016453E1,-6.029912829E-1,-1.065224838E1,1.742573142E0
3.512043406E1,-9.625129104E-1,-1.223689461E1,1.778465390E0
3.514070365E1,-7.902296782E-1,-1.230150127E1,1.986641049E0
3.516097318E1,-7.178468257E-2,-1.150469112E1,2.654836655E0
3.518124276E1,1.098903775E0,-1.065942669E1,3.851846218E0
3.520151224E1,2.566900492E0,-1.014437199E1,5.752943993E0
3.522178188E1,3.677768469E0,-1.074556828E1,4.646861553E0
3.524205141E1,4.326223373E0,-1.176550865E1,9.020941257E-1
3.526232094E1,3.984049797E0,-1.141077328E1,-2.361117840E0
3.528259052E1,3.567698479E0,-1.051107121E1,-2.291725874E0
3.530286005E1,1.527817249E0,-1.044407272E1,5.264210105E-1
3.532312958E1,-6.005984545E-1,-1.074556828E1,3.861417532E0
3.534339917E1,-9.984052777E-1,-1.031665516E1,4.967499733E0
3.536366870E1,-3.349951804E-1,-9.491130829E0,3.971487284E0
3.538393828E1,-8.374879509E-2,-8.281558990E0,2.367697954E0
3.540420781E1,-1.866401732E-1,-7.158727169E0,8.685946465E-1
3.542447740E1,-4.235295951E-1,-6.119643688E0,7.106683254E-1
3.544474693E1,-4.019941986E-1,-5.533402443E0,1.474576950E0
3.546501646E1,-2.943171859E-1,-5.344369411E0,1.816750646E0
3.548520750E1,3.140579760E-1,-5.703292847E0,2.152343988E0
3.550555547E1,1.141974568E0,-6.177071571E0,2.544766903E0
3.552582510E1,1.367498159E0,-6.229713917E0,3.366103172E0
3.554609464E1,3.882354796E-1,-6.464808464E0,5.012963295E0
3.556636417E1,-8.668000102E-1,-8.504690170E0,6.272784710E0
3.558663375E1,-2.200200319E0,-1.177986622E1,6.564708710E0
3.560690333E1,-2.281556368E0,-1.338844109E1,7.756932735E0
3.562717292E1,-4.977070987E-1,-1.216750336E1,8.146963120E0
3.564744245E1,-4.019941986E-1,-1.003190899E1,7.239484787E0
3.566771203E1,9.092725813E-2,-8.825327873E0,6.346961975E0
3.568798156E1,1.180259824E0,-9.150752068E0,6.025725842E0
3.570825104E1,1.889133453E0,-1.340997601E1,4.414757729E0
3.572852068E1,8.213363886E-1,-1.523689651E1,-1.587637782E0
3.574879021E1,3.858426511E-1,-1.109013462E1,-4.353142738E0
3.576905979E1,1.848455548E0,-7.384250641E0,-2.303091735E-1
3.578932932E1,2.813361168E0,-7.007979393E0,5.994618893E0
3.580959886E1,3.426522017E0,-6.369095802E0,4.682754040E0
3.582999886E1,2.382653236E0,-6.524629116E0,8.135597110E-1
3.585013797E1,2.349153519E0,-8.394619942E0,-1.597209096E0
3.587040750E1,2.382653236E0,-1.142752266E1,-3.900300980E0
3.589067708E1,1.290329576E0,-1.276152134E1,-4.556532383E0
3.591094662E1,1.986042857E-1,-1.139641571E1,-3.328416348E0
3.593134662E1,-1.218544960E0,-9.926624298E0,-1.111466169E0
3.595148573E1,-3.232105255E0,-8.655437469E0,3.083152056E0
3.597175526E1,-1.960918188E0,-8.545368195E0,6.164509296E0
3.599202479E1,1.305284739E0,-9.505488396E0,5.673980713E0
3.601229438E1,3.375674486E0,-9.926624298E0,1.424327731E0
3.603269438E1,2.224128723E0,-9.469595909E0,-1.314856052E0
3.605283344E1,9.194421172E-1,-8.767900467E0,-3.000001431E0
3.607310302E1,-2.440679073E-1,-8.514261246E0,-2.681756020E0
3.609337255E1,-1.012762189E0,-8.942576408E0,-6.011967063E-1
3.611364208E1,-1.197009563E0,-9.632308006E0,1.261615753E0
3.613404208E1,-1.031904817E0,-9.723235130E0,2.726621389E0
3.615418120E1,4.307080805E-2,-9.830911636E0,2.647658348E0
3.617445073E1,1.053440213E0,-9.687342644E0,1.663609982E0
3.619472026E1,1.213759303E0,-9.622735977E0,7.633104324E-1
3.621498984E1,9.314061999E-1,-9.931410789E0,7.178468108E-1
3.623525938E1,3.643072546E-1,-1.019701385E1,5.359922647E-1
3.625552891E1,-5.216353536E-1,-1.013479996E1,-1.734796353E-2
3.627579849E1,-1.498505235E0,-9.979267120E0,-9.391828626E-2
3.629606802E1,-1.512862086E0,-1.090588760E1,1.273579836E0
3.631633755E1,3.403790295E-1,-1.106142044E1,2.542374134E0
3.633660714E1,1.491924882E0,-1.256770229E1,3.445066452E0
3.635687667E1,8.907282352E-1,-1.347936821E1,3.210569859E0
3.637714620E1,-3.637090325E-1,-1.209093285E1,2.470589399E0
3.639741573E1,-5.455635786E-1,-1.178465176E1,2.173879385E0
3.641768531E1,1.726421595E0,-1.135573769E1,2.166700840E0
3.643808531E1,4.106083870E0,-1.216511059E1,9.834501147E-1
3.645822438E1,4.872385025E0,-1.320419312E1,-1.996810555E0
3.647849391E1,5.650650501E0,-1.393699551E1,-3.416950703E0
3.649876349E1,4.786243439E0,-1.253659630E1,1.421934843E0
3.651903302E1,5.724828243E-1,-1.001755238E1,5.139782906E0
3.653930255E1,-1.932204247E0,-9.081359863E0,3.643670797E0
3.655957208E1,-2.212164640E0,-8.815756798E0,3.198605776E0
3.657984167E1,-1.369292736E0,-8.209774017E0,2.029711723E0
3.660011115E1,-1.003190875E0,-7.197012424E0,1.603191197E-1
3.662038073E1,-9.122636318E-1,-6.651448727E0,-6.203392744E-1
3.664065026E1,-7.274180651E-1,-6.112465382E0,-1.561316848E-1
3.666091979E1,3.349951655E-2,-5.277370453E0,3.326023519E-1
3.668118938E1,1.247258782E0,-4.731208801E0,1.794617027E-1
3.670145891E1,2.257628202E0,-4.728815556E0,4.929214716E-1
3.672172844E1,2.341975212E0,-4.946562767E0,2.166700840E0
3.674199797E1,1.874776483E0,-5.495117188E0,3.725026608E0
3.676226750E1,3.571287692E-1,-6.366703033E0,5.377270699E0
3.678253708E1,-2.130808592E0,-1.187557888E1,8.453842163E0
3.680280662E1,-2.892324448E0,-1.983410645E1,9.485747337E0
3.682307615E1,-1.674975827E-2,-1.573280907E1,8.444271088E0
3.684334568E1,6.753742099E-1,-9.402596474E0,7.881359577E0
3.686361521E1,5.078766346E-1,-6.718447685E0,7.227520943E0
3.688388479E1,1.764706731E0,-8.923434258E0,6.318248272E0
3.690415432E1,2.805584669E-1,-1.457408428E1,1.546361685E0
3.692442386E1,-3.254238665E-1,-1.537328720E1,-6.000002861E0
3.694469339E1,1.546959877E0,-1.126481056E1,-5.478367329E0
3.696496297E1,1.084546804E0,-7.360322475E0,7.058826685E-1
3.698523250E1,9.002995491E-1,-7.003193855E0,9.483354568E0
3.700550203E1,2.126022816E0,-4.735994339E0,4.539184570E0
3.702577156E1,1.807777524E0,-5.149952412E0,3.158525825E-1
3.704604104E1,3.028715372E0,-9.057432175E0,-2.712862730E0
3.706631068E1,3.256033421E0,-1.305105305E1,-4.905884743E0
3.708658021E1,1.731207132E0,-1.350090313E1,-4.728815556E0
3.710684974E1,7.447660565E-1,-1.046560764E1,-3.117249727E0
3.712711927E1,-9.481559992E-1,-8.408976555E0,-7.477571070E-2
3.714738880E1,-2.654836655E0,-8.094919205E0,4.347758770E0
3.716765833E1,-2.488535494E-1,-8.569295883E0,5.772086620E0
3.718792792E1,2.655434847E0,-9.550951958E0,2.898904562E0
3.720819745E1,2.911466837E0,-9.656235695E0,-1.257428288E0
3.722859745E1,1.094118118E0,-8.813364029E0,-3.266202927E0
3.724873651E1,-4.091726840E-1,-8.875576973E0,-1.171286702E0
3.726900609E1,-1.141974568E0,-9.251250267E0,5.670989752E-1
3.728927563E1,-6.532405615E-1,-9.591629982E0,1.881356835E0
3.730954511E1,-3.182454109E-1,-9.986445427E0,2.819941521E0
3.732994510E1,-3.589234054E-1,-9.780662537E0,1.826321840E0
3.735008422E1,-1.698904037E-1,-9.481559753E0,3.086741269E-1
3.737035375E1,3.906283081E-1,-9.193822861E0,-3.649054468E-2
3.739062328E1,1.515853167E0,-9.498309135E0,1.197009563E0
3.741089286E1,1.683350682E0,-1.015394306E1,2.142772675E0
3.743129286E1,5.174478889E-1,-1.024487019E1,1.034297585E0
3.745143193E1,-9.768698215E-1,-1.053021431E1,5.072783828E-1
3.747170141E1,-1.029511929E0,-1.147119141E1,5.838487148E-1
3.749197099E1,-3.804588020E-1,-1.393220997E1,1.345364571E0
3.751224052E1,-3.517449200E-1,-1.389153194E1,2.922832966E0
3.753264052E1,-1.295115232E0,-1.253898907E1,3.437887907E0
3.755277958E1,-1.398006678E0,-1.172722340E1,3.020938635E0
3.757304917E1,1.242473125E0,-1.087238789E1,2.650051117E0
3.759331870E1,3.775874138E0,-1.142752266E1,1.876571178E0
3.761358823E1,4.323830605E0,-1.219382381E1,-7.615157962E-1
3.763377917E1,4.702494621E0,-1.284048462E1,-3.562912941E0
3.765412719E1,4.501497746E0,-1.313480186E1,-1.834098577E0
3.767439677E1,1.369890928E0,-1.157886887E1,3.222533941E0
3.769466630E1,-1.706680775E0,-1.000558758E1,4.862215519E0
3.771493589E1,-2.870789051E0,-9.498309135E0,3.665206194E0
3.773512682E1,-2.827120066E0,-8.669795036E0,2.319841623E0
3.775547484E1,-1.610967875E0,-7.501499176E0,3.134597540E-1
3.777574443E1,-9.098708034E-1,-7.065407276E0,-9.505487680E-1
3.779601396E1,-3.852444589E-1,-7.113263607E0,-9.505487680E-1
3.781628354E1,5.246263742E-1,-6.009573936E0,5.982056633E-2
3.783655307E1,2.428116798E0,-4.771886349E0,1.890329868E-1
3.785682266E1,3.773481369E0,-4.444069862E0,-3.188436031E-1
3.787709224E1,3.381058455E0,-4.470390797E0,5.718846321E-1
3.789736177E1,2.257628202E0,-4.848456860E0,2.944368362E0
3.791763130E1,1.051047325E0,-5.519045353E0,5.305486202E0
3.793790083E1,-6.053841114E-1,-7.891529083E0,8.338987350E0
3.795817042E1,-3.112463951E0,-1.558864117E1,8.827122688E0
3.797843995E1,-2.618944407E0,-2.000638962E1,7.371688366E0
3.799870948E1,1.242473125E0,-1.375035572E1,7.412366390E0
3.801897906E1,2.109273195E0,-8.078168869E0,7.823931694E0
3.803924859E1,3.045464993E0,-7.755138397E0,7.467401028E0
3.805951813E1,2.937788010E0,-1.445384502E1,5.315057278E0
3.807978766E1,1.091725349E0,-1.773679733E1,-3.151347399E0
3.810005724E1,1.041476011E0,-1.328554916E1,-6.570092678E0
3.812032677E1,6.681957245E-1,-6.768697262E0,-1.324427366E0
3.814059630E1,-3.589234129E-2,-3.766302824E0,4.335794449E0
3.816086583E1,7.896314561E-2,-2.834896564E0,3.602992773E0
3.818113542E1,3.547359705E-1,-5.349154949E0,-9.631111473E-2
3.820140495E1,1.599601984E0,-9.498309135E0,-2.224726915E0
3.822167453E1,3.189034462E0,-1.356610775E1,-3.952943087E0
3.824194406E1,3.095714331E0,-1.452084446E1,-3.701696634E0
3.826221359E1,1.649851203E0,-1.146401310E1,-1.853241086E0
3.828248318E1,-1.089332461E0,-8.382656097E0,2.209771633E0
3.830275271E1,-1.922633052E0,-7.920242786E0,5.044070244E0
3.832302229E1,2.368894368E-1,-8.228917122E0,5.516054630E0
3.834329182E1,2.645863533E0,-8.956933022E0,2.606980324E0
3.836356141E1,2.624328136E0,-9.452845573E0,-1.400997639E0
3.838383094E1,1.266401410E0,-9.110074043E0,-3.620340586E0
3.840410052E1,-1.459621787E-1,-8.770293236E0,-1.848455548E0
3.842437005E1,-9.314061999E-1,-9.100502968E0,-5.084748194E-2
3.844463964E1,-1.252044439E0,-9.358927727E0,1.240080357E0
3.846490917E1,-7.609176040E-1,-9.503094673E0,3.442673683E0
3.848530917E1,-1.603191197E-1,-9.663414001E0,3.351746321E0
3.850544828E1,9.571290761E-2,-9.381061554E0,1.366899967E0
3.852571787E1,1.483550072E-1,-9.260822296E0,6.484549642E-1
3.854598745E1,1.441675663E0,-9.883553505E0,1.292722464E0
3.856625698E1,1.724028707E0,-1.001755238E1,1.273579836E0
3.858652656E1,6.418746710E-1,-1.007258701E1,2.488535494E-1
3.860679609E1,-5.718846321E-1,-1.106142044E1,5.982056856E-1
3.862706568E1,-8.309076428E-1,-1.301755333E1,2.185843468E0
3.864733526E1,-9.481559992E-1,-1.414756393E1,3.189034462E0
3.866760484E1,-1.546361685E0,-1.233978653E1,3.449851990E0
3.868795318E1,-2.446661234E0,-1.208136177E1,3.227319479E0
3.870814412E1,-4.689932466E-1,-1.200239849E1,1.924427629E0
3.872841365E1,2.959323406E0,-1.194736385E1,1.414756417E0
3.874868323E1,4.661816597E0,-1.267298698E1,8.207381964E-1
3.876895281E1,4.898705959E0,-1.254616737E1,-1.453639746E0
3.878922234E1,4.958526611E0,-1.200718403E1,-2.770290375E0
3.880949193E1,4.053441525E0,-1.091545868E1,7.537391186E-1
3.882989193E1,3.092723191E-1,-1.002473068E1,3.909274101E0
3.885003104E1,-2.590230465E0,-1.003190899E1,4.668396950E0
3.887030063E1,-3.308675528E0,-9.349356651E0,3.748954773E0
3.889057021E1,-2.183450699E0,-7.975277901E0,1.651645780E0
3.891083979E1,-4.761717021E-1,-6.952944279E0,-1.010967568E-1
3.893123979E1,-6.221338734E-2,-6.275775433E0,-1.372283816E0
3.895137896E1,3.044866920E-1,-6.150750637E0,-1.144965649E0
3.897164849E1,1.829312921E0,-5.590830326E0,-3.499503136E-1
3.899191807E1,3.172284603E0,-5.137988567E0,-1.393819153E-1
3.901218766E1,3.725624800E0,-5.313262463E0,7.417750359E-1
3.903258766E1,2.971287489E0,-5.760720730E0,2.602194548E0
3.905272682E1,1.771885157E0,-6.677769661E0,3.799204111E0
3.907299641E1,5.174478889E-1,-8.705686569E0,5.204987526E0
3.909326594E1,-1.651645780E0,-1.304387474E1,6.284748554E0
3.911353552E1,-3.727419376E0,-1.662533188E1,8.245068550E0
3.913393552E1,-8.853443712E-2,-1.400878048E1,9.284152031E0
3.915407469E1,1.867598057E0,-9.177073479E0,7.697112083E0
3.917434432E1,2.502294302E0,-8.574081421E0,7.527221680E0
3.919461391E1,2.739183664E0,-1.161715412E1,6.672386169E0
3.921488349E1,2.260020971E0,-1.589312840E1,3.483351469E0
3.923515307E1,1.034297585E0,-1.429352570E1,-3.328416348E0
3.925542266E1,-3.421736360E-1,-9.534201622E0,-5.253442287E0
3.927569224E1,-4.953143001E-1,-6.009573936E0,-4.121637046E-1
3.929596182E1,-1.493719578E0,-4.850849628E0,4.326223373E0
3.931623141E1,-6.197410822E-1,-5.643472195E0,3.581457376E0
3.933650099E1,1.345962763E0,-7.041478634E0,2.614158630E0
3.935677057E1,4.465605259E0,-1.021854877E1,5.383850932E-1
3.937704016E1,6.291927338E0,-1.384367561E1,-3.912265062E0
3.939730974E1,4.484747887E0,-1.288594818E1,-4.891527653E0
3.941757938E1,2.324627161E0,-9.445667267E0,-2.842075109E0
3.943784896E1,2.584248483E-1,-7.831708431E0,-2.781656384E-1
3.945811854E1,-1.848455548E0,-8.375477791E0,3.416352510E0
3.947838813E1,-7.441678643E-1,-8.968897820E0,4.639683247E0
3.949865776E1,1.587637782E0,-1.020419216E1,3.179463148E0
3.951892734E1,2.521436930E0,-1.039083195E1,1.220339537E-1
3.953919693E1,1.798206210E0,-9.598808289E0,-1.664208174E0
3.955946651E1,8.117650747E-1,-9.038289070E0,-2.231905222E0
3.957973609E1,1.004985496E-1,-9.313464165E0,-1.487139225E0
3.960000573E1,-1.603191197E-1,-9.716055870E0,-1.034895778E-1
3.962027531E1,-2.249253243E-1,-9.981659889E0,7.680960894E-1
3.964054490E1,-2.416750938E-1,-9.933803558E0,1.342971683E0
3.966081453E1,-4.666004181E-1,-9.672985077E0,2.252842426E0
3.968108412E1,1.124626622E-1,-9.584450722E0,2.721835852E0
3.970135370E1,2.075773716E0,-1.014437199E1,2.243271112E0
3.972162333E1,2.679363251E0,-9.969695091E0,1.165902853E0
3.974189292E1,1.264008522E0,-9.723235130E0,2.656033039E-1
3.976216250E1,-1.507478207E-1,-9.780662537E0,-6.370890141E-1
3.978243208E1,-7.010970116E-1,-9.562915802E0,-1.451246977E0
3.980270167E1,-1.005583763E0,-9.926624298E0,-1.781456470E0
3.982297130E1,-8.069794178E-1,-1.054696369E1,-1.278963685E0
3.984324094E1,9.984052777E-1,-9.802198410E0,-2.159522474E-1
3.986351052E1,3.031108141E0,-9.957731247E0,5.407779217E-1
3.988378010E1,4.688137531E0,-1.148315620E1,1.194616675E0
3.990404974E1,6.172286034E0,-1.228714466E1,1.814357758E0
3.992431932E1,6.862017155E0,-1.217468166E1,1.737787485E0
3.994458891E1,5.892325878E0,-1.187797165E1,8.733802438E-1
3.996485854E1,4.216153622E0,-1.084606647E1,-2.997010350E-1
3.998512813E1,3.890729666E0,-9.725627899E0,-1.000798106E0
4.000539771E1,4.295116425E0,-9.181859016E0,-6.131607890E-1
4.002566734E1,4.477569580E0,-9.177073479E0,7.992027402E-1
4.004593693E1,3.907479286E0,-9.548559189E0,2.250449657E0
4.006620651E1,1.996810555E0,-9.974481583E0,1.773679733E0
4.008647615E1,7.328019142E-1,-9.658628464E0,9.738788009E-1
4.010674573E1,5.748756528E-1,-8.516654015E0,-8.913264424E-2
4.012701531E1,1.000798106E0,-6.919445038E0,-4.743770957E-1
4.014728495E1,1.007976532E0,-6.275775433E0,-3.170489892E-2
4.016755453E1,1.029511929E0,-7.594819069E0,5.862415433E-1
4.018782412E1,1.444068432E0,-8.609973907E0,6.963114142E-1
4.020809375E1,2.722434044E0,-8.971290588E0,5.623133183E-1
4.022836333E1,3.974478483E0,-9.193822861E0,8.087740541E-1
4.024863297E1,4.444069862E0,-9.460023880E0,2.293520451E0
4.026890255E1,3.998406649E0,-9.773484230E0,3.399602890E0
4.028917208E1,2.734398127E0,-9.605986595E0,3.315854073E0
4.030944177E1,1.972882271E0,-9.404989243E0,3.236890793E0
4.032984177E1,1.613958836E0,-9.440881729E0,3.275176048E0
4.034998099E1,1.348355532E0,-9.239286423E0,2.963510752E0
4.037025057E1,1.295115232E0,-8.686544418E0,2.738585472E0
4.039052021E1,1.216152072E0,-8.315058708E0,2.870190859E0
4.041078979E1,1.189831018E0,-8.478368759E0,3.141177893E0
4.043118979E1,1.520638824E0,-9.198608398E0,3.349353552E0
4.045132901E1,1.889133453E0,-9.792626381E0,3.404388428E0
4.047159865E1,2.452044964E0,-1.004865837E1,3.545564890E0
4.049186823E1,2.732005358E0,-9.838089943E0,3.679563046E0
4.051213786E1,2.140379906E0,-9.155537605E0,3.638885021E0
4.053253786E1,8.715856671E-1,-9.057432175E0,2.104487419E0
4.055267703E1,2.997010350E-1,-9.388239861E0,3.014956415E-1
4.057294667E1,1.417747378E0,-9.728020668E0,2.368894368E-1
4.059321630E1,3.404986620E0,-9.605986595E0,1.036690354E0
4.061348589E1,5.171487808E0,-9.495916367E0,1.713859200E0
4.063388589E1,5.693721294E0,-9.244071960E0,8.997012973E-1
4.065402510E1,4.573282242E0,-8.976076126E0,-5.222335458E-1
4.067429469E1,2.207378864E0,-9.251250267E0,-1.822134495E0
4.069456432E1,-1.316052526E-1,-1.026401234E1,-2.674577475E0
4.071483391E1,-1.496112347E0,-1.083410263E1,-2.669791937E0
4.073523391E1,-1.424327731E0,-1.043689442E1,-2.224726915E0
4.075537313E1,-1.051047325E0,-1.041535854E1,-1.515853167E0
4.077564271E1,-9.409775138E-1,-1.041535854E1,-3.068794906E-1
4.079591234E1,-1.531406492E-1,-1.049910736E1,6.317051649E-1
4.081618193E1,6.299105883E-1,-1.054457092E1,5.934200287E-1
4.083645156E1,3.762713671E-1,-1.009890842E1,1.746760458E-1
4.085672115E1,-2.488535494E-1,-9.768698692E0,1.411765367E-1
4.087699078E1,-5.359922647E-1,-9.661021233E0,2.943171859E-1
4.089726036E1,-3.254238665E-1,-9.663414001E0,-1.256231871E-2
4.091753000E1,-5.742774159E-2,-9.603593826E0,-5.461617708E-1
4.093791844E1,-4.546362907E-2,-9.098110199E0,-7.950153351E-1
4.095806922E1,-1.962114573E-1,-8.834898949E0,-7.519445419E-1
4.097833886E1,-4.689932466E-1,-9.064610481E0,-6.562315822E-1
4.099860844E1,-8.117650747E-1,-9.479166985E0,-4.528416991E-1
4.101887807E1,-1.244866014E0,-1.003908730E1,-1.465603858E-1
4.103914766E1,-1.697109461E0,-1.050389290E1,7.657032460E-2
4.105941729E1,-2.037488461E0,-1.042253685E1,2.392822653E-1
4.107968688E1,-2.331805706E0,-9.766305923E0,5.790630579E-1
4.109995651E1,-2.683550596E0,-9.002396584E0,1.110867858E0
4.112022609E1,-3.074178934E0,-9.684949875E0,1.500898004E0
4.114049573E1,-2.935395241E0,-1.036211872E1,1.479362607E0
4.116076531E1,-1.982453585E0,-1.001515961E1,1.455434322E0
4.118103495E1,3.140579760E-1,-9.888339996E0,1.280758262E0
4.120130453E1,1.953739643E0,-1.013958549E1,8.183453679E-1
4.122157417E1,2.171486616E0,-1.043689442E1,6.340979934E-1
4.124184375E1,1.779063582E0,-1.092981529E1,1.079761267E0
4.126211339E1,1.812563181E0,-1.284048462E1,1.735394597E0
4.128238302E1,1.673779488E0,-1.387956810E1,1.558325768E0
4.130265261E1,8.309076428E-1,-1.267777252E1,9.547362328E-1
4.132292224E1,2.829512656E-1,-1.129831028E1,5.503492355E-1
4.134319182E1,6.370890141E-1,-9.957731247E0,3.924229145E-1
4.136346146E1,1.676172256E0,-1.062353420E1,3.804588020E-1
4.138373104E1,2.619542599E0,-1.137248802E1,-1.226321608E-1
4.140400068E1,3.754338741E0,-1.244507027E1,-7.256234884E-1
4.142427026E1,4.726422787E0,-1.309173107E1,-3.523431420E-1
4.144453990E1,4.908277512E0,-1.098724365E1,1.847857237E0
4.146480948E1,1.582852125E0,-9.045467377E0,3.334996462E0
4.148520948E1,-1.488933921E0,-9.234500885E0,2.999403238E0
4.150534870E1,-3.416352510E0,-8.281558990E0,1.718644857E0
4.152561833E1,-3.251247883E0,-7.666603565E0,9.906286001E-1
4.154588792E1,-2.370090723E0,-7.556533813E0,-4.606183618E-2
4.156615755E1,-2.391626120E0,-7.573283672E0,-4.025924206E-1
4.158642714E1,-1.891526341E0,-7.652246952E0,7.154539824E-1
