"Time (s)","Gyroscope x (rad/s)","Gyroscope y (rad/s)","Gyroscope z (rad/s)"
1.653521300E-2,-8.135951310E-2,-1.934785098E-1,6.657897960E-3
3.672500500E-2,-1.894837767E-1,-5.332975984E-1,3.169159219E-2
5.691573400E-2,-2.768353820E-1,-9.636641145E-1,3.062633052E-2
7.710729600E-2,-3.146522343E-1,-1.182575822E0,4.447475821E-2
9.729969200E-2,-3.119890988E-1,-1.403085351E0,4.926844314E-2
1.174927130E-1,-3.359575272E-1,-1.534645438E0,3.914843872E-2
1.376862550E-1,-4.254396558E-1,-1.582582355E0,2.476738021E-2
1.578801090E-1,-4.898881316E-1,-1.768470764E0,1.025316268E-1
1.780741710E-1,-5.010733604E-1,-1.998567700E0,2.378201038E-1
1.982790670E-1,-4.504733682E-1,-2.002828836E0,3.123885691E-1
2.184591710E-1,-3.551322520E-1,-1.855822444E0,3.922833502E-1
2.386395880E-1,-2.901511788E-1,-1.743437052E0,4.439486265E-1
2.588207340E-1,-3.487406969E-1,-1.662477016E0,4.615254700E-1
2.790029210E-1,-5.372923613E-1,-1.485643268E0,5.147886276E-1
2.991863590E-1,-7.727156281E-1,-1.476055980E0,5.217128396E-1
3.193712550E-1,-8.286419511E-1,-1.828658223E0,4.940160215E-1
3.395578170E-1,-6.784397960E-1,-2.193511009E0,4.466117918E-1
3.597460460E-1,-5.314334035E-1,-1.951163530E0,4.668518007E-1
3.799359420E-1,-5.053344369E-1,-1.190032601E0,5.488771200E-1
4.001275050E-1,-5.559344888E-1,-6.057355404E-1,5.243760347E-1
4.203206300E-1,-6.486123800E-1,-5.819002539E-2,3.464770019E-1
4.405151090E-1,-1.005475760E0,2.358227372E-1,-2.210422046E-2
4.607106300E-1,-1.628122330E0,3.342264518E-2,-5.792371035E-1
4.809069840E-1,-2.121339321E0,-2.286322117E-1,-7.661908865E-1
5.011038590E-1,-2.185255289E0,-1.540637612E-1,-5.057339072E-1
5.213009420E-1,-1.866741419E0,-1.460742801E-1,-4.500738904E-2
5.414977130E-1,-1.344229579E0,-4.065312445E-1,4.689823091E-1
5.616876090E-1,-8.574040532E-1,-6.771082282E-1,7.853656411E-1
5.818720880E-1,-4.850944281E-1,-8.715187907E-1,6.064013243E-1
6.020569840E-1,-1.900164038E-1,-1.030243158E0,1.464737486E-2
6.222424010E-1,1.189100519E-1,-1.238502145E0,-2.372874767E-1
6.424285460E-1,3.016027808E-1,-1.550624371E0,-1.824263930E-1
6.626155260E-1,2.914827764E-1,-2.076864719E0,-8.175898343E-2
6.828034420E-1,1.087900475E-1,-2.583930016E0,1.121189967E-1
7.029922960E-1,-1.958753467E-1,-2.935999870E0,4.018706977E-1
7.231820880E-1,-3.881554306E-1,-2.683532238E0,3.379548788E-1
7.433728170E-1,-3.034669757E-1,-1.857420325E0,1.818937659E-1
7.635643800E-1,-4.600607455E-1,-1.611877084E0,2.729738057E-1
7.837566710E-1,-3.631217480E-1,-2.435858488E0,3.427485824E-1
8.039495880E-1,8.908267319E-2,-3.146389246E0,2.154495716E-1
8.241430260E-1,5.199818015E-1,-3.050515652E0,6.631266326E-2
8.443367760E-1,7.367629409E-1,-2.806570292E0,1.784316637E-2
8.645307340E-1,5.727123618E-1,-2.644117594E0,5.512739345E-2
8.847355260E-1,3.676491082E-1,-2.687793255E0,1.094558388E-1
9.049159420E-1,2.339585274E-1,-2.804439783E0,2.335590571E-1
9.250966710E-1,6.724476814E-2,-2.072070837E0,3.672496378E-1
9.452781300E-1,1.731053460E-3,-1.476055980E0,5.472791791E-1
9.654606300E-1,1.545963883E-1,-1.689641237E0,6.910898089E-1
9.856443800E-1,3.346259296E-1,-2.146639347E0,5.323655009E-1
1.005829588E0,4.235754609E-1,-2.049167871E0,2.122537792E-1
1.026016359E0,3.607248962E-1,-1.684847593E0,2.396843163E-3
1.046204796E0,1.790974438E-1,-1.661944389E0,9.321057238E-3
1.066394901E0,-8.295740932E-2,-1.726392865E0,1.078579426E-1
1.086586567E0,-3.386206925E-1,-1.588973880E0,1.712411344E-1
1.106779692E0,-4.163849354E-1,-1.259807467E0,1.536642760E-1
1.126974067E0,-3.918838501E-1,-1.137302041E0,6.151897460E-2
1.147169484E0,-3.343596160E-1,-1.261405349E0,-2.530001104E-2
1.167365630E0,-3.125217259E-1,-1.273655891E0,4.021370411E-2
1.187562192E0,-4.147870243E-1,-1.114931583E0,2.543317080E-1
1.207758963E0,-5.836313367E-1,-6.600639820E-1,5.707150102E-1
1.227954276E0,-6.645913720E-1,-3.308975101E-1,8.444877267E-1
1.248144171E0,-7.972166538E-1,-2.611227632E-1,9.222519994E-1
1.268328651E0,-9.799094200E-1,-8.322372288E-2,9.041424990E-1
1.288513546E0,-9.804420471E-1,1.265000552E-2,8.583361506E-1
1.308698963E0,-8.121303916E-1,8.295740932E-2,6.580666304E-1
1.328885109E0,-5.500755310E-1,1.085237339E-1,3.986749053E-1
1.349072088E0,-2.779006660E-1,2.383527346E-2,2.804306448E-1
1.369260005E0,-9.254477918E-2,-1.338237375E-1,2.751043439E-1
1.389448859E0,-6.591318548E-2,-1.886848211E-1,3.603254259E-1
1.409638651E0,-2.262353599E-1,-4.926844500E-3,4.668518007E-1
1.429829380E0,-4.749744236E-1,2.565953732E-1,6.095971465E-1
1.450020942E0,-6.225134134E-1,4.238417745E-1,5.925529003E-1
1.470213234E0,-5.719134212E-1,4.520712495E-1,4.801675975E-1
1.490406151E0,-2.992059290E-1,3.673827946E-1,3.134538233E-1
1.510599588E0,1.078579482E-2,9.627319872E-2,1.797632426E-1
1.530793338E0,1.418132186E-1,-1.029310971E-1,1.536642760E-1
1.550987296E0,1.178447902E-1,-3.612575233E-1,1.632516533E-1
1.571192088E0,1.988048255E-1,-5.785713196E-1,3.435475379E-2
1.591372296E0,2.376869470E-1,-5.924197435E-1,-8.548741043E-2
1.611552817E0,2.808301151E-1,-4.523375630E-1,-1.094558388E-1
1.631734067E0,3.458112180E-1,-2.627206445E-1,-2.218411565E-1
1.651916359E0,3.335606754E-1,-8.855003864E-2,-2.047969401E-1
1.672099901E0,3.037332892E-1,-4.427502155E-1,-1.952095628E-1
1.692284901E0,4.480765164E-1,-7.644598484E-1,-4.812328517E-1
1.712471567E0,8.741819859E-1,-1.215598941E0,-5.882918239E-1
1.732659901E0,1.503220201E0,-1.559146523E0,-7.225150466E-1
1.752849901E0,1.661944389E0,-1.737045527E0,-9.366330504E-1
1.773041463E0,1.415868521E0,-1.539439082E0,-1.055942535E0
1.793234484E0,1.100017905E0,-1.024384141E0,-1.068193078E0
1.813428755E0,7.239798307E-1,-6.179860830E-1,-1.005875230E0
1.833624067E0,4.427502155E-1,-5.396891832E-1,-8.652604222E-1
1.853820213E0,2.968090773E-1,-8.598009348E-1,-9.265130758E-1
1.874016880E0,2.760364413E-1,-1.184706330E0,-1.122521520E0
1.894213755E0,3.404848874E-1,-1.164999008E0,-1.244494200E0
1.914410317E0,3.665838540E-1,-9.716535807E-1,-1.318530083E0
1.934600109E0,3.149185777E-1,-8.491482735E-1,-1.271658421E0
1.954784484E0,4.114580899E-2,4.993423447E-2,-9.755151868E-1
1.974969276E0,-4.904207587E-1,4.291680753E-1,-4.471444190E-1
1.995154692E0,-4.099933505E-1,3.892207146E-1,-3.709780574E-1
2.015340838E0,-1.527321786E-1,4.792354703E-1,-5.691171288E-1
2.035527817E0,-7.230477035E-2,3.609912097E-1,-4.881570637E-1
2.055715734E0,4.167843983E-2,-9.014793485E-2,-3.885549009E-1
2.075904588E0,3.688475490E-2,-3.314301372E-1,-4.242412448E-1
2.096094380E0,1.078579482E-2,-3.479417264E-1,-5.344960093E-1
2.116285109E0,1.695100814E-1,-3.873564899E-1,-7.347655892E-1
2.136476671E0,3.404848874E-1,-5.482112765E-1,-1.043691993E0
2.156668963E0,3.665838540E-1,-6.584661007E-1,-1.242896318E0
2.176861880E0,2.616553903E-1,-7.511440516E-1,-1.225852132E0
2.197055317E0,2.531332672E-1,-9.503483176E-1,-1.253016353E0
2.217249067E0,2.739059031E-1,-9.780451655E-1,-1.239167929E0
2.237443026E0,1.386174262E-1,-7.298387289E-1,-9.078709483E-1
2.257647817E0,5.765739456E-2,-5.977460742E-1,-6.058686972E-1
2.277827817E0,3.155843541E-2,-5.359607935E-1,-6.330329180E-1
2.298008130E0,6.138581783E-2,-2.573943138E-1,-5.147886276E-1
2.318189171E0,1.025316212E-2,-7.044056058E-2,-5.765739679E-1
2.338371255E0,3.262370080E-2,-1.504684892E-2,-6.479465961E-1
2.358554692E0,2.909501195E-1,2.436790615E-2,-6.064013243E-1
2.378739692E0,3.660512269E-1,1.105211023E-2,-6.165213585E-1
2.398926359E0,2.989396155E-1,-9.187898599E-3,-6.548708081E-1
2.419114692E0,3.111901283E-1,1.314269006E-1,-6.239781976E-1
2.439304692E0,2.771016955E-1,2.070606202E-1,-6.005423665E-1
2.459496359E0,1.972069293E-1,5.952160433E-2,-7.534077168E-1
2.479689484E0,1.753690243E-1,1.314269006E-1,-7.720498443E-1
2.499883859E0,1.198421582E-3,2.810964286E-1,-7.326350808E-1
2.520079276E0,-1.298290044E-1,1.628521830E-1,-7.539403439E-1
2.540275526E0,-1.282311082E-1,-2.889527567E-2,-8.008119464E-1
2.560472296E0,-2.150501013E-1,-1.679121852E-1,-9.302414656E-1
2.580669276E0,-3.444796205E-1,-2.984069884E-1,-1.027713060E0
2.600865526E0,-2.912164330E-1,-5.322323442E-1,-1.117195249E0
2.621055421E0,-1.601890177E-1,-4.283691347E-1,-1.152348995E0
2.641245213E0,-2.862896025E-2,-5.290365815E-1,-1.271125793E0
2.661429588E0,3.319627941E-1,-6.408892274E-1,-1.549692273E0
2.681614380E0,8.720514774E-1,-3.601922691E-1,-1.760081887E0
2.701799796E0,1.682184458E0,-4.486091435E-1,-1.782984972E0
2.721985942E0,1.532514930E0,-8.603335619E-1,-1.406946898E0
2.742172921E0,6.701840162E-1,-3.905522823E-1,-8.487488031E-1
2.762360838E0,-3.289001435E-2,-3.475422785E-2,-2.255695760E-1
2.782549692E0,1.311605871E-1,-3.292996287E-1,3.435475379E-2
2.802739484E0,5.498092175E-1,-5.934849977E-1,2.298306376E-1
2.822930213E0,4.635228515E-1,-2.691122293E-1,5.339633822E-1
2.843121776E0,4.926844500E-3,-4.061317816E-2,7.848330140E-1
2.863314067E0,-4.691154659E-1,4.993423447E-2,1.078313112E0
2.883506984E0,-1.007606268E0,3.285006881E-1,1.707883954E0
2.903700421E0,-1.274987459E0,6.235787272E-1,2.249037981E0
2.923894171E0,-1.418797970E0,1.176450491E0,2.547311783E0
2.944088026E0,-1.717604518E0,1.543433905E0,2.526006460E0
2.964292713E0,-1.745833993E0,1.465669632E0,2.368347406E0
2.984472609E0,-1.339435816E0,1.214267373E0,2.021604061E0
3.004652817E0,-7.593998313E-1,7.860314250E-1,1.748363972E0
3.024833755E0,-2.390185297E-1,2.976080179E-1,1.567269087E0
3.045015734E0,-5.632581562E-2,-4.860265180E-2,1.458079576E0
3.065199067E0,-1.708416492E-1,-1.189100519E-1,1.339302659E0
3.085383963E0,-2.645848691E-1,-2.776343226E-1,1.232776403E0
3.105570526E0,-2.063948289E-2,-7.303713560E-1,1.208807945E0
3.125758859E0,3.719101548E-1,-1.774862409E0,1.048485756E0
3.145948859E0,1.050483108E0,-2.801776648E0,8.040077090E-1
3.166140526E0,7.676556110E-1,-1.679521322E0,3.486075401E-1
3.186333651E0,1.344895363E-2,-4.006722867E-1,3.070622385E-1
3.206528130E0,-1.319595277E-1,3.061301410E-1,2.974748611E-1
3.226723651E0,-2.139848322E-1,-5.020054802E-2,2.809632719E-1
3.246920005E0,-2.059953511E-1,-1.068059921E0,4.380896688E-1
3.267116880E0,-1.904158667E-2,-8.741819859E-1,3.560643792E-1
3.287313963E0,4.091944098E-1,3.684480488E-1,-2.601906359E-1
3.307509901E0,5.178512931E-1,1.713742912E-1,-6.660560966E-1
3.327699796E0,2.904174924E-1,-7.740471959E-1,-7.768434882E-1
3.347889588E0,1.877527125E-2,-7.064029574E-1,-1.078313112E0
3.368073963E0,-2.209090441E-1,-3.601922691E-1,-5.845634341E-1
3.388258755E0,1.918806136E-1,-4.454133511E-1,8.359656334E-1
3.408444067E0,2.936132848E-1,-2.729738131E-2,7.635276914E-1
3.428630109E0,2.430132627E-1,-6.138581783E-2,8.860330582E-1
3.448816984E0,8.855003864E-2,-3.495396376E-1,9.174582958E-1
3.469004796E0,-7.283740491E-2,-6.062681675E-1,6.761760712E-1
3.489193546E0,-2.576606572E-1,-1.047819972E0,4.524707198E-1
3.509383234E0,-2.454101145E-1,-1.345561147E0,2.250369489E-1
3.529573859E0,-2.139848322E-1,-8.411588073E-1,1.259674281E-1
3.549765317E0,-2.315616906E-1,-4.475438893E-1,2.420811653E-1
3.569957609E0,-1.063932031E-1,1.495363861E-1,2.735064328E-1
3.590150526E0,4.267712533E-1,1.402286410E0,8.442214131E-2
3.610343963E0,3.422159329E-2,1.143959999E0,-2.583264373E-2
3.630537713E0,-2.177132517E-1,-3.328948980E-3,-5.672528967E-2
3.650731671E0,-1.639174372E-1,-1.833585054E-1,-9.853689000E-3
3.670936463E0,-2.944122255E-1,-7.736477256E-2,1.094558388E-1
3.691116567E0,-1.319595277E-1,-9.707214683E-2,4.151864946E-1
3.711296984E0,3.292996287E-1,7.496792823E-2,6.889592409E-1
3.731478130E0,5.775060654E-1,1.575258672E-1,9.536772966E-1
3.751660317E0,4.528702199E-1,6.560692191E-1,1.325454235E0
3.771843755E0,3.649859428E-1,1.512541175E0,1.412805915E0
3.792028651E0,3.303648829E-1,1.454484344E0,1.413338542E0
3.812215213E0,3.101248741E-1,2.848248780E-1,1.896435618E0
3.832403442E0,5.992108025E-3,1.761679798E-1,2.668751717E0
3.852593338E0,-2.949448824E-1,3.395527974E-2,2.753972769E0
3.872784901E0,-2.027995586E-1,-2.605901062E-1,2.645315886E0
3.892977921E0,-1.058605760E-1,-6.840324402E-1,2.220808268E0
3.913172192E0,-3.535343707E-1,-5.418196917E-1,1.863412380E0
3.933367505E0,-6.523408294E-1,-6.408892274E-1,1.892174602E0
3.953563651E0,-8.861662149E-1,-2.499374747E-1,2.129728317E0
3.973760317E0,-5.372923613E-1,6.486123800E-1,2.189915657E0
3.993957192E0,1.428784877E-1,6.432861090E-1,1.878326058E0
4.014153546E0,4.837628603E-1,5.255744457E-1,1.230113149E0
4.034343338E0,3.745733202E-1,5.388902426E-1,4.849612713E-1
4.054527713E0,6.671213359E-2,4.478102028E-1,-2.948117256E-1
4.074712505E0,-1.836248189E-1,-2.889527567E-2,-6.394245028E-1
4.094897817E0,-2.794985473E-1,-7.257108390E-2,-5.275717974E-1
4.115083859E0,-2.091911435E-1,1.079910994E-1,-1.989379823E-1
4.135270734E0,-2.330264263E-2,6.005423889E-2,-1.238368973E-1
4.155458546E0,2.037316747E-2,-1.737711281E-1,-4.447475821E-2
4.175647296E0,1.199753210E-1,-3.368896246E-2,-1.888179779E-1
4.195836984E0,1.940111369E-1,1.464737463E-3,-1.920137703E-1
4.216027609E0,1.998700947E-1,1.569932252E-1,-1.488705873E-1
4.236219067E0,1.375521719E-1,1.644500792E-1,-1.834916621E-1
4.256411255E0,1.717737690E-2,1.957421936E-2,-1.712411344E-1
4.276604067E0,4.394212738E-3,7.856319658E-3,-7.856319100E-2
4.296797401E0,-8.668582886E-2,-1.198421582E-3,4.500738904E-2
4.316991046E0,-8.988162130E-2,3.062632866E-3,1.675127149E-1
4.337184901E0,-9.893636405E-2,-1.877527125E-2,3.331612051E-1
4.357389588E0,-1.261005849E-1,1.111868918E-1,4.902876019E-1
4.377569901E0,-1.713742912E-1,3.759049177E-1,5.190497041E-1
4.397750526E0,-1.484711170E-1,3.828291297E-1,4.556665123E-1
4.417931880E0,-1.464737463E-3,7.017423958E-2,4.135886133E-1
4.438114276E0,1.615206003E-1,1.026647836E-1,4.641886353E-1
4.458297921E0,1.892174482E-1,3.428817391E-1,4.396875799E-1
4.478483026E0,1.231711060E-1,2.821617126E-1,4.178496599E-1
4.498669692E0,2.942790836E-2,1.697763950E-1,3.795001805E-1
4.518858026E0,-2.490053698E-2,9.361004084E-2,2.724411786E-1
4.539048026E0,-3.994738800E-4,1.591237634E-1,9.827057272E-2
4.559239588E0,7.590003312E-3,2.161153555E-1,1.091895252E-2
4.579432609E0,2.836264484E-2,2.954775095E-1,-9.827057272E-2
4.599626880E0,-3.595264861E-3,1.308942735E-1,-1.334242672E-1
4.619822192E0,-8.562056720E-2,1.074584723E-1,-1.818937659E-1
4.640018234E0,-6.271740049E-2,3.950796425E-1,-2.601906359E-1
4.660214692E0,7.736477256E-2,5.878923535E-1,-2.761695981E-1
4.680411359E0,-1.318263728E-2,5.687175989E-1,-4.189149141E-1
4.700606463E0,-4.648544192E-1,1.671132296E-1,-7.139929533E-1
4.720796255E0,-3.338269889E-1,8.615319431E-2,-7.278413773E-1
4.740980630E0,-5.366265774E-2,2.736395895E-1,-2.063948363E-1
4.761165421E0,-1.266332120E-1,1.265000552E-2,4.508728385E-1
4.781350734E0,-1.117195264E-1,-1.716406047E-1,4.780370593E-1
4.801536776E0,-8.189214021E-2,9.041424841E-2,3.858917654E-1
4.821723651E0,-1.362205893E-1,8.828372508E-2,3.347590864E-1
4.841911463E0,-1.372858584E-1,-3.528685868E-2,2.841590643E-1
4.862100213E0,-1.063932031E-1,3.075948730E-2,2.085253596E-1
4.882289901E0,-4.034686089E-2,1.090563685E-1,1.099884734E-1
4.902480526E0,-1.464737463E-3,1.117195264E-1,6.844318658E-2
4.922671984E0,-1.105211023E-2,8.082687855E-2,1.392832249E-1
4.942864171E0,-4.940159991E-2,1.452753246E-1,2.692453861E-1
4.963056984E0,-7.869634777E-2,1.490037590E-1,3.720433414E-1
4.983250317E0,-1.399490088E-1,-7.310371846E-2,4.189149141E-1
5.003443963E0,-9.307741374E-2,-2.467416972E-1,5.099949837E-1
5.023637817E0,-2.862896025E-2,-7.789740711E-2,6.996119022E-1
5.043842505E0,-1.223721579E-1,-2.263685223E-3,6.596645117E-1
5.064022505E0,-2.310290486E-1,-2.889527567E-2,2.585927546E-1
5.084202817E0,-2.752375007E-1,-7.203845680E-2,5.139897019E-2
5.104383859E0,-2.102564126E-1,-6.777740270E-2,2.689790726E-2
5.124565942E0,-4.776375890E-1,-4.960133731E-1,-4.607265070E-2
5.144749276E0,-3.801659644E-1,-1.838911325E-1,6.950845569E-2
5.164934067E0,-1.159805804E-1,1.511342824E-1,1.755021811E-1
5.185120526E0,-1.399490088E-1,-1.930790395E-2,1.920137703E-1
5.205308651E0,-1.516669095E-1,-3.422159329E-2,1.536642760E-1
5.225498442E0,-6.857634336E-2,1.053279415E-1,7.909582555E-2
5.245689901E0,-3.768370301E-2,5.206476152E-2,4.021370411E-2
5.265882817E0,-5.313002318E-2,4.301001877E-2,4.607265070E-2
5.286077088E0,-4.727107286E-2,1.548627019E-1,5.139897019E-2
5.306272401E0,1.078579482E-2,2.773680091E-1,5.619265884E-2
5.326468546E0,1.930790395E-2,1.703090221E-1,1.685779691E-1
5.346665213E0,4.434159771E-2,2.352901101E-1,1.579253376E-1
5.366862088E0,1.238369010E-2,1.623195410E-1,1.115863696E-1
5.387058651E0,-2.383527346E-2,1.079910994E-1,5.832318589E-2
5.407248442E0,-1.424790081E-2,1.436774284E-1,-2.902843431E-2
5.427432817E0,4.167843983E-2,1.516669095E-1,-1.898832470E-1
5.447617609E0,5.179844424E-2,5.685844645E-2,-2.601906359E-1
5.467802921E0,7.949529588E-2,-2.009353489E-1,-2.308958918E-1
5.487988963E0,1.066595241E-1,-1.812279820E-1,-2.719085515E-1
5.508175838E0,2.729738131E-2,-1.988048255E-1,-1.685779691E-1
5.528363651E0,-7.070687413E-2,-4.603270590E-1,2.796317078E-2
5.548552401E0,-2.969422378E-2,-4.853607416E-1,5.832318589E-2
5.568742088E0,6.351634115E-2,-3.745733202E-1,3.648528084E-2
5.588932713E0,4.647212476E-2,-4.550007284E-1,5.352949724E-2
5.609124171E0,1.185105834E-2,-5.194491744E-1,8.602003753E-2
5.629316359E0,6.138581783E-2,-3.708449006E-1,1.238368973E-1
5.649509171E0,6.990792602E-2,-2.637858987E-1,1.147821546E-1
5.669702505E0,6.511423737E-2,-1.466069072E-1,7.962846011E-2
5.689896151E0,1.444763839E-1,1.117195264E-1,1.997369342E-2
5.710089901E0,1.460742801E-1,3.077280223E-1,-1.126516312E-1
5.730294484E0,1.210405827E-1,2.331595868E-1,-1.265000552E-1
5.750474171E0,1.380847991E-1,1.564605981E-1,-1.073253155E-1
5.770654171E0,1.380847991E-1,4.354264960E-2,-8.815056831E-2
5.790834901E0,6.138581783E-2,-1.380847991E-1,-1.238368973E-1
5.811016671E0,2.263685223E-3,-9.121319652E-2,-1.797632426E-1
5.831199796E0,8.655266836E-3,-7.310371846E-2,-2.351569533E-1
5.851384484E0,-1.318263728E-2,2.063948289E-2,-4.263717830E-1
5.871570838E0,-4.127896391E-3,-6.564687192E-2,-5.297023654E-1
5.891758963E0,1.930790395E-2,-2.889527567E-2,-5.009402037E-1
5.911948859E0,8.269108832E-2,-1.993374527E-1,-3.539338410E-1
5.932140421E0,1.055942550E-1,-5.459476262E-3,-2.442116886E-1
5.952333546E0,1.716406047E-1,1.964079887E-1,-1.781653464E-1
5.972528026E0,2.217079997E-1,8.615319431E-2,-1.185105816E-1
5.992723651E0,2.169143111E-1,7.070687413E-2,-6.524740160E-2
6.012920109E0,1.812279820E-1,1.127847880E-1,-4.394212365E-2
6.033117088E0,1.663142890E-1,9.520793706E-2,-3.968106955E-2
6.053314276E0,1.764342934E-1,1.234374270E-1,-3.435475379E-2
6.073510109E0,1.663142890E-1,2.129195631E-1,-7.110634446E-2
6.093699796E0,1.577921808E-1,2.304964215E-1,-6.205160543E-2
6.113884067E0,1.226384789E-1,1.969406158E-1,-3.328948840E-2
6.134068755E0,7.736477256E-2,1.532648057E-1,-1.677790284E-2
6.154253963E0,4.061317816E-2,7.763108611E-2,-2.210422046E-2
6.174439901E0,5.392897129E-2,4.567318037E-2,-3.808317333E-2
6.194626671E0,6.032055244E-2,1.478053257E-2,-6.045371294E-2
6.214814380E0,7.097318769E-2,9.986846708E-3,-8.175898343E-2
6.235003026E0,9.813741595E-2,6.271740049E-2,-1.110537350E-1
6.255192609E0,1.545963883E-1,1.527321786E-1,-2.383527458E-1
6.275383130E0,2.435459048E-1,3.034669757E-1,-4.391549230E-1
6.295574588E0,4.635228515E-1,7.396924496E-1,-8.364982605E-1
6.315766776E0,3.442133069E-1,5.277049541E-1,-1.205079436E0
6.335959588E0,5.499423668E-2,9.361004084E-2,-1.012266755E0
6.356152921E0,5.286370963E-2,2.969422378E-2,-3.608580530E-1
6.376346567E0,1.984053478E-2,7.390266657E-2,2.050632425E-2
6.396540421E0,-2.117211558E-2,7.922898233E-2,-2.663159103E-4
6.416745109E0,-4.886896908E-2,4.780370742E-2,2.663159103E-4
6.436925109E0,-1.506016403E-1,1.424790081E-2,2.956106514E-2
6.457105421E0,-1.894837767E-1,3.994738800E-4,7.989477599E-4
6.477286463E0,-9.733846784E-2,1.015995219E-1,-6.844318658E-2
6.497468546E0,1.226384789E-1,-1.984053478E-2,-4.767054692E-2
6.517651880E0,1.641837656E-1,1.637842879E-2,-4.340949282E-2
6.537836671E0,-4.620581120E-2,5.472791940E-2,-3.755054250E-2
6.558023130E0,-3.502054140E-2,-3.635212034E-2,1.251684781E-2
6.578211255E0,6.085318699E-2,-2.516685426E-2,1.731053367E-2
6.598401046E0,7.576687634E-2,-2.836264484E-2,2.663159103E-4
6.618592505E0,2.996053919E-2,9.454214945E-3,-8.788425475E-3
6.638785421E0,4.926844500E-3,1.744369231E-2,-1.145158429E-2
6.658979588E0,-5.193160381E-3,1.051947847E-2,-1.038632076E-2
6.679174796E0,-5.725792143E-3,-1.198421582E-3,8.255792782E-3
6.699370838E0,1.984053478E-2,6.791055668E-3,2.583264373E-2
6.719567401E0,3.368896246E-2,1.265000552E-2,2.902843431E-2
6.739764171E0,2.303632535E-2,2.436790615E-2,2.530001104E-2
6.759960526E0,2.090579830E-2,3.821633384E-2,2.636527456E-2
6.780150213E0,2.303632535E-2,2.756369673E-2,1.837579720E-2
6.800334484E0,3.049317189E-2,-6.657897611E-4,9.853689000E-3
6.820519171E0,3.475422785E-2,-9.187898599E-3,-7.989477599E-4
6.840725109E0,1.557948068E-2,-4.926844500E-3,-1.731053367E-2
6.860903442E0,-4.660528619E-3,-4.926844500E-3,-1.997369342E-2
6.881082401E0,7.590003312E-3,4.660528619E-3,-2.103895694E-2
6.901262401E0,1.877527125E-2,1.318263728E-2,-2.636527456E-2
6.921443807E0,1.238369010E-2,1.957421936E-2,-1.198421605E-2
6.941626880E0,1.664474420E-2,2.383527346E-2,4.527370445E-3
6.961811828E0,3.901528195E-2,3.448791057E-2,6.657897960E-3
6.981998755E0,1.877527125E-2,3.981423005E-2,5.592633970E-3
7.002187661E0,-1.531316526E-2,3.821633384E-2,5.060002208E-3
7.022378494E0,-2.756369673E-2,5.206476152E-2,3.994738683E-3
7.042571151E0,-2.117211558E-2,3.928159550E-2,1.464737486E-2
7.062765473E0,1.664474420E-2,1.997369342E-3,1.890842989E-2
7.082961203E0,1.131842658E-2,1.051947847E-2,8.788425475E-3
7.103158026E0,-4.660528619E-3,-4.926844500E-3,6.125265732E-3
7.123355630E0,6.657897611E-4,-7.057371549E-3,1.864211401E-3
7.143553651E0,1.291632187E-2,-2.263685223E-3,-7.989477599E-4
7.163751046E0,1.611211337E-2,1.464737463E-3,-3.994738683E-3
7.183944171E0,1.025316212E-2,1.997369342E-3,-5.592633970E-3
7.204139171E0,6.524739787E-3,1.464737463E-3,-5.592633970E-3
7.224328911E0,3.861580743E-3,3.595264861E-3,-5.592633970E-3
7.244508182E0,1.198421582E-3,7.323687430E-3,-3.462106921E-3
7.264688026E0,-2.530001104E-3,8.388951421E-3,2.663159103E-4
7.284868807E0,-3.994738800E-4,1.371526904E-2,2.929474926E-3
7.305050838E0,1.731053460E-3,1.051947847E-2,3.994738683E-3
7.325234380E0,-6.258423906E-3,5.193160381E-3,5.592633970E-3
7.345419640E0,-1.265000552E-2,2.530001104E-3,1.198421605E-2
7.365606723E0,-1.797632314E-2,6.258423906E-3,1.997369342E-2
7.385795682E0,1.731053460E-3,3.075948730E-2,2.050632425E-2
7.405986463E0,1.025316212E-2,1.584579609E-2,1.571263932E-2
7.426178911E0,2.796316985E-3,1.371526904E-2,6.657897960E-3
7.446372817E0,1.331579551E-4,1.211737376E-2,5.060002208E-3
7.466567973E0,6.657897611E-4,1.478053257E-2,7.723161485E-3
7.486764119E0,-4.660528619E-3,1.584579609E-2,1.091895252E-2
7.506960942E0,6.657897611E-4,3.182475269E-2,1.091895252E-2
7.527158130E0,4.394212738E-3,2.330264263E-2,9.321057238E-3
7.547355005E0,8.122635074E-3,3.289001435E-2,5.060002208E-3
7.567548078E0,9.720530361E-3,3.715106845E-2,4.527370445E-3
7.587735057E0,6.524739787E-3,3.448791057E-2,5.592633970E-3
7.607919536E0,6.657897611E-4,3.715106845E-2,1.091895252E-2
7.628104484E0,-3.994738800E-4,4.407528415E-2,1.304947957E-2
7.648290057E0,2.263685223E-3,4.407528415E-2,1.198421605E-2
7.668476411E0,1.731053460E-3,3.502054140E-2,6.657897960E-3
7.688663651E0,1.331579551E-4,2.490053698E-2,1.331579522E-3
7.708851828E0,-3.062632866E-3,1.850895584E-2,-2.929474926E-3
7.729040942E0,-2.530001104E-3,1.584579609E-2,-5.060002208E-3
7.749230994E0,-3.994738800E-4,1.265000552E-2,-7.190529723E-3
7.769421932E0,2.263685223E-3,8.388951421E-3,-8.788425475E-3
7.789613651E0,3.861580743E-3,4.127896391E-3,-1.038632076E-2
7.809806046E0,7.057371549E-3,2.530001104E-3,-1.304947957E-2
7.829999015E0,1.398158539E-2,1.691105962E-2,-1.304947957E-2
7.850192401E0,1.877527125E-2,2.809632942E-2,-1.251684781E-2
7.870386046E0,1.664474420E-2,2.383527346E-2,-1.091895252E-2
7.890585213E0,1.877527125E-2,2.490053698E-2,-5.060002208E-3
7.910777401E0,1.451421715E-2,2.223737910E-2,-2.396843163E-3
7.930957348E0,7.057371549E-3,1.424790081E-2,-1.331579522E-3
7.951137817E0,-1.997369342E-3,6.791055668E-3,-7.989477599E-4
7.971319171E0,-7.323687430E-3,-4.394212738E-3,-1.331579522E-3
7.991501723E0,-8.388951421E-3,-1.398158539E-2,-1.331579522E-3
8.011685682E0,-1.105211023E-2,-2.250369452E-2,-1.331579522E-3
8.031871203E0,-1.211737376E-2,-2.996053919E-2,2.663159103E-4
8.052058390E0,-9.454214945E-3,-3.422159329E-2,-2.663159103E-4
8.072247244E0,-5.193160381E-3,-3.049317189E-2,-1.331579522E-3
8.092437765E0,2.263685223E-3,-2.197106183E-2,1.331579522E-3
8.112629901E0,9.720530361E-3,-1.025316212E-2,4.527370445E-3
8.132823494E0,1.398158539E-2,9.321057005E-4,3.462106921E-3
8.153018286E0,1.717737690E-2,1.424790081E-2,1.864211401E-3
8.173214015E0,1.771000773E-2,2.383527346E-2,2.396843163E-3
8.193410421E0,1.344895363E-2,3.289001435E-2,1.864211401E-3
8.213607192E0,1.185105834E-2,4.194475710E-2,2.663159103E-4
8.233803703E0,1.185105834E-2,4.673844203E-2,-3.462106921E-3
8.253996567E0,9.720530361E-3,4.993423447E-2,-6.125265732E-3
8.274183442E0,7.057371549E-3,5.153212696E-2,-6.657897960E-3
8.294367817E0,7.057371549E-3,4.407528415E-2,-6.125265732E-3
8.314552713E0,6.524739787E-3,2.756369673E-2,-3.462106921E-3
8.334738286E0,-1.464737463E-3,6.258423906E-3,2.396843163E-3
8.354924640E0,-8.388951421E-3,-8.655266836E-3,7.723161485E-3
8.375111880E0,-5.193160381E-3,-1.557948068E-2,1.091895252E-2
8.395300057E0,-3.062632866E-3,-1.824264042E-2,9.853689000E-3
8.415489171E0,-2.530001104E-3,-1.824264042E-2,6.657897960E-3
8.435679223E0,3.328948980E-3,-9.187898599E-3,5.592633970E-3
8.455870161E0,1.238369010E-2,1.464737463E-3,3.462106921E-3
8.476061880E0,1.824264042E-2,7.323687430E-3,1.331579522E-3
8.496254276E0,2.942790836E-2,2.703106403E-2,3.462106921E-3
8.516447244E0,4.327633604E-2,4.460791498E-2,7.190529723E-3
8.536640630E0,3.368896246E-2,3.235738352E-2,8.788425475E-3
8.556834223E0,1.557948068E-2,1.318263728E-2,1.145158429E-2
8.577033286E0,1.504684892E-2,2.117211558E-2,1.091895252E-2
8.597225421E0,1.398158539E-2,4.301001877E-2,8.788425475E-3
8.617405369E0,2.796316985E-3,5.739107728E-2,6.657897960E-3
8.637585838E0,-1.105211023E-2,5.792371184E-2,6.125265732E-3
8.657767192E0,-1.265000552E-2,5.313002318E-2,3.462106921E-3
8.677949744E0,-5.193160381E-3,4.727107286E-2,1.864211401E-3
8.698133703E0,-3.994738800E-4,3.874896467E-2,-7.989477599E-4
8.718319223E0,-9.321057005E-4,3.448791057E-2,-2.929474926E-3
8.738506411E0,1.731053460E-3,3.342264518E-2,-4.527370445E-3
8.758695265E0,7.590003312E-3,3.289001435E-2,-4.527370445E-3
8.778885786E0,8.122635074E-3,2.649843320E-2,-4.527370445E-3
8.799077869E0,3.328948980E-3,1.158474199E-2,-3.462106921E-3
8.819271359E0,2.796316985E-3,-3.861580743E-3,-5.060002208E-3
8.839466046E0,6.657897611E-4,-2.037316747E-2,-4.527370445E-3
8.859661671E0,3.328948980E-3,-2.037316747E-2,-6.125265732E-3
8.879857973E0,2.263685223E-3,-8.655266836E-3,-6.125265732E-3
8.900054640E0,5.992108025E-3,5.193160381E-3,-7.723161485E-3
8.920251203E0,6.524739787E-3,8.388951421E-3,-9.321057238E-3
8.940444223E0,5.459476262E-3,-1.331579551E-4,-9.853689000E-3
8.960633859E0,5.992108025E-3,-1.025316212E-2,-1.038632076E-2
8.980820734E0,7.057371549E-3,-1.717737690E-2,-1.198421605E-2
9.001005109E0,3.328948980E-3,-1.611211337E-2,-9.853689000E-3
9.021189953E0,-1.464737463E-3,-1.291632187E-2,-5.592633970E-3
9.041375421E0,-3.062632866E-3,-8.122635074E-3,-7.989477599E-4
9.061561671E0,-3.994738800E-4,-4.394212738E-3,2.396843163E-3
9.081748807E0,-1.464737463E-3,-3.328948980E-3,2.929474926E-3
9.101936880E0,-2.530001104E-3,1.464737463E-3,3.462106921E-3
9.122125890E0,-3.994738800E-4,8.921583183E-3,5.060002208E-3
9.142315838E0,1.198421582E-3,1.584579609E-2,5.060002208E-3
9.162506723E0,2.263685223E-3,2.490053698E-2,5.060002208E-3
9.182698442E0,1.198421582E-3,3.129211813E-2,5.060002208E-3
9.202890838E0,2.796316985E-3,3.715106845E-2,3.994738683E-3
9.223083807E0,2.796316985E-3,3.981423005E-2,3.994738683E-3
9.243277192E0,1.198421582E-3,3.874896467E-2,3.994738683E-3
9.263470838E0,2.263685223E-3,3.768370301E-2,5.592633970E-3
9.283670005E0,6.657897611E-4,3.395527974E-2,3.994738683E-3
9.303862244E0,3.861580743E-3,3.075948730E-2,2.396843163E-3
9.324042296E0,6.524739787E-3,2.277000993E-2,7.989477599E-4
9.344222869E0,3.861580743E-3,1.371526904E-2,1.331579522E-3
9.364404328E0,6.657897611E-4,1.105211023E-2,2.663159103E-4
9.384586932E0,6.657897611E-4,8.388951421E-3,-2.663159103E-4
9.404770890E0,1.198421582E-3,3.595264861E-3,-2.663159103E-4
9.424956411E0,-3.994738800E-4,-1.731053460E-3,7.989477599E-4
9.445143598E0,-2.530001104E-3,-8.122635074E-3,2.663159103E-4
9.465332453E0,-2.530001104E-3,-9.720530361E-3,-2.663159103E-4
9.485522973E0,-1.997369342E-3,-9.187898599E-3,-7.989477599E-4
9.505715057E0,-1.997369342E-3,-7.590003312E-3,-1.331579522E-3
9.525908494E0,1.331579551E-4,-4.926844500E-3,-2.929474926E-3
9.546103078E0,1.731053460E-3,-3.328948980E-3,-4.527370445E-3
9.566298598E0,1.731053460E-3,-4.394212738E-3,-2.929474926E-3
9.586494796E0,1.331579551E-4,-4.926844500E-3,-2.396843163E-3
9.606691359E0,-9.321057005E-4,-1.731053460E-3,-2.396843163E-3
9.626887817E0,-9.321057005E-4,3.994738800E-4,-1.331579522E-3
9.647080734E0,1.331579551E-4,1.997369342E-3,-1.331579522E-3
9.667267609E0,1.331579551E-4,1.997369342E-3,-1.331579522E-3
9.687451984E0,1.331579551E-4,3.062632866E-3,-1.331579522E-3
9.707636828E0,1.198421582E-3,3.062632866E-3,-2.663159103E-4
9.727822296E0,1.331579551E-4,4.660528619E-3,2.663159103E-4
9.748008546E0,1.331579551E-4,6.258423906E-3,1.864211401E-3
9.768195682E0,-3.994738800E-4,6.258423906E-3,1.864211401E-3
9.788383755E0,-1.464737463E-3,6.258423906E-3,1.331579522E-3
9.808572765E0,-1.464737463E-3,6.258423906E-3,-2.663159103E-4
9.828762713E0,1.331579551E-4,4.127896391E-3,-2.663159103E-4
9.848953546E0,1.198421582E-3,1.997369342E-3,-2.663159103E-4
9.884268182E0,1.198421582E-3,-2.263685223E-3,-2.663159103E-4
9.904280682E0,2.263685223E-3,-4.394212738E-3,-2.663159103E-4
9.924307088E0,2.263685223E-3,-5.459476262E-3,7.989477599E-4
9.944353338E0,1.331579551E-4,-3.328948980E-3,1.864211401E-3
9.964424380E0,1.331579551E-4,9.321057005E-4,1.864211401E-3
9.984523963E0,1.198421582E-3,3.062632866E-3,7.989477599E-4
1.000465454E1,1.198421582E-3,1.997369342E-3,7.989477599E-4
1.002481724E1,-9.321057005E-4,-1.198421582E-3,-2.663159103E-4
1.004501188E1,-1.997369342E-3,-3.328948980E-3,-1.331579522E-3
1.006523693E1,-3.062632866E-3,-2.263685223E-3,-1.331579522E-3
1.008548980E1,-1.997369342E-3,-1.331579551E-4,-1.331579522E-3
1.010576683E1,-9.321057005E-4,1.997369342E-3,-2.396843163E-3
1.012606355E1,1.331579551E-4,3.062632866E-3,-2.396843163E-3
1.014637490E1,1.198421582E-3,3.062632866E-3,-1.331579522E-3
1.016669542E1,1.331579551E-4,9.321057005E-4,-1.331579522E-3
1.018701948E1,1.331579551E-4,-1.331579551E-4,-2.663159103E-4
1.020729526E1,1.198421582E-3,-1.331579551E-4,7.989477599E-4
1.022748485E1,1.331579551E-4,-1.198421582E-3,1.864211401E-3
1.024767172E1,-9.321057005E-4,-2.263685223E-3,1.864211401E-3
1.026785881E1,-9.321057005E-4,-2.263685223E-3,1.864211401E-3
1.028804615E1,1.331579551E-4,-1.198421582E-3,1.864211401E-3
1.030823386E1,1.198421582E-3,-1.331579551E-4,1.864211401E-3
1.032842198E1,1.198421582E-3,-1.331579551E-4,7.989477599E-4
1.034861058E1,1.331579551E-4,-1.331579551E-4,7.989477599E-4
1.036879964E1,-9.321057005E-4,9.321057005E-4,7.989477599E-4
1.038898917E1,-3.062632866E-3,3.062632866E-3,7.989477599E-4
1.040917917E1,-4.127896391E-3,3.062632866E-3,7.989477599E-4
1.042936959E1,-3.062632866E-3,3.062632866E-3,7.989477599E-4
1.044956037E1,-1.997369342E-3,1.997369342E-3,1.864211401E-3
1.046975146E1,-1.997369342E-3,-1.331579551E-4,3.994738683E-3
1.048994282E1,-4.127896391E-3,-2.263685223E-3,6.125265732E-3
1.051013433E1,-8.388951421E-3,-1.078579482E-2,8.255792782E-3
1.053032594E1,-1.158474199E-2,-2.143843099E-2,9.321057238E-3
1.055052297E1,-4.127896391E-3,-1.398158539E-2,1.038632076E-2
1.057070766E1,-9.321057005E-4,7.323687430E-3,8.255792782E-3
1.059089251E1,-5.193160381E-3,2.117211558E-2,6.125265732E-3
1.061107771E1,-6.258423906E-3,2.010685205E-2,2.929474926E-3
1.063126344E1,-9.321057005E-4,1.158474199E-2,-2.396843163E-3
1.065144980E1,7.590003312E-3,1.265000552E-2,-5.592633970E-3
1.067163688E1,1.611211337E-2,2.436790615E-2,-6.657897960E-3
1.069182480E1,1.824264042E-2,3.715106845E-2,-5.592633970E-3
1.071201355E1,1.930790395E-2,4.354264960E-2,-5.592633970E-3
1.073220313E1,1.611211337E-2,3.821633384E-2,-6.657897960E-3
1.075239355E1,4.394212738E-3,1.904158667E-2,-2.396843163E-3
1.077258469E1,-3.062632866E-3,9.321057005E-4,1.864211401E-3
1.079277652E1,-5.193160381E-3,-9.720530361E-3,7.989477599E-4
1.081296886E1,-1.051947847E-2,-1.291632187E-2,5.060002208E-3
1.083316162E1,-1.371526904E-2,-1.398158539E-2,1.464737486E-2
1.085335464E1,-2.010685205E-2,-2.463422157E-2,1.784316637E-2
1.087354777E1,-2.649843320E-2,-3.635212034E-2,1.145158429E-2
1.089374068E1,-1.691105962E-2,-2.463422157E-2,3.994738683E-3
1.091393027E1,-8.388951421E-3,-5.459476262E-3,-1.331579522E-3
1.093411980E1,-8.388951421E-3,-3.328948980E-3,-4.527370445E-3
1.095430662E1,-9.321057005E-4,-4.394212738E-3,-6.657897960E-3
1.097449365E1,1.078579482E-2,7.323687430E-3,-7.723161485E-3
1.099468099E1,2.037316747E-2,3.502054140E-2,-5.592633970E-3
1.101486870E1,2.676474862E-2,6.804371625E-2,-1.331579522E-3
1.103505683E1,2.783001214E-2,7.976161689E-2,7.989477599E-4
1.105524542E1,2.676474862E-2,7.230477035E-2,1.864211401E-3
1.107543448E1,2.463422157E-2,6.484792382E-2,3.994738683E-3
1.109562402E1,1.611211337E-2,5.952160433E-2,8.255792782E-3
1.111581402E1,4.394212738E-3,5.099949613E-2,8.255792782E-3
1.113600443E1,-3.062632866E-3,3.928159550E-2,6.125265732E-3
1.115619521E1,-5.193160381E-3,2.649843320E-2,5.060002208E-3
1.117638631E1,-4.127896391E-3,1.265000552E-2,3.994738683E-3
1.119657766E1,-6.258423906E-3,-2.263685223E-3,1.864211401E-3
1.121676917E1,-1.051947847E-2,-1.398158539E-2,-4.527370445E-3
1.123696073E1,-8.388951421E-3,-2.250369452E-2,-9.853689000E-3
1.125715771E1,-3.062632866E-3,-2.996053919E-2,-1.091895252E-2
1.127734230E1,1.198421582E-3,-3.422159329E-2,-8.788425475E-3
1.129752704E1,1.331579551E-4,-3.528685868E-2,-6.657897960E-3
1.131771214E1,-9.321057005E-4,-3.315633163E-2,-3.462106921E-3
1.133789777E1,-1.997369342E-3,-2.889527567E-2,-2.663159103E-4
1.135808407E1,-4.127896391E-3,-2.569948509E-2,1.864211401E-3
1.137827115E1,-7.323687430E-3,-2.569948509E-2,-2.663159103E-4
1.139845907E1,-5.193160381E-3,-2.463422157E-2,-3.462106921E-3
1.141864787E1,-9.321057005E-4,-2.037316747E-2,-5.592633970E-3
1.143883750E1,1.331579551E-4,-1.291632187E-2,-4.527370445E-3
1.145902797E1,-1.997369342E-3,-5.459476262E-3,-3.462106921E-3
1.147921917E1,-9.321057005E-4,3.062632866E-3,-4.527370445E-3
1.149941105E1,4.394212738E-3,1.797632314E-2,-5.592633970E-3
1.151960344E1,8.655266836E-3,3.182475269E-2,-5.592633970E-3
1.153979626E1,6.524739787E-3,3.182475269E-2,-3.462106921E-3
1.155998933E1,3.328948980E-3,1.797632314E-2,-2.396843163E-3
1.158018251E1,1.198421582E-3,1.997369342E-3,-3.462106921E-3
1.160037511E1,1.198421582E-3,-4.394212738E-3,-1.331579522E-3
1.162056469E1,1.198421582E-3,-5.459476262E-3,2.929474926E-3
1.164075422E1,1.331579551E-4,-6.524739787E-3,6.125265732E-3
1.166094105E1,-9.321057005E-4,-7.590003312E-3,5.060002208E-3
1.168112808E1,1.198421582E-3,-7.590003312E-3,5.060002208E-3
1.170131537E1,-9.321057005E-4,-5.459476262E-3,5.060002208E-3
1.172150303E1,-4.127896391E-3,-3.328948980E-3,6.125265732E-3
1.174169110E1,-3.062632866E-3,-1.331579551E-4,5.060002208E-3
1.176187964E1,-9.321057005E-4,4.127896391E-3,1.864211401E-3
1.178206865E1,1.331579551E-4,9.454214945E-3,-2.663159103E-4
1.180225813E1,2.263685223E-3,1.584579609E-2,-3.462106921E-3
1.182244808E1,8.655266836E-3,2.649843320E-2,-5.592633970E-3
1.184263844E1,1.504684892E-2,3.502054140E-2,-7.723161485E-3
1.186282917E1,1.398158539E-2,3.182475269E-2,-6.657897960E-3
1.188302021E1,6.524739787E-3,1.797632314E-2,-2.396843163E-3
1.190321152E1,4.394212738E-3,8.388951421E-3,-1.331579522E-3
1.192340297E1,5.459476262E-3,5.193160381E-3,-2.663159103E-4
1.194359454E1,2.263685223E-3,-1.331579551E-4,1.864211401E-3
1.196379152E1,-1.997369342E-3,-7.590003312E-3,3.994738683E-3
1.198397652E1,-5.193160381E-3,-1.717737690E-2,2.929474926E-3
1.200416167E1,-7.323687430E-3,-2.463422157E-2,7.989477599E-4
1.202434714E1,-9.454214945E-3,-2.676474862E-2,-1.331579522E-3
1.204453308E1,-1.051947847E-2,-2.463422157E-2,-3.462106921E-3
1.206471964E1,-9.454214945E-3,-2.143843099E-2,-4.527370445E-3
1.208490688E1,-6.258423906E-3,-1.717737690E-2,-5.592633970E-3
1.210509490E1,-1.997369342E-3,-1.078579482E-2,-6.657897960E-3
1.212528370E1,1.198421582E-3,-2.263685223E-3,-7.723161485E-3
1.214547329E1,1.198421582E-3,1.997369342E-3,-7.723161485E-3
1.216566360E1,2.263685223E-3,3.062632866E-3,-6.657897960E-3
1.218585459E1,3.328948980E-3,1.997369342E-3,-4.527370445E-3
1.220604620E1,4.394212738E-3,9.321057005E-4,-1.331579522E-3
1.222623834E1,5.459476262E-3,-1.198421582E-3,7.989477599E-4
1.224643084E1,5.459476262E-3,-1.198421582E-3,2.929474926E-3
1.226662360E1,4.394212738E-3,-1.198421582E-3,3.994738683E-3
1.228681646E1,2.263685223E-3,-1.331579551E-4,6.125265732E-3
1.230700912E1,1.198421582E-3,3.062632866E-3,7.190529723E-3
1.232719865E1,1.331579551E-4,6.258423906E-3,6.125265732E-3
1.234738547E1,-1.997369342E-3,9.454214945E-3,5.060002208E-3
1.236757250E1,-1.997369342E-3,1.158474199E-2,5.060002208E-3
1.238775980E1,-1.997369342E-3,1.478053257E-2,3.994738683E-3
1.240794745E1,-9.321057005E-4,2.117211558E-2,3.994738683E-3
1.242813553E1,1.331579551E-4,2.543316968E-2,3.994738683E-3
1.244832407E1,-9.321057005E-4,2.756369673E-2,5.060002208E-3
1.246851308E1,1.198421582E-3,2.969422378E-2,3.994738683E-3
1.248870256E1,2.263685223E-3,3.075948730E-2,2.929474926E-3
1.250889250E1,1.198421582E-3,2.543316968E-2,1.864211401E-3
1.252908287E1,1.198421582E-3,1.797632314E-2,7.989477599E-4
1.254927360E1,4.394212738E-3,1.051947847E-2,-2.663159103E-4
1.256946464E1,5.459476262E-3,9.321057005E-4,-2.663159103E-4
1.258965594E1,1.331579551E-4,-8.655266836E-3,7.989477599E-4
1.260984740E1,-3.062632866E-3,-1.611211337E-2,7.989477599E-4
1.263003896E1,-1.997369342E-3,-1.824264042E-2,7.989477599E-4
1.265023594E1,-3.062632866E-3,-1.717737690E-2,1.864211401E-3
1.267042063E1,-5.193160381E-3,-1.717737690E-2,1.864211401E-3
1.269060547E1,-8.388951421E-3,-1.824264042E-2,1.864211401E-3
1.271079068E1,-8.388951421E-3,-1.930790395E-2,7.989477599E-4
1.273097641E1,-7.323687430E-3,-1.611211337E-2,-2.663159103E-4
1.275116276E1,-3.062632866E-3,-8.655266836E-3,-1.331579522E-3
1.277134985E1,2.263685223E-3,4.127896391E-3,-2.396843163E-3
1.279153777E1,7.590003312E-3,1.478053257E-2,-2.396843163E-3
1.281172652E1,7.590003312E-3,1.691105962E-2,-1.331579522E-3
1.283191610E1,4.394212738E-3,1.158474199E-2,-1.331579522E-3
1.285210646E1,2.263685223E-3,7.323687430E-3,-1.331579522E-3
1.287229756E1,2.263685223E-3,4.127896391E-3,7.989477599E-4
1.289248928E1,2.263685223E-3,1.997369342E-3,1.864211401E-3
1.291268152E1,1.198421582E-3,9.321057005E-4,2.929474926E-3
1.293287417E1,2.263685223E-3,1.997369342E-3,2.929474926E-3
1.295306709E1,2.263685223E-3,1.997369342E-3,2.929474926E-3
1.297326011E1,1.331579551E-4,-1.198421582E-3,1.864211401E-3
1.299345292E1,-9.321057005E-4,-2.263685223E-3,2.929474926E-3
1.301364245E1,-1.997369342E-3,-2.263685223E-3,1.864211401E-3
1.303382928E1,-9.321057005E-4,9.321057005E-4,1.864211401E-3
1.305401631E1,-9.321057005E-4,6.258423906E-3,7.989477599E-4
1.307420360E1,-9.321057005E-4,1.051947847E-2,7.989477599E-4
1.309439126E1,1.331579551E-4,1.051947847E-2,7.989477599E-4
1.311457933E1,1.331579551E-4,6.258423906E-3,-2.663159103E-4
1.313476787E1,-9.321057005E-4,-1.331579551E-4,-2.663159103E-4
1.315495688E1,-9.321057005E-4,-4.394212738E-3,7.989477599E-4
1.317514636E1,1.198421582E-3,-7.590003312E-3,7.989477599E-4
1.319533631E1,2.263685223E-3,-1.078579482E-2,-2.663159103E-4
1.321552667E1,3.328948980E-3,-9.720530361E-3,-2.663159103E-4
1.323571740E1,4.394212738E-3,-8.655266836E-3,7.989477599E-4
1.325590844E1,2.263685223E-3,-5.459476262E-3,7.989477599E-4
1.327609974E1,-9.321057005E-4,-1.198421582E-3,7.989477599E-4
1.329629120E1,1.331579551E-4,1.997369342E-3,7.989477599E-4
1.331648271E1,1.331579551E-4,3.062632866E-3,1.864211401E-3
1.333667964E1,1.331579551E-4,1.997369342E-3,2.929474926E-3
1.335686422E1,1.331579551E-4,3.062632866E-3,2.929474926E-3
1.337704896E1,-1.997369342E-3,1.997369342E-3,2.929474926E-3
1.339723407E1,-1.997369342E-3,1.997369342E-3,7.989477599E-4
1.341741969E1,1.198421582E-3,6.258423906E-3,-2.663159103E-4
1.343760599E1,2.263685223E-3,1.051947847E-2,-1.331579522E-3
1.345779303E1,1.331579551E-4,1.051947847E-2,-2.663159103E-4
1.347798089E1,-3.062632866E-3,8.388951421E-3,-2.663159103E-4
1.349816959E1,-3.062632866E-3,6.258423906E-3,-1.331579522E-3
1.351835912E1,-1.997369342E-3,3.062632866E-3,-3.462106921E-3
1.353854948E1,1.331579551E-4,-1.331579551E-4,-3.462106921E-3
1.355874058E1,1.331579551E-4,-2.263685223E-3,-3.462106921E-3
1.357893235E1,2.263685223E-3,-3.328948980E-3,-4.527370445E-3
1.359912464E1,4.394212738E-3,-2.263685223E-3,-5.592633970E-3
1.361931735E1,5.459476262E-3,-1.331579551E-4,-5.592633970E-3
1.363951032E1,3.328948980E-3,-4.394212738E-3,-5.592633970E-3
1.365970339E1,1.198421582E-3,-1.291632187E-2,-4.527370445E-3
1.367989631E1,1.198421582E-3,-2.037316747E-2,-4.527370445E-3
1.370008584E1,2.263685223E-3,-2.356895804E-2,-4.527370445E-3
1.372027532E1,3.328948980E-3,-2.250369452E-2,-3.462106921E-3
1.374046209E1,4.394212738E-3,-1.504684892E-2,-2.663159103E-4
1.376064907E1,2.263685223E-3,-1.185105834E-2,2.929474926E-3
1.378083636E1,1.198421582E-3,-1.185105834E-2,7.190529723E-3
1.380102402E1,1.198421582E-3,-8.655266836E-3,1.145158429E-2
1.382121209E1,2.263685223E-3,-4.394212738E-3,1.464737486E-2
1.384140063E1,1.198421582E-3,3.062632866E-3,1.571263932E-2
1.386158964E1,-1.997369342E-3,1.158474199E-2,1.890842989E-2
1.388177912E1,-8.388951421E-3,1.904158667E-2,2.103895694E-2
1.390196907E1,-1.478053257E-2,2.649843320E-2,2.103895694E-2
1.392215943E1,-1.584579609E-2,2.543316968E-2,1.997369342E-2
1.394235016E1,-1.158474199E-2,2.010685205E-2,1.464737486E-2
1.396254120E1,-8.388951421E-3,1.478053257E-2,1.038632076E-2
1.398273251E1,-7.323687430E-3,9.454214945E-3,1.145158429E-2
1.400292396E1,-9.454214945E-3,6.258423906E-3,1.571263932E-2
1.402311547E1,-1.158474199E-2,3.062632866E-3,1.890842989E-2
1.404331240E1,-1.051947847E-2,-1.198421582E-3,1.571263932E-2
1.406349683E1,-6.258423906E-3,-5.459476262E-3,1.145158429E-2
1.408368141E1,1.331579551E-4,-9.720530361E-3,8.255792782E-3
1.410386636E1,4.394212738E-3,-1.398158539E-2,7.190529723E-3
1.412405183E1,6.524739787E-3,-8.655266836E-3,3.994738683E-3
1.414423797E1,1.078579482E-2,-1.331579551E-4,-2.663159103E-4
1.416442490E1,1.398158539E-2,3.062632866E-3,-2.396843163E-3
1.418461266E1,1.185105834E-2,3.062632866E-3,-4.527370445E-3
1.420480131E1,5.459476262E-3,5.193160381E-3,-3.462106921E-3
1.422499084E1,1.331579551E-4,8.388951421E-3,1.864211401E-3
1.424518120E1,-5.193160381E-3,1.478053257E-2,8.255792782E-3
1.426537235E1,-9.454214945E-3,1.691105962E-2,1.038632076E-2
1.428556417E1,-1.265000552E-2,9.454214945E-3,1.038632076E-2
1.430575657E1,-1.584579609E-2,-3.328948980E-3,9.321057238E-3
1.432594938E1,-1.691105962E-2,-1.611211337E-2,8.255792782E-3
1.434614245E1,-1.691105962E-2,-2.889527567E-2,6.125265732E-3
1.436633563E1,-1.478053257E-2,-3.954791278E-2,7.989477599E-4
1.438652870E1,-1.158474199E-2,-4.593949392E-2,-4.527370445E-3
1.440671818E1,-7.323687430E-3,-4.913528636E-2,-9.853689000E-3
1.442690495E1,-1.997369342E-3,-5.020054802E-2,-1.198421605E-2
1.444709193E1,2.263685223E-3,-4.593949392E-2,-1.198421605E-2
1.446727917E1,1.198421582E-3,-4.061317816E-2,-9.853689000E-3
1.448746678E1,-9.321057005E-4,-3.422159329E-2,-7.723161485E-3
1.450765480E1,1.198421582E-3,-2.143843099E-2,-8.788425475E-3
1.452784329E1,3.328948980E-3,-1.291632187E-2,-6.657897960E-3
1.454803224E1,3.328948980E-3,-2.263685223E-3,-2.396843163E-3
1.456822167E1,1.198421582E-3,1.051947847E-2,7.989477599E-4
1.458841157E1,-4.127896391E-3,1.371526904E-2,7.989477599E-4
1.460860188E1,-9.321057005E-4,1.584579609E-2,-1.331579522E-3
1.462879256E1,1.078579482E-2,2.117211558E-2,-2.396843163E-3
1.464898355E1,1.824264042E-2,2.436790615E-2,-2.663159103E-4
1.466917480E1,1.824264042E-2,3.289001435E-2,3.994738683E-3
1.468936620E1,1.078579482E-2,4.247738793E-2,8.255792782E-3
1.470955771E1,-9.321057005E-4,4.034686089E-2,1.145158429E-2
1.472975464E1,-9.454214945E-3,2.862896025E-2,1.145158429E-2
1.474993943E1,-1.051947847E-2,1.478053257E-2,9.321057238E-3
1.477012438E1,-9.454214945E-3,1.997369342E-3,5.060002208E-3
1.479030964E1,-8.388951421E-3,-3.328948980E-3,-2.663159103E-4
1.481049537E1,-7.323687430E-3,-9.720530361E-3,-5.592633970E-3
1.483068172E1,-3.062632866E-3,-1.504684892E-2,-9.853689000E-3
1.485086881E1,5.459476262E-3,-9.720530361E-3,-1.198421605E-2
1.487105667E1,7.590003312E-3,-8.655266836E-3,-1.091895252E-2
1.489124537E1,5.459476262E-3,-1.398158539E-2,-8.788425475E-3
1.491143490E1,7.590003312E-3,-1.717737690E-2,-8.788425475E-3
1.493162521E1,8.655266836E-3,-1.824264042E-2,-9.853689000E-3
1.495181626E1,4.394212738E-3,-2.676474862E-2,-7.723161485E-3
1.497200792E1,-4.127896391E-3,-3.954791278E-2,-6.657897960E-3
1.499220011E1,-1.158474199E-2,-4.807002097E-2,-3.462106921E-3
1.501239266E1,-1.584579609E-2,-5.020054802E-2,2.929474926E-3
1.503258547E1,-1.691105962E-2,-4.487423226E-2,8.255792782E-3
1.505277839E1,-1.691105962E-2,-3.422159329E-2,1.251684781E-2
1.507297105E1,-1.691105962E-2,-2.463422157E-2,1.571263932E-2
1.509316053E1,-1.371526904E-2,-1.291632187E-2,1.571263932E-2
1.511334730E1,-8.388951421E-3,1.997369342E-3,1.464737486E-2
1.513353428E1,-1.997369342E-3,1.584579609E-2,1.145158429E-2
1.515372152E1,4.394212738E-3,3.395527974E-2,8.255792782E-3
1.517390912E1,9.720530361E-3,5.313002318E-2,7.190529723E-3
1.519409714E1,1.398158539E-2,7.123950869E-2,7.190529723E-3
1.521428563E1,1.717737690E-2,8.402267098E-2,3.994738683E-3
1.523447459E1,1.611211337E-2,8.295740932E-2,-2.396843163E-3
1.525466402E1,1.504684892E-2,7.976161689E-2,-8.788425475E-3
1.527485391E1,1.504684892E-2,7.763108611E-2,-1.091895252E-2
1.529504422E1,1.717737690E-2,7.656582445E-2,-8.788425475E-3
1.531523490E1,1.717737690E-2,7.337003201E-2,-8.788425475E-3
1.533542589E1,2.143843099E-2,7.123950869E-2,-9.853689000E-3
1.535561714E1,2.569948509E-2,7.017423958E-2,-9.853689000E-3
1.537580855E1,2.356895804E-2,6.165213138E-2,-6.657897960E-3
1.539600006E1,1.504684892E-2,4.141212255E-2,-4.527370445E-3
1.541619698E1,8.655266836E-3,1.584579609E-2,-5.592633970E-3
1.543638146E1,6.524739787E-3,-1.198421582E-3,-4.527370445E-3
1.545656610E1,6.524739787E-3,-1.185105834E-2,-2.663159103E-4
1.547675110E1,1.331579551E-4,-2.143843099E-2,2.929474926E-3
1.549693662E1,-5.193160381E-3,-3.315633163E-2,1.864211401E-3
1.551712282E1,-7.323687430E-3,-4.061317816E-2,7.989477599E-4
1.553730980E1,-8.388951421E-3,-4.700475931E-2,1.864211401E-3
1.555749761E1,-1.051947847E-2,-5.020054802E-2,1.864211401E-3
1.557768631E1,-1.158474199E-2,-4.807002097E-2,7.989477599E-4
1.559787589E1,-1.051947847E-2,-4.487423226E-2,2.929474926E-3
1.561806631E1,-1.051947847E-2,-3.848264739E-2,6.125265732E-3
1.563825745E1,-1.051947847E-2,-3.209106624E-2,7.190529723E-3
1.565844928E1,-1.051947847E-2,-2.783001214E-2,7.190529723E-3
1.567864162E1,-1.051947847E-2,-2.037316747E-2,5.060002208E-3
1.569883438E1,-7.323687430E-3,-9.720530361E-3,-2.663159103E-4
1.571902740E1,-9.321057005E-4,9.321057005E-4,-4.527370445E-3
1.573922053E1,5.459476262E-3,1.158474199E-2,-8.788425475E-3
1.575941282E1,8.655266836E-3,2.330264263E-2,-9.853689000E-3
1.577960230E1,8.655266836E-3,3.182475269E-2,-7.723161485E-3
1.579979172E1,5.459476262E-3,3.289001435E-2,-5.592633970E-3
1.581997844E1,3.328948980E-3,3.182475269E-2,-6.657897960E-3
1.584016537E1,4.394212738E-3,3.075948730E-2,-6.657897960E-3
1.586035261E1,4.394212738E-3,2.756369673E-2,-3.462106921E-3
1.588054021E1,1.331579551E-4,1.691105962E-2,-1.331579522E-3
1.590072823E1,-3.062632866E-3,3.062632866E-3,-1.331579522E-3
1.592091672E1,-1.997369342E-3,-4.394212738E-3,-2.663159103E-4
1.594110568E1,-9.321057005E-4,-9.720530361E-3,2.929474926E-3
1.596129511E1,-9.321057005E-4,-1.398158539E-2,3.994738683E-3
1.598148501E1,1.198421582E-3,-1.611211337E-2,1.864211401E-3
1.600167532E1,5.459476262E-3,-1.611211337E-2,-1.331579522E-3
1.602186599E1,8.655266836E-3,-1.185105834E-2,-2.396843163E-3
1.604205698E1,8.655266836E-3,-6.524739787E-3,-2.396843163E-3
1.606224823E1,7.590003312E-3,-1.331579551E-4,-3.462106921E-3
1.608243964E1,4.394212738E-3,3.062632866E-3,-3.462106921E-3
1.610263110E1,-1.997369342E-3,1.997369342E-3,-4.527370445E-3
1.612282797E1,-8.388951421E-3,-2.263685223E-3,-6.657897960E-3
1.614301240E1,-9.454214945E-3,-7.590003312E-3,-9.853689000E-3
1.616319698E1,-7.323687430E-3,-1.185105834E-2,-1.091895252E-2
1.618338193E1,-6.258423906E-3,-1.611211337E-2,-8.788425475E-3
1.620356740E1,-6.258423906E-3,-2.143843099E-2,-4.527370445E-3
1.622375355E1,-6.258423906E-3,-2.569948509E-2,-1.331579522E-3
1.624394047E1,-6.258423906E-3,-2.889527567E-2,5.060002208E-3
1.626412823E1,-8.388951421E-3,-2.783001214E-2,1.358211134E-2
1.628431688E1,-1.158474199E-2,-2.250369452E-2,1.997369342E-2
1.630450641E1,-1.051947847E-2,-2.250369452E-2,1.997369342E-2
1.632469678E1,-5.193160381E-3,-2.463422157E-2,1.571263932E-2
1.634488792E1,1.331579551E-4,-2.037316747E-2,1.145158429E-2
1.636507974E1,4.394212738E-3,-1.398158539E-2,9.321057238E-3
1.638527209E1,6.524739787E-3,-9.720530361E-3,3.994738683E-3
1.640546485E1,7.590003312E-3,-1.331579551E-4,-2.396843163E-3
1.642565787E1,7.590003312E-3,1.584579609E-2,-4.527370445E-3
1.644585099E1,6.524739787E-3,3.395527974E-2,-2.663159103E-4
1.646604349E1,3.328948980E-3,4.567318037E-2,1.864211401E-3
1.648623292E1,1.331579551E-4,4.567318037E-2,2.929474926E-3
1.650641964E1,-1.997369342E-3,4.460791498E-2,1.864211401E-3
1.652660657E1,-1.997369342E-3,4.567318037E-2,7.989477599E-4
1.654679376E1,2.263685223E-3,4.247738793E-2,7.989477599E-4
1.656698131E1,4.394212738E-3,3.182475269E-2,-2.396843163E-3
1.658716928E1,3.328948980E-3,1.797632314E-2,-3.462106921E-3
1.660735771E1,1.198421582E-3,1.997369342E-3,-4.527370445E-3
1.662754662E1,-1.997369342E-3,-1.185105834E-2,-5.592633970E-3
1.664773599E1,-3.062632866E-3,-2.037316747E-2,-6.657897960E-3
1.666792584E1,-1.997369342E-3,-2.463422157E-2,-5.592633970E-3
1.668811610E1,-3.062632866E-3,-3.102580272E-2,-4.527370445E-3
1.670830672E1,-7.323687430E-3,-3.635212034E-2,-2.396843163E-3
1.672849766E1,-8.388951421E-3,-3.741738573E-2,-3.462106921E-3
1.674868886E1,-5.193160381E-3,-2.996053919E-2,-3.462106921E-3
1.676888021E1,-9.321057005E-4,-1.717737690E-2,-2.396843163E-3
1.678907167E1,5.459476262E-3,-3.328948980E-3,-2.396843163E-3
1.680926855E1,9.720530361E-3,1.051947847E-2,-1.331579522E-3
1.682945329E1,9.720530361E-3,2.330264263E-2,7.989477599E-4
1.684963818E1,8.655266836E-3,3.395527974E-2,1.864211401E-3
1.686982339E1,9.720530361E-3,3.928159550E-2,7.989477599E-4
1.689000907E1,9.720530361E-3,4.034686089E-2,7.989477599E-4
1.691019537E1,6.524739787E-3,4.141212255E-2,2.929474926E-3
1.693038240E1,3.328948980E-3,3.608580679E-2,3.994738683E-3
1.695057021E1,1.331579551E-4,2.862896025E-2,2.929474926E-3
1.697075886E1,-1.997369342E-3,2.117211558E-2,7.989477599E-4
1.699094834E1,-3.062632866E-3,1.371526904E-2,-1.331579522E-3
1.701113860E1,-5.193160381E-3,1.997369342E-3,-2.396843163E-3
1.703132959E1,-6.258423906E-3,-9.720530361E-3,-4.527370445E-3
1.705152120E1,-5.193160381E-3,-1.824264042E-2,-4.527370445E-3
1.707171334E1,-4.127896391E-3,-2.143843099E-2,-4.527370445E-3
1.709190589E1,-9.321057005E-4,-2.356895804E-2,-4.527370445E-3
1.711209870E1,1.198421582E-3,-2.676474862E-2,-6.657897960E-3
1.713229162E1,3.328948980E-3,-2.676474862E-2,-8.788425475E-3
1.715248412E1,6.524739787E-3,-2.463422157E-2,-9.853689000E-3
1.717267355E1,6.524739787E-3,-2.143843099E-2,-9.853689000E-3
1.719286026E1,3.328948980E-3,-1.611211337E-2,-7.723161485E-3
1.721304719E1,2.263685223E-3,-5.459476262E-3,-4.527370445E-3
1.723323438E1,1.198421582E-3,5.193160381E-3,7.989477599E-4
1.725342193E1,-1.997369342E-3,1.051947847E-2,6.125265732E-3
1.727360990E1,-7.323687430E-3,8.388951421E-3,7.190529723E-3
1.729379834E1,-1.158474199E-2,3.062632866E-3,3.994738683E-3
1.731398724E1,-1.158474199E-2,3.062632866E-3,1.864211401E-3
1.733417662E1,-8.388951421E-3,5.193160381E-3,7.989477599E-4
1.735436646E1,-5.193160381E-3,8.388951421E-3,-2.663159103E-4
1.737455672E1,1.331579551E-4,1.051947847E-2,-1.331579522E-3
1.739474735E1,3.328948980E-3,1.371526904E-2,-4.527370445E-3
1.741493829E1,7.590003312E-3,1.584579609E-2,-6.657897960E-3
1.743512948E1,1.078579482E-2,1.797632314E-2,-7.723161485E-3
1.745532084E1,9.720530361E-3,1.584579609E-2,-7.723161485E-3
1.747551230E1,7.590003312E-3,1.478053257E-2,-6.657897960E-3
1.749570917E1,7.590003312E-3,1.584579609E-2,-3.462106921E-3
1.751589370E1,8.655266836E-3,1.691105962E-2,-2.663159103E-4
1.753607839E1,6.524739787E-3,1.691105962E-2,1.864211401E-3
1.755626344E1,4.394212738E-3,2.010685205E-2,2.929474926E-3
1.757644902E1,4.394212738E-3,2.117211558E-2,2.929474926E-3
1.759663521E1,4.394212738E-3,1.478053257E-2,1.864211401E-3
1.761682214E1,2.263685223E-3,3.062632866E-3,-1.331579522E-3
1.763700990E1,1.198421582E-3,-9.720530361E-3,-3.462106921E-3
1.765719849E1,-3.062632866E-3,-1.930790395E-2,-4.527370445E-3
1.767738792E1,-7.323687430E-3,-2.569948509E-2,-5.592633970E-3
1.769757818E1,-7.323687430E-3,-2.783001214E-2,-7.723161485E-3
1.771776917E1,-4.127896391E-3,-2.569948509E-2,-7.723161485E-3
1.773796084E1,-1.997369342E-3,-2.250369452E-2,-6.657897960E-3
1.775815303E1,-1.997369342E-3,-2.250369452E-2,-4.527370445E-3
1.777834563E1,-3.062632866E-3,-2.037316747E-2,-5.592633970E-3
1.779853849E1,-9.321057005E-4,-2.143843099E-2,-4.527370445E-3
1.781873146E1,1.198421582E-3,-2.143843099E-2,-2.396843163E-3
1.783892433E1,2.263685223E-3,-1.717737690E-2,-2.396843163E-3
1.785911376E1,2.263685223E-3,-1.291632187E-2,-3.462106921E-3
1.787930313E1,2.263685223E-3,-1.078579482E-2,-3.462106921E-3
1.789948980E1,1.198421582E-3,-9.720530361E-3,-4.527370445E-3
1.791967667E1,-9.321057005E-4,-6.524739787E-3,-5.592633970E-3
1.793986386E1,-9.321057005E-4,-2.263685223E-3,-5.592633970E-3
1.796005141E1,-1.997369342E-3,9.321057005E-4,-6.657897960E-3
1.798023938E1,-1.997369342E-3,7.323687430E-3,-4.527370445E-3
1.800042782E1,1.198421582E-3,1.478053257E-2,-2.396843163E-3
1.802061672E1,4.394212738E-3,2.010685205E-2,-2.663159103E-4
1.804080610E1,6.524739787E-3,2.436790615E-2,1.864211401E-3
1.806099594E1,6.524739787E-3,2.756369673E-2,3.994738683E-3
1.808118620E1,6.524739787E-3,2.756369673E-2,3.994738683E-3
1.810137683E1,6.524739787E-3,2.649843320E-2,2.929474926E-3
1.812156776E1,7.590003312E-3,2.117211558E-2,7.989477599E-4
1.814175896E1,7.590003312E-3,1.371526904E-2,-2.663159103E-4
1.816195032E1,3.328948980E-3,6.258423906E-3,-2.663159103E-4
1.818214172E1,-1.997369342E-3,1.997369342E-3,-1.331579522E-3
1.820233855E1,-4.127896391E-3,-1.198421582E-3,-3.462106921E-3
1.822252303E1,-4.127896391E-3,-6.524739787E-3,-4.527370445E-3
1.824270766E1,-4.127896391E-3,-1.185105834E-2,-5.592633970E-3
1.826289266E1,-5.193160381E-3,-1.930790395E-2,-3.462106921E-3
1.828307818E1,-8.388951421E-3,-2.463422157E-2,-1.331579522E-3
1.830326438E1,-9.454214945E-3,-2.783001214E-2,-2.663159103E-4
1.832345131E1,-7.323687430E-3,-2.889527567E-2,7.989477599E-4
1.834363907E1,-3.062632866E-3,-2.889527567E-2,1.864211401E-3
1.836382766E1,-1.997369342E-3,-2.676474862E-2,1.864211401E-3
1.838401709E1,-3.062632866E-3,-2.463422157E-2,7.989477599E-4
1.840420735E1,-3.062632866E-3,-2.143843099E-2,7.989477599E-4
1.842439834E1,-1.997369342E-3,-1.398158539E-2,1.864211401E-3
1.844459001E1,2.263685223E-3,9.321057005E-4,5.060002208E-3
1.846478219E1,6.524739787E-3,2.117211558E-2,1.145158429E-2
1.848497480E1,1.078579482E-2,4.247738793E-2,1.784316637E-2
1.850516766E1,1.185105834E-2,6.165213138E-2,2.316948399E-2
1.852536063E1,8.655266836E-3,7.869634777E-2,2.423474751E-2
1.854555339E1,4.394212738E-3,8.508793265E-2,2.316948399E-2
1.856574282E1,2.263685223E-3,8.082687855E-2,2.103895694E-2
1.858593219E1,1.331579551E-4,7.123950869E-2,1.571263932E-2
1.860611886E1,-3.062632866E-3,4.780370742E-2,6.125265732E-3
1.862630573E1,-5.193160381E-3,1.371526904E-2,-5.592633970E-3
1.864649287E1,-4.127896391E-3,-5.459476262E-3,-1.518000662E-2
1.866668037E1,-4.127896391E-3,-1.398158539E-2,-1.944106072E-2
1.868686829E1,-5.193160381E-3,-2.250369452E-2,-1.731053367E-2
1.870705667E1,-6.258423906E-3,-2.996053919E-2,-1.411474310E-2
1.872724553E1,-5.193160381E-3,-3.635212034E-2,-1.198421605E-2
1.874743485E1,-3.062632866E-3,-4.167843983E-2,-8.788425475E-3
1.876762464E1,-3.062632866E-3,-4.807002097E-2,-3.462106921E-3
1.878781485E1,-5.193160381E-3,-5.126581341E-2,-2.396843163E-3
1.880800547E1,-4.127896391E-3,-5.446160212E-2,-3.462106921E-3
1.882819641E1,2.263685223E-3,-5.020054802E-2,-4.527370445E-3
1.884838761E1,6.524739787E-3,-3.422159329E-2,-6.657897960E-3
1.886857896E1,7.590003312E-3,-1.611211337E-2,-5.592633970E-3
1.888877042E1,6.524739787E-3,3.062632866E-3,-3.462106921E-3
1.890896730E1,6.524739787E-3,2.223737910E-2,-1.331579522E-3
1.892915183E1,6.524739787E-3,3.608580679E-2,7.989477599E-4
1.894933652E1,5.459476262E-3,4.354264960E-2,7.989477599E-4
1.896952157E1,3.328948980E-3,4.780370742E-2,-2.663159103E-4
1.898970714E1,1.198421582E-3,4.673844203E-2,-2.663159103E-4
1.900989334E1,-4.127896391E-3,3.821633384E-2,-2.663159103E-4
1.903008027E1,-8.388951421E-3,1.691105962E-2,-2.663159103E-4
1.905026803E1,-9.454214945E-3,-1.198421582E-3,-1.331579522E-3
1.907045662E1,-8.388951421E-3,-1.717737690E-2,-2.396843163E-3
1.909064605E1,-7.323687430E-3,-3.528685868E-2,-2.396843163E-3
1.911083626E1,-3.062632866E-3,-3.848264739E-2,-2.396843163E-3
1.913102719E1,2.263685223E-3,-3.102580272E-2,-2.396843163E-3
1.915121881E1,2.263685223E-3,-2.676474862E-2,-1.331579522E-3
1.917141094E1,3.328948980E-3,-1.824264042E-2,-2.663159103E-4
1.919160349E1,3.328948980E-3,-9.720530361E-3,-2.663159103E-4
1.921179631E1,2.263685223E-3,-3.328948980E-3,7.989477599E-4
1.923198922E1,3.328948980E-3,-1.331579551E-4,-2.663159103E-4
1.925218193E1,3.328948980E-3,4.127896391E-3,-1.331579522E-3
1.927237131E1,3.328948980E-3,9.454214945E-3,-2.663159103E-4
1.929255797E1,-1.997369342E-3,7.323687430E-3,-2.663159103E-4
1.931274485E1,-1.051947847E-2,-1.198421582E-3,7.989477599E-4
1.933293198E1,-1.584579609E-2,-6.524739787E-3,2.929474926E-3
1.935311948E1,-1.478053257E-2,-8.655266836E-3,3.994738683E-3
1.937330740E1,-5.193160381E-3,-6.524739787E-3,5.060002208E-3
1.939349579E1,5.459476262E-3,-4.394212738E-3,6.125265732E-3
1.941368464E1,1.078579482E-2,-1.198421582E-3,6.125265732E-3
1.943387396E1,6.524739787E-3,9.454214945E-3,6.125265732E-3
1.945406376E1,-3.062632866E-3,3.182475269E-2,8.255792782E-3
1.947425396E1,-5.193160381E-3,4.993423447E-2,1.038632076E-2
1.949444454E1,7.590003312E-3,5.952160433E-2,5.060002208E-3
1.951463542E1,2.463422157E-2,6.058686972E-2,-3.462106921E-3
1.953482657E1,3.102580272E-2,5.845634267E-2,-5.592633970E-3
1.955501787E1,2.250369452E-2,5.632581562E-2,1.864211401E-3
1.957520928E1,6.524739787E-3,5.206476152E-2,8.255792782E-3
1.959540610E1,-5.193160381E-3,3.821633384E-2,7.190529723E-3
1.961559073E1,-1.158474199E-2,5.193160381E-3,1.864211401E-3
1.963577553E1,-1.797632314E-2,-4.274370521E-2,-1.331579522E-3
1.965596068E1,-2.330264263E-2,-8.855003864E-2,-1.331579522E-3
1.967614631E1,-2.649843320E-2,-1.151816323E-1,5.060002208E-3
1.969633256E1,-2.649843320E-2,-1.098553166E-1,8.255792782E-3
1.971651954E1,-2.117211558E-2,-8.961530030E-2,5.060002208E-3
1.973670730E1,-1.265000552E-2,-7.683213800E-2,-3.462106921E-3
1.975689589E1,-5.193160381E-3,-7.896266878E-2,-1.091895252E-2
1.977708532E1,-1.997369342E-3,-8.428898454E-2,-1.837579720E-2
1.979727553E1,2.263685223E-3,-6.937529147E-2,-2.689790726E-2
1.981746646E1,9.720530361E-3,-2.569948509E-2,-3.222422674E-2
1.983765803E1,1.504684892E-2,2.862896025E-2,-2.370211668E-2
1.985785011E1,1.504684892E-2,7.230477035E-2,-5.592633970E-3
1.987804256E1,1.185105834E-2,9.361004084E-2,9.321057238E-3
1.989823526E1,6.524739787E-3,9.680583328E-2,1.890842989E-2
1.991842808E1,1.331579551E-4,9.147951752E-2,2.636527456E-2
1.993862063E1,-3.062632866E-3,8.828372508E-2,3.062633052E-2
1.995881000E1,1.198421582E-3,8.828372508E-2,3.275685757E-2
1.997899933E1,8.655266836E-3,8.402267098E-2,3.062633052E-2
1.999918594E1,9.720530361E-3,6.271740049E-2,2.530001104E-2
2.001937276E1,7.590003312E-3,2.330264263E-2,1.677790284E-2
2.003955990E1,7.590003312E-3,-5.459476262E-3,1.038632076E-2
2.005974740E1,5.459476262E-3,-1.717737690E-2,6.125265732E-3
2.007993532E1,4.394212738E-3,-2.569948509E-2,1.864211401E-3
2.010012370E1,2.263685223E-3,-1.930790395E-2,-2.396843163E-3
2.012031256E1,2.263685223E-3,-3.328948980E-3,-6.657897960E-3
2.014050188E1,1.198421582E-3,9.454214945E-3,-6.657897960E-3
2.016069167E1,-3.062632866E-3,2.223737910E-2,-8.788425475E-3
2.018088188E1,-8.388951421E-3,3.182475269E-2,-1.198421605E-2
2.020107245E1,-1.051947847E-2,3.502054140E-2,-9.853689000E-3
2.022126334E1,-1.371526904E-2,3.289001435E-2,-7.723161485E-3
2.024145448E1,-1.478053257E-2,2.330264263E-2,-8.788425475E-3
2.026164579E1,-1.265000552E-2,9.454214945E-3,-9.853689000E-3
2.028183719E1,-9.454214945E-3,-9.720530361E-3,-1.091895252E-2
2.030203402E1,-8.388951421E-3,-3.315633163E-2,-1.304947957E-2
2.032221844E1,-8.388951421E-3,-5.233107507E-2,-1.411474310E-2
2.034240303E1,-8.388951421E-3,-7.044056058E-2,-1.624527015E-2
2.036258797E1,-7.323687430E-3,-8.748477697E-2,-1.624527015E-2
2.038277344E1,-3.062632866E-3,-9.707214683E-2,-1.731053367E-2
2.040295959E1,1.331579551E-4,-9.707214683E-2,-2.050632425E-2
2.042314652E1,3.328948980E-3,-9.281109273E-2,-2.263685316E-2
2.044333428E1,6.524739787E-3,-7.896266878E-2,-2.263685316E-2
2.046352287E1,1.078579482E-2,-5.659212917E-2,-1.944106072E-2
2.048371230E1,1.185105834E-2,-3.209106624E-2,-1.411474310E-2
2.050390256E1,7.590003312E-3,-9.720530361E-3,-8.788425475E-3
2.052409355E1,3.328948980E-3,1.265000552E-2,-5.592633970E-3
2.054428516E1,4.394212738E-3,3.608580679E-2,-3.462106921E-3
2.056447730E1,6.524739787E-3,5.206476152E-2,-3.462106921E-3
2.058466985E1,9.720530361E-3,5.845634267E-2,-3.462106921E-3
2.060486266E1,1.291632187E-2,5.632581562E-2,-2.396843163E-3
2.062505558E1,1.291632187E-2,5.419528857E-2,-2.663159103E-4
2.064524818E1,7.590003312E-3,4.780370742E-2,-2.663159103E-4
2.066543750E1,2.263685223E-3,3.395527974E-2,-4.527370445E-3
2.068562412E1,4.394212738E-3,1.904158667E-2,-9.853689000E-3
2.070581094E1,9.720530361E-3,9.454214945E-3,-1.304947957E-2
2.072599808E1,1.398158539E-2,4.127896391E-3,-1.411474310E-2
2.074618558E1,1.824264042E-2,4.127896391E-3,-1.624527015E-2
2.076637349E1,2.250369452E-2,5.193160381E-3,-1.731053367E-2
2.078656188E1,2.143843099E-2,5.193160381E-3,-1.411474310E-2
2.080675073E1,1.824264042E-2,8.388951421E-3,-7.723161485E-3
2.082694006E1,1.185105834E-2,9.454214945E-3,-2.663159103E-4
2.084712985E1,4.394212738E-3,6.258423906E-3,6.125265732E-3
2.086732006E1,1.198421582E-3,7.323687430E-3,1.038632076E-2
2.088751063E1,1.331579551E-4,1.051947847E-2,1.358211134E-2
2.090770152E1,3.328948980E-3,2.330264263E-2,1.358211134E-2
2.092789266E1,8.655266836E-3,3.928159550E-2,1.038632076E-2
2.094808396E1,5.459476262E-3,3.182475269E-2,8.255792782E-3
2.096827532E1,-1.997369342E-3,7.323687430E-3,6.125265732E-3
2.098847209E1,3.328948980E-3,5.193160381E-3,1.864211401E-3
2.100865641E1,1.291632187E-2,1.904158667E-2,-3.462106921E-3
2.102884089E1,1.185105834E-2,3.075948730E-2,-5.592633970E-3
2.104902573E1,9.720530361E-3,4.034686089E-2,-6.657897960E-3
2.106921110E1,1.398158539E-2,4.460791498E-2,-6.657897960E-3
2.108939714E1,1.717737690E-2,4.567318037E-2,-6.657897960E-3
2.110958396E1,9.720530361E-3,4.354264960E-2,-6.657897960E-3
2.112977162E1,-1.997369342E-3,4.141212255E-2,-6.657897960E-3
2.114996016E1,-6.258423906E-3,3.395527974E-2,-4.527370445E-3
2.117014959E1,-1.997369342E-3,2.223737910E-2,-2.396843163E-3
2.119033985E1,-9.321057005E-4,8.388951421E-3,-3.462106921E-3
2.121053089E1,-3.062632866E-3,-1.078579482E-2,-4.527370445E-3
2.123072261E1,-1.997369342E-3,-2.569948509E-2,-7.723161485E-3
2.125091485E1,2.263685223E-3,-3.422159329E-2,-1.091895252E-2
2.127110750E1,6.524739787E-3,-3.315633163E-2,-1.304947957E-2
2.129130042E1,9.720530361E-3,-2.463422157E-2,-1.411474310E-2
2.131149344E1,1.185105834E-2,-1.291632187E-2,-1.411474310E-2
2.133168589E1,1.078579482E-2,-3.328948980E-3,-1.198421605E-2
2.135187526E1,7.590003312E-3,6.258423906E-3,-9.853689000E-3
2.137206459E1,6.524739787E-3,1.904158667E-2,-6.657897960E-3
2.139225120E1,4.394212738E-3,2.862896025E-2,-3.462106921E-3
2.141243803E1,2.263685223E-3,3.289001435E-2,-2.663159103E-4
2.143262511E1,2.263685223E-3,3.075948730E-2,1.864211401E-3
2.145281256E1,2.263685223E-3,2.436790615E-2,2.929474926E-3
2.147300042E1,2.263685223E-3,1.691105962E-2,2.929474926E-3
2.149318876E1,2.263685223E-3,9.454214945E-3,2.929474926E-3
2.151337756E1,2.263685223E-3,4.127896391E-3,1.864211401E-3
2.153356683E1,2.263685223E-3,1.997369342E-3,7.989477599E-4
2.155375657E1,1.198421582E-3,1.997369342E-3,1.864211401E-3
2.157394672E1,1.331579551E-4,4.127896391E-3,1.864211401E-3
2.159413730E1,-9.321057005E-4,6.258423906E-3,1.864211401E-3
2.161432818E1,-9.321057005E-4,7.323687430E-3,7.989477599E-4
2.163451933E1,1.331579551E-4,8.388951421E-3,-2.663159103E-4
2.165471063E1,-9.321057005E-4,9.454214945E-3,-2.663159103E-4
2.167490204E1,-9.321057005E-4,1.051947847E-2,-2.663159103E-4
2.169509886E1,1.331579551E-4,9.454214945E-3,-1.331579522E-3
2.171528329E1,1.331579551E-4,6.258423906E-3,-1.331579522E-3
2.173546787E1,1.331579551E-4,-1.331579551E-4,-1.331579522E-3
2.175565282E1,-9.321057005E-4,-6.524739787E-3,-1.331579522E-3
2.177583829E1,1.198421582E-3,-1.291632187E-2,-3.462106921E-3
2.179602438E1,3.328948980E-3,-1.611211337E-2,-3.462106921E-3
2.181621120E1,1.198421582E-3,-1.504684892E-2,-2.396843163E-3
2.183639886E1,-3.062632866E-3,-7.590003312E-3,-1.331579522E-3
2.185658735E1,-4.127896391E-3,9.321057005E-4,-2.396843163E-3
2.187677667E1,-1.997369342E-3,6.258423906E-3,-2.396843163E-3
2.189696683E1,-9.321057005E-4,8.388951421E-3,-3.462106921E-3
2.191715777E1,-1.997369342E-3,7.323687430E-3,-2.396843163E-3
2.193734938E1,-3.062632866E-3,4.127896391E-3,-1.331579522E-3
2.195754152E1,-9.321057005E-4,1.997369342E-3,-2.396843163E-3
2.197773407E1,2.263685223E-3,-1.331579551E-4,-2.396843163E-3
2.199792688E1,4.394212738E-3,-1.198421582E-3,-2.396843163E-3
2.201811980E1,6.524739787E-3,-1.198421582E-3,-1.331579522E-3
2.203831256E1,6.524739787E-3,-2.263685223E-3,-2.663159103E-4
2.205850188E1,4.394212738E-3,-1.331579551E-4,1.864211401E-3
2.207868849E1,2.263685223E-3,3.062632866E-3,2.929474926E-3
2.209887532E1,1.331579551E-4,5.193160381E-3,5.060002208E-3
2.211906240E1,-1.997369342E-3,6.258423906E-3,6.125265732E-3
2.213924985E1,-3.062632866E-3,6.258423906E-3,8.255792782E-3
2.215943771E1,-3.062632866E-3,7.323687430E-3,9.321057238E-3
2.217962605E1,-3.062632866E-3,7.323687430E-3,8.255792782E-3
2.219981485E1,-3.062632866E-3,8.388951421E-3,7.190529723E-3
2.222000412E1,-1.997369342E-3,8.388951421E-3,6.125265732E-3
2.224019386E1,-9.321057005E-4,7.323687430E-3,5.060002208E-3
2.226038402E1,-9.321057005E-4,5.193160381E-3,2.929474926E-3
2.228057454E1,1.331579551E-4,5.193160381E-3,1.864211401E-3
2.230076537E1,1.198421582E-3,6.258423906E-3,-2.663159103E-4
2.232095646E1,1.198421582E-3,8.388951421E-3,-1.331579522E-3
2.234114771E1,1.198421582E-3,9.454214945E-3,-1.331579522E-3
2.236133907E1,1.331579551E-4,8.388951421E-3,-2.663159103E-4
2.238153584E1,1.331579551E-4,4.127896391E-3,-2.663159103E-4
2.240172032E1,-9.321057005E-4,-1.198421582E-3,7.989477599E-4
2.242190495E1,-9.321057005E-4,-4.394212738E-3,7.989477599E-4
2.244208995E1,1.331579551E-4,-5.459476262E-3,-1.331579522E-3
2.246227547E1,3.328948980E-3,-3.328948980E-3,-2.663159103E-4
2.248246162E1,4.394212738E-3,-1.331579551E-4,7.989477599E-4
2.250264849E1,2.263685223E-3,1.997369342E-3,1.864211401E-3
2.252283620E1,-9.321057005E-4,7.323687430E-3,7.989477599E-4
2.254302474E1,1.198421582E-3,1.051947847E-2,-1.331579522E-3
2.256321412E1,2.263685223E-3,1.051947847E-2,-1.331579522E-3
2.258340428E1,1.331579551E-4,9.454214945E-3,-2.396843163E-3
2.260359516E1,-9.321057005E-4,9.454214945E-3,-2.396843163E-3
2.262378667E1,1.331579551E-4,1.158474199E-2,-2.396843163E-3
2.264397870E1,1.331579551E-4,1.265000552E-2,-1.331579522E-3
2.266417115E1,1.198421582E-3,1.265000552E-2,-2.396843163E-3
2.268436386E1,2.263685223E-3,1.051947847E-2,-3.462106921E-3
2.270455667E1,2.263685223E-3,5.193160381E-3,-2.396843163E-3
2.272474938E1,1.331579551E-4,-1.198421582E-3,-1.331579522E-3
2.274493870E1,-9.321057005E-4,-4.394212738E-3,-1.331579522E-3
2.276512532E1,1.331579551E-4,-3.328948980E-3,-1.331579522E-3
2.278531214E1,1.198421582E-3,-1.198421582E-3,-2.663159103E-4
2.280549922E1,2.263685223E-3,-1.331579551E-4,-2.663159103E-4
2.282568667E1,2.263685223E-3,-1.198421582E-3,-2.663159103E-4
2.284587454E1,1.198421582E-3,-3.328948980E-3,7.989477599E-4
2.286606287E1,-9.321057005E-4,-5.459476262E-3,1.864211401E-3
2.288625167E1,-1.997369342E-3,-6.524739787E-3,7.989477599E-4
2.290644094E1,-1.997369342E-3,-5.459476262E-3,-2.663159103E-4
2.292663068E1,-3.062632866E-3,-3.328948980E-3,-2.663159103E-4
2.294682084E1,-3.062632866E-3,-1.198421582E-3,-1.331579522E-3
2.296701136E1,-1.997369342E-3,1.997369342E-3,-2.396843163E-3
2.298720219E1,1.198421582E-3,6.258423906E-3,-2.396843163E-3
2.300739329E1,2.263685223E-3,9.454214945E-3,-2.396843163E-3
2.302758454E1,3.328948980E-3,1.158474199E-2,-2.396843163E-3
2.304777584E1,3.328948980E-3,1.051947847E-2,-1.331579522E-3
2.306797256E1,3.328948980E-3,7.323687430E-3,-1.331579522E-3
2.308815693E1,4.394212738E-3,3.062632866E-3,-3.462106921E-3
2.310834146E1,4.394212738E-3,-1.331579551E-4,-3.462106921E-3
2.312852636E1,1.331579551E-4,-1.331579551E-4,-2.396843163E-3
2.314871178E1,-1.997369342E-3,1.997369342E-3,-1.331579522E-3
2.316889787E1,-9.321057005E-4,5.193160381E-3,-1.331579522E-3
2.318908469E1,1.198421582E-3,6.258423906E-3,-1.331579522E-3
2.320927235E1,1.331579551E-4,5.193160381E-3,-2.663159103E-4
2.322946084E1,-9.321057005E-4,9.321057005E-4,7.989477599E-4
2.324965016E1,-1.997369342E-3,-2.263685223E-3,1.864211401E-3
2.326984032E1,-3.062632866E-3,-5.459476262E-3,1.864211401E-3
2.329003120E1,-1.997369342E-3,-8.655266836E-3,7.989477599E-4
2.331022277E1,-9.321057005E-4,-8.655266836E-3,-2.663159103E-4
2.333041485E1,-9.321057005E-4,-8.655266836E-3,-1.331579522E-3
2.335060735E1,-9.321057005E-4,-9.720530361E-3,-1.331579522E-3
2.337080011E1,-3.062632866E-3,-1.078579482E-2,-2.663159103E-4
2.339099297E1,-3.062632866E-3,-8.655266836E-3,-1.331579522E-3
2.341118573E1,-1.997369342E-3,-5.459476262E-3,-1.331579522E-3
2.343137506E1,-9.321057005E-4,-3.328948980E-3,-1.331579522E-3
2.345156433E1,-9.321057005E-4,-2.263685223E-3,-2.663159103E-4
2.347175089E1,1.198421582E-3,-1.198421582E-3,-2.663159103E-4
2.349193766E1,2.263685223E-3,9.321057005E-4,-2.663159103E-4
2.351212474E1,1.198421582E-3,3.062632866E-3,7.989477599E-4
2.353231219E1,2.263685223E-3,4.127896391E-3,7.989477599E-4
2.355250006E1,1.198421582E-3,5.193160381E-3,7.989477599E-4
2.357268839E1,1.331579551E-4,7.323687430E-3,-2.663159103E-4
2.359287719E1,1.331579551E-4,1.051947847E-2,-1.331579522E-3
2.361306646E1,1.198421582E-3,1.158474199E-2,-2.663159103E-4
2.363325620E1,2.263685223E-3,1.265000552E-2,-2.663159103E-4
2.365344636E1,1.198421582E-3,1.265000552E-2,7.989477599E-4
2.367363688E1,1.331579551E-4,9.454214945E-3,7.989477599E-4
2.369382771E1,-9.321057005E-4,5.193160381E-3,7.989477599E-4
2.371401881E1,1.331579551E-4,-1.331579551E-4,7.989477599E-4
2.373421006E1,1.198421582E-3,-5.459476262E-3,1.864211401E-3
2.375440136E1,-9.321057005E-4,-8.655266836E-3,2.929474926E-3
2.377459808E1,-1.997369342E-3,-7.590003312E-3,2.929474926E-3
2.379478235E1,-1.997369342E-3,-5.459476262E-3,7.989477599E-4
2.381496678E1,1.331579551E-4,-4.394212738E-3,7.989477599E-4
2.383515157E1,-9.321057005E-4,-4.394212738E-3,7.989477599E-4
2.385533688E1,-1.997369342E-3,-6.524739787E-3,-2.663159103E-4
2.387552287E1,-3.062632866E-3,-6.524739787E-3,-1.331579522E-3
2.389570964E1,-3.062632866E-3,-3.328948980E-3,-3.462106921E-3
2.391589724E1,-9.321057005E-4,-1.198421582E-3,-4.527370445E-3
2.393608573E1,-9.321057005E-4,-1.198421582E-3,-5.592633970E-3
2.395627511E1,1.331579551E-4,-1.198421582E-3,-5.592633970E-3
2.397646532E1,1.198421582E-3,-1.198421582E-3,-5.592633970E-3
2.399665631E1,2.263685223E-3,9.321057005E-4,-4.527370445E-3
2.401684797E1,3.328948980E-3,6.258423906E-3,-4.527370445E-3
2.403704016E1,4.394212738E-3,9.454214945E-3,-2.396843163E-3
2.405723277E1,4.394212738E-3,1.051947847E-2,-1.331579522E-3
2.407742563E1,3.328948980E-3,9.454214945E-3,-1.331579522E-3
2.409761860E1,2.263685223E-3,8.388951421E-3,-1.331579522E-3
2.411781110E1,2.263685223E-3,7.323687430E-3,-2.663159103E-4
2.413800037E1,2.263685223E-3,5.193160381E-3,7.989477599E-4
2.415818693E1,2.263685223E-3,3.062632866E-3,2.929474926E-3
2.417837370E1,1.331579551E-4,-1.331579551E-4,3.994738683E-3
2.419856079E1,-9.321057005E-4,-3.328948980E-3,2.929474926E-3
2.421874823E1,-1.997369342E-3,-5.459476262E-3,1.864211401E-3
2.423893610E1,-1.997369342E-3,-5.459476262E-3,1.864211401E-3
2.425912443E1,-1.997369342E-3,-5.459476262E-3,1.864211401E-3
2.427931323E1,-3.062632866E-3,-6.524739787E-3,1.864211401E-3
2.429950251E1,-3.062632866E-3,-7.590003312E-3,2.929474926E-3
2.431969224E1,-3.062632866E-3,-7.590003312E-3,3.994738683E-3
2.433988240E1,-3.062632866E-3,-5.459476262E-3,3.994738683E-3
2.436007292E1,-1.997369342E-3,-1.198421582E-3,2.929474926E-3
2.438026376E1,1.331579551E-4,1.997369342E-3,1.864211401E-3
2.440045485E1,2.263685223E-3,3.062632866E-3,-2.663159103E-4
2.442064610E1,5.459476262E-3,4.127896391E-3,-2.663159103E-4
2.444083740E1,6.524739787E-3,4.127896391E-3,1.864211401E-3
2.446103412E1,2.263685223E-3,5.193160381E-3,2.929474926E-3
2.448121834E1,-9.321057005E-4,9.454214945E-3,2.929474926E-3
2.450140271E1,1.331579551E-4,1.158474199E-2,2.929474926E-3
2.452158745E1,1.331579551E-4,9.454214945E-3,1.864211401E-3
2.454177271E1,-9.321057005E-4,7.323687430E-3,1.864211401E-3
2.456195865E1,-1.997369342E-3,4.127896391E-3,-2.663159103E-4
2.458214537E1,-1.997369342E-3,3.062632866E-3,-2.663159103E-4
2.460233292E1,-1.997369342E-3,1.997369342E-3,-1.331579522E-3
2.462252136E1,-9.321057005E-4,9.321057005E-4,-1.331579522E-3
2.464271068E1,1.198421582E-3,9.321057005E-4,-2.396843163E-3
2.466290084E1,2.263685223E-3,-1.198421582E-3,-2.396843163E-3
2.468309178E1,1.331579551E-4,-4.394212738E-3,-2.663159103E-4
2.470328339E1,-1.997369342E-3,-8.655266836E-3,7.989477599E-4
2.472347558E1,-3.062632866E-3,-9.720530361E-3,7.989477599E-4
2.474366818E1,-3.062632866E-3,-9.720530361E-3,7.989477599E-4
2.476386105E1,-9.321057005E-4,-8.655266836E-3,7.989477599E-4
2.478405402E1,1.331579551E-4,-6.524739787E-3,7.989477599E-4
2.480424428E1,1.198421582E-3,-3.328948980E-3,-2.663159103E-4
2.482443459E1,2.263685223E-3,-1.331579551E-4,-1.331579522E-3
2.484463032E1,2.263685223E-3,3.062632866E-3,-1.331579522E-3
2.486481480E1,1.198421582E-3,6.258423906E-3,-1.331579522E-3
2.488499943E1,1.331579551E-4,7.323687430E-3,-1.331579522E-3
2.490518443E1,1.331579551E-4,6.258423906E-3,-1.331579522E-3
2.492536995E1,-1.997369342E-3,4.127896391E-3,-1.331579522E-3
2.494555610E1,-1.997369342E-3,1.997369342E-3,-2.663159103E-4
2.496574297E1,-1.997369342E-3,1.997369342E-3,7.989477599E-4
2.498593063E1,-3.062632866E-3,-1.331579551E-4,2.929474926E-3
2.500611912E1,-3.062632866E-3,-3.328948980E-3,3.994738683E-3
2.502630844E1,-3.062632866E-3,-4.394212738E-3,5.060002208E-3
2.504649855E1,-1.997369342E-3,-6.524739787E-3,3.994738683E-3
2.506668938E1,-9.321057005E-4,-5.459476262E-3,3.994738683E-3
2.508688084E1,1.198421582E-3,-3.328948980E-3,1.864211401E-3
2.510707282E1,4.394212738E-3,-1.331579551E-4,7.989477599E-4
2.512726521E1,5.459476262E-3,4.127896391E-3,1.864211401E-3
2.514745787E1,4.394212738E-3,9.454214945E-3,1.864211401E-3
2.516765063E1,2.263685223E-3,1.478053257E-2,7.989477599E-4
2.518784068E1,4.394212738E-3,1.797632314E-2,-2.663159103E-4
2.520803079E1,4.394212738E-3,1.691105962E-2,-2.663159103E-4
2.522822631E1,2.263685223E-3,1.265000552E-2,-1.331579522E-3
2.524841120E1,-9.321057005E-4,6.258423906E-3,-2.663159103E-4
2.526859626E1,-9.321057005E-4,1.997369342E-3,-1.331579522E-3
2.528878162E1,-9.321057005E-4,9.321057005E-4,-1.331579522E-3
2.530896745E1,-9.321057005E-4,-1.198421582E-3,-2.396843163E-3
2.532915386E1,-9.321057005E-4,-1.198421582E-3,-2.396843163E-3
2.534934094E1,1.331579551E-4,-2.263685223E-3,-3.462106921E-3
2.536952876E1,-9.321057005E-4,-5.459476262E-3,-2.396843163E-3
2.538971735E1,-3.062632866E-3,-6.524739787E-3,-1.331579522E-3
2.540990672E1,-3.062632866E-3,-7.590003312E-3,-1.331579522E-3
2.543009683E1,-1.997369342E-3,-8.655266836E-3,-2.663159103E-4
2.545028761E1,-1.997369342E-3,-8.655266836E-3,1.864211401E-3
2.547047896E1,-9.321057005E-4,-8.655266836E-3,2.929474926E-3
2.549067079E1,-9.321057005E-4,-7.590003312E-3,2.929474926E-3
2.551086297E1,1.331579551E-4,-6.524739787E-3,3.994738683E-3
2.553105537E1,1.198421582E-3,-4.394212738E-3,2.929474926E-3
2.555124787E1,3.328948980E-3,-3.328948980E-3,2.929474926E-3
2.557143974E1,4.394212738E-3,-4.394212738E-3,3.994738683E-3
2.559162902E1,1.198421582E-3,-5.459476262E-3,5.060002208E-3
2.561181558E1,-5.193160381E-3,-4.394212738E-3,5.060002208E-3
2.563200235E1,-1.051947847E-2,9.321057005E-4,6.125265732E-3
2.565218938E1,-9.454214945E-3,8.388951421E-3,8.255792782E-3
2.567237678E1,-4.127896391E-3,1.691105962E-2,9.321057238E-3
2.569256459E1,-9.321057005E-4,2.330264263E-2,1.145158429E-2
2.571275287E1,-1.997369342E-3,1.904158667E-2,1.038632076E-2
2.573294162E1,-5.193160381E-3,5.193160381E-3,1.864211401E-3
2.575313084E1,-1.997369342E-3,-3.328948980E-3,-9.853689000E-3
2.577332053E1,5.459476262E-3,-3.328948980E-3,-1.411474310E-2
2.579351063E1,6.524739787E-3,-3.328948980E-3,-1.198421605E-2
2.581370115E1,2.263685223E-3,-4.394212738E-3,-1.411474310E-2
2.583389198E1,6.524739787E-3,-3.328948980E-3,-1.837579720E-2
2.585408308E1,1.078579482E-2,1.997369342E-3,-1.411474310E-2
2.587427433E1,6.524739787E-3,6.258423906E-3,-4.527370445E-3
2.589446568E1,1.331579551E-4,6.258423906E-3,1.864211401E-3
2.591466245E1,1.331579551E-4,3.062632866E-3,5.060002208E-3
2.593484683E1,1.331579551E-4,-1.331579551E-4,9.321057238E-3
2.595503136E1,-5.193160381E-3,-5.459476262E-3,1.464737486E-2
2.597521626E1,-1.158474199E-2,-1.504684892E-2,1.571263932E-2
2.599540167E1,-1.371526904E-2,-2.250369452E-2,1.251684781E-2
2.601558777E1,-1.371526904E-2,-2.889527567E-2,9.321057238E-3
2.603577459E1,-1.691105962E-2,-3.528685868E-2,6.125265732E-3
2.605596224E1,-1.797632314E-2,-3.741738573E-2,-1.331579522E-3
2.607615073E1,-1.478053257E-2,-3.635212034E-2,-8.788425475E-3
2.609634006E1,-9.454214945E-3,-3.102580272E-2,-1.304947957E-2
2.611653021E1,-4.127896391E-3,-1.824264042E-2,-1.304947957E-2
2.613672110E1,5.459476262E-3,-1.198421582E-3,-1.304947957E-2
2.615691266E1,1.717737690E-2,1.478053257E-2,-1.411474310E-2
2.617710474E1,2.463422157E-2,2.756369673E-2,-1.304947957E-2
2.619729724E1,2.676474862E-2,3.928159550E-2,-8.788425475E-3
2.621749001E1,2.676474862E-2,4.673844203E-2,-5.592633970E-3
2.623768287E1,2.569948509E-2,5.313002318E-2,-4.527370445E-3
2.625787542E1,2.250369452E-2,6.058686972E-2,-1.331579522E-3
2.627806469E1,1.824264042E-2,6.378266215E-2,1.864211401E-3
2.629825126E1,1.291632187E-2,6.058686972E-2,2.929474926E-3
2.631843803E1,8.655266836E-3,5.632581562E-2,2.929474926E-3
2.633862506E1,4.394212738E-3,5.099949613E-2,3.994738683E-3
2.635881245E1,-9.321057005E-4,4.460791498E-2,7.190529723E-3
2.637900027E1,-7.323687430E-3,3.182475269E-2,7.190529723E-3
2.639918855E1,-1.371526904E-2,1.265000552E-2,3.994738683E-3
2.641937730E1,-1.584579609E-2,-5.459476262E-3,-1.331579522E-3
2.643956652E1,-1.371526904E-2,-2.143843099E-2,-5.592633970E-3
2.645975620E1,-1.371526904E-2,-3.528685868E-2,-7.723161485E-3
2.647994631E1,-1.265000552E-2,-4.913528636E-2,-1.091895252E-2
2.650013683E1,-8.388951421E-3,-6.404897571E-2,-1.411474310E-2
2.652032766E1,-5.193160381E-3,-7.683213800E-2,-1.518000662E-2
2.654051876E1,-1.997369342E-3,-8.428898454E-2,-1.198421605E-2
2.656071000E1,1.331579551E-4,-8.535424620E-2,-9.853689000E-3
2.658090136E1,2.263685223E-3,-7.683213800E-2,-7.723161485E-3
2.660109813E1,2.263685223E-3,-5.978792161E-2,-4.527370445E-3
2.662128261E1,1.198421582E-3,-3.741738573E-2,-1.331579522E-3
2.664146724E1,3.328948980E-3,-1.291632187E-2,2.929474926E-3
2.666165224E1,5.459476262E-3,9.454214945E-3,5.060002208E-3
2.668183776E1,5.459476262E-3,2.969422378E-2,5.060002208E-3
2.670202391E1,4.394212738E-3,4.993423447E-2,5.060002208E-3
2.672221079E1,3.328948980E-3,6.804371625E-2,3.994738683E-3
2.674239844E1,3.328948980E-3,7.656582445E-2,3.994738683E-3
2.676258693E1,6.524739787E-3,8.295740932E-2,2.929474926E-3
2.678277626E1,1.398158539E-2,8.828372508E-2,2.929474926E-3
2.680296636E1,1.930790395E-2,8.828372508E-2,1.864211401E-3
2.682315719E1,2.037316747E-2,8.189214021E-2,7.989477599E-4
2.684334865E1,1.717737690E-2,6.804371625E-2,-2.663159103E-4
2.686354063E1,1.185105834E-2,4.567318037E-2,-5.592633970E-3
2.688373303E1,4.394212738E-3,1.904158667E-2,-1.198421605E-2
2.690392568E1,-9.321057005E-4,-3.328948980E-3,-1.518000662E-2
2.692411844E1,-4.127896391E-3,-1.930790395E-2,-1.518000662E-2
2.694430849E1,-5.193160381E-3,-2.889527567E-2,-1.198421605E-2
2.696449860E1,-6.258423906E-3,-3.954791278E-2,-6.657897960E-3
2.698469412E1,-1.997369342E-3,-4.061317816E-2,-2.396843163E-3
2.700487907E1,-9.321057005E-4,-3.635212034E-2,2.929474926E-3
2.702506417E1,-9.321057005E-4,-3.209106624E-2,2.929474926E-3
2.704524959E1,4.394212738E-3,-2.463422157E-2,-2.396843163E-3
2.706543547E1,3.328948980E-3,-2.889527567E-2,-9.853689000E-3
2.708562193E1,3.328948980E-3,-3.209106624E-2,-1.411474310E-2
2.710580907E1,4.394212738E-3,-2.889527567E-2,-1.304947957E-2
2.712599693E1,-9.321057005E-4,-2.996053919E-2,-7.723161485E-3
2.714618553E1,-7.323687430E-3,-2.783001214E-2,-2.396843163E-3
2.716637485E1,-6.258423906E-3,-1.611211337E-2,7.989477599E-4
2.718656490E1,-8.388951421E-3,-1.185105834E-2,8.255792782E-3
2.720675563E1,-8.388951421E-3,-1.930790395E-2,1.890842989E-2
2.722694693E1,-1.265000552E-2,-2.889527567E-2,2.530001104E-2
2.724713870E1,-2.543316968E-2,-3.422159329E-2,2.743053809E-2
2.726733084E1,-2.756369673E-2,-2.356895804E-2,2.956106514E-2
2.728752318E1,-2.330264263E-2,-7.590003312E-3,2.849580161E-2
2.730771563E1,-2.862896025E-2,-2.263685223E-3,2.530001104E-2
2.732790761E1,-2.862896025E-2,1.997369342E-3,2.316948399E-2
2.734809688E1,-2.436790615E-2,1.051947847E-2,2.210422046E-2
2.736828344E1,-2.330264263E-2,1.691105962E-2,2.103895694E-2
2.738847021E1,-1.797632314E-2,3.075948730E-2,1.997369342E-2
2.740865724E1,-7.323687430E-3,5.632581562E-2,1.890842989E-2
2.742884464E1,5.459476262E-3,8.295740932E-2,1.677790284E-2
2.744903245E1,1.717737690E-2,9.467530251E-2,1.571263932E-2
2.746922073E1,2.889527567E-2,9.361004084E-2,1.571263932E-2
2.748940948E1,3.422159329E-2,8.508793265E-2,1.464737486E-2
2.750959870E1,3.741738573E-2,7.763108611E-2,9.321057238E-3
2.752978839E1,4.167843983E-2,7.869634777E-2,3.994738683E-3
2.754997849E1,4.380896688E-2,8.402267098E-2,2.929474926E-3
2.757016902E1,3.848264739E-2,6.165213138E-2,1.864211401E-3
2.759035985E1,3.315633163E-2,1.797632314E-2,-2.396843163E-3
2.761055094E1,3.209106624E-2,-1.291632187E-2,-9.853689000E-3
2.763074219E1,3.102580272E-2,-3.741738573E-2,-1.411474310E-2
2.765093355E1,2.783001214E-2,-6.085318699E-2,-1.304947957E-2
2.767113032E1,2.143843099E-2,-7.896266878E-2,-1.518000662E-2
2.769131474E1,1.824264042E-2,-8.641951531E-2,-1.837579720E-2
2.771149933E1,1.717737690E-2,-8.535424620E-2,-1.944106072E-2
2.773168428E1,1.398158539E-2,-7.896266878E-2,-1.944106072E-2
2.775186974E1,7.590003312E-3,-7.363634557E-2,-1.837579720E-2
2.777205584E1,1.331579551E-4,-6.937529147E-2,-1.411474310E-2
2.779224266E1,-4.127896391E-3,-5.552686751E-2,-9.853689000E-3
2.781243032E1,-8.388951421E-3,-3.422159329E-2,-8.788425475E-3
2.783261881E1,-9.454214945E-3,-7.590003312E-3,-8.788425475E-3
2.785280813E1,-3.062632866E-3,1.904158667E-2,-7.723161485E-3
2.787299829E1,2.263685223E-3,4.780370742E-2,-4.527370445E-3
2.789318917E1,3.328948980E-3,7.656582445E-2,-2.663159103E-4
2.791338068E1,7.590003312E-3,1.042626798E-1,7.190529723E-3
2.793357271E1,1.078579482E-2,1.255679578E-1,1.464737486E-2
2.795376516E1,8.655266836E-3,1.340900660E-1,2.103895694E-2
2.797395787E1,2.263685223E-3,1.308942735E-1,2.316948399E-2
2.799415068E1,-5.193160381E-3,1.266332120E-1,2.423474751E-2
2.801434323E1,-1.158474199E-2,1.266332120E-1,2.530001104E-2
2.803453250E1,-1.158474199E-2,1.372858584E-1,2.316948399E-2
2.805471907E1,-1.584579609E-2,1.340900660E-1,1.890842989E-2
2.807490584E1,-2.436790615E-2,1.245026886E-1,1.784316637E-2
2.809509287E1,-2.117211558E-2,1.223721579E-1,2.103895694E-2
2.811528027E1,-1.691105962E-2,9.680583328E-2,2.210422046E-2
2.813546808E1,-1.904158667E-2,4.673844203E-2,1.784316637E-2
2.815565636E1,-1.904158667E-2,-6.524739787E-3,1.038632076E-2
2.817584511E1,-1.691105962E-2,-5.446160212E-2,8.255792782E-3
2.819603433E1,-2.010685205E-2,-1.119858399E-1,8.255792782E-3
2.821622402E1,-2.969422378E-2,-1.737711281E-1,7.190529723E-3
2.823641412E1,-3.502054140E-2,-2.249037921E-1,2.929474926E-3
2.825660459E1,-3.182475269E-2,-2.579269707E-1,-3.462106921E-3
2.827679537E1,-2.436790615E-2,-2.664490640E-1,-7.723161485E-3
2.829698641E1,-1.478053257E-2,-2.515353858E-1,-6.657897960E-3
2.831717761E1,-7.323687430E-3,-2.227732539E-1,7.989477599E-4
2.833736891E1,-3.062632866E-3,-1.886848211E-1,9.321057238E-3
2.835756563E1,1.331579551E-4,-1.535311192E-1,1.251684781E-2
2.837775021E1,3.328948980E-3,-1.205079481E-1,9.321057238E-3
2.839793495E1,1.185105834E-2,-8.002793044E-2,3.994738683E-3
2.841812006E1,2.569948509E-2,-2.783001214E-2,-1.331579522E-3
2.843830563E1,3.741738573E-2,2.862896025E-2,-4.527370445E-3
2.845849183E1,4.061317816E-2,7.337003201E-2,-1.331579522E-3
2.847867876E1,3.741738573E-2,9.893636405E-2,-2.663159103E-4
2.849886646E1,3.315633163E-2,1.095889956E-1,-2.396843163E-3
2.851905501E1,2.996053919E-2,1.191763729E-1,-4.527370445E-3
2.853924438E1,2.569948509E-2,1.319595277E-1,-1.331579522E-3
2.855943454E1,1.930790395E-2,1.479384899E-1,2.929474926E-3
2.857962542E1,1.185105834E-2,1.575258672E-1,8.255792782E-3
2.859981693E1,2.263685223E-3,1.553953290E-1,1.464737486E-2
2.862000896E1,-1.051947847E-2,1.372858584E-1,1.890842989E-2
2.864020136E1,-2.117211558E-2,1.053279415E-1,2.210422046E-2
2.866039396E1,-2.649843320E-2,6.378266215E-2,1.997369342E-2
2.868058667E1,-2.969422378E-2,1.797632314E-2,1.571263932E-2
2.870077865E1,-3.182475269E-2,-2.463422157E-2,1.358211134E-2
2.872096792E1,-2.862896025E-2,-5.446160212E-2,1.358211134E-2
2.874115448E1,-2.436790615E-2,-7.044056058E-2,1.358211134E-2
2.876134126E1,-2.010685205E-2,-7.150582224E-2,1.145158429E-2
2.878152829E1,-1.478053257E-2,-6.511423737E-2,7.190529723E-3
2.880171568E1,-1.051947847E-2,-5.446160212E-2,2.929474926E-3
2.882190349E1,-7.323687430E-3,-4.167843983E-2,1.864211401E-3
2.884209178E1,-4.127896391E-3,-2.463422157E-2,2.929474926E-3
2.886228053E1,1.331579551E-4,-7.590003312E-3,5.060002208E-3
2.888246974E1,3.328948980E-3,6.258423906E-3,7.190529723E-3
2.890265943E1,7.590003312E-3,1.371526904E-2,1.038632076E-2
2.892284954E1,1.291632187E-2,1.158474199E-2,9.321057238E-3
2.894304000E1,1.504684892E-2,-1.198421582E-3,-2.663159103E-4
2.896323079E1,1.398158539E-2,-1.717737690E-2,-1.198421605E-2
2.898342183E1,1.185105834E-2,-3.422159329E-2,-1.837579720E-2
2.900361303E1,7.590003312E-3,-5.552686751E-2,-2.050632425E-2
2.902380433E1,2.263685223E-3,-7.257108390E-2,-2.370211668E-2
2.904400105E1,1.198421582E-3,-8.322372288E-2,-2.689790726E-2
2.906418558E1,4.394212738E-3,-8.322372288E-2,-3.009369783E-2
2.908437026E1,8.655266836E-3,-7.044056058E-2,-2.902843431E-2
2.910455532E1,1.291632187E-2,-4.700475931E-2,-2.370211668E-2
2.912474089E1,1.717737690E-2,-1.824264042E-2,-1.731053367E-2
2.914492709E1,2.143843099E-2,5.193160381E-3,-1.518000662E-2
2.916511402E1,2.143843099E-2,2.223737910E-2,-1.837579720E-2
2.918530172E1,1.717737690E-2,4.460791498E-2,-2.157158963E-2
2.920549026E1,1.078579482E-2,7.123950869E-2,-2.157158963E-2
2.922567964E1,3.328948980E-3,8.402267098E-2,-1.624527015E-2
2.924586980E1,-1.997369342E-3,8.189214021E-2,-1.198421605E-2
2.926606068E1,-3.062632866E-3,8.082687855E-2,-1.198421605E-2
2.928625219E1,1.198421582E-3,9.254477918E-2,-1.518000662E-2
2.930644422E1,5.459476262E-3,1.223721579E-1,-1.731053367E-2
2.932663662E1,7.590003312E-3,1.649827063E-1,-1.944106072E-2
2.934682922E1,8.655266836E-3,2.001364082E-1,-2.050632425E-2
2.936702193E1,1.291632187E-2,2.129195631E-1,-1.944106072E-2
2.938721386E1,1.717737690E-2,2.107890397E-1,-1.837579720E-2
2.940740313E1,1.291632187E-2,1.948100924E-1,-1.731053367E-2
2.942758969E1,5.459476262E-3,1.564605981E-1,-1.731053367E-2
2.944777646E1,-3.062632866E-3,1.074584723E-1,-1.411474310E-2
2.946796349E1,-8.388951421E-3,5.739107728E-2,-5.592633970E-3
2.948815089E1,-1.478053257E-2,4.127896391E-3,-2.663159103E-4
2.950833870E1,-2.649843320E-2,-5.339634046E-2,-1.331579522E-3
2.952852698E1,-3.608580679E-2,-1.023984700E-1,-3.462106921E-3
2.954871573E1,-4.460791498E-2,-1.514005959E-1,-6.657897960E-3
2.956890495E1,-6.165213138E-2,-2.185122073E-1,-1.411474310E-2
2.959421136E1,-4.127896391E-3,-1.167795286E-1,-2.956106514E-2
2.961422886E1,2.569948509E-2,1.424790081E-2,-3.542001545E-2
2.963425959E1,7.590003312E-3,2.170474641E-2,-2.956106514E-2
2.965430938E1,1.771000773E-2,2.436790615E-2,-9.321057238E-3
2.967438303E1,3.741738573E-2,2.596580051E-2,-2.396843163E-3
2.969448428E1,5.286370963E-2,3.555317223E-2,-1.251684781E-2
2.971461553E1,5.126581341E-2,5.685844645E-2,-1.731053367E-2
2.973477782E1,4.540686309E-2,7.869634777E-2,-1.784316637E-2
2.975497105E1,5.020054802E-2,9.627319872E-2,-1.624527015E-2
2.977519386E1,5.978792161E-2,1.170458421E-1,-1.837579720E-2
2.979544365E1,5.392897129E-2,1.165132076E-1,-1.890842989E-2
2.981571698E1,4.114580899E-2,6.804371625E-2,-1.571263932E-2
2.983600948E1,3.102580272E-2,5.193160381E-3,-1.251684781E-2
2.985631626E1,2.410159074E-2,-3.901528195E-2,-9.853689000E-3
2.987663209E1,1.504684892E-2,-6.458161026E-2,-5.060002208E-3
2.989695157E1,7.057371549E-3,-6.085318699E-2,-7.989477599E-4
2.991722876E1,1.198421582E-3,-5.819002539E-2,-1.331579522E-3
2.993741803E1,-6.791055668E-3,-6.351634115E-2,-7.989477599E-4
2.995760188E1,-1.211737376E-2,-7.150582224E-2,-2.663159103E-4
2.997778615E1,-1.424790081E-2,-7.363634557E-2,-1.864211401E-3
2.999797094E1,-1.424790081E-2,-5.872265995E-2,-3.994738683E-3
3.001815646E1,-1.105211023E-2,-3.102580272E-2,-2.929474926E-3
3.003834282E1,-4.660528619E-3,9.454214945E-3,-7.989477599E-4
3.005853011E1,1.731053460E-3,5.206476152E-2,7.989477599E-4
3.007871834E1,9.187898599E-3,9.041424841E-2,1.864211401E-3
3.009890751E1,1.451421715E-2,1.186437383E-1,2.396843163E-3
3.011909761E1,1.557948068E-2,1.394163817E-1,4.527370445E-3
3.013928855E1,1.877527125E-2,1.559279710E-1,1.198421605E-2
3.015948021E1,2.037316747E-2,1.511342824E-1,1.624527015E-2
3.017967251E1,2.303632535E-2,1.463405937E-1,1.944106072E-2
3.019986532E1,2.197106183E-2,1.383511126E-1,1.784316637E-2
3.022005844E1,2.037316747E-2,1.292963773E-1,1.411474310E-2
3.024025178E1,1.984053478E-2,1.037300453E-1,1.091895252E-2
3.026045594E1,1.984053478E-2,7.177213579E-2,6.657897960E-3
3.028063542E1,1.771000773E-2,3.715106845E-2,5.592633970E-3
3.030081521E1,1.344895363E-2,6.258423906E-3,7.190529723E-3
3.032099573E1,8.655266836E-3,-9.187898599E-3,7.190529723E-3
3.034117730E1,4.394212738E-3,-5.459476262E-3,5.592633970E-3
3.036136011E1,5.992108025E-3,9.321057005E-4,2.929474926E-3
3.038154438E1,4.394212738E-3,2.530001104E-3,1.864211401E-3
3.040173032E1,-9.321057005E-4,1.464737463E-3,2.929474926E-3
3.042191792E1,-6.791055668E-3,-5.992108025E-3,4.527370445E-3
3.044210719E1,-6.258423906E-3,-1.504684892E-2,1.864211401E-3
3.046229813E1,-6.258423906E-3,-2.569948509E-2,-7.989477599E-4
3.048249053E1,-3.595264861E-3,-3.049317189E-2,-3.462106921E-3
3.050268428E1,1.198421582E-3,-2.569948509E-2,-7.723161485E-3
3.052287907E1,4.394212738E-3,-2.143843099E-2,-8.255792782E-3
3.054307469E1,4.926844500E-3,-2.197106183E-2,-7.190529723E-3
3.056327084E1,3.328948980E-3,-1.930790395E-2,-6.657897960E-3
3.058346719E1,-9.321057005E-4,-1.824264042E-2,-3.462106921E-3
3.060365813E1,-4.660528619E-3,-1.984053478E-2,-7.989477599E-4
3.062384917E1,-8.388951421E-3,-1.611211337E-2,3.994738683E-3
3.064405105E1,-9.454214945E-3,-1.131842658E-2,5.060002208E-3
3.066423136E1,-8.921583183E-3,-1.331579551E-4,6.657897960E-3
3.068441198E1,-6.258423906E-3,2.330264263E-2,8.255792782E-3
3.070459323E1,-2.530001104E-3,5.259739235E-2,6.657897960E-3
3.072477542E1,1.198421582E-3,7.123950869E-2,4.527370445E-3
3.074495876E1,3.328948980E-3,7.177213579E-2,5.060002208E-3
3.076514344E1,3.328948980E-3,5.952160433E-2,5.592633970E-3
3.078532959E1,4.394212738E-3,4.301001877E-2,6.125265732E-3
3.080551730E1,4.926844500E-3,2.862896025E-2,5.592633970E-3
3.082570657E1,2.263685223E-3,1.797632314E-2,5.060002208E-3
3.084589730E1,1.331579551E-4,1.105211023E-2,4.527370445E-3
3.086608938E1,1.331579551E-4,7.323687430E-3,1.331579522E-3
3.088628271E1,1.198421582E-3,-1.731053460E-3,1.864211401E-3
3.090647709E1,1.331579551E-4,-7.590003312E-3,2.663159103E-4
3.092667219E1,-4.660528619E-3,-7.057371549E-3,2.663159103E-4
3.094686782E1,-3.595264861E-3,-5.459476262E-3,-1.864211401E-3
3.096706365E1,1.331579551E-4,-7.590003312E-3,-3.994738683E-3
3.098725938E1,1.731053460E-3,-1.131842658E-2,-6.125265732E-3
3.100744865E1,2.263685223E-3,-1.664474420E-2,-6.125265732E-3
3.102763251E1,6.657897611E-4,-2.410159074E-2,-6.657897960E-3
3.104781678E1,1.331579551E-4,-2.516685426E-2,-8.255792782E-3
3.106800157E1,6.657897611E-4,-2.303632535E-2,-8.255792782E-3
3.108818709E1,4.926844500E-3,-1.664474420E-2,-8.255792782E-3
3.110837344E1,3.861580743E-3,-5.459476262E-3,-8.255792782E-3
3.112856073E1,1.731053460E-3,-2.796316985E-3,-5.060002208E-3
3.114874896E1,-3.062632866E-3,-2.263685223E-3,-1.331579522E-3
3.116893813E1,-1.051947847E-2,-5.992108025E-3,2.396843163E-3
3.118912823E1,-1.424790081E-2,-1.131842658E-2,4.527370445E-3
3.121434829E1,-1.584579609E-2,-1.824264042E-2,7.190529723E-3
3.122635740E1,-1.584579609E-2,-1.930790395E-2,8.255792782E-3
3.124596011E1,-1.371526904E-2,-1.824264042E-2,1.145158429E-2
3.126556553E1,-1.158474199E-2,-1.398158539E-2,1.358211134E-2
3.128517636E1,-8.388951421E-3,-7.590003312E-3,1.145158429E-2
3.130480344E1,-3.062632866E-3,-2.263685223E-3,8.255792782E-3
3.132446860E1,2.263685223E-3,-1.198421582E-3,7.190529723E-3
3.134419126E1,3.328948980E-3,-3.328948980E-3,7.190529723E-3
3.136398776E1,1.198421582E-3,-5.459476262E-3,7.190529723E-3
3.138387089E1,-1.997369342E-3,-3.328948980E-3,7.190529723E-3
3.140384943E1,-3.062632866E-3,-1.198421582E-3,6.125265732E-3
3.142392797E1,-5.193160381E-3,-1.331579551E-4,6.125265732E-3
3.144410698E1,-8.388951421E-3,9.321057005E-4,5.060002208E-3
3.146438282E1,-9.454214945E-3,3.062632866E-3,2.929474926E-3
3.148474813E1,-6.258423906E-3,1.997369342E-3,2.929474926E-3
3.150514813E1,-4.127896391E-3,1.997369342E-3,1.864211401E-3
3.152554542E1,-1.997369342E-3,7.323687430E-3,-2.663159103E-4
3.154594542E1,2.263685223E-3,1.478053257E-2,-2.396843163E-3
3.156635084E1,6.524739787E-3,1.797632314E-2,-4.527370445E-3
3.158675084E1,7.590003312E-3,1.265000552E-2,-4.527370445E-3
3.160714813E1,6.524739787E-3,5.193160381E-3,-4.527370445E-3
3.162754813E1,5.459476262E-3,9.321057005E-4,-4.527370445E-3
3.164795355E1,5.459476262E-3,1.997369342E-3,-5.592633970E-3
3.166835355E1,6.524739787E-3,4.127896391E-3,-5.592633970E-3
3.168875084E1,6.524739787E-3,6.258423906E-3,-5.592633970E-3
3.170897855E1,6.524739787E-3,9.454214945E-3,-5.592633970E-3
3.172916782E1,4.394212738E-3,8.388951421E-3,-4.527370445E-3
3.174935704E1,1.331579551E-4,4.127896391E-3,-3.462106921E-3
3.176955167E1,-4.127896391E-3,-1.198421582E-3,-2.396843163E-3
3.178973553E1,-5.193160381E-3,-3.328948980E-3,-1.331579522E-3
3.180991959E1,-3.062632866E-3,-4.394212738E-3,-2.663159103E-4
3.183010402E1,-4.127896391E-3,-8.655266836E-3,-2.663159103E-4
3.185028902E1,-4.127896391E-3,-1.504684892E-2,-2.663159103E-4
3.187047474E1,-4.127896391E-3,-2.143843099E-2,-1.331579522E-3
3.189066131E1,-3.062632866E-3,-2.463422157E-2,-3.462106921E-3
3.191084876E1,1.331579551E-4,-2.037316747E-2,-6.657897960E-3
3.193103714E1,4.394212738E-3,-1.504684892E-2,-9.853689000E-3
3.195122646E1,7.590003312E-3,-1.078579482E-2,-1.091895252E-2
3.197141667E1,1.185105834E-2,-7.590003312E-3,-1.304947957E-2
3.199160771E1,1.504684892E-2,-4.394212738E-3,-1.518000662E-2
3.201179948E1,1.717737690E-2,3.062632866E-3,-1.518000662E-2
3.203199183E1,1.611211337E-2,1.051947847E-2,-1.304947957E-2
3.205218459E1,1.504684892E-2,2.010685205E-2,-1.198421605E-2
3.207237761E1,1.611211337E-2,2.969422378E-2,-1.091895252E-2
3.209257073E1,1.611211337E-2,2.862896025E-2,-8.788425475E-3
3.211276349E1,1.078579482E-2,2.117211558E-2,-5.592633970E-3
3.213295276E1,3.328948980E-3,1.584579609E-2,-1.331579522E-3
3.215314198E1,1.331579551E-4,1.478053257E-2,1.864211401E-3
3.217332849E1,-1.997369342E-3,1.478053257E-2,5.060002208E-3
3.219351521E1,-4.127896391E-3,1.051947847E-2,8.255792782E-3
3.221370224E1,-6.258423906E-3,4.127896391E-3,1.038632076E-2
3.223388964E1,-7.323687430E-3,-2.263685223E-3,1.145158429E-2
3.225407745E1,-8.388951421E-3,-9.720530361E-3,1.358211134E-2
3.227426573E1,-9.454214945E-3,-1.611211337E-2,1.571263932E-2
3.229445448E1,-1.158474199E-2,-2.143843099E-2,1.677790284E-2
3.231464370E1,-9.454214945E-3,-2.569948509E-2,1.784316637E-2
3.233483339E1,-8.388951421E-3,-2.783001214E-2,1.677790284E-2
3.235502349E1,-8.388951421E-3,-2.676474862E-2,1.571263932E-2
3.237521396E1,-8.388951421E-3,-2.250369452E-2,1.358211134E-2
3.239540474E1,-6.258423906E-3,-1.611211337E-2,1.251684781E-2
3.241559579E1,-5.193160381E-3,-8.655266836E-3,1.251684781E-2
3.243578698E1,-6.258423906E-3,-1.198421582E-3,1.358211134E-2
3.245597823E1,-7.323687430E-3,8.388951421E-3,1.358211134E-2
3.247617490E1,-7.323687430E-3,1.584579609E-2,1.358211134E-2
3.249635912E1,-5.193160381E-3,2.117211558E-2,1.251684781E-2
3.251654349E1,-3.062632866E-3,2.330264263E-2,1.038632076E-2
3.253672823E1,-9.321057005E-4,2.010685205E-2,8.255792782E-3
3.255691349E1,1.331579551E-4,1.584579609E-2,6.125265732E-3
3.257709943E1,1.331579551E-4,1.158474199E-2,6.125265732E-3
3.259728615E1,1.198421582E-3,9.454214945E-3,6.125265732E-3
3.261747370E1,1.198421582E-3,6.258423906E-3,6.125265732E-3
3.263766214E1,1.198421582E-3,3.062632866E-3,7.190529723E-3
3.265785146E1,-9.321057005E-4,-4.394212738E-3,6.125265732E-3
3.267804162E1,-9.321057005E-4,-1.398158539E-2,5.060002208E-3
3.269823256E1,1.331579551E-4,-2.463422157E-2,3.994738683E-3
3.271842417E1,-5.193160381E-3,-3.422159329E-2,5.060002208E-3
3.273861631E1,-1.051947847E-2,-3.741738573E-2,5.060002208E-3
3.275880886E1,-1.158474199E-2,-3.528685868E-2,6.125265732E-3
3.277900167E1,-1.051947847E-2,-3.102580272E-2,5.060002208E-3
3.279919459E1,-1.158474199E-2,-2.996053919E-2,5.060002208E-3
3.281938698E1,-1.371526904E-2,-3.422159329E-2,3.994738683E-3
3.283957620E1,-1.371526904E-2,-4.061317816E-2,1.864211401E-3
3.285976271E1,-9.454214945E-3,-3.954791278E-2,-1.331579522E-3
3.287994943E1,-3.062632866E-3,-3.209106624E-2,-2.663159103E-4
3.290013641E1,1.198421582E-3,-1.824264042E-2,-1.331579522E-3
3.292032376E1,5.459476262E-3,-1.331579551E-4,-3.462106921E-3
3.294051152E1,9.720530361E-3,1.797632314E-2,-3.462106921E-3
3.296069974E1,1.078579482E-2,3.289001435E-2,-3.462106921E-3
3.298088844E1,8.655266836E-3,3.928159550E-2,-3.462106921E-3
3.300107761E1,5.459476262E-3,3.715106845E-2,-4.527370445E-3
3.302126724E1,1.198421582E-3,3.075948730E-2,-3.462106921E-3
3.304145735E1,-9.321057005E-4,2.223737910E-2,-1.331579522E-3
3.306164782E1,1.331579551E-4,1.584579609E-2,-2.663159103E-4
3.308183860E1,1.198421582E-3,1.051947847E-2,7.989477599E-4
3.310202964E1,2.263685223E-3,6.258423906E-3,7.989477599E-4
3.312222084E1,3.328948980E-3,3.062632866E-3,-2.663159103E-4
3.314241214E1,4.394212738E-3,-1.198421582E-3,-1.331579522E-3
3.316260886E1,4.394212738E-3,-5.459476262E-3,-1.331579522E-3
3.318279323E1,2.263685223E-3,-7.590003312E-3,-1.331579522E-3
3.320297776E1,1.198421582E-3,-9.720530361E-3,-2.663159103E-4
3.322316266E1,1.331579551E-4,-1.078579482E-2,-2.663159103E-4
3.324334808E1,-9.321057005E-4,-9.720530361E-3,7.989477599E-4
3.326353412E1,-1.997369342E-3,-9.720530361E-3,7.989477599E-4
3.328372089E1,-4.127896391E-3,-1.185105834E-2,1.864211401E-3
3.330390849E1,-4.127896391E-3,-1.398158539E-2,1.864211401E-3
3.332409693E1,-9.321057005E-4,-1.398158539E-2,1.864211401E-3
3.334428620E1,1.331579551E-4,-1.078579482E-2,2.929474926E-3
3.336447631E1,-1.997369342E-3,-7.590003312E-3,2.929474926E-3
3.338466714E1,-1.997369342E-3,-1.198421582E-3,1.864211401E-3
3.340485860E1,1.198421582E-3,5.193160381E-3,-2.663159103E-4
3.342505058E1,4.394212738E-3,1.265000552E-2,-2.663159103E-4
3.344524297E1,2.263685223E-3,1.584579609E-2,7.989477599E-4
3.346543563E1,1.198421582E-3,1.371526904E-2,-2.663159103E-4
3.348562839E1,1.198421582E-3,1.051947847E-2,-1.331579522E-3
3.350582105E1,1.331579551E-4,5.193160381E-3,-2.396843163E-3
3.352601032E1,-9.321057005E-4,-1.331579551E-4,-2.396843163E-3
3.354619954E1,-9.321057005E-4,-5.459476262E-3,-3.462106921E-3
3.356638605E1,-9.321057005E-4,-1.185105834E-2,-2.396843163E-3
3.358657276E1,-9.321057005E-4,-1.824264042E-2,-2.396843163E-3
3.360675980E1,-1.997369342E-3,-2.356895804E-2,-1.331579522E-3
3.362694719E1,-3.062632866E-3,-2.783001214E-2,7.989477599E-4
3.364713500E1,-3.062632866E-3,-2.783001214E-2,2.929474926E-3
3.366732329E1,-4.127896391E-3,-2.676474862E-2,3.994738683E-3
3.368751204E1,-4.127896391E-3,-2.463422157E-2,6.125265732E-3
3.370770126E1,-3.062632866E-3,-2.250369452E-2,6.125265732E-3
3.372789094E1,-3.062632866E-3,-1.930790395E-2,6.125265732E-3
3.374808105E1,-1.997369342E-3,-1.504684892E-2,7.190529723E-3
3.376827152E1,-1.997369342E-3,-9.720530361E-3,7.190529723E-3
3.378846230E1,-1.997369342E-3,-3.328948980E-3,6.125265732E-3
3.380865334E1,-9.321057005E-4,1.997369342E-3,5.060002208E-3
3.382884454E1,-9.321057005E-4,6.258423906E-3,5.060002208E-3
3.384903579E1,-1.997369342E-3,8.388951421E-3,3.994738683E-3
3.386923245E1,-1.997369342E-3,1.158474199E-2,2.929474926E-3
3.388941672E1,1.331579551E-4,1.478053257E-2,2.929474926E-3
3.390960115E1,1.331579551E-4,1.904158667E-2,2.929474926E-3
3.392978594E1,1.198421582E-3,2.010685205E-2,1.864211401E-3
3.394997126E1,1.331579551E-4,1.584579609E-2,1.864211401E-3
3.397015724E1,-9.321057005E-4,1.265000552E-2,7.989477599E-4
3.399034402E1,1.331579551E-4,9.454214945E-3,-2.663159103E-4
3.401053162E1,-9.321057005E-4,-1.331579551E-4,-2.663159103E-4
3.403072011E1,-4.127896391E-3,-7.590003312E-3,-1.331579522E-3
3.405090943E1,-5.193160381E-3,-4.394212738E-3,-3.462106921E-3
3.407109959E1,1.331579551E-4,3.062632866E-3,-3.462106921E-3
3.409129047E1,4.394212738E-3,1.158474199E-2,-1.331579522E-3
3.411148204E1,3.328948980E-3,1.584579609E-2,2.929474926E-3
3.413167412E1,1.198421582E-3,1.158474199E-2,6.125265732E-3
3.415186662E1,-1.997369342E-3,5.193160381E-3,6.125265732E-3
3.417205938E1,-6.258423906E-3,-1.331579551E-4,5.060002208E-3
3.419225224E1,-6.258423906E-3,-1.331579551E-4,3.994738683E-3
3.421244469E1,-3.062632866E-3,3.062632866E-3,3.994738683E-3
3.423263391E1,1.331579551E-4,4.127896391E-3,5.060002208E-3
3.425282042E1,1.331579551E-4,1.997369342E-3,2.929474926E-3
3.427300714E1,-9.321057005E-4,-2.263685223E-3,-1.331579522E-3
3.429319417E1,-9.321057005E-4,-2.263685223E-3,-6.657897960E-3
3.431338157E1,1.331579551E-4,4.127896391E-3,-9.853689000E-3
3.433356938E1,1.331579551E-4,1.051947847E-2,-1.091895252E-2
3.435375766E1,-9.321057005E-4,1.265000552E-2,-1.304947957E-2
3.437394641E1,-1.997369342E-3,7.323687430E-3,-1.518000662E-2
3.439413563E1,-1.997369342E-3,9.321057005E-4,-1.304947957E-2
3.441432532E1,-3.062632866E-3,-2.263685223E-3,-8.788425475E-3
3.443451542E1,-5.193160381E-3,-5.459476262E-3,-3.462106921E-3
3.445470589E1,-5.193160381E-3,-1.185105834E-2,1.864211401E-3
3.447489667E1,-4.127896391E-3,-1.717737690E-2,1.864211401E-3
3.449508771E1,1.198421582E-3,-1.504684892E-2,7.989477599E-4
3.451527891E1,9.720530361E-3,-6.524739787E-3,-1.331579522E-3
3.453547021E1,1.185105834E-2,-6.524739787E-3,-1.331579522E-3
3.455566693E1,7.590003312E-3,-1.717737690E-2,-2.396843163E-3
3.457585120E1,4.394212738E-3,-2.889527567E-2,-6.657897960E-3
3.459603563E1,5.459476262E-3,-2.996053919E-2,-8.788425475E-3
3.461622042E1,3.328948980E-3,-2.250369452E-2,-6.657897960E-3
3.463640573E1,-4.127896391E-3,-1.398158539E-2,-5.592633970E-3
3.465659172E1,-5.193160381E-3,1.997369342E-3,-5.592633970E-3
3.467677849E1,2.263685223E-3,2.649843320E-2,-5.592633970E-3
3.469696610E1,2.263685223E-3,3.395527974E-2,-1.331579522E-3
3.471715459E1,-4.127896391E-3,2.330264263E-2,3.994738683E-3
3.473734396E1,-6.258423906E-3,9.454214945E-3,6.125265732E-3
3.475753417E1,-1.997369342E-3,3.062632866E-3,7.190529723E-3
3.477772511E1,2.263685223E-3,7.323687430E-3,7.190529723E-3
3.479791672E1,2.263685223E-3,1.691105962E-2,8.255792782E-3
3.481810886E1,3.328948980E-3,2.543316968E-2,8.255792782E-3
3.483830141E1,5.459476262E-3,2.756369673E-2,7.190529723E-3
3.485849422E1,5.459476262E-3,2.543316968E-2,5.060002208E-3
3.487868714E1,3.328948980E-3,2.117211558E-2,1.864211401E-3
3.489887922E1,1.198421582E-3,1.478053257E-2,-1.331579522E-3
3.491906849E1,1.198421582E-3,6.258423906E-3,-3.462106921E-3
3.493925771E1,1.331579551E-4,-1.198421582E-3,-4.527370445E-3
3.495944422E1,-9.321057005E-4,-2.263685223E-3,-5.592633970E-3
3.497963094E1,1.331579551E-4,9.321057005E-4,-5.592633970E-3
3.499981797E1,1.331579551E-4,3.062632866E-3,-4.527370445E-3
3.502000537E1,1.198421582E-3,3.062632866E-3,-2.396843163E-3
3.504019318E1,1.198421582E-3,1.997369342E-3,-1.331579522E-3
3.506038146E1,2.263685223E-3,-1.331579551E-4,-2.663159103E-4
3.508057021E1,2.263685223E-3,-3.328948980E-3,-2.663159103E-4
3.510075943E1,1.198421582E-3,-6.524739787E-3,-2.663159103E-4
3.512094912E1,1.331579551E-4,-9.720530361E-3,-2.663159103E-4
3.514113922E1,-1.997369342E-3,-1.291632187E-2,-1.331579522E-3
3.516132969E1,-4.127896391E-3,-1.291632187E-2,-2.396843163E-3
3.518152047E1,-3.062632866E-3,-7.590003312E-3,-2.663159103E-4
3.520171152E1,-9.321057005E-4,-2.263685223E-3,1.864211401E-3
3.522190271E1,-9.321057005E-4,-1.331579551E-4,1.864211401E-3
3.524209402E1,-3.062632866E-3,-4.394212738E-3,-2.663159103E-4
3.526229073E1,-3.062632866E-3,-9.720530361E-3,-2.663159103E-4
3.528247506E1,-1.997369342E-3,-1.398158539E-2,-2.663159103E-4
3.530265954E1,-1.997369342E-3,-1.291632187E-2,-1.331579522E-3
3.532284438E1,-9.321057005E-4,-9.720530361E-3,-1.331579522E-3
3.534302974E1,1.198421582E-3,-4.394212738E-3,-1.331579522E-3
3.536321579E1,3.328948980E-3,-1.198421582E-3,7.989477599E-4
3.538340256E1,4.394212738E-3,-1.198421582E-3,7.989477599E-4
3.540359016E1,4.394212738E-3,-5.459476262E-3,-2.663159103E-4
3.542377860E1,2.263685223E-3,-4.394212738E-3,-2.663159103E-4
3.544396787E1,1.331579551E-4,3.062632866E-3,-2.663159103E-4
3.546415797E1,-9.321057005E-4,1.265000552E-2,-1.331579522E-3
3.548434881E1,1.331579551E-4,1.904158667E-2,-2.396843163E-3
3.550454032E1,2.263685223E-3,2.543316968E-2,-2.396843163E-3
3.552473235E1,2.263685223E-3,2.543316968E-2,-1.331579522E-3
3.554492480E1,1.331579551E-4,1.691105962E-2,-1.331579522E-3
3.556511750E1,-9.321057005E-4,8.388951421E-3,-2.663159103E-4
3.558531032E1,1.331579551E-4,3.062632866E-3,-2.663159103E-4
3.560550308E1,2.263685223E-3,3.062632866E-3,-2.663159103E-4
3.562569235E1,5.459476262E-3,6.258423906E-3,-2.663159103E-4
3.564588157E1,7.590003312E-3,4.127896391E-3,-2.663159103E-4
3.566606808E1,6.524739787E-3,1.997369342E-3,-1.331579522E-3
3.568625480E1,5.459476262E-3,1.997369342E-3,-2.396843163E-3
3.570644183E1,5.459476262E-3,9.321057005E-4,-3.462106921E-3
3.572662922E1,3.328948980E-3,-1.198421582E-3,-4.527370445E-3
3.574681704E1,1.198421582E-3,-3.328948980E-3,-3.462106921E-3
3.576700532E1,2.263685223E-3,-1.198421582E-3,-2.396843163E-3
3.578719407E1,3.328948980E-3,8.388951421E-3,-2.396843163E-3
3.580738329E1,2.263685223E-3,1.691105962E-2,-2.396843163E-3
3.582757297E1,1.331579551E-4,1.584579609E-2,-2.396843163E-3
3.584776308E1,-9.321057005E-4,6.258423906E-3,-2.396843163E-3
3.586795355E1,-9.321057005E-4,-6.524739787E-3,-2.396843163E-3
3.588814433E1,-3.062632866E-3,-2.037316747E-2,-3.462106921E-3
3.590833537E1,-6.258423906E-3,-3.102580272E-2,-4.527370445E-3
3.592852657E1,-7.323687430E-3,-3.315633163E-2,-3.462106921E-3
3.594871782E1,-6.258423906E-3,-2.889527567E-2,-1.331579522E-3
3.596891448E1,-1.997369342E-3,-1.930790395E-2,-1.331579522E-3
3.598909881E1,1.198421582E-3,-1.078579482E-2,-2.663159103E-4
3.600928329E1,4.394212738E-3,-5.459476262E-3,1.864211401E-3
3.602946813E1,5.459476262E-3,-1.331579551E-4,3.994738683E-3
3.604965349E1,3.328948980E-3,4.127896391E-3,5.060002208E-3
3.606983954E1,3.328948980E-3,1.265000552E-2,5.060002208E-3
3.609002631E1,5.459476262E-3,2.010685205E-2,2.929474926E-3
3.611021391E1,7.590003312E-3,1.797632314E-2,2.929474926E-3
3.613040235E1,5.459476262E-3,2.010685205E-2,2.929474926E-3
3.615059162E1,1.331579551E-4,2.862896025E-2,1.864211401E-3
3.617078172E1,-3.062632866E-3,3.075948730E-2,1.864211401E-3
3.619097256E1,-4.127896391E-3,2.223737910E-2,1.864211401E-3
3.621116407E1,-8.388951421E-3,6.258423906E-3,2.929474926E-3
3.623135610E1,-1.158474199E-2,-1.185105834E-2,3.994738683E-3
3.625154855E1,-1.371526904E-2,-2.676474862E-2,2.929474926E-3
3.627174126E1,-1.371526904E-2,-3.422159329E-2,2.929474926E-3
3.629193407E1,-1.051947847E-2,-3.741738573E-2,5.060002208E-3
3.631212672E1,-7.323687430E-3,-3.954791278E-2,7.190529723E-3
3.633231599E1,-7.323687430E-3,-4.380896688E-2,7.190529723E-3
3.635250521E1,-8.388951421E-3,-4.274370521E-2,6.125265732E-3
3.637269172E1,-6.258423906E-3,-3.102580272E-2,6.125265732E-3
3.639287844E1,-9.321057005E-4,-9.720530361E-3,6.125265732E-3
3.641306542E1,5.459476262E-3,1.371526904E-2,5.060002208E-3
3.643325276E1,1.291632187E-2,3.821633384E-2,1.864211401E-3
3.645344053E1,1.930790395E-2,5.845634267E-2,-1.331579522E-3
3.647362876E1,2.143843099E-2,7.017423958E-2,-3.462106921E-3
3.649381745E1,1.717737690E-2,7.443529367E-2,-5.592633970E-3
3.651400667E1,1.185105834E-2,7.123950869E-2,-8.788425475E-3
3.653419636E1,4.394212738E-3,6.058686972E-2,-9.853689000E-3
3.655438646E1,-4.127896391E-3,4.141212255E-2,-8.788425475E-3
3.657457693E1,-1.158474199E-2,1.584579609E-2,-7.723161485E-3
3.659476771E1,-1.478053257E-2,-1.185105834E-2,-7.723161485E-3
3.661495876E1,-1.371526904E-2,-3.848264739E-2,-7.723161485E-3
3.663514995E1,-1.158474199E-2,-6.085318699E-2,-7.723161485E-3
3.665534126E1,-9.454214945E-3,-7.470161468E-2,-6.657897960E-3
3.667553797E1,-6.258423906E-3,-7.896266878E-2,-4.527370445E-3
3.669572235E1,-1.997369342E-3,-7.363634557E-2,-2.396843163E-3
3.671590688E1,3.328948980E-3,-6.085318699E-2,7.989477599E-4
3.673609178E1,5.459476262E-3,-4.274370521E-2,3.994738683E-3
3.675627719E1,4.394212738E-3,-2.463422157E-2,5.060002208E-3
3.677646323E1,5.459476262E-3,-8.655266836E-3,5.060002208E-3
3.679665001E1,6.524739787E-3,3.062632866E-3,6.125265732E-3
3.681683761E1,5.459476262E-3,1.478053257E-2,6.125265732E-3
3.683702605E1,3.328948980E-3,2.649843320E-2,2.929474926E-3
3.685721532E1,3.328948980E-3,3.821633384E-2,1.864211401E-3
3.687740542E1,4.394212738E-3,5.313002318E-2,2.929474926E-3
3.689759626E1,3.328948980E-3,6.484792382E-2,2.929474926E-3
3.691778771E1,1.198421582E-3,6.378266215E-2,3.994738683E-3
3.693797969E1,1.198421582E-3,6.058686972E-2,3.994738683E-3
3.695817209E1,4.394212738E-3,5.845634267E-2,2.929474926E-3
3.697836474E1,5.459476262E-3,4.993423447E-2,7.989477599E-4
3.699855750E1,2.263685223E-3,3.075948730E-2,-1.331579522E-3
3.701875016E1,-3.062632866E-3,8.388951421E-3,-2.396843163E-3
3.703893938E1,-5.193160381E-3,-1.717737690E-2,-1.331579522E-3
3.705912589E1,-8.388951421E-3,-4.274370521E-2,-2.396843163E-3
3.707931261E1,-1.051947847E-2,-6.511423737E-2,-3.462106921E-3
3.709949959E1,-1.158474199E-2,-7.896266878E-2,-2.396843163E-3
3.711968693E1,-1.158474199E-2,-8.641951531E-2,-2.396843163E-3
3.713987469E1,-1.051947847E-2,-8.748477697E-2,-2.396843163E-3
3.716006292E1,-6.258423906E-3,-7.789740711E-2,-2.396843163E-3
3.718025162E1,1.331579551E-4,-5.872265995E-2,-1.331579522E-3
3.720044079E1,5.459476262E-3,-3.422159329E-2,-2.663159103E-4
3.722063042E1,6.524739787E-3,-8.655266836E-3,7.989477599E-4
3.724082047E1,7.590003312E-3,1.584579609E-2,-2.663159103E-4
3.726101094E1,9.720530361E-3,3.928159550E-2,-3.462106921E-3
3.728120172E1,1.291632187E-2,6.484792382E-2,-5.592633970E-3
3.730139276E1,1.717737690E-2,8.721846342E-2,-5.592633970E-3
3.732158396E1,1.611211337E-2,9.680583328E-2,-3.462106921E-3
3.734177526E1,9.720530361E-3,9.147951752E-2,-2.663159103E-4
3.736197198E1,3.328948980E-3,7.763108611E-2,2.929474926E-3
3.738215641E1,-1.997369342E-3,5.526055023E-2,2.929474926E-3
3.740234099E1,-5.193160381E-3,3.182475269E-2,1.864211401E-3
3.742252594E1,-5.193160381E-3,1.051947847E-2,-1.331579522E-3
3.744271141E1,-4.127896391E-3,-7.590003312E-3,-1.331579522E-3
3.746289750E1,-6.258423906E-3,-2.676474862E-2,-2.663159103E-4
3.748308433E1,-9.454214945E-3,-4.380896688E-2,1.864211401E-3
3.750327193E1,-9.454214945E-3,-5.446160212E-2,2.929474926E-3
3.752346037E1,-5.193160381E-3,-5.978792161E-2,2.929474926E-3
3.754364964E1,-3.062632866E-3,-5.765739456E-2,2.929474926E-3
3.756383969E1,-3.062632866E-3,-5.020054802E-2,2.929474926E-3
3.758403047E1,-1.997369342E-3,-3.848264739E-2,1.864211401E-3
3.760422188E1,1.331579551E-4,-2.463422157E-2,-2.663159103E-4
3.762441381E1,3.328948980E-3,-9.720530361E-3,-3.462106921E-3
3.764460615E1,5.459476262E-3,8.388951421E-3,-4.527370445E-3
3.766479876E1,8.655266836E-3,2.756369673E-2,-4.527370445E-3
3.768499146E1,9.720530361E-3,3.821633384E-2,-3.462106921E-3
3.770518412E1,6.524739787E-3,4.141212255E-2,-4.527370445E-3
3.772537334E1,2.263685223E-3,3.928159550E-2,-4.527370445E-3
3.774555985E1,-9.321057005E-4,3.289001435E-2,-2.396843163E-3
3.776574657E1,-4.127896391E-3,2.117211558E-2,-2.396843163E-3
3.778593355E1,-6.258423906E-3,5.193160381E-3,-2.396843163E-3
3.780612089E1,-5.193160381E-3,-1.078579482E-2,-1.331579522E-3
3.782630865E1,-4.127896391E-3,-2.356895804E-2,7.989477599E-4
3.784649688E1,-4.127896391E-3,-2.676474862E-2,2.929474926E-3
3.786668558E1,-5.193160381E-3,-2.250369452E-2,6.125265732E-3
3.788687474E1,-4.127896391E-3,-1.824264042E-2,6.125265732E-3
3.790706438E1,-9.321057005E-4,-1.078579482E-2,5.060002208E-3
3.792725443E1,1.198421582E-3,-2.263685223E-3,3.994738683E-3
3.794744485E1,2.263685223E-3,3.062632866E-3,1.864211401E-3
3.796763558E1,5.459476262E-3,1.051947847E-2,-1.331579522E-3
3.798782657E1,8.655266836E-3,1.904158667E-2,-3.462106921E-3
3.800801771E1,8.655266836E-3,1.797632314E-2,-3.462106921E-3
3.802820896E1,2.263685223E-3,1.265000552E-2,-4.527370445E-3
3.804840563E1,-3.062632866E-3,6.258423906E-3,-6.657897960E-3
3.806859021E1,-9.321057005E-4,-1.331579551E-4,-8.788425475E-3
3.808877495E1,2.263685223E-3,1.997369342E-3,-7.723161485E-3
3.810896000E1,1.331579551E-4,6.258423906E-3,-5.592633970E-3
3.812914553E1,-3.062632866E-3,5.193160381E-3,-4.527370445E-3
3.814933167E1,-9.321057005E-4,7.323687430E-3,-3.462106921E-3
3.816951855E1,3.328948980E-3,1.265000552E-2,-2.396843163E-3
3.818970620E1,4.394212738E-3,1.691105962E-2,-2.396843163E-3
3.820989469E1,4.394212738E-3,1.265000552E-2,-4.527370445E-3
3.823008396E1,2.263685223E-3,-1.198421582E-3,-5.592633970E-3
3.825027402E1,-1.997369342E-3,-1.611211337E-2,-4.527370445E-3
3.827046480E1,-5.193160381E-3,-2.676474862E-2,-4.527370445E-3
3.829065620E1,-6.258423906E-3,-3.528685868E-2,-6.657897960E-3
3.831084813E1,-5.193160381E-3,-4.061317816E-2,-7.723161485E-3
3.833104042E1,-3.062632866E-3,-4.061317816E-2,-7.723161485E-3
3.835123297E1,-1.997369342E-3,-3.422159329E-2,-5.592633970E-3
3.837142563E1,2.263685223E-3,-2.463422157E-2,-4.527370445E-3
3.839161776E1,8.655266836E-3,-1.185105834E-2,-4.527370445E-3
3.841180698E1,8.655266836E-3,-5.459476262E-3,-2.396843163E-3
3.843199349E1,2.263685223E-3,-1.078579482E-2,7.989477599E-4
3.845218021E1,1.331579551E-4,-1.078579482E-2,2.929474926E-3
3.847236719E1,2.263685223E-3,-1.331579551E-4,2.929474926E-3
3.849255454E1,4.394212738E-3,1.478053257E-2,3.994738683E-3
3.851274230E1,1.198421582E-3,2.756369673E-2,6.125265732E-3
3.853293053E1,-1.997369342E-3,2.969422378E-2,6.125265732E-3
3.855311922E1,-3.062632866E-3,2.436790615E-2,6.125265732E-3
3.857330839E1,-3.062632866E-3,1.691105962E-2,7.190529723E-3
3.859349803E1,-5.193160381E-3,6.258423906E-3,7.190529723E-3
3.861368808E1,-7.323687430E-3,-5.459476262E-3,7.190529723E-3
3.863387849E1,-8.388951421E-3,-1.398158539E-2,6.125265732E-3
3.865406922E1,-9.454214945E-3,-1.611211337E-2,5.060002208E-3
3.867426021E1,-7.323687430E-3,-1.504684892E-2,3.994738683E-3
3.869445136E1,-9.321057005E-4,-1.291632187E-2,2.929474926E-3
3.871464261E1,5.459476262E-3,-1.078579482E-2,2.929474926E-3
3.873483928E1,5.459476262E-3,-4.394212738E-3,2.929474926E-3
3.875502376E1,4.394212738E-3,7.323687430E-3,2.929474926E-3
3.877520839E1,6.524739787E-3,2.010685205E-2,2.929474926E-3
3.879539339E1,8.655266836E-3,2.649843320E-2,3.994738683E-3
3.881557891E1,5.459476262E-3,2.436790615E-2,2.929474926E-3
3.883576506E1,1.198421582E-3,1.584579609E-2,7.989477599E-4
3.885595193E1,-9.321057005E-4,8.388951421E-3,-1.331579522E-3
3.887613959E1,-1.997369342E-3,5.193160381E-3,-2.396843163E-3
3.889632808E1,-9.321057005E-4,4.127896391E-3,-4.527370445E-3
3.891651740E1,1.198421582E-3,4.127896391E-3,-5.592633970E-3
3.893670750E1,1.198421582E-3,1.997369342E-3,-5.592633970E-3
3.895689834E1,1.331579551E-4,-4.394212738E-3,-5.592633970E-3
3.897708980E1,-9.321057005E-4,-5.459476262E-3,-5.592633970E-3
3.899728178E1,-9.321057005E-4,-3.328948980E-3,-5.592633970E-3
3.901747412E1,-9.321057005E-4,-3.328948980E-3,-3.462106921E-3
3.903766667E1,-1.997369342E-3,-3.328948980E-3,-2.396843163E-3
3.905785933E1,-1.997369342E-3,-4.394212738E-3,-2.663159103E-4
3.907805120E1,-1.997369342E-3,-6.524739787E-3,7.989477599E-4
3.909824042E1,-1.997369342E-3,-8.655266836E-3,1.864211401E-3
3.911842693E1,-9.321057005E-4,-1.078579482E-2,3.994738683E-3
3.913861365E1,1.331579551E-4,-1.291632187E-2,6.125265732E-3
3.915880063E1,-1.997369342E-3,-1.398158539E-2,6.125265732E-3
3.917898797E1,-3.062632866E-3,-1.291632187E-2,6.125265732E-3
3.919917573E1,-3.062632866E-3,-7.590003312E-3,5.060002208E-3
3.921936396E1,-1.997369342E-3,9.321057005E-4,3.994738683E-3
3.923955266E1,-9.321057005E-4,7.323687430E-3,3.994738683E-3
3.925974183E1,-9.321057005E-4,1.051947847E-2,3.994738683E-3
3.927993146E1,-9.321057005E-4,1.158474199E-2,2.929474926E-3
3.930012152E1,2.263685223E-3,1.371526904E-2,7.989477599E-4
3.932031193E1,5.459476262E-3,1.371526904E-2,-2.663159103E-4
3.934050266E1,3.328948980E-3,1.478053257E-2,7.989477599E-4
3.936069365E1,1.331579551E-4,1.691105962E-2,-1.331579522E-3
3.938088480E1,1.331579551E-4,1.797632314E-2,-3.462106921E-3
3.940107605E1,1.331579551E-4,1.371526904E-2,-3.462106921E-3
3.942127271E1,-9.321057005E-4,6.258423906E-3,-3.462106921E-3
3.944145704E1,-9.321057005E-4,-1.331579551E-4,-3.462106921E-3
3.946164152E1,-9.321057005E-4,-3.328948980E-3,-3.462106921E-3
3.948182636E1,-1.997369342E-3,-4.394212738E-3,-3.462106921E-3
3.950201172E1,1.331579551E-4,-5.459476262E-3,-4.527370445E-3
3.952219771E1,2.263685223E-3,-6.524739787E-3,-6.657897960E-3
3.954238443E1,5.459476262E-3,-3.328948980E-3,-8.788425475E-3
3.956257198E1,5.459476262E-3,-3.328948980E-3,-7.723161485E-3
3.958276037E1,2.263685223E-3,-6.524739787E-3,-5.592633970E-3
3.960294959E1,1.331579551E-4,-9.720530361E-3,-5.592633970E-3
3.962313964E1,-9.321057005E-4,-9.720530361E-3,-4.527370445E-3
3.964333042E1,1.331579551E-4,-6.524739787E-3,-2.396843163E-3
3.966352188E1,1.198421582E-3,-1.331579551E-4,-2.396843163E-3
3.968371386E1,1.198421582E-3,5.193160381E-3,-1.331579522E-3
3.970390626E1,2.263685223E-3,8.388951421E-3,7.989477599E-4
3.972409891E1,2.263685223E-3,9.454214945E-3,1.864211401E-3
3.974429167E1,1.198421582E-3,6.258423906E-3,2.929474926E-3
3.976448433E1,1.331579551E-4,3.062632866E-3,2.929474926E-3
3.978467360E1,-9.321057005E-4,4.127896391E-3,1.864211401E-3
3.980486282E1,-9.321057005E-4,1.265000552E-2,7.989477599E-4
3.982505198E1,1.198421582E-3,2.010685205E-2,7.989477599E-4
3.984523844E1,3.328948980E-3,2.117211558E-2,-2.663159103E-4
3.986542511E1,2.263685223E-3,1.691105962E-2,-2.663159103E-4
3.988561209E1,1.198421582E-3,9.454214945E-3,-1.331579522E-3
3.990579943E1,2.263685223E-3,-1.198421582E-3,-2.396843163E-3
3.992598719E1,1.198421582E-3,-1.078579482E-2,-3.462106921E-3
3.994617542E1,-1.997369342E-3,-1.078579482E-2,-2.396843163E-3
3.996636412E1,-3.062632866E-3,-4.394212738E-3,-2.663159103E-4
3.998655329E1,1.198421582E-3,3.062632866E-3,-1.331579522E-3
4.000674292E1,4.394212738E-3,8.388951421E-3,-1.331579522E-3
4.002693297E1,2.263685223E-3,8.388951421E-3,7.989477599E-4
4.004712339E1,1.331579551E-4,6.258423906E-3,2.929474926E-3
4.006731412E1,2.263685223E-3,1.158474199E-2,1.864211401E-3
