"Time (s)","Acceleration x (m/s^2)","Acceleration y (m/s^2)","Acceleration z (m/s^2)"
3.747668900E-2,-1.836341023E0,5.534139156E0,7.884892941E0
5.776122000E-2,-1.741347790E0,5.526528358E0,7.911736965E0
7.787799100E-2,-1.678287745E0,5.504262447E0,7.940833569E0
9.815122000E-2,-1.660025239E0,5.456970215E0,7.977229118E0
1.184240330E-1,-1.630535603E0,5.377651691E0,8.036952972E0
1.386964810E-1,-1.574396610E0,5.271570683E0,8.118017197E0
1.589685640E-1,-1.517345428E0,5.141093254E0,8.212016106E0
1.792403870E-1,-1.461028337E0,4.994058132E0,8.312351227E0
1.995112200E-1,-1.392478824E0,4.845748901E0,8.411307335E0
2.199120540E-1,-1.316660285E0,4.701508999E0,8.504858017E0
2.400544500E-1,-1.228062034E0,4.571339130E0,8.588661194E0
2.603258040E-1,-1.131343842E0,4.461898804E0,8.659209251E0
2.805971580E-1,-1.029000521E0,4.378486156E0,8.714378357E0
3.008680430E-1,-9.254493117E-1,4.320398808E0,8.754890442E0
3.212684080E-1,-8.328436613E-1,4.289945602E0,8.779129982E0
3.414104390E-1,-7.486577630E-1,4.277332783E0,8.792856216E0
3.616815330E-1,-5.750451684E-1,4.261604786E0,8.813536644E0
3.819525750E-1,-3.350909650E-1,4.261451721E0,8.825991631E0
4.022234080E-1,-1.227193922E-1,4.298005104E0,8.813766479E0
4.226235640E-1,-9.749228135E-3,4.364984989E0,8.781639099E0
4.427654390E-1,3.678805754E-2,4.416114807E0,8.755967140E0
4.630364290E-1,7.810793817E-2,4.400990963E0,8.763307571E0
4.833073140E-1,1.756062955E-1,4.295639992E0,8.814024925E0
5.035782000E-1,2.916702628E-1,4.100607872E0,8.903388023E0
5.239782520E-1,4.059661329E-1,3.836185217E0,9.016056061E0
5.441200220E-1,5.211388469E-1,3.541845798E0,9.129847527E0
5.643909600E-1,6.334679127E-1,3.256059170E0,9.228606224E0
5.846617930E-1,7.204898000E-1,3.004710197E0,9.307147980E0
6.049327310E-1,8.380920887E-1,2.798117876E0,9.361544609E0
6.252035640E-1,9.725242257E-1,2.634071350E0,9.396076202E0
6.454743970E-1,1.100009799E0,2.526806355E0,9.411462784E0
6.657452310E-1,1.143673420E0,2.503792763E0,9.412406921E0
6.860160640E-1,1.172943592E0,2.570319653E0,9.390849113E0
7.062869500E-1,1.180832624E0,2.702316046E0,9.352727890E0
7.265578350E-1,1.185304403E0,2.880339622E0,9.298874855E0
7.468286160E-1,1.219465613E0,3.083138466E0,9.229167938E0
7.670994500E-1,1.315024734E0,3.298942804E0,9.141010284E0
7.873702830E-1,1.468322515E0,3.526478291E0,9.032073975E0
8.076411160E-1,1.586006761E0,3.760179043E0,8.917175293E0
8.279119500E-1,1.633312345E0,3.987702847E0,8.809138298E0
8.481827310E-1,1.684433818E0,4.169845104E0,8.714669228E0
8.684535640E-1,1.811264038E0,4.264113426E0,8.643323898E0
8.887243450E-1,1.950163484E0,4.261174679E0,8.614501953E0
9.089951790E-1,1.951375961E0,4.160236835E0,8.663426399E0
9.292659600E-1,1.697174668E0,3.964100361E0,8.807718277E0
9.495367410E-1,1.182026625E0,3.696922779E0,9.005884171E0
9.698075220E-1,5.655237436E-1,3.391208649E0,9.184240341E0
9.900783040E-1,1.617665589E-1,3.189877987E0,9.271942139E0
1.010349085E0,7.165304571E-2,3.173255920E0,9.278776169E0
1.030619866E0,7.194364816E-2,3.178893566E0,9.276844978E0
1.050890647E0,1.451560855E-2,3.190548420E0,9.273110390E0
1.071161429E0,-1.234262362E-1,3.234874010E0,9.256929398E0
1.091432210E0,-3.509747982E-1,3.104451418E0,9.295675278E0
1.111702939E0,-3.828303814E-1,2.747323036E0,9.406170845E0
1.131973668E0,-4.007697403E-1,2.466187000E0,9.483020782E0
1.152244450E0,-3.680094481E-1,2.167119980E0,9.557120323E0
1.172515179E0,-3.516483307E-1,1.836017966E0,9.626825333E0
1.192785960E0,-3.197403252E-1,1.500459790E0,9.685906410E0
1.213056689E0,-1.519849151E-1,1.200369596E0,9.731721878E0
1.233327470E0,1.978232116E-1,9.284607172E-1,9.760594368E0
1.253727470E0,5.973843932E-1,6.638352275E-1,9.765902519E0
1.273868929E0,9.325509667E-1,3.886431158E-1,9.754469872E0
1.294139658E0,1.138536096E0,1.026087403E-1,9.739793777E0
1.314410387E0,1.286180019E0,-1.997272223E-1,9.719889641E0
1.334681116E0,1.408972621E0,-5.122138262E-1,9.691378593E0
1.354951845E0,1.506478429E0,-8.253523707E-1,9.655035019E0
1.375222575E0,1.562039375E0,-1.164732337E0,9.611129761E0
1.395493304E0,1.608453155E0,-1.545286655E0,9.549625397E0
1.415764033E0,1.617013097E0,-1.946010351E0,9.474635124E0
1.436034710E0,1.556658864E0,-2.342973471E0,9.394556046E0
1.456305439E0,1.463519335E0,-2.718333483E0,9.308016777E0
1.476576116E0,1.423141599E0,-3.051270962E0,9.210580826E0
1.496846845E0,1.441442370E0,-3.326303482E0,9.111989021E0
1.517117522E0,1.500804782E0,-3.546196222E0,9.019005775E0
1.537388252E0,1.554100037E0,-3.725692987E0,8.937246323E0
1.557658929E0,1.546536922E0,-3.885151625E0,8.870412827E0
1.577929606E0,1.458557367E0,-4.038965702E0,8.816449165E0
1.598200283E0,1.331180334E0,-4.179212570E0,8.771118164E0
1.618470960E0,1.239100218E0,-4.288286686E0,8.731872559E0
1.638741637E0,1.170612454E0,-4.383446693E0,8.693989754E0
1.659012314E0,1.038515687E0,-4.493062496E0,8.654724121E0
1.679282991E0,8.794267178E-1,-4.596960545E0,8.617711067E0
1.699553668E0,7.559272051E-1,-4.678071499E0,8.585721970E0
1.719953668E0,6.441498995E-1,-4.710948467E0,8.576853752E0
1.740094970E0,4.634652734E-1,-4.726277828E0,8.580085754E0
1.760365647E0,2.486972064E-1,-4.776108265E0,8.561386108E0
1.780636272E0,1.049074009E-1,-4.829749584E0,8.534218788E0
1.800906897E0,-1.993960142E-2,-4.871836185E0,8.510887146E0
1.821306897E0,-1.825619340E-1,-4.963062286E0,8.456067085E0
1.841448200E0,-3.807581067E-1,-5.082672596E0,8.378058434E0
1.861718825E0,-7.026430964E-1,-5.214698792E0,8.275482178E0
1.881989502E0,-1.138325930E0,-5.335936069E0,8.148765564E0
1.902260127E0,-1.586876988E0,-5.469041824E0,7.983845711E0
1.922660127E0,-1.876063704E0,-5.663416862E0,7.783089638E0
1.942801377E0,-2.058250189E0,-5.911942482E0,7.548703671E0
1.963072002E0,-2.219662189E0,-6.237630367E0,7.234324455E0
1.983342627E0,-2.477761507E0,-6.608587265E0,6.808645248E0
2.003613252E0,-2.864696503E0,-6.942591190E0,6.305895329E0
2.024013252E0,-3.366522312E0,-7.175841331E0,5.774445534E0
2.044154502E0,-3.925522804E0,-7.297555923E0,5.244648457E0
2.064425075E0,-4.495561600E0,-7.267907143E0,4.810180187E0
2.084695647E0,-5.030987263E0,-7.096411705E0,4.527747154E0
2.104966325E0,-5.506941795E0,-6.826227665E0,4.387093544E0
2.125366325E0,-5.906425953E0,-6.512102127E0,4.344771862E0
2.145507522E0,-6.252490520E0,-6.192997932E0,4.327068806E0
2.165778095E0,-6.571321964E0,-5.879710197E0,4.291518211E0
2.186048720E0,-6.847177982E0,-5.590711594E0,4.246232986E0
2.206319293E0,-7.059998512E0,-5.347325802E0,4.211045742E0
2.226589866E0,-7.188228130E0,-5.158272266E0,4.229891777E0
2.246860439E0,-7.249088764E0,-4.985365391E0,4.332114697E0
2.267131012E0,-7.285777569E0,-4.778470039E0,4.500450134E0
2.287401637E0,-7.316034794E0,-4.508224964E0,4.724609375E0
2.307672106E0,-7.347539902E0,-4.168037415E0,4.981115341E0
2.327942679E0,-7.350155830E0,-3.806375742E0,5.259001732E0
2.348213304E0,-7.305016041E0,-3.474753141E0,5.543754578E0
2.368483877E0,-7.245461464E0,-3.169034004E0,5.799215794E0
2.388754397E0,-7.190852165E0,-2.849999666E0,6.028227806E0
2.409024918E0,-7.168259144E0,-2.482710361E0,6.214706421E0
2.429295491E0,-7.193476200E0,-2.066039801E0,6.336857319E0
2.449566012E0,-7.259882450E0,-1.595966935E0,6.396670341E0
2.469836585E0,-7.323995113E0,-1.092621326E0,6.429281235E0
2.490107158E0,-7.354074478E0,-5.966734886E-1,6.460027695E0
2.510377679E0,-7.327977657E0,-1.541768909E-1,6.515163898E0
2.530648200E0,-7.244963646E0,1.998050511E-1,6.606130600E0
2.550918720E0,-7.141062737E0,4.602550864E-1,6.705503464E0
2.571189241E0,-7.017900944E0,6.278043389E-1,6.820945740E0
2.591459814E0,-6.876924515E0,7.377563119E-1,6.952265739E0
2.611730335E0,-6.741411686E0,8.123427033E-1,7.075581074E0
2.632000856E0,-6.646492958E0,8.522492647E-1,7.160181522E0
2.652271325E0,-6.581725121E0,8.431511521E-1,7.220828533E0
2.672541845E0,-6.510740757E0,7.921836972E-1,7.290616035E0
2.692812366E0,-6.429546356E0,7.249330282E-1,7.369246960E0
2.713082887E0,-6.327677250E0,6.852955222E-1,7.460646152E0
2.733353408E0,-6.207071781E0,6.938142776E-1,7.560507298E0
2.753623877E0,-6.096159458E0,6.673262715E-1,7.652575016E0
2.773894397E0,-6.007017136E0,5.522731543E-1,7.731824875E0
2.794164866E0,-5.964846611E0,3.959227204E-1,7.773946285E0
2.814435387E0,-5.932571411E0,2.954080403E-1,7.803058624E0
2.834705856E0,-5.891512394E0,2.620095015E-1,7.835293293E0
2.854976325E0,-5.823565006E0,2.160623819E-1,7.887318134E0
2.875246793E0,-5.754158974E0,1.644446552E-1,7.939332962E0
2.895517314E0,-5.682035923E0,1.236717924E-1,7.991843700E0
2.915787783E0,-5.592059135E0,6.121312082E-2,8.055774689E0
2.936058252E0,-5.498308659E0,-1.490389463E-2,8.120268822E0
2.956328720E0,-5.408874512E0,-9.337466210E-2,8.179593086E0
2.976599189E0,-5.331197262E0,-1.865081638E-1,8.228848457E0
2.996869658E0,-5.231219292E0,-2.974307239E-1,8.289526939E0
3.017140127E0,-5.106678009E0,-4.393299520E-1,8.360574722E0
3.037410595E0,-4.998676777E0,-5.642234683E-1,8.418150902E0
3.057681064E0,-4.975366592E0,-6.058628559E-1,8.429059029E0
3.077951481E0,-5.024727345E0,-5.816317201E-1,8.401439667E0
3.098221897E0,-5.095396996E0,-5.338872075E-1,8.361954689E0
3.118492366E0,-5.131597042E0,-5.113918185E-1,8.341197014E0
3.138762835E0,-5.145121098E0,-5.394175649E-1,8.331095695E0
3.159033252E0,-5.128821850E0,-6.546341777E-1,8.332887650E0
3.179303720E0,-5.061505318E0,-8.232651949E-1,8.359053612E0
3.199574137E0,-4.955828190E0,-9.920039177E-1,8.403932571E0
3.219974137E0,-4.859754086E0,-1.133596897E0,8.442045212E0
3.240115022E0,-4.817263603E0,-1.219597220E0,8.454403877E0
3.260385491E0,-4.809888363E0,-1.228153944E0,8.457363129E0
3.280655908E0,-4.807936192E0,-1.173587322E0,8.466216087E0
3.300926325E0,-4.784868717E0,-1.142146468E0,8.483567238E0
3.321326325E0,-4.757917404E0,-1.159890652E0,8.496308327E0
3.341467158E0,-4.738002300E0,-1.196628213E0,8.502341270E0
3.361737575E0,-4.665664196E0,-1.241904736E0,8.535785675E0
3.382007991E0,-4.504284382E0,-1.268337369E0,8.618186951E0
3.402278460E0,-4.335045338E0,-1.407612681E0,8.683109283E0
3.422678460E0,-4.159715652E0,-1.635571599E0,8.728805542E0
3.442819293E0,-4.015603065E0,-1.835022926E0,8.756598473E0
3.463089710E0,-3.909471989E0,-1.993893981E0,8.769881248E0
3.483360127E0,-3.794536352E0,-2.181411743E0,8.775723457E0
3.503768095E0,-3.632442236E0,-2.412934780E0,8.783706665E0
3.524049450E0,-3.387456417E0,-2.593230486E0,8.830101013E0
3.544164397E0,-3.068943739E0,-2.602518797E0,8.943090439E0
3.564436220E0,-2.751342058E0,-2.455212355E0,9.086937904E0
3.584707731E0,-2.493380070E0,-2.192496777E0,9.227480888E0
3.604979033E0,-2.299159527E0,-1.862293363E0,9.349658966E0
3.625250075E0,-2.017638922E0,-1.484027147E0,9.481411934E0
3.645521064E0,-1.816102624E0,-1.122564793E0,9.571416855E0
3.665791897E0,-1.683224320E0,-7.352920175E-1,9.633093834E0
3.686062731E0,-1.240998507E0,-2.632462382E-1,9.724248886E0
3.706333095E0,-5.223621801E-2,4.067780077E-1,9.798070908E0
3.726733408E0,1.711639762E0,1.147533178E0,9.587691307E0
3.746874502E0,2.968252182E0,1.541663170E0,9.218629837E0
3.767145022E0,2.024607420E0,1.604725361E0,9.460244179E0
3.787415595E0,1.708000898E0,1.833149195E0,9.481175423E0
3.807686116E0,1.788184285E0,2.127755165E0,9.404542923E0
3.827956637E0,1.669728637E0,2.344861746E0,9.374648094E0
3.848227106E0,1.544942379E0,2.569235325E0,9.337161064E0
3.868497522E0,1.323609710E0,2.806311846E0,9.302852631E0
3.888767991E0,1.085845232E0,3.060750723E0,9.253277779E0
3.909038460E0,8.739666939E-1,3.289810658E0,9.196940422E0
3.929308877E0,7.961043119E-1,3.452342033E0,9.144284248E0
3.949579345E0,8.046972752E-1,3.579660416E0,9.094442368E0
3.969849710E0,8.058940172E-1,3.673808813E0,9.056713104E0
3.990120179E0,8.021714687E-1,3.714432240E0,9.040459633E0
4.010390595E0,7.831408978E-1,3.708077431E0,9.044736862E0
4.030660960E0,7.333288193E-1,3.673621178E0,9.062952995E0
4.050931429E0,6.314105392E-1,3.635089159E0,9.086133957E0
4.071201793E0,5.047542453E-1,3.605426550E0,9.105850220E0
4.091472158E0,3.651635647E-1,3.591779947E0,9.117902756E0
4.111742627E0,1.729231924E-1,3.598553896E0,9.120904922E0
4.132013095E0,-5.254226923E-2,3.630253792E0,9.109823227E0
4.152283460E0,-2.962325215E-1,3.665659189E0,9.090961456E0
4.172683460E0,-5.530514717E-1,3.662424088E0,9.080263138E0
4.192824293E0,-6.873245835E-1,3.587875843E0,9.100831032E0
4.213094710E0,-6.772567034E-1,3.464609861E0,9.149218559E0
4.233365127E0,-4.877832234E-1,3.322079182E0,9.213915825E0
4.253635439E0,-2.433676422E-1,3.172681808E0,9.276057243E0
4.273905908E0,-3.442650661E-2,3.046758413E0,9.321290016E0
4.294176325E0,1.469302028E-1,2.960282087E0,9.348022461E0
4.314446741E0,4.191616774E-1,2.961798429E0,9.339295387E0
4.334717158E0,6.341670156E-1,2.990479946E0,9.318006516E0
4.354987575E0,7.050246000E-1,3.020138502E0,9.303338051E0
4.375257991E0,6.661410928E-1,3.073922157E0,9.288576126E0
4.395528408E0,6.125162840E-1,3.171264887E0,9.259496689E0
4.415798825E0,4.045200944E-1,3.366933107E0,9.201657295E0
4.436069241E0,3.178294003E-2,3.703445435E0,9.080411911E0
4.456339658E0,-2.404889166E-1,4.120964050E0,8.895515442E0
4.476610075E0,-3.769330680E-1,4.543368340E0,8.682518005E0
4.496880491E0,-4.598417580E-1,4.900603771E0,8.481923103E0
4.517280491E0,-5.107072592E-1,5.142222881E0,8.334692955E0
4.537421325E0,-4.942946434E-1,5.280175686E0,8.248987198E0
4.557691741E0,-4.254453778E-1,5.441580296E0,8.147305489E0
4.577962158E0,-5.360689759E-1,5.530703068E0,8.080491066E0
4.598232575E0,-5.765666962E-1,5.599461079E0,8.030192375E0
4.618502991E0,-6.575831771E-1,5.772164345E0,7.900638580E0
4.638773408E0,-8.328581452E-1,5.957936287E0,7.744657516E0
4.659043825E0,-1.019467831E0,6.067807198E0,7.636281967E0
4.679314241E0,-1.226472974E0,6.068494797E0,7.605230808E0
4.699584658E0,-1.397884011E0,5.970072746E0,7.653400898E0
4.719984658E0,-1.527515173E0,5.809624672E0,7.751474380E0
4.740125543E0,-1.626664639E0,5.613768578E0,7.874640465E0
4.760395960E0,-1.733111143E0,5.403576374E0,7.998003960E0
4.780666377E0,-1.847249985E0,5.200805664E0,8.106150627E0
4.800936741E0,-1.946397781E0,5.064201355E0,8.169198036E0
4.821336741E0,-2.013886929E0,5.024400234E0,8.177411079E0
4.841477627E0,-2.096070766E0,5.041182041E0,8.146370888E0
4.861748095E0,-2.256763220E0,5.060002327E0,8.091587067E0
4.882018512E0,-2.476834059E0,5.095782757E0,8.004291534E0
4.902288929E0,-2.680570602E0,5.136600018E0,7.912033081E0
4.922688929E0,-2.893845797E0,5.101681232E0,7.859318733E0
4.942829814E0,-3.072297096E0,4.949838161E0,7.888629436E0
4.963100231E0,-3.433039665E0,4.766870975E0,7.852488995E0
4.983370700E0,-3.737758160E0,4.598227501E0,7.813824177E0
5.003641116E0,-3.913560390E0,4.444280624E0,7.816828251E0
5.024041116E0,-3.986510754E0,4.266516209E0,7.878765583E0
5.044182002E0,-3.898051262E0,4.098028183E0,8.011351585E0
5.064452418E0,-3.661153316E0,3.980859280E0,8.180410385E0
5.084722835E0,-3.297510862E0,3.891861200E0,8.375574112E0
5.104993304E0,-2.918313026E0,3.785008907E0,8.563150406E0
5.125393304E0,-2.407981634E0,3.707622290E0,8.753602028E0
5.145534137E0,-2.113459826E0,3.659507513E0,8.849389076E0
5.165804606E0,-2.069170952E0,3.605284452E0,8.882051468E0
5.186075022E0,-2.033032894E0,3.537824631E0,8.917451859E0
5.206345491E0,-1.886514425E0,3.466936350E0,8.977293968E0
5.226615908E0,-1.765143275E0,3.385612249E0,9.032844543E0
5.246886377E0,-1.659860492E0,3.303972244E0,9.082897186E0
5.267156793E0,-1.552939057E0,3.247191668E0,9.122199059E0
5.287427210E0,-1.473508716E0,3.202264309E0,9.151210785E0
5.307697627E0,-1.404303908E0,3.099468231E0,9.197369576E0
5.327968095E0,-1.234514117E0,2.964396954E0,9.265996933E0
5.348238564E0,-9.359292984E-1,2.817925453E0,9.346321106E0
5.368508981E0,-5.229167342E-1,2.655471563E0,9.425785065E0
5.388779397E0,-6.138239056E-2,2.476394176E0,9.488630295E0
5.409049866E0,3.310773373E-1,2.308157206E0,9.525396347E0
5.429320283E0,6.146396995E-1,2.175347090E0,9.542560577E0
5.449590752E0,8.041073680E-1,2.102008581E0,9.544912338E0
5.469861168E0,9.234765172E-1,2.103935719E0,9.533679008E0
5.490131585E0,9.627814889E-1,2.150438070E0,9.519404411E0
5.510402054E0,9.333001375E-1,2.208667994E0,9.509002686E0
5.530672470E0,8.438345194E-1,2.267497301E0,9.503514290E0
5.550942887E0,7.576225400E-1,2.340415478E0,9.493094444E0
5.571213356E0,7.020192146E-1,2.422080517E0,9.476870537E0
5.591483772E0,6.629489660E-1,2.500284433E0,9.459359169E0
5.611754189E0,5.884712338E-1,2.570120811E0,9.445558548E0
5.632024606E0,4.532057047E-1,2.642876625E0,9.432930946E0
5.652295022E0,2.824305296E-1,2.721729279E0,9.417155266E0
5.672565491E0,8.873900026E-2,2.802812576E0,9.397167206E0
5.692835908E0,-1.137443781E-1,2.886804342E0,9.371436119E0
5.713106325E0,-4.023464024E-1,2.997712851E0,9.328569412E0
5.733376793E0,-6.752520800E-1,3.101212978E0,9.278841019E0
5.753776793E0,-8.748685718E-1,3.178950071E0,9.235760689E0
5.773917627E0,-1.020361185E0,3.259325266E0,9.192717552E0
5.794188043E0,-1.137989640E0,3.332985401E0,9.152408600E0
5.814458512E0,-1.219945669E0,3.378183126E0,9.125239372E0
5.834728929E0,-1.260219455E0,3.409884214E0,9.107959747E0
5.854999345E0,-1.291328907E0,3.427314043E0,9.097052574E0
5.875269762E0,-1.320779800E0,3.450493336E0,9.084053040E0
5.895540179E0,-1.354112983E0,3.478402853E0,9.068489075E0
5.915810595E0,-1.381823421E0,3.500737667E0,9.055705070E0
5.936081012E0,-1.394171476E0,3.511549473E0,9.049624443E0
5.956351429E0,-1.377498984E0,3.511968851E0,9.052014351E0
5.976621897E0,-1.332293868E0,3.509303093E0,9.059810638E0
5.996892314E0,-1.267835855E0,3.506634712E0,9.070087433E0
6.017162731E0,-1.222799420E0,3.495122194E0,9.080708504E0
6.037433147E0,-1.179868221E0,3.485184193E0,9.090203285E0
6.057703512E0,-1.169208288E0,3.483635902E0,9.092174530E0
6.077973981E0,-1.177799106E0,3.502356529E0,9.083868980E0
6.098244345E0,-1.255450845E0,3.507865667E0,9.071334839E0
6.118514762E0,-1.384392500E0,3.517505646E0,9.048812866E0
6.138785179E0,-1.467118025E0,3.512680531E0,9.037644386E0
6.159055595E0,-1.482741117E0,3.485089302E0,9.045773506E0
6.179326012E0,-1.510461569E0,3.420157909E0,9.065948486E0
6.199596429E0,-1.554236174E0,3.333920240E0,9.090639114E0
6.219996429E0,-1.584073782E0,3.265100241E0,9.110445976E0
6.240137210E0,-1.578302860E0,3.236367941E0,9.121692657E0
6.260407575E0,-1.540194631E0,3.249384880E0,9.123578072E0
6.280678043E0,-1.516783834E0,3.283336639E0,9.115342140E0
6.300948460E0,-1.477117896E0,3.329620123E0,9.105060577E0
6.321348460E0,-1.445358276E0,3.363502026E0,9.097702980E0
6.341489241E0,-1.438089371E0,3.365279675E0,9.098196030E0
6.361759658E0,-1.458858609E0,3.350896597E0,9.100198746E0
6.382030022E0,-1.476153255E0,3.339022636E0,9.101773262E0
6.402300439E0,-1.467355609E0,3.343547583E0,9.101534843E0
6.422700439E0,-1.438900709E0,3.367062092E0,9.097408295E0
6.442841220E0,-1.438218236E0,3.393161774E0,9.087814331E0
6.463111637E0,-1.501294732E0,3.396030188E0,9.076535225E0
6.483382002E0,-1.565632105E0,3.398992300E0,9.064548492E0
6.503652418E0,-1.580460429E0,3.446855068E0,9.043878555E0
6.524052418E0,-1.577739000E0,3.542414188E0,9.007353783E0
6.544193200E0,-1.607955694E0,3.635489941E0,8.964824677E0
6.564463564E0,-1.707102418E0,3.691793680E0,8.923387527E0
6.584733981E0,-1.823983908E0,3.742437363E0,8.879055023E0
6.605004345E0,-1.895748854E0,3.825042248E0,8.828679085E0
6.625274710E0,-1.942831755E0,3.933100224E0,8.770775795E0
6.645545127E0,-2.055889130E0,4.021040916E0,8.704880714E0
6.665815491E0,-2.252753973E0,4.066234589E0,8.634883881E0
6.686085856E0,-2.502194166E0,4.087649345E0,8.555730820E0
6.706356272E0,-2.816922665E0,4.081281662E0,8.460406303E0
6.726626637E0,-3.179195881E0,3.986063957E0,8.377016068E0
6.746897002E0,-3.357954979E0,3.806955099E0,8.390566826E0
6.767167366E0,-3.324705124E0,3.716651440E0,8.444123268E0
6.787437731E0,-3.304609776E0,3.687906981E0,8.464590073E0
6.807708095E0,-3.357803822E0,3.616595984E0,8.474418640E0
6.827978512E0,-3.521400690E0,3.446354389E0,8.478960037E0
6.848248877E0,-3.597063780E0,3.314075470E0,8.499907494E0
6.868519241E0,-3.581390619E0,3.223630428E0,8.541208267E0
6.888789554E0,-3.559762716E0,3.106699944E0,8.593420982E0
6.909059918E0,-3.493491411E0,3.011254549E0,8.654377937E0
6.929330283E0,-3.225046873E0,2.943680286E0,8.780900002E0
6.949600153E0,-2.946958303E0,2.907284260E0,8.890079498E0
6.969870518E0,-2.705574989E0,2.871083498E0,8.978147507E0
6.990140883E0,-2.459599733E0,2.860502005E0,9.051977158E0
7.010411247E0,-2.357165575E0,2.849141836E0,9.082761765E0
7.030681612E0,-2.349080086E0,2.839708567E0,9.087807655E0
7.050951924E0,-2.287468910E0,2.846617222E0,9.101353645E0
7.071222289E0,-2.214667320E0,2.858293295E0,9.115689278E0
7.091492653E0,-2.106792927E0,2.889912605E0,9.131276131E0
7.111762966E0,-1.942719817E0,2.893020630E0,9.166605949E0
7.132033330E0,-1.687344790E0,2.821468115E0,9.239187241E0
7.152303695E0,-1.219801188E0,2.698958158E0,9.348694801E0
7.172574008E0,-5.290006995E-1,2.424150944E0,9.487572670E0
7.192844372E0,2.252422422E-1,2.032259941E0,9.591118813E0
7.213114737E0,9.697329402E-1,1.571396708E0,9.631236076E0
7.233385049E0,1.648090124E0,1.027680039E0,9.612390518E0
7.253655414E0,2.129745960E0,3.980173767E-1,9.564317703E0
7.273925726E0,2.376130581E0,-2.262102813E-1,9.511741638E0
7.294196091E0,2.501864672E0,-6.190901995E-1,9.461913109E0
7.314466403E0,2.608459234E0,-6.911873817E-1,9.428074837E0
7.334736716E0,2.628229618E0,-5.658659339E-1,9.430938721E0
7.355007080E0,2.643596888E0,-3.467621207E-1,9.437241554E0
7.375277393E0,2.652786970E0,-1.201975197E-1,9.440267563E0
7.395547705E0,2.630481720E0,9.165164083E-2,9.446827888E0
7.415818018E0,2.584885836E0,3.297915161E-1,9.454098701E0
7.436088383E0,2.481155396E0,6.184532642E-1,9.467405319E0
7.456358695E0,2.344736338E0,9.267981052E-1,9.477005959E0
7.476629008E0,2.218316317E0,1.179011703E0,9.479418755E0
7.496899372E0,2.163332701E0,1.326345801E0,9.472655296E0
7.517169685E0,2.166493177E0,1.359112740E0,9.467286110E0
7.537439997E0,2.183641195E0,1.296012521E0,9.472193718E0
7.557710310E0,2.200653315E0,1.211532950E0,9.479435921E0
7.577980622E0,2.218979836E0,1.167089939E0,9.480739594E0
7.598250987E0,2.241729021E0,1.143317223E0,9.478283882E0
7.618521299E0,2.271598339E0,1.106285453E0,9.475566864E0
7.638791612E0,2.295493841E0,1.074216962E0,9.473497391E0
7.659061924E0,2.324586153E0,1.038593531E0,9.470376015E0
7.679332185E0,2.356120348E0,1.003481627E0,9.466366768E0
7.699602549E0,2.378479004E0,9.874688983E-1,9.462458611E0
7.720002549E0,2.388592482E0,9.994096160E-1,9.458657265E0
7.740143174E0,2.395595074E0,1.026078105E0,9.454029083E0
7.760413487E0,2.414615631E0,1.061046243E0,9.445326805E0
7.780683851E0,2.596724510E0,1.035336971E0,9.399760246E0
7.800954164E0,2.745327234E0,1.058194757E0,9.354881287E0
7.821354164E0,2.805361032E0,1.170755982E0,9.323608398E0
7.841494789E0,2.693118095E0,1.395681858E0,9.325747490E0
7.861765101E0,2.452348471E0,1.717635751E0,9.338420868E0
7.882035414E0,2.248795986E0,2.050159454E0,9.322561264E0
7.902305726E0,2.006468296E0,2.282550573E0,9.323863983E0
7.922705726E0,1.873240590E0,2.392195702E0,9.324095726E0
7.942846351E0,1.851105452E0,2.460788965E0,9.310656548E0
7.963116664E0,1.904088855E0,2.516496181E0,9.285045624E0
7.983386976E0,1.998025179E0,2.539244413E0,9.259078026E0
8.003794945E0,2.054760933E0,2.544015646E0,9.245340347E0
8.024076195E0,2.057411671E0,2.564120531E0,9.239194870E0
8.044190987E0,1.968627930E0,2.611115217E0,9.245376587E0
8.064462705E0,1.722754240E0,2.647232294E0,9.284108162E0
8.084734112E0,1.346327901E0,2.654717922E0,9.343996048E0
8.105004372E0,1.007029295E0,2.639176369E0,9.391007423E0
8.125405310E0,8.459607959E-1,2.573854685E0,9.424966812E0
8.145546612E0,8.522235155E-1,2.452685595E0,9.456660271E0
8.165817445E0,8.987730145E-1,2.286301851E0,9.493967056E0
8.186088174E0,9.280072451E-1,2.081319809E0,9.538202286E0
8.206358487E0,9.876389503E-1,1.944734812E0,9.561013222E0
8.226758903E0,9.730234146E-1,1.883079290E0,9.574843407E0
8.246899841E0,8.271834850E-1,1.867488742E0,9.591591835E0
8.267170414E0,6.061792970E-1,1.887385249E0,9.604202271E0
8.287440830E0,4.560634792E-1,1.912592411E0,9.607517242E0
8.307711299E0,3.955234587E-1,1.923940659E0,9.607933998E0
8.327981716E0,4.075912237E-1,1.962668061E0,9.599594116E0
8.348252133E0,5.483296514E-1,1.993542314E0,9.586214066E0
8.368522497E0,7.551018000E-1,2.014858246E0,9.567682266E0
8.388792862E0,1.044667721E0,2.013446093E0,9.540707588E0
8.409063174E0,1.329138517E0,2.047195911E0,9.498039246E0
8.429333539E0,1.606277704E0,2.076619148E0,9.448698997E0
8.449603851E0,1.830717683E0,2.050668001E0,9.413481712E0
8.469874216E0,2.011775970E0,2.034366131E0,9.380005836E0
8.490144528E0,2.225967646E0,2.006383896E0,9.337552071E0
8.510414841E0,2.423380136E0,1.963545680E0,9.297425270E0
8.530685153E0,2.555609226E0,1.933797121E0,9.268207550E0
8.550955466E0,2.560168266E0,1.912104607E0,9.271450043E0
8.571225726E0,2.440761566E0,1.894340396E0,9.307230949E0
8.591496039E0,2.254029989E0,1.922449112E0,9.348471642E0
8.611766351E0,2.119378328E0,1.974586368E0,9.369078636E0
8.632036664E0,2.028513908E0,2.063209057E0,9.370094299E0
8.652306976E0,2.010030031E0,2.152981520E0,9.353866577E0
8.672577289E0,2.066206932E0,2.230838299E0,9.323332787E0
8.692847549E0,2.068122625E0,2.313981295E0,9.302620888E0
8.713117862E0,1.995758653E0,2.397167683E0,9.297361374E0
8.733388122E0,1.797900915E0,2.480810642E0,9.315768242E0
8.753658435E0,1.536196828E0,2.565660000E0,9.339587212E0
8.773928747E0,1.259099126E0,2.650218487E0,9.357423782E0
8.794199008E0,1.051436901E0,2.725611687E0,9.361404419E0
8.814469320E0,1.066754937E0,2.737359047E0,9.356243134E0
8.834739580E0,1.278365970E0,2.680185318E0,9.346271515E0
8.855009841E0,1.562802792E0,2.596670151E0,9.326593399E0
8.875280153E0,1.774099946E0,2.551363230E0,9.301262856E0
8.895550466E0,1.796646714E0,2.608729362E0,9.281001091E0
8.915820726E0,1.793224573E0,2.710784912E0,9.252371788E0
8.936090987E0,1.879832506E0,2.796616793E0,9.209536552E0
8.956361299E0,2.010159969E0,2.882721901E0,9.155302048E0
8.976631560E0,2.137901068E0,2.988319397E0,9.092288971E0
8.996901820E0,2.254100084E0,3.113817215E0,9.021838188E0
9.017301820E0,2.326168537E0,3.259832621E0,8.951693535E0
9.037442393E0,2.349501610E0,3.427782774E0,8.882597923E0
9.057712653E0,2.362039566E0,3.627140045E0,8.799716949E0
9.077982914E0,2.392906666E0,3.850593328E0,8.695821762E0
9.098253226E0,2.448624134E0,4.073508263E0,8.577945709E0
9.118523487E0,2.494181633E0,4.293786526E0,8.456526756E0
9.138793747E0,2.504235744E0,4.524098396E0,8.332571030E0
9.159064008E0,2.437847614E0,4.770068169E0,8.214240074E0
9.179334268E0,2.277997494E0,5.024002552E0,8.108052254E0
9.199604528E0,2.014111757E0,5.271646023E0,8.020192146E0
9.220004528E0,1.653345227E0,5.512948036E0,7.940041065E0
9.240145049E0,1.258304358E0,5.734599590E0,7.855024815E0
9.260415310E0,9.075112939E-1,5.928023338E0,7.759211063E0
9.280685570E0,6.079091430E-1,6.102197170E0,7.652714252E0
9.300955883E0,3.531145751E-1,6.277975082E0,7.525471210E0
9.321355883E0,1.563752145E-1,6.440273762E0,7.393835545E0
9.341496351E0,-1.935850456E-2,6.596088886E0,7.256833553E0
9.361766612E0,-2.035731673E-1,6.741398811E0,7.119163513E0
9.382036872E0,-3.728807271E-1,6.868451118E0,6.989688396E0
9.402307133E0,-5.487825274E-1,6.982476234E0,6.863982201E0
9.422707133E0,-7.606064677E-1,7.079278469E0,6.743565559E0
9.442847653E0,-1.006204247E0,7.144707203E0,6.641617775E0
9.463117862E0,-1.280950189E0,7.184559345E0,6.550700188E0
9.483388070E0,-1.596602321E0,7.195108891E0,6.469285488E0
9.503658330E0,-1.960891008E0,7.175277710E0,6.390671730E0
9.524058330E0,-2.323441744E0,7.137348652E0,6.311121464E0
9.544198799E0,-2.650307894E0,7.076522350E0,6.250527382E0
9.564469060E0,-2.965354204E0,7.000864029E0,6.193945408E0
9.584739320E0,-3.224180937E0,6.927635193E0,6.146780968E0
9.605009528E0,-3.425937414E0,6.856412411E0,6.117429256E0
9.625279789E0,-3.589335918E0,6.782152653E0,6.106509686E0
9.645549997E0,-3.726147890E0,6.711524487E0,6.102594376E0
9.665820258E0,-3.850246429E0,6.644913673E0,6.098452091E0
9.686090466E0,-3.982999325E0,6.569235325E0,6.095182419E0
9.706360726E0,-4.109347343E0,6.483146667E0,6.103479862E0
9.726630935E0,-4.222697735E0,6.396672726E0,6.117335320E0
9.746901143E0,-4.298195362E0,6.306811333E0,6.157925129E0
9.767171403E0,-4.336585522E0,6.207195759E0,6.231783390E0
9.787441612E0,-4.370624065E0,6.101632118E0,6.311745167E0
9.807711872E0,-4.409147263E0,5.996345520E0,6.385424614E0
9.827982080E0,-4.476181507E0,5.878971100E0,6.447626591E0
9.848252289E0,-4.619217396E0,5.741276264E0,6.470777988E0
9.868522497E0,-4.769143105E0,5.603687763E0,6.482618809E0
9.888792705E0,-4.920001030E0,5.453039646E0,6.498333454E0
9.909062914E0,-5.018274307E0,5.293263912E0,6.555049419E0
9.929333122E0,-5.014375210E0,5.122788429E0,6.692045212E0
9.949603330E0,-4.962604046E0,4.941226959E0,6.864927292E0
9.969873539E0,-4.902620792E0,4.767995358E0,7.028578281E0
9.990143747E0,-4.774277687E0,4.608304024E0,7.220816612E0
1.001041396E1,-4.576354504E0,4.452441216E0,7.443327904E0
1.003068416E1,-4.363410473E0,4.314499378E0,7.649583817E0
1.005095437E1,-4.229043961E0,4.174213886E0,7.801379204E0
1.007122453E1,-4.236949921E0,4.053950787E0,7.860288143E0
1.009149474E1,-4.356902122E0,4.000625610E0,7.821942329E0
1.011176495E1,-4.444054604E0,3.976656675E0,7.785048485E0
1.013203510E1,-4.388681889E0,3.940296412E0,7.834788799E0
1.015230531E1,-4.278793812E0,3.916701555E0,7.907069206E0
1.017257552E1,-4.165410042E0,3.952064037E0,7.949901104E0
1.019284573E1,-4.068720818E0,4.002590656E0,7.974657059E0
1.021311588E1,-3.962110519E0,4.050880909E0,8.003901482E0
1.023338609E1,-3.852911234E0,4.086404800E0,8.039076805E0
1.025378609E1,-3.782968998E0,4.104638100E0,8.062969208E0
1.027392646E1,-3.748755217E0,4.113688469E0,8.074328423E0
1.029419661E1,-3.682492971E0,4.119000435E0,8.102066040E0
1.031446682E1,-3.574161530E0,4.133803844E0,8.142937660E0
1.033473692E1,-3.458411455E0,4.168923855E0,8.174953461E0
1.035500713E1,-3.350837231E0,4.202568531E0,8.202482224E0
1.037527734E1,-3.264620066E0,4.209765911E0,8.233499527E0
1.039554750E1,-3.201382160E0,4.193485260E0,8.266572952E0
1.041581765E1,-3.148786545E0,4.160315990E0,8.303450584E0
1.043608781E1,-3.094868183E0,4.112000942E0,8.347671509E0
1.045635802E1,-3.045532227E0,4.042087078E0,8.399800301E0
1.047662817E1,-3.005140066E0,3.947984695E0,8.458896637E0
1.049689833E1,-2.979831934E0,3.837293863E0,8.518576622E0
1.051716849E1,-2.958357811E0,3.725877762E0,8.575333595E0
1.053743864E1,-2.914051294E0,3.625238180E0,8.633442879E0
1.055770880E1,-2.844919205E0,3.534887075E0,8.693756104E0
1.057797896E1,-2.768304586E0,3.446786165E0,8.753658295E0
1.059824911E1,-2.706697464E0,3.351560354E0,8.809722900E0
1.061851927E1,-2.660323620E0,3.244520664E0,8.863754272E0
1.063878942E1,-2.618897676E0,3.133506775E0,8.915879250E0
1.065905958E1,-2.580001593E0,3.025711775E0,8.964321136E0
1.067932968E1,-2.537404776E0,2.921646595E0,9.010879517E0
1.069959979E1,-2.494352341E0,2.812842369E0,9.057401657E0
1.071999979E1,-2.459349871E0,2.693561077E0,9.103115082E0
1.074014010E1,-2.437524319E0,2.565976858E0,9.145744324E0
1.076041021E1,-2.423502684E0,2.433644772E0,9.185554504E0
1.078068036E1,-2.408513546E0,2.304601192E0,9.222703934E0
1.080095052E1,-2.392479420E0,2.178085566E0,9.257557869E0
1.082135052E1,-2.390957117E0,2.054862976E0,9.286078453E0
1.084149078E1,-2.404232502E0,1.940166116E0,9.307298660E0
1.086176094E1,-2.427545309E0,1.825380445E0,9.324451447E0
1.088203104E1,-2.457202673E0,1.709272385E0,9.338679314E0
1.090230114E1,-2.478387833E0,1.597531676E0,9.352853775E0
1.092270114E1,-2.483239889E0,1.486775875E0,9.369813919E0
1.094284140E1,-2.446006060E0,1.369378567E0,9.397459984E0
1.096311156E1,-2.381745577E0,1.232075334E0,9.432903290E0
1.098338166E1,-2.397850513E0,1.143856645E0,9.439930916E0
1.100365177E1,-2.486074209E0,1.106868148E0,9.421500206E0
1.102405177E1,-2.547652960E0,1.071619153E0,9.409116745E0
1.104419203E1,-2.531024218E0,1.047417283E0,9.416326523E0
1.106446213E1,-2.490507364E0,1.037876725E0,9.428179741E0
1.108473224E1,-2.486929893E0,1.032958269E0,9.429663658E0
1.110500234E1,-2.508314133E0,1.037016153E0,9.423552513E0
1.112540234E1,-2.510184765E0,1.046847701E0,9.421967506E0
1.114554255E1,-2.478364229E0,1.049909472E0,9.430047035E0
1.116581265E1,-2.433005095E0,1.038376451E0,9.443127632E0
1.118608276E1,-2.389860392E0,1.014539480E0,9.456726074E0
1.120635286E1,-2.348345757E0,9.833396673E-1,9.470412254E0
1.122662297E1,-2.306286097E0,9.488488436E-1,9.484255791E0
1.124689307E1,-2.266536713E0,9.149685502E-1,9.497159004E0
1.126716317E1,-2.230424643E0,8.850811720E-1,9.508533478E0
1.128743328E1,-2.204469919E0,8.615610600E-1,9.516743660E0
1.130770333E1,-2.188142538E0,8.447445631E-1,9.522017479E0
1.132797344E1,-2.172203541E0,8.346780539E-1,9.526555061E0
1.134824354E1,-2.152242422E0,8.310159445E-1,9.531403542E0
1.136851364E1,-2.130977631E0,8.299314976E-1,9.536274910E0
1.138878370E1,-2.110222340E0,8.284391761E-1,9.541019440E0
1.140905380E1,-2.089395285E0,8.248360753E-1,9.545912743E0
1.142932385E1,-2.069643497E0,8.177098632E-1,9.550827980E0
1.144959396E1,-2.052347183E0,8.069773316E-1,9.555472374E0
1.146986401E1,-2.036508799E0,7.926564813E-1,9.560058594E0
1.149013411E1,-2.020042658E0,7.750680447E-1,9.564992905E0
1.151040416E1,-2.002360582E0,7.566534281E-1,9.570183754E0
1.153067427E1,-1.983772635E0,7.405527830E-1,9.575312614E0
1.155094432E1,-1.962048888E0,7.148155570E-1,9.581742287E0
1.157121442E1,-1.938627005E0,6.881036758E-1,9.588462830E0
1.159148448E1,-1.914782882E0,6.664226055E-1,9.594782829E0
1.161175453E1,-1.895504355E0,6.526445150E-1,9.599557877E0
1.163202463E1,-1.883226156E0,6.447749734E-1,9.602505684E0
1.165229469E1,-1.873215914E0,6.415746212E-1,9.604677200E0
1.167256474E1,-1.863217235E0,6.423350573E-1,9.606572151E0
1.169283479E1,-1.855250835E0,6.438691020E-1,9.608010292E0
1.171310484E1,-1.853606820E0,6.439071298E-1,9.608325958E0
1.173337489E1,-1.860669136E0,6.467607021E-1,9.606768608E0
1.175364500E1,-1.873083711E0,6.499040127E-1,9.604143143E0
1.177391505E1,-1.885838509E0,6.501957774E-1,9.601628304E0
1.179418510E1,-1.896557093E0,6.463958621E-1,9.599771500E0
1.181445515E1,-1.904469132E0,6.419675946E-1,9.598504066E0
1.183472515E1,-1.911037326E0,6.365906000E-1,9.597556114E0
1.185499521E1,-1.915607095E0,6.326727867E-1,9.596904755E0
1.187526531E1,-1.919119954E0,6.308546066E-1,9.596321106E0
1.189553536E1,-1.922500372E0,6.312968135E-1,9.595615387E0
1.191580541E1,-1.924830317E0,6.351554394E-1,9.594894409E0
1.193607547E1,-1.926779389E0,6.406036019E-1,9.594140053E0
1.195634552E1,-1.927054286E0,6.477396488E-1,9.593605995E0
1.197661557E1,-1.926662445E0,6.548490524E-1,9.593202591E0
1.199688557E1,-1.928619385E0,6.600078940E-1,9.592455864E0
1.201715557E1,-1.934012175E0,6.646004319E-1,9.591053009E0
1.203742562E1,-1.939556479E0,6.674162149E-1,9.589737892E0
1.205769567E1,-1.942925334E0,6.680093408E-1,9.589014053E0
1.207796573E1,-1.948009491E0,6.637221575E-1,9.588280678E0
1.209823573E1,-1.956551552E0,6.524960399E-1,9.587311745E0
1.211850578E1,-1.968627691E0,6.361587048E-1,9.585937500E0
1.213877583E1,-1.982495904E0,6.160885692E-1,9.584389687E0
1.215904588E1,-1.997101068E0,5.954998136E-1,9.582658768E0
1.217931588E1,-2.008741140E0,5.765880346E-1,9.581382751E0
1.219958594E1,-2.018468142E0,5.600539446E-1,9.580318451E0
1.221998594E1,-2.028498411E0,5.470304489E-1,9.578952789E0
1.224012599E1,-2.035663128E0,5.368057489E-1,9.578011513E0
1.226039604E1,-2.038367510E0,5.335304141E-1,9.577619553E0
1.228066604E1,-2.034723282E0,5.366623998E-1,9.578219414E0
1.230093609E1,-2.030600309E0,5.420718193E-1,9.578789711E0
1.232133609E1,-2.027612209E0,5.454463363E-1,9.579231262E0
1.234147614E1,-2.026124954E0,5.479059219E-1,9.579405785E0
1.236174614E1,-2.027143002E0,5.493484139E-1,9.579107285E0
1.238201620E1,-2.031589508E0,5.483707190E-1,9.578221321E0
1.240228620E1,-2.041305780E0,5.464646220E-1,9.576264381E0
1.242268620E1,-2.050751925E0,5.473694801E-1,9.574193954E0
1.244282625E1,-2.056513309E0,5.526552200E-1,9.572653770E0
1.246309630E1,-2.056050301E0,5.630092025E-1,9.572151184E0
1.248336630E1,-2.052583218E0,5.740826726E-1,9.572237015E0
1.250377427E1,-2.046895742E0,5.866148472E-1,9.572694778E0
1.252405500E1,-2.039926052E0,5.970520377E-1,9.573536873E0
1.254416948E1,-2.027701139E0,6.072695255E-1,9.575491905E0
1.256444088E1,-2.014942169E0,6.159009933E-1,9.577632904E0
1.258471203E1,-2.006327629E0,6.182487607E-1,9.579290390E0
1.260498291E1,-1.994891047E0,6.241171360E-1,9.581297874E0
1.262525359E1,-1.983870506E0,6.338587403E-1,9.582946777E0
1.264552411E1,-1.975837827E0,6.438925266E-1,9.583936691E0
1.266579458E1,-1.970456719E0,6.494991183E-1,9.584667206E0
1.268606494E1,-1.963322282E0,6.542183161E-1,9.585810661E0
1.270633500E1,-1.952114820E0,6.617100835E-1,9.587584496E0
1.272673531E1,-1.938832998E0,6.689450145E-1,9.589776993E0
1.274687557E1,-1.929457903E0,6.726690531E-1,9.591407776E0
1.276714578E1,-1.924145460E0,6.751411557E-1,9.592300415E0
1.278741588E1,-1.920514107E0,6.765618920E-1,9.592928886E0
1.280768599E1,-1.916667104E0,6.778131723E-1,9.593608856E0
1.282795609E1,-1.915126562E0,6.776548624E-1,9.593928337E0
1.284822620E1,-1.913190961E0,6.766569614E-1,9.594384193E0
1.286849620E1,-1.910382748E0,6.755661964E-1,9.595021248E0
1.288876625E1,-1.906819582E0,6.748970151E-1,9.595777512E0
1.290903625E1,-1.903544068E0,6.740276814E-1,9.596487999E0
1.292930625E1,-1.898355842E0,6.763064265E-1,9.597355843E0
1.294957630E1,-1.892339587E0,6.839073300E-1,9.598005295E0
1.296984630E1,-1.886573434E0,6.936700940E-1,9.598440170E0
1.299011635E1,-1.881778359E0,7.030144334E-1,9.598701477E0
1.301038630E1,-1.878400087E0,7.109597325E-1,9.598778725E0
1.303065630E1,-1.873308778E0,7.191700339E-1,9.599161148E0
1.305092630E1,-1.868345976E0,7.289499640E-1,9.599390030E0
1.307119630E1,-1.866860747E0,7.378349304E-1,9.599000931E0
1.309146625E1,-1.870035887E0,7.447528243E-1,9.597847939E0
1.311173630E1,-1.874622345E0,7.504872084E-1,9.596507072E0
1.313200630E1,-1.878832340E0,7.563811541E-1,9.595220566E0
1.315227625E1,-1.884238362E0,7.640171647E-1,9.593555450E0
1.317254625E1,-1.891026735E0,7.705192566E-1,9.591700554E0
1.319281620E1,-1.896545053E0,7.759808302E-1,9.590168953E0
1.321308620E1,-1.900159597E0,7.817378044E-1,9.588986397E0
1.323335630E1,-1.903301835E0,7.831397653E-1,9.588249207E0
1.325362614E1,-1.906688333E0,7.815324068E-1,9.587707520E0
1.327389609E1,-1.909006834E0,7.792815566E-1,9.587429047E0
1.329416609E1,-1.910220742E0,7.767230868E-1,9.587395668E0
1.331443604E1,-1.911844373E0,7.711188197E-1,9.587524414E0
1.333470604E1,-1.914445758E0,7.641404867E-1,9.587563515E0
1.335497599E1,-1.916736245E0,7.569309473E-1,9.587677002E0
1.337524599E1,-1.918186665E0,7.526500821E-1,9.587724686E0
1.339551594E1,-1.919464111E0,7.483613491E-1,9.587804794E0
1.341578594E1,-1.918396831E0,7.438253164E-1,9.588371277E0
1.343605583E1,-1.917696714E0,7.374206185E-1,9.589006424E0
1.345632583E1,-1.916008830E0,7.266922593E-1,9.590162277E0
1.347659578E1,-1.910152912E0,7.106833458E-1,9.592530251E0
1.349686578E1,-1.898876429E0,6.940038800E-1,9.595989227E0
1.351726578E1,-1.885917664E0,6.747533083E-1,9.599917412E0
1.353740567E1,-1.878480792E0,6.511533260E-1,9.603005409E0
1.355767567E1,-1.876011372E0,6.244533062E-1,9.605259895E0
1.357794562E1,-1.875807047E0,5.994031429E-1,9.606895447E0
1.359821557E1,-1.878060699E0,5.810685158E-1,9.607583046E0
1.361848552E1,-1.886743784E0,5.699318051E-1,9.606548309E0
1.363875547E1,-1.901123285E0,5.648657084E-1,9.604011536E0
1.365902541E1,-1.915026903E0,5.631341338E-1,9.601350784E0
1.367929541E1,-1.924228668E0,5.616588593E-1,9.599597931E0
1.369956536E1,-1.928428531E0,5.589386821E-1,9.598913193E0
1.371996536E1,-1.930290103E0,5.568187237E-1,9.598662376E0
1.374010526E1,-1.930567622E0,5.557329059E-1,9.598669052E0
1.376037520E1,-1.929387331E0,5.515384078E-1,9.599148750E0
1.378064515E1,-1.928505421E0,5.438788533E-1,9.599762917E0
1.380091510E1,-1.927477121E0,5.350429416E-1,9.600465775E0
1.382131510E1,-1.927831173E0,5.281755924E-1,9.600774765E0
1.384145500E1,-1.931079268E0,5.220041275E-1,9.600460052E0
1.386172494E1,-1.935708761E0,5.183143616E-1,9.599727631E0
1.388199489E1,-1.940613270E0,5.180935264E-1,9.598749161E0
1.390226484E1,-1.946481466E0,5.199649334E-1,9.597460747E0
1.392266484E1,-1.953581810E0,5.234321952E-1,9.595828056E0
1.394280474E1,-1.960335612E0,5.272158980E-1,9.594243050E0
1.396307468E1,-1.966903090E0,5.327444077E-1,9.592594147E0
1.398334463E1,-1.973758698E0,5.379183292E-1,9.590896606E0
1.400361458E1,-1.982814193E0,5.444101095E-1,9.588663101E0
1.402401453E1,-1.993431926E0,5.499023199E-1,9.586148262E0
1.404415437E1,-2.004025221E0,5.545322895E-1,9.583671570E0
1.406442432E1,-2.014327049E0,5.576171875E-1,9.581332207E0
1.408469427E1,-2.022295237E0,5.596774220E-1,9.579534531E0
1.410496416E1,-2.028723001E0,5.607714653E-1,9.578110695E0
1.412536416E1,-2.031035662E0,5.606532693E-1,9.577628136E0
1.414550406E1,-2.028956413E0,5.606090426E-1,9.578071594E0
1.416577396E1,-2.025064707E0,5.609702468E-1,9.578872681E0
1.418604390E1,-2.024596453E0,5.611345172E-1,9.578963280E0
1.420631380E1,-2.027320385E0,5.618304610E-1,9.578345299E0
1.422658375E1,-2.030942440E0,5.630406141E-1,9.577507019E0
1.424685370E1,-2.035918713E0,5.643245578E-1,9.576375008E0
1.426712359E1,-2.044590235E0,5.639576316E-1,9.574548721E0
1.428739354E1,-2.051211596E0,5.657288432E-1,9.573027611E0
1.430766344E1,-2.053835392E0,5.693546534E-1,9.572251320E0
1.432793333E1,-2.054379940E0,5.731830001E-1,9.571906090E0
1.434820328E1,-2.053124666E0,5.763418078E-1,9.571985245E0
1.436847317E1,-2.051208735E0,5.771390796E-1,9.572347641E0
1.438874312E1,-2.049458981E0,5.759747028E-1,9.572793007E0
1.440901302E1,-2.048162699E0,5.758268237E-1,9.573079109E0
1.442928291E1,-2.046773434E0,5.793263316E-1,9.573165894E0
1.444955281E1,-2.047151327E0,5.824781656E-1,9.572893143E0
1.446982276E1,-2.047255754E0,5.843433142E-1,9.572756767E0
1.449009265E1,-2.044768810E0,5.867796540E-1,9.573139191E0
1.451036255E1,-2.040728569E0,5.892596245E-1,9.573848724E0
1.453063244E1,-2.037724495E0,5.905235410E-1,9.574411392E0
1.455090239E1,-2.033150434E0,5.941926241E-1,9.575156212E0
1.457117229E1,-2.028707266E0,5.989983678E-1,9.575799942E0
1.459144219E1,-2.020625830E0,6.047546864E-1,9.577146530E0
1.461171208E1,-2.014813900E0,6.105147004E-1,9.578004837E0
1.463198198E1,-2.010179281E0,6.153761148E-1,9.578668594E0
1.465225187E1,-2.006182432E0,6.173308492E-1,9.579380035E0
1.467252177E1,-2.000258207E0,6.181523204E-1,9.580565453E0
1.469279166E1,-1.991015792E0,6.180398464E-1,9.582498550E0
1.471306156E1,-1.982579112E0,6.160272956E-1,9.584376335E0
1.473333146E1,-1.974939108E0,6.083549857E-1,9.586444855E0
1.475373146E1,-1.966330528E0,5.945135355E-1,9.589081764E0
1.477387125E1,-1.956204176E0,5.783746839E-1,9.592139244E0
1.479414114E1,-1.942024469E0,5.520197749E-1,9.596571922E0
1.481441099E1,-1.927476883E0,4.956260622E-1,9.602581024E0
1.483468088E1,-1.936685205E0,4.054770768E-1,9.604957581E0
1.485495078E1,-1.984974146E0,3.355727792E-1,9.597794533E0
1.487522062E1,-2.031197309E0,3.048476279E-1,9.589143753E0
1.489549052E1,-2.065382242E0,2.984870076E-1,9.582039833E0
1.491576041E1,-2.081327200E0,3.141726851E-1,9.578086853E0
1.493603031E1,-2.085382223E0,3.481452763E-1,9.576030731E0
1.495630015E1,-2.087688923E0,3.929063678E-1,9.573796272E0
1.497657005E1,-2.091318130E0,4.397545457E-1,9.570966721E0
1.499683995E1,-2.098898888E0,4.704692662E-1,9.567845345E0
1.501710979E1,-2.119562387E0,4.868347049E-1,9.562470436E0
1.503737969E1,-2.145599127E0,4.952386618E-1,9.556229591E0
1.505764953E1,-2.169459105E0,4.973945618E-1,9.550729752E0
1.507791942E1,-2.187974930E0,4.972626567E-1,9.546511650E0
1.509818927E1,-2.200986624E0,4.945316315E-1,9.543661118E0
1.511845916E1,-2.208667994E0,4.912154973E-1,9.542057991E0
1.513872901E1,-2.210650682E0,4.910238087E-1,9.541608810E0
1.515899885E1,-2.208220720E0,4.923072755E-1,9.542105675E0
1.517926864E1,-2.206311941E0,4.960414469E-1,9.542354584E0
1.519953859E1,-2.206681490E0,5.020193458E-1,9.541955948E0
1.521993859E1,-2.206424713E0,5.098341107E-1,9.541600227E0
1.524007828E1,-2.204406261E0,5.184336901E-1,9.541604042E0
1.526034812E1,-2.199256182E0,5.268191099E-1,9.542332649E0
1.528061797E1,-2.191937685E0,5.328183770E-1,9.543684006E0
1.530088786E1,-2.185783625E0,5.356515050E-1,9.544937134E0
1.532128786E1,-2.180938482E0,5.359693766E-1,9.546027184E0
1.534142755E1,-2.173084497E0,5.362978578E-1,9.547799110E0
1.536169739E1,-2.162607908E0,5.376397371E-1,9.550102234E0
1.538196724E1,-2.152950525E0,5.418691039E-1,9.552045822E0
1.540223708E1,-2.147162676E0,5.482477546E-1,9.552984238E0
1.542263708E1,-2.142989874E0,5.536388755E-1,9.553609848E0
1.544277677E1,-2.138254642E0,5.602718592E-1,9.554285049E0
1.546304661E1,-2.131040335E0,5.675874352E-1,9.555463791E0
1.548331646E1,-2.122180223E0,5.745615959E-1,9.557019234E0
1.550358630E1,-2.114500523E0,5.802636147E-1,9.558376312E0
1.552398630E1,-2.106837511E0,5.863472819E-1,9.559697151E0
1.554412594E1,-2.097043991E0,5.956361294E-1,9.561277390E0
1.556439573E1,-2.082216740E0,6.060929298E-1,9.563859940E0
1.558466557E1,-2.065581799E0,6.150061488E-1,9.566897392E0
1.560493541E1,-2.049933195E0,6.252486706E-1,9.569599152E0
1.562520520E1,-2.036309719E0,6.344638467E-1,9.571901321E0
1.564547505E1,-2.024768114E0,6.421216726E-1,9.573838234E0
1.566574489E1,-2.015938759E0,6.467530727E-1,9.575388908E0
1.568601469E1,-2.006351471E0,6.452021599E-1,9.577507019E0
1.570628453E1,-1.996447921E0,6.374351382E-1,9.580097198E0
1.572655437E1,-1.989410520E0,6.285326481E-1,9.582149506E0
1.574682416E1,-1.987311125E0,6.202527881E-1,9.583124161E0
1.576709401E1,-1.989388347E0,6.103588343E-1,9.583328247E0
1.578736380E1,-1.993662596E0,5.994437337E-1,9.583128929E0
1.580763364E1,-1.999106884E0,5.887783766E-1,9.582656860E0
1.582790344E1,-2.005303383E0,5.784302950E-1,9.581991196E0
1.584817323E1,-2.011869907E0,5.698357821E-1,9.581130028E0
1.586844307E1,-2.017483950E0,5.637205243E-1,9.580310822E0
1.588871286E1,-2.020785570E0,5.605558157E-1,9.579801559E0
1.590898265E1,-2.021616220E0,5.596557260E-1,9.579678535E0
1.592925245E1,-2.019847393E0,5.592477322E-1,9.580076218E0
1.594952229E1,-2.016159296E0,5.582997799E-1,9.580907822E0
1.596979208E1,-2.011440516E0,5.565436482E-1,9.582001686E0
1.599006187E1,-2.007552862E0,5.524770021E-1,9.583051682E0
1.601033166E1,-2.002569675E0,5.476331711E-1,9.584372520E0
1.603060146E1,-1.998672843E0,5.449107289E-1,9.585341454E0
1.605087125E1,-1.997144461E0,5.436778665E-1,9.585729599E0
1.607114104E1,-1.996491909E0,5.416056514E-1,9.585983276E0
1.609141083E1,-1.996890306E0,5.386801362E-1,9.586065292E0
1.611168062E1,-1.996953845E0,5.367475748E-1,9.586160660E0
1.613195041E1,-1.998239875E0,5.356758833E-1,9.585951805E0
1.615222021E1,-1.998929858E0,5.347191691E-1,9.585861206E0
1.617249000E1,-1.998834014E0,5.340209603E-1,9.585920334E0
1.619275979E1,-1.998947740E0,5.349808931E-1,9.585843086E0
1.621302958E1,-2.000599623E0,5.361300111E-1,9.585433960E0
1.623329937E1,-2.003194094E0,5.363461971E-1,9.584880829E0
1.625356916E1,-2.006364584E0,5.350289941E-1,9.584291458E0
1.627383890E1,-2.009049416E0,5.344412923E-1,9.583761215E0
1.629410870E1,-2.009613037E0,5.354908109E-1,9.583584785E0
1.631437849E1,-2.008416653E0,5.372267365E-1,9.583738327E0
1.633464828E1,-2.005664349E0,5.385472775E-1,9.584240913E0
1.635491802E1,-2.001757145E0,5.380495191E-1,9.585084915E0
1.637518781E1,-1.998911142E0,5.380575657E-1,9.585678101E0
1.639545760E1,-1.996773362E0,5.396191478E-1,9.586036682E0
1.641572734E1,-1.996904969E0,5.419731140E-1,9.585876465E0
1.643599713E1,-1.998391390E0,5.431098342E-1,9.585501671E0
1.645626687E1,-2.000543118E0,5.435478091E-1,9.585028648E0
1.647653666E1,-2.002232075E0,5.447461009E-1,9.584607124E0
1.649680646E1,-2.001896381E0,5.444208980E-1,9.584696770E0
1.651707620E1,-2.000905991E0,5.406830907E-1,9.585113525E0
1.653734594E1,-1.998220563E0,5.360640883E-1,9.585934639E0
1.655761573E1,-1.994623423E0,5.314338803E-1,9.586940765E0
1.657788547E1,-1.990591764E0,5.280378461E-1,9.587966919E0
1.659815526E1,-1.986095548E0,5.262471437E-1,9.588996887E0
1.661842500E1,-1.982786059E0,5.246887207E-1,9.589768410E0
1.663869479E1,-1.981069803E0,5.233929157E-1,9.590193748E0
1.665896453E1,-1.978821158E0,5.227031112E-1,9.590695381E0
1.667923427E1,-1.975906372E0,5.215030313E-1,9.591361046E0
1.669950406E1,-1.974315882E0,5.205804110E-1,9.591739655E0
1.671990406E1,-1.974694848E0,5.197899342E-1,9.591704369E0
1.674004354E1,-1.976405144E0,5.206671953E-1,9.591302872E0
1.676031328E1,-1.978689790E0,5.219997764E-1,9.590760231E0
1.678058302E1,-1.982373118E0,5.223131776E-1,9.589982986E0
1.680085276E1,-1.986126781E0,5.221327543E-1,9.589216232E0
1.682125276E1,-1.988474846E0,5.218294859E-1,9.588746071E0
1.684139229E1,-1.986204863E0,5.219425559E-1,9.589210510E0
1.686166203E1,-1.982786775E0,5.211766958E-1,9.589959145E0
1.688193177E1,-1.982220173E0,5.193060637E-1,9.590178490E0
1.690220151E1,-1.982554674E0,5.166929364E-1,9.590250015E0
1.692260151E1,-1.983261824E0,5.139267445E-1,9.590252876E0
1.694274099E1,-1.984928727E0,5.098540783E-1,9.590124130E0
1.696301073E1,-1.988141775E0,5.073704720E-1,9.589591026E0
1.698328047E1,-1.988384843E0,5.078035593E-1,9.589517593E0
1.700368838E1,-1.985104680E0,5.094895363E-1,9.590107918E0
1.702396849E1,-1.980916142E0,5.087755919E-1,9.591011047E0
1.704408276E1,-1.976124287E0,5.091412067E-1,9.591980934E0
1.706435390E1,-1.969432354E0,5.116509795E-1,9.593223572E0
1.708462474E1,-1.962360501E0,5.122993588E-1,9.594637871E0
1.710489437E1,-1.959809899E0,5.110868216E-1,9.595224380E0
1.712529531E1,-1.962573767E0,5.097514391E-1,9.594731331E0
1.714543552E1,-1.965323210E0,5.089153051E-1,9.594211578E0
1.716570578E1,-1.968169808E0,5.100423098E-1,9.593568802E0
1.718597599E1,-1.971317768E0,5.117187500E-1,9.592832565E0
1.720624562E1,-1.973234892E0,5.127101541E-1,9.592385292E0
1.722664599E1,-1.973910332E0,5.108938217E-1,9.592343330E0
1.724678578E1,-1.974663734E0,5.099072456E-1,9.592241287E0
1.726705578E1,-1.974111438E0,5.097025037E-1,9.592365265E0
1.728732573E1,-1.971243024E0,5.085086823E-1,9.593018532E0
1.730759552E1,-1.968135953E0,5.052305460E-1,9.593830109E0
1.732786541E1,-1.966027975E0,5.015929937E-1,9.594452858E0
1.734813526E1,-1.964537501E0,4.993751645E-1,9.594873428E0
1.736840505E1,-1.963114142E0,4.992529154E-1,9.595171928E0
1.738867479E1,-1.962995052E0,4.995900989E-1,9.595178604E0
1.740894453E1,-1.962413788E0,4.996142983E-1,9.595296860E0
1.742921437E1,-1.961969376E0,4.985367060E-1,9.595443726E0
1.744948416E1,-1.963234663E0,4.983381629E-1,9.595193863E0
1.746975385E1,-1.966342330E0,5.001494884E-1,9.594463348E0
1.749002359E1,-1.969419599E0,5.005364418E-1,9.593811989E0
1.751029333E1,-1.972103119E0,5.001440644E-1,9.593281746E0
1.753056307E1,-1.976672292E0,4.990250468E-1,9.592399597E0
1.755083286E1,-1.982475042E0,4.973697960E-1,9.591287613E0
1.757110255E1,-1.987132311E0,4.959847033E-1,9.590395927E0
1.759137229E1,-1.988617897E0,4.970569015E-1,9.590031624E0
1.761164203E1,-1.987298965E0,4.998193383E-1,9.590162277E0
1.763191172E1,-1.984062672E0,5.018707514E-1,9.590724945E0
1.765218146E1,-1.979896188E0,5.009685159E-1,9.591632843E0
1.767245114E1,-1.976021886E0,4.988367260E-1,9.592542648E0
1.769272094E1,-1.971810579E0,4.973975122E-1,9.593484879E0
1.771299062E1,-1.966815591E0,4.958197474E-1,9.594591141E0
1.773326036E1,-1.961357355E0,4.937196076E-1,9.595816612E0
1.775353010E1,-1.955634952E0,4.900915623E-1,9.597170830E0
1.777379984E1,-1.952214956E0,4.864804447E-1,9.598051071E0
1.779406953E1,-1.950667024E0,4.846353531E-1,9.598459244E0
1.781433927E1,-1.950646520E0,4.845801890E-1,9.598465919E0
1.783460901E1,-1.952330828E0,4.840120375E-1,9.598152161E0
1.785487870E1,-1.953675508E0,4.829972982E-1,9.597929001E0
1.787514844E1,-1.953073621E0,4.829294384E-1,9.598054886E0
1.789541817E1,-1.950395107E0,4.845717251E-1,9.598517418E0
1.791568791E1,-1.944752574E0,4.861001968E-1,9.599584579E0
1.793595755E1,-1.938935757E0,4.861120582E-1,9.600760460E0
1.795622734E1,-1.935098410E0,4.834104776E-1,9.601672173E0
1.797649708E1,-1.931502700E0,4.805026650E-1,9.602540970E0
1.799676677E1,-1.924996018E0,4.791143239E-1,9.603917122E0
1.801716677E1,-1.918196440E0,4.790903330E-1,9.605278015E0
1.803730625E1,-1.913492560E0,4.790673852E-1,9.606218338E0
1.805757594E1,-1.912321568E0,4.777014852E-1,9.606518745E0
1.807784567E1,-1.912658095E0,4.758673906E-1,9.606542587E0
1.809811541E1,-1.914912105E0,4.751277268E-1,9.606131554E0
1.811838515E1,-1.919401526E0,4.762054384E-1,9.605182648E0
1.813865484E1,-1.926961899E0,4.786148965E-1,9.603548050E0
1.815892458E1,-1.933987737E0,4.824216664E-1,9.601944923E0
1.817919432E1,-1.940668106E0,4.869809747E-1,9.600367546E0
1.819946401E1,-1.947106242E0,4.912663698E-1,9.598843575E0
1.821986401E1,-1.955757260E0,4.953110814E-1,9.596878052E0
1.824000349E1,-1.963621736E0,4.984713197E-1,9.595108032E0
1.826027323E1,-1.972828746E0,4.998156428E-1,9.593150139E0
1.828054291E1,-1.984213948E0,4.984728992E-1,9.590870857E0
1.830081265E1,-1.993803024E0,4.953975379E-1,9.589040756E0
1.832121265E1,-1.998657227E0,4.954142869E-1,9.588029861E0
1.834135203E1,-1.999385357E0,4.987708032E-1,9.587704659E0
1.836162182E1,-1.996558309E0,4.999464154E-1,9.588232040E0
1.838189151E1,-1.991820455E0,4.976961613E-1,9.589333534E0
1.840216125E1,-1.984446645E0,4.946345985E-1,9.591021538E0
1.842256125E1,-1.976031661E0,4.910384715E-1,9.592943192E0
1.844270067E1,-1.969475150E0,4.854474962E-1,9.594575882E0
1.846297041E1,-1.964708447E0,4.809374213E-1,9.595780373E0
1.848324015E1,-1.961792350E0,4.783284664E-1,9.596507072E0
1.850350979E1,-1.962717652E0,4.785537720E-1,9.596307755E0
1.852390979E1,-1.965101957E0,4.808711708E-1,9.595703125E0
1.854404927E1,-1.966684937E0,4.833155572E-1,9.595256805E0
1.856431901E1,-1.968216658E0,4.844743013E-1,9.594884872E0
1.858458875E1,-1.968266129E0,4.855691493E-1,9.594819069E0
1.860485844E1,-1.965815425E0,4.869961143E-1,9.595248222E0
1.862512817E1,-1.963169217E0,4.870764911E-1,9.595786095E0
1.864539786E1,-1.960924983E0,4.864390194E-1,9.596277237E0
1.866566760E1,-1.959536076E0,4.849661291E-1,9.596635818E0
1.868593729E1,-1.958634496E0,4.826106727E-1,9.596939087E0
1.870620703E1,-1.958552361E0,4.792443216E-1,9.597123146E0
1.872647672E1,-1.958371997E0,4.758672714E-1,9.597328186E0
1.874674640E1,-1.958814263E0,4.731127620E-1,9.597374916E0
1.876701614E1,-1.960325599E0,4.719001353E-1,9.597126007E0
1.878728588E1,-1.960947871E0,4.713413715E-1,9.597025871E0
1.880755557E1,-1.959985137E0,4.703880250E-1,9.597269058E0
1.882782531E1,-1.957779646E0,4.703374803E-1,9.597722054E0
1.884809505E1,-1.952996492E0,4.708664417E-1,9.598670006E0
1.886836474E1,-1.948988318E0,4.719459414E-1,9.599431992E0
1.888863442E1,-1.948095441E0,4.733816385E-1,9.599543571E0
1.890890416E1,-1.950716257E0,4.749741256E-1,9.598932266E0
1.892917385E1,-1.955369949E0,4.754591286E-1,9.597960472E0
1.894944354E1,-1.961299062E0,4.767551720E-1,9.596687317E0
1.896971328E1,-1.967278004E0,4.790765941E-1,9.595347404E0
1.898998297E1,-1.972539544E0,4.804173112E-1,9.594200134E0
1.901025271E1,-1.974921227E0,4.802478850E-1,9.593718529E0
1.903052239E1,-1.974060297E0,4.786988497E-1,9.593973160E0
1.905079208E1,-1.972823620E0,4.760096669E-1,9.594361305E0
1.907106177E1,-1.970298290E0,4.740056694E-1,9.594980240E0
1.909133151E1,-1.966431260E0,4.736905396E-1,9.595788956E0
1.911160120E1,-1.959218860E0,4.731728733E-1,9.597289085E0
1.913187088E1,-1.951054096E0,4.723437130E-1,9.598993301E0
1.915214062E1,-1.945162416E0,4.710405171E-1,9.600253105E0
1.917241031E1,-1.943018198E0,4.688400924E-1,9.600794792E0
1.919268000E1,-1.943605304E0,4.671410918E-1,9.600758553E0
1.921294968E1,-1.946122050E0,4.664235115E-1,9.600283623E0
1.923321937E1,-1.951685667E0,4.663915336E-1,9.599155426E0
1.925361937E1,-1.956156492E0,4.670914114E-1,9.598211288E0
1.927375880E1,-1.957875252E0,4.679313600E-1,9.597820282E0
1.929402849E1,-1.957570195E0,4.691389799E-1,9.597824097E0
1.931429817E1,-1.956335068E0,4.701588154E-1,9.598025322E0
1.933456786E1,-1.954043627E0,4.693228006E-1,9.598532677E0
1.935483755E1,-1.949770689E0,4.660979807E-1,9.599558830E0
1.937510724E1,-1.945369959E0,4.637864232E-1,9.600563049E0
1.939537692E1,-1.942664623E0,4.624009430E-1,9.601179123E0
1.941564666E1,-1.942052126E0,4.605081975E-1,9.601393700E0
1.943591635E1,-1.942489624E0,4.584688246E-1,9.601402283E0
1.945618604E1,-1.942761660E0,4.562571049E-1,9.601452827E0
1.947645573E1,-1.943152547E0,4.559864700E-1,9.601387024E0
1.949672541E1,-1.943640828E0,4.576148391E-1,9.601209641E0
1.951699510E1,-1.944378495E0,4.583187699E-1,9.601026535E0
1.953726479E1,-1.944747925E0,4.589941502E-1,9.600920677E0
1.955753448E1,-1.944740057E0,4.604559541E-1,9.600852013E0
1.957780416E1,-1.946210861E0,4.612950683E-1,9.600512505E0
1.959807380E1,-1.949066401E0,4.621314704E-1,9.599893570E0
1.961834349E1,-1.952922344E0,4.616533816E-1,9.599132538E0
1.963861317E1,-1.955976725E0,4.602158070E-1,9.598580360E0
1.965888286E1,-1.960136771E0,4.580404460E-1,9.597836494E0
1.967915255E1,-1.963949084E0,4.561044574E-1,9.597147942E0
1.969942224E1,-1.967839479E0,4.544343352E-1,9.596430779E0
1.971981073E1,-1.969763756E0,4.544234872E-1,9.596036911E0
1.973996156E1,-1.967796087E0,4.535086453E-1,9.596483231E0
1.976023125E1,-1.963570952E0,4.525629282E-1,9.597393990E0
1.978050094E1,-1.957182884E0,4.520688951E-1,9.598721504E0
1.980077057E1,-1.950366974E0,4.516268373E-1,9.600130081E0
1.982117057E1,-1.944065332E0,4.521806538E-1,9.601381302E0
1.984130995E1,-1.936966181E0,4.522864223E-1,9.602810860E0
1.986157958E1,-1.928699374E0,4.526591003E-1,9.604457855E0
1.988184927E1,-1.922346830E0,4.566762447E-1,9.605541229E0
1.990211896E1,-1.919315815E0,4.606798589E-1,9.605955124E0
1.992251896E1,-1.916763783E0,4.608591497E-1,9.606456757E0
1.994265828E1,-1.916736484E0,4.615933299E-1,9.606427193E0
1.996292791E1,-1.920818806E0,4.646783769E-1,9.605463028E0
1.998319760E1,-1.927287936E0,4.716590643E-1,9.603827477E0
2.000346724E1,-1.935016394E0,4.787316620E-1,9.601922989E0
2.002386724E1,-1.946598411E0,4.821625650E-1,9.599409103E0
2.004400656E1,-1.960316420E0,4.817529917E-1,9.596638680E0
2.006427625E1,-1.972112417E0,4.816635847E-1,9.594224930E0
2.008454588E1,-1.983628273E0,4.879133701E-1,9.591534615E0
2.010481552E1,-1.994782090E0,4.990442097E-1,9.588648796E0
2.012521552E1,-2.002723932E0,5.114915371E-1,9.586338043E0
2.014535484E1,-2.007228851E0,5.249732733E-1,9.584665298E0
2.016562448E1,-2.010322809E0,5.385375619E-1,9.583264351E0
2.018589416E1,-2.008738041E0,5.511594415E-1,9.582880020E0
2.020616380E1,-2.006278992E0,5.626786351E-1,9.582725525E0
2.022643349E1,-2.003247261E0,5.721524954E-1,9.582799911E0
2.024670307E1,-1.998908043E0,5.803004503E-1,9.583215714E0
2.026697276E1,-1.996520758E0,5.881178975E-1,9.583235741E0
2.028724239E1,-1.999800801E0,5.909135342E-1,9.582380295E0
2.030751203E1,-2.007673264E0,5.900751948E-1,9.580784798E0
2.032778172E1,-2.018701315E0,5.856961608E-1,9.578736305E0
2.034805135E1,-2.027696371E0,5.820884705E-1,9.577056885E0
2.036832099E1,-2.034115791E0,5.788429379E-1,9.575892448E0
2.038859062E1,-2.038601637E0,5.774629116E-1,9.575020790E0
2.040886026E1,-2.041437149E0,5.782295465E-1,9.574371338E0
2.042912989E1,-2.041733503E0,5.811889768E-1,9.574129105E0
2.044939953E1,-2.039722204E0,5.867043138E-1,9.574220657E0
2.046966916E1,-2.035849094E0,5.927312970E-1,9.574673653E0
2.048993880E1,-2.028507471E0,5.982543230E-1,9.575887680E0
2.051020844E1,-2.019704103E0,6.042392254E-1,9.577372551E0
2.053047807E1,-2.006677628E0,6.083431244E-1,9.579851151E0
2.055074771E1,-1.989313722E0,6.095938087E-1,9.583392143E0
2.057101734E1,-1.968213677E0,6.075868607E-1,9.587876320E0
2.059128698E1,-1.949086905E0,6.017526388E-1,9.592150688E0
2.061155661E1,-1.932828784E0,5.889195204E-1,9.596235275E0
2.063182625E1,-1.923899770E0,5.764496326E-1,9.598785400E0
2.065209588E1,-1.923074603E0,5.666882992E-1,9.599533081E0
2.067236547E1,-1.924175620E0,5.625987649E-1,9.599553108E0
2.069263505E1,-1.922895670E0,5.601854324E-1,9.599950790E0
2.071290468E1,-1.918739676E0,5.549170375E-1,9.601088524E0
2.073317437E1,-1.912561893E0,5.503306985E-1,9.602584839E0
2.075344401E1,-1.903341889E0,5.464304686E-1,9.604638100E0
2.077371359E1,-1.887744904E0,5.410572290E-1,9.608020782E0
2.079398317E1,-1.866467953E0,5.318837762E-1,9.612688065E0
2.081425276E1,-1.840091348E0,5.210319757E-1,9.618367195E0
2.083452244E1,-1.815628648E0,5.115241408E-1,9.623524666E0
2.085479208E1,-1.799741507E0,5.045667291E-1,9.626875877E0
2.087506166E1,-1.793531775E0,5.003197789E-1,9.628255844E0
2.089533130E1,-1.789407015E0,4.947509468E-1,9.629311562E0
2.091560094E1,-1.783506989E0,4.869007468E-1,9.630805969E0
2.093587052E1,-1.776690722E0,4.769455194E-1,9.632563591E0
2.095614015E1,-1.774739265E0,4.696760476E-1,9.633280754E0
2.097640979E1,-1.778414488E0,4.635563493E-1,9.632899284E0
2.099667937E1,-1.781430840E0,4.551205039E-1,9.632743835E0
2.101694896E1,-1.781863213E0,4.437053204E-1,9.633195877E0
2.103721859E1,-1.782083392E0,4.327111542E-1,9.633656502E0
2.105748823E1,-1.784935474E0,4.226421714E-1,9.633574486E0
2.107775781E1,-1.787003160E0,4.124924839E-1,9.633631706E0
2.109802744E1,-1.787947059E0,4.031638503E-1,9.633852005E0
2.111829708E1,-1.794091105E0,3.968321383E-1,9.632971764E0
2.113856666E1,-1.805754185E0,3.930300176E-1,9.630948067E0
2.115883625E1,-1.817867517E0,3.930349350E-1,9.628668785E0
2.117910588E1,-1.825989008E0,3.935795426E-1,9.627109528E0
2.119938344E1,-1.832226038E0,3.954265714E-1,9.625849724E0
2.121972229E1,-1.838137031E0,3.953173161E-1,9.624727249E0
2.123991359E1,-1.841465831E0,3.929426968E-1,9.624187469E0
2.126018344E1,-1.847505569E0,3.907299042E-1,9.623120308E0
2.128045323E1,-1.854205608E0,3.903422654E-1,9.621847153E0
2.130072281E1,-1.860317469E0,3.918434083E-1,9.620606422E0
2.132112297E1,-1.866819501E0,3.931545913E-1,9.619293213E0
2.134126229E1,-1.873854876E0,3.916774690E-1,9.617984772E0
2.136153198E1,-1.881841540E0,3.899165094E-1,9.616497040E0
2.138180166E1,-1.887617946E0,3.858808577E-1,9.615528107E0
2.140207125E1,-1.893843532E0,3.785302639E-1,9.614595413E0
2.142247130E1,-1.903755307E0,3.720626533E-1,9.612892151E0
2.144261057E1,-1.914946198E0,3.668688536E-1,9.610867500E0
2.146288020E1,-1.926554203E0,3.643120229E-1,9.608644485E0
2.148315776E1,-1.936732888E0,3.632357419E-1,9.606638908E0
2.150351250E1,-1.944077969E0,3.634840250E-1,9.605146408E0
2.152384244E1,-1.955973268E0,3.662635684E-1,9.602625847E0
2.154395557E1,-1.977080345E0,3.741892576E-1,9.597995758E0
2.156422578E1,-2.003440142E0,3.849880397E-1,9.592100143E0
2.158449583E1,-2.030969381E0,3.961063921E-1,9.585857391E0
2.160476594E1,-2.061072826E0,4.086894989E-1,9.578901291E0
2.162503583E1,-2.091153860E0,4.224647582E-1,9.571781158E0
2.164530567E1,-2.114197254E0,4.353350997E-1,9.566140175E0
2.166557552E1,-2.125568867E0,4.451975822E-1,9.563165665E0
2.168584531E1,-2.127737045E0,4.502132237E-1,9.562448502E0
2.170611484E1,-2.124129534E0,4.522597790E-1,9.563154221E0
2.172651500E1,-2.115563869E0,4.509568512E-1,9.565114021E0
2.174665432E1,-2.104595900E0,4.481439888E-1,9.567667007E0
2.176692401E1,-2.094774723E0,4.460537732E-1,9.569917679E0
2.178719364E1,-2.089433432E0,4.457840323E-1,9.571099281E0
2.180746333E1,-2.088094950E0,4.464591444E-1,9.571360588E0
2.182773297E1,-2.090545177E0,4.475945532E-1,9.570771217E0
2.184800260E1,-2.096591473E0,4.486376643E-1,9.569399834E0
2.186827224E1,-2.101646423E0,4.491714537E-1,9.568266869E0
2.188854182E1,-2.104050875E0,4.482089281E-1,9.567782402E0
2.190881151E1,-2.104988813E0,4.476544261E-1,9.567602158E0
2.192908109E1,-2.105586767E0,4.475039840E-1,9.567478180E0
2.194935067E1,-2.105985165E0,4.478926957E-1,9.567371368E0
2.196962021E1,-2.104961634E0,4.491113126E-1,9.567540169E0
2.198988989E1,-2.103593588E0,4.502995610E-1,9.567785263E0
2.201015948E1,-2.103378773E0,4.517573714E-1,9.567763329E0
2.203042906E1,-2.104964972E0,4.523875117E-1,9.567385674E0
2.205069864E1,-2.106734037E0,4.531051219E-1,9.566962242E0
2.207096823E1,-2.108825207E0,4.535281956E-1,9.566481590E0
2.209123786E1,-2.111045599E0,4.538287222E-1,9.565977097E0
2.211150744E1,-2.112987757E0,4.524379373E-1,9.565613747E0
2.213177703E1,-2.114300013E0,4.519933462E-1,9.565344810E0
2.215204661E1,-2.116071939E0,4.518680573E-1,9.564959526E0
2.217231625E1,-2.116559505E0,4.526334405E-1,9.564814568E0
2.219258583E1,-2.117373943E0,4.532909393E-1,9.564602852E0
2.221285541E1,-2.119811535E0,4.540115893E-1,9.564029694E0
2.223312500E1,-2.122462749E0,4.534717202E-1,9.563467026E0
2.225339458E1,-2.124222755E0,4.541832209E-1,9.563042641E0
2.227366416E1,-2.124933958E0,4.547172189E-1,9.562859535E0
2.229393380E1,-2.125063419E0,4.551442564E-1,9.562809944E0
2.231420338E1,-2.126172066E0,4.549091756E-1,9.562575340E0
2.233447297E1,-2.128521919E0,4.542168379E-1,9.562085152E0
2.235474255E1,-2.130112648E0,4.536226392E-1,9.561758995E0
2.237501213E1,-2.131407499E0,4.527886212E-1,9.561510086E0
2.239528177E1,-2.133041859E0,4.527482688E-1,9.561146736E0
2.241555130E1,-2.135333300E0,4.526911378E-1,9.560638428E0
2.243582094E1,-2.136532784E0,4.529323876E-1,9.560359001E0
2.245609052E1,-2.136556387E0,4.519359469E-1,9.560401917E0
2.247636010E1,-2.135099649E0,4.515657723E-1,9.560744286E0
2.249662969E1,-2.131876945E0,4.518265724E-1,9.561450958E0
2.251702968E1,-2.126765728E0,4.528855085E-1,9.562538147E0
2.253716885E1,-2.121927500E0,4.530583322E-1,9.563605309E0
2.255743844E1,-2.118256092E0,4.532540739E-1,9.564410210E0
2.257770802E1,-2.116752386E0,4.522111118E-1,9.564792633E0
2.259797760E1,-2.115779877E0,4.513898492E-1,9.565046310E0
2.261824724E1,-2.115839481E0,4.505607188E-1,9.565072060E0
2.263851682E1,-2.116399527E0,4.501459599E-1,9.564968109E0
2.265878640E1,-2.117673635E0,4.505940080E-1,9.564663887E0
2.267905599E1,-2.119349718E0,4.510585368E-1,9.564271927E0
2.269932557E1,-2.121679306E0,4.520114064E-1,9.563710213E0
2.271959520E1,-2.124383688E0,4.514914751E-1,9.563134193E0
2.273986474E1,-2.127001762E0,4.516530037E-1,9.562544823E0
2.276013432E1,-2.128318310E0,4.511249363E-1,9.562276840E0
2.278040390E1,-2.128094196E0,4.504939914E-1,9.562356949E0
2.280067349E1,-2.126934528E0,4.499136209E-1,9.562641144E0
2.282107349E1,-2.125632286E0,4.498659670E-1,9.562933922E0
2.284121265E1,-2.124939442E0,4.495604932E-1,9.563101768E0
2.286148224E1,-2.124465466E0,4.488577247E-1,9.563241005E0
2.288175182E1,-2.124676704E0,4.478370249E-1,9.563241005E0
2.290202146E1,-2.124477625E0,4.476663470E-1,9.563292503E0
2.292242146E1,-2.124918938E0,4.468620121E-1,9.563233376E0
2.294256062E1,-2.125315905E0,4.456669986E-1,9.563200951E0
2.296283021E1,-2.125253201E0,4.447289407E-1,9.563258171E0
2.298309974E1,-2.125414133E0,4.436819851E-1,9.563270569E0
2.300336937E1,-2.125577211E0,4.439798594E-1,9.563220978E0
2.302376937E1,-2.125468493E0,4.441503286E-1,9.563237190E0
2.304390854E1,-2.125018597E0,4.435764253E-1,9.563363075E0
2.306417812E1,-2.125232697E0,4.434337914E-1,9.563322067E0
2.308444771E1,-2.125748158E0,4.438638687E-1,9.563188553E0
2.310471729E1,-2.126622915E0,4.445371032E-1,9.562962532E0
2.312511729E1,-2.128357887E0,4.449412525E-1,9.562557220E0
2.314525646E1,-2.130483389E0,4.453598559E-1,9.562065125E0
2.316552604E1,-2.132645845E0,4.461345077E-1,9.561546326E0
2.318579562E1,-2.134870291E0,4.462190568E-1,9.561045647E0
2.320606520E1,-2.136180401E0,4.469764531E-1,9.560717583E0
2.322633479E1,-2.136732340E0,4.472397566E-1,9.560582161E0
2.324660437E1,-2.136476517E0,4.475157559E-1,9.560626984E0
2.326687390E1,-2.136402607E0,4.476957023E-1,9.560634613E0
2.328714354E1,-2.136523247E0,4.485560954E-1,9.560567856E0
2.330741307E1,-2.137005806E0,4.484015405E-1,9.560467720E0
2.332768270E1,-2.136542082E0,4.484079182E-1,9.560569763E0
2.334795224E1,-2.136682510E0,4.484216571E-1,9.560538292E0
2.336822182E1,-2.136707306E0,4.485899806E-1,9.560524940E0
2.338849140E1,-2.137014389E0,4.480339289E-1,9.560482025E0
2.340876099E1,-2.137483835E0,4.476310313E-1,9.560396194E0
2.342903057E1,-2.137160301E0,4.469553828E-1,9.560500145E0
2.344930015E1,-2.136363506E0,4.466907978E-1,9.560689926E0
2.346956974E1,-2.135008574E0,4.468966424E-1,9.560982704E0
2.348983932E1,-2.133738756E0,4.476717114E-1,9.561230659E0
2.351010890E1,-2.131255865E0,4.475538135E-1,9.561789513E0
2.353037849E1,-2.130921602E0,4.466474950E-1,9.561906815E0
2.355064807E1,-2.130889893E0,4.454517663E-1,9.561969757E0
2.357091765E1,-2.130561590E0,4.442595243E-1,9.562098503E0
2.359118719E1,-2.131881475E0,4.430793524E-1,9.561859131E0
2.361145677E1,-2.133148432E0,4.424938262E-1,9.561602592E0
2.363172635E1,-2.135054827E0,4.424851537E-1,9.561178207E0
2.365199594E1,-2.135754585E0,4.416868389E-1,9.561058998E0
2.368749526E1,-2.136550426E0,4.409185648E-1,9.560916901E0
2.370767026E1,-2.136776924E0,4.400849044E-1,9.560904503E0
2.372792203E1,-2.136797905E0,4.392784834E-1,9.560937881E0
2.374820963E1,-2.136409521E0,4.389426708E-1,9.561038971E0
2.376847870E1,-2.136025429E0,4.388617873E-1,9.561128616E0
2.378874817E1,-2.136044264E0,4.388282001E-1,9.561125755E0
2.380901771E1,-2.136080503E0,4.385070503E-1,9.561132431E0
2.382928734E1,-2.135913134E0,4.391169548E-1,9.561141968E0
2.384955692E1,-2.136342287E0,4.399864972E-1,9.561005592E0
2.386982646E1,-2.138115406E0,4.406204820E-1,9.560581207E0
2.389009604E1,-2.138845205E0,4.403123558E-1,9.560431480E0
2.391036562E1,-2.139808416E0,4.399155974E-1,9.560234070E0
2.393063515E1,-2.140856266E0,4.404444993E-1,9.559975624E0
2.395090474E1,-2.140947104E0,4.406595230E-1,9.559945107E0
2.397117432E1,-2.140778065E0,4.412918389E-1,9.559953690E0
2.399144385E1,-2.141099453E0,4.417779148E-1,9.559859276E0
2.401171344E1,-2.141215324E0,4.409444630E-1,9.559871674E0
2.403198297E1,-2.140674829E0,4.411680102E-1,9.559982300E0
2.405225255E1,-2.140770435E0,4.416585863E-1,9.559938431E0
2.407252213E1,-2.142210484E0,4.414901435E-1,9.559623718E0
2.409279172E1,-2.143438578E0,4.409767091E-1,9.559372902E0
2.411306125E1,-2.143171787E0,4.402533770E-1,9.559465408E0
2.413333083E1,-2.141788960E0,4.396308959E-1,9.559803963E0
2.415360036E1,-2.141365051E0,4.394355416E-1,9.559907913E0
2.417386994E1,-2.142194748E0,4.390040636E-1,9.559741974E0
2.419413948E1,-2.143039465E0,4.379314482E-1,9.559600830E0
2.421440906E1,-2.144377470E0,4.375602603E-1,9.559318542E0
2.423467859E1,-2.145910025E0,4.377859831E-1,9.558963776E0
2.425494817E1,-2.146730661E0,4.380334616E-1,9.558769226E0
2.427521771E1,-2.147045612E0,4.384631515E-1,9.558678627E0
2.429548729E1,-2.146486759E0,4.391865134E-1,9.558770180E0
2.431588729E1,-2.145565033E0,4.390009940E-1,9.558985710E0
2.433602630E1,-2.145441294E0,4.384984672E-1,9.559036255E0
2.435629594E1,-2.145207882E0,4.378348589E-1,9.559119225E0
2.437656547E1,-2.145518780E0,4.382504821E-1,9.559031487E0
2.439683505E1,-2.146016836E0,4.388117492E-1,9.558893204E0
2.441723505E1,-2.146298170E0,4.388222694E-1,9.558830261E0
2.443737406E1,-2.146405697E0,4.391383827E-1,9.558791161E0
2.445764370E1,-2.146116257E0,4.390621483E-1,9.558859825E0
2.447791323E1,-2.146173954E0,4.391520321E-1,9.558843613E0
2.449818276E1,-2.146402836E0,4.395057559E-1,9.558774948E0
2.451858276E1,-2.146568775E0,4.392675757E-1,9.558748245E0
2.453872187E1,-2.146281719E0,4.388429821E-1,9.558833122E0
2.455899140E1,-2.146221876E0,4.388019145E-1,9.558848381E0
2.457926094E1,-2.146440029E0,4.392494857E-1,9.558777809E0
2.459953047E1,-2.146706104E0,4.393759668E-1,9.558712959E0
2.461980005E1,-2.146558046E0,4.375549853E-1,9.558830261E0
2.464006958E1,-2.147008181E0,4.370935261E-1,9.558750153E0
2.466046958E1,-2.147979975E0,4.374395013E-1,9.558514595E0
2.468060870E1,-2.148577452E0,4.378924668E-1,9.558360100E0
2.470087823E1,-2.148604393E0,4.375800192E-1,9.558367729E0
2.472114776E1,-2.148212433E0,4.370573759E-1,9.558481216E0
2.474141729E1,-2.146767616E0,4.370897412E-1,9.558803558E0
2.476168682E1,-2.145821571E0,4.377298355E-1,9.558987617E0
2.478195635E1,-2.146075726E0,4.368485510E-1,9.558970451E0
2.480222588E1,-2.146687984E0,4.362858832E-1,9.558857918E0
2.482249541E1,-2.147181749E0,4.361596107E-1,9.558753014E0
2.484276495E1,-2.147287846E0,4.367265105E-1,9.558703423E0
2.486303448E1,-2.146786213E0,4.378778338E-1,9.558763504E0
2.488330401E1,-2.146561384E0,4.378749728E-1,9.558814049E0
2.490357354E1,-2.146415234E0,4.374036491E-1,9.558867455E0
2.492384307E1,-2.146803856E0,4.370050728E-1,9.558799744E0
2.494411260E1,-2.146845341E0,4.363589585E-1,9.558819771E0
2.496438213E1,-2.147658825E0,4.359108508E-1,9.558657646E0
2.498465166E1,-2.148013592E0,4.357101023E-1,9.558586121E0
2.500492120E1,-2.147819757E0,4.362463057E-1,9.558606148E0
2.502519073E1,-2.146785259E0,4.365484715E-1,9.558824539E0
2.504546026E1,-2.146078348E0,4.365071952E-1,9.558985710E0
2.506572968E1,-2.145122290E0,4.369321167E-1,9.559179306E0
2.508599927E1,-2.144473553E0,4.374715984E-1,9.559301376E0
2.510626880E1,-2.145340681E0,4.380468130E-1,9.559080124E0
2.512653833E1,-2.146553993E0,4.384872019E-1,9.558788300E0
2.514680786E1,-2.146394014E0,4.385550916E-1,9.558820724E0
2.516707739E1,-2.146707773E0,4.376953244E-1,9.558788300E0
2.518734687E1,-2.147492886E0,4.373712242E-1,9.558627129E0
2.520761640E1,-2.148552418E0,4.372497797E-1,9.558395386E0
2.522788594E1,-2.150039673E0,4.374628067E-1,9.558050156E0
2.524815547E1,-2.151199579E0,4.369327426E-1,9.557814598E0
2.526842495E1,-2.150714397E0,4.360288680E-1,9.557964325E0
2.528869448E1,-2.148749590E0,4.363731742E-1,9.558391571E0
2.530896401E1,-2.146047831E0,4.367636442E-1,9.558980942E0
2.532923349E1,-2.144169092E0,4.370767474E-1,9.559387207E0
2.534950302E1,-2.142841578E0,4.366480708E-1,9.559704781E0
2.536977255E1,-2.142679453E0,4.355536401E-1,9.559790611E0
2.539004203E1,-2.142997742E0,4.347265959E-1,9.559757233E0
2.541031156E1,-2.144196033E0,4.339691997E-1,9.559522629E0
2.543058104E1,-2.146109819E0,4.326516390E-1,9.559153557E0
2.545085057E1,-2.147319078E0,4.313523769E-1,9.558940887E0
2.547112010E1,-2.148629665E0,4.310926795E-1,9.558657646E0
2.549138958E1,-2.150452375E0,4.311812520E-1,9.558244705E0
2.551165911E1,-2.151705503E0,4.314565659E-1,9.557950020E0
2.553192859E1,-2.151590347E0,4.320964217E-1,9.557946205E0
2.555219812E1,-2.150479078E0,4.322420359E-1,9.558189392E0
2.557246760E1,-2.148927927E0,4.320161343E-1,9.558548927E0
2.559273713E1,-2.147422552E0,4.318155050E-1,9.558896065E0
2.561300666E1,-2.145861864E0,4.320234954E-1,9.559237480E0
2.563327614E1,-2.146183252E0,4.334213436E-1,9.559102058E0
2.565354562E1,-2.147402287E0,4.342269599E-1,9.558791161E0
2.567381515E1,-2.148569345E0,4.342544377E-1,9.558527946E0
2.569408463E1,-2.149566650E0,4.343983233E-1,9.558298111E0
2.571435406E1,-2.150122404E0,4.352765083E-1,9.558132172E0
2.573462364E1,-2.150386810E0,4.359306693E-1,9.558042526E0
2.575489312E1,-2.150188208E0,4.356904328E-1,9.558099747E0
2.577516260E1,-2.149670601E0,4.352494478E-1,9.558235168E0
2.579543213E1,-2.149106264E0,4.355029762E-1,9.558349609E0
2.581583213E1,-2.148083210E0,4.358936548E-1,9.558562279E0
2.583597109E1,-2.147749662E0,4.364357293E-1,9.558612823E0
2.585624057E1,-2.148932457E0,4.370706081E-1,9.558318138E0
2.587651010E1,-2.149567366E0,4.368545711E-1,9.558185577E0
2.589677958E1,-2.149430752E0,4.366472661E-1,9.558225632E0
2.591717958E1,-2.148791075E0,4.364706576E-1,9.558377266E0
2.593731854E1,-2.148860931E0,4.362460077E-1,9.558371544E0
2.595758802E1,-2.148943901E0,4.357019067E-1,9.558378220E0
2.597785744E1,-2.149242401E0,4.348498583E-1,9.558350563E0
2.599812698E1,-2.149142981E0,4.335629642E-1,9.558430672E0
2.601852698E1,-2.149256468E0,4.329677522E-1,9.558432579E0
2.603866594E1,-2.149872780E0,4.325541854E-1,9.558312416E0
2.605893541E1,-2.151310444E0,4.314545989E-1,9.558037758E0
2.607920489E1,-2.152352095E0,4.303757846E-1,9.557853699E0
2.609947437E1,-2.152399302E0,4.306919873E-1,9.557826996E0
2.611987437E1,-2.151815414E0,4.312982857E-1,9.557931900E0
2.614001333E1,-2.151314974E0,4.319745302E-1,9.558013916E0
2.616028281E1,-2.150056839E0,4.324460328E-1,9.558275223E0
2.618055229E1,-2.148982525E0,4.324841797E-1,9.558516502E0
2.620082177E1,-2.148681402E0,4.323253334E-1,9.558589935E0
2.622109125E1,-2.148994684E0,4.324449003E-1,9.558514595E0
2.624136073E1,-2.149173021E0,4.323683977E-1,9.558478355E0
2.626163021E1,-2.149587631E0,4.329140782E-1,9.558360100E0
2.628189969E1,-2.150820732E0,4.335551560E-1,9.558053970E0
2.630216911E1,-2.151795149E0,4.344964623E-1,9.557791710E0
2.632243859E1,-2.151639938E0,4.345259964E-1,9.557825089E0
2.634270807E1,-2.152164698E0,4.345861077E-1,9.557703972E0
2.636297755E1,-2.152379274E0,4.341451824E-1,9.557675362E0
2.638324703E1,-2.151790380E0,4.347095490E-1,9.557783127E0
2.640351651E1,-2.150427341E0,4.352341294E-1,9.558065414E0
2.642378588E1,-2.150193453E0,4.356653690E-1,9.558098793E0
2.644405541E1,-2.151064873E0,4.363360703E-1,9.557871819E0
2.646432489E1,-2.151751041E0,4.365462065E-1,9.557707787E0
2.648459432E1,-2.152118683E0,4.360524118E-1,9.557647705E0
2.650486380E1,-2.152563810E0,4.358574152E-1,9.557556152E0
2.652513328E1,-2.152775526E0,4.350390732E-1,9.557545662E0
2.654540270E1,-2.151689529E0,4.344467521E-1,9.557817459E0
2.656567218E1,-2.150941610E0,4.338346720E-1,9.558012962E0
2.658594161E1,-2.150607824E0,4.333515167E-1,9.558110237E0
2.660621109E1,-2.150283575E0,4.324837625E-1,9.558222771E0
2.662648047E1,-2.150477648E0,4.314808249E-1,9.558224678E0
2.664675000E1,-2.150666237E0,4.303504825E-1,9.558232307E0
2.666701942E1,-2.152190208E0,4.291173220E-1,9.557945251E0
2.668728890E1,-2.153568029E0,4.282691479E-1,9.557672501E0
2.670755833E1,-2.154098749E0,4.277732670E-1,9.557576180E0
2.672782781E1,-2.153497696E0,4.275426865E-1,9.557722092E0
2.674809724E1,-2.153162003E0,4.279382229E-1,9.557779312E0
2.676836672E1,-2.152917385E0,4.284885228E-1,9.557809830E0
2.678863614E1,-2.152586460E0,4.288191497E-1,9.557869911E0
2.680890557E1,-2.152345419E0,4.290086627E-1,9.557915688E0
2.682917505E1,-2.152710676E0,4.289690852E-1,9.557834625E0
2.684944448E1,-2.153522491E0,4.293200970E-1,9.557636261E0
2.686971390E1,-2.154188156E0,4.297665060E-1,9.557465553E0
2.688998338E1,-2.154026270E0,4.301480055E-1,9.557485580E0
2.691025281E1,-2.153881311E0,4.306123853E-1,9.557497025E0
2.693052224E1,-2.153301239E0,4.308752418E-1,9.557616234E0
2.695079166E1,-2.153065205E0,4.308029413E-1,9.557671547E0
2.697106114E1,-2.152979612E0,4.312947989E-1,9.557669640E0
2.699146114E1,-2.152125120E0,4.322271645E-1,9.557820320E0
2.701160000E1,-2.151527405E0,4.333605468E-1,9.557903290E0
2.703186942E1,-2.151165009E0,4.340688288E-1,9.557952881E0
2.705213885E1,-2.150931597E0,4.344847202E-1,9.557986259E0
2.707240828E1,-2.151319742E0,4.344030917E-1,9.557903290E0
2.709267771E1,-2.152160645E0,4.344406426E-1,9.557711601E0
2.711294719E1,-2.153531551E0,4.337733686E-1,9.557434082E0
2.713321656E1,-2.155188084E0,4.327542782E-1,9.557105064E0
2.715348604E1,-2.156308413E0,4.316237271E-1,9.556904793E0
2.717375547E1,-2.157301664E0,4.308017790E-1,9.556716919E0
2.719402489E1,-2.158179522E0,4.299590290E-1,9.556557655E0
2.721429432E1,-2.157581806E0,4.295249283E-1,9.556711197E0
2.723456375E1,-2.155963898E0,4.295667708E-1,9.557074547E0
2.725483317E1,-2.154549360E0,4.296917617E-1,9.557388306E0
2.727510260E1,-2.154205799E0,4.296179712E-1,9.557469368E0
2.729537203E1,-2.154533148E0,4.294795692E-1,9.557401657E0
2.731577203E1,-2.154665709E0,4.292321801E-1,9.557382584E0
2.733591083E1,-2.153934240E0,4.278201461E-1,9.557610512E0
2.735618026E1,-2.153706074E0,4.270175695E-1,9.557699203E0
2.737644968E1,-2.154221773E0,4.270820320E-1,9.557579041E0
2.739671911E1,-2.154364824E0,4.277373552E-1,9.557517052E0
2.741711911E1,-2.154568195E0,4.283466041E-1,9.557444572E0
2.743725791E1,-2.155386686E0,4.280553162E-1,9.557272911E0
2.745752734E1,-2.155705214E0,4.282726347E-1,9.557190895E0
2.747779677E1,-2.154722929E0,4.287023246E-1,9.557393074E0
2.749806620E1,-2.153425455E0,4.291826785E-1,9.557663918E0
2.751846620E1,-2.152239561E0,4.298792779E-1,9.557900429E0
2.753860500E1,-2.151633263E0,4.301541746E-1,9.558024406E0
2.755887442E1,-2.151477337E0,4.305479825E-1,9.558042526E0
2.757914380E1,-2.151313782E0,4.304389358E-1,9.558083534E0
2.759941323E1,-2.152110100E0,4.303098619E-1,9.557909966E0
2.761968260E1,-2.152786255E0,4.299201667E-1,9.557775497E0
2.763995203E1,-2.153820038E0,4.285940528E-1,9.557602882E0
2.766022146E1,-2.154133797E0,4.272524714E-1,9.557592392E0
2.768049083E1,-2.153902769E0,4.260536730E-1,9.557696342E0
2.770076026E1,-2.153701544E0,4.252657294E-1,9.557776451E0
2.772102963E1,-2.153955698E0,4.251028001E-1,9.557727814E0
2.774129906E1,-2.153585911E0,4.245741069E-1,9.557834625E0
2.776156844E1,-2.152948380E0,4.242772758E-1,9.557990074E0
2.778183781E1,-2.152549505E0,4.243214130E-1,9.558078766E0
2.780210724E1,-2.152230263E0,4.243155122E-1,9.558151245E0
2.782237661E1,-2.152452469E0,4.245941043E-1,9.558088303E0
2.784264599E1,-2.152693272E0,4.255698025E-1,9.557991028E0
2.786291541E1,-2.152809381E0,4.263606071E-1,9.557929039E0
2.788318479E1,-2.153245687E0,4.253618121E-1,9.557876587E0
2.790345416E1,-2.154589415E0,4.243663847E-1,9.557617188E0
2.792372359E1,-2.155785322E0,4.230521619E-1,9.557405472E0
2.794399297E1,-2.155930519E0,4.220210016E-1,9.557418823E0
2.796426234E1,-2.155351639E0,4.210954309E-1,9.557589531E0
2.798453177E1,-2.154844999E0,4.207617640E-1,9.557718277E0
2.800480114E1,-2.154551983E0,4.205985069E-1,9.557792664E0
2.802507052E1,-2.153914452E0,4.210972786E-1,9.557913780E0
2.804533989E1,-2.153793335E0,4.214967191E-1,9.557923317E0
2.806560927E1,-2.154118299E0,4.220440090E-1,9.557826996E0
2.808587870E1,-2.154570818E0,4.224403203E-1,9.557706833E0
2.810614807E1,-2.154476166E0,4.230318964E-1,9.557701111E0
2.812641744E1,-2.154957056E0,4.231932163E-1,9.557586670E0
2.814668682E1,-2.155359030E0,4.229819477E-1,9.557505608E0
2.816695620E1,-2.156273842E0,4.231225252E-1,9.557292938E0
2.818722557E1,-2.157225847E0,4.228768945E-1,9.557088852E0
2.820749494E1,-2.158628941E0,4.225615561E-1,9.556785583E0
2.822776432E1,-2.159816265E0,4.221616089E-1,9.556533813E0
2.824803375E1,-2.160586596E0,4.216505289E-1,9.556384087E0
2.826830312E1,-2.160406113E0,4.219278097E-1,9.556411743E0
2.828857250E1,-2.160253286E0,4.220083356E-1,9.556443214E0
2.830884187E1,-2.159741402E0,4.222301245E-1,9.556549072E0
2.832911125E1,-2.159509659E0,4.222581089E-1,9.556599617E0
2.834938062E1,-2.159273386E0,4.224276245E-1,9.556646347E0
2.836965000E1,-2.158900738E0,4.224736691E-1,9.556728363E0
2.838991937E1,-2.158563614E0,4.223083556E-1,9.556811333E0
2.841018875E1,-2.158419847E0,4.227688015E-1,9.556823730E0
2.843045812E1,-2.158282757E0,4.232487977E-1,9.556833267E0
2.845072750E1,-2.158766508E0,4.240437448E-1,9.556689262E0
2.847099692E1,-2.158669472E0,4.236682355E-1,9.556727409E0
2.849126630E1,-2.157585144E0,4.234828353E-1,9.556980133E0
2.851153567E1,-2.156589031E0,4.234814048E-1,9.557206154E0
2.853180505E1,-2.155632973E0,4.233203232E-1,9.557428360E0
2.855207442E1,-2.154703617E0,4.230217934E-1,9.557650566E0
2.857234380E1,-2.154614687E0,4.231660068E-1,9.557664871E0
2.859261317E1,-2.155466318E0,4.234463573E-1,9.557460785E0
2.861288255E1,-2.156026363E0,4.243256748E-1,9.557294846E0
2.863315192E1,-2.155277729E0,4.246784449E-1,9.557447433E0
2.865342130E1,-2.154231787E0,4.244920313E-1,9.557692528E0
2.867369067E1,-2.153237820E0,4.245457649E-1,9.557913780E0
2.869396000E1,-2.152505398E0,4.244617224E-1,9.558082581E0
2.871422937E1,-2.152083158E0,4.235899746E-1,9.558216095E0
2.873449875E1,-2.152917147E0,4.235056639E-1,9.558032036E0
2.875476812E1,-2.154279709E0,4.238030016E-1,9.557711601E0
2.877503750E1,-2.155050039E0,4.247291088E-1,9.557497025E0
2.879530687E1,-2.155576229E0,4.251119494E-1,9.557360649E0
2.881570687E1,-2.155706167E0,4.258392453E-1,9.557299614E0
2.883584562E1,-2.155924082E0,4.261197746E-1,9.557237625E0
2.885611500E1,-2.155410767E0,4.266162217E-1,9.557331085E0
2.887638437E1,-2.154660940E0,4.277960956E-1,9.557448387E0
2.889665375E1,-2.154487371E0,4.288505018E-1,9.557439804E0
2.891705375E1,-2.154297829E0,4.294214249E-1,9.557457924E0
2.893719244E1,-2.153826237E0,4.300462902E-1,9.557535172E0
2.895746182E1,-2.154925585E0,4.305300713E-1,9.557266235E0
2.897773120E1,-2.156196833E0,4.298742712E-1,9.557007790E0
2.899800057E1,-2.158035755E0,4.292095304E-1,9.556623459E0
2.901840057E1,-2.160103798E0,4.283532798E-1,9.556194305E0
2.903853932E1,-2.162104130E0,4.275878072E-1,9.555776596E0
2.905880864E1,-2.162734032E0,4.269968867E-1,9.555660248E0
2.907907802E1,-2.160906315E0,4.267059267E-1,9.556087494E0
2.909934739E1,-2.159418344E0,4.269905984E-1,9.556409836E0
2.911974739E1,-2.158377647E0,4.267768562E-1,9.556653976E0
2.913988614E1,-2.157046080E0,4.260926545E-1,9.556986809E0
2.916015547E1,-2.156100035E0,4.245297015E-1,9.557270050E0
2.918042484E1,-2.156157255E0,4.232735038E-1,9.557312012E0
2.920069422E1,-2.157303333E0,4.236103296E-1,9.557039261E0
2.922096359E1,-2.158198833E0,4.245615005E-1,9.556793213E0
2.924123297E1,-2.158208370E0,4.237374365E-1,9.556829453E0
2.926150229E1,-2.157813787E0,4.224253297E-1,9.556976318E0
2.928177166E1,-2.157318830E0,4.219404459E-1,9.557108879E0
2.930204104E1,-2.155646563E0,4.219842553E-1,9.557484627E0
2.932231036E1,-2.154820919E0,4.217917323E-1,9.557679176E0
2.934257974E1,-2.155990124E0,4.226576090E-1,9.557376862E0
2.936284911E1,-2.159035444E0,4.239467382E-1,9.556632996E0
2.938311844E1,-2.162860632E0,4.250225723E-1,9.555719376E0
2.940338781E1,-2.165857315E0,4.263856113E-1,9.554980278E0
2.942365719E1,-2.166720867E0,4.276601374E-1,9.554726601E0
2.944392651E1,-2.166815996E0,4.288771451E-1,9.554651260E0
2.946419588E1,-2.165557861E0,4.306175411E-1,9.554858208E0
2.948446521E1,-2.163700819E0,4.331987500E-1,9.555162430E0
2.950473458E1,-2.162536144E0,4.350020289E-1,9.555343628E0
2.952500396E1,-2.162760019E0,4.349724650E-1,9.555294037E0
2.954527328E1,-2.164413929E0,4.339286983E-1,9.554967880E0
2.956554260E1,-2.166517735E0,4.317598641E-1,9.554589272E0
2.958581198E1,-2.167599678E0,4.283110201E-1,9.554497719E0
2.960608135E1,-2.166377544E0,4.234523177E-1,9.554991722E0
2.962635067E1,-2.163124323E0,4.182318747E-1,9.555958748E0
2.964662005E1,-2.158545971E0,4.135436416E-1,9.557198524E0
2.966688937E1,-2.150866270E0,4.105055034E-1,9.559062004E0
2.968715875E1,-2.141346931E0,4.081951678E-1,9.561297417E0
2.970742807E1,-2.131704092E0,4.048260152E-1,9.563594818E0
2.972769744E1,-2.125311375E0,3.990531266E-1,9.565258980E0
2.974796677E1,-2.122654915E0,3.919851184E-1,9.566142082E0
2.976823614E1,-2.120968103E0,3.843275905E-1,9.566826820E0
2.978850547E1,-2.119745970E0,3.757727742E-1,9.567437172E0
2.980877484E1,-2.120823860E0,3.679130077E-1,9.567503929E0
2.982904416E1,-2.122713566E0,3.618863821E-1,9.567315102E0
2.984931354E1,-2.123762608E0,3.569571972E-1,9.567267418E0
2.986958286E1,-2.122991085E0,3.537411392E-1,9.567557335E0
2.988985224E1,-2.121177912E0,3.512427807E-1,9.568052292E0
2.991012156E1,-2.118618011E0,3.490251601E-1,9.568700790E0
2.993039088E1,-2.116873026E0,3.468164206E-1,9.569167137E0
2.995066026E1,-2.117097378E0,3.447775841E-1,9.569190979E0
2.997092958E1,-2.116373539E0,3.409903646E-1,9.569485664E0
2.999119890E1,-2.109669685E0,3.334713876E-1,9.571231842E0
3.001146828E1,-2.092393637E0,3.222396970E-1,9.575407982E0
3.003173760E1,-2.067497730E0,3.110776544E-1,9.581182480E0
3.005200692E1,-2.039642334E0,3.035003841E-1,9.587394714E0
3.007227630E1,-2.013803482E0,3.025070727E-1,9.592886925E0
3.009254562E1,-1.990844607E0,3.044129610E-1,9.597618103E0
3.011281494E1,-1.975847125E0,3.097746670E-1,9.600543976E0
3.013308427E1,-1.974357605E0,3.188214898E-1,9.600554466E0
3.015335364E1,-1.983660221E0,3.299172819E-1,9.598261833E0
3.017362297E1,-1.999478221E0,3.409360945E-1,9.594594002E0
3.019389229E1,-2.013398409E0,3.505205512E-1,9.591337204E0
3.021416161E1,-2.016881466E0,3.555715084E-1,9.590419769E0
3.023443099E1,-2.008878469E0,3.547180891E-1,9.592130661E0
3.025470031E1,-1.998488903E0,3.506416082E-1,9.594450951E0
3.027496963E1,-1.993215680E0,3.446329832E-1,9.595765114E0
3.029523896E1,-1.990425110E0,3.387741446E-1,9.596552849E0
3.031563896E1,-1.989267588E0,3.330971003E-1,9.596991539E0
3.033577760E1,-1.989651561E0,3.294418454E-1,9.597038269E0
3.035604692E1,-1.991667390E0,3.269383311E-1,9.596705437E0
3.037631625E1,-1.994251013E0,3.257851303E-1,9.596208572E0
3.039658557E1,-1.997132301E0,3.262111247E-1,9.595595360E0
3.041698557E1,-2.001544476E0,3.279714882E-1,9.594614983E0
3.043712427E1,-2.006689548E0,3.301447630E-1,9.593465805E0
3.045739359E1,-2.012195349E0,3.321656585E-1,9.592243195E0
3.047766291E1,-2.017138243E0,3.336353898E-1,9.591154099E0
3.049793224E1,-2.020400524E0,3.337115347E-1,9.590464592E0
3.051833224E1,-2.022196293E0,3.316035569E-1,9.590158463E0
3.053847088E1,-2.024760008E0,3.287422359E-1,9.589715958E0
3.055874021E1,-2.028444052E0,3.256116807E-1,9.589045525E0
3.057900953E1,-2.031948805E0,3.239832520E-1,9.588358879E0
3.059927885E1,-2.034328222E0,3.227267861E-1,9.587895393E0
3.061954823E1,-2.035919428E0,3.211930990E-1,9.587609291E0
3.063981755E1,-2.036709070E0,3.185243309E-1,9.587531090E0
3.066008687E1,-2.034518719E0,3.156264126E-1,9.588091850E0
3.068035620E1,-2.029636860E0,3.135841191E-1,9.589193344E0
3.070062552E1,-2.023149490E0,3.133062720E-1,9.590572357E0
3.072089484E1,-2.014103651E0,3.128080368E-1,9.592493057E0
3.074116416E1,-2.004188061E0,3.121678233E-1,9.594590187E0
3.076143349E1,-1.996825099E0,3.106659353E-1,9.596175194E0
3.078170281E1,-1.994026899E0,3.092707694E-1,9.596801758E0
3.080197213E1,-1.992683768E0,3.086937964E-1,9.597098351E0
3.082224146E1,-1.989832520E0,3.070852458E-1,9.597742081E0
3.084251078E1,-1.986667037E0,3.041884601E-1,9.598490715E0
3.086278010E1,-1.983824015E0,3.016563654E-1,9.599158287E0
3.088304942E1,-1.979834914E0,2.989819646E-1,9.600065231E0
3.090331875E1,-1.973291993E0,2.962810099E-1,9.601495743E0
3.092358807E1,-1.967170715E0,2.924703658E-1,9.602868080E0
3.094385739E1,-1.964259148E0,2.875948250E-1,9.603611946E0
3.096412672E1,-1.963168740E0,2.836441398E-1,9.603952408E0
3.098439604E1,-1.962764025E0,2.817267776E-1,9.604091644E0
3.100466531E1,-1.964091539E0,2.798145413E-1,9.603876114E0
3.102493463E1,-1.968276381E0,2.802606225E-1,9.603006363E0
3.104520396E1,-1.973584175E0,2.828299105E-1,9.601841927E0
3.106547328E1,-1.976339459E0,2.853279412E-1,9.601200104E0
3.108574260E1,-1.978987455E0,2.864829600E-1,9.600620270E0
3.110601192E1,-1.984910607E0,2.875229418E-1,9.599367142E0
3.112628125E1,-1.991800427E0,2.895642221E-1,9.597878456E0
3.114655047E1,-1.996718287E0,2.921269238E-1,9.596778870E0
3.116681984E1,-2.001740932E0,2.938737571E-1,9.595680237E0
3.118708916E1,-2.010954618E0,2.947214842E-1,9.593727112E0
3.120735849E1,-2.022336960E0,2.964006960E-1,9.591281891E0
3.124289698E1,-2.033605814E0,2.970170975E-1,9.588879585E0
3.126316640E1,-2.046394587E0,2.977083027E-1,9.586137772E0
3.128343573E1,-2.062435865E0,3.003572226E-1,9.582615852E0
3.130370505E1,-2.076840639E0,3.046685159E-1,9.579367638E0
3.132397432E1,-2.087957859E0,3.098712265E-1,9.576784134E0
3.134424364E1,-2.101122141E0,3.142924011E-1,9.573760986E0
3.136451297E1,-2.116049767E0,3.161202967E-1,9.570410728E0
3.138478224E1,-2.132205963E0,3.175444901E-1,9.566778183E0
3.140505156E1,-2.148275375E0,3.211869895E-1,9.563060760E0
3.142532083E1,-2.162155151E0,3.250162601E-1,9.559803963E0
3.144559015E1,-2.173154831E0,3.289168775E-1,9.557174683E0
3.146585948E1,-2.181523800E0,3.328272104E-1,9.555133820E0
3.148612875E1,-2.186419010E0,3.366437852E-1,9.553880692E0
3.150639807E1,-2.189292431E0,3.401769698E-1,9.553096771E0
3.152666734E1,-2.189357996E0,3.426714838E-1,9.552991867E0
3.154693666E1,-2.187522411E0,3.441320658E-1,9.553361893E0
3.156720599E1,-2.186322451E0,3.450089991E-1,9.553604126E0
3.158747526E1,-2.185852051E0,3.468103111E-1,9.553646088E0
3.160774458E1,-2.185730219E0,3.489738405E-1,9.553595543E0
3.162801390E1,-2.185303211E0,3.513264358E-1,9.553607941E0
3.164828317E1,-2.185070276E0,3.540844917E-1,9.553558350E0
3.166855250E1,-2.187222481E0,3.561429381E-1,9.552989960E0
3.168882182E1,-2.190158606E0,3.573599458E-1,9.552270889E0
3.170909109E1,-2.193572760E0,3.584821224E-1,9.551445961E0
3.172936041E1,-2.196444035E0,3.598946035E-1,9.550732613E0
3.174962974E1,-2.199321985E0,3.614090979E-1,9.550013542E0
3.176989906E1,-2.200989723E0,3.632568717E-1,9.549558640E0
3.179016833E1,-2.202136993E0,3.649061024E-1,9.549231529E0
3.181056833E1,-2.201944590E0,3.673328161E-1,9.549182892E0
3.183070698E1,-2.201335430E0,3.697151244E-1,9.549230576E0
3.185097625E1,-2.198515654E0,3.716813922E-1,9.549804688E0
3.187124557E1,-2.194891453E0,3.729999661E-1,9.550587654E0
3.189151489E1,-2.191100359E0,3.754958808E-1,9.551359177E0
3.191191489E1,-2.187521696E0,3.776027262E-1,9.552096367E0
3.193205349E1,-2.185059071E0,3.785484135E-1,9.552622795E0
3.195232281E1,-2.182849646E0,3.782438934E-1,9.553140640E0
3.197259213E1,-2.181681871E0,3.781863153E-1,9.553409576E0
3.199286146E1,-2.181804180E0,3.774589896E-1,9.553409576E0
3.201326146E1,-2.183034897E0,3.766919672E-1,9.553158760E0
3.203340010E1,-2.184456348E0,3.753288090E-1,9.552887917E0
3.205366942E1,-2.185216904E0,3.734508753E-1,9.552787781E0
3.207393875E1,-2.184780359E0,3.726698160E-1,9.552916527E0
3.209420807E1,-2.183167696E0,3.716699183E-1,9.553325653E0
3.211460807E1,-2.182420015E0,3.708344698E-1,9.553528786E0
3.213474672E1,-2.181494951E0,3.698259294E-1,9.553779602E0
3.215501604E1,-2.180604458E0,3.696444631E-1,9.553989410E0
3.217528536E1,-2.179951429E0,3.699888289E-1,9.554125786E0
3.219555469E1,-2.180421352E0,3.717290759E-1,9.553950310E0
3.221582401E1,-2.182232857E0,3.725478351E-1,9.553504944E0
3.223609338E1,-2.186084747E0,3.720399439E-1,9.552644730E0
3.225636270E1,-2.191190004E0,3.708403707E-1,9.551520348E0
3.227663203E1,-2.198229551E0,3.699376583E-1,9.549938202E0
3.229690140E1,-2.205328703E0,3.697432280E-1,9.548308372E0
3.231717073E1,-2.213375807E0,3.704502583E-1,9.546419144E0
3.233744005E1,-2.222597122E0,3.722420633E-1,9.544206619E0
3.235770942E1,-2.229029179E0,3.750813305E-1,9.542595863E0
3.237797875E1,-2.233314991E0,3.780174255E-1,9.541477203E0
3.239824812E1,-2.236871958E0,3.804703355E-1,9.540546417E0
3.241851744E1,-2.238669872E0,3.828813732E-1,9.540029526E0
3.243878682E1,-2.239602327E0,3.845264912E-1,9.539743423E0
3.245905614E1,-2.238974094E0,3.863118589E-1,9.539818764E0
3.247932552E1,-2.238138199E0,3.865661919E-1,9.540004730E0
3.249959479E1,-2.239548206E0,3.860716522E-1,9.539693832E0
3.251986422E1,-2.241410494E0,3.854502738E-1,9.539281845E0
3.254013359E1,-2.243455887E0,3.852578700E-1,9.538808823E0
3.256040291E1,-2.245233059E0,3.838959336E-1,9.538445473E0
3.258067229E1,-2.246757269E0,3.821242154E-1,9.538157463E0
3.260094166E1,-2.245871067E0,3.807533979E-1,9.538420677E0
3.262121104E1,-2.243598461E0,3.790228963E-1,9.539024353E0
3.264148036E1,-2.239764929E0,3.787772655E-1,9.539936066E0
3.266174974E1,-2.236089230E0,3.782782853E-1,9.540817261E0
3.268213786E1,-2.233260155E0,3.776348233E-1,9.541505814E0
3.270228849E1,-2.229898930E0,3.765712082E-1,9.542334557E0
3.272255786E1,-2.226023436E0,3.755607903E-1,9.543278694E0
3.274282724E1,-2.223339319E0,3.744859397E-1,9.543946266E0
3.276309661E1,-2.220867395E0,3.735270500E-1,9.544559479E0
3.278336599E1,-2.219858170E0,3.734717667E-1,9.544795990E0
3.280363536E1,-2.219493866E0,3.726024330E-1,9.544915199E0
3.282390474E1,-2.218664169E0,3.718564510E-1,9.545137405E0
3.284417411E1,-2.217381001E0,3.705298603E-1,9.545486450E0
3.286444349E1,-2.217683077E0,3.697437048E-1,9.545446396E0
3.288471281E1,-2.217829704E0,3.687747419E-1,9.545450211E0
3.290498224E1,-2.217235088E0,3.683448732E-1,9.545604706E0
3.292525166E1,-2.216981888E0,3.689759970E-1,9.545639992E0
3.294552104E1,-2.215567350E0,3.695080280E-1,9.545948029E0
3.296579041E1,-2.215315104E0,3.701319396E-1,9.545982361E0
3.298605979E1,-2.215564728E0,3.712861240E-1,9.545880318E0
3.300632922E1,-2.214249849E0,3.727463186E-1,9.546127319E0
3.302659859E1,-2.214164495E0,3.736505508E-1,9.546112061E0
3.304686797E1,-2.215685606E0,3.732227087E-1,9.545775414E0
3.306713739E1,-2.218243837E0,3.715674281E-1,9.545245171E0
3.308740677E1,-2.224125147E0,3.688826561E-1,9.543981552E0
3.310767614E1,-2.230436325E0,3.670566380E-1,9.542578697E0
3.312807614E1,-2.235534906E0,3.662535846E-1,9.541416168E0
3.314821500E1,-2.238339186E0,3.651599288E-1,9.540801048E0
3.316848437E1,-2.238778830E0,3.645518720E-1,9.540720940E0
3.318875375E1,-2.237499952E0,3.634298146E-1,9.541064262E0
3.320902317E1,-2.233622074E0,3.622876108E-1,9.542016029E0
3.322929260E1,-2.229098797E0,3.599389195E-1,9.543163300E0
3.324956198E1,-2.225355387E0,3.584020436E-1,9.544094086E0
3.326983140E1,-2.222624540E0,3.585860133E-1,9.544722557E0
3.329010078E1,-2.220010042E0,3.572336435E-1,9.545382500E0
3.331050078E1,-2.218792200E0,3.555265069E-1,9.545729637E0
3.333063963E1,-2.217122555E0,3.536407948E-1,9.546187401E0
3.335090901E1,-2.215590954E0,3.530071080E-1,9.546566010E0
3.337117844E1,-2.214946270E0,3.543154895E-1,9.546668053E0
3.339144786E1,-2.214915752E0,3.572306633E-1,9.546566010E0
3.341184786E1,-2.216799498E0,3.611599505E-1,9.545980453E0
3.343198666E1,-2.221664906E0,3.647219837E-1,9.544713974E0
3.345225609E1,-2.226706743E0,3.693385720E-1,9.543361664E0
3.347252547E1,-2.234296322E0,3.721988797E-1,9.541476250E0
3.349279489E1,-2.244221926E0,3.740315139E-1,9.539074898E0
3.351319489E1,-2.253021002E0,3.734719753E-1,9.537023544E0
3.353333375E1,-2.260645390E0,3.728131056E-1,9.535244942E0
3.355360317E1,-2.268182755E0,3.709433675E-1,9.533527374E0
3.357387255E1,-2.271829605E0,3.702421188E-1,9.532685280E0
3.359414198E1,-2.274391651E0,3.706556857E-1,9.532059669E0
3.361441140E1,-2.276456356E0,3.702794313E-1,9.531580925E0
3.363468083E1,-2.273303747E0,3.725820482E-1,9.532242775E0
3.365495026E1,-2.266497135E0,3.755467236E-1,9.533747673E0
3.367521968E1,-2.258165836E0,3.777986467E-1,9.535635948E0
3.369548911E1,-2.249487400E0,3.776322305E-1,9.537693024E0
3.371575854E1,-2.240375280E0,3.762781620E-1,9.539891243E0
3.373602797E1,-2.232180595E0,3.755325675E-1,9.541841507E0
3.375629739E1,-2.224637985E0,3.740738928E-1,9.543659210E0
3.377656677E1,-2.220579863E0,3.724151850E-1,9.544670105E0
3.379683625E1,-2.221466541E0,3.702949286E-1,9.544545174E0
3.381710567E1,-2.222464085E0,3.692667186E-1,9.544352531E0
3.383737505E1,-2.222738981E0,3.693835735E-1,9.544283867E0
3.385764448E1,-2.223271847E0,3.683191240E-1,9.544201851E0
3.387791390E1,-2.224838257E0,3.671470881E-1,9.543881416E0
3.389818333E1,-2.226032972E0,3.659968674E-1,9.543647766E0
3.391858333E1,-2.225712776E0,3.651688099E-1,9.543754578E0
3.393872224E1,-2.224996090E0,3.650943339E-1,9.543923378E0
3.395899166E1,-2.224862099E0,3.657355905E-1,9.543931007E0
3.397926109E1,-2.225476980E0,3.665313125E-1,9.543757439E0
3.399953052E1,-2.226446152E0,3.679009676E-1,9.543478012E0
3.401979994E1,-2.226947784E0,3.694229722E-1,9.543301582E0
3.404006937E1,-2.228160858E0,3.706200123E-1,9.542972565E0
3.406033880E1,-2.229693651E0,3.699322343E-1,9.542641640E0
3.408060823E1,-2.231453896E0,3.673708737E-1,9.542328835E0
3.410087765E1,-2.232382536E0,3.662838042E-1,9.542153358E0
3.412114713E1,-2.230228901E0,3.651164174E-1,9.542701721E0
3.414141656E1,-2.225922585E0,3.637153208E-1,9.543760300E0
3.416168599E1,-2.222616911E0,3.634358644E-1,9.544541359E0
3.418195541E1,-2.219342232E0,3.625462651E-1,9.545338631E0
3.420222484E1,-2.214586020E0,3.617301881E-1,9.546472549E0
3.422249432E1,-2.209725618E0,3.625901043E-1,9.547566414E0
3.424276375E1,-2.207317352E0,3.653856516E-1,9.548016548E0
3.426303317E1,-2.208062172E0,3.687430918E-1,9.547716141E0
3.428330260E1,-2.209419966E0,3.736499548E-1,9.547210693E0
3.430357208E1,-2.212524414E0,3.779006004E-1,9.546324730E0
3.432384151E1,-2.217769146E0,3.803149462E-1,9.545011520E0
3.434411094E1,-2.223412037E0,3.817249537E-1,9.543642044E0
3.436438036E1,-2.230383396E0,3.824307323E-1,9.541987419E0
3.438464984E1,-2.237332344E0,3.832933307E-1,9.540327072E0
3.440491927E1,-2.243015051E0,3.835397065E-1,9.538981438E0
3.442518875E1,-2.246147394E0,3.853213787E-1,9.538171768E0
3.444545812E1,-2.246144295E0,3.869439960E-1,9.538107872E0
3.446572760E1,-2.241796970E0,3.885090351E-1,9.539066315E0
3.448599708E1,-2.234529018E0,3.883853257E-1,9.540776253E0
3.450626651E1,-2.226974487E0,3.872573674E-1,9.542589188E0
3.452653599E1,-2.221888542E0,3.872170448E-1,9.543776512E0
3.454680536E1,-2.218527079E0,3.884691894E-1,9.544507027E0
3.456707489E1,-2.218220234E0,3.883062303E-1,9.544585228E0
3.458734432E1,-2.218702078E0,3.884468675E-1,9.544467926E0
3.460761380E1,-2.218567133E0,3.901775479E-1,9.544427872E0
3.462788323E1,-2.217898130E0,3.921026587E-1,9.544505119E0
3.464815270E1,-2.216773033E0,3.954825103E-1,9.544627190E0
3.466842213E1,-2.216992617E0,3.988571167E-1,9.544435501E0
3.468869161E1,-2.217767000E0,4.000245333E-1,9.544207573E0
3.470909161E1,-2.216527224E0,4.021688402E-1,9.544404984E0
3.472923052E1,-2.215236664E0,4.038135707E-1,9.544633865E0
3.474950000E1,-2.214673996E0,4.048160613E-1,9.544721603E0
3.476976948E1,-2.213036299E0,4.052744806E-1,9.545083046E0
3.479003896E1,-2.211863041E0,4.051191211E-1,9.545361519E0
3.481043896E1,-2.211019039E0,4.049197733E-1,9.545566559E0
3.483057786E1,-2.211283922E0,4.053245783E-1,9.545487404E0
3.485084734E1,-2.212041378E0,4.069591165E-1,9.545242310E0
3.487111682E1,-2.213066816E0,4.093911648E-1,9.544900894E0
3.489138630E1,-2.213474989E0,4.114433527E-1,9.544716835E0
3.491178630E1,-2.213970184E0,4.127619565E-1,9.544546127E0
3.493196469E1,-2.214295387E0,4.140294790E-1,9.544414520E0
3.495219479E1,-2.214249372E0,4.163058698E-1,9.544327736E0
3.497246427E1,-2.215384960E0,4.176679552E-1,9.544004440E0
3.499273375E1,-2.216612577E0,4.183889627E-1,9.543686867E0
3.501313375E1,-2.217044353E0,4.189089835E-1,9.543563843E0
3.503327270E1,-2.217126608E0,4.195779264E-1,9.543515205E0
3.505354219E1,-2.217367411E0,4.213151038E-1,9.543383598E0
3.507381166E1,-2.217602968E0,4.228641689E-1,9.543259621E0
3.509408109E1,-2.219616652E0,4.233024120E-1,9.542772293E0
3.511448109E1,-2.221696854E0,4.228455424E-1,9.542308807E0
3.513462010E1,-2.222653627E0,4.227156341E-1,9.542091370E0
3.515488958E1,-2.223847628E0,4.236205220E-1,9.541773796E0
3.517515911E1,-2.224652290E0,4.250478745E-1,9.541522026E0
3.519542859E1,-2.225854874E0,4.255844355E-1,9.541217804E0
3.521569807E1,-2.227575779E0,4.254933596E-1,9.540821075E0
3.523596760E1,-2.229221582E0,4.253988564E-1,9.540440559E0
3.525623708E1,-2.229569912E0,4.256537855E-1,9.540347099E0
3.527650661E1,-2.228844643E0,4.261091650E-1,9.540495872E0
3.529677614E1,-2.227843285E0,4.263395071E-1,9.540719986E0
3.531704562E1,-2.225569963E0,4.249932468E-1,9.541310310E0
3.533731515E1,-2.222041368E0,4.235935509E-1,9.542196274E0
3.535758468E1,-2.217303753E0,4.215397835E-1,9.543387413E0
3.537785416E1,-2.212174892E0,4.234501123E-1,9.544493675E0
3.539812370E1,-2.212970734E0,4.239032865E-1,9.544288635E0
3.541839323E1,-2.211611271E0,4.215848446E-1,9.544706345E0
3.543866270E1,-2.209225893E0,4.189111888E-1,9.545376778E0
3.545893224E1,-2.210831881E0,4.170724154E-1,9.545085907E0
3.547920177E1,-2.213936329E0,4.166503549E-1,9.544384003E0
3.549947130E1,-2.213991880E0,4.151952267E-1,9.544434547E0
3.551974083E1,-2.212784529E0,4.101613462E-1,9.544932365E0
3.554001036E1,-2.211366653E0,4.046614170E-1,9.545495987E0
3.556027989E1,-2.206823349E0,3.977261782E-1,9.546838760E0
3.558054942E1,-2.202310562E0,3.903882802E-1,9.548183441E0
3.560081901E1,-2.202378988E0,3.839089572E-1,9.548430443E0
3.562108854E1,-2.203595161E0,3.807036579E-1,9.548277855E0
3.564135807E1,-2.204421520E0,3.775593638E-1,9.548213005E0
3.566162760E1,-2.205697060E0,3.742835224E-1,9.548047066E0
3.568189719E1,-2.205489635E0,3.716250658E-1,9.548198700E0
3.570216672E1,-2.203576565E0,3.693381250E-1,9.548728943E0
3.572243630E1,-2.202395916E0,3.660906255E-1,9.549126625E0
3.574270583E1,-2.201792717E0,3.625463545E-1,9.549400330E0
3.576297541E1,-2.200459957E0,3.575514555E-1,9.549897194E0
3.578324494E1,-2.199398518E0,3.548552990E-1,9.550241470E0
3.580351453E1,-2.196456909E0,3.530721962E-1,9.550984383E0
3.582378406E1,-2.192130804E0,3.497472107E-1,9.552100182E0
3.584405364E1,-2.187683105E0,3.461805880E-1,9.553251266E0
3.586432323E1,-2.182815790E0,3.427739441E-1,9.554486275E0
3.588459276E1,-2.175694704E0,3.395086825E-1,9.556226730E0
3.590486234E1,-2.170443296E0,3.357496262E-1,9.557554245E0
3.592513192E1,-2.167219400E0,3.321436942E-1,9.558411598E0
3.594540151E1,-2.165320635E0,3.294434249E-1,9.558935165E0
3.596567109E1,-2.165168524E0,3.280900419E-1,9.559016228E0
3.598594067E1,-2.167387486E0,3.268015087E-1,9.558558464E0
3.600621020E1,-2.170236349E0,3.262822926E-1,9.557928085E0
3.602647984E1,-2.173798084E0,3.263009489E-1,9.557118416E0
3.604674942E1,-2.177580833E0,3.275999129E-1,9.556213379E0
3.606701901E1,-2.181960344E0,3.302862644E-1,9.555121422E0
3.608728859E1,-2.187795877E0,3.330233395E-1,9.553691864E0
3.610755817E1,-2.194350958E0,3.377581537E-1,9.552021980E0
3.612782776E1,-2.200190067E0,3.422999680E-1,9.550517082E0
3.614809734E1,-2.206110001E0,3.460381031E-1,9.549016953E0
3.616836692E1,-2.212476730E0,3.473557830E-1,9.547495842E0
3.618863656E1,-2.221755981E0,3.481013179E-1,9.545312881E0
3.620890614E1,-2.230195522E0,3.492673934E-1,9.543302536E0
3.622917573E1,-2.236326694E0,3.497672975E-1,9.541850090E0
3.624944536E1,-2.241306067E0,3.486976326E-1,9.540719986E0
3.626971495E1,-2.243484020E0,3.476953208E-1,9.540245056E0
3.628998453E1,-2.241601944E0,3.485286832E-1,9.540657043E0
3.631038453E1,-2.240883589E0,3.520011008E-1,9.540698051E0
3.633052375E1,-2.242122173E0,3.551467657E-1,9.540289879E0
3.635079338E1,-2.242194653E0,3.549282253E-1,9.540281296E0
3.637106297E1,-2.242481232E0,3.539061248E-1,9.540252686E0
3.639133260E1,-2.244542360E0,3.550631106E-1,9.539724350E0
3.641173260E1,-2.250379086E0,3.584968448E-1,9.538221359E0
3.643187182E1,-2.259006977E0,3.615813851E-1,9.536064148E0
3.645214146E1,-2.270359993E0,3.645712435E-1,9.533254623E0
3.647241109E1,-2.282798052E0,3.666268587E-1,9.530204773E0
3.649268073E1,-2.295234919E0,3.676138818E-1,9.527179718E0
3.651308073E1,-2.308876991E0,3.718813956E-1,9.523715973E0
3.653321994E1,-2.322545290E0,3.793083429E-1,9.520098686E0
3.655348958E1,-2.335126638E0,3.891681433E-1,9.516623497E0
3.657375922E1,-2.347942352E0,4.011910260E-1,9.512970924E0
3.659402885E1,-2.361188889E0,4.165206552E-1,9.509032249E0
3.661442885E1,-2.372886896E0,4.348034859E-1,9.505300522E0
3.663456916E1,-2.381847143E0,4.554917216E-1,9.502089500E0
3.665483859E1,-2.387782097E0,4.768741131E-1,9.499551773E0
3.667510807E1,-2.388844728E0,4.974337816E-1,9.498229980E0
3.669537760E1,-2.387420654E0,5.127317309E-1,9.497774124E0
3.671577760E1,-2.386497498E0,5.213792324E-1,9.497535706E0
3.673591677E1,-2.382454872E0,5.380009413E-1,9.497623444E0
3.675618635E1,-2.373456717E0,5.671977997E-1,9.498177528E0
3.677645588E1,-2.360103846E0,5.956201553E-1,9.499765396E0
3.679672547E1,-2.345691919E0,6.183592081E-1,9.501881599E0
3.681699505E1,-2.329301357E0,6.356482506E-1,9.504772186E0
3.683726468E1,-2.309293270E0,6.511026621E-1,9.508606911E0
3.685753432E1,-2.288970232E0,6.631613970E-1,9.512686729E0
3.687780396E1,-2.271527052E0,6.707313061E-1,9.516336441E0
3.689807364E1,-2.258025169E0,6.763546467E-1,9.519152641E0
3.691834328E1,-2.246837616E0,6.783244014E-1,9.521658897E0
3.693861286E1,-2.233543634E0,6.747183800E-1,9.525041580E0
3.695888255E1,-2.218523502E0,6.675801873E-1,9.529053688E0
3.697915219E1,-2.201899052E0,6.589823961E-1,9.533508301E0
3.699942187E1,-2.185138226E0,6.520358920E-1,9.537840843E0
3.701969151E1,-2.168272257E0,6.459040046E-1,9.542106628E0
3.703996120E1,-2.155606270E0,6.390302777E-1,9.545437813E0
3.706023083E1,-2.147575140E0,6.306628585E-1,9.547804832E0
3.708050052E1,-2.138321161E0,6.229857206E-1,9.550384521E0
3.710077020E1,-2.129628181E0,6.185472608E-1,9.552616119E0
3.712103979E1,-2.122088194E0,6.159945726E-1,9.554457664E0
3.714130948E1,-2.114948511E0,6.131069660E-1,9.556226730E0
3.716157916E1,-2.106735706E0,6.102993488E-1,9.558221817E0
3.718184885E1,-2.098013639E0,6.072026491E-1,9.560337067E0
3.720211849E1,-2.092299938E0,6.038101315E-1,9.561803818E0
3.722238817E1,-2.089931965E0,6.016417146E-1,9.562458038E0
3.724265786E1,-2.088798285E0,5.989310741E-1,9.562875748E0
3.726292755E1,-2.087437153E0,5.966885686E-1,9.563313484E0
3.728319724E1,-2.084984303E0,5.938236117E-1,9.564026833E0
3.730346692E1,-2.083062410E0,5.918295979E-1,9.564568520E0
3.732373661E1,-2.079518318E0,5.907206535E-1,9.565408707E0
3.734400630E1,-2.077149153E0,5.908443928E-1,9.565916061E0
3.736427599E1,-2.075922489E0,5.918312669E-1,9.566122055E0
3.738454567E1,-2.074710846E0,5.930914283E-1,9.566305161E0
3.740481536E1,-2.074778318E0,5.945656300E-1,9.566199303E0
3.742508510E1,-2.076820612E0,5.951689482E-1,9.565718651E0
3.744535479E1,-2.079073429E0,5.960223079E-1,9.565176010E0
3.746562442E1,-2.080972672E0,5.973416567E-1,9.564681053E0
3.748589416E1,-2.084480286E0,5.975700617E-1,9.563903809E0
3.750616385E1,-2.089137793E0,5.993785858E-1,9.562773705E0
3.752643359E1,-2.093758583E0,6.014873385E-1,9.561630249E0
3.754670328E1,-2.098207474E0,6.043072343E-1,9.560478210E0
3.756697291E1,-2.103355169E0,6.068298817E-1,9.559185982E0
3.758724270E1,-2.110080719E0,6.090770364E-1,9.557561874E0
3.760751239E1,-2.115933180E0,6.111193299E-1,9.556137085E0
3.762778208E1,-2.121548176E0,6.122046113E-1,9.554821968E0
3.764805182E1,-2.127593994E0,6.125701070E-1,9.553455353E0
3.766832151E1,-2.132253647E0,6.124303341E-1,9.552424431E0
3.768859120E1,-2.135885477E0,6.132231951E-1,9.551563263E0
3.770886094E1,-2.139392138E0,6.148630381E-1,9.550671577E0
3.772913062E1,-2.143606186E0,6.163278818E-1,9.549632072E0
3.774940036E1,-2.148660660E0,6.167356968E-1,9.548469543E0
3.776967005E1,-2.151954651E0,6.155829430E-1,9.547802925E0
3.778993979E1,-2.153151751E0,6.130642295E-1,9.547695160E0
3.781033979E1,-2.152880430E0,6.103843451E-1,9.547927856E0
3.783047922E1,-2.151238918E0,6.079342365E-1,9.548454285E0
3.785074896E1,-2.149365425E0,6.073200107E-1,9.548914909E0
3.787101864E1,-2.147489309E0,6.067114472E-1,9.549376488E0
3.789128838E1,-2.145277262E0,6.051961184E-1,9.549968719E0
3.791168838E1,-2.142433167E0,6.028776765E-1,9.550754547E0
3.793182781E1,-2.139868259E0,6.009590626E-1,9.551449776E0
3.795209755E1,-2.138843536E0,5.989571214E-1,9.551805496E0
3.797236724E1,-2.139744997E0,5.966994166E-1,9.551744461E0
3.799263698E1,-2.142204046E0,5.934365988E-1,9.551397324E0
3.801303698E1,-2.145767212E0,5.904737115E-1,9.550781250E0
3.803317640E1,-2.148244619E0,5.882693529E-1,9.550358772E0
3.805344614E1,-2.149874687E0,5.869236588E-1,9.550075531E0
3.807371588E1,-2.150900602E0,5.862376094E-1,9.549886703E0
3.809398557E1,-2.152514935E0,5.846570730E-1,9.549620628E0
3.811438557E1,-2.152158976E0,5.838609934E-1,9.549749374E0
3.813452505E1,-2.150171518E0,5.847219229E-1,9.550143242E0
3.815479479E1,-2.149397612E0,5.876443982E-1,9.550139427E0
3.817506453E1,-2.149463892E0,5.911806226E-1,9.549905777E0
3.819533422E1,-2.149429560E0,5.941993594E-1,9.549725533E0
3.821560396E1,-2.148878098E0,5.956467390E-1,9.549759865E0
3.823587370E1,-2.147528648E0,5.951614976E-1,9.550093651E0
3.825614344E1,-2.145755768E0,5.927816629E-1,9.550641060E0
3.827641317E1,-2.145794868E0,5.896363854E-1,9.550826073E0
3.829668291E1,-2.148037910E0,5.864974260E-1,9.550515175E0
3.831695260E1,-2.150597572E0,5.849539638E-1,9.550033569E0
3.833722234E1,-2.152117968E0,5.835228562E-1,9.549778938E0
3.835749208E1,-2.153892040E0,5.832613707E-1,9.549394608E0
3.837776182E1,-2.155039072E0,5.839665532E-1,9.549093246E0
3.839803156E1,-2.155230522E0,5.839833021E-1,9.549048424E0
3.841843156E1,-2.155675650E0,5.835455656E-1,9.548974991E0
3.843857203E1,-2.156035185E0,5.813809037E-1,9.549026489E0
3.845884156E1,-2.154730320E0,5.779410005E-1,9.549529076E0
3.847911114E1,-2.153806925E0,5.749865770E-1,9.549916267E0
3.849938078E1,-2.151705980E0,5.734507442E-1,9.550480843E0
3.851965036E1,-2.148486376E0,5.740328431E-1,9.551171303E0
3.853992005E1,-2.145928860E0,5.763744116E-1,9.551606178E0
3.856018969E1,-2.144528389E0,5.796833634E-1,9.551719666E0
3.858045932E1,-2.145864487E0,5.828277469E-1,9.551228523E0
3.860072901E1,-2.150861979E0,5.859320760E-1,9.549915314E0
3.862099870E1,-2.156215906E0,5.894777775E-1,9.548488617E0
3.864126844E1,-2.158972502E0,5.917036533E-1,9.547728539E0
3.866153817E1,-2.162469864E0,5.929116607E-1,9.546861649E0
3.868180791E1,-2.164944410E0,5.931503773E-1,9.546285629E0
3.870207765E1,-2.165926933E0,5.923742056E-1,9.546111107E0
3.872234729E1,-2.166313171E0,5.913418531E-1,9.546088219E0
3.874261703E1,-2.168559313E0,5.908110738E-1,9.545610428E0
3.876288677E1,-2.169361115E0,5.913746357E-1,9.545392990E0
3.878315651E1,-2.170145988E0,5.928182006E-1,9.545125961E0
3.880342625E1,-2.170677423E0,5.934956074E-1,9.544962883E0
3.882369599E1,-2.169493675E0,5.949177146E-1,9.545142174E0
3.884396573E1,-2.166642189E0,5.958436131E-1,9.545732498E0
3.886423547E1,-2.163808823E0,5.957223177E-1,9.546383858E0
3.888450515E1,-2.161320210E0,5.951105952E-1,9.546985626E0
3.890477489E1,-2.159569502E0,5.945111513E-1,9.547418594E0
3.892504463E1,-2.158037424E0,5.936050415E-1,9.547821045E0
3.894531437E1,-2.159027815E0,5.919672847E-1,9.547698021E0
3.896558411E1,-2.160938740E0,5.921793580E-1,9.547253609E0
3.898585385E1,-2.160970688E0,5.929591060E-1,9.547198296E0
3.900612359E1,-2.158891439E0,5.937639475E-1,9.547617912E0
3.902639328E1,-2.157223463E0,5.939506888E-1,9.547983170E0
3.904666302E1,-2.155271053E0,5.940261483E-1,9.548419952E0
3.906693276E1,-2.152984142E0,5.933907628E-1,9.548974991E0
3.908720250E1,-2.150933981E0,5.928804278E-1,9.549469948E0
3.910747224E1,-2.149930477E0,5.930410624E-1,9.549685478E0
3.912774198E1,-2.149533987E0,5.932073593E-1,9.549763680E0
3.914801172E1,-2.148567915E0,5.941807628E-1,9.549921036E0
3.916828146E1,-2.148058653E0,5.960831046E-1,9.549917221E0
3.918855120E1,-2.148167849E0,5.977398753E-1,9.549789429E0
3.920895120E1,-2.149037838E0,5.982291698E-1,9.549563408E0
3.922909067E1,-2.148698807E0,5.990621448E-1,9.549586296E0
3.924936041E1,-2.147989750E0,5.989311337E-1,9.549754143E0
3.926963015E1,-2.147056341E0,5.983759761E-1,9.549999237E0
3.928989989E1,-2.145814657E0,5.970658064E-1,9.550359726E0
3.931029989E1,-2.144075632E0,5.956040621E-1,9.550841331E0
3.933043942E1,-2.142491341E0,5.953472257E-1,9.551214218E0
3.935070916E1,-2.142045259E0,5.964119434E-1,9.551246643E0
3.937097890E1,-2.141358614E0,5.958366990E-1,9.551436424E0
3.939124864E1,-2.139866352E0,5.946013331E-1,9.551848412E0
3.941164864E1,-2.138652563E0,5.935246944E-1,9.552186966E0
3.943178812E1,-2.136510611E0,5.926078558E-1,9.552722931E0
3.945205786E1,-2.134014130E0,5.922932625E-1,9.553300858E0
3.947232760E1,-2.131798744E0,5.921851993E-1,9.553801537E0
3.949259734E1,-2.130497932E0,5.922001600E-1,9.554091454E0
3.951299734E1,-2.128344059E0,5.929144621E-1,9.554526329E0
3.953313687E1,-2.125400782E0,5.932986736E-1,9.555159569E0
3.955340661E1,-2.123782873E0,5.942702293E-1,9.555458069E0
3.957367635E1,-2.123258829E0,5.953043103E-1,9.555510521E0
3.959394609E1,-2.123636961E0,5.940774679E-1,9.555501938E0
3.961421588E1,-2.124718428E0,5.922788382E-1,9.555374146E0
3.963448562E1,-2.126857996E0,5.883920789E-1,9.555137634E0
3.965475536E1,-2.130733490E0,5.853758454E-1,9.554459572E0
3.967502510E1,-2.134916782E0,5.852279663E-1,9.553534508E0
3.969529484E1,-2.137993097E0,5.870172381E-1,9.552737236E0
3.971556463E1,-2.139639378E0,5.883554220E-1,9.552286148E0
3.973583437E1,-2.140971661E0,5.918249488E-1,9.551772118E0
3.975610411E1,-2.140842676E0,5.974551439E-1,9.551451683E0
3.977637385E1,-2.140596151E0,6.044629216E-1,9.551065445E0
3.979664364E1,-2.140861511E0,6.124315858E-1,9.550498962E0
3.981691338E1,-2.142940521E0,6.173061728E-1,9.549718857E0
3.983718312E1,-2.144750357E0,6.177673936E-1,9.549282074E0
3.985745291E1,-2.146922588E0,6.171496511E-1,9.548833847E0
3.987772265E1,-2.150258064E0,6.160122752E-1,9.548157692E0
3.989799239E1,-2.155545950E0,6.163411140E-1,9.546943665E0
3.991826218E1,-2.161563396E0,6.185970902E-1,9.545436859E0
3.993853192E1,-2.167030096E0,6.222679019E-1,9.543959618E0
3.995880166E1,-2.169709206E0,6.257926226E-1,9.543119431E0
3.997907146E1,-2.170871973E0,6.281574965E-1,9.542699814E0
3.999934120E1,-2.170979738E0,6.291940212E-1,9.542607307E0
4.001961094E1,-2.169384003E0,6.289969087E-1,9.542983055E0
4.003988073E1,-2.167081118E0,6.256497502E-1,9.543725967E0
4.006015047E1,-2.165511847E0,6.217470765E-1,9.544337273E0
4.008042026E1,-2.162818193E0,6.190721393E-1,9.545121193E0
4.010069000E1,-2.160093546E0,6.177135706E-1,9.545826912E0
4.012095979E1,-2.156605244E0,6.189163327E-1,9.546538353E0
4.014122953E1,-2.154613733E0,6.242107749E-1,9.546642303E0
4.016149932E1,-2.145341635E0,6.326732635E-1,9.548173904E0
4.018176906E1,-2.130132437E0,6.357943416E-1,9.551370621E0
4.020203880E1,-2.118503094E0,6.346532702E-1,9.554032326E0
4.022230859E1,-2.117223740E0,6.267592907E-1,9.554838181E0
4.024257833E1,-2.120620251E0,6.157799363E-1,9.554799080E0
4.026284812E1,-2.125103951E0,6.041853428E-1,9.554542542E0
4.028311786E1,-2.131307602E0,5.934600830E-1,9.553833008E0
4.030338765E1,-2.137977362E0,5.881991386E-1,9.552667618E0
4.032365744E1,-2.140731812E0,5.862104297E-1,9.552172661E0
4.034392719E1,-2.136503458E0,5.826297998E-1,9.553339005E0
4.036419698E1,-2.125781775E0,5.768588781E-1,9.556080818E0
4.038446672E1,-2.114006996E0,5.708010197E-1,9.559056282E0
4.040473651E1,-2.104979992E0,5.658735037E-1,9.561340332E0
4.042500630E1,-2.098972559E0,5.622744560E-1,9.562872887E0
4.044527609E1,-2.095389843E0,5.580398440E-1,9.563907623E0
4.046554583E1,-2.093674660E0,5.518420339E-1,9.564641953E0
4.048581562E1,-2.092137814E0,5.445410013E-1,9.565397263E0
4.050608541E1,-2.089668989E0,5.377969146E-1,9.566317558E0
4.052635520E1,-2.087620258E0,5.314205289E-1,9.567121506E0
4.054662495E1,-2.085608959E0,5.270856023E-1,9.567800522E0
4.056689474E1,-2.080993652E0,5.224955678E-1,9.569056511E0
4.058716453E1,-2.074381828E0,5.193696022E-1,9.570662498E0
4.060743432E1,-2.066659689E0,5.147467852E-1,9.572582245E0
4.062770406E1,-2.060838938E0,5.118837357E-1,9.573990822E0
4.064797385E1,-2.055644035E0,5.098600388E-1,9.575215340E0
4.066824364E1,-2.050554991E0,5.074973106E-1,9.576432228E0
4.068851344E1,-2.047470331E0,5.064918399E-1,9.577145576E0
4.070878323E1,-2.046297550E0,5.059651136E-1,9.577423096E0
4.072905302E1,-2.045399666E0,5.053055286E-1,9.577651978E0
4.074932281E1,-2.044495583E0,5.050621629E-1,9.577856064E0
4.076959260E1,-2.043181896E0,5.047455430E-1,9.578153610E0
4.078986239E1,-2.041980028E0,5.042753816E-1,9.578434944E0
4.081026239E1,-2.040377617E0,5.040236115E-1,9.578788757E0
4.083040192E1,-2.039431572E0,5.037377477E-1,9.579006195E0
4.085067172E1,-2.040341377E0,5.033525229E-1,9.578832626E0
4.087094151E1,-2.042538643E0,5.028809309E-1,9.578388214E0
4.089121130E1,-2.043720961E0,5.024068356E-1,9.578161240E0
4.091161130E1,-2.044315577E0,5.020794868E-1,9.578052521E0
4.093175088E1,-2.045479536E0,5.020802617E-1,9.577802658E0
4.095202062E1,-2.047095060E0,5.021410584E-1,9.577454567E0
4.097229047E1,-2.048239231E0,5.032126307E-1,9.577154160E0
4.099256026E1,-2.049765110E0,5.039886832E-1,9.576786995E0
4.101296026E1,-2.051435232E0,5.041968226E-1,9.576417923E0
4.103309984E1,-2.053366661E0,5.040366054E-1,9.576012611E0
4.105336963E1,-2.053906918E0,5.031803250E-1,9.575941086E0
4.107363942E1,-2.052407265E0,5.028138757E-1,9.576283455E0
4.109390927E1,-2.050363779E0,5.026676655E-1,9.576727867E0
4.111430927E1,-2.048298836E0,5.023403764E-1,9.577186584E0
4.113444880E1,-2.047868252E0,5.024005175E-1,9.577276230E0
4.115471864E1,-2.048899174E0,5.025702715E-1,9.577046394E0
4.117498844E1,-2.050245285E0,5.020662546E-1,9.576785088E0
4.119525828E1,-2.052442789E0,5.000233054E-1,9.576421738E0
4.121552807E1,-2.054064035E0,4.974770248E-1,9.576206207E0
4.123579786E1,-2.055623293E0,4.948691130E-1,9.576006889E0
4.125606765E1,-2.056377172E0,4.936192334E-1,9.575908661E0
4.127633750E1,-2.055446625E0,4.928914011E-1,9.576147079E0
4.129660729E1,-2.054404497E0,4.919026494E-1,9.576420784E0
4.131687708E1,-2.054101467E0,4.903679192E-1,9.576565742E0
4.133714692E1,-2.053591728E0,4.893662333E-1,9.576725960E0
4.135741672E1,-2.053651333E0,4.880945086E-1,9.576777458E0
4.137768651E1,-2.052520037E0,4.867365956E-1,9.577088356E0
4.139795635E1,-2.051792622E0,4.861566126E-1,9.577274323E0
4.141822614E1,-2.051051855E0,4.857959151E-1,9.577451706E0
4.143849599E1,-2.049359322E0,4.850172698E-1,9.577853203E0
4.145876578E1,-2.048602581E0,4.848423600E-1,9.578023911E0
4.147903562E1,-2.050127029E0,4.857616127E-1,9.577651024E0
4.149930541E1,-2.051708460E0,4.857968390E-1,9.577311516E0
4.151957526E1,-2.052179098E0,4.833036363E-1,9.577336311E0
4.153984505E1,-2.052151442E0,4.810584486E-1,9.577454567E0
4.156011489E1,-2.052986145E0,4.798392355E-1,9.577337265E0
4.158038469E1,-2.053763628E0,4.786776304E-1,9.577229500E0
4.160065453E1,-2.052518129E0,4.781481922E-1,9.577522278E0
4.162092437E1,-2.050779581E0,4.774551392E-1,9.577929497E0
4.164119416E1,-2.049068213E0,4.768474400E-1,9.578326225E0
4.166146401E1,-2.048170328E0,4.771704376E-1,9.578501701E0
4.168173385E1,-2.047921658E0,4.769193232E-1,9.578567505E0
4.170200364E1,-2.046480417E0,4.762127399E-1,9.578911781E0
4.172227349E1,-2.044433594E0,4.762472808E-1,9.579346657E0
4.174254333E1,-2.044186592E0,4.765312970E-1,9.579384804E0
4.176281317E1,-2.046232939E0,4.764316976E-1,9.578952789E0
4.178308302E1,-2.047725439E0,4.759080410E-1,9.578659058E0
4.180335286E1,-2.048750639E0,4.746304750E-1,9.578503609E0
4.182362271E1,-2.049331427E0,4.735381603E-1,9.578433037E0
4.184389255E1,-2.050161600E0,4.728172421E-1,9.578291893E0
4.186416239E1,-2.050433874E0,4.732886553E-1,9.578209877E0
4.188443224E1,-2.048610687E0,4.731614590E-1,9.578605652E0
4.190470208E1,-2.045564175E0,4.729607105E-1,9.579267502E0
4.192497192E1,-2.042919874E0,4.720381200E-1,9.579877853E0
4.194524177E1,-2.041155100E0,4.716388881E-1,9.580273628E0
4.196551161E1,-2.039151192E0,4.719950855E-1,9.580681801E0
4.198578146E1,-2.038230419E0,4.699801207E-1,9.580977440E0
4.200605130E1,-2.037053823E0,4.703836739E-1,9.581208229E0
4.202632120E1,-2.035277367E0,4.704361856E-1,9.581582069E0
4.204659104E1,-2.034962177E0,4.703536332E-1,9.581652641E0
4.206686088E1,-2.038005114E0,4.685174823E-1,9.581096649E0
4.208713073E1,-2.040396690E0,4.664818943E-1,9.580687523E0
