"Time (s)","Acceleration x (m/s^2)","Acceleration y (m/s^2)","Acceleration z (m/s^2)"
6.015387400E-2,-4.902377129E0,1.675269127E0,8.326497078E0
8.020283200E-2,-4.831262112E0,1.712966919E0,8.360324860E0
1.002916870E-1,-4.774263859E0,1.752264738E0,8.384888649E0
1.204228320E-1,-4.735163212E0,1.777072310E0,8.401823044E0
1.405968950E-1,-4.732185841E0,1.798313141E0,8.398981094E0
1.608127280E-1,-4.731765270E0,1.834890127E0,8.391302109E0
1.810675200E-1,-4.700451851E0,1.880951881E0,8.398699760E0
2.013571030E-1,-4.632203579E0,1.926394463E0,8.426273346E0
2.216760620E-1,-4.545158863E0,1.975183487E0,8.462302208E0
2.420180410E-1,-4.476711750E0,2.021372318E0,8.487844467E0
2.623759570E-1,-4.446359634E0,2.037268639E0,8.499988556E0
2.827424160E-1,-4.465339184E0,2.032165766E0,8.491256714E0
3.031099160E-1,-4.519807339E0,2.009474277E0,8.467806816E0
3.233247070E-1,-4.601246357E0,1.963962078E0,8.434557915E0
3.435132490E-1,-4.720776558E0,1.882510424E0,8.386942863E0
3.636963740E-1,-4.879353046E0,1.759273648E0,8.322694778E0
3.838799160E-1,-5.076608658E0,1.622047424E0,8.232095718E0
4.040639780E-1,-5.302598000E0,1.508583665E0,8.110302925E0
4.242487700E-1,-5.549343586E0,1.435717106E0,7.957002640E0
4.444343950E-1,-5.802258968E0,1.408945680E0,7.779399395E0
4.646209570E-1,-6.042609215E0,1.416920304E0,7.592732430E0
4.848084570E-1,-6.276140213E0,1.469206452E0,7.390661716E0
5.049968950E-1,-6.502895355E0,1.530746698E0,7.179104805E0
5.251862700E-1,-6.727309227E0,1.556640983E0,6.963516235E0
5.453764780E-1,-6.981198788E0,1.551293612E0,6.710195541E0
5.655674160E-1,-7.227039814E0,1.510944366E0,6.454249859E0
5.857589780E-1,-7.436875343E0,1.427884102E0,6.230924606E0
6.059510620E-1,-7.642483711E0,1.316725850E0,6.002422333E0
6.261434570E-1,-7.863457680E0,1.156812072E0,5.744406223E0
6.463360620E-1,-8.096200943E0,9.364544749E-1,5.453894615E0
6.665394990E-1,-8.379524231E0,6.770438552E-1,5.049315453E0
6.867183530E-1,-8.691891670E0,3.939307928E-1,4.523960590E0
7.068975200E-1,-8.950221062E0,1.191226691E-1,4.006215096E0
7.270774160E-1,-9.145927429E0,-7.839090377E-2,3.537832975E0
7.472583530E-1,-9.287513733E0,-2.201329172E-1,3.140704155E0
7.674405410E-1,-9.401879311E0,-3.478039205E-1,2.766601562E0
7.876241870E-1,-9.507695198E0,-4.503654540E-1,2.360357523E0
8.078094990E-1,-9.587604523E0,-6.020554900E-1,1.971233964E0
8.279964780E-1,-9.623684883E0,-8.925826550E-1,1.660831094E0
8.481851240E-1,-9.647458076E0,-1.239320040E0,1.249411821E0
8.683753320E-1,-9.668960571E0,-1.540201783E0,5.562056899E-1
8.885669990E-1,-9.655232430E0,-1.711475849E0,-1.332210898E-1
9.087599160E-1,-9.624526978E0,-1.765449286E0,-6.496664882E-1
9.289538740E-1,-9.588384628E0,-1.770091057E0,-1.048825860E0
9.491486660E-1,-9.566408157E0,-1.743000150E0,-1.271292567E0
9.693439780E-1,-9.566083908E0,-1.713598251E0,-1.313016295E0
9.895394990E-1,-9.571627617E0,-1.740395665E0,-1.235053062E0
1.009734916E0,-9.579808235E0,-1.797658443E0,-1.079854488E0
1.029923457E0,-9.588568687E0,-1.847221017E0,-9.041617513E-1
1.050106582E0,-9.590484619E0,-1.883430123E0,-8.035463095E-1
1.070290124E0,-9.583833694E0,-1.910764098E0,-8.182373643E-1
1.090474187E0,-9.571386337E0,-1.921714544E0,-9.305757880E-1
1.110658978E0,-9.555191994E0,-1.901574016E0,-1.119238734E0
1.130844603E0,-9.534170151E0,-1.831703544E0,-1.383779168E0
1.151031166E0,-9.491677284E0,-1.667995572E0,-1.815556049E0
1.171218666E0,-9.432314873E0,-1.439230204E0,-2.265050650E0
1.191407103E0,-9.401052475E0,-1.162567854E0,-2.537525415E0
1.211596478E0,-9.452733040E0,-9.587309361E-1,-2.428383827E0
1.231786687E0,-9.502500534E0,-9.620197415E-1,-2.224271059E0
1.251977624E0,-9.522727966E0,-1.029694319E0,-2.104220867E0
1.272169187E0,-9.552283287E0,-1.063409925E0,-1.947676063E0
1.292361270E0,-9.617516518E0,-9.399650097E-1,-1.670399308E0
1.312553666E0,-9.699882507E0,-5.780167580E-1,-1.322336078E0
1.332746270E0,-9.748189926E0,-2.265186906E-1,-1.044931412E0
1.352949707E0,-9.761952400E0,-2.260492370E-2,-9.349660873E-1
1.373128562E0,-9.749116898E0,5.353321880E-2,-1.059355259E0
1.393307728E0,-9.737989426E0,1.453743130E-1,-1.149272084E0
1.413487624E0,-9.750055313E0,4.378991425E-1,-9.565829039E-1
1.433668562E0,-9.741853714E0,9.739837050E-1,-5.639430881E-1
1.453850749E0,-9.669868469E0,1.619928241E0,-1.996434331E-1
1.474034395E0,-9.510376930E0,2.392303467E0,1.371010090E-3
1.494219707E0,-9.213025093E0,3.360137463E0,6.641957909E-3
1.514406687E0,-8.788002968E0,4.337769985E0,-3.537503481E-1
1.534595332E0,-8.253508568E0,5.257436752E0,-6.398036480E-1
1.554785541E0,-7.680438042E0,6.086326599E0,-3.713261187E-1
1.574977207E0,-7.064248562E0,6.796579361E0,-2.707217932E-1
1.595170124E0,-6.474770069E0,7.361694336E0,-2.306381315E-1
1.615364082E0,-6.022013187E0,7.739713669E0,-5.073344707E-2
1.635558874E0,-5.718669891E0,7.966121197E0,9.009987116E-2
1.655754187E0,-5.394584656E0,8.188506126E0,1.312215328E-1
1.675949707E0,-4.889816761E0,8.494286537E0,3.273740709E-1
1.696145124E0,-4.146672726E0,8.860507011E0,6.833167672E-1
1.716333666E0,-3.159699917E0,9.219222069E0,1.092069149E0
1.736516791E0,-2.072427273E0,9.508472443E0,1.210114241E0
1.756700332E0,-1.096060753E0,9.710176468E0,8.255268335E-1
1.776884395E0,-5.438551903E-1,9.790094376E0,1.692981720E-1
1.797069187E0,-5.400531292E-1,9.778749466E0,-5.047754049E-1
1.817254812E0,-7.936005592E-1,9.712233543E0,-1.101412177E0
1.837441374E0,-9.540287852E-1,9.606534004E0,-1.724738836E0
1.857628874E0,-9.744418859E-1,9.486557961E0,-2.286057472E0
1.877817312E0,-9.742395282E-1,9.378229141E0,-2.696307421E0
1.898006687E0,-1.046220660E0,9.259852409E0,-3.054660320E0
1.918196895E0,-1.260234118E0,9.105834007E0,-3.415549517E0
1.938387832E0,-1.546398878E0,8.938463211E0,-3.725975752E0
1.958579395E0,-1.756297350E0,8.788585663E0,-3.980773449E0
1.978771478E0,-1.863662958E0,8.672035217E0,-4.182458878E0
1.998963874E0,-1.909593105E0,8.596825600E0,-4.314908981E0
2.019156478E0,-1.907649755E0,8.566916466E0,-4.374838352E0
2.039359916E0,-1.921933651E0,8.565498352E0,-4.371360779E0
2.059538666E0,-1.998543024E0,8.579901695E0,-4.308304310E0
2.079717728E0,-2.091518402E0,8.612661362E0,-4.197380543E0
2.099897520E0,-2.143072367E0,8.668002129E0,-4.055040359E0
2.120078353E0,-2.186785698E0,8.739057541E0,-3.875205755E0
2.140260437E0,-2.219245195E0,8.821212769E0,-3.664907694E0
2.160443978E0,-2.218199968E0,8.883886337E0,-3.510916710E0
2.180629187E0,-2.170274496E0,8.901277542E0,-3.496791840E0
2.200816062E0,-2.097865582E0,8.867118835E0,-3.625403643E0
2.221004603E0,-1.994917035E0,8.795038223E0,-3.852011442E0
2.241194812E0,-1.878125668E0,8.774355888E0,-3.956476450E0
2.261386478E0,-1.893665671E0,8.829203606E0,-3.824863434E0
2.281579499E0,-2.326052904E0,8.842243195E0,-3.546066761E0
2.301773562E0,-3.126881123E0,8.804330826E0,-2.979388237E0
2.321968457E0,-3.916538239E0,8.654902458E0,-2.433881760E0
2.342163874E0,-4.260599613E0,8.512773514E0,-2.355924606E0
2.362359499E0,-4.187371254E0,8.475832939E0,-2.607021332E0
2.382549707E0,-3.933424234E0,8.488333702E0,-2.940535307E0
2.402740020E0,-3.748512506E0,8.560713768E0,-2.972074986E0
2.422941166E0,-3.750010252E0,8.691037178E0,-2.563919544E0
2.443120645E0,-3.733351707E0,8.828456879E0,-2.071430683E0
2.463300437E0,-3.670755148E0,8.923888206E0,-1.749335051E0
2.483480853E0,-3.600453854E0,8.977546692E0,-1.615791202E0
2.503662207E0,-3.565865993E0,9.004402161E0,-1.541336060E0
2.523844812E0,-3.575655222E0,9.003719330E0,-1.522535086E0
2.544028770E0,-3.579301119E0,9.000316620E0,-1.534048319E0
2.564214291E0,-3.604771614E0,8.987194061E0,-1.551241875E0
2.584401374E0,-3.699515581E0,8.946372032E0,-1.564101577E0
2.604590020E0,-3.844761610E0,8.870066643E0,-1.646244645E0
2.624780124E0,-4.038043022E0,8.731294632E0,-1.905014396E0
2.644971582E0,-4.186533928E0,8.605821609E0,-2.140830278E0
2.665164291E0,-4.254465580E0,8.546943665E0,-2.240459919E0
2.685358041E0,-4.271314621E0,8.532502174E0,-2.263332844E0
2.705552520E0,-4.240365028E0,8.545434952E0,-2.272718191E0
2.725747520E0,-4.201377392E0,8.549150467E0,-2.330415010E0
2.745942728E0,-4.224437237E0,8.522103310E0,-2.387105227E0
2.766137103E0,-4.299563885E0,8.491829872E0,-2.360711575E0
2.786325645E0,-4.351540089E0,8.492547035E0,-2.260780334E0
2.806508770E0,-4.330103397E0,8.501264572E0,-2.269157887E0
2.826692312E0,-4.319353104E0,8.431719780E0,-2.533706665E0
2.846876374E0,-4.438274384E0,8.187447548E0,-3.072099924E0
2.867061166E0,-4.610548496E0,7.798941135E0,-3.753633022E0
2.887246791E0,-4.823351860E0,7.346355915E0,-4.351634979E0
2.907433353E0,-5.117809772E0,7.047415257E0,-4.506923676E0
2.927620853E0,-5.456682205E0,6.884582043E0,-4.358616829E0
2.947809291E0,-5.799104691E0,6.703341484E0,-4.195949078E0
2.967998666E0,-5.999835014E0,6.547122478E0,-4.160236359E0
2.988188874E0,-5.981476784E0,6.522050381E0,-4.225538254E0
3.008379812E0,-5.826153278E0,6.627482891E0,-4.278175831E0
3.028571374E0,-5.664463997E0,6.813248158E0,-4.202844143E0
3.048763457E0,-5.542582035E0,7.057492733E0,-3.954992771E0
3.068955853E0,-5.428394318E0,7.319155216E0,-3.623932838E0
3.089148457E0,-5.361421585E0,7.524166107E0,-3.288233280E0
3.109351895E0,-5.393852711E0,7.629395962E0,-2.978094101E0
3.129530541E0,-5.441955090E0,7.707250118E0,-2.674659729E0
3.149709499E0,-5.476530075E0,7.795136929E0,-2.326766253E0
3.169889187E0,-5.443384647E0,7.909508228E0,-1.994900823E0
3.190069916E0,-5.242753983E0,8.069524765E0,-1.888569593E0
3.210251999E0,-4.931204319E0,8.246287346E0,-1.962741375E0
3.230435645E0,-4.645649910E0,8.413267136E0,-1.950706959E0
3.250620957E0,-4.414159775E0,8.539278030E0,-1.940696716E0
3.270807937E0,-4.162825584E0,8.582467079E0,-2.276516438E0
3.290996582E0,-4.127876282E0,8.484135628E0,-2.674037457E0
3.311186895E0,-4.527630329E0,8.232153893E0,-2.811154842E0
3.331378666E0,-5.030903816E0,7.931692600E0,-2.819331408E0
3.351571791E0,-5.385072231E0,7.712456226E0,-2.772976875E0
3.371765957E0,-5.475305080E0,7.656845570E0,-2.750297308E0
3.391960957E0,-5.386210442E0,7.732205868E0,-2.715163708E0
3.412156478E0,-5.326747894E0,7.842712402E0,-2.507590771E0
3.432352207E0,-5.318240166E0,7.951712132E0,-2.158008575E0
3.452546999E0,-5.280176640E0,8.038082123E0,-1.918164968E0
3.472735541E0,-5.244104385E0,8.067173958E0,-1.894852757E0
3.492918666E0,-5.234913349E0,8.055929184E0,-1.966739893E0
3.513102207E0,-5.218214512E0,8.055820465E0,-2.011064291E0
3.533286270E0,-5.179090023E0,8.071931839E0,-2.047273159E0
3.553471062E0,-5.142794609E0,8.084834099E0,-2.087466478E0
3.573656687E0,-5.112841606E0,8.093214989E0,-2.128167152E0
3.593843249E0,-5.083536148E0,8.092832565E0,-2.198662043E0
3.614030749E0,-5.037983418E0,8.069087029E0,-2.383055687E0
3.634219187E0,-5.001735687E0,7.984809875E0,-2.719528437E0
3.654408562E0,-5.171721935E0,7.742538929E0,-3.078435659E0
3.674598770E0,-5.620464802E0,7.356093884E0,-3.235530615E0
3.694789707E0,-6.034536839E0,7.027053833E0,-3.221064806E0
3.714981270E0,-6.236280441E0,6.859206676E0,-3.198511362E0
3.735173353E0,-6.281918526E0,6.780591965E0,-3.275890350E0
3.755365749E0,-6.255746365E0,6.741384983E0,-3.404374361E0
3.775558353E0,-6.300305843E0,6.698932648E0,-3.405999184E0
3.795761791E0,-6.202932358E0,6.760186672E0,-3.463220596E0
3.815940437E0,-5.875682831E0,6.929969788E0,-3.690834761E0
3.836119395E0,-5.490468979E0,7.115684032E0,-3.923285246E0
3.856299082E0,-5.183155060E0,7.296782017E0,-4.007775784E0
3.876479812E0,-5.037005424E0,7.469440460E0,-3.873812914E0
3.896661895E0,-5.069223881E0,7.584203720E0,-3.599057436E0
3.916845541E0,-5.133641243E0,7.634935856E0,-3.394683123E0
3.937030853E0,-5.120000839E0,7.709043503E0,-3.244475126E0
3.957217832E0,-5.089261055E0,7.836584091E0,-2.976202726E0
3.977406478E0,-5.088216305E0,7.947504044E0,-2.667890072E0
3.997596791E0,-5.102337837E0,8.030897141E0,-2.375126600E0
4.017788562E0,-5.006323338E0,8.106068611E0,-2.323522568E0
4.037981687E0,-4.810178757E0,8.227007866E0,-2.312773705E0
4.058175853E0,-4.571124077E0,8.377059937E0,-2.258332253E0
4.078370853E0,-4.393630505E0,8.482270241E0,-2.217542171E0
4.098566374E0,-4.313358784E0,8.528337479E0,-2.198357821E0
4.118762103E0,-4.199238777E0,8.564936638E0,-2.275663137E0
4.138956895E0,-4.012321472E0,8.597187042E0,-2.481939554E0
4.159145437E0,-3.863531351E0,8.562552452E0,-2.815352917E0
4.179333874E0,-4.113975525E0,8.368495941E0,-3.035434008E0
4.199516895E0,-4.849549770E0,7.986217499E0,-2.978689432E0
4.219700332E0,-5.422825813E0,7.696551323E0,-2.743438721E0
4.239884395E0,-5.482669830E0,7.687318325E0,-2.648744583E0
4.260069187E0,-5.302752972E0,7.830777645E0,-2.594250202E0
4.280254812E0,-5.151827812E0,7.961538792E0,-2.498592854E0
4.300441374E0,-5.164762020E0,7.965063572E0,-2.460364819E0
4.320628874E0,-5.206333160E0,7.940133572E0,-2.453315020E0
4.340817312E0,-5.235309601E0,7.929050446E0,-2.427360535E0
4.361006687E0,-5.247940063E0,7.932253838E0,-2.389322042E0
4.381196895E0,-5.228730679E0,7.945059299E0,-2.388892174E0
4.401387832E0,-5.192715168E0,7.952076435E0,-2.443478584E0
4.421579395E0,-5.169274330E0,7.923107624E0,-2.583283663E0
4.441771478E0,-5.158839703E0,7.843737602E0,-2.834173203E0
4.461963874E0,-5.166631222E0,7.706215382E0,-3.176564455E0
4.482156478E0,-5.192557335E0,7.514159203E0,-3.570034742E0
4.502359916E0,-5.264063835E0,7.255915165E0,-3.976395369E0
4.522538874E0,-5.471525192E0,6.923079014E0,-4.278291225E0
4.542718145E0,-5.833011150E0,6.617889404E0,-4.283679008E0
4.562898145E0,-5.957685471E0,6.529840946E0,-4.247063160E0
4.583079187E0,-5.864697933E0,6.559933186E0,-4.329317570E0
4.603261478E0,-5.754882812E0,6.607308865E0,-4.403996468E0
4.623445228E0,-5.649818420E0,6.713429928E0,-4.379474640E0
4.643630541E0,-5.533712864E0,6.902807236E0,-4.230800152E0
4.663817520E0,-5.381078720E0,7.151900291E0,-4.008079529E0
4.684006166E0,-5.204645157E0,7.409646034E0,-3.765527964E0
4.704196374E0,-5.060321808E0,7.619697571E0,-3.536060810E0
4.724388041E0,-4.980992317E0,7.778311729E0,-3.295142412E0
4.744580957E0,-4.899878979E0,7.940727234E0,-3.017684698E0
4.764774916E0,-4.788462639E0,8.093740463E0,-2.780713081E0
4.784969707E0,-4.695698738E0,8.199142456E0,-2.625808477E0
4.805165020E0,-4.658804893E0,8.257775307E0,-2.505006790E0
4.825360541E0,-4.725965977E0,8.285252571E0,-2.278206110E0
4.845555332E0,-4.850615025E0,8.281530380E0,-2.014491558E0
4.865743874E0,-4.891510010E0,8.251334190E0,-2.039367676E0
4.885926999E0,-4.871519566E0,8.254647255E0,-2.073520660E0
4.906110541E0,-4.818637371E0,8.326346397E0,-1.903433442E0
4.926294603E0,-4.738512993E0,8.396570206E0,-1.792902112E0
4.946479395E0,-4.733106136E0,8.359724998E0,-1.970557451E0
4.966665020E0,-4.950680256E0,8.143281937E0,-2.312596798E0
4.986851582E0,-5.173937321E0,8.040189743E0,-2.180850744E0
5.007039082E0,-5.197938442E0,8.059874535E0,-2.047009230E0
5.027227520E0,-5.145942211E0,8.093075752E0,-2.047384739E0
5.047416895E0,-5.060379505E0,8.162662506E0,-1.983403087E0
5.067607103E0,-4.998317242E0,8.258582115E0,-1.727145076E0
5.087798041E0,-4.959572792E0,8.351210594E0,-1.352884531E0
5.107989603E0,-4.931968689E0,8.406994820E0,-1.080976367E0
5.128181687E0,-4.921821594E0,8.423168182E0,-9.981427789E-1
5.148374082E0,-4.909368038E0,8.432099342E0,-9.839721918E-1
5.168566687E0,-4.863921165E0,8.447604179E0,-1.072677851E0
5.188770124E0,-4.801036358E0,8.458761215E0,-1.252915740E0
5.208948874E0,-4.738937378E0,8.457778931E0,-1.476088166E0
5.229127937E0,-4.681893826E0,8.438051224E0,-1.746291518E0
5.249307728E0,-4.627766609E0,8.397066116E0,-2.059959173E0
5.269488562E0,-4.591952324E0,8.328845024E0,-2.390545607E0
5.289670645E0,-4.622031212E0,8.212421417E0,-2.713549137E0
5.309854187E0,-4.736454964E0,8.035457611E0,-3.027836561E0
5.330039395E0,-4.925496578E0,7.803448200E0,-3.319048405E0
5.350226270E0,-5.162415504E0,7.544743538E0,-3.549183369E0
5.370414812E0,-5.549187183E0,7.226737499E0,-3.626454592E0
5.390605020E0,-6.181323528E0,6.802737236E0,-3.418243885E0
5.410796687E0,-6.645134926E0,6.464865208E0,-3.196574688E0
5.430989707E0,-6.711740494E0,6.382376194E0,-3.223072052E0
5.451183770E0,-6.659187794E0,6.405421257E0,-3.285754204E0
5.471378666E0,-6.494549751E0,6.561654568E0,-3.306950092E0
5.491574082E0,-6.176403999E0,6.843780994E0,-3.344408751E0
5.511769707E0,-5.769674778E0,7.203627110E0,-3.314966440E0
5.531959916E0,-5.400331020E0,7.565454960E0,-3.125814199E0
5.552150228E0,-5.142235756E0,7.829302311E0,-2.903414726E0
5.572351374E0,-4.965356827E0,7.986259460E0,-2.781236172E0
5.592530957E0,-4.769373417E0,8.135206223E0,-2.691075802E0
5.612710853E0,-4.530400753E0,8.305990219E0,-2.579993010E0
5.632891374E0,-4.265880585E0,8.490289688E0,-2.426446199E0
5.653072832E0,-3.984081268E0,8.678116798E0,-2.233329773E0
5.673255437E0,-3.697193861E0,8.861781120E0,-1.992480397E0
5.693439395E0,-3.412848949E0,9.031233788E0,-1.720366836E0
5.713624812E0,-3.146065950E0,9.122203827E0,-1.748732924E0
5.733811791E0,-3.049974203E0,9.090696335E0,-2.056036711E0
5.754000332E0,-3.415735722E0,8.934594154E0,-2.162445307E0
5.774190332E0,-3.893453360E0,8.847902298E0,-1.651072145E0
5.794381687E0,-4.098699093E0,8.746794701E0,-1.692523956E0
5.814574291E0,-4.049689770E0,8.696408272E0,-2.035408020E0
5.834767937E0,-3.984281301E0,8.725477219E0,-2.040077925E0
5.854962312E0,-4.113386631E0,8.685407639E0,-1.952975988E0
5.875157207E0,-4.403148651E0,8.512316704E0,-2.079212189E0
5.895352312E0,-4.667355537E0,8.286249161E0,-2.392542601E0
5.915541999E0,-4.801012993E0,8.075368881E0,-2.812309265E0
5.935731791E0,-4.797476292E0,7.935195923E0,-3.191749334E0
5.955921687E0,-4.681333542E0,7.902513504E0,-3.435955048E0
5.976122416E0,-4.447409630E0,7.946534157E0,-3.639166832E0
5.996301582E0,-4.199618340E0,7.944754601E0,-3.926126003E0
6.016481062E0,-4.139671803E0,7.788378239E0,-4.286568165E0
6.036661166E0,-4.451904297E0,7.493300915E0,-4.494594574E0
6.056842207E0,-5.014992237E0,7.207731724E0,-4.366787434E0
6.077024499E0,-5.473598480E0,7.051867962E0,-4.059712410E0
6.097208249E0,-5.671733379E0,7.036049843E0,-3.807339668E0
6.117393562E0,-5.653272152E0,7.150992870E0,-3.615827560E0
6.137580541E0,-5.553842545E0,7.323162079E0,-3.420016050E0
6.157769187E0,-5.417542934E0,7.546292782E0,-3.142304420E0
6.177959395E0,-5.225040436E0,7.816806793E0,-2.786909819E0
6.198151062E0,-4.999780178E0,8.069423676E0,-2.461096048E0
6.218343978E0,-4.837486744E0,8.217702866E0,-2.288773060E0
6.238537937E0,-4.804894447E0,8.250570297E0,-2.238628149E0
6.258732624E0,-4.857484341E0,8.200450897E0,-2.308208466E0
6.278927832E0,-4.926517487E0,8.148552895E0,-2.345401525E0
6.299123249E0,-4.924919605E0,8.166347504E0,-2.286115170E0
6.319318041E0,-4.898650646E0,8.211520195E0,-2.178195953E0
6.339506582E0,-5.008258820E0,8.176074028E0,-2.059012175E0
6.359689707E0,-5.037528038E0,8.127635002E0,-2.176060677E0
6.379873249E0,-4.789105415E0,8.217464447E0,-2.389172316E0
6.400057312E0,-4.455341816E0,8.414249420E0,-2.349622965E0
6.420242103E0,-4.262873173E0,8.568290710E0,-2.140724421E0
6.440427728E0,-4.167737484E0,8.661973000E0,-1.941796064E0
6.460614291E0,-4.141787052E0,8.712027550E0,-1.765380621E0
6.480801791E0,-4.114275932E0,8.761173248E0,-1.576378345E0
6.500990228E0,-4.040730000E0,8.833189011E0,-1.348214984E0
6.521179603E0,-3.920526981E0,8.919947624E0,-1.111034513E0
6.541369812E0,-3.784276009E0,9.003059387E0,-8.913777471E-1
6.561560749E0,-3.663548946E0,9.070179939E0,-6.932898760E-1
6.581752312E0,-3.541486979E0,9.129893303E0,-5.227897167E-1
6.601944395E0,-3.412250280E0,9.187069893E0,-3.531018496E-1
6.622136791E0,-3.295873880E0,9.235153198E0,-1.397969723E-1
6.642329395E0,-3.212936640E0,9.264886856E0,9.648182988E-2
6.662532832E0,-3.183085442E0,9.272459984E0,2.446298599E-1
6.682711687E0,-3.214408875E0,9.261174202E0,2.619672120E-1
6.702890853E0,-3.283064365E0,9.238121033E0,2.213403583E-1
6.723070749E0,-3.348813057E0,9.215168953E0,1.910549104E-1
6.743251687E0,-3.412848949E0,9.192110062E0,1.672132909E-1
6.763433874E0,-3.507095575E0,9.157802582E0,7.300772518E-2
6.783617520E0,-3.677664042E0,9.090477943E0,-9.149296582E-2
6.803802832E0,-3.916344404E0,8.987247467E0,-2.490114272E-1
6.823989812E0,-4.117470741E0,8.890882492E0,-4.111195207E-1
6.844178457E0,-4.210817814E0,8.831208229E0,-6.702081561E-1
6.864368666E0,-4.181786060E0,8.806444168E0,-1.062828064E0
6.884560332E0,-4.077138424E0,8.801267624E0,-1.443958044E0
6.904753249E0,-3.991201401E0,8.788432121E0,-1.733254552E0
6.924947207E0,-3.992872953E0,8.728149414E0,-2.011656761E0
6.945141999E0,-4.057455540E0,8.624482155E0,-2.307757616E0
6.965337312E0,-4.141513824E0,8.505623817E0,-2.583138704E0
6.985532832E0,-4.193577766E0,8.418105125E0,-2.778452396E0
7.005722937E0,-4.172734261E0,8.389437675E0,-2.894132376E0
7.025913145E0,-4.124617100E0,8.390078545E0,-2.960489035E0
7.046114187E0,-4.065717220E0,8.411765099E0,-2.980358839E0
7.066293978E0,-3.977797031E0,8.454774857E0,-2.977297306E0
7.086474082E0,-3.877941608E0,8.509252548E0,-2.953740358E0
7.106654812E0,-3.760647297E0,8.581353188E0,-2.896254778E0
7.126836478E0,-3.602927208E0,8.681868553E0,-2.795433521E0
7.147019291E0,-3.395654202E0,8.805814743E0,-2.664121389E0
7.167203457E0,-3.154592037E0,8.932320595E0,-2.536253691E0
7.187389082E0,-2.953897476E0,9.038427353E0,-2.398272991E0
7.207576166E0,-2.853223562E0,9.114971161E0,-2.224144220E0
7.227764707E0,-2.821005821E0,9.175592422E0,-2.005199671E0
7.247954707E0,-2.768295288E0,9.231126785E0,-1.814724088E0
7.268146062E0,-2.665220737E0,9.276037216E0,-1.738423944E0
7.288338562E0,-2.582337141E0,9.298868179E0,-1.741539598E0
7.308531999E0,-2.601001501E0,9.305365562E0,-1.677896857E0
7.328726166E0,-2.691947222E0,9.308361053E0,-1.509385467E0
7.348920853E0,-2.788476229E0,9.306418419E0,-1.336178303E0
7.369115749E0,-2.831773996E0,9.305910110E0,-1.245581865E0
7.389310541E0,-2.811520100E0,9.312816620E0,-1.239829898E0
7.409499082E0,-2.781629324E0,9.322890282E0,-1.231523395E0
7.429682207E0,-2.776619434E0,9.336353302E0,-1.137221575E0
7.449865749E0,-2.786375046E0,9.346664429E0,-1.022919536E0
7.470049812E0,-2.809540272E0,9.349277496E0,-9.315978289E-1
7.490234603E0,-2.841307163E0,9.347178459E0,-8.530101776E-1
7.510420228E0,-2.858151436E0,9.349142075E0,-7.712883949E-1
7.530606791E0,-2.857333899E0,9.356748581E0,-6.762406826E-1
7.550794291E0,-2.854216337E0,9.362382889E0,-6.079576015E-1
7.570982728E0,-2.872740746E0,9.357844353E0,-5.903550982E-1
7.591172103E0,-2.906348467E0,9.348377228E0,-5.756493211E-1
7.611362312E0,-2.946727991E0,9.337884903E0,-5.395270586E-1
7.631553249E0,-2.997038126E0,9.325130463E0,-4.796604812E-1
7.651744812E0,-3.047576904E0,9.312731743E0,-3.945808709E-1
7.671936895E0,-3.093789577E0,9.301454544E0,-2.859710455E-1
7.692128071E0,-3.123778343E0,9.294308662E0,-1.680001020E-1
7.712320622E0,-3.141150713E0,9.289739609E0,-6.553459913E-2
7.732524059E0,-3.147197485E0,9.287908554E0,1.682293788E-2
7.752703018E0,-3.141831636E0,9.289323807E0,8.802072704E-2
7.772882289E0,-3.125301123E0,9.293994904E0,1.566326022E-1
7.793062289E0,-3.102710247E0,9.300030708E0,2.302287817E-1
7.813243330E0,-3.077189445E0,9.306191444E0,3.099789023E-1
7.833425622E0,-3.051959753E0,9.311658859E0,3.859281242E-1
7.853609372E0,-3.026825428E0,9.317049026E0,4.486773908E-1
7.873794684E0,-2.997142792E0,9.324619293E0,4.888769984E-1
7.893981664E0,-2.970723152E0,9.332313538E0,5.031009316E-1
7.914170309E0,-2.972026587E0,9.331451416E0,5.113535523E-1
7.934360518E0,-3.018217087E0,9.316924095E0,5.056467056E-1
7.954552184E0,-3.115033627E0,9.287041664E0,4.667088389E-1
7.974745101E0,-3.275269508E0,9.235146523E0,3.937604129E-1
7.994939059E0,-3.491550922E0,9.160037994E0,2.705137134E-1
8.015133851E0,-3.729835510E0,9.069470406E0,5.842498317E-2
8.035329164E0,-3.938273668E0,8.977973938E0,-2.374195457E-1
8.055524684E0,-4.100764275E0,8.887298584E0,-6.083072424E-1
8.075719789E0,-4.219583511E0,8.775912285E0,-1.161406636E0
8.095908330E0,-4.276388168E0,8.636658669E0,-1.814117551E0
8.116091455E0,-4.299574852E0,8.490852356E0,-2.364206076E0
8.136274997E0,-4.325630188E0,8.367555618E0,-2.728247881E0
8.156459059E0,-4.448827744E0,8.230625153E0,-2.938558102E0
8.176643851E0,-4.634721756E0,8.068744659E0,-3.095981836E0
8.196829476E0,-4.796250343E0,7.878646851E0,-3.330659866E0
8.217016039E0,-4.932457447E0,7.670433521E0,-3.606340647E0
8.237203539E0,-5.048380375E0,7.491800308E0,-3.815385580E0
8.257391976E0,-5.138813019E0,7.351838589E0,-3.964020729E0
8.277581351E0,-5.160582542E0,7.271592617E0,-4.081998348E0
8.297771559E0,-5.112321377E0,7.238482475E0,-4.199871540E0
8.317962497E0,-5.023355484E0,7.228026867E0,-4.323416233E0
8.338154059E0,-4.925935745E0,7.227816582E0,-4.434434891E0
8.358346143E0,-4.830279350E0,7.242073536E0,-4.515656948E0
8.378538539E0,-4.744592667E0,7.288167953E0,-4.532310963E0
8.398731143E0,-4.669039249E0,7.385934830E0,-4.451789379E0
8.418934580E0,-4.616256714E0,7.533592701E0,-4.255061626E0
8.439113643E0,-4.573331356E0,7.724851131E0,-3.947365999E0
8.459293018E0,-4.505681038E0,7.938211441E0,-3.585251093E0
8.479473122E0,-4.439156055E0,8.129726410E0,-3.220531940E0
8.499654268E0,-4.398350716E0,8.254038811E0,-2.948856115E0
8.519836664E0,-4.365473270E0,8.312067986E0,-2.832412004E0
8.540020518E0,-4.345245838E0,8.349633217E0,-2.751881361E0
8.560205934E0,-4.382952213E0,8.382235527E0,-2.588094950E0
8.580393018E0,-4.467437744E0,8.405556679E0,-2.357755423E0
8.600581768E0,-4.554262638E0,8.439678192E0,-2.049613237E0
8.620772080E0,-4.579596519E0,8.494254112E0,-1.745088339E0
8.640963851E0,-4.520123959E0,8.565095901E0,-1.542072177E0
8.661156872E0,-4.344119072E0,8.652309418E0,-1.560950160E0
8.681350934E0,-4.105498791E0,8.735604286E0,-1.733346224E0
8.701545726E0,-3.930894136E0,8.790196419E0,-1.857663989E0
8.721740934E0,-3.795548677E0,8.825930595E0,-1.966506600E0
8.741936351E0,-3.696487904E0,8.862827301E0,-1.989139795E0
8.762130414E0,-3.623569727E0,8.916777611E0,-1.879152179E0
8.782318955E0,-3.575435162E0,8.988515854E0,-1.610352039E0
8.802502080E0,-3.589444637E0,9.037667274E0,-1.267609596E0
8.822685622E0,-3.673562765E0,9.046841621E0,-9.110330939E-1
8.842869684E0,-3.728463173E0,9.050014496E0,-6.051422358E-1
8.863054476E0,-3.730615616E0,9.053669930E0,-5.328823924E-1
8.883240101E0,-3.712160110E0,9.063794136E0,-4.877309203E-1
8.903426664E0,-3.754077435E0,9.051659584E0,-3.804638684E-1
8.923614164E0,-3.822956562E0,9.026819229E0,-2.682088315E-1
8.943802601E0,-3.831126690E0,9.025758743E0,-1.689157784E-1
8.963991976E0,-3.796727419E0,9.041721344E0,-5.021846667E-2
8.984182184E0,-3.769503355E0,9.053066254E0,5.681496859E-2
9.004373122E0,-3.769324064E0,9.053006172E0,7.525575161E-2
9.024564684E0,-3.812164545E0,9.035344124E0,1.844548993E-2
9.044756768E0,-3.896602869E0,8.998926163E0,-7.883117348E-2
9.064949164E0,-4.029949665E0,8.936635017E0,-2.577693462E-1
9.085141768E0,-4.248188019E0,8.820816040E0,-5.625801086E-1
9.105345205E0,-4.554917812E0,8.633529663E0,-9.409032464E-1
9.125524372E0,-4.936680317E0,8.391530991E0,-1.175487638E0
9.145703851E0,-5.204278469E0,8.156383514E0,-1.599771142E0
9.165883955E0,-5.275587082E0,7.950495243E0,-2.264554739E0
9.186064997E0,-5.244883060E0,7.843345642E0,-2.672737360E0
9.206247289E0,-5.100821495E0,7.837285042E0,-2.954484463E0
9.226431039E0,-4.950008392E0,7.801665783E0,-3.286611080E0
9.246616351E0,-4.955132961E0,7.650456905E0,-3.617672205E0
9.266803330E0,-5.135107040E0,7.414746761E0,-3.850012779E0
9.286991976E0,-5.496247768E0,7.093368053E0,-3.955473900E0
9.307182184E0,-6.002439022E0,6.798122406E0,-3.731843233E0
9.327373851E0,-6.034232140E0,6.677881718E0,-3.894140244E0
9.347566768E0,-5.732011318E0,6.687603474E0,-4.311656952E0
9.367760726E0,-5.451980114E0,6.769493580E0,-4.540952682E0
9.387955518E0,-5.276928425E0,6.892158031E0,-4.563174725E0
9.408150830E0,-5.163009644E0,7.011087894E0,-4.512023449E0
9.428346351E0,-5.090199471E0,7.118718147E0,-4.425393581E0
9.448541247E0,-4.998311043E0,7.241333008E0,-4.330169201E0
9.468729789E0,-4.885937691E0,7.382832050E0,-4.218033314E0
9.488912914E0,-4.808974266E0,7.516730309E0,-4.067297935E0
9.509096455E0,-4.743441582E0,7.601781368E0,-3.985358000E0
9.529280518E0,-4.680494785E0,7.618276119E0,-4.028053761E0
9.549465309E0,-4.677890778E0,7.588868618E0,-4.086169720E0
9.569650934E0,-4.682200432E0,7.602263451E0,-4.056227207E0
9.589837497E0,-4.592660904E0,7.693233967E0,-3.986478090E0
9.610024997E0,-4.512623787E0,7.814923286E0,-3.838434219E0
9.630213434E0,-4.513632298E0,7.922984123E0,-3.608854771E0
9.650402809E0,-4.454473019E0,8.034845352E0,-3.430645466E0
9.670593018E0,-4.202497005E0,8.138584137E0,-3.503262997E0
9.690783955E0,-4.073447227E0,8.279917717E0,-3.319693565E0
9.710975518E0,-4.067371845E0,8.396642685E0,-3.020476818E0
9.731167601E0,-4.131565571E0,8.416447639E0,-2.874708176E0
9.751359997E0,-4.165185928E0,8.420270920E0,-2.814365864E0
9.771552601E0,-4.091798782E0,8.485349655E0,-2.725145102E0
9.791756039E0,-3.837678432E0,8.618411064E0,-2.676863432E0
9.811935414E0,-3.551597118E0,8.769262314E0,-2.580033064E0
9.832115101E0,-3.309520245E0,8.929068565E0,-2.342904091E0
9.852295414E0,-3.145325899E0,9.086434364E0,-1.927179813E0
9.872476664E0,-3.013013363E0,9.213478088E0,-1.484570503E0
9.892659164E0,-2.780727148E0,9.301123619E0,-1.388174295E0
9.912843122E0,-2.610541344E0,9.344509125E0,-1.426743388E0
9.933028643E0,-2.638574123E0,9.333910942E0,-1.444443464E0
9.953215726E0,-2.786808491E0,9.272624016E0,-1.556444645E0
9.973404372E0,-3.005987167E0,9.155022621E0,-1.822083354E0
9.993594580E0,-3.231609344E0,9.021052361E0,-2.085112333E0
1.001378614E1,-3.398547411E0,8.921262741E0,-2.243065596E0
1.003397896E1,-3.477366686E0,8.869738579E0,-2.325091124E0
1.005417281E1,-3.505626440E0,8.850064278E0,-2.357402325E0
1.007436739E1,-3.587536335E0,8.831171036E0,-2.304430962E0
1.009456250E1,-3.820885658E0,8.763266563E0,-2.185493708E0
1.011475781E1,-4.147845268E0,8.624022484E0,-2.142898083E0
1.013495239E1,-4.383317471E0,8.483858109E0,-2.231830120E0
1.015514093E1,-4.436731815E0,8.440940857E0,-2.288297653E0
1.017532406E1,-4.459727764E0,8.430292130E0,-2.282848835E0
1.019550760E1,-4.473514557E0,8.401901245E0,-2.359262466E0
1.021569166E1,-4.474144459E0,8.339497566E0,-2.570056200E0
1.023587646E1,-4.719411373E0,8.172041893E0,-2.667450190E0
1.025606208E1,-5.171351433E0,7.909681320E0,-2.620008707E0
1.027624864E1,-5.507349014E0,7.710392475E0,-2.527714729E0
1.029643614E1,-5.654478073E0,7.622473717E0,-2.468837261E0
1.031662458E1,-5.674851894E0,7.588456154E0,-2.526217222E0
1.033681396E1,-5.680750370E0,7.526935101E0,-2.691599131E0
1.035700416E1,-5.710115433E0,7.381876469E0,-3.012119770E0
1.037719521E1,-5.718753338E0,7.218417168E0,-3.370563745E0
1.039738687E1,-5.595927715E0,7.147883415E0,-3.709951162E0
1.041757906E1,-5.382309437E0,7.151854038E0,-4.006508350E0
1.043777156E1,-5.183440208E0,7.172310829E0,-4.226143837E0
1.045796427E1,-5.060620785E0,7.185872555E0,-4.350142956E0
1.047816781E1,-5.015604019E0,7.211740494E0,-4.359462261E0
1.049834666E1,-5.031813622E0,7.268923283E0,-4.244289398E0
1.051852583E1,-5.060103893E0,7.352631569E0,-4.062578201E0
1.053870573E1,-5.007370472E0,7.470125675E0,-3.910736322E0
1.055888666E1,-4.842086315E0,7.646712303E0,-3.775232553E0
1.057906885E1,-4.642963886E0,7.875396729E0,-3.548435211E0
1.059925250E1,-4.500241280E0,8.090737343E0,-3.233912945E0
1.061943781E1,-4.458399296E0,8.210536003E0,-2.979959965E0
1.063962479E1,-4.531017780E0,8.225239754E0,-2.825900078E0
1.065981343E1,-4.601108074E0,8.214935303E0,-2.741353750E0
1.068000375E1,-4.594284534E0,8.235771179E0,-2.689800501E0
1.070019552E1,-4.453618526E0,8.344190598E0,-2.590394974E0
1.072038854E1,-4.210603237E0,8.513314247E0,-2.442270517E0
1.074058260E1,-3.859178305E0,8.685320854E0,-2.417092085E0
1.076077750E1,-3.532800674E0,8.850855827E0,-2.313452482E0
1.078097291E1,-3.415212393E0,8.973038673E0,-1.997816920E0
1.080116854E1,-3.520989656E0,8.972764015E0,-1.806248188E0
1.082136385E1,-3.846278906E0,8.770822525E0,-2.109311581E0
1.084155239E1,-4.125417709E0,8.588001251E0,-2.323261976E0
1.086173552E1,-4.177324772E0,8.577991486E0,-2.266806841E0
1.088191906E1,-4.033102989E0,8.693405151E0,-2.080666542E0
1.090210312E1,-3.876459599E0,8.821510315E0,-1.823294163E0
1.092228791E1,-3.783896446E0,8.924583435E0,-1.484694004E0
1.094247354E1,-3.739790440E0,8.999429703E0,-1.092989683E0
1.096266010E1,-3.661608458E0,9.059278488E0,-8.321682811E-1
1.098284760E1,-3.490722895E0,9.125990868E0,-8.375853300E-1
1.100303604E1,-3.267137051E0,9.189491272E0,-1.024427414E0
1.102322541E1,-3.090052843E0,9.219705582E0,-1.272392392E0
1.104341562E1,-3.023515701E0,9.213118553E0,-1.465332985E0
1.106360666E1,-3.047691822E0,9.181060791E0,-1.609370947E0
1.108379833E1,-3.158436298E0,9.110972404E0,-1.784613967E0
1.110399052E1,-3.363433123E0,8.997721672E0,-1.974515438E0
1.112418302E1,-3.635463476E0,8.870824814E0,-2.064519644E0
1.114437573E1,-3.947355747E0,8.734174728E0,-2.074360132E0
1.116457927E1,-4.382043839E0,8.522661209E0,-2.081424952E0
1.118475823E1,-4.881265163E0,8.228866577E0,-2.151603699E0
1.120493750E1,-5.341211319E0,7.872083664E0,-2.381624699E0
1.122511750E1,-5.815933704E0,7.494832039E0,-2.484514475E0
1.124529854E1,-5.982225895E0,7.288414955E0,-2.694878817E0
1.126548083E1,-5.969762325E0,7.214787960E0,-2.911899567E0
1.128566458E1,-6.027286530E0,7.166608334E0,-2.912376404E0
1.130584989E1,-6.029783249E0,7.153548717E0,-2.939192057E0
1.132603687E1,-5.886853695E0,7.204467297E0,-3.100158215E0
1.134622552E1,-5.666831017E0,7.260192871E0,-3.368533134E0
1.136641573E1,-5.416693687E0,7.334018707E0,-3.611368656E0
1.138660739E1,-5.130403996E0,7.480927467E0,-3.726268053E0
1.140680031E1,-4.847106934E0,7.699783325E0,-3.659137726E0
1.142699427E1,-4.603990078E0,7.951629162E0,-3.427135468E0
1.144718906E1,-4.391187668E0,8.208127975E0,-3.084555864E0
1.146738437E1,-4.174604416E0,8.456423759E0,-2.689232349E0
1.148757989E1,-3.931925058E0,8.681821823E0,-2.310049057E0
1.150777000E1,-3.659487247E0,8.857301712E0,-2.080079794E0
1.152796021E1,-3.379875660E0,8.958963394E0,-2.117497683E0
1.154816125E1,-3.212695599E0,8.980135918E0,-2.281695127E0
1.156834125E1,-3.202231646E0,8.925994873E0,-2.498544693E0
1.158852156E1,-3.318308592E0,8.837187767E0,-2.657688856E0
1.160870250E1,-3.555125475E0,8.803689003E0,-2.454898119E0
1.162888437E1,-3.766258001E0,8.859235764E0,-1.870728731E0
1.164906739E1,-3.843645573E0,8.916286469E0,-1.377174616E0
1.166925166E1,-4.061526775E0,8.784116745E0,-1.585460782E0
1.168943739E1,-4.255500317E0,8.614924431E0,-1.960655212E0
1.170962458E1,-4.102913380E0,8.663965225E0,-2.066926718E0
1.172981323E1,-3.799360275E0,8.806202888E0,-2.045984507E0
1.175000333E1,-3.577799082E0,8.929216385E0,-1.907571793E0
1.177019468E1,-3.444412708E0,9.038384438E0,-1.616791606E0
1.179038718E1,-3.359232903E0,9.136631966E0,-1.186547995E0
1.181058062E1,-3.212153673E0,9.224981308E0,-8.672888875E-1
1.183077479E1,-2.950319529E0,9.313322067E0,-8.532494903E-1
1.185096937E1,-2.715880394E0,9.373400688E0,-9.662909508E-1
1.187116416E1,-2.622958183E0,9.383084297E0,-1.117236376E0
1.189135854E1,-2.670238018E0,9.345397949E0,-1.305284739E0
1.191154708E1,-2.825976849E0,9.269677162E0,-1.502438068E0
1.193173021E1,-3.070281267E0,9.171479225E0,-1.621028423E0
1.195191375E1,-3.384571075E0,9.065946579E0,-1.588614345E0
1.197209791E1,-3.702549458E0,8.965191841E0,-1.444592834E0
1.199228281E1,-3.961514473E0,8.866271019E0,-1.366027355E0
1.201246854E1,-4.141303062E0,8.780434608E0,-1.387074947E0
1.203265521E1,-4.200767517E0,8.752608299E0,-1.384113312E0
1.205284281E1,-4.160946846E0,8.768854141E0,-1.401470780E0
1.207303135E1,-4.206099033E0,8.732378006E0,-1.491536617E0
1.209322083E1,-4.365993977E0,8.614039421E0,-1.704936862E0
1.211341114E1,-4.589853287E0,8.436514854E0,-1.982131243E0
1.213360218E1,-4.868569851E0,8.218827248E0,-2.217724562E0
1.215379385E1,-5.080019474E0,8.009383202E0,-2.492706776E0
1.217398604E1,-5.204546452E0,7.825286865E0,-2.801421881E0
1.219417854E1,-5.223982334E0,7.707494259E0,-3.078136206E0
1.221437114E1,-5.142953873E0,7.683829308E0,-3.267901182E0
1.223457458E1,-5.019569874E0,7.703612328E0,-3.410084009E0
1.225475302E1,-4.876852989E0,7.731744766E0,-3.550607204E0
1.227493177E1,-4.731576920E0,7.781281471E0,-3.637888908E0
1.229511125E1,-4.560770988E0,7.879512787E0,-3.644590855E0
1.231529177E1,-4.351776600E0,8.019947052E0,-3.593450069E0
1.233547364E1,-4.132327080E0,8.168569565E0,-3.516919851E0
1.235565708E1,-3.964300632E0,8.308013916E0,-3.381067514E0
1.237584218E1,-3.875454664E0,8.441808701E0,-3.144377470E0
1.239602906E1,-3.809005022E0,8.544041634E0,-2.942993879E0
1.241621771E1,-3.742310286E0,8.610003471E0,-2.834313393E0
1.243640802E1,-3.705172300E0,8.659678459E0,-2.729844809E0
1.245659989E1,-3.731973886E0,8.700138092E0,-2.559367180E0
1.247679312E1,-3.828970432E0,8.698433876E0,-2.417980671E0
1.249698750E1,-3.879238605E0,8.645421982E0,-2.525584221E0
1.251718271E1,-3.840613365E0,8.665553093E0,-2.515603781E0
1.253737843E1,-3.759148836E0,8.755574226E0,-2.319293499E0
1.255757437E1,-3.676546812E0,8.819606781E0,-2.206337690E0
1.257776489E1,-3.754583359E0,8.816870689E0,-2.082376242E0
1.259795552E1,-3.921725512E0,8.757616997E0,-2.023513556E0
1.261815698E1,-4.166174889E0,8.600236893E0,-2.202111959E0
1.263833614E1,-4.261059761E0,8.519232750E0,-2.331612349E0
1.265851562E1,-4.073694706E0,8.614798546E0,-2.315306187E0
1.267869583E1,-3.762054205E0,8.791337013E0,-2.174795389E0
1.269887698E1,-3.512424231E0,8.946639061E0,-1.947027445E0
1.271905937E1,-3.385957718E0,9.054251671E0,-1.651120543E0
1.273924323E1,-3.325827360E0,9.132785797E0,-1.304404378E0
1.275942864E1,-3.255780458E0,9.191350937E0,-1.043717623E0
1.277961573E1,-3.173727751E0,9.222875595E0,-1.018035769E0
1.279980448E1,-3.099467754E0,9.238157272E0,-1.104598165E0
1.281999479E1,-3.031984568E0,9.254914284E0,-1.150670528E0
1.284018656E1,-2.964483500E0,9.268443108E0,-1.215812564E0
1.286037958E1,-2.923686028E0,9.261830330E0,-1.356818080E0
1.288057364E1,-2.937806368E0,9.221388817E0,-1.582934737E0
1.290076843E1,-3.002548695E0,9.162593842E0,-1.789400935E0
1.292096375E1,-3.084429741E0,9.121395111E0,-1.859258294E0
1.294115927E1,-3.179699183E0,9.093874931E0,-1.833403111E0
1.296135343E1,-3.238406658E0,9.073701859E0,-1.830586553E0
1.298154208E1,-3.276091814E0,9.051749229E0,-1.871752024E0
1.300173062E1,-3.356575489E0,9.008625984E0,-1.936092257E0
1.302191375E1,-3.460007429E0,8.941480637E0,-2.061227083E0
1.304209729E1,-3.574281693E0,8.826079369E0,-2.344192266E0
1.306228135E1,-3.775183201E0,8.641976357E0,-2.689726114E0
1.308246614E1,-4.104160786E0,8.475232124E0,-2.738008976E0
1.310265177E1,-4.482160091E0,8.353055954E0,-2.511388779E0
1.312283833E1,-4.809312820E0,8.194115639E0,-2.428451061E0
1.314302583E1,-5.000993252E0,8.027352333E0,-2.592693567E0
1.316321427E1,-4.983573914E0,7.929838657E0,-2.907241106E0
1.318340364E1,-4.825720787E0,7.885517597E0,-3.271302223E0
1.320359396E1,-4.658257008E0,7.834372997E0,-3.618510962E0
1.322378500E1,-4.490695477E0,7.805252552E0,-3.883564949E0
1.324397666E1,-4.292464256E0,7.831957817E0,-4.050380230E0
1.326416885E1,-4.062031269E0,7.904026031E0,-4.146886826E0
1.328436135E1,-3.863419294E0,7.998967171E0,-4.154623508E0
1.330455406E1,-3.760206461E0,8.121112823E0,-4.009834766E0
1.332475760E1,-3.747513533E0,8.291962624E0,-3.656485796E0
1.334493656E1,-3.732857943E0,8.459854126E0,-3.266043186E0
1.336511583E1,-3.685516119E0,8.579405785E0,-2.996858597E0
1.338529583E1,-3.633857965E0,8.663859367E0,-2.811228991E0
1.340547687E1,-3.629818678E0,8.710497856E0,-2.668710470E0
1.342565916E1,-3.653304338E0,8.704706192E0,-2.655531406E0
1.344584291E1,-3.512039185E0,8.734741211E0,-2.745956182E0
1.346602823E1,-3.187088966E0,8.853087425E0,-2.763275623E0
1.348621520E1,-2.848934889E0,8.985209465E0,-2.705545902E0
1.350640385E1,-2.827878237E0,9.046498299E0,-2.516816616E0
1.352659406E1,-3.095454454E0,9.041888237E0,-2.198365211E0
1.354678573E1,-3.453450680E0,8.952017784E0,-2.026189327E0
1.356697864E1,-3.739727497E0,8.794593811E0,-2.199985266E0
1.358717260E1,-3.725950003E0,8.752990723E0,-2.381772041E0
1.360736739E1,-3.521198273E0,8.854638100E0,-2.316664219E0
1.362756270E1,-3.237392902E0,9.017704964E0,-2.090612650E0
1.364775823E1,-3.038577795E0,9.162246704E0,-1.729357004E0
1.366794833E1,-2.944943428E0,9.257322311E0,-1.341522217E0
1.368813854E1,-2.918904543E0,9.306049347E0,-1.023634553E0
1.370833958E1,-2.891012907E0,9.345873833E0,-6.834244132E-1
1.372851958E1,-2.821390390E0,9.387747765E0,-2.834192216E-1
1.374869989E1,-2.691622734E0,9.430034637E0,1.206092886E-3
1.376888083E1,-2.525138378E0,9.475352287E0,1.085167825E-1
1.378906271E1,-2.382835388E0,9.512167931E0,1.055752411E-1
1.380924573E1,-2.276314735E0,9.538293839E0,9.858926386E-2
1.382943000E1,-2.159535170E0,9.564961433E0,1.352805495E-1
1.384961573E1,-1.996960402E0,9.600099564E0,1.436004192E-1
1.386980291E1,-1.823315144E0,9.635536194E0,4.854679853E-2
1.388999156E1,-1.697540641E0,9.658225060E0,-8.612673730E-2
1.391018166E1,-1.628438711E0,9.669067383E0,-1.664453298E-1
1.393037302E1,-1.609550476E0,9.672403336E0,-1.560036093E-1
1.395056552E1,-1.648473501E0,9.666913986E0,-6.072133407E-2
1.397075896E1,-1.735192537E0,9.651908875E0,-1.292089373E-2
1.399095312E1,-1.974786997E0,9.603770256E0,-1.954409629E-1
1.401114770E1,-2.540029764E0,9.443758011E0,-7.307848334E-1
1.403134250E1,-3.331084013E0,9.116933823E0,-1.398495674E0
1.405153677E1,-4.175870419E0,8.673773766E0,-1.870332837E0
1.407172541E1,-4.775036335E0,8.337021828E0,-1.965573072E0
1.409191396E1,-5.085508823E0,8.131811142E0,-2.044904470E0
1.411209708E1,-5.068019867E0,8.054592133E0,-2.368356943E0
1.413228062E1,-4.849468708E0,8.043575287E0,-2.820271492E0
1.415246468E1,-4.602228642E0,7.981953621E0,-3.358314514E0
1.417264948E1,-4.345086098E0,7.922199249E0,-3.811739683E0
1.419283510E1,-4.098408699E0,7.924948215E0,-4.070458412E0
1.421302166E1,-3.895684958E0,7.992751122E0,-4.136417866E0
1.423320916E1,-3.752399683E0,8.069710732E0,-4.119423866E0
1.425339760E1,-3.601553679E0,8.086246490E0,-4.220406532E0
1.427358698E1,-3.448401690E0,8.081214905E0,-4.355788231E0
1.429377718E1,-3.366472960E0,8.150149345E0,-4.290956020E0
1.431396823E1,-3.281582355E0,8.254609108E0,-4.154880047E0
1.433415989E1,-3.118654013E0,8.340229034E0,-4.109130383E0
1.435435208E1,-3.152095795E0,8.380336761E0,-4.000577927E0
1.437454458E1,-3.369843006E0,8.317635536E0,-3.953665257E0
1.439473729E1,-3.524705887E0,8.183020592E0,-4.096951008E0
1.441494083E1,-3.540990353E0,8.098268509E0,-4.248509407E0
1.443511968E1,-3.588341236E0,8.194897652E0,-4.017191887E0
1.445529885E1,-3.675124645E0,8.378361702E0,-3.530850887E0
1.447547875E1,-3.736299515E0,8.480261803E0,-3.208677769E0
1.449565968E1,-3.619480848E0,8.545694351E0,-3.168730497E0
1.451584187E1,-3.499365568E0,8.625071526E0,-3.087552309E0
1.453602552E1,-3.367970467E0,8.733962059E0,-2.923194170E0
1.455621083E1,-3.177472591E0,8.830814362E0,-2.844429255E0
1.457639781E1,-2.953589916E0,8.911680222E0,-2.833486557E0
1.459658646E1,-2.742630720E0,8.992119789E0,-2.791082382E0
1.461677677E1,-2.615301371E0,9.083670616E0,-2.611038208E0
1.463696854E1,-2.647368670E0,9.179184914E0,-2.214585304E0
1.465716156E1,-2.801299810E0,9.255764961E0,-1.629086733E0
1.467735562E1,-2.894348621E0,9.313633919E0,-1.024377227E0
1.469755052E1,-2.800307989E0,9.372056007E0,-7.023094893E-1
1.471774593E1,-2.671324730E0,9.416554451E0,-6.024339199E-1
1.473794156E1,-2.614432812E0,9.437184334E0,-5.241026282E-1
1.475813687E1,-2.581322670E0,9.452842712E0,-3.884876370E-1
1.477832541E1,-2.550848246E0,9.467425346E0,-1.772199720E-1
1.479850854E1,-2.493637085E0,9.483929634E0,8.503719419E-2
1.481869208E1,-2.398626089E0,9.502481461E0,3.461644053E-1
1.483887614E1,-2.334260464E0,9.508037567E0,5.646547675E-1
1.485906093E1,-2.299742937E0,9.507575035E0,6.982724071E-1
1.487924656E1,-2.277185678E0,9.508296967E0,7.596715093E-1
1.489943312E1,-2.257357359E0,9.513419151E0,7.546958923E-1
1.491962062E1,-2.231787682E0,9.525799751E0,6.698128581E-1
1.493980906E1,-2.199479580E0,9.541333199E0,5.437295437E-1
1.495999843E1,-2.155357599E0,9.559178352E0,3.833025992E-1
1.498018864E1,-2.140041351E0,9.569441795E0,1.280711293E-1
1.500037968E1,-2.189980030E0,9.555795670E0,-2.472529262E-1
1.502057135E1,-2.292603254E0,9.509068489E0,-7.014119625E-1
1.504076354E1,-2.368682623E0,9.448151588E0,-1.136735082E0
1.506095604E1,-2.466304302E0,9.377214432E0,-1.468193293E0
1.508114875E1,-2.638851881E0,9.296505928E0,-1.667882323E0
1.510135229E1,-2.897319555E0,9.199682236E0,-1.772501826E0
1.512153104E1,-3.241745234E0,9.056462288E0,-1.908394337E0
1.514171010E1,-3.596119165E0,8.842211723E0,-2.248020172E0
1.516188989E1,-3.811056852E0,8.595114708E0,-2.787513018E0
1.518207073E1,-3.857983589E0,8.386502266E0,-3.309521675E0
1.520225281E1,-3.817774057E0,8.240330696E0,-3.700260639E0
1.522243635E1,-3.748973608E0,8.132464409E0,-3.997327328E0
1.524262156E1,-3.668848276E0,8.074023247E0,-4.185700417E0
1.526280843E1,-3.649318457E0,8.064250946E0,-4.221458435E0
1.528299698E1,-3.646605253E0,8.112817764E0,-4.129751205E0
1.530318718E1,-3.557186127E0,8.204800606E0,-4.024683475E0
1.532337896E1,-3.412247896E0,8.307666779E0,-3.938226223E0
1.534357208E1,-3.253353357E0,8.406390190E0,-3.862473488E0
1.536376625E1,-3.061939001E0,8.510533333E0,-3.790215492E0
1.538396125E1,-2.859148979E0,8.623748779E0,-3.691423893E0
1.540415677E1,-2.710061312E0,8.753688812E0,-3.492688417E0
1.542435250E1,-2.633282423E0,8.895605087E0,-3.178743839E0
1.544454802E1,-2.603136539E0,9.008708954E0,-2.870057344E0
1.546473656E1,-2.600033998E0,9.043836594E0,-2.760293722E0
1.548491968E1,-2.771132946E0,8.975451469E0,-2.816468716E0
1.550510323E1,-3.143390656E0,8.879620552E0,-2.727969170E0
1.552528729E1,-3.431512117E0,8.841345787E0,-2.495140076E0
1.554547208E1,-3.518916368E0,8.882611275E0,-2.210613012E0
1.556565771E1,-3.491681099E0,8.942282677E0,-2.003535271E0
1.558584427E1,-3.361510038E0,8.979198456E0,-2.060251713E0
1.560603177E1,-3.222670317E0,8.999821663E0,-2.188147306E0
1.562622021E1,-3.073153734E0,9.009158134E0,-2.358216286E0
1.564640958E1,-2.925252914E0,9.012104034E0,-2.528885603E0
1.566659979E1,-2.798241615E0,9.022865295E0,-2.632135153E0
1.568679073E1,-2.703193426E0,9.064334869E0,-2.588623524E0
1.570698229E1,-2.652336359E0,9.146689415E0,-2.339563131E0
1.572717437E1,-2.624913692E0,9.259646416E0,-1.881262898E0
1.574736677E1,-2.611263990E0,9.358550072E0,-1.330115557E0
1.576755937E1,-2.587706566E0,9.419817924E0,-8.609283566E-1
1.578776281E1,-2.476000071E0,9.463336945E0,-6.964619756E-1
1.580794198E1,-2.365457058E0,9.498288155E0,-5.979338288E-1
1.582812146E1,-2.346187353E0,9.515371323E0,-3.514227271E-1
1.584830166E1,-2.372650146E0,9.514039993E0,-1.547919512E-1
1.586848281E1,-2.388503790E0,9.510831833E0,-9.756263345E-2
1.588866520E1,-2.361376047E0,9.517690659E0,-8.860441297E-2
1.590884906E1,-2.301409960E0,9.532732010E0,-3.017652780E-2
1.592903448E1,-2.215442419E0,9.552598000E0,1.003584713E-1
1.594922156E1,-2.085979223E0,9.578143120E0,2.797530591E-1
1.596941031E1,-1.936105967E0,9.600383759E0,5.044871569E-1
1.598960062E1,-1.804747581E0,9.613010406E0,7.094330788E-1
1.600979239E1,-1.720335960E0,9.623214722E0,7.775347829E-1
1.602998541E1,-1.703713417E0,9.632293701E0,6.976152062E-1
1.605017948E1,-1.750943065E0,9.633611679E0,5.459961295E-1
1.607037427E1,-1.884437203E0,9.616412163E0,3.793417811E-1
1.609056948E1,-2.154911280E0,9.564712524E0,2.073433250E-1
1.611076489E1,-2.555991888E0,9.467697144E0,-1.887922990E-3
1.613095885E1,-2.970533371E0,9.342352867E0,-2.583855689E-1
1.615114739E1,-3.249528408E0,9.229762077E0,-6.499455571E-1
1.617133052E1,-3.333652496E0,9.150469780E0,-1.151549101E0
1.619151406E1,-3.262624741E0,9.127394676E0,-1.488736868E0
1.621169812E1,-3.148399353E0,9.115401268E0,-1.779729486E0
1.623188291E1,-3.163786173E0,9.039464951E0,-2.109246492E0
1.625206854E1,-3.304158688E0,8.897349358E0,-2.467810154E0
1.627225510E1,-3.426089287E0,8.723161697E0,-2.887691021E0
1.629244260E1,-3.518242836E0,8.527111053E0,-3.328774214E0
1.631263104E1,-3.622715712E0,8.335631371E0,-3.682874918E0
1.633282041E1,-3.762704134E0,8.163935661E0,-3.919516325E0
1.635301062E1,-3.934571981E0,8.017958641E0,-4.049920082E0
1.637320156E1,-4.072856426E0,7.908109665E0,-4.128443241E0
1.639339312E1,-4.113950253E0,7.837054253E0,-4.222131252E0
1.641358520E1,-4.081459522E0,7.800193310E0,-4.320771217E0
1.643377760E1,-4.029034615E0,7.776291847E0,-4.412092209E0
1.645397020E1,-3.979470730E0,7.765625477E0,-4.475407124E0
1.647417364E1,-3.947010040E0,7.802153111E0,-4.440486908E0
1.649435260E1,-3.948323011E0,7.923814774E0,-4.218327522E0
1.651453187E1,-4.007099152E0,8.072340965E0,-3.866632700E0
1.653471187E1,-4.130240917E0,8.133912086E0,-3.598746061E0
1.655489291E1,-4.324139595E0,8.038888931E0,-3.584474564E0
1.657507520E1,-4.538793087E0,7.880525112E0,-3.669750929E0
1.659525896E1,-4.764389038E0,7.767859936E0,-3.623718739E0
1.661544427E1,-5.026375294E0,7.660658360E0,-3.495748043E0
1.663563125E1,-5.161837578E0,7.677347660E0,-3.253328323E0
1.665581989E1,-5.070865631E0,7.773517609E0,-3.166880846E0
1.667601010E1,-4.819725513E0,7.965220928E0,-3.081541061E0
1.669620177E1,-4.548833847E0,8.193132401E0,-2.889823437E0
1.671639468E1,-4.343462467E0,8.367197037E0,-2.700877905E0
1.673658864E1,-4.145281792E0,8.510079384E0,-2.562337399E0
1.675678343E1,-3.905731201E0,8.651188850E0,-2.464259624E0
1.677697875E1,-3.641677380E0,8.787120819E0,-2.386442184E0
1.679717427E1,-3.473935127E0,8.829149246E0,-2.479571104E0
1.681736927E1,-3.420506954E0,8.802875519E0,-2.641950607E0
1.683755781E1,-3.378376007E0,8.836376190E0,-2.583681107E0
1.685774093E1,-3.338148117E0,8.909241676E0,-2.377513647E0
1.687792448E1,-3.310305595E0,8.958284378E0,-2.227419853E0
1.689810854E1,-3.273673773E0,8.978665352E0,-2.199322462E0
1.691829333E1,-3.258852959E0,8.973530769E0,-2.241871357E0
1.693847896E1,-3.305692673E0,8.936080933E0,-2.321475983E0
1.695866552E1,-3.449195147E0,8.846065521E0,-2.453682184E0
1.697885302E1,-3.622489214E0,8.736382484E0,-2.592987061E0
1.699904146E1,-3.727743387E0,8.671696663E0,-2.660073280E0
1.701923083E1,-3.801191330E0,8.631702423E0,-2.686081648E0
1.703942104E1,-3.893572807E0,8.583014488E0,-2.709677696E0
1.705961198E1,-3.997322559E0,8.528676987E0,-2.730102062E0
1.707980354E1,-4.115090370E0,8.468353271E0,-2.742883682E0
1.709999562E1,-4.277436733E0,8.379085541E0,-2.768543959E0
1.712018802E1,-4.465960026E0,8.243196487E0,-2.876680136E0
1.714038062E1,-4.618011475E0,8.070007324E0,-3.117585182E0
1.716058406E1,-4.794323921E0,7.821513176E0,-3.465367556E0
1.718076281E1,-5.023187160E0,7.525787830E0,-3.781599045E0
1.720094187E1,-5.223179340E0,7.317048073E0,-3.917855978E0
1.722112166E1,-5.378550053E0,7.235794067E0,-3.858092546E0
1.724130250E1,-5.476036072E0,7.232650280E0,-3.724539757E0
1.726148458E1,-5.543336868E0,7.215080261E0,-3.658473730E0
1.728166812E1,-5.577921867E0,7.211128235E0,-3.613419056E0
1.730185333E1,-5.551246643E0,7.273263931E0,-3.528976917E0
1.732204020E1,-5.458042145E0,7.389194489E0,-3.432195187E0
1.734222875E1,-5.296743393E0,7.526696205E0,-3.385814905E0
1.736241896E1,-5.077513218E0,7.664467812E0,-3.412505388E0
1.738261062E1,-4.840828896E0,7.798062325E0,-3.453546286E0
1.740280364E1,-4.630696297E0,7.929549694E0,-3.442278862E0
1.742299770E1,-4.477177143E0,8.052314758E0,-3.359392643E0
1.744319260E1,-4.368217468E0,8.153234482E0,-3.257888079E0
1.746338802E1,-4.261667252E0,8.240129471E0,-3.179441214E0
1.748358364E1,-4.136209011E0,8.327225685E0,-3.117606640E0
1.750377385E1,-4.014622688E0,8.421959877E0,-3.020561457E0
1.752396416E1,-3.920760155E0,8.519114494E0,-2.867528439E0
1.754416531E1,-3.856740713E0,8.612007141E0,-2.670069933E0
1.756434479E1,-3.825879335E0,8.700650215E0,-2.414893627E0
1.758452458E1,-3.812126398E0,8.775036812E0,-2.153324842E0
1.760470500E1,-3.786812067E0,8.825819016E0,-1.983772159E0
1.762488635E1,-3.778213978E0,8.847803116E0,-1.900493026E0
1.764506885E1,-3.785190344E0,8.865062714E0,-1.803714275E0
1.766525270E1,-3.732887983E0,8.906829834E0,-1.704207301E0
1.768543812E1,-3.635051012E0,8.945416451E0,-1.713573694E0
1.770562510E1,-3.609529972E0,8.949274063E0,-1.747050166E0
1.772581364E1,-3.642782211E0,8.924958229E0,-1.801567554E0
1.774600375E1,-3.778275490E0,8.852326393E0,-1.879186749E0
1.776619521E1,-3.976217508E0,8.765857697E0,-1.876116037E0
1.778638791E1,-4.078406334E0,8.724229813E0,-1.850625396E0
1.780658166E1,-4.062658787E0,8.739941597E0,-1.810696363E0
1.782677614E1,-3.985142231E0,8.796757698E0,-1.704726577E0
1.784697114E1,-3.874867678E0,8.876394272E0,-1.537992716E0
1.786716635E1,-3.744794369E0,8.966927528E0,-1.319507957E0
1.788736114E1,-3.624394655E0,9.043283463E0,-1.119453788E0
1.790754958E1,-3.550814390E0,9.085126877E0,-1.011233091E0
1.792773260E1,-3.545282364E0,9.089561462E0,-9.905683398E-1
1.794791604E1,-3.524388075E0,9.093482018E0,-1.028426886E0
1.796810010E1,-3.470482826E0,9.106413841E0,-1.095154524E0
1.798828489E1,-3.453602076E0,9.103826523E0,-1.167633176E0
1.800847052E1,-3.479132175E0,9.082262993E0,-1.256395102E0
1.802865708E1,-3.502101660E0,9.054940224E0,-1.383375883E0
1.804884458E1,-3.519092560E0,9.023508072E0,-1.537098050E0
1.806903302E1,-3.538481236E0,8.988748550E0,-1.688766837E0
1.808922239E1,-3.568365097E0,8.962877274E0,-1.761814117E0
1.810941260E1,-3.623695850E0,8.953522682E0,-1.695182323E0
1.812960354E1,-3.696425915E0,8.948009491E0,-1.562031865E0
1.814979510E1,-3.769847155E0,8.929300308E0,-1.492055058E0
1.816998718E1,-3.791865826E0,8.914281845E0,-1.525687695E0
1.819017958E1,-3.789498091E0,8.894748688E0,-1.641196370E0
1.821037218E1,-3.820580721E0,8.834694862E0,-1.876627684E0
1.823057562E1,-3.919337749E0,8.696868896E0,-2.274568796E0
1.825075437E1,-4.076653481E0,8.481421471E0,-2.759849548E0
1.827093343E1,-4.251313686E0,8.229391098E0,-3.220844030E0
1.829111323E1,-4.413415909E0,8.002088547E0,-3.557909727E0
1.831129406E1,-4.609910011E0,7.817019939E0,-3.716627359E0
1.833147614E1,-4.933783531E0,7.631660938E0,-3.685909748E0
1.835165968E1,-5.309560299E0,7.400750637E0,-3.634259939E0
1.837184489E1,-5.504267216E0,7.172559261E0,-3.798397541E0
1.839203177E1,-5.452208042E0,7.066822529E0,-4.062489986E0
1.841222031E1,-5.282321930E0,7.098763943E0,-4.227887630E0
1.843241052E1,-5.086105824E0,7.260087967E0,-4.194405079E0
1.845260218E1,-4.927319050E0,7.499958992E0,-3.955062628E0
1.847279520E1,-4.780286312E0,7.743502617E0,-3.654780865E0
1.849298927E1,-4.616454124E0,7.940369129E0,-3.436464310E0
1.851318416E1,-4.474124908E0,8.064291954E0,-3.334633350E0
1.853337958E1,-4.418894768E0,8.169589996E0,-3.146672964E0
1.855357520E1,-4.454764843E0,8.278253555E0,-2.792127848E0
1.857377052E1,-4.529917240E0,8.366240501E0,-2.378284693E0
1.859395906E1,-4.540838242E0,8.444003105E0,-2.061547518E0
1.861414218E1,-4.483314991E0,8.500366211E0,-1.952956796E0
1.863432573E1,-4.394489765E0,8.543610573E0,-1.966106415E0
1.865450979E1,-4.314894676E0,8.594951630E0,-1.918040156E0
1.867469458E1,-4.279572010E0,8.653845787E0,-1.722387671E0
1.869488020E1,-4.262896538E0,8.703561783E0,-1.498702884E0
1.871506677E1,-4.270509720E0,8.699985504E0,-1.497795343E0
1.873525427E1,-4.343913555E0,8.608998299E0,-1.784921527E0
1.875544270E1,-4.464579582E0,8.498622894E0,-2.002832174E0
1.877563208E1,-4.498844147E0,8.455910683E0,-2.104366779E0
1.879582229E1,-4.447999001E0,8.481826782E0,-2.108153105E0
1.881601323E1,-4.396816254E0,8.535499573E0,-1.995907784E0
1.883620479E1,-4.364987373E0,8.591625214E0,-1.816933036E0
1.885639687E1,-4.327819824E0,8.649811745E0,-1.618990064E0
1.887658927E1,-4.286249638E0,8.701073647E0,-1.445603609E0
1.889678177E1,-4.246628761E0,8.738027573E0,-1.335446119E0
1.891698510E1,-4.199160099E0,8.771433830E0,-1.264672399E0
1.893716364E1,-4.137176514E0,8.808502197E0,-1.210142493E0
1.895734250E1,-4.079198837E0,8.836778641E0,-1.200771332E0
1.897752208E1,-4.037222862E0,8.850366592E0,-1.241864920E0
1.899770271E1,-4.010544300E0,8.856678963E0,-1.282634735E0
1.901788468E1,-3.999494314E0,8.859032631E0,-1.300753713E0
1.903806823E1,-4.006799698E0,8.852422714E0,-1.323086143E0
1.905825343E1,-4.045888901E0,8.826099396E0,-1.378821135E0
1.907844041E1,-4.120843410E0,8.780485153E0,-1.446411610E0
1.909862916E1,-4.218975544E0,8.729012489E0,-1.474785209E0
1.911881958E1,-4.310414314E0,8.690238953E0,-1.438908577E0
1.913901146E1,-4.381552696E0,8.669581413E0,-1.345632911E0
1.915920468E1,-4.432765007E0,8.662008286E0,-1.220899701E0
1.917939896E1,-4.450739861E0,8.662741661E0,-1.148136258E0
1.919959406E1,-4.445680141E0,8.661869049E0,-1.174022436E0
1.921978968E1,-4.458795071E0,8.647971153E0,-1.225614548E0
1.923998552E1,-4.489740849E0,8.622319221E0,-1.291595817E0
1.926017968E1,-4.541239262E0,8.572751999E0,-1.433686137E0
1.928036823E1,-4.636075497E0,8.479744911E0,-1.664664745E0
1.930055135E1,-4.777111053E0,8.352155685E0,-1.895015240E0
1.932073489E1,-4.992377758E0,8.205682755E0,-1.978207469E0
1.934091896E1,-5.237508297E0,8.059424400E0,-1.945393920E0
1.936110375E1,-5.409518719E0,7.947782040E0,-1.933975577E0
1.938128937E1,-5.454233646E0,7.896770954E0,-2.015620470E0
1.940147593E1,-5.418245316E0,7.894655704E0,-2.118352413E0
1.942166343E1,-5.364828587E0,7.902392864E0,-2.222877741E0
1.944185187E1,-5.308113098E0,7.912306786E0,-2.321577311E0
1.946204125E1,-5.202982903E0,7.954628468E0,-2.413139582E0
1.948223146E1,-5.041936398E0,8.037231445E0,-2.480360031E0
1.950242239E1,-4.893808365E0,8.129548073E0,-2.476183176E0
1.952261396E1,-4.754338741E0,8.226889610E0,-2.425889969E0
1.954280604E1,-4.589009285E0,8.339860916E0,-2.357563257E0
1.956299843E1,-4.411341667E0,8.455667496E0,-2.283010721E0
1.958319093E1,-4.236618042E0,8.554239273E0,-2.246426821E0
1.960339427E1,-4.089183331E0,8.623383522E0,-2.255265713E0
1.962357270E1,-3.991512537E0,8.681470871E0,-2.206871748E0
1.964375146E1,-3.950070858E0,8.738501549E0,-2.050833941E0
1.966393093E1,-3.969522953E0,8.772353172E0,-1.859864950E0
1.968411146E1,-4.037445545E0,8.776606560E0,-1.685406685E0
1.970429333E1,-4.130465984E0,8.755963326E0,-1.562926292E0
1.972447677E1,-4.209366322E0,8.738164902E0,-1.447789192E0
1.974466187E1,-4.240184307E0,8.746143341E0,-1.302378058E0
1.976484875E1,-4.226388931E0,8.771553993E0,-1.169555902E0
1.978503739E1,-4.175993919E0,8.801795959E0,-1.122432828E0
1.980522770E1,-4.068086624E0,8.849881172E0,-1.140460610E0
1.982541958E1,-3.935325623E0,8.914335251E0,-1.103727818E0
1.984561281E1,-3.830886602E0,8.970359802E0,-1.013575912E0
1.986580708E1,-3.806572437E0,8.989799500E0,-9.294615984E-1
1.988600218E1,-3.830681562E0,8.983808517E0,-8.873836398E-1
1.990619781E1,-3.884970427E0,8.953498840E0,-9.551158547E-1
1.992639364E1,-3.970839500E0,8.908100128E0,-1.023996353E0
1.994658854E1,-4.045484543E0,8.867216110E0,-1.084857821E0
1.996677698E1,-4.118377209E0,8.821429253E0,-1.179730058E0
1.998696000E1,-4.164016247E0,8.787722588E0,-1.267788529E0
2.000714343E1,-4.167873383E0,8.793917656E0,-1.210880160E0
2.002732750E1,-4.146767616E0,8.840429306E0,-9.063748121E-1
2.004751229E1,-4.080126286E0,8.904702187E0,-4.788037837E-1
2.006769791E1,-3.971583843E0,8.964127541E0,-2.032734901E-1
2.008788448E1,-3.892751217E0,8.998492241E0,-2.098072320E-1
2.010807198E1,-3.830771446E0,9.021808624E0,-3.202420473E-1
2.012826041E1,-3.792106152E0,9.035421371E0,-3.892043531E-1
2.014844979E1,-3.774547815E0,9.040449142E0,-4.398398697E-1
2.016864000E1,-3.783805370E0,9.028841019E0,-5.772614479E-1
2.018883093E1,-3.820044041E0,8.996490479E0,-8.005030751E-1
2.020902250E1,-3.865906000E0,8.954253197E0,-1.022988439E0
2.022921458E1,-3.919834852E0,8.915423393E0,-1.149131060E0
2.024940698E1,-3.980224848E0,8.890295982E0,-1.136151552E0
2.026959948E1,-4.063299656E0,8.863430023E0,-1.048615813E0
2.028980281E1,-4.167735100E0,8.828013420E0,-9.308828115E-1
2.030998125E1,-4.251966476E0,8.797222137E0,-8.366876841E-1
2.033016000E1,-4.322300434E0,8.763541222E0,-8.297364116E-1
2.035033948E1,-4.365734100E0,8.735253334E0,-8.978239894E-1
2.037052000E1,-4.377037048E0,8.718318939E0,-1.001420856E0
2.039070187E1,-4.400144577E0,8.685157776E0,-1.173523426E0
2.041088531E1,-4.492750168E0,8.594116211E0,-1.458343029E0
2.043107041E1,-4.677152634E0,8.419785500E0,-1.844406128E0
2.045125729E1,-4.911026955E0,8.194258690E0,-2.215025902E0
2.047144593E1,-5.164006233E0,7.955093861E0,-2.493974924E0
2.049163625E1,-5.375074387E0,7.736644745E0,-2.724573612E0
2.051182812E1,-5.494389057E0,7.581495285E0,-2.915993929E0
2.053202135E1,-5.538166523E0,7.503011703E0,-3.033795834E0
2.055221562E1,-5.482243538E0,7.512204647E0,-3.111620426E0
2.057241073E1,-5.377180576E0,7.568299294E0,-3.158664465E0
2.059260635E1,-5.255029678E0,7.649244308E0,-3.169243813E0
2.061280218E1,-5.106519699E0,7.771649837E0,-3.113727331E0
2.063299687E1,-4.913174629E0,7.936288357E0,-3.007728815E0
2.065318531E1,-4.675641060E0,8.122947693E0,-2.885563135E0
2.067336833E1,-4.432420731E0,8.310713768E0,-2.730581045E0
2.069355177E1,-4.227069378E0,8.481477737E0,-2.523253679E0
2.071373573E1,-4.058827400E0,8.621452332E0,-2.316647053E0
2.073392041E1,-3.903220177E0,8.723484039E0,-2.199109554E0
2.075410593E1,-3.778434038E0,8.786487579E0,-2.165977001E0
2.077429239E1,-3.690109968E0,8.829025269E0,-2.145177126E0
2.079447979E1,-3.644128799E0,8.871821404E0,-2.044868469E0
2.081466812E1,-3.615820169E0,8.927899361E0,-1.840885639E0
2.083485739E1,-3.516671181E0,8.970860481E0,-1.824028254E0
2.085504750E1,-3.395811796E0,9.006003380E0,-1.879028440E0
2.087523843E1,-3.495525360E0,9.010970116E0,-1.659548998E0
2.089543000E1,-3.674643993E0,8.985880852E0,-1.386116385E0
2.091562208E1,-3.657333612E0,8.985765457E0,-1.431893349E0
2.093581448E1,-3.559737682E0,8.988490105E0,-1.644899011E0
2.095600708E1,-3.612181425E0,8.961179733E0,-1.679222822E0
2.097621052E1,-3.735094309E0,8.904339790E0,-1.712360620E0
2.099638927E1,-3.853584290E0,8.825135231E0,-1.853983879E0
2.101656833E1,-3.871371984E0,8.816609383E0,-1.857487559E0
2.103674812E1,-3.781695843E0,8.893074989E0,-1.668047667E0
2.105692896E1,-3.646072388E0,8.997699738E0,-1.384898305E0
2.107711104E1,-3.481084824E0,9.109769821E0,-1.031765699E0
2.109729458E1,-3.335930586E0,9.189599037E0,-7.702177763E-1
2.111747979E1,-3.266438723E0,9.219982147E0,-7.019274831E-1
2.113766666E1,-3.245308638E0,9.229253769E0,-6.776713729E-1
2.115785520E1,-3.195509434E0,9.249324799E0,-6.396064758E-1
2.117804541E1,-3.118639946E0,9.274886131E0,-6.488000154E-1
2.119823708E1,-3.061274767E0,9.291106224E0,-6.887135506E-1
2.121843000E1,-3.056556463E0,9.292010307E0,-6.974210739E-1
2.123862396E1,-3.094724894E0,9.273781776E0,-7.681335211E-1
2.125881875E1,-3.155953407E0,9.240613937E0,-9.063144326E-1
2.127901406E1,-3.213911295E0,9.212847710E0,-9.821463823E-1
2.129920958E1,-3.244803429E0,9.199508667E0,-1.005317926E0
2.131940468E1,-3.246583462E0,9.192787170E0,-1.059596181E0
2.133959323E1,-3.275994062E0,9.171428680E0,-1.150277019E0
2.135978166E1,-3.364692926E0,9.131611824E0,-1.209506512E0
2.137996468E1,-3.455313206E0,9.091963768E0,-1.251960754E0
2.140014812E1,-3.477165461E0,9.069211960E0,-1.352445722E0
2.142033208E1,-3.476933956E0,9.045492172E0,-1.503458261E0
2.144051677E1,-3.485240698E0,9.007193565E0,-1.701156139E0
2.146070229E1,-3.538397551E0,8.941321373E0,-1.924293995E0
2.148088875E1,-3.694797277E0,8.826225281E0,-2.148632288E0
2.150107614E1,-3.955672503E0,8.642304420E0,-2.415288448E0
2.152126448E1,-4.224996090E0,8.374574661E0,-2.861168861E0
2.154145375E1,-4.419362545E0,8.129093170E0,-3.249226332E0
2.156164385E1,-4.434274673E0,8.051073074E0,-3.418743849E0
2.158183468E1,-4.425725937E0,8.023327827E0,-3.494218111E0
2.160202614E1,-4.489969254E0,7.942082882E0,-3.596369028E0
2.162221812E1,-4.539531708E0,7.828433514E0,-3.778712034E0
2.164241041E1,-4.536573410E0,7.768459797E0,-3.903960705E0
2.166260291E1,-4.391654491E0,7.829167843E0,-3.948150873E0
2.168280625E1,-4.155952930E0,7.974209785E0,-3.912852764E0
2.170298552E1,-3.917378664E0,8.170033455E0,-3.751677275E0
2.172316510E1,-3.692937613E0,8.399033546E0,-3.462487936E0
2.174334531E1,-3.507937431E0,8.623270035E0,-3.082849741E0
2.176352646E1,-3.358914137E0,8.801624298E0,-2.723873615E0
2.178370885E1,-3.266873598E0,8.916705132E0,-2.447509766E0
2.180389271E1,-3.232578278E0,8.960986137E0,-2.328421593E0
2.182407812E1,-3.214779854E0,8.939493179E0,-2.433320284E0
2.184426510E1,-3.284994125E0,8.853256226E0,-2.645570755E0
2.186445364E1,-3.446737528E0,8.729664803E0,-2.843117952E0
2.188464375E1,-3.684090853E0,8.600098610E0,-2.938737154E0
2.190483520E1,-3.925992727E0,8.495118141E0,-2.930859089E0
2.192502791E1,-4.104496956E0,8.429525375E0,-2.875171900E0
2.194522166E1,-4.123427391E0,8.420275688E0,-2.875182867E0
2.196541614E1,-3.918293953E0,8.480039597E0,-2.984341621E0
2.198561114E1,-3.679864645E0,8.551299095E0,-3.082900286E0
2.200580635E1,-3.609944582E0,8.619486809E0,-2.973740101E0
2.202600073E1,-3.788116455E0,8.655060768E0,-2.628783226E0
2.204618916E1,-3.870178223E0,8.691485405E0,-2.377015829E0
2.206637218E1,-3.835247993E0,8.734719276E0,-2.272870064E0
2.208655562E1,-3.806219339E0,8.789085388E0,-2.105959654E0
2.210673958E1,-3.771707535E0,8.876862526E0,-1.773677826E0
2.212692427E1,-3.668100357E0,8.997001648E0,-1.330181599E0
2.214710979E1,-3.455963373E0,9.128156662E0,-9.504997730E-1
2.216729625E1,-3.215258121E0,9.238092422E0,-7.001234293E-1
2.218748364E1,-3.039822817E0,9.309081078E0,-5.204678178E-1
2.220767198E1,-2.887494326E0,9.364793777E0,-3.652317822E-1
2.222786125E1,-2.752331495E0,9.411223412E0,-1.546946168E-1
2.224805135E1,-2.627794027E0,9.446400642E0,1.749079525E-1
2.226824218E1,-2.500279665E0,9.469767570E0,4.924226701E-1
2.228843364E1,-2.432111502E0,9.474288940E0,7.021892071E-1
2.230862562E1,-2.443229198E0,9.459844589E0,8.440074325E-1
2.232881791E1,-2.487826347E0,9.448306084E0,8.429878354E-1
2.234901041E1,-2.520431995E0,9.456576347E0,6.252962351E-1
2.236921375E1,-2.569452286E0,9.457842827E0,3.427848518E-1
2.238939281E1,-2.620054007E0,9.449268341E0,1.305030584E-1
2.240957218E1,-2.661215305E0,9.438658714E0,-6.953288801E-3
2.242975229E1,-2.716801643E0,9.421140671E0,-1.774873883E-1
2.244993333E1,-2.788434029E0,9.391587257E0,-4.394625723E-1
2.247011562E1,-2.891893148E0,9.333014488E0,-8.379690647E-1
2.249029937E1,-3.025343418E0,9.219184875E0,-1.422784090E0
2.251048468E1,-3.172086716E0,9.064614296E0,-1.985198855E0
2.253067166E1,-3.343853235E0,8.911350250E0,-2.361542702E0
2.255086031E1,-3.527779818E0,8.768529892E0,-2.614967823E0
2.257105052E1,-3.736167669E0,8.610361099E0,-2.841324329E0
2.259124218E1,-3.996623993E0,8.548535347E0,-2.668318272E0
2.261143510E1,-4.421369553E0,8.407421112E0,-2.436625957E0
2.263162906E1,-4.768461227E0,8.022879601E0,-3.010907888E0
2.265182375E1,-4.745230675E0,7.787086487E0,-3.607556581E0
2.267201885E1,-4.670290470E0,7.803283691E0,-3.669812202E0
2.269221416E1,-4.644188881E0,7.869280815E0,-3.560381174E0
2.271240791E1,-4.539688587E0,7.973572254E0,-3.461756706E0
2.273259635E1,-4.340122223E0,8.132941246E0,-3.344995022E0
2.275277937E1,-4.118553638E0,8.327232361E0,-3.140876055E0
2.277296281E1,-3.942149401E0,8.512409210E0,-2.858099699E0
2.279314677E1,-3.802712440E0,8.673130989E0,-2.546875477E0
2.281333146E1,-3.685274601E0,8.803264618E0,-2.256473064E0
2.283351698E1,-3.524183035E0,8.891636848E0,-2.165483475E0
2.285370343E1,-3.265531301E0,8.938652039E0,-2.367953539E0
2.287389083E1,-3.126602411E0,8.982078552E0,-2.391027927E0
2.289407916E1,-3.138887405E0,8.983771324E0,-2.368463755E0
2.291426843E1,-3.261287928E0,8.918611526E0,-2.448013306E0
2.293445854E1,-3.531989098E0,8.808542252E0,-2.470834494E0
2.295464937E1,-3.847501278E0,8.746007919E0,-2.207820177E0
2.297484083E1,-3.949589252E0,8.769472122E0,-1.915068388E0
2.299503281E1,-3.912595034E0,8.801107407E0,-1.844590664E0
2.301522510E1,-3.894906282E0,8.803635597E0,-1.869782567E0
2.303541760E1,-3.866306305E0,8.792962074E0,-1.976329923E0
2.305562093E1,-3.796850443E0,8.795491219E0,-2.096103430E0
2.307579989E1,-3.660730839E0,8.859447479E0,-2.068725586E0
2.309597916E1,-3.439317703E0,9.007311821E0,-1.791593313E0
2.311615916E1,-3.147103310E0,9.194450378E0,-1.314608812E0
2.313634020E1,-2.934976816E0,9.318161011E0,-8.533304930E-1
2.315652250E1,-2.918543339E0,9.339801788E0,-6.485397220E-1
2.317670625E1,-2.926059008E0,9.317025185E0,-8.953320980E-1
2.319689156E1,-2.892737389E0,9.308874130E0,-1.071125746E0
2.321707854E1,-2.926228762E0,9.321092606E0,-8.513605595E-1
2.323726718E1,-2.984904289E0,9.318460464E0,-6.534641385E-1
2.325745739E1,-3.009046555E0,9.316518784E0,-5.643656850E-1
2.327764906E1,-3.004923344E0,9.318907738E0,-5.466110110E-1
2.329784198E1,-2.977853060E0,9.327381134E0,-5.502286553E-1
2.331803593E1,-2.907159567E0,9.355914116E0,-4.308932722E-1
2.333823062E1,-2.819872379E0,9.391505241E0,-1.354772598E-1
2.335842573E1,-2.760573864E0,9.409567833E0,9.817266464E-2
2.337862104E1,-2.726787806E0,9.418684006E0,1.529802382E-1
2.339881489E1,-2.733692646E0,9.417490005E0,9.049459547E-2
2.341900333E1,-2.788005352E0,9.401987076E0,6.722048391E-3
2.343918635E1,-2.877922773E0,9.374646187E0,-6.284940243E-2
2.345936979E1,-2.981917381E0,9.341792107E0,-9.739987552E-2
2.347955375E1,-3.109256029E0,9.300379753E0,-7.657317072E-2
2.349973843E1,-3.241508484E0,9.255307198E0,-4.807699472E-2
2.351992396E1,-3.380630970E0,9.204964638E0,-1.017173454E-1
2.354011041E1,-3.542933226E0,9.139961243E0,-2.812816799E-1
2.356029781E1,-3.723785639E0,9.055384636E0,-5.511939526E-1
2.358048614E1,-3.901749372E0,8.950244904E0,-9.164420366E-1
2.360067541E1,-4.035605431E0,8.812544823E0,-1.491078734E0
2.362086552E1,-4.077172756E0,8.659275055E0,-2.136352539E0
2.364105635E1,-4.055387020E0,8.538698196E0,-2.610526800E0
2.366124781E1,-4.073110580E0,8.466770172E0,-2.809621572E0
2.368143979E1,-4.150725842E0,8.394584656E0,-2.910810471E0
2.370163208E1,-4.298099995E0,8.241585732E0,-3.126179695E0
2.372182458E1,-4.598847389E0,7.980353832E0,-3.366740942E0
2.374202791E1,-4.988306046E0,7.669714928E0,-3.530250072E0
2.376220666E1,-5.234207630E0,7.431276798E0,-3.680977821E0
2.378238573E1,-5.294467926E0,7.315590382E0,-3.823758602E0
2.380256552E1,-5.266745090E0,7.289604187E0,-3.910684109E0
2.382274635E1,-5.206063271E0,7.306017399E0,-3.960985661E0
2.384292843E1,-5.118879795E0,7.345465660E0,-4.001448154E0
2.386311198E1,-4.988765717E0,7.403195858E0,-4.058977127E0
2.388329718E1,-4.820600510E0,7.478102207E0,-4.124341011E0
2.390348406E1,-4.624772072E0,7.594261646E0,-4.136309624E0
2.392367260E1,-4.423703194E0,7.757974625E0,-4.051551342E0
2.394386270E1,-4.257210732E0,7.933838844E0,-3.885968208E0
2.396405427E1,-4.172765255E0,8.074610710E0,-3.682266712E0
2.398424708E1,-4.199728012E0,8.156739235E0,-3.464140177E0
2.400444093E1,-4.306435108E0,8.215724945E0,-3.182274342E0
2.402463562E1,-4.368935585E0,8.293092728E0,-2.882257938E0
2.404483083E1,-4.379945755E0,8.366128922E0,-2.644684792E0
2.406502625E1,-4.376977921E0,8.422904968E0,-2.463151455E0
2.408522156E1,-4.335481167E0,8.486629486E0,-2.313246012E0
2.410541000E1,-4.282804966E0,8.550735474E0,-2.170921564E0
2.412559302E1,-4.271220207E0,8.590917587E0,-2.030565977E0
2.414577646E1,-4.266898632E0,8.598883629E0,-2.005781412E0
2.416596041E1,-4.280842304E0,8.533680916E0,-2.240773916E0
2.418614510E1,-4.355506420E0,8.395424843E0,-2.591676474E0
2.420633062E1,-4.663348198E0,8.188562393E0,-2.714962006E0
2.422651708E1,-5.041497231E0,7.977299690E0,-2.667655706E0
2.424670448E1,-5.269182205E0,7.847750664E0,-2.611303329E0
2.426689281E1,-5.310498714E0,7.845751286E0,-2.532424688E0
2.428708208E1,-5.226898193E0,7.938891888E0,-2.413278818E0
2.430727218E1,-5.171666622E0,8.018302917E0,-2.265186548E0
2.432746302E1,-5.113174438E0,8.082964897E0,-2.165990353E0
2.434765448E1,-5.036939144E0,8.155975342E0,-2.068742514E0
2.436784646E1,-4.978383064E0,8.224906921E0,-1.933135390E0
2.438803875E1,-4.908075809E0,8.296898842E0,-1.800736547E0
2.440823125E1,-4.813760281E0,8.373983383E0,-1.695440054E0
2.442843458E1,-4.718117714E0,8.449009895E0,-1.588711500E0
2.444861333E1,-4.648105621E0,8.505230904E0,-1.492163539E0
2.446879239E1,-4.583609581E0,8.547438622E0,-1.449901223E0
2.448897218E1,-4.528656483E0,8.572504044E0,-1.474395514E0
2.450915302E1,-4.486187935E0,8.581319809E0,-1.550953627E0
2.452933510E1,-4.451447964E0,8.580716133E0,-1.651159644E0
2.454951864E1,-4.438886166E0,8.576171875E0,-1.707612872E0
2.456970385E1,-4.439638615E0,8.577819824E0,-1.697352052E0
2.458989073E1,-4.423051834E0,8.589313507E0,-1.682466507E0
2.461007927E1,-4.386665344E0,8.606393814E0,-1.690427423E0
2.463026937E1,-4.360398293E0,8.625000000E0,-1.663342118E0
2.465046093E1,-4.338428974E0,8.641706467E0,-1.633805871E0
2.467065375E1,-4.331031799E0,8.641784668E0,-1.652911425E0
2.469084760E1,-4.346056938E0,8.617482185E0,-1.738154173E0
2.471104229E1,-4.409163952E0,8.542897224E0,-1.936121941E0
2.473123750E1,-4.624290466E0,8.354181290E0,-2.234722137E0
2.475143291E1,-4.979329586E0,8.072516441E0,-2.492217302E0
2.477162291E1,-5.287938595E0,7.807118416E0,-2.693882227E0
2.479181302E1,-5.470547199E0,7.615358829E0,-2.872250080E0
2.481201396E1,-5.582857132E0,7.493858814E0,-2.973915339E0
2.483219354E1,-5.652667999E0,7.418076515E0,-3.031481743E0
2.485237343E1,-5.649442673E0,7.378607273E0,-3.132146597E0
2.487255396E1,-5.605460167E0,7.357647896E0,-3.257947206E0
2.489273541E1,-5.558417797E0,7.338881493E0,-3.378637075E0
2.491291802E1,-5.450499535E0,7.355868816E0,-3.514772177E0
2.493310198E1,-5.242815018E0,7.431704998E0,-3.667839289E0
2.495328739E1,-4.989377499E0,7.554301262E0,-3.769487381E0
2.497347437E1,-4.767496586E0,7.725667953E0,-3.708829880E0
2.499366291E1,-4.601706982E0,7.951858997E0,-3.429667234E0
2.501385291E1,-4.473481178E0,8.160750389E0,-3.092007637E0
2.503404427E1,-4.407162666E0,8.306987762E0,-2.782312870E0
2.505423677E1,-4.394292831E0,8.383728981E0,-2.563911676E0
2.507443021E1,-4.434009075E0,8.405077934E0,-2.421697855E0
2.509462437E1,-4.520572186E0,8.397989273E0,-2.282234907E0
2.511481906E1,-4.616910458E0,8.390114784E0,-2.111989975E0
2.513501396E1,-4.586021900E0,8.412727356E0,-2.089215517E0
2.515520854E1,-4.440211773E0,8.467319489E0,-2.181605101E0
2.517539687E1,-4.345472813E0,8.539669037E0,-2.088372946E0
2.519557979E1,-4.300323009E0,8.597947121E0,-1.937244773E0
2.521576312E1,-4.297538280E0,8.618110657E0,-1.851946831E0
2.523594708E1,-4.288013458E0,8.621905327E0,-1.856363893E0
2.525613177E1,-4.288087368E0,8.589818001E0,-1.999425292E0
2.527631729E1,-4.369502068E0,8.530684471E0,-2.074911594E0
2.529650375E1,-4.389628410E0,8.509565353E0,-2.118686438E0
2.531669114E1,-4.366788864E0,8.524772644E0,-2.104703188E0
2.533687948E1,-4.292070389E0,8.597397804E0,-1.957873702E0
2.535706875E1,-4.172560692E0,8.698017120E0,-1.761997819E0
2.537725885E1,-4.060432911E0,8.793263435E0,-1.536811709E0
2.539744968E1,-3.996959925E0,8.858599663E0,-1.311452389E0
2.541764114E1,-3.993474722E0,8.882757187E0,-1.148553491E0
2.543783312E1,-4.011889935E0,8.879550934E0,-1.108472466E0
2.545802541E1,-4.021943092E0,8.868746758E0,-1.157452226E0
2.547821791E1,-4.022668362E0,8.862497330E0,-1.201942086E0
2.549842125E1,-4.029863834E0,8.857282639E0,-1.216197133E0
2.551860021E1,-4.034591675E0,8.850763321E0,-1.247569203E0
2.553877948E1,-4.025541782E0,8.843597412E0,-1.325207949E0
2.555895948E1,-4.010542870E0,8.831530571E0,-1.445684195E0
2.557914052E1,-4.010085583E0,8.816411018E0,-1.536393285E0
2.559932281E1,-4.059132099E0,8.817544937E0,-1.394545555E0
2.561950656E1,-4.140311718E0,8.822552681E0,-1.091225266E0
2.563969187E1,-4.207611084E0,8.813255310E0,-8.904726505E-1
2.565987885E1,-4.266022205E0,8.785717010E0,-8.846530914E-1
2.568006750E1,-4.312094688E0,8.752572060E0,-9.842324853E-1
2.570025771E1,-4.451249599E0,8.663291931E0,-1.141991854E0
2.572044937E1,-4.703733921E0,8.488010406E0,-1.413840652E0
2.574064229E1,-5.028716564E0,8.242340088E0,-1.716457009E0
2.576083625E1,-5.346909523E0,7.984717369E0,-1.955818772E0
2.578103093E1,-5.584897041E0,7.784213066E0,-2.094118834E0
2.580122604E1,-5.715815544E0,7.674073219E0,-2.146729469E0
2.582142135E1,-5.744451046E0,7.626541138E0,-2.237756968E0
2.584161520E1,-5.707550526E0,7.626553059E0,-2.330225945E0
2.586180364E1,-5.628154278E0,7.660669327E0,-2.410064697E0
2.588198666E1,-5.517210960E0,7.714647770E0,-2.492985249E0
2.590217010E1,-5.354434013E0,7.815482616E0,-2.533505678E0
2.592235406E1,-5.123293400E0,7.970254898E0,-2.529287338E0
2.594253875E1,-4.860028267E0,8.139685631E0,-2.509189367E0
2.596272427E1,-4.630208015E0,8.290257454E0,-2.450141191E0
2.598291073E1,-4.465074539E0,8.420360565E0,-2.308901072E0
2.600309812E1,-4.343163490E0,8.530615807E0,-2.129771471E0
2.602328646E1,-4.251862049E0,8.601750374E0,-2.025324821E0
2.604347573E1,-4.190361500E0,8.630313873E0,-2.031979561E0
2.606366583E1,-4.147450924E0,8.650097847E0,-2.035890818E0
2.608385666E1,-4.129138470E0,8.685793877E0,-1.917704105E0
2.610404812E1,-4.127889156E0,8.720274925E0,-1.757191777E0
2.612424010E1,-4.190216064E0,8.714191437E0,-1.635648370E0
2.614443239E1,-4.310730934E0,8.676261902E0,-1.520026326E0
2.616462489E1,-4.389131069E0,8.646702766E0,-1.463023782E0
2.618482823E1,-4.381136894E0,8.654062271E0,-1.443340898E0
2.620500718E1,-4.296755314E0,8.699995041E0,-1.420694947E0
2.622518646E1,-4.164874077E0,8.770456314E0,-1.379606843E0
2.624536646E1,-4.040066242E0,8.839301109E0,-1.309581518E0
2.626554750E1,-3.996578693E0,8.870210648E0,-1.231702924E0
2.628572979E1,-4.008945465E0,8.865022659E0,-1.228868842E0
2.630591354E1,-4.026171684E0,8.845104218E0,-1.313186407E0
2.632609885E1,-4.007929802E0,8.843832970E0,-1.376042247E0
2.634628583E1,-3.967745066E0,8.860416412E0,-1.385790825E0
2.636647448E1,-3.915542126E0,8.895145416E0,-1.309694409E0
2.638666468E1,-3.874252081E0,8.934439659E0,-1.156001568E0
2.640685635E1,-3.821547508E0,8.981884003E0,-9.444174767E-1
2.642704927E1,-3.760693312E0,9.028520584E0,-7.165137529E-1
2.644724323E1,-3.720599651E0,9.057383537E0,-5.397531390E-1
2.646743791E1,-3.723762274E0,9.059707642E0,-4.750633240E-1
2.648763312E1,-3.740272999E0,9.052893639E0,-4.752467275E-1
2.650782854E1,-3.722486734E0,9.060111046E0,-4.773591161E-1
2.652802291E1,-3.687942505E0,9.074710846E0,-4.680643678E-1
2.654821135E1,-3.685967684E0,9.081421852E0,-3.343873918E-1
2.656839437E1,-3.710809469E0,9.073145866E0,-2.798528373E-1
2.658857781E1,-3.755492687E0,9.049746513E0,-4.107795060E-1
2.660876187E1,-3.779166460E0,9.025676727E0,-6.522617340E-1
2.662894666E1,-3.732738495E0,9.023675919E0,-9.001761079E-1
2.664913229E1,-3.634934425E0,9.040768623E0,-1.105511904E0
2.666931885E1,-3.535106659E0,9.068614960E0,-1.197347283E0
2.668950635E1,-3.522716284E0,9.073641777E0,-1.195779800E0
2.670969479E1,-3.637993813E0,9.015326500E0,-1.288126349E0
2.672988416E1,-3.871481895E0,8.869063377E0,-1.587990284E0
2.675007437E1,-4.135514736E0,8.654059410E0,-2.043321609E0
2.677026531E1,-4.351114750E0,8.429344177E0,-2.486835957E0
2.679045687E1,-4.517745018E0,8.239850044E0,-2.804504633E0
2.681064896E1,-4.642354965E0,8.093853951E0,-3.018021107E0
2.683084135E1,-4.745642185E0,7.989336967E0,-3.133649826E0
2.685103396E1,-4.845645905E0,7.908271313E0,-3.185804129E0
2.687123739E1,-4.866296291E0,7.868403435E0,-3.252347946E0
2.689141604E1,-4.791892052E0,7.907078266E0,-3.268985033E0
2.691159500E1,-4.690067768E0,8.008878708E0,-3.167256117E0
2.693177468E1,-4.571841717E0,8.160674095E0,-2.944836855E0
2.695195541E1,-4.429916382E0,8.329077721E0,-2.678189516E0
2.697213750E1,-4.270991325E0,8.473341942E0,-2.476186275E0
2.699232114E1,-4.091991425E0,8.589320183E0,-2.376884937E0
2.701250646E1,-3.904698849E0,8.704218864E0,-2.271630526E0
2.703269343E1,-3.772754192E0,8.817106247E0,-2.048252821E0
2.705288208E1,-3.709702253E0,8.886339188E0,-1.855119348E0
2.707307239E1,-3.702040195E0,8.909439087E0,-1.757036328E0
2.709326416E1,-3.741657019E0,8.894645691E0,-1.748043537E0
2.711345729E1,-3.806381941E0,8.864060402E0,-1.763595581E0
2.713365146E1,-3.888743639E0,8.832531929E0,-1.741969347E0
2.715384646E1,-3.962562561E0,8.805771828E0,-1.710808754E0
2.717404198E1,-4.003441811E0,8.790137291E0,-1.695973992E0
2.719423771E1,-4.030156612E0,8.788675308E0,-1.639332056E0
2.721443250E1,-4.026346684E0,8.800998688E0,-1.581569076E0
2.723462104E1,-3.946888924E0,8.837455750E0,-1.578557491E0
2.725480416E1,-3.830936193E0,8.890295029E0,-1.567472577E0
2.727498770E1,-3.801524162E0,8.913567543E0,-1.505699754E0
2.729517177E1,-3.904541254E0,8.891526222E0,-1.365904212E0
2.731535656E1,-4.029902458E0,8.845829010E0,-1.296759844E0
2.733554218E1,-4.070385456E0,8.806513786E0,-1.430964947E0
2.735572875E1,-4.040323257E0,8.799571037E0,-1.553618670E0
2.737591625E1,-3.975522518E0,8.818133354E0,-1.614351869E0
2.739610468E1,-3.877780914E0,8.858695030E0,-1.629943371E0
2.741629406E1,-3.756557703E0,8.917146683E0,-1.594729066E0
2.743648427E1,-3.625611544E0,8.988143921E0,-1.496193767E0
2.745667521E1,-3.533430576E0,9.044577599E0,-1.371444464E0
2.747686677E1,-3.539265871E0,9.063468933E0,-1.223726392E0
2.749705885E1,-3.580211878E0,9.062498093E0,-1.106167316E0
2.751725125E1,-3.588640451E0,9.060343742E0,-1.096459866E0
2.753744385E1,-3.581317663E0,9.056104660E0,-1.153915524E0
2.755764729E1,-3.596306324E0,9.047239304E0,-1.176612735E0
2.757782656E1,-3.627887487E0,9.029738426E0,-1.213521600E0
2.759800614E1,-3.705612421E0,8.990408897E0,-1.269400358E0
2.761818635E1,-3.858450651E0,8.918143272E0,-1.322672606E0
2.763836750E1,-4.044284344E0,8.807650566E0,-1.496478438E0
2.765854989E1,-4.291860580E0,8.629645348E0,-1.810952663E0
2.767873375E1,-4.640309811E0,8.379870415E0,-2.101353407E0
2.769891916E1,-5.022502422E0,8.104066849E0,-2.295419455E0
2.771910625E1,-5.332371235E0,7.846494675E0,-2.483688354E0
2.773929500E1,-5.504139900E0,7.691320896E0,-2.591991186E0
2.775948531E1,-5.554880619E0,7.652063370E0,-2.599925280E0
2.777967708E1,-5.506234646E0,7.680375576E0,-2.619847536E0
2.779987010E1,-5.378122330E0,7.760888577E0,-2.648546457E0
2.782006416E1,-5.237148762E0,7.860175610E0,-2.638237476E0
2.784025896E1,-5.093270302E0,7.983482838E0,-2.548134327E0
2.786045416E1,-4.939927578E0,8.123759270E0,-2.402506828E0
2.788064958E1,-4.765292645E0,8.266654968E0,-2.263798475E0
2.790084375E1,-4.551444530E0,8.414882660E0,-2.155106068E0
2.792103229E1,-4.321928501E0,8.564965248E0,-2.032903433E0
2.794121541E1,-4.104957104E0,8.706998825E0,-1.872933149E0
2.796139896E1,-3.916702032E0,8.807427406E0,-1.805284858E0
2.798158302E1,-3.791593075E0,8.844478607E0,-1.889290333E0
2.800176781E1,-3.778978109E0,8.844325066E0,-1.915108085E0
2.802195343E1,-3.877398729E0,8.837965965E0,-1.739687443E0
2.804214000E1,-3.943174124E0,8.828395844E0,-1.637432218E0
2.806232750E1,-3.947415113E0,8.826102257E0,-1.639576554E0
2.808251593E1,-3.968882799E0,8.822819710E0,-1.605058193E0
2.810270531E1,-4.002556324E0,8.807466507E0,-1.605759859E0
2.812289562E1,-3.989944458E0,8.794766426E0,-1.703764558E0
2.814308666E1,-3.925440311E0,8.807201385E0,-1.787322521E0
2.816327833E1,-3.800039768E0,8.859866142E0,-1.798014045E0
2.818347052E1,-3.651180506E0,8.929795265E0,-1.760117412E0
2.820366302E1,-3.527170658E0,8.996110916E0,-1.673152328E0
2.822385573E1,-3.471275330E0,9.040306091E0,-1.547100067E0
2.824405927E1,-3.500427961E0,9.053695679E0,-1.395710707E0
2.826423823E1,-3.606049061E0,9.035206795E0,-1.237675428E0
2.828441750E1,-3.773650169E0,8.982109070E0,-1.118785024E0
2.830459750E1,-3.877210140E0,8.931377411E0,-1.169664383E0
2.832477854E1,-3.890593290E0,8.905381203E0,-1.314484000E0
2.834496083E1,-3.914594412E0,8.883199692E0,-1.391079307E0
2.836514458E1,-3.974236488E0,8.854872704E0,-1.402520776E0
2.838532989E1,-4.055141449E0,8.827419281E0,-1.342711091E0
2.840551687E1,-4.120556831E0,8.816179276E0,-1.210940003E0
2.842570552E1,-4.124063015E0,8.839210510E0,-1.015317917E0
2.844589573E1,-4.059024811E0,8.894779205E0,-7.600084543E-1
2.846608739E1,-3.935541868E0,8.965687752E0,-5.462114215E-1
2.848628031E1,-3.764037371E0,9.046245575E0,-4.096992910E-1
2.850647427E1,-3.584993839E0,9.120927811E0,-3.562049866E-1
2.852666906E1,-3.419657469E0,9.181694984E0,-4.157307446E-1
2.854686437E1,-3.281722307E0,9.225413322E0,-5.407810807E-1
2.856705989E1,-3.181584597E0,9.257419586E0,-5.899837613E-1
2.858725000E1,-3.115943909E0,9.279279709E0,-5.968551040E-1
2.860744021E1,-3.106726885E0,9.276604652E0,-6.806159019E-1
2.862764125E1,-3.205377340E0,9.218469620E0,-9.569634199E-1
2.864782146E1,-3.439520597E0,9.081076622E0,-1.368992448E0
2.866800198E1,-3.843639851E0,8.867847443E0,-1.660753846E0
2.868818312E1,-4.437397003E0,8.585439682E0,-1.664373279E0
2.870836510E1,-5.057288170E0,8.275981903E0,-1.449948072E0
2.872854823E1,-5.471551895E0,7.983196735E0,-1.581478000E0
2.874873260E1,-5.696356297E0,7.790640831E0,-1.740063667E0
2.876891833E1,-5.727623463E0,7.712186813E0,-1.971519589E0
2.878910552E1,-5.564088345E0,7.718533993E0,-2.373928070E0
2.880929416E1,-5.432999611E0,7.671100140E0,-2.794122934E0
2.882948416E1,-5.424279690E0,7.559469700E0,-3.098711252E0
2.884967541E1,-5.437879086E0,7.399249077E0,-3.442523956E0
2.886986781E1,-5.388661385E0,7.248162270E0,-3.820583582E0
2.889006114E1,-5.278710842E0,7.170730114E0,-4.109286308E0
2.891025521E1,-5.118279934E0,7.236653805E0,-4.195765018E0
2.893044968E1,-4.975344181E0,7.454727650E0,-3.980373621E0
2.895064437E1,-4.861896515E0,7.778960705E0,-3.467004538E0
2.897083364E1,-4.669198990E0,8.133941650E0,-2.864952803E0
2.899102302E1,-4.336932182E0,8.390780449E0,-2.637460232E0
2.901121250E1,-4.015849113E0,8.392786980E0,-3.099104166E0
2.903140208E1,-3.972508192E0,8.330643654E0,-3.315108299E0
2.905160250E1,-4.017089367E0,8.324321747E0,-3.277047634E0
2.907178208E1,-4.012350082E0,8.383840561E0,-3.127722502E0
2.909196198E1,-4.017076015E0,8.465824127E0,-2.891936779E0
2.911214250E1,-4.005617142E0,8.549386024E0,-2.652055740E0
2.913232396E1,-3.822611570E0,8.666656494E0,-2.539113522E0
2.915250656E1,-3.597811222E0,8.788328171E0,-2.447738647E0
2.917269052E1,-3.542144299E0,8.852242470E0,-2.293773651E0
2.919287604E1,-3.509441376E0,8.892347336E0,-2.186406612E0
2.921306312E1,-3.448880196E0,8.931677818E0,-2.121496439E0
2.923325177E1,-3.343085051E0,8.993662834E0,-2.026869774E0
2.925344198E1,-3.214814425E0,9.094078064E0,-1.770062327E0
2.927363354E1,-3.119297743E0,9.206933022E0,-1.293350935E0
2.929382635E1,-3.011381626E0,9.290679932E0,-8.861371279E-1
2.931402021E1,-2.894104004E0,9.339768410E0,-7.505252957E-1
2.933421479E1,-2.854293346E0,9.354146004E0,-7.234220505E-1
2.935440989E1,-2.830841780E0,9.363674164E0,-6.916111708E-1
2.937460520E1,-2.785507679E0,9.382325172E0,-6.191172600E-1
2.939479979E1,-2.720018148E0,9.410161018E0,-4.698462784E-1
2.941498833E1,-2.649957895E0,9.437843323E0,-2.742658556E-1
2.943517146E1,-2.589604855E0,9.457351685E0,-1.511542201E-1
2.945535500E1,-2.569924355E0,9.463437080E0,-9.614874423E-2
2.947553916E1,-2.592099190E0,9.457851410E0,-2.144894935E-2
2.949572406E1,-2.642717838E0,9.442710876E0,1.470850259E-1
2.951590979E1,-2.666886091E0,9.431580544E0,3.215355277E-1
2.953609646E1,-2.649371147E0,9.435396194E0,3.528724611E-1
2.955628406E1,-2.634409904E0,9.443211555E0,2.367228270E-1
2.957647260E1,-2.633042336E0,9.446545601E0,-1.568635553E-2
2.959666208E1,-2.667134523E0,9.429027557E0,-3.875732422E-1
2.961685239E1,-2.758996248E0,9.374943733E0,-8.177747726E-1
2.963704343E1,-2.889873743E0,9.294330597E0,-1.197673440E0
2.965723510E1,-3.041838884E0,9.197322845E0,-1.525403857E0
2.967742729E1,-3.206195831E0,9.088394165E0,-1.814325809E0
2.969761979E1,-3.360683441E0,9.000664711E0,-1.965762973E0
2.971781239E1,-3.577195644E0,8.912706375E0,-1.984365106E0
2.973801583E1,-3.882664919E0,8.774600029E0,-2.025264025E0
2.975819458E1,-4.124956608E0,8.618024826E0,-2.210150480E0
2.977837364E1,-4.195591450E0,8.495928764E0,-2.527171612E0
2.979855343E1,-4.123761654E0,8.411236763E0,-2.901043653E0
2.981873427E1,-4.113903046E0,8.308420181E0,-3.196303606E0
2.983891646E1,-4.216456413E0,8.193774223E0,-3.354687691E0
2.985910010E1,-4.295184135E0,8.131491661E0,-3.405969858E0
2.987928541E1,-4.275273323E0,8.153452873E0,-3.378406048E0
2.989947239E1,-4.158205509E0,8.239871979E0,-3.314245462E0
2.991966104E1,-4.007788658E0,8.349790573E0,-3.223200083E0
2.993985135E1,-3.872739792E0,8.441383362E0,-3.148862123E0
2.996004312E1,-3.737878323E0,8.503854752E0,-3.143739939E0
2.998023625E1,-3.650938988E0,8.539086342E0,-3.150401592E0
3.000043041E1,-3.651063681E0,8.576128960E0,-3.047973156E0
3.002062541E1,-3.663416862E0,8.625797272E0,-2.888840437E0
3.004082093E1,-3.673942327E0,8.626160622E0,-2.874348879E0
3.006101666E1,-3.779671907E0,8.539965630E0,-2.992232800E0
3.008121229E1,-4.088257313E0,8.389032364E0,-3.013415337E0
3.010140093E1,-4.481616020E0,8.257120132E0,-2.811665297E0
3.012158948E1,-4.707692146E0,8.258866310E0,-2.408141851E0
3.014177260E1,-4.710382938E0,8.362762451E0,-2.011690378E0
3.016195614E1,-4.741726398E0,8.388920784E0,-1.820005655E0
3.018214031E1,-4.714691639E0,8.388263702E0,-1.891854048E0
3.020232520E1,-4.494073868E0,8.488665581E0,-1.978950381E0
3.022251093E1,-4.143653870E0,8.654180527E0,-2.026243210E0
3.024269760E1,-3.783689976E0,8.814108849E0,-2.040971041E0
3.026288521E1,-3.468916893E0,8.944419861E0,-2.033316135E0
3.028307375E1,-3.268803596E0,9.039553642E0,-1.942103982E0
3.030326323E1,-3.286807775E0,9.058389664E0,-1.820127249E0
3.032345354E1,-3.437519073E0,9.016045570E0,-1.750647306E0
3.034364458E1,-3.526023626E0,8.994008064E0,-1.686821461E0
3.036383625E1,-3.509933233E0,9.001875877E0,-1.678391933E0
3.038402843E1,-3.434465885E0,9.025587082E0,-1.706932425E0
3.040422093E1,-3.347423077E0,9.056156158E0,-1.717896342E0
3.042441364E1,-3.272130251E0,9.089095116E0,-1.688757777E0
3.044461718E1,-3.232870817E0,9.111394882E0,-1.643602252E0
3.046479593E1,-3.255668879E0,9.102965355E0,-1.645308733E0
3.048497500E1,-3.299519300E0,9.078249931E0,-1.693796515E0
3.050515479E1,-3.304469347E0,9.066517830E0,-1.746179700E0
3.052533562E1,-3.296008825E0,9.052032471E0,-1.835053921E0
3.054551781E1,-3.335047483E0,9.001547813E0,-2.004987001E0
3.056570146E1,-3.447775364E0,8.918066025E0,-2.179753065E0
3.058588677E1,-3.590383291E0,8.849307060E0,-2.229189157E0
3.060607375E1,-3.686293840E0,8.817201614E0,-2.199675083E0
3.062626239E1,-3.699424744E0,8.800019264E0,-2.245951891E0
3.064645270E1,-3.686306238E0,8.765801430E0,-2.396300554E0
3.066664458E1,-3.786724806E0,8.663435936E0,-2.603068590E0
3.068683781E1,-4.091036797E0,8.445613861E0,-2.847000837E0
3.070703208E1,-4.478734493E0,8.148282051E0,-3.117182493E0
3.072722718E1,-4.788218021E0,7.859547615E0,-3.386868477E0
3.074742281E1,-5.015365601E0,7.636956215E0,-3.562779427E0
3.076761864E1,-5.182392597E0,7.468429089E0,-3.679096699E0
3.078781375E1,-5.254524231E0,7.349202633E0,-3.814390659E0
3.080800239E1,-5.193758011E0,7.302591324E0,-3.983392954E0
3.082819093E1,-5.073024750E0,7.326593876E0,-4.093388557E0
3.084837406E1,-4.952960014E0,7.417082310E0,-4.077433109E0
3.086855760E1,-4.803357124E0,7.570664406E0,-3.972805738E0
3.088874177E1,-4.596958160E0,7.769662380E0,-3.830235958E0
3.090892666E1,-4.354157448E0,7.981952190E0,-3.674252033E0
3.092911239E1,-4.136296749E0,8.174779892E0,-3.497773647E0
3.094929906E1,-3.987549543E0,8.346482277E0,-3.256695747E0
3.096948666E1,-3.874226332E0,8.516059875E0,-2.938959122E0
3.098967520E1,-3.760360003E0,8.658448219E0,-2.657323837E0
3.100986468E1,-3.649179697E0,8.746974945E0,-2.518789291E0
3.103005500E1,-3.614472151E0,8.776317596E0,-2.466215372E0
3.105024604E1,-3.749334574E0,8.766887665E0,-2.292284727E0
3.107043771E1,-3.940180302E0,8.754583359E0,-2.000655651E0
3.109062989E1,-4.032095909E0,8.752603531E0,-1.817832828E0
3.111082239E1,-4.059599400E0,8.752835274E0,-1.754396677E0
3.113101510E1,-4.112782001E0,8.743869781E0,-1.673359632E0
3.115121864E1,-4.119855404E0,8.751138687E0,-1.617020369E0
3.117139760E1,-4.056712151E0,8.768702507E0,-1.680277228E0
3.119157687E1,-3.943565130E0,8.789393425E0,-1.834462047E0
3.121175687E1,-3.820898771E0,8.819931984E0,-1.944201827E0
3.123193791E1,-3.736714602E0,8.847430229E0,-1.982505322E0
3.125212020E1,-3.755597353E0,8.834001541E0,-2.006564379E0
3.127230396E1,-3.947568655E0,8.745281219E0,-2.026608229E0
3.129248937E1,-4.238594532E0,8.632307053E0,-1.920409083E0
3.131267646E1,-4.351936340E0,8.605573654E0,-1.781895399E0
3.133286520E1,-4.331770897E0,8.636793137E0,-1.676888227E0
3.135305552E1,-4.309009075E0,8.670951843E0,-1.554813385E0
3.137324729E1,-4.254617691E0,8.713145256E0,-1.466192603E0
3.139344031E1,-4.161041737E0,8.762668610E0,-1.439354777E0
3.141363437E1,-4.057860851E0,8.813834190E0,-1.421432137E0
3.143382927E1,-3.996963263E0,8.848004341E0,-1.381118536E0
3.145402468E1,-3.988270998E0,8.854461670E0,-1.364772081E0
3.147422031E1,-4.016388893E0,8.833506584E0,-1.417102098E0
3.149441562E1,-4.074965954E0,8.796367645E0,-1.479511499E0
3.151460427E1,-4.146827221E0,8.758955956E0,-1.501634359E0
3.153478750E1,-4.229074478E0,8.714194298E0,-1.532366037E0
3.155497114E1,-4.333276749E0,8.661409378E0,-1.540482521E0
3.157515531E1,-4.408544064E0,8.624706268E0,-1.532833219E0
3.159534021E1,-4.399295807E0,8.626735687E0,-1.547902822E0
3.161552593E1,-4.357893467E0,8.644522667E0,-1.565691113E0
3.163571260E1,-4.320309639E0,8.660678864E0,-1.580494046E0
3.165590021E1,-4.302466869E0,8.671614647E0,-1.569160461E0
3.167608875E1,-4.297921181E0,8.676372528E0,-1.555256844E0
3.169627823E1,-4.290110588E0,8.667968750E0,-1.622241735E0
3.171646854E1,-4.286136150E0,8.631348610E0,-1.816379666E0
3.173665958E1,-4.306296349E0,8.542712212E0,-2.155985594E0
3.175685125E1,-4.370952606E0,8.391201973E0,-2.579317093E0
3.177704343E1,-4.501398563E0,8.191724777E0,-2.967062473E0
3.179723593E1,-4.679827213E0,7.984961987E0,-3.241910934E0
3.181742864E1,-4.845124722E0,7.813224792E0,-3.413015842E0
3.183763218E1,-4.954077721E0,7.674492836E0,-3.567866325E0
3.185781104E1,-5.008659363E0,7.551281929E0,-3.749916077E0
3.187799021E1,-5.015445232E0,7.459772110E0,-3.920138836E0
3.189817010E1,-4.974747658E0,7.439112663E0,-4.010221004E0
3.191835104E1,-4.875994682E0,7.513459206E0,-3.992866516E0
3.193853323E1,-4.709003448E0,7.656949043E0,-3.920051813E0
3.195871687E1,-4.485447407E0,7.845536232E0,-3.807719469E0
3.197890218E1,-4.236904144E0,8.065969467E0,-3.627556324E0
3.199908916E1,-4.018504143E0,8.273168564E0,-3.402453423E0
3.201927781E1,-3.885597467E0,8.434575081E0,-3.151265383E0
3.203946812E1,-3.844130754E0,8.541238785E0,-2.905215979E0
3.205965989E1,-3.849134684E0,8.607898712E0,-2.694182873E0
3.207985302E1,-3.870428801E0,8.661982536E0,-2.481984377E0
3.210004718E1,-3.892899275E0,8.712724686E0,-2.259237051E0
3.212024218E1,-3.858549833E0,8.771464348E0,-2.084083796E0
3.214043771E1,-3.653009176E0,8.856065750E0,-2.096669674E0
3.216063343E1,-3.394618511E0,8.950462341E0,-2.129834652E0
3.218082375E1,-3.323261499E0,8.991389275E0,-2.069114685E0
3.220101416E1,-3.476464033E0,8.954640388E0,-1.974589109E0
3.222121541E1,-3.697114229E0,8.875227928E0,-1.931854725E0
3.224139520E1,-3.859071493E0,8.775374413E0,-2.066581249E0
3.226157531E1,-4.020900249E0,8.692502975E0,-2.107873201E0
3.228175604E1,-4.086003304E0,8.676553726E0,-2.047531128E0
3.230193770E1,-4.058441639E0,8.700836182E0,-1.998721719E0
3.232212052E1,-4.004867077E0,8.751225471E0,-1.883477092E0
3.234230468E1,-3.968881845E0,8.806316376E0,-1.693267941E0
3.236249031E1,-3.935210943E0,8.864880562E0,-1.448578715E0
3.238267750E1,-3.890617847E0,8.921985626E0,-1.196516395E0
3.240286625E1,-3.842402935E0,8.965785027E0,-1.010461450E0
3.242305646E1,-3.803396940E0,8.988601685E0,-9.537284374E-1
3.244324802E1,-3.748978376E0,9.007465363E0,-9.905120134E-1
3.246344073E1,-3.692564011E0,9.024315834E0,-1.047420740E0
3.248363437E1,-3.678247690E0,9.022174835E0,-1.114105105E0
3.250382875E1,-3.706812859E0,8.998335838E0,-1.208244681E0
3.252402364E1,-3.741941214E0,8.969312668E0,-1.311369181E0
3.254421875E1,-3.756331682E0,8.946780205E0,-1.419672608E0
3.256441364E1,-3.758244991E0,8.931160927E0,-1.510077238E0
3.258460229E1,-3.772615671E0,8.920722008E0,-1.535727739E0
3.260478552E1,-3.837776899E0,8.901493073E0,-1.485018611E0
3.262496916E1,-3.935057163E0,8.870267868E0,-1.415645361E0
3.264515333E1,-3.964951992E0,8.858262062E0,-1.407386184E0
3.266533823E1,-3.948781490E0,8.861113548E0,-1.434636116E0
3.268552396E1,-3.936937094E0,8.858940125E0,-1.479892492E0
3.270571062E1,-3.934839249E0,8.842494011E0,-1.580419064E0
3.272589823E1,-3.987169743E0,8.780377388E0,-1.782648087E0
3.274608677E1,-4.179391861E0,8.626346588E0,-2.071043491E0
3.276627625E1,-4.479551315E0,8.404173851E0,-2.339632511E0
3.278646656E1,-4.715801716E0,8.204343796E0,-2.573003054E0
3.280665760E1,-4.888346672E0,8.053978920E0,-2.721741438E0
3.282684927E1,-5.046308517E0,7.934838295E0,-2.782714605E0
3.284704146E1,-5.145655632E0,7.847717285E0,-2.847096682E0
3.286723396E1,-5.170512199E0,7.783127308E0,-2.976428509E0
3.288742666E1,-5.140525341E0,7.735461235E0,-3.147700310E0
3.290763021E1,-5.080980778E0,7.705246925E0,-3.314089060E0
3.292780927E1,-4.992049217E0,7.702761173E0,-3.452146053E0
3.294798864E1,-4.839644909E0,7.750795364E0,-3.559969664E0
3.296816875E1,-4.652669430E0,7.844253063E0,-3.604268312E0
3.298834989E1,-4.477824211E0,7.967533112E0,-3.554982424E0
3.300853229E1,-4.327260971E0,8.104269981E0,-3.430161953E0
3.302871614E1,-4.171408176E0,8.242616653E0,-3.290745258E0
3.304890156E1,-3.969267368E0,8.383418083E0,-3.183331490E0
3.306908864E1,-3.773277283E0,8.540932655E0,-2.997537613E0
3.308927739E1,-3.650085926E0,8.692731857E0,-2.698828697E0
3.310946770E1,-3.589999437E0,8.809572220E0,-2.381960630E0
3.312965948E1,-3.592190742E0,8.862852097E0,-2.171730995E0
3.314985250E1,-3.689611197E0,8.804616928E0,-2.244080782E0
3.317004656E1,-3.822183609E0,8.720692635E0,-2.347510099E0
3.319024146E1,-3.816973686E0,8.740152359E0,-2.282725334E0
3.321043687E1,-3.721637964E0,8.804861069E0,-2.189571857E0
3.323063250E1,-3.673625231E0,8.835286140E0,-2.147691488E0
3.325082770E1,-3.612734318E0,8.855723381E0,-2.166721344E0
3.327101635E1,-3.520395756E0,8.877534866E0,-2.228583336E0
3.329119958E1,-3.519144058E0,8.892773628E0,-2.169004202E0
3.331138323E1,-3.585679770E0,8.902233124E0,-2.015822411E0
3.333156739E1,-3.906705856E0,8.784230232E0,-1.935289383E0
3.335175229E1,-4.134091377E0,8.690930367E0,-1.883458614E0
3.337193802E1,-4.082818031E0,8.717409134E0,-1.872905254E0
3.339212468E1,-3.912297487E0,8.808704376E0,-1.808597207E0
3.341231229E1,-3.710016489E0,8.927129745E0,-1.646972656E0
3.343250083E1,-3.456031084E0,9.063210487E0,-1.443762422E0
3.345269031E1,-3.171808243E0,9.184501648E0,-1.324743271E0
3.347288062E1,-3.005718946E0,9.250132561E0,-1.253431916E0
3.349307166E1,-2.986115932E0,9.266631126E0,-1.176029444E0
3.351326333E1,-2.970977306E0,9.272232056E0,-1.170211077E0
3.353345552E1,-2.961812019E0,9.262335777E0,-1.267750025E0
3.355364802E1,-3.016474485E0,9.225875854E0,-1.398029923E0
3.357384073E1,-3.148580551E0,9.166197777E0,-1.495876670E0
3.359404427E1,-3.343233585E0,9.089199066E0,-1.542605758E0
3.361422343E1,-3.605872869E0,8.981281281E0,-1.582612276E0
3.363440291E1,-3.843541861E0,8.874983788E0,-1.622414112E0
3.365458312E1,-3.977553368E0,8.810772896E0,-1.649162769E0
3.367476437E1,-4.048518658E0,8.775880814E0,-1.662468076E0
3.369494687E1,-4.066587448E0,8.760493279E0,-1.699122667E0
3.371513083E1,-4.036992073E0,8.747735977E0,-1.830353022E0
3.373531635E1,-4.012645245E0,8.710849762E0,-2.046991110E0
3.375550354E1,-4.000041485E0,8.649560928E0,-2.314117193E0
3.377569239E1,-4.028995514E0,8.554012299E0,-2.601239920E0
3.379588281E1,-4.215153694E0,8.390005112E0,-2.830316067E0
3.381607468E1,-4.573275089E0,8.179534912E0,-2.889766455E0
3.383626781E1,-4.832664013E0,8.023730278E0,-2.904393673E0
3.385646198E1,-4.919134617E0,7.967995644E0,-2.912653923E0
3.387665687E1,-4.930997849E0,7.961134434E0,-2.911351442E0
3.389685218E1,-4.845991135E0,8.002179146E0,-2.941408157E0
3.391704770E1,-4.686795235E0,8.068049431E0,-3.018428564E0
3.393724187E1,-4.514705181E0,8.129296303E0,-3.114861012E0
3.395743052E1,-4.357348442E0,8.178621292E0,-3.208434820E0
3.397761375E1,-4.195624352E0,8.225014687E0,-3.303975821E0
3.399779739E1,-4.032807350E0,8.279026985E0,-3.371136427E0
3.401798156E1,-3.895418644E0,8.348346710E0,-3.361728430E0
3.403816646E1,-3.780925512E0,8.435392380E0,-3.274009705E0
3.405835218E1,-3.682062387E0,8.528287888E0,-3.143422604E0
3.407853885E1,-3.599765301E0,8.601492882E0,-3.037496805E0
3.409872646E1,-3.518309116E0,8.671913147E0,-2.930835724E0
3.411891500E1,-3.472404003E0,8.769316673E0,-2.685495377E0
3.413910448E1,-3.502440453E0,8.873508453E0,-2.272474289E0
3.415929479E1,-3.561733723E0,8.891522408E0,-2.103635073E0
3.417948583E1,-3.540600300E0,8.878772736E0,-2.191332340E0
3.419967750E1,-3.420049191E0,8.920711517E0,-2.212366819E0
3.421986968E1,-3.282199144E0,8.985124588E0,-2.159879684E0
3.424006218E1,-3.127274036E0,9.032338142E0,-2.192582846E0
3.426025489E1,-3.001427650E0,9.031589508E0,-2.364780903E0
3.428045843E1,-3.104426861E0,8.976447105E0,-2.440556765E0
3.430063739E1,-3.414540529E0,8.823021889E0,-2.581777811E0
3.432081666E1,-3.857287407E0,8.574295998E0,-2.788040400E0
3.434099666E1,-4.034051895E0,8.517319679E0,-2.711472988E0
3.436117770E1,-3.916548967E0,8.639836311E0,-2.486814499E0
3.438136000E1,-3.743017197E0,8.786551476E0,-2.226372242E0
3.440154375E1,-3.649821520E0,8.878318787E0,-2.006155491E0
3.442172916E1,-3.620600462E0,8.934741020E0,-1.797788024E0
3.444191625E1,-3.568160057E0,8.994949341E0,-1.590445161E0
3.446210500E1,-3.494001389E0,9.056515694E0,-1.393502831E0
3.448229531E1,-3.398403168E0,9.110846519E0,-1.270321012E0
3.450248708E1,-3.289312363E0,9.152844429E0,-1.255498052E0
3.452268010E1,-3.184798479E0,9.183489799E0,-1.300362587E0
3.454287416E1,-3.126082182E0,9.197976112E0,-1.339864850E0
3.456306906E1,-3.118090868E0,9.199430466E0,-1.348474622E0
3.458326448E1,-3.103715658E0,9.200326920E0,-1.375254393E0
3.460346010E1,-3.035774231E0,9.214334488E0,-1.431956768E0
3.462365031E1,-2.907836437E0,9.256459236E0,-1.425772667E0
3.464384062E1,-2.758907080E0,9.315511703E0,-1.334190726E0
3.466404177E1,-2.634826899E0,9.358593941E0,-1.282491565E0
3.468422166E1,-2.570131063E0,9.372311592E0,-1.313239813E0
3.470440187E1,-2.562637568E0,9.364296913E0,-1.383198142E0
3.472458270E1,-2.612064838E0,9.336481094E0,-1.475683570E0
3.474476448E1,-2.759664059E0,9.268871307E0,-1.625626564E0
3.476494739E1,-3.021108627E0,9.137274742E0,-1.885073304E0
3.478513166E1,-3.404669523E0,8.938659668E0,-2.163093328E0
3.480531739E1,-3.881104946E0,8.699748993E0,-2.328469753E0
3.482550458E1,-4.270595551E0,8.511790276E0,-2.341332436E0
3.484569323E1,-4.400634289E0,8.432823181E0,-2.385853767E0
3.486588333E1,-4.425338745E0,8.380872726E0,-2.519471407E0
3.488607479E1,-4.420186996E0,8.319351196E0,-2.724101543E0
3.490626739E1,-4.377779961E0,8.251129150E0,-2.987354994E0
3.492646093E1,-4.316837311E0,8.196885109E0,-3.216579437E0
3.494665520E1,-4.220190525E0,8.196131706E0,-3.344218969E0
3.496685000E1,-4.066987038E0,8.258243561E0,-3.381038427E0
3.498704500E1,-3.882672787E0,8.365393639E0,-3.333979845E0
3.500723979E1,-3.712168455E0,8.492660522E0,-3.203888178E0
3.502742843E1,-3.574557543E0,8.609172821E0,-3.045500517E0
3.504761166E1,-3.450201273E0,8.690990448E0,-2.955194950E0
3.506779531E1,-3.313255548E0,8.755936623E0,-2.919980764E0
3.508797948E1,-3.155077457E0,8.840211868E0,-2.840164185E0
3.510816437E1,-2.951431751E0,8.935651779E0,-2.759270906E0
3.512835010E1,-2.731085300E0,8.969528198E0,-2.873870850E0
3.514853677E1,-2.683874369E0,8.891068459E0,-3.148984909E0
3.516872437E1,-2.822892904E0,8.775479317E0,-3.345538378E0
3.518891291E1,-2.963211775E0,8.672532082E0,-3.489549160E0
3.520910239E1,-3.083676338E0,8.551391602E0,-3.678999186E0
3.522929270E1,-3.320095539E0,8.523588181E0,-3.534938812E0
3.524948375E1,-3.550109148E0,8.611263275E0,-3.068105221E0
3.526967541E1,-3.819783449E0,8.587705612E0,-2.798382282E0
3.528986760E1,-4.113583565E0,8.367602348E0,-3.038425922E0
3.531006010E1,-4.186402798E0,8.298305511E0,-3.127703667E0
3.533025281E1,-4.036658764E0,8.453527451E0,-2.900627851E0
3.535045635E1,-3.774546146E0,8.657712936E0,-2.639543295E0
3.537063520E1,-3.480216742E0,8.850139618E0,-2.394476175E0
3.539081437E1,-3.212194443E0,9.016903877E0,-2.132519722E0
3.541099427E1,-3.000029087E0,9.146868706E0,-1.872163415E0
3.543117520E1,-2.827646732E0,9.242766380E0,-1.657131195E0
3.545135739E1,-2.685311079E0,9.319198608E0,-1.453282833E0
3.547154104E1,-2.553890228E0,9.384742737E0,-1.254850745E0
3.549172635E1,-2.423371077E0,9.440846443E0,-1.080784440E0
3.551191333E1,-2.307157993E0,9.486478806E0,-9.242020249E-1
3.553210198E1,-2.219109535E0,9.524360657E0,-7.297137976E-1
3.555229229E1,-2.152405024E0,9.558712006E0,-4.105817080E-1
3.557248406E1,-2.072163582E0,9.585172653E0,-3.130238876E-2
3.559267718E1,-1.985371470E0,9.601678848E0,1.908831000E-1
3.561287135E1,-1.938067436E0,9.610796928E0,2.165134251E-1
3.563306635E1,-1.931921601E0,9.612803459E0,1.790803224E-1
3.565326187E1,-1.959365249E0,9.607499123E0,1.650258452E-1
3.567345760E1,-2.016746283E0,9.595488548E0,1.724033505E-1
3.569365323E1,-2.099577904E0,9.577361107E0,1.905886084E-1
3.571384187E1,-2.180480480E0,9.559395790E0,1.839717180E-1
3.573403041E1,-2.229250908E0,9.549153328E0,1.204193830E-1
3.575421354E1,-2.287079573E0,9.536226273E0,4.750292283E-3
3.577439708E1,-2.379408121E0,9.511984825E0,-1.759047061E-1
3.579458125E1,-2.503993511E0,9.471317291E0,-4.410838485E-1
3.581476614E1,-2.655718327E0,9.406867027E0,-7.927256227E-1
3.583495187E1,-2.858080864E0,9.278935432E0,-1.379534602E0
3.585513854E1,-2.998529196E0,9.105939865E0,-2.064229727E0
3.587532614E1,-3.119726896E0,8.943879128E0,-2.538648367E0
3.589551468E1,-3.266085625E0,8.815249443E0,-2.791853666E0
3.591570416E1,-3.403374195E0,8.719202995E0,-2.926246881E0
3.593589448E1,-3.525622368E0,8.612528801E0,-3.092690945E0
3.595608552E1,-3.738266230E0,8.438318253E0,-3.315195799E0
3.597627718E1,-4.184022903E0,8.140163422E0,-3.521658182E0
3.599646937E1,-4.700551033E0,7.759835243E0,-3.722924232E0
3.601666187E1,-4.945751667E0,7.506083012E0,-3.920283556E0
3.603685458E1,-4.942928314E0,7.406982422E0,-4.107853889E0
3.605705812E1,-4.855045319E0,7.395538807E0,-4.231421947E0
3.607723698E1,-4.753566742E0,7.431624889E0,-4.283099651E0
3.609741614E1,-4.649549484E0,7.483343601E0,-4.307161331E0
3.611759604E1,-4.537426949E0,7.535677433E0,-4.335402012E0
3.613777698E1,-4.425518513E0,7.583252430E0,-4.368003368E0
3.615795916E1,-4.337971687E0,7.654105663E0,-4.332096100E0
3.617814281E1,-4.317572117E0,7.793458939E0,-4.097677231E0
3.619832812E1,-4.337759495E0,7.977450848E0,-3.703309536E0
3.621851510E1,-4.345817566E0,8.140060425E0,-3.320194244E0
3.623870375E1,-4.348007679E0,8.263325691E0,-2.997108221E0
3.625889406E1,-4.327507496E0,8.347897530E0,-2.784898281E0
3.627908583E1,-4.285105705E0,8.397429466E0,-2.700266838E0
3.629927896E1,-4.289243221E0,8.428286552E0,-2.595528603E0
3.631947312E1,-4.387104511E0,8.437450409E0,-2.394398212E0
3.633966812E1,-4.526401997E0,8.433133125E0,-2.136430502E0
3.635986364E1,-4.663079262E0,8.395486832E0,-1.985414624E0
3.638005937E1,-4.628967762E0,8.399714470E0,-2.046421289E0
3.640025489E1,-4.342880249E0,8.495493889E0,-2.266355038E0
3.642044343E1,-3.972468138E0,8.613310814E0,-2.490130663E0
3.644062656E1,-3.636019707E0,8.725649834E0,-2.610126257E0
3.646081010E1,-3.409618616E0,8.839368820E0,-2.531883717E0
3.648099427E1,-3.383004665E0,8.933488846E0,-2.217756748E0
3.650117916E1,-3.537699461E0,8.979230881E0,-1.740252256E0
3.652136489E1,-3.629096508E0,8.997149467E0,-1.432249784E0
3.654155156E1,-3.599246502E0,9.013210297E0,-1.406361341E0
3.656173916E1,-3.561438322E0,9.027340889E0,-1.411976695E0
3.658192771E1,-3.547724724E0,9.042378426E0,-1.348859668E0
3.660211718E1,-3.548445702E0,9.051316261E0,-1.285531998E0
3.662230750E1,-3.558194399E0,9.043893814E0,-1.310582399E0
3.664249854E1,-3.566903353E0,9.028172493E0,-1.392727852E0
3.666269021E1,-3.604475737E0,8.994463921E0,-1.509227157E0
3.668288239E1,-3.714460373E0,8.924717903E0,-1.650028586E0
3.670307489E1,-3.858349800E0,8.843709946E0,-1.752802849E0
3.672326760E1,-3.949083805E0,8.785696983E0,-1.840285301E0
3.674347114E1,-3.967606306E0,8.748753548E0,-1.971752167E0
3.676364979E1,-3.945987940E0,8.727511406E0,-2.104785919E0
3.678382875E1,-3.933516741E0,8.712842941E0,-2.187285662E0
3.680400843E1,-3.930660725E0,8.696390152E0,-2.256787539E0
3.682418916E1,-3.929300070E0,8.672932625E0,-2.347599268E0
3.684437125E1,-3.935005426E0,8.640152931E0,-2.456396818E0
3.686455489E1,-3.951290131E0,8.580701828E0,-2.632347584E0
3.688474020E1,-4.027305126E0,8.438565254E0,-2.956655264E0
3.690492729E1,-4.192271709E0,8.179010391E0,-3.420384407E0
3.692511614E1,-4.395750999E0,7.864101410E0,-3.873456001E0
3.694530666E1,-4.624228954E0,7.573412895E0,-4.174963951E0
3.696549864E1,-4.901594162E0,7.370891094E0,-4.220748901E0
3.698569198E1,-5.109550476E0,7.272148609E0,-4.144724369E0
3.700588635E1,-5.176074505E0,7.225338936E0,-4.144046307E0
3.702608156E1,-5.148192883E0,7.247693539E0,-4.139738083E0
3.704627729E1,-5.056190491E0,7.337917805E0,-4.093933582E0
3.706647323E1,-4.923417568E0,7.472632885E0,-4.011248112E0
3.708666750E1,-4.756053448E0,7.649422646E0,-3.877715826E0
3.710685604E1,-4.557706356E0,7.852861881E0,-3.705437183E0
3.712703916E1,-4.353559971E0,8.055788040E0,-3.510156393E0
3.714722271E1,-4.160314083E0,8.249078751E0,-3.288596392E0
3.716740687E1,-3.989152670E0,8.423617363E0,-3.049541235E0
3.718759177E1,-3.844002962E0,8.568321228E0,-2.824518204E0
3.720777750E1,-3.719664574E0,8.676301956E0,-2.656363726E0
3.722796416E1,-3.622257710E0,8.746314049E0,-2.559616804E0
3.724815177E1,-3.539248228E0,8.796630859E0,-2.502678394E0
3.726834031E1,-3.477049351E0,8.839208603E0,-2.439037800E0
3.728852979E1,-3.474997997E0,8.870233536E0,-2.326744556E0
3.730872010E1,-3.489967108E0,8.895215988E0,-2.205818415E0
3.732891114E1,-3.423281908E0,8.934962273E0,-2.148948669E0
3.734910281E1,-3.307649851E0,8.971571922E0,-2.177325726E0
3.736929500E1,-3.291100264E0,8.969910622E0,-2.209013700E0
3.738948750E1,-3.510570049E0,8.922125816E0,-2.059604406E0
3.740968010E1,-3.748759270E0,8.866381645E0,-1.872020841E0
3.742988354E1,-3.919936657E0,8.793225288E0,-1.866460204E0
3.745006218E1,-4.174434185E0,8.660012245E0,-1.936150789E0
3.747024114E1,-4.228726387E0,8.624862671E0,-1.974847436E0
3.749042083E1,-4.076219559E0,8.690196037E0,-2.008813620E0
3.751060156E1,-3.962726355E0,8.754527092E0,-1.955873728E0
3.753078364E1,-3.897530079E0,8.819567680E0,-1.787423134E0
3.755096729E1,-3.846333742E0,8.890018463E0,-1.530907035E0
3.757115260E1,-3.785868883E0,8.956068039E0,-1.275310874E0
3.759133968E1,-3.709670782E0,9.007202148E0,-1.130947709E0
3.761152843E1,-3.615985632E0,9.049380302E0,-1.097160459E0
3.763171885E1,-3.510207176E0,9.093044281E0,-1.079523087E0
3.765191073E1,-3.436464310E0,9.123686790E0,-1.058039904E0
3.767210396E1,-3.421756268E0,9.128757477E0,-1.061958790E0
3.769229823E1,-3.453551531E0,9.112176895E0,-1.100731015E0
3.771249333E1,-3.520431280E0,9.079258919E0,-1.159319282E0
3.773268896E1,-3.613641977E0,9.031309128E0,-1.243964791E0
3.775288479E1,-3.723881006E0,8.973615646E0,-1.333157778E0
3.777307958E1,-3.820417643E0,8.924291611E0,-1.389893532E0
3.779326823E1,-3.894621372E0,8.891405106E0,-1.394709110E0
3.781345677E1,-3.955229998E0,8.867878914E0,-1.373778582E0
3.783363989E1,-3.987308502E0,8.853440285E0,-1.374175668E0
3.785382343E1,-3.989105940E0,8.848876953E0,-1.398140788E0
3.787400750E1,-3.974804878E0,8.843399048E0,-1.471600771E0
3.789419229E1,-3.977255344E0,8.827039719E0,-1.560509562E0
3.791437791E1,-4.020067692E0,8.785501480E0,-1.680595875E0
3.793456448E1,-4.153300285E0,8.675985336E0,-1.909911513E0
3.795475198E1,-4.377331734E0,8.476461411E0,-2.271332979E0
3.797494041E1,-4.643328667E0,8.220665932E0,-2.651518106E0
3.799512979E1,-4.941041946E0,7.945187092E0,-2.937768459E0
3.801532010E1,-5.140940189E0,7.744412899E0,-3.124930382E0
3.803551114E1,-5.212799549E0,7.626235485E0,-3.292057753E0
3.805570281E1,-5.208535671E0,7.526031017E0,-3.521420956E0
3.807589500E1,-5.138881207E0,7.471232891E0,-3.734027386E0
3.809608750E1,-5.050312519E0,7.464399815E0,-3.866195440E0
3.811628020E1,-4.973525047E0,7.515748024E0,-3.866259813E0
3.813648375E1,-4.886599541E0,7.640327930E0,-3.730539083E0
3.815666260E1,-4.761894226E0,7.809234619E0,-3.537032843E0
3.817684177E1,-4.594416618E0,7.984947681E0,-3.361891747E0
3.819702166E1,-4.428384781E0,8.137774467E0,-3.215030670E0
3.821720260E1,-4.315962315E0,8.279985428E0,-2.997449398E0
3.823738479E1,-4.238882542E0,8.439127922E0,-2.642612696E0
3.825756843E1,-4.153988838E0,8.569974899E0,-2.338862419E0
3.827775375E1,-4.076219082E0,8.646568298E0,-2.188988209E0
3.829794073E1,-4.049888134E0,8.676364899E0,-2.118841648E0
3.831812937E1,-4.115248680E0,8.676827431E0,-1.986903191E0
3.833831968E1,-4.221467018E0,8.656245232E0,-1.849063039E0
3.835851146E1,-4.181459427E0,8.686292648E0,-1.798361540E0
3.837870448E1,-4.042657375E0,8.779085159E0,-1.659813166E0
3.839889854E1,-3.924927950E0,8.867556572E0,-1.460057497E0
3.841909343E1,-3.824484110E0,8.908432007E0,-1.477685928E0
3.843928885E1,-3.778914452E0,8.905044556E0,-1.609460950E0
3.845948448E1,-3.811686993E0,8.885981560E0,-1.637301326E0
3.847967979E1,-3.857673883E0,8.871203423E0,-1.609501600E0
3.849986833E1,-3.926582336E0,8.855780602E0,-1.525612593E0
3.852005146E1,-4.060894966E0,8.823802948E0,-1.349081397E0
3.854023500E1,-4.172642708E0,8.789197922E0,-1.228588104E0
3.856041906E1,-4.193833828E0,8.783627510E0,-1.195844054E0
3.858060385E1,-4.167507648E0,8.804061890E0,-1.136122465E0
3.860078948E1,-4.105823994E0,8.844996452E0,-1.038570523E0
3.862097604E1,-4.012256145E0,8.903105736E0,-8.982757926E-1
3.864116354E1,-3.906705379E0,8.962304115E0,-7.649321556E-1
3.866135198E1,-3.839774370E0,8.996276855E0,-7.025070190E-1
3.868154135E1,-3.858282089E0,8.987632751E0,-7.116780877E-1
3.870173156E1,-3.892900229E0,8.965939522E0,-7.922323346E-1
3.872192260E1,-3.923140287E0,8.942440987E0,-9.011756182E-1
3.874211427E1,-3.962963343E0,8.917346001E0,-9.727514386E-1
3.876230646E1,-3.990977764E0,8.895180702E0,-1.057475924E0
3.878249896E1,-4.005689621E0,8.874613762E0,-1.168792248E0
3.880269166E1,-4.032838821E0,8.851038933E0,-1.251285195E0
3.882289520E1,-4.069023132E0,8.830060959E0,-1.281976819E0
3.884307396E1,-4.100468159E0,8.816753387E0,-1.273342490E0
3.886325302E1,-4.109813213E0,8.815929413E0,-1.248681188E0
3.888343281E1,-4.115594864E0,8.820086479E0,-1.199303985E0
3.890361364E1,-4.143484592E0,8.813356400E0,-1.151813984E0
3.892379573E1,-4.199046135E0,8.772181511E0,-1.259856462E0
3.894397927E1,-4.263153553E0,8.690752983E0,-1.570577145E0
3.896416448E1,-4.325235367E0,8.566572189E0,-2.019053221E0
3.898435146E1,-4.441351414E0,8.371212959E0,-2.523405313E0
3.900454010E1,-4.648054600E0,8.130098343E0,-2.909893036E0
3.902473041E1,-4.858444691E0,7.938339233E0,-3.090093374E0
3.904492218E1,-4.997046471E0,7.826412678E0,-3.153912783E0
3.906511531E1,-5.062731743E0,7.779960155E0,-3.164072514E0
3.908530948E1,-5.059440613E0,7.787506580E0,-3.150745630E0
3.910550448E1,-5.007325172E0,7.825552464E0,-3.139713764E0
3.912570000E1,-4.921308041E0,7.885306835E0,-3.126188517E0
3.914589573E1,-4.801544189E0,7.967354298E0,-3.104321241E0
3.916609093E1,-4.638926983E0,8.082088470E0,-3.054602623E0
3.918627948E1,-4.452614307E0,8.209122658E0,-2.992479801E0
3.920646260E1,-4.278712749E0,8.323841095E0,-2.928596735E0
3.922664614E1,-4.165604115E0,8.409551620E0,-2.845624685E0
3.924683020E1,-4.111141682E0,8.476515770E0,-2.723523855E0
3.926701500E1,-4.076735497E0,8.546688080E0,-2.550438643E0
3.928720062E1,-4.034485817E0,8.613897324E0,-2.386230707E0
3.930738718E1,-4.006625652E0,8.657866478E0,-2.271273136E0
3.932757468E1,-4.043372631E0,8.665558815E0,-2.174767494E0
3.934776312E1,-4.125417709E0,8.643447876E0,-2.107634544E0
3.936795250E1,-4.187995911E0,8.612348557E0,-2.111524820E0
3.938814270E1,-4.203907967E0,8.620213509E0,-2.046818495E0
3.940833364E1,-4.184258461E0,8.675390244E0,-1.843901396E0
3.942852520E1,-4.124848843E0,8.748110771E0,-1.620664954E0
3.944871729E1,-3.994837523E0,8.814472198E0,-1.586422920E0
3.946890968E1,-3.903815269E0,8.855308533E0,-1.585598826E0
3.948910229E1,-3.939835072E0,8.868349075E0,-1.414383411E0
3.950930573E1,-4.047862053E0,8.836626053E0,-1.303552985E0
3.952948479E1,-4.186300755E0,8.745258331E0,-1.471640110E0
3.954966416E1,-4.324671745E0,8.653255463E0,-1.608970165E0
3.956984427E1,-4.366423607E0,8.626001358E0,-1.642200112E0
3.959002541E1,-4.274373055E0,8.681498528E0,-1.591135502E0
3.961020781E1,-4.154879570E0,8.763750076E0,-1.450530291E0
3.963039166E1,-4.023762703E0,8.855592728E0,-1.248278856E0
3.965057708E1,-3.895729303E0,8.943011284E0,-1.008085489E0
3.967076416E1,-3.791450024E0,9.013792038E0,-7.394853830E-1
3.969095291E1,-3.681747198E0,9.071432114E0,-5.694238544E-1
3.971114323E1,-3.598813057E0,9.104273796E0,-5.754451156E-1
3.973133500E1,-3.577351332E0,9.107256889E0,-6.563740969E-1
3.975152802E1,-3.546654701E0,9.110033035E0,-7.739039660E-1
3.977172208E1,-3.502851486E0,9.113805771E0,-9.159489870E-1
3.979191687E1,-3.470020771E0,9.110741615E0,-1.060058475E0
3.981211208E1,-3.441609621E0,9.107583046E0,-1.173731685E0
3.983230750E1,-3.426722765E0,9.111837387E0,-1.184224486E0
3.985250156E1,-3.508569241E0,9.100549698E0,-1.019962430E0
3.987269010E1,-3.716560602E0,9.035364151E0,-8.483867049E-1
3.989287323E1,-3.915233374E0,8.952058792E0,-8.378391266E-1
3.991305677E1,-3.988440514E0,8.913537025E0,-9.008843303E-1
3.993324083E1,-3.915742397E0,8.929391861E0,-1.050386429E0
3.995342562E1,-3.839389086E0,8.930335045E0,-1.295610070E0
3.997361125E1,-3.790217400E0,8.901121140E0,-1.604584217E0
3.999379781E1,-3.804223061E0,8.814281464E0,-2.001678944E0
4.001398531E1,-3.882302046E0,8.647343636E0,-2.514275551E0
4.003417375E1,-4.025066376E0,8.407065392E0,-3.048029423E0
4.005436312E1,-4.268199444E0,8.147787094E0,-3.400945902E0
4.007455333E1,-4.530690670E0,7.964958191E0,-3.493232012E0
4.009474427E1,-4.671447277E0,7.897541523E0,-3.460753202E0
4.011493583E1,-4.685404778E0,7.895413399E0,-3.446710348E0
4.013512791E1,-4.617020607E0,7.926786423E0,-3.466923952E0
4.015532031E1,-4.507358074E0,7.996082783E0,-3.452067852E0
4.017551291E1,-4.379480839E0,8.099597931E0,-3.374469519E0
4.019571635E1,-4.211205959E0,8.249030113E0,-3.223293543E0
4.021589520E1,-4.011326313E0,8.419208527E0,-3.032587051E0
4.023607437E1,-3.794307470E0,8.580958366E0,-2.853204250E0
4.025625427E1,-3.583825827E0,8.723684311E0,-2.687733650E0
4.027643521E1,-3.406060219E0,8.842441559E0,-2.525938272E0
4.029661739E1,-3.282488108E0,8.926711082E0,-2.389452934E0
4.031680104E1,-3.252166510E0,8.970489502E0,-2.263649225E0
4.033698635E1,-3.349334955E0,8.970209122E0,-2.118413925E0
4.035717333E1,-3.528295994E0,8.936245918E0,-1.965969682E0
4.037736198E1,-3.706990719E0,8.889099121E0,-1.847298384E0
4.039755218E1,-3.807805061E0,8.845387459E0,-1.852060914E0
4.041774385E1,-3.809484005E0,8.824363708E0,-1.946490765E0
4.043793677E1,-3.849520206E0,8.811841965E0,-1.924322844E0
4.045813073E1,-3.953648806E0,8.788686752E0,-1.816045880E0
4.047832552E1,-4.011823177E0,8.769042015E0,-1.783133507E0
4.049852083E1,-3.990172625E0,8.773864746E0,-1.807813525E0
4.051871635E1,-3.941564322E0,8.791765213E0,-1.827378631E0
4.053890646E1,-3.988363743E0,8.775918961E0,-1.801828861E0
4.055909666E1,-4.157754421E0,8.701337814E0,-1.780501127E0
4.057929770E1,-4.271643639E0,8.652420998E0,-1.749016643E0
4.059947739E1,-4.235220909E0,8.673724174E0,-1.731990337E0
4.061965739E1,-4.066463947E0,8.768679619E0,-1.656658411E0
4.063983802E1,-3.858802319E0,8.886793137E0,-1.518202066E0
4.066001958E1,-3.671693563E0,8.995262146E0,-1.332036018E0
4.068020229E1,-3.497746944E0,9.094866753E0,-1.104332089E0
4.070038635E1,-3.331018209E0,9.181837082E0,-8.766836524E-1
4.072057187E1,-3.172962189E0,9.254401207E0,-6.773165464E-1
4.074075896E1,-3.041681528E0,9.309324265E0,-5.050176382E-1
4.076094760E1,-2.954657793E0,9.343686104E0,-3.686586320E-1
4.078113770E1,-2.910137653E0,9.360641479E0,-2.826412320E-1
4.080132916E1,-2.897576571E0,9.364894867E0,-2.705302835E-1
4.082152177E1,-2.921850681E0,9.354434013E0,-3.574068248E-1
4.084171531E1,-2.954472542E0,9.335759163E0,-5.339262486E-1
4.086190958E1,-2.962666512E0,9.317431450E0,-7.605770826E-1
4.088210437E1,-2.961020947E0,9.296090126E0,-9.927099347E-1
4.090229937E1,-3.001937628E0,9.272534370E0,-1.085761189E0
4.092249406E1,-3.132590294E0,9.243163109E0,-9.597824812E-1
4.094268260E1,-3.335939646E0,9.179587364E0,-8.815155029E-1
4.096286573E1,-3.566514969E0,9.090344429E0,-9.033312798E-1
4.098304927E1,-3.731356621E0,9.022322655E0,-9.192696810E-1
4.100323333E1,-3.820047855E0,8.972726822E0,-1.033336759E0
4.102341812E1,-4.043826580E0,8.837448120E0,-1.310480237E0
4.104360375E1,-4.467833996E0,8.573215485E0,-1.645849228E0
4.106379031E1,-4.912171364E0,8.260489464E0,-1.950707078E0
4.108397781E1,-5.188860416E0,8.011529922E0,-2.249777794E0
4.110416625E1,-5.312035561E0,7.898591042E0,-2.359011412E0
4.112435562E1,-5.340173244E0,7.871494770E0,-2.385895491E0
4.114454583E1,-5.246907711E0,7.895749569E0,-2.509481430E0
4.116473677E1,-5.079744339E0,7.956781387E0,-2.656353235E0
4.118492833E1,-4.896760941E0,8.040180206E0,-2.747295141E0
4.120512041E1,-4.696633339E0,8.142606735E0,-2.794631481E0
4.122531281E1,-4.461987972E0,8.283455849E0,-2.765035391E0
4.124550541E1,-4.186307907E0,8.459378242E0,-2.661601067E0
4.126570885E1,-3.904515505E0,8.639994621E0,-2.505122662E0
4.128588770E1,-3.681129456E0,8.789545059E0,-2.315941811E0
4.130606687E1,-3.568985701E0,8.881373405E0,-2.133996010E0
4.132624677E1,-3.530345917E0,8.928042412E0,-1.999273300E0
4.134642770E1,-3.512969017E0,8.955494881E0,-1.904877543E0
4.136660989E1,-3.498128891E0,8.981089592E0,-1.809284925E0
4.138679354E1,-3.447366953E0,9.021368980E0,-1.703221083E0
4.140697885E1,-3.348570585E0,9.069273949E0,-1.644909859E0
4.142716583E1,-3.296492577E0,9.070446014E0,-1.740845323E0
4.144735448E1,-3.343213558E0,9.011110306E0,-1.947614670E0
4.146754468E1,-3.489990711E0,8.912845612E0,-2.133432150E0
4.148773635E1,-3.642153263E0,8.839564323E0,-2.183393002E0
4.150792927E1,-3.718990803E0,8.815144539E0,-2.152375698E0
4.152812323E1,-3.750009775E0,8.807515144E0,-2.129671097E0
4.154831802E1,-3.814040422E0,8.786108971E0,-2.104229927E0
4.156851333E1,-3.928323030E0,8.737874985E0,-2.094803095E0
4.158870885E1,-3.994608402E0,8.729750633E0,-2.001235962E0
4.160890427E1,-3.973665237E0,8.781378746E0,-1.807693005E0
4.162909281E1,-3.959053040E0,8.822161674E0,-1.632711530E0
4.164927593E1,-4.065585136E0,8.771878242E0,-1.641816258E0
4.166945948E1,-4.164849281E0,8.697859764E0,-1.780913353E0
