"Time (s)","Gyroscope x (rad/s)","Gyroscope y (rad/s)","Gyroscope z (rad/s)"
4.014064500E-2,2.002695650E-1,-5.510076284E-1,-3.303648829E-1
6.015387400E-2,3.403517306E-1,-5.632581711E-1,-4.512723088E-1
8.020283200E-2,4.117243886E-1,-5.552686453E-1,-4.688491523E-1
1.002916870E-1,3.776359558E-1,-4.780370593E-1,-3.612575233E-1
1.204228320E-1,3.004043400E-1,-3.145190775E-1,-3.452785909E-1
1.405968950E-1,2.759032845E-1,-1.163800508E-1,-3.740406930E-1
1.608127280E-1,2.721748650E-1,-1.286305785E-1,-3.085269928E-1
1.810675200E-1,2.545980215E-1,-3.001380265E-1,-2.121206224E-1
2.013571030E-1,2.327601016E-1,-5.004075766E-1,-1.498026997E-1
2.216760620E-1,2.375537902E-1,-5.861613154E-1,-1.151816323E-1
2.420180410E-1,2.231727391E-1,-4.599275887E-1,-9.547425061E-2
2.623759570E-1,1.235705838E-1,-2.010685056E-1,-8.801741153E-2
2.827424160E-1,-3.195791040E-3,8.708529919E-2,-8.269108832E-2
3.031099160E-1,-1.230379492E-1,2.996053994E-1,-4.913528636E-2
3.233247070E-1,-2.828274965E-1,4.695149362E-1,-9.187898599E-3
3.435132490E-1,-5.342296958E-1,7.038729787E-1,4.247738793E-2
3.636963740E-1,-8.639287949E-1,9.606015086E-1,1.655153334E-1
3.838799160E-1,-1.084438443E0,1.247157454E0,3.780354261E-1
4.040639780E-1,-1.111070037E0,1.483113289E0,6.139913201E-1
4.242487700E-1,-1.070057273E0,1.674860716E0,8.659262061E-1
4.444343950E-1,-9.922930598E-1,1.791507125E0,1.094425201E0
4.646209570E-1,-9.896299243E-1,1.799496651E0,1.327718019E0
4.848084570E-1,-8.538088202E-1,1.851161838E0,1.447027445E0
5.049968950E-1,-8.420909047E-1,1.860216618E0,1.460875869E0
5.251862700E-1,-1.080177307E0,1.884185076E0,1.402286410E0
5.453764780E-1,-1.274587989E0,2.146772623E0,1.278715849E0
5.655674160E-1,-1.211204767E0,2.108955622E0,9.452883005E-1
5.857589780E-1,-1.242097378E0,1.808018684E0,6.262418628E-1
6.059510620E-1,-1.325187922E0,1.791507125E0,4.483428299E-1
6.261434570E-1,-1.612809181E0,1.940111399E0,3.300985694E-1
6.463360620E-1,-2.037849426E0,2.089781046E0,1.932121962E-1
6.665394990E-1,-2.639723301E0,2.651174784E0,2.001364082E-1
6.867183530E-1,-3.057306767E0,3.231743574E0,1.623195410E-1
7.068975200E-1,-3.038664579E0,3.000048637E0,-2.197106183E-2
7.270774160E-1,-2.620548487E0,2.571812630E0,3.448791057E-2
7.472583530E-1,-2.293512583E0,2.081791401E0,8.349003643E-2
7.674405410E-1,-2.073535681E0,1.914545059E0,-7.590003312E-3
7.876241870E-1,-6.114613414E-1,2.103629351E0,-3.564638495E-1
8.078094990E-1,7.046719193E-1,1.956090331E0,-9.221188426E-1
8.279964780E-1,3.110569715E-1,1.521995425E0,-1.626790762E0
8.481851240E-1,3.643201590E-1,2.094042063E0,-1.860083461E0
8.683753320E-1,2.785664499E-1,3.514038324E0,-1.572994947E0
8.885669990E-1,-5.262402296E-1,3.391000509E0,-9.109335542E-1
9.087599160E-1,-7.920235395E-1,2.555833817E0,-3.644533157E-1
9.289538740E-1,-3.664506972E-1,2.070073605E0,-7.789740711E-2
9.491486660E-1,2.663159044E-3,1.213068962E0,1.527321786E-1
9.693439780E-1,4.090612531E-1,3.459443748E-1,2.336922139E-1
9.895394990E-1,8.239814043E-1,-2.069274634E-1,-1.877527125E-2
1.009734916E0,1.046621561E0,-5.909550190E-1,-1.753690243E-1
1.029923457E0,1.055143595E0,-7.368960977E-1,-1.471395344E-1
1.050106582E0,8.458193541E-1,-4.194475710E-1,-1.050616279E-1
1.070290124E0,5.028044581E-1,1.035968885E-1,-8.695214242E-2
1.090474187E0,1.470063776E-1,5.595297217E-1,-3.209106624E-2
1.110658978E0,-1.928127259E-1,9.217193723E-1,8.775109053E-2
1.130844603E0,-7.147918940E-1,1.233309031E0,2.661827505E-1
1.151031166E0,-2.212552547E0,1.855955601E0,4.941491783E-1
1.171218666E0,-3.127614021E0,1.958220840E0,5.367597342E-1
1.191407103E0,-2.671681166E0,1.173654199E0,8.462188244E-1
1.211596478E0,-8.133288026E-1,-6.095971465E-1,1.014530420E0
1.231786687E0,1.860482931E0,-9.675257206E-1,6.091976166E-1
1.251977624E0,1.437573314E0,-6.335655451E-1,8.828372508E-2
1.272169187E0,1.053013086E0,-7.512772083E-1,1.047953144E-1
1.292361270E0,1.123853087E0,-1.363271117E0,9.245156646E-1
1.312553666E0,9.267793894E-1,-1.816008210E0,2.122937202E0
1.332746270E0,-1.384842694E-1,-1.476189137E0,1.832652926E0
1.352949707E0,-7.185203433E-1,-5.387570858E-1,9.761809707E-1
1.373128562E0,-4.282359779E-1,6.362286806E-1,3.455449045E-1
1.393307728E0,1.837579757E-1,3.832286000E-1,5.000081062E-1
1.413487624E0,1.438105945E-2,-1.068725705E0,1.517867565E0
1.433668562E0,-5.182507634E-1,-2.037583113E0,2.666221619E0
1.453850749E0,-5.656549931E-1,-1.817073464E0,3.204179764E0
1.474034395E0,-1.741705984E-1,-1.023984671E0,3.970104456E0
1.494219707E0,7.030740380E-2,-5.352949724E-2,5.141894341E0
1.514406687E0,7.920235395E-1,1.732917666E0,5.345892429E0
1.534595332E0,1.710813403E0,6.165213585E-1,5.447092533E0
1.554785541E0,1.751826048E0,-3.207775116E0,5.293694496E0
1.574977207E0,1.266065836E0,-1.895370364E0,4.879839420E0
1.595170124E0,7.488803267E-1,-1.214134216E0,4.204995155E0
1.615364082E0,1.411474347E-1,-1.859683990E0,2.954908133E0
1.635558874E0,-2.364885211E-1,-9.222519994E-1,1.894438267E0
1.655754187E0,-4.676507413E-1,3.118559420E-1,2.071804523E0
1.675949707E0,-1.136636257E0,-4.713791609E-2,3.120023966E0
1.696145124E0,-1.581383824E0,-8.109319210E-1,4.315249920E0
1.716333666E0,-1.386440635E0,-1.870869279E0,5.290498734E0
1.736516791E0,2.279664129E-1,-2.465819120E0,5.460408211E0
1.756700332E0,2.392049551E0,-1.910816669E0,4.753605843E0
1.776884395E0,3.459976196E0,-6.836329699E-1,2.579402685E0
1.797069187E0,3.417898417E0,1.131842583E-1,-1.231711060E-1
1.817254812E0,2.974748611E0,7.912245989E-1,-1.386573792E0
1.837441374E0,3.037066698E0,1.549159646E0,-1.046754718E0
1.857628874E0,2.646647453E0,2.151566267E0,-5.753754973E-1
1.877817312E0,1.935051441E0,1.844770312E0,-5.029376149E-1
1.898006687E0,1.854091406E0,6.037381887E-1,-5.860281587E-1
1.918196895E0,2.021870375E0,-5.675191879E-1,-1.001480937E0
1.938387832E0,1.775261879E0,-5.840308070E-1,-1.359409571E0
1.958579395E0,1.347558498E0,2.932138145E-1,-1.282177925E0
1.978771478E0,9.241161942E-1,1.027180433E0,-1.033971548E0
1.998963874E0,5.033370852E-1,1.123054147E0,-7.223818898E-1
2.019156478E0,1.012000442E-1,9.771130681E-1,-3.964112401E-1
2.039359916E0,-2.455432713E-1,8.072035313E-1,-4.667186439E-1
2.059538666E0,-5.656549931E-1,6.042708158E-1,-7.388935089E-1
2.079717728E0,-8.490151167E-1,5.771065950E-1,-7.756450772E-1
2.099897520E0,-1.210672140E0,1.265799522E0,-8.512787819E-1
2.120078353E0,-1.581916451E0,1.964079857E0,-1.094158888E0
2.140260437E0,-1.790175557E0,2.282061100E0,-1.110670447E0
2.160443978E0,-1.432779551E0,2.370477915E0,-9.231840968E-1
2.180629187E0,-5.752423406E-1,2.350770473E0,-6.717818975E-1
2.200816062E0,4.191812575E-1,1.564073324E0,-2.797648609E-1
2.221004603E0,1.089764714E0,5.861613154E-1,2.251701057E-1
2.241194812E0,3.680485785E-1,2.223737836E-1,3.945470154E-1
2.261386478E0,-7.062698007E-1,-4.652538896E-1,-6.937529147E-2
2.281579499E0,-1.008804679E0,-1.914545059E0,-1.776460290E0
2.301773562E0,-2.105493546E0,-2.905772924E0,-3.461174726E0
2.321968457E0,-1.605352283E0,-2.888728619E0,-3.467566252E0
2.342163874E0,1.182442605E-1,-6.378266215E-1,-1.608148575E0
2.362359499E0,3.243727684E-1,2.545181036E0,-1.785648167E-1
2.382549707E0,-1.810948253E-1,4.482363224E0,1.122521535E-1
2.402740020E0,-1.555817604E0,3.620032072E0,-1.631184965E-1
2.422941166E0,-2.878875017E0,1.189633131E0,-3.559312224E-1
2.443120645E0,-2.818687677E0,2.612559199E-1,4.727107286E-2
2.463300437E0,-1.737977624E0,1.222390011E-1,2.805638015E-1
2.483480853E0,-7.499455810E-1,1.792306006E-1,2.752375007E-1
2.503662207E0,-2.982738316E-1,-2.298306376E-1,1.490037590E-1
2.523844812E0,-1.757685095E-2,-2.170474678E-1,-5.552686751E-2
2.544028770E0,9.960214794E-2,-9.347688407E-2,8.921583183E-3
2.564214291E0,2.588590682E-1,-4.274370372E-1,-2.303632535E-2
2.584401374E0,3.744401634E-1,-7.635276914E-1,-3.202448785E-1
2.604590020E0,7.084003091E-1,-6.170539856E-1,-6.052029133E-1
2.624780124E0,1.699095488E0,-6.831002831E-1,-8.598009348E-1
2.644971582E0,1.630918622E0,-8.833698630E-1,-6.062681675E-1
2.665164291E0,6.130592227E-1,-3.358243704E-1,-3.308975101E-1
2.685358041E0,-6.072002649E-2,2.751043439E-1,-2.030658871E-1
2.705552520E0,-2.242379934E-1,6.016076207E-1,-1.557948068E-2
2.725747520E0,2.535327375E-1,3.406180441E-1,9.520793706E-2
2.745942728E0,7.515435219E-1,-7.171887755E-1,4.780370742E-2
2.766137103E0,5.741770864E-1,-1.518267035E0,2.969422378E-2
2.786325645E0,-6.338318437E-2,-1.077780485E0,8.934898674E-2
2.806508770E0,-9.161267430E-2,4.119907022E-1,1.351553202E-1
2.826692312E0,9.827057123E-1,1.344096422E0,-2.520680130E-1
2.846876374E0,2.851178169E0,9.201214910E-1,-1.011068344E0
2.867061166E0,4.189149380E0,2.111885101E-1,-1.212403178E0
2.887246791E0,4.188084126E0,-5.318328738E-1,-1.291232705E0
2.907433353E0,2.019739866E0,-1.510277510E0,-1.345561147E0
2.927620853E0,6.077328920E-1,-2.128663063E0,-1.171923161E0
2.947809291E0,6.226465702E-1,-2.136119843E0,-1.177249432E0
2.967998666E0,3.771033287E-1,-7.337003350E-1,-9.966872931E-1
2.988188874E0,-2.679138184E-1,8.263782859E-1,-2.978743315E-1
3.008379812E0,-8.181225061E-1,1.353683829E0,4.328965247E-1
3.028571374E0,-1.204280496E0,7.299718857E-1,8.973514438E-1
3.048763457E0,-1.725194454E0,-1.467400640E-1,1.103479981E0
3.068955853E0,-2.289784193E0,-9.347688407E-2,9.351683259E-1
3.089148457E0,-2.406963110E0,2.245043069E-1,4.456796646E-1
3.109351895E0,-1.889777660E0,-2.266348451E-1,-2.569948509E-2
3.129530541E0,-1.919072509E0,-1.637842804E-1,-2.446111590E-1
3.149709499E0,-2.287121058E0,1.717737615E-1,-2.850911915E-1
3.169889187E0,-2.377668381E0,4.269044101E-1,5.792371184E-2
3.190069916E0,-2.614156961E0,2.724145412E0,4.973449707E-1
3.210251999E0,-2.310024261E0,4.425371647E0,7.338334918E-1
3.230435645E0,-1.736379743E0,3.130543470E0,8.211851120E-1
3.250620957E0,-2.695116997E-1,7.667235136E-1,1.009736776E0
3.270807937E0,2.206693649E0,-2.687127590E-1,1.322924256E0
3.290996582E0,2.887929678E0,-9.712541103E-1,3.498059511E-1
3.311186895E0,1.920137763E0,-1.992309332E0,-1.702957034E0
3.331378666E0,8.122635484E-1,-1.270593166E0,-2.481664896E0
3.351571791E0,-4.580633715E-2,-3.736412227E-1,-1.875529766E0
3.371765957E0,-4.266380966E-1,3.342264593E-1,-4.784365296E-1
3.391960957E0,-6.652571559E-1,5.371592045E-1,4.920186400E-1
3.412156478E0,-9.667267799E-1,-5.776392221E-1,5.969471335E-1
3.432352207E0,-9.475520253E-1,-1.845835567E0,6.086649895E-1
3.452546999E0,-5.134570599E-1,-1.455416441E0,6.001428962E-1
3.472735541E0,-4.261054471E-2,-1.952095628E-1,2.533995807E-1
3.492918666E0,-2.130527236E-2,6.026729345E-1,-7.896266878E-2
3.513102207E0,-1.768337637E-1,6.388918757E-1,-2.889527567E-2
3.533286270E0,-2.556632832E-2,3.981422782E-1,1.532648057E-1
3.553471062E0,1.683116555E-1,1.318263710E-1,1.948100924E-1
3.573656687E0,2.151832581E-1,8.921582997E-2,1.724395454E-1
3.593843249E0,4.010717571E-1,1.446095407E-1,1.703090221E-1
3.614030749E0,1.073253155E0,2.223737836E-1,2.427469492E-1
3.634219187E0,2.029327154E0,2.287653685E-1,1.223721579E-1
3.654408562E0,3.056773901E0,-1.142228961E0,-7.506113648E-1
3.674598770E0,2.871950865E0,-2.756103277E0,-1.995371938E0
3.694789707E0,1.717205048E0,-2.307094812E0,-1.999632955E0
3.714981270E0,1.422127008E0,-1.691372395E0,-7.101313472E-1
3.735173353E0,1.385908008E0,-8.370308876E-1,8.295740932E-2
3.755365749E0,1.294295311E0,-2.772348523E-1,4.398207366E-1
3.775558353E0,1.240499496E0,-1.271125793E0,4.536691606E-1
3.795761791E0,7.515435219E-1,-4.364917874E-1,9.133304358E-1
3.815940437E0,3.158506751E-1,1.433045864E0,1.559945464E0
3.836119395E0,-1.177116334E-1,2.079128265E0,1.545564413E0
3.856299082E0,-8.649940491E-1,1.808551311E0,1.113067389E0
3.876479812E0,-1.569133401E0,8.439550996E-1,5.884249806E-1
3.896661895E0,-1.725727081E0,-1.334242672E-1,-4.327633604E-2
3.916845541E0,-1.635712266E0,5.052012801E-1,-5.024049878E-1
3.937030853E0,-1.900962949E0,1.359542727E0,-3.426154256E-1
3.957217832E0,-2.630668640E0,1.313203812E0,-2.632532716E-1
3.977406478E0,-2.908169746E0,1.482580662E0,-4.960133731E-1
3.997596791E0,-2.421876907E0,9.313067198E-1,-4.107922912E-1
4.017788562E0,-1.018924713E0,1.078845739E0,1.745700836E-1
4.037981687E0,-5.118591785E-1,7.091992497E-1,8.153261542E-1
4.058175853E0,-3.829622865E-1,1.046621501E-1,1.198288441E0
4.078370853E0,2.609895915E-2,-4.540686309E-1,9.703220129E-1
4.098566374E0,6.066676378E-1,-1.339302659E0,6.736460924E-1
4.118762103E0,1.186703682E0,-1.421328068E0,9.607346654E-1
4.138956895E0,1.371526957E0,-2.964096069E-1,1.141296864E0
4.159145437E0,1.326785922E0,1.504951239E0,4.105259776E-1
4.179333874E0,1.230379462E0,5.094623566E-1,-1.530917048E0
4.199516895E0,1.602689147E0,-3.305246830E0,-2.979142904E0
4.219700332E0,7.882950902E-1,-3.602455378E0,-2.004426718E0
4.239884395E0,-4.069307148E-1,-4.982770681E-1,-4.221107066E-2
4.260069187E0,-9.773793817E-1,8.519446254E-1,8.712524772E-1
4.280254812E0,-6.348971128E-1,1.147821546E-1,8.536756635E-1
4.300441374E0,1.235705838E-1,-4.588623047E-1,2.436790615E-2
4.320628874E0,4.394212663E-1,-7.017424107E-1,1.464737463E-3
4.340817312E0,3.797664940E-1,-8.652604222E-1,1.628521830E-1
4.361006687E0,2.929475009E-1,-8.317046165E-1,2.709764242E-1
4.381196895E0,3.004043400E-1,-5.046686530E-1,3.727091253E-1
4.401387832E0,1.693769246E-1,2.069274634E-1,2.555301189E-1
4.421579395E0,2.093243003E-1,9.941573143E-1,-9.174583107E-2
4.441771478E0,6.045371294E-1,1.460742712E0,-4.368912578E-1
4.461963874E0,1.206943750E0,1.472993255E0,-6.898913383E-1
4.482156478E0,1.678855538E0,1.330780625E0,-8.619314432E-1
4.502359916E0,1.792306066E0,1.344629049E0,-1.265666366E0
4.522538874E0,1.666604996E0,5.739107728E-1,-1.853159308E0
4.542718145E0,7.584677339E-1,-8.647277355E-1,-2.127997398E0
4.562898145E0,-2.082590461E-1,-3.994738683E-3,-9.444893599E-1
4.583079187E0,-2.636527419E-1,9.840372801E-1,1.464737463E-3
4.603261478E0,-3.936149180E-1,1.029310942E0,7.922898233E-2
4.623445228E0,-8.101329803E-1,7.123950720E-1,2.651174963E-1
4.643630541E0,-1.118526816E0,8.761793375E-2,7.689871788E-1
4.663817520E0,-1.166996360E0,-4.764391780E-1,1.342631698E0
4.684006166E0,-1.090297341E0,-7.608645558E-1,1.581783295E0
4.704196374E0,-1.097754240E0,-6.713824272E-1,1.230246305E0
4.724388041E0,-1.447160602E0,-3.347590864E-1,6.321008205E-1
4.744580957E0,-2.037849426E0,2.804306448E-1,4.265049398E-1
4.764774916E0,-2.209889412E0,1.215732098E0,3.002711833E-1
4.784969707E0,-1.929192424E0,1.811214447E0,1.211737376E-2
4.805165020E0,-1.654354453E0,1.738776565E0,-2.989396155E-1
4.825360541E0,-1.710813403E0,5.925529003E-1,-5.902892351E-1
4.845555332E0,-1.374190092E0,-4.604602158E-1,-6.696513295E-1
4.865743874E0,-8.362319320E-2,3.006706536E-1,-4.044007063E-1
4.885926999E0,2.407495826E-1,-5.566002429E-2,6.791055668E-3
4.906110541E0,-1.917474531E-2,-1.553953290E0,5.538039207E-1
4.926294603E0,3.126548827E-1,-1.450090170E0,6.842987537E-1
4.946479395E0,1.230912089E0,-9.614004195E-2,6.791055668E-3
4.966665020E0,2.508695841E0,-7.150582075E-1,-1.045156837E0
4.986851582E0,4.990760088E-1,-2.089248419E0,-5.705818534E-1
5.007039082E0,-7.701855898E-1,-6.471476704E-2,1.053279415E-1
5.027227520E0,-6.130592227E-1,9.659277797E-1,2.683132887E-1
5.047416895E0,-8.878972530E-1,7.502118945E-1,4.014712274E-1
5.067607103E0,-1.513206959E0,-1.041295230E-1,3.924165070E-1
5.087798041E0,-1.476455450E0,-1.248755336E0,4.328965247E-1
5.107989603E0,-7.387603521E-1,-1.419730067E0,3.455449045E-1
5.128181687E0,-4.367581010E-2,-8.748477697E-1,1.932121962E-1
5.148374082E0,9.214530140E-2,-4.561991692E-1,1.585911214E-1
5.168566687E0,2.801643312E-1,3.683148921E-1,2.411490530E-1
5.188770124E0,6.732466221E-1,6.735129356E-1,2.901511788E-1
5.208948874E0,1.070589900E0,4.380896688E-1,3.002711833E-1
5.229127937E0,1.442366958E0,2.948117256E-1,2.789659202E-1
5.249307728E0,1.769935489E0,2.111885101E-1,2.715090811E-1
5.269488562E0,2.145973682E0,-2.495380044E-1,2.768353820E-1
5.289670645E0,2.620548487E0,-1.167795300E0,1.660479754E-1
5.309854187E0,2.860232830E0,-1.650892377E0,-1.663142890E-1
5.330039395E0,2.514022112E0,-1.227982640E0,-7.905587554E-1
5.350226270E0,1.558480740E0,-2.404832691E-1,-1.537841201E0
5.370414812E0,5.986781716E-1,-2.671148479E-1,-2.572212219E0
5.390605020E0,-2.514022291E-1,-1.520397544E0,-3.714707375E0
5.410796687E0,-4.277033508E-1,-1.101216316E0,-2.759166002E0
5.430989707E0,5.965476483E-2,1.914811432E-1,-5.109270811E-1
5.451183770E0,-1.347558498E-1,5.222455263E-1,1.356879622E-1
5.471378666E0,-5.187833905E-1,5.808349848E-1,9.554083347E-1
5.491574082E0,-8.868319988E-1,1.148087859E0,1.807619214E0
5.511769707E0,-1.390169024E0,1.285506845E0,2.301368952E0
5.531959916E0,-2.030392408E0,9.195888638E-1,2.130394220E0
5.552150228E0,-2.235455751E0,1.174719453E0,1.273922205E0
5.572351374E0,-2.092177868E0,2.107357740E0,4.557996690E-1
5.592530957E0,-2.319611549E0,2.943589687E0,2.992059290E-1
5.612710853E0,-2.730270624E0,3.723895311E0,3.066627681E-1
5.632891374E0,-2.896984577E0,3.938545942E0,4.286354482E-1
5.653072832E0,-2.811763287E0,3.666371107E0,6.581997871E-1
5.673255437E0,-2.635994911E0,3.045322418E0,9.032104015E-1
5.693439395E0,-2.389386415E0,2.363021135E0,1.077913642E0
5.713624812E0,-3.009369671E-1,1.649294376E0,1.077913642E0
5.733811791E0,2.052230358E0,-7.534077168E-1,5.388902426E-1
5.754000332E0,1.906289339E0,-4.606466293E0,-1.199620008E0
5.774190332E0,-1.762478709E0,-2.423208475E0,-2.127997398E0
5.794381687E0,-3.627222776E-1,1.981656671E0,-1.306679010E0
5.814574291E0,9.741836190E-1,2.172338963E0,9.147951752E-2
5.834767937E0,-1.773663908E-1,1.893506050E-1,4.765723348E-1
5.854962312E0,-2.024000883E-2,-9.946899414E-1,-4.640554786E-1
5.875157207E0,1.489771247E0,-1.413871169E0,-1.312005281E0
5.895352312E0,2.576340199E0,-1.244494200E0,-1.223588467E0
5.915541999E0,3.150517225E0,-1.104944706E0,-4.933502376E-1
5.935731791E0,2.768620253E0,-9.723193645E-1,2.901511788E-1
5.955921687E0,1.783783913E0,-6.825676560E-1,9.138630629E-1
5.976122416E0,1.016261458E0,3.091927767E-1,1.251551628E0
5.996301582E0,9.603351951E-1,1.436774373E0,8.009451032E-1
6.016481062E0,1.201617360E0,1.968340874E0,-7.186535001E-1
6.036661166E0,9.949562550E-1,6.639255881E-1,-2.479534388E0
6.056842207E0,-5.592634156E-2,-1.088433146E0,-3.155444145E0
6.077024499E0,-7.829687595E-1,-1.596563935E0,-2.183391094E0
6.097208249E0,-7.249119282E-1,-1.243961573E0,-6.589987278E-1
6.117393562E0,-8.538088202E-1,-8.237150908E-1,4.557996690E-1
6.137580541E0,-1.303882718E0,-2.735064328E-1,7.450187802E-1
6.157769187E0,-1.624527097E0,-4.103928208E-1,1.117328405E0
6.177959395E0,-1.921735644E0,-5.558013320E-1,1.532248616E0
6.198151062E0,-1.884984016E0,-1.962748319E-1,1.573261261E0
6.218343978E0,-1.351286888E0,4.870918095E-1,9.612672925E-1
6.238537937E0,-7.046719193E-1,5.941507816E-1,1.111868918E-1
6.258732624E0,1.193095297E-1,3.283675313E-1,-4.289017618E-1
6.278927832E0,4.953476042E-2,2.095906287E-1,-5.514070988E-1
6.299123249E0,-2.780338228E-1,2.948117256E-1,-1.013332009E-1
6.319318041E0,2.109221965E-1,-1.004809976E0,3.828291297E-1
6.339506582E0,5.811012983E-1,-2.050366163E0,-1.620532274E-1
6.359689707E0,1.917474568E-1,7.672561407E-1,-3.250385821E-1
6.379873249E0,-1.339568973E0,4.338019848E0,4.201133549E-1
6.400057312E0,-2.620015860E0,4.417914867E0,7.604650855E-1
6.420242103E0,-2.319611549E0,2.442383289E0,4.744417965E-1
6.440427728E0,-1.613874435E0,1.217329979E0,2.171806246E-1
6.460614291E0,-1.267131090E0,7.507445216E-1,-4.540686309E-2
6.480801791E0,-1.195225835E0,3.182475269E-1,5.366265774E-2
6.500990228E0,-1.380048990E0,1.025316268E-1,3.247722387E-1
6.521179603E0,-1.568068027E0,4.418180883E-1,5.287702680E-1
6.541369812E0,-1.560611248E0,7.976161242E-1,5.964145064E-1
6.561560749E0,-1.372059584E0,7.006771564E-1,5.751091838E-1
6.581752312E0,-1.274055362E0,8.349003792E-1,6.406229138E-1
6.601944395E0,-1.363537431E0,1.121988893E0,7.162566185E-1
6.622136791E0,-1.537175417E0,9.611341357E-1,6.896250248E-1
6.642329395E0,-1.520663857E0,6.234455705E-1,5.309007764E-1
6.662532832E0,-1.042893052E0,6.873613596E-1,2.459427416E-1
6.682711687E0,-4.010717571E-1,9.073383212E-1,-7.097318769E-2
6.702890853E0,-7.084003091E-2,8.258456588E-1,-2.632532716E-1
6.723070749E0,-9.693899006E-2,6.884266138E-1,-2.765690684E-1
6.743251687E0,-1.182442605E-1,7.337003350E-1,-3.143859208E-1
6.763433874E0,8.575372398E-2,1.235439539E0,-4.992091656E-1
6.783617520E0,1.976063997E-1,1.829324007E0,-9.503483176E-1
6.803802832E0,1.778990328E-1,1.681784987E0,-1.364735842E0
6.823989812E0,3.813643754E-1,1.233309031E0,-1.172455788E0
6.844178457E0,8.735162020E-1,1.311073184E0,-6.281060576E-1
6.864368666E0,1.560611248E0,1.477254391E0,-3.102580272E-2
6.884560332E0,1.782718658E0,8.855004311E-1,3.940143883E-1
6.904753249E0,1.604287028E0,1.440769136E-1,3.727091253E-1
6.924947207E0,1.607482791E0,-3.861580789E-2,-7.896266878E-2
6.945141999E0,1.454084873E0,4.807002246E-1,-5.263733864E-1
6.965337312E0,9.598025680E-1,1.283376336E0,-8.470177650E-1
6.985532832E0,2.359558940E-1,1.838911414E0,-8.246471882E-1
7.005722937E0,-2.620548606E-1,1.940111399E0,-4.603270590E-1
7.025913145E0,-4.394212663E-1,1.737711310E0,-2.941459119E-1
7.046114187E0,-5.336970687E-1,1.396826982E0,-1.492700726E-1
7.066293978E0,-6.029392481E-1,1.281778455E0,3.768370301E-2
7.086474082E0,-7.494129539E-1,1.368597507E0,6.591318548E-2
7.106654812E0,-1.013598323E0,1.568866968E0,1.138500497E-1
7.126836478E0,-1.409343839E0,1.991244078E0,2.288985252E-1
7.147019291E0,-1.745967150E0,2.559562206E0,3.514038324E-1
7.167203457E0,-1.792838693E0,3.002711773E0,4.254396558E-1
7.187389082E0,-1.704421878E0,2.826943398E0,2.736395895E-1
7.207576166E0,-1.593634367E0,1.967808247E0,1.158474199E-2
7.227764707E0,-1.451421738E0,8.354330063E-1,-3.049317189E-2
7.247954707E0,-1.143560529E0,4.519380927E-1,1.724395454E-1
7.268146062E0,-6.455497742E-1,8.546077609E-1,3.332943618E-1
7.288338562E0,-2.817622423E-1,9.419593811E-1,1.767006069E-1
7.308531999E0,-4.388886094E-1,8.868319541E-2,-1.844237745E-1
7.328726166E0,-6.785729527E-1,-8.625972271E-1,-3.415501416E-1
7.348920853E0,-5.257076025E-1,-1.239700556E0,-2.898848653E-1
7.369115749E0,-1.821600795E-1,-8.034750819E-1,-6.777740270E-2
7.389310541E0,-3.728422802E-3,4.447475821E-2,1.399490088E-1
7.409499082E0,-2.716422379E-1,6.463487148E-1,8.242477477E-2
7.429682207E0,-8.245140314E-1,9.281109571E-1,-8.482161909E-2
7.449865749E0,-8.346340656E-1,9.004141092E-1,-1.380847991E-1
7.470049812E0,-5.177181363E-1,3.667170107E-1,-1.466069072E-1
7.490234603E0,-3.201117218E-1,-1.158474237E-1,-1.503353268E-1
7.510420228E0,-3.632549047E-1,-1.616537571E-1,-8.109319210E-2
7.530606791E0,-5.464802384E-1,1.392832249E-1,-1.771000773E-2
7.550794291E0,-4.692486227E-1,4.162517786E-1,9.454214945E-3
7.570982728E0,-1.896169335E-1,3.534012139E-1,-7.203845680E-2
7.591172103E0,-9.108003974E-2,5.033370852E-2,-1.231711060E-1
7.611362312E0,-1.416800618E-1,-1.137168929E-1,-1.695100814E-1
7.631553249E0,-2.545980215E-1,-1.403484792E-1,-2.323606312E-1
7.651744812E0,-4.330296814E-1,-3.488738462E-2,-2.430132627E-1
7.671936895E0,-6.609960794E-1,2.287653685E-1,-2.222406268E-1
7.692128591E0,-8.410256505E-1,5.845634341E-1,-1.386174262E-1
7.712320622E0,-8.415582776E-1,8.157256246E-1,-7.683213800E-2
7.732524059E0,-7.147918940E-1,7.470161319E-1,-1.824264042E-2
7.752703018E0,-5.741770864E-1,5.062665343E-1,4.407528415E-2
7.772882289E0,-4.788360000E-1,2.681801319E-1,1.010668874E-1
7.793062289E0,-4.426170290E-1,7.696529478E-2,1.298290044E-1
7.813243330E0,-4.346275628E-1,-5.566002429E-2,1.410142779E-1
7.833425622E0,-3.866907060E-1,-1.451421678E-1,1.346226931E-1
7.853609372E0,-2.636527419E-1,-2.996053994E-1,1.330247968E-1
7.873794684E0,-4.687159881E-2,-5.803023577E-1,1.612542868E-1
7.893981664E0,1.331579536E-1,-7.491466403E-1,1.569932252E-1
7.914170309E0,9.427583218E-2,-5.845634341E-1,3.289001435E-2
7.934360518E0,-3.195790946E-2,4.394212365E-2,-1.647163928E-1
7.954552184E0,-7.776424289E-2,7.608645558E-1,-4.150533378E-1
7.974745101E0,6.764423847E-2,9.307740927E-1,-7.676556110E-1
7.994939059E0,3.701791167E-1,8.583361506E-1,-1.093093634E0
8.015133851E0,8.058719635E-1,9.664604664E-1,-1.231577873E0
8.035329164E0,1.170192122E0,1.106542587E0,-1.111735821E0
8.055524684E0,1.475922823E0,1.306812167E0,-9.519461989E-1
8.075719789E0,2.262619972E0,1.869271398E0,-8.731167316E-1
8.095908330E0,2.990727663E0,1.580052257E0,-6.302366257E-1
8.116091455E0,3.058904648E0,2.841590643E-1,-2.584595978E-1
8.136274997E0,2.287653685E0,-3.145190775E-1,-1.519332230E-1
8.156459059E0,1.451421738E0,-3.395527899E-1,-6.882934570E-1
8.176643851E0,8.809730411E-1,1.893506050E-1,-1.203348398E0
8.196829476E0,5.976129174E-1,1.512940645E0,-1.541036963E0
8.217016039E0,3.334275186E-1,2.270343065E0,-1.749296069E0
8.237203539E0,-2.540653646E-1,2.462623119E0,-1.829723477E0
8.257391976E0,-7.760445476E-1,2.662360191E0,-1.898965597E0
8.277581351E0,-8.612656593E-1,2.519082308E0,-1.468066454E0
8.297771559E0,-5.709813237E-1,2.111086130E0,-8.555398583E-1
8.317962497E0,-3.462106884E-1,1.834650278E0,-4.992091656E-1
8.338154059E0,-3.126548827E-1,1.631184936E0,-3.932154477E-1
8.358346143E0,-5.044023395E-1,1.571530223E0,-4.134554565E-1
8.378538539E0,-8.942888379E-1,1.485243797E0,-4.150533378E-1
8.398731143E0,-1.300154328E0,1.148087859E0,-2.265016884E-1
8.418934580E0,-1.545697570E0,3.454117477E-1,1.271658540E-1
8.439113643E0,-1.664474487E0,-5.936181545E-1,5.852292180E-1
8.459293018E0,-1.580318570E0,-1.204014182E0,1.016660929E0
8.479473122E0,-1.426920652E0,-1.417599559E0,1.049684167E0
8.499654268E0,-1.154213190E0,-8.934898973E-1,6.576671600E-1
8.519836664E0,-8.862993717E-1,2.223737836E-1,2.304964215E-1
8.540020518E0,-9.965541363E-1,8.657930493E-1,-6.564687192E-2
8.560205934E0,-1.302284837E0,6.383592486E-1,-3.575291038E-1
8.580393018E0,-1.367798567E0,7.536740601E-2,-4.534028471E-1
8.600581768E0,-1.557415485E0,-4.423507154E-1,-3.399522603E-1
8.620772080E0,-1.575524926E0,-2.324937880E-1,-7.363634557E-2
8.640963851E0,-1.491369128E0,6.133255363E-1,1.745700836E-1
8.661156872E0,-1.265000582E0,2.597911596E0,4.424838722E-1
8.681350934E0,-5.800360441E-1,3.275952101E0,6.635261178E-1
8.701545726E0,-9.906952083E-2,1.911349297E0,5.596628785E-1
8.721740934E0,1.992042959E-1,1.124119401E0,4.877575934E-1
8.741936351E0,-4.793686420E-2,6.282392144E-1,3.732417524E-1
8.762130414E0,-5.544697046E-1,1.765674502E-1,3.146522343E-1
8.782318955E0,-9.108003974E-1,-1.039430976E0,3.833617568E-1
8.802502080E0,-1.100417376E0,-1.766473413E0,8.988162130E-2
8.822685622E0,-1.871668220E0,-6.143907905E-1,-4.342280924E-1
8.842869684E0,-2.743053913E0,2.267679930E0,-4.454133511E-1
8.863054476E0,-1.764609218E0,3.402185678E0,-1.460742801E-1
8.883240101E0,-5.619265437E-1,9.424920082E-1,1.127847880E-1
8.903426664E0,5.539371073E-2,-1.491635442E0,-1.290300637E-1
8.923614164E0,1.054610983E-1,-1.850629210E0,-3.079943359E-1
8.943802601E0,-2.306295782E-1,-1.008538365E0,-2.356895804E-2
8.963991976E0,-4.580633640E-1,-6.133255363E-1,1.916143000E-1
8.984182184E0,-2.492716908E-1,-8.428898454E-1,1.884185076E-1
9.004373122E0,1.880190372E-1,-7.289066315E-1,7.443529367E-2
9.024564684E0,4.159854650E-1,-3.464770019E-1,-1.375521719E-1
9.044756768E0,4.010717571E-1,2.143843025E-1,-3.681817353E-1
9.064949164E0,5.166528821E-1,1.088433146E0,-7.053377032E-1
9.085141768E0,7.558045387E-1,2.156892538E0,-1.304015875E0
9.105345205E0,7.648593187E-1,2.824280262E0,-1.979925632E0
9.125524372E0,4.772381186E-1,1.632782817E0,-2.424140692E0
9.145703851E0,1.680986047E0,1.508679628E0,-1.883519292E0
9.165883955E0,3.188333988E0,1.484178543E0,-8.954872489E-1
9.186064997E0,2.930007696E0,-4.178496599E-1,1.996037811E-1
9.206247289E0,2.502836943E0,-9.888309836E-1,1.105077863E0
9.226431039E0,2.493782282E0,-5.456812978E-1,9.772462249E-1
9.246616351E0,2.317481041E0,-4.199801981E-1,-2.037316747E-2
9.266803330E0,1.419996381E0,1.358211134E-2,-1.283243179E0
9.286991976E0,7.558045387E-1,1.571263932E-2,-2.433727980E0
9.307182184E0,3.978759646E-1,-2.165414572E0,-2.193511009E0
9.327373851E0,5.230444670E-1,8.045403361E-1,-5.332975984E-1
9.347566768E0,3.488738537E-1,3.100183487E0,3.865575492E-1
9.367760726E0,-1.965411454E-1,2.204829454E0,5.815007687E-1
9.387955518E0,-7.078676820E-1,1.068193078E0,5.271723270E-1
9.408150830E0,-9.012130499E-1,6.788392663E-1,3.609912097E-1
9.428346351E0,-1.086036325E0,5.994771123E-1,1.383511126E-1
9.448541247E0,-1.370461702E0,9.717867374E-1,6.431528926E-2
9.468729789E0,-1.604819655E0,1.188035250E0,8.455529809E-2
9.488912914E0,-1.761946082E0,1.085770011E0,-8.961530030E-2
9.509096455E0,-1.500956416E0,1.530517578E0,-3.644533157E-1
9.529280518E0,-8.692551255E-1,1.864477634E0,-5.306344628E-1
9.549465309E0,-5.235770941E-1,1.387239575E0,-6.797713637E-1
9.569650934E0,-9.145288467E-1,1.044757366E0,-5.562008023E-1
9.589837497E0,-1.451954365E0,1.604553342E0,-2.334259003E-1
9.610024997E0,-1.875929236E0,1.606151223E0,-2.866890728E-1
9.630213434E0,-2.143843174E0,1.222656369E0,-5.721797347E-1
9.650402809E0,-1.905756712E0,1.357412219E0,-3.095922470E-1
9.670593018E0,-4.452801943E-1,1.957155585E0,5.820333958E-1
9.690783955E0,-2.609895915E-2,-1.416001678E0,1.245159984E0
9.710975518E0,-1.794969290E-1,-2.548909664E0,9.218525290E-1
9.731167601E0,-7.941540480E-1,7.803056389E-2,-3.569964767E-1
9.751359997E0,-1.476988077E0,2.145707369E0,-7.303713560E-1
9.771552601E0,-1.969139814E0,2.916425467E0,-3.042659163E-1
9.791756039E0,-2.089514732E0,4.004592419E0,3.418164849E-1
9.811935414E0,-2.090579987E0,3.844270229E0,5.074649453E-1
9.832115101E0,-2.059687138E0,2.195242167E0,7.503450513E-1
9.852295414E0,-1.854624033E0,-8.114646077E-1,1.056608319E0
9.872476664E0,-1.256478429E0,-3.357444763E0,1.219061136E0
9.892659164E0,-9.161267430E-2,-1.609347105E0,1.305880070E0
9.912843122E0,2.684464455E-1,-3.400854170E-1,7.689871788E-1
9.933028643E0,2.918822467E-1,-6.479465961E-1,-1.359542757E-1
9.953215726E0,8.186551332E-1,-5.616602302E-1,-6.978808641E-1
9.973404372E0,1.715074420E0,-7.997466922E-1,-9.743167758E-1
9.993594580E0,1.919072509E0,-1.488439679E0,-8.267777562E-1
1.001378614E1,1.537175417E0,-1.882587194E0,-3.900196552E-1
1.003397896E1,1.086568952E0,-1.696166039E0,6.538055837E-2
1.005417281E1,6.647245288E-1,-1.342498541E0,2.576606572E-1
1.007436739E1,8.522108942E-2,-1.111868978E0,-1.039963663E-1
1.009456250E1,-3.233075142E-1,-8.503466845E-1,-1.005209446E0
1.011475781E1,-1.310274303E-1,-9.507478029E-2,-1.649161220E0
1.013495239E1,2.524674833E-1,6.191844940E-1,-1.242763162E0
1.015514093E1,-5.912213027E-2,6.846982241E-1,-3.250385821E-1
1.017532406E1,-6.519413590E-1,1.160338402E0,-4.139880836E-1
1.019550760E1,-5.731118321E-1,2.072204113E0,-6.488786936E-1
1.021569166E1,5.912213027E-2,2.380065203E0,-7.564703226E-1
1.023587646E1,2.876211703E-1,6.016076207E-1,-1.810548663E0
1.025606208E1,6.210486889E-1,-1.422925949E0,-2.549309015E0
1.027624864E1,1.024250984E0,-2.292713642E0,-1.634247541E0
1.029643614E1,1.212270021E0,-2.250635862E0,-4.358259737E-1
1.031662458E1,1.086568952E0,-1.053812027E0,1.117195264E-1
1.033681396E1,1.008804679E0,4.127896577E-2,-8.002793044E-2
1.035700416E1,1.239966869E0,1.122521520E0,-6.052029133E-1
1.037719521E1,1.181910038E0,1.553420663E0,-7.048050761E-1
1.039738687E1,7.115961313E-1,2.064747334E0,-1.588574350E-1
1.041757906E1,5.906887054E-1,1.987515688E0,3.918838501E-1
1.043777156E1,9.347688556E-1,9.222519994E-1,8.073366880E-1
1.045796427E1,1.201617360E0,-3.944138587E-1,1.025715709E0
1.047816781E1,1.010402560E0,-1.348890066E0,1.052879930E0
1.049834666E1,5.880255103E-1,-2.030126095E0,1.016660929E0
1.051852583E1,2.247706354E-1,-2.198437929E0,9.761809707E-1
1.053870573E1,-1.747032404E-1,-1.323323727E0,1.015595675E0
1.055888666E1,-7.115961313E-1,-3.475422561E-1,1.279248476E0
1.057906885E1,-1.400289059E0,-1.664474458E-1,1.427320123E0
1.059925250E1,-1.692171335E0,-5.115928650E-1,1.217463136E0
1.061943781E1,-1.307078481E0,-5.025381446E-1,5.926860571E-1
1.063962479E1,-8.575372100E-1,-2.948117256E-1,-1.498026997E-1
1.065981343E1,-8.058719635E-1,3.086601496E-1,-3.607248962E-1
1.068000375E1,-1.210672140E0,1.360607982E0,-3.474090993E-1
1.070019552E1,-1.930257678E0,2.329998016E0,9.680583328E-2
1.072038854E1,-2.123070478E0,2.512157917E0,6.321008205E-1
1.074058260E1,-1.007206798E0,1.929458737E0,1.361273766E0
1.076077750E1,-2.231727391E-1,-8.503466845E-1,1.852892995E0
1.078097291E1,-2.924148738E-1,-3.363836288E0,1.262736917E0
1.080116854E1,2.918822467E-1,-2.613358021E0,-1.450090110E-1
1.082136385E1,1.837579727E0,-1.784316637E-2,-1.776992917E0
1.084155239E1,2.801643312E-1,1.756353378E0,-1.869670868E0
1.086173552E1,-1.710813403E0,2.654903412E0,-7.841671705E-1
1.088191906E1,-2.153430462E0,2.330530643E0,3.881554306E-1
1.090210312E1,-2.045838833E0,1.467666984E0,5.894902945E-1
1.092228791E1,-1.743303895E0,-1.813611388E-1,5.266396999E-1
1.094247354E1,-1.207476377E0,-2.161153555E0,4.989428520E-1
1.096266010E1,-4.170507193E-1,-2.432795763E0,6.193176508E-1
1.098284760E1,4.266380966E-1,-1.030376315E0,9.383640885E-1
1.100303604E1,1.137701511E0,-3.619233072E-1,1.144492626E0
1.102322541E1,1.618668079E0,-8.040077090E-1,9.580714703E-1
1.104341562E1,1.631983876E0,-1.757951379E0,5.538039207E-1
1.106360666E1,1.560078621E0,-2.364086390E0,2.315616906E-1
1.108379833E1,1.701225996E0,-2.249304295E0,-1.989379823E-1
1.110399052E1,1.734781861E0,-1.998967171E0,-7.081339955E-1
1.112418302E1,1.243695259E0,-1.942508221E0,-1.050616264E0
1.114437573E1,7.744466662E-1,-1.658615470E0,-1.336639524E0
1.116457927E1,8.511456251E-1,-1.613874435E0,-2.033854723E0
1.118475823E1,1.098819494E0,-1.018924713E0,-2.483395815E0
1.120493750E1,2.027196646E0,-8.948214650E-1,-2.266614676E0
1.122511750E1,1.376320601E0,-1.496162772E0,-2.555301189E0
1.124529854E1,1.278316379E-1,1.519598603E0,-1.795235515E0
1.126548083E1,5.906887054E-1,1.288436413E0,-5.339633822E-1
1.128566458E1,7.360971570E-1,-8.511456251E-1,-1.797632426E-1
1.130584989E1,3.456780612E-1,-2.716422379E-1,2.050632425E-2
1.132603687E1,5.432844535E-2,1.234640598E0,4.460791349E-1
1.134622552E1,6.072002649E-2,2.177931547E0,5.126581192E-1
1.136641573E1,-2.109221965E-1,2.399506330E0,5.499423742E-1
1.138660739E1,-8.335688114E-1,2.226933718E0,8.279761672E-1
1.140680031E1,-1.538240671E0,1.675127029E0,1.049018383E0
1.142699427E1,-2.109754562E0,1.063665748E0,1.070323586E0
1.144718906E1,-2.581666470E0,8.586025238E-1,9.792435765E-1
1.146738437E1,-2.923083544E0,1.132375240E0,9.318393469E-1
1.148757989E1,-2.980607748E0,1.717737675E0,9.462204576E-1
1.150777000E1,-2.333460093E0,2.431996822E0,9.669930935E-1
1.152796021E1,-1.019457340E0,3.062100410E0,8.423572183E-1
1.154816125E1,-1.869537681E-1,2.863428593E0,1.792306006E-1
1.156834125E1,3.398191035E-1,2.137984037E0,-5.707150102E-1
1.158852156E1,4.655202031E-1,7.787077427E-1,-9.536772966E-1
1.160870250E1,-1.422126889E-1,-2.797382355E0,-6.548708081E-1
1.162888437E1,-4.277033508E-1,-6.241912365E0,1.941442937E-1
1.164906739E1,-4.308991432E-1,-4.408593655E0,2.053295672E-1
1.166925166E1,1.048752069E0,6.402234435E-1,-1.336106896E0
1.168943739E1,6.428865790E-1,2.783533812E0,-1.401620626E0
1.170962458E1,-1.419463754E0,4.108189106E0,1.850895584E-1
1.172981323E1,-1.883918762E0,4.026696682E0,8.578035235E-1
1.175000333E1,-1.694301844E0,2.390984297E0,7.017424107E-1
1.177019468E1,-1.373124838E0,-3.510043621E-1,7.683213949E-1
1.179038718E1,-9.715204239E-1,-3.491934299E0,9.361004233E-1
1.181058062E1,-3.424822688E-1,-3.979292393E0,1.148620486E0
1.183077479E1,2.519348562E-1,-1.275653243E0,1.396826982E0
1.185096937E1,3.510043621E-1,6.583329439E-1,1.048485756E0
1.187116416E1,5.757750273E-1,8.111982346E-1,3.012032807E-1
1.189135854E1,1.050882578E0,-8.948214352E-2,-2.692453861E-1
1.191154708E1,1.499891162E0,-1.489238620E0,-5.957486629E-1
1.193173021E1,1.398158550E0,-2.511358976E0,-8.599340916E-1
1.195191375E1,7.025413513E-1,-2.675942183E0,-1.194959521E0
1.197209791E1,-2.130527236E-2,-1.972868204E0,-1.358477473E0
1.199228281E1,-1.342232227E-1,-5.629918575E-1,-1.271658421E0
1.201246854E1,1.193095297E-1,1.342232227E-1,-8.583361506E-1
1.203265521E1,2.199769467E-1,-4.585959911E-1,-2.636527456E-2
1.205284281E1,2.599243224E-1,-3.472759426E-1,4.221107066E-1
1.207303135E1,6.711161137E-1,-3.520696461E-1,-2.016011477E-1
1.209322083E1,1.618668079E0,-8.064045906E-1,-8.492814302E-1
1.211341114E1,2.248771429E0,-1.365667939E0,-1.170458436E0
1.213360218E1,1.940910339E0,-1.083905697E0,-1.580052257E0
1.215379385E1,1.355015397E0,5.901560783E-1,-1.576323867E0
1.217398604E1,1.359276414E0,1.038099408E0,-1.131043673E0
1.219417854E1,1.307611108E0,6.977477074E-1,-3.427485824E-1
1.221437114E1,8.069372177E-1,5.166528821E-1,3.145190775E-1
1.223457458E1,2.844253778E-1,8.724509478E-1,3.954791129E-1
1.225475302E1,5.645897239E-2,1.292164803E0,3.107906580E-1
1.227493177E1,-1.715074480E-1,1.189899445E0,3.539338410E-1
1.229511125E1,-5.086634159E-1,9.576719999E-1,6.165213585E-1
1.231529177E1,-8.713856339E-1,1.022653103E0,8.301066756E-1
1.233547364E1,-1.132907867E0,1.294827938E0,7.848330140E-1
1.235565708E1,-1.390169024E0,1.095090985E0,5.856286883E-1
1.237584218E1,-1.712943912E0,5.091960430E-1,3.677822649E-1
1.239602906E1,-1.604819655E0,8.394277692E-1,1.233042628E-1
1.241621771E1,-1.363537431E0,1.626657605E0,-1.339569092E-1
1.243640802E1,-1.408278584E0,1.889245033E0,-3.826959729E-1
1.245659989E1,-1.515870214E0,1.274055362E0,-5.558013320E-1
1.247679312E1,-8.149266839E-1,-3.355580568E-2,-6.042708158E-1
1.249698750E1,6.897581816E-1,-3.573959470E-1,-2.788327634E-1
1.251718271E1,1.736379713E-1,-7.297055721E-1,3.028011918E-1
1.253737843E1,-3.323622644E-1,-1.758750319E0,7.981488109E-1
1.255757437E1,5.763076544E-1,-2.798980236E0,1.001081467E0
1.257776489E1,6.546044946E-1,-2.958237171E0,1.856221855E-1
1.259795552E1,4.394212663E-1,-1.119059443E0,-6.452834606E-1
1.261815698E1,1.643701792E0,-1.037566781E0,-9.621993899E-1
1.263833614E1,5.842971206E-1,7.936213911E-2,-3.560643792E-1
1.265851562E1,-1.587242842E0,2.803241253E0,5.217128396E-1
1.267869583E1,-2.417615891E0,3.626690149E0,9.345025420E-1
1.269887698E1,-2.242379904E0,2.640255928E0,8.077361584E-1
1.271905937E1,-1.723596573E0,5.539370775E-1,5.653886795E-1
1.273924323E1,-1.344362736E0,-1.172855258E0,4.929507375E-1
1.275942864E1,-7.254445553E-1,-1.720400810E0,5.648560524E-1
1.277961573E1,1.438105851E-1,-8.969519734E-1,4.854938984E-1
1.279980448E1,4.335623085E-1,-1.906821877E-1,3.443464637E-1
1.281999479E1,2.061285079E-1,-7.456845790E-2,3.134538233E-1
1.284018656E1,3.089264631E-1,1.219726875E-1,3.065296113E-1
1.286037958E1,7.020087242E-1,2.657832801E-1,1.621863842E-1
1.288057364E1,1.258608937E0,-7.936213911E-2,-5.193160102E-2
1.290076843E1,1.347025871E0,-8.159919381E-1,-1.531316489E-1
1.292096375E1,8.010782599E-1,-1.357145905E0,-1.089232042E-1
1.294115927E1,4.969455004E-1,-1.796567082E0,-8.282424510E-2
1.296135343E1,4.948149621E-1,-1.362472177E0,2.423474751E-2
1.298154208E1,4.799012840E-1,-6.567350626E-1,5.060002208E-3
1.300173062E1,5.214465261E-1,-4.000065029E-1,-2.575274706E-1
1.302191375E1,7.771098018E-1,-1.155811027E-1,-4.205128253E-1
1.304209729E1,1.649028063E0,-1.246358454E-1,-5.589970946E-1
1.306228135E1,2.007489443E0,-4.889560044E-1,-1.151816368E0
1.308246614E1,8.223835230E-1,-1.532381773E0,-1.692970276E0
1.310265177E1,3.872233331E-1,-3.163300276E0,-1.471928000E0
1.312283833E1,1.071655273E0,-2.727607489E0,-1.282843709E0
1.314302583E1,1.256478429E0,-4.825644195E-1,-1.005342603E0
1.316321427E1,1.080177307E0,1.316133261E0,-2.330264151E-1
1.318340364E1,8.335688114E-1,2.220009327E0,2.239716798E-1
1.320359396E1,5.869602561E-1,2.537457943E0,-7.989477599E-4
1.322378500E1,1.933453530E-1,2.485792637E0,-1.030642539E-1
1.324397666E1,-2.913496196E-1,2.393647432E0,5.779055133E-2
1.326416885E1,-7.371624112E-1,2.566220045E0,1.403484792E-1
1.328436135E1,-1.039697289E0,2.223205328E0,1.185105816E-1
1.330455406E1,-1.541436434E0,1.313470125E0,2.849580161E-2
1.332475760E1,-2.389919043E0,4.048001766E-1,-4.074633494E-2
1.334493656E1,-2.747847557E0,9.076046348E-1,-2.202432603E-1
1.336511583E1,-2.537457943E0,2.290849447E0,-5.009402037E-1
1.338529583E1,-2.220009327E0,2.779805422E0,-6.106624007E-1
1.340547687E1,-1.654887080E0,2.001097679E0,-6.266413331E-1
1.342565916E1,-7.675224543E-1,1.547295451E0,-6.442182064E-1
1.344584291E1,-5.033370852E-1,2.348906279E0,1.944106072E-2
1.346602823E1,-8.506129980E-1,2.362222195E0,9.723193645E-1
1.348621520E1,-4.511391521E-1,1.992042959E-1,1.596563935E0
1.350640385E1,8.522108942E-2,-3.757717609E0,9.366330504E-1
1.352659406E1,-2.673811615E-1,-4.104460716E0,-5.036033988E-1
1.354678573E1,2.577938139E-1,-2.510826349E0,-1.391500592E0
1.356697864E1,1.290566921E0,-4.793686271E-1,-1.347824812E0
1.358717260E1,-6.178529188E-2,2.408560991E0,-3.549990952E-1
1.360736739E1,-1.778990269E0,3.291664600E0,4.764391780E-1
1.362756270E1,-2.495380163E0,3.391266823E0,8.444877267E-1
1.364775823E1,-2.401104212E0,1.520131230E0,7.965508699E-1
1.366794833E1,-1.657017589E0,-9.736509919E-1,6.458160877E-1
1.368813854E1,-1.066328883E0,-1.799230337E0,3.416832983E-1
1.370833958E1,-1.159539461E0,-2.310024261E0,3.251717389E-1
1.372851958E1,-1.595232248E0,-2.038382053E0,4.162517786E-1
1.374869989E1,-1.216531038E0,-9.512804151E-1,6.335655451E-1
1.376888083E1,-3.611243665E-1,-5.704486966E-1,8.066709042E-1
1.378906271E1,1.001347825E-1,-4.074633420E-1,7.257108688E-1
1.380924573E1,5.326318205E-4,-1.342232227E-1,6.005423665E-1
1.382943000E1,-1.656484902E-1,-3.089264631E-1,6.910898089E-1
1.384961573E1,1.523326933E-1,-9.331709743E-1,9.371656775E-1
1.386980291E1,7.435539961E-1,-1.478053331E0,9.941573143E-1
1.388999156E1,8.255793452E-1,-1.198421597E0,7.763108611E-1
1.391018166E1,3.398191035E-1,-1.810948178E-2,5.126581192E-1
1.393037302E1,-3.238401413E-1,1.219726920E0,2.735064328E-1
1.395056552E1,-8.948214650E-1,2.189116716E0,-7.723161485E-3
1.397075896E1,-8.596677780E-1,3.639473200E0,-3.134538233E-1
1.399095312E1,3.195790946E-1,3.677290201E0,-1.242363691E0
1.401114770E1,2.206161022E0,2.808034897E0,-3.085269928E0
1.403134250E1,2.686594963E0,3.069024563E0,-4.585693836E0
1.405153677E1,2.258891582E0,1.410409093E0,-4.940426350E0
1.407172541E1,2.357961178E0,-2.895919323E0,-2.832802296E0
1.409191396E1,2.286588430E0,-3.251717329E0,-1.159805775E0
1.411209708E1,8.303729892E-1,1.577655435E0,-3.134538233E-1
1.413228062E1,-3.595264852E-1,5.114863396E0,-2.740390599E-1
1.415246468E1,-3.845601678E-1,6.386255741E0,-8.823046088E-1
1.417264948E1,-6.572676897E-1,6.330329418E0,-1.211471081E0
1.419283510E1,-1.253282666E0,5.562806606E0,-1.192296386E0
1.421302166E1,-1.731586099E0,4.477835655E0,-1.024517298E0
1.423320916E1,-1.618668079E0,3.440801620E0,-8.716519475E-1
1.425339760E1,-6.269076467E-1,3.053045511E0,-6.447508335E-1
1.427358698E1,2.396843210E-2,2.066078901E0,-1.845569313E-1
1.429377718E1,-6.295707822E-1,5.651223660E-1,1.019989923E-1
1.431396823E1,-9.097351432E-1,1.065263618E-2,2.900180221E-1
1.433415989E1,-9.353014827E-1,1.229314208E0,6.578002870E-2
1.435435208E1,-1.027979374E0,9.363667369E-1,-7.699192762E-1
1.437454458E1,-2.471411675E-1,2.242379934E-1,-1.344629049E0
1.439473729E1,8.293077350E-1,3.616569936E-1,-9.925593734E-1
1.441494083E1,9.416930676E-1,-3.350254297E-1,9.507478029E-2
1.443511968E1,-7.483476996E-1,-2.310556889E0,7.752456069E-1
1.445529885E1,-1.598960757E0,-2.699910641E0,7.576687932E-1
1.447547875E1,-1.067394137E0,-9.044088125E-1,1.973400861E-1
1.449565968E1,-1.299621612E-1,4.985433817E-1,6.735129356E-1
1.451584187E1,-6.695181727E-1,5.656549931E-1,5.781718493E-1
1.453602552E1,-1.413072228E0,1.333710074E0,3.549990952E-1
1.455621083E1,-1.277251124E0,2.452769518E0,3.118559420E-1
1.457639781E1,-1.047154188E0,3.023218155E0,3.006706536E-1
1.459658646E1,-1.062067866E0,2.773946524E0,2.884201407E-1
1.461677677E1,-1.350754261E0,1.520131230E0,2.047969401E-1
1.463696854E1,-1.831188202E0,-7.430213690E-1,-5.619265884E-2
1.465716156E1,-2.343047380E0,-2.509761095E0,-3.949464858E-1
1.467735562E1,-2.665822268E0,-2.175801039E0,-2.814959288E-1
1.469755052E1,-1.879657745E0,4.239749312E-1,3.970770240E-1
1.471774593E1,-6.572676897E-1,6.396908164E-1,6.133255363E-1
1.473794156E1,-1.816274524E-1,-6.791055799E-1,3.720433414E-1
1.475813687E1,-2.775011659E-1,-1.562741756E0,3.214432895E-1
1.477832541E1,-7.403582335E-1,-1.518000722E0,2.980075181E-1
1.479850854E1,-1.215465784E0,-8.197203875E-1,4.221107066E-1
1.481869208E1,-1.327318549E0,-3.936149180E-1,5.819002390E-1
1.483887614E1,-1.066861510E0,-4.836297035E-1,3.816306889E-1
1.485906093E1,-6.247771382E-1,-5.315665603E-1,2.319611609E-1
1.487924656E1,-2.854906619E-1,-4.830970466E-1,1.808284968E-1
1.489943312E1,2.343579940E-2,-2.790990770E-1,1.760348231E-1
1.491962062E1,3.494064808E-1,1.571263820E-1,2.197106332E-1
1.493980906E1,4.388886094E-1,6.317013502E-1,2.649843395E-1
1.495999843E1,5.102612972E-1,1.334775329E0,3.390201628E-1
1.498018864E1,8.894951344E-1,2.191779852E0,1.813611388E-1
1.500037968E1,1.291632175E0,3.254380465E0,-2.415485233E-1
1.502057135E1,1.481249094E0,4.092742920E0,-6.905571818E-1
1.504076354E1,1.418931127E0,3.834949017E0,-7.278413773E-1
1.506095604E1,1.172855258E0,2.622678995E0,-8.716519475E-1
1.508114875E1,9.757815003E-1,8.122635484E-1,-1.060203671E0
1.510135229E1,1.261272192E0,-1.731053472E0,-1.080443621E0
1.512153104E1,1.980857730E0,-3.299654245E0,-1.241298437E0
1.514171010E1,2.593916893E0,-1.765141845E0,-1.575258613E0
1.516188989E1,2.404832602E0,1.377385855E0,-1.603488088E0
1.518207073E1,1.217063665E0,3.775826931E0,-1.536909103E0
1.520225281E1,2.396843135E-1,4.491683960E0,-1.511342764E0
1.522243635E1,-1.533979625E-1,4.322839737E0,-1.483113289E0
1.524262156E1,-5.928192139E-1,3.963313341E0,-1.453818560E0
1.526280843E1,-1.197356343E0,3.368896246E0,-1.623195529E0
1.528299698E1,-1.563807011E0,2.569415808E0,-1.303083777E0
1.530318718E1,-1.336905837E0,1.928127170E0,-4.338286221E-1
1.532337896E1,-8.878972530E-1,1.156343699E0,2.601906359E-1
1.534357208E1,-5.587307811E-1,4.527370334E-1,6.559360623E-1
1.536376625E1,-4.868254960E-1,2.130527347E-1,9.297088385E-1
1.538396125E1,-6.386255622E-1,3.249054030E-2,1.033572078E0
1.540415677E1,-1.154213190E0,-2.402169555E-1,8.210519552E-1
1.542435250E1,-1.673529148E0,-4.745749533E-1,5.318328738E-1
1.544454802E1,-1.711878657E0,1.544632297E-2,1.376853287E-1
1.546473656E1,-8.207856417E-1,8.218508959E-1,-1.872200817E-1
1.548491968E1,2.998717129E-1,-5.432844535E-2,-8.141277432E-1
1.550510323E1,-7.030740380E-2,-1.314535379E0,-1.490570188E0
1.552528729E1,-6.823013425E-1,-1.505217552E0,-9.749825597E-1
1.554547208E1,-9.086698890E-1,-1.521729112E0,3.701791167E-2
1.556565771E1,-7.424887419E-1,-9.938910007E-1,3.986749053E-1
1.558584427E1,-1.651158631E-1,1.177648902E0,3.906854391E-1
1.560603177E1,-7.669898123E-2,2.272739887E0,2.314285189E-1
1.562622021E1,7.403582335E-2,2.698312759E0,1.643169224E-1
1.564640958E1,1.645832360E-1,2.564622164E0,1.334242672E-1
1.566659979E1,1.145158410E-1,1.648495436E0,2.261022031E-1
1.568679073E1,-2.849580348E-1,3.925496638E-1,3.784348965E-1
1.570698229E1,-9.912278056E-1,-8.500803709E-1,4.476770461E-1
1.572717437E1,-1.710280776E0,-2.227466345E0,5.552686453E-1
1.574736677E1,-2.371276855E0,-1.924931407E0,2.729738057E-1
1.576755937E1,-2.888994932E0,1.143560529E0,-4.607265070E-2
1.578776281E1,-2.375537872E0,5.428050995E0,1.669800729E-1
1.580794198E1,-1.792306066E0,4.955606461E0,2.633864284E-1
1.582812146E1,-1.347025871E0,3.755054474E-1,1.126516312E-1
1.584830166E1,-3.946801722E-1,-2.402702093E0,-1.997369342E-2
1.586848281E1,2.604569495E-1,-2.235988379E0,-1.198421605E-2
1.588866520E1,2.428801060E-1,-1.249021649E0,1.776327193E-1
1.590884906E1,-1.102547869E-1,-8.559393287E-1,3.406180441E-1
1.592903448E1,-5.028044581E-1,-7.504782081E-1,4.822981060E-1
1.594922156E1,-8.399603963E-1,-5.805686712E-1,7.134603262E-1
1.596941031E1,-1.193095326E0,-2.908169627E-1,8.231824636E-1
1.598960062E1,-1.131309986E0,-3.036001325E-2,7.470161319E-1
1.600979239E1,-3.792338669E-1,-1.118526831E-1,5.110602379E-1
1.602998541E1,4.282359779E-1,-2.530001104E-1,1.701758653E-1
1.605017948E1,6.918887496E-1,4.910865426E-1,-9.986846894E-2
1.607037427E1,5.576655269E-1,1.699095488E0,-5.073317885E-1
1.609056948E1,4.165180922E-1,2.402702093E0,-1.235972166E0
1.611076489E1,3.994738758E-1,2.939594984E0,-1.958220840E0
1.613095885E1,5.203812718E-1,2.959835052E0,-2.127597809E0
1.615114739E1,1.340634346E0,2.412289619E0,-1.569932342E0
1.617133052E1,2.336123228E0,1.302284837E0,-6.058686972E-1
1.619151406E1,2.122005224E0,-5.683181286E-1,4.024033546E-1
1.621169812E1,2.001097679E0,-1.038632035E0,6.873613596E-1
1.623188291E1,1.936116695E0,-3.185138404E-1,-1.563274413E-1
1.625206854E1,1.501489043E0,1.319329023E0,-1.206144810E0
1.627225510E1,8.586025238E-1,3.889277458E0,-1.887913465E0
1.629244260E1,5.656549931E-1,4.925246239E0,-2.226134777E0
1.631263104E1,4.340949357E-1,3.995271206E0,-2.142511606E0
1.633282041E1,1.640505940E-1,2.958769798E0,-2.089781046E0
1.635301062E1,-6.178529188E-2,2.025066137E0,-1.972601891E0
1.637320156E1,-1.864211448E-2,1.236238480E0,-1.467134356E0
1.639339312E1,6.018739566E-2,1.200019479E0,-9.227846265E-1
1.641358520E1,6.285055727E-2,1.214400530E0,-5.313002467E-1
1.643377760E1,-8.522109129E-3,1.197356343E0,-4.418180883E-1
1.645397020E1,-2.253032625E-1,1.181910038E0,-4.561991692E-1
1.647417364E1,-7.153245211E-1,7.914909124E-1,-3.086601496E-1
1.649435260E1,-1.506282806E0,-6.178529188E-2,-4.527370445E-3
1.651453187E1,-1.880190372E0,-8.293077350E-1,6.151897460E-2
1.653471187E1,-1.289501667E0,-8.213182688E-1,-3.315632939E-1
1.655489291E1,-3.265033066E-1,4.857602119E-1,-1.328650117E0
1.657507520E1,-1.757684946E-1,1.351286888E0,-1.847966075E0
1.659525896E1,-5.507413149E-1,5.193160176E-1,-1.597096562E0
1.661544427E1,-4.383559823E-1,-5.592634082E-1,-1.313736439E0
1.663563125E1,-5.550023317E-1,-1.426388025E0,-1.930790395E-1
1.665581989E1,3.419496417E-1,-1.131842613E0,9.637972713E-1
1.667601010E1,-2.833601236E-1,-6.338318437E-2,1.508147001E0
1.669620177E1,-1.105211020E0,2.093243003E-1,1.478319645E0
1.671639468E1,-1.187768936E0,2.988064587E-1,1.041561484E0
1.673658864E1,-1.123853087E0,7.488803267E-1,8.567382693E-1
1.675678343E1,-1.142495275E0,1.404017448E0,8.828372359E-1
1.677697875E1,-1.071655273E0,1.764609218E0,8.977509141E-1
1.679717427E1,1.278316416E-2,1.530251265E0,4.050664902E-1
1.681736927E1,3.813643754E-1,1.154745817E0,-9.134636074E-2
1.683755781E1,-6.295707822E-1,4.617917836E-1,1.121189967E-1
1.685774093E1,-1.006674170E0,-4.063980877E-1,3.763043880E-1
1.687792448E1,-4.729770422E-1,-8.138614297E-1,4.050664902E-1
1.689810854E1,1.134505793E-1,-5.970802903E-1,3.757717609E-1
1.691829333E1,4.255728126E-1,-4.910865426E-1,2.085253596E-1
1.693847896E1,5.320991874E-1,-3.510043621E-1,-1.653821766E-1
1.695866552E1,8.341014385E-1,-4.676507413E-1,-6.506097913E-1
1.697885302E1,9.805752039E-1,-6.487455368E-1,-7.475487590E-1
1.699904146E1,6.599308252E-1,-6.391581893E-1,-3.752391040E-1
1.701923083E1,6.482129097E-1,-9.981520176E-1,-1.115863696E-1
1.703942104E1,8.878972530E-1,-1.531849146E0,-6.471476704E-2
1.705961198E1,8.852340579E-1,-1.624527097E0,-8.388951421E-2
1.707980354E1,6.370276809E-1,-1.249021649E0,-2.537990510E-1
1.709999562E1,5.358276367E-1,-7.925561666E-1,-6.293044686E-1
1.712018802E1,8.239814043E-1,-2.492716908E-1,-9.382309318E-1
1.714038062E1,1.397625923E0,2.434127480E-1,-8.886961937E-1
1.716058406E1,2.189649343E0,2.663159044E-3,-1.027180433E0
1.718076281E1,1.998967171E0,-7.723161578E-2,-1.494298577E0
1.720094187E1,4.687159956E-1,5.065328479E-1,-1.753157616E0
1.722112166E1,-7.073350549E-1,5.230444670E-1,-1.499092221E0
1.724130250E1,-6.492781639E-1,-1.272990108E-1,-7.454182506E-1
1.726148458E1,-1.006674170E-1,-3.771033287E-1,-3.992075622E-1
1.728166812E1,-3.462106735E-2,-3.616569936E-1,-1.525990218E-1
1.730185333E1,-2.146506310E-1,-4.937497079E-1,3.608580530E-1
1.732204020E1,-3.291664720E-1,-4.522044063E-1,8.018772006E-1
1.734222875E1,-3.350254297E-1,1.544632297E-2,1.038898349E0
1.736241896E1,-3.014696240E-1,6.599308252E-1,1.118793130E0
1.738261062E1,-3.414169848E-1,8.937562108E-1,1.118793130E0
1.740280364E1,-5.283707380E-1,6.993455887E-1,1.042626739E0
1.742299770E1,-7.504782081E-1,3.946801722E-1,8.380961418E-1
1.744319260E1,-8.175898194E-1,3.877559602E-1,5.808349848E-1
1.746338802E1,-7.989477515E-1,6.434192657E-1,4.721781015E-1
1.748358364E1,-9.262467623E-1,1.075383663E0,4.082622826E-1
1.750377385E1,-1.345427990E0,1.497760653E0,2.207758874E-1
1.752396416E1,-1.814144015E0,1.883386135E0,-7.483477145E-2
1.754416531E1,-2.099102020E0,2.068209410E0,-2.910832763E-1
1.756434479E1,-2.171007395E0,1.584047079E0,-3.102580309E-1
1.758452458E1,-1.735847116E0,6.189181805E-1,-1.350221634E-1
1.760470500E1,-8.447540402E-1,-2.173137814E-1,9.880319983E-2
1.762488635E1,-2.098569423E-1,-7.004108429E-1,6.205160543E-2
1.764506885E1,-1.177116334E-1,-1.062067866E0,6.737792492E-2
1.766525270E1,6.285055727E-2,-1.322524786E0,4.769718051E-1
1.768543812E1,7.611308694E-1,-1.482314348E0,7.337003350E-1
1.770562510E1,9.262467623E-1,-1.631983876E0,3.810980618E-1
1.772581364E1,6.157223582E-1,-6.503434777E-1,-6.524740160E-2
1.774600375E1,6.972150803E-1,-5.358276367E-1,-5.595297217E-1
1.776619521E1,2.615222335E-1,-6.514087319E-1,-8.183888197E-1
1.778638791E1,-5.683181286E-1,8.799077868E-1,-6.005423665E-1
1.780658166E1,-1.045023680E0,1.735847116E0,-1.382179558E-1
1.782677614E1,-1.328383803E0,1.688442826E0,1.520663798E-1
1.784697114E1,-1.306545854E0,1.008272052E0,4.237086177E-1
1.786716635E1,-1.063665748E0,-2.199769467E-1,6.926876903E-1
1.788736114E1,-5.518065691E-1,-1.255945802E0,7.299718857E-1
1.790754958E1,-2.130527236E-2,-1.471129060E0,4.615254700E-1
1.792773260E1,1.853558719E-1,-8.825709224E-1,5.086633936E-2
1.794791604E1,2.103895694E-1,-1.065263674E-1,1.142495275E-1
1.796810010E1,2.583264410E-1,2.279664129E-1,2.777675092E-1
1.798828489E1,3.494064808E-1,1.059937328E-1,1.035968885E-1
1.800847052E1,5.113265514E-1,-2.876211889E-2,-8.708529919E-2
1.802865708E1,7.121287584E-1,4.793686327E-3,-7.217161357E-2
1.804884458E1,8.133288026E-1,7.510108501E-2,-6.045371294E-2
1.806903302E1,7.584677339E-1,9.906952083E-2,-7.163897902E-2
1.808922239E1,3.930822909E-1,-1.358211190E-1,-7.110634446E-2
1.810941260E1,-2.359558940E-1,-4.372907281E-1,-1.446095407E-1
1.812960354E1,-6.583329439E-1,-1.960085034E-1,-2.697780132E-1
1.814979510E1,-5.864276290E-1,5.081307292E-1,-3.523359597E-1
1.816998718E1,-4.021370113E-1,1.401886940E0,-2.106558830E-1
1.819017958E1,-2.684464455E-1,2.196041107E0,-3.006706536E-1
1.821037218E1,3.701791167E-1,2.339851618E0,-6.106624007E-1
1.823057562E1,1.568068027E0,1.684181809E0,-9.835046530E-1
1.825075437E1,2.437323093E0,8.633961678E-1,-1.241298437E0
1.827093343E1,2.755836964E0,1.597895520E-3,-1.166197419E0
1.829111323E1,2.529468536E0,-8.735162020E-1,-7.954856157E-1
1.831129406E1,1.651691318E0,-1.275653243E0,-8.460856676E-1
1.833147614E1,3.866907060E-1,-1.092427850E0,-1.696698666E0
1.835165968E1,-2.157158852E-1,-6.338318437E-2,-2.455698967E0
1.837184489E1,2.764359117E-1,1.340634346E0,-1.876728177E0
1.839203177E1,3.190464675E-1,2.022403002E0,-6.596645117E-1
1.841222031E1,-3.185138404E-1,1.931855559E0,8.175898343E-2
1.843241052E1,-1.086568952E0,1.201084733E0,6.548708081E-1
1.845260218E1,-1.535044909E0,-8.255793154E-2,1.108673096E0
1.847279520E1,-1.670333385E0,-4.580633640E-1,1.168327928E0
1.849298927E1,-1.708682895E0,5.257076025E-1,7.880287766E-1
1.851318416E1,-1.511076450E0,1.473792195E0,2.537990510E-1
1.853337958E1,-1.904158711E0,1.041827798E0,-1.025316268E-1
1.855357520E1,-2.500173807E0,5.603286624E-1,-4.359591305E-1
1.857377052E1,-2.253032684E0,-2.247706354E-1,-3.342264593E-1
1.859395906E1,-1.266598463E0,-8.687224984E-1,2.079927325E-1
1.861414218E1,-4.793686271E-1,-1.608548164E-1,3.523359597E-1
1.863432573E1,-3.424822688E-1,6.167876720E-1,2.932138145E-1
1.865450979E1,-7.984151244E-1,7.680550814E-1,1.930790395E-1
1.867469458E1,-8.708530068E-1,-4.926844239E-1,2.234390527E-1
1.869488020E1,-2.295643091E-1,-1.948899865E0,3.704454303E-1
1.871506677E1,8.090677261E-1,-1.356613278E0,9.294424951E-2
1.873525427E1,1.645299673E0,1.826927215E-1,-5.110602379E-1
1.875544270E1,9.752488732E-1,4.420844018E-1,-7.305045128E-1
1.877563208E1,-4.106591344E-1,1.807219744E0,-5.020055175E-1
1.879582229E1,-1.239434242E0,2.335057974E0,-1.392832249E-1
1.881601323E1,-1.551023841E0,1.817872405E0,-6.418213248E-2
1.883620479E1,-1.440769076E0,9.672594070E-1,2.929474926E-3
1.885639687E1,-1.111070037E0,1.235705838E-1,1.968074590E-1
1.887658927E1,-7.435539961E-1,-3.973433375E-1,2.900180221E-1
1.889678177E1,-4.910865426E-1,-3.259706795E-1,2.298306376E-1
1.891698510E1,-4.644549489E-1,4.261054471E-2,1.941442937E-1
1.893716364E1,-3.824296594E-1,1.549958587E-1,2.591253817E-1
1.895734250E1,-3.834949061E-2,2.876211889E-2,2.751043439E-1
1.897752208E1,2.833601236E-1,-9.640636295E-2,2.548643351E-1
1.899770271E1,2.775011659E-1,-1.757684946E-1,2.245043069E-1
1.901788468E1,1.182442605E-1,-1.075916290E-1,1.541969180E-1
1.903806823E1,9.108003974E-2,7.989477366E-2,9.321057238E-3
1.905825343E1,1.422126889E-1,4.079959691E-1,-2.500706315E-1
1.907844041E1,1.794969290E-1,4.356928170E-1,-4.721781015E-1
1.909862916E1,1.528653353E-1,8.522109129E-3,-5.328981280E-1
1.911881958E1,2.663159184E-2,-4.671181142E-1,-4.055991173E-1
1.913901146E1,-1.731053442E-1,-7.115961313E-1,-2.458095849E-1
1.915920468E1,-3.339601457E-1,-7.451519370E-1,-1.179779470E-1
1.917939896E1,-1.635179669E-1,-5.241097212E-1,4.713791609E-2
1.919959406E1,6.391581893E-2,9.906952083E-2,5.992107838E-2
1.921978968E1,4.793686420E-2,4.239749312E-1,-9.347688407E-2
1.923998552E1,9.480846673E-2,5.416865349E-1,-2.245043069E-1
1.926017968E1,4.383559823E-1,7.472824454E-1,-4.237086177E-1
1.928036823E1,9.752488732E-1,7.499455810E-1,-7.448856235E-1
1.930055135E1,1.333710074E0,5.699160323E-2,-9.531446695E-1
1.932073489E1,1.114798427E0,-1.057806849E0,-1.216797352E0
1.934091896E1,7.675224543E-1,-1.553686976E0,-1.307344794E0
1.936110375E1,5.395560265E-1,-9.390298724E-1,-9.265130758E-1
1.938128937E1,4.836297035E-1,4.633896798E-2,-3.054643571E-1
1.940147593E1,5.336970687E-1,1.773663908E-1,1.728390306E-1
1.942166343E1,5.145223141E-1,2.183790505E-1,2.506032586E-1
1.944185187E1,4.442149401E-1,2.748380303E-1,2.404832691E-1
1.946204125E1,3.281011879E-1,3.760380745E-1,4.961465299E-1
1.948223146E1,1.890842915E-1,3.856254518E-1,8.205193281E-1
1.950242239E1,1.496695429E-1,-2.327601016E-1,9.307740927E-1
1.952261396E1,4.261054471E-2,-5.427518487E-1,9.941573143E-1
1.954280604E1,-1.613874435E-1,-3.845601678E-1,1.106542587E0
1.956299843E1,-3.392864764E-1,-1.368863732E-1,1.102281570E0
1.958319093E1,-4.687159956E-1,5.363602638E-1,9.046751261E-1
1.960339427E1,-6.103960872E-1,1.372059584E0,5.403549671E-1
1.962357270E1,-9.262467623E-1,1.310806870E0,2.948117256E-1
1.964375146E1,-1.133973122E0,4.665854871E-1,1.786979735E-1
1.966393093E1,-9.459540844E-1,-3.190464675E-1,-3.542001545E-2
1.968411146E1,-4.830970466E-1,-1.107874155E0,-1.973400861E-1
1.970429333E1,-1.262337416E-1,-1.289501667E0,-3.411506712E-1
1.972447677E1,-2.854906619E-1,-9.507477880E-1,-3.416832983E-1
1.974466187E1,-5.858950019E-1,-7.238466144E-1,-1.121189967E-1
1.976484875E1,-5.992107987E-1,-4.687159956E-1,1.206411049E-1
1.978503739E1,-3.499391079E-1,1.816274524E-1,2.687127590E-1
1.980522770E1,-1.326253265E-1,5.613939166E-1,5.392897129E-1
1.982541958E1,-2.024000883E-1,-3.302317113E-2,6.900244951E-1
1.984561281E1,-1.848232448E-1,-7.760445476E-1,5.813676119E-1
1.986580708E1,-8.468846232E-2,-9.065393806E-1,2.047969401E-1
1.988600218E1,-1.065263641E-3,-3.611243665E-1,-2.796317078E-2
1.990619781E1,2.716422379E-1,4.042675495E-1,-2.319611609E-1
1.992639364E1,1.320926845E-1,5.747097135E-1,-4.471444190E-1
1.994658854E1,-8.575372398E-2,9.283772707E-1,-4.828307331E-1
1.996677698E1,-1.592569202E-1,1.539838552E0,-5.898897648E-1
1.998696000E1,-1.741705984E-1,1.520131230E0,-4.695149362E-1
2.000714343E1,-4.154528081E-1,2.934801280E-1,-9.773793817E-2
2.002732750E1,-8.016108871E-1,-1.791240811E0,2.580601275E-1
2.004751229E1,-9.363667369E-1,-3.103645563E0,4.870918095E-1
2.006769791E1,-7.994803786E-1,-1.771000862E0,5.185170770E-1
2.008788448E1,-1.017326787E-1,3.004043400E-1,3.672496378E-1
2.010807198E1,4.830970466E-1,2.721748650E-1,3.523359597E-1
2.012826041E1,4.729770422E-1,-3.153180480E-1,2.894853950E-1
2.014844979E1,4.591286182E-1,-4.293012619E-1,1.728390306E-1
2.016864000E1,7.574024200E-1,6.657897681E-2,-3.648528084E-2
2.018883093E1,1.031707883E0,5.049349666E-1,-2.250369489E-1
2.020902250E1,1.010935187E0,4.617917836E-1,-2.788327634E-1
2.022921458E1,6.849645376E-1,-1.017326787E-1,-2.463422120E-1
2.024940698E1,1.235705838E-1,-5.709813237E-1,-2.053295672E-1
2.026959948E1,-2.753706574E-1,-4.964128435E-1,-3.368896246E-1
2.028980281E1,-2.205095738E-1,-9.086698890E-1,-4.093275666E-1
2.030998125E1,2.439453751E-1,-1.591503859E0,-2.585927546E-1
2.033016000E1,6.631265879E-1,-1.477520704E0,-2.143843025E-1
2.035033948E1,6.455497742E-1,-6.167876720E-1,-1.174453199E-1
2.037052000E1,4.149201810E-1,2.721748650E-1,-2.370211668E-2
2.039070187E1,4.937497079E-1,9.534109831E-1,-2.229064107E-1
2.041088531E1,1.197888970E0,9.310404062E-1,-7.044056058E-1
2.043107041E1,2.272207260E0,5.060002208E-2,-1.144359469E0
2.045125729E1,2.705236912E0,-8.735162020E-1,-1.288170099E0
2.047144593E1,2.402169466E0,-1.171257377E0,-1.368064880E0
2.049163625E1,1.810948133E0,-5.038697124E-1,-1.291898489E0
2.051182812E1,1.370994329E0,-1.161137372E-1,-8.040077090E-1
2.053202135E1,1.000282526E0,-3.179811835E-1,-1.739042848E-1
2.055221562E1,5.416865349E-1,-1.043958366E-1,4.391549230E-1
2.057241073E1,2.157158852E-1,8.415582776E-2,6.793718934E-1
2.059260635E1,-8.948214352E-2,2.055958807E-1,7.235803008E-1
2.061280218E1,-4.330296814E-1,1.251684725E-1,9.078709483E-1
2.063299687E1,-7.323687673E-1,1.464737505E-1,1.165132165E0
2.065318531E1,-9.853688478E-1,4.399538934E-1,1.310007930E0
2.067336833E1,-1.361406922E0,7.637940049E-1,1.209873199E0
2.069355177E1,-1.748630285E0,9.464867711E-1,9.270457029E-1
2.071373573E1,-1.835981846E0,1.237836361E0,6.479465961E-1
2.073392041E1,-1.582449198E0,1.956889272E0,4.018706977E-1
2.075410593E1,-1.277783751E0,2.544914722E0,1.014663652E-1
2.077429239E1,-1.065263629E0,2.354232550E0,-4.500738904E-2
2.079447979E1,-9.661940932E-1,1.115863681E0,7.723161485E-3
2.081466812E1,-7.078676820E-1,-9.384972453E-1,3.315632939E-1
2.083485739E1,3.941475451E-1,-1.449291229E0,7.267761230E-1
2.085504750E1,1.656484902E-1,-1.613874435E-1,5.297023654E-1
2.087523843E1,-8.239814043E-1,-1.129712105E0,-4.428833723E-1
2.089543000E1,-7.712509036E-1,-1.664474487E0,-7.539403439E-1
2.091562208E1,4.069307148E-1,-2.316948473E-1,4.713791609E-2
2.093581448E1,1.497228026E0,-7.568697929E-1,5.424855351E-1
2.095600708E1,1.112135291E0,-1.963813543E0,8.974846452E-2
2.097621052E1,4.745749533E-1,-4.452801943E-1,-4.743086398E-1
2.099638927E1,3.318296373E-1,9.555414915E-1,-6.644582152E-1
2.101656833E1,-9.635309577E-1,1.893506169E0,-2.687127590E-1
2.103674812E1,-1.891908169E0,1.923866153E0,2.639190555E-1
2.105692896E1,-1.948899865E0,1.193095326E0,5.898897648E-1
2.107711104E1,-1.633049130E0,-4.751075804E-1,9.254477620E-1
2.109729458E1,-8.335688114E-1,-1.517468095E0,8.215845823E-1
2.111747979E1,-1.006674170E-1,-9.246488214E-1,3.299654126E-1
2.113766666E1,2.822948620E-2,-6.087981462E-1,1.067926809E-1
2.115785520E1,9.640636295E-2,-8.964193463E-1,3.230412006E-1
2.117804541E1,3.355580568E-1,-8.697877526E-1,4.870918095E-1
2.119823708E1,3.739075363E-1,-7.158571482E-1,3.896201849E-1
2.121843000E1,2.008021921E-1,-6.604634523E-1,1.222390011E-1
2.123862396E1,4.495412707E-1,-1.800295562E-1,-1.435442716E-1
2.125881875E1,6.141244769E-1,2.828274965E-1,-2.916159332E-1
2.127901406E1,1.832253486E-1,4.569981098E-1,-2.681801319E-1
2.129920958E1,-1.416800618E-1,6.748445034E-1,-1.312937438E-1
2.131940468E1,-5.273054913E-2,9.763141274E-1,-3.994738683E-3
2.133959323E1,3.036001325E-2,1.270859480E0,-1.936116666E-1
2.135978166E1,-8.681898564E-2,1.099352121E0,-4.838960171E-1
2.137996468E1,-2.119874656E-1,1.184573174E0,-5.142560005E-1
2.140014812E1,-1.960085034E-1,1.963813543E0,-3.161169887E-1
2.142033208E1,-1.800295562E-1,2.691388607E0,-3.747064769E-1
2.144051677E1,-8.948214352E-2,3.224020481E0,-5.808349848E-1
2.146070229E1,7.669898123E-2,3.224020481E0,-9.147951603E-1
2.148088875E1,3.312969804E-1,2.563024282E0,-1.451155424E0
2.150107614E1,1.075916290E0,1.325187922E0,-1.847433448E0
2.152126448E1,2.573677063E0,2.801643312E-1,-1.730787158E0
2.154145375E1,2.792588711E0,-9.496825337E-1,-1.029843569E0
2.156164385E1,1.498293281E0,-1.035436273E0,8.788425475E-3
2.158183468E1,5.006738901E-1,-9.267793596E-2,-8.974846452E-2
2.160202614E1,3.126548827E-1,6.609960794E-1,-6.841655970E-1
2.162221812E1,4.527370334E-1,1.293230057E0,-7.811045647E-1
2.164241041E1,2.130527236E-2,1.255413175E0,-4.146538675E-1
2.166260291E1,-7.946866751E-1,1.791240811E0,1.792306006E-1
2.168280625E1,-1.322524786E0,2.067676783E0,5.201149583E-1
2.170298552E1,-1.718270302E0,1.548893332E0,7.539403439E-1
2.172316510E1,-2.036251545E0,7.616634965E-1,1.004809976E0
2.174334531E1,-2.104428291E0,-1.986716688E-1,1.112401605E0
2.176352646E1,-1.821068168E0,-6.934866309E-1,9.941573143E-1
2.178370885E1,-1.562209129E0,-2.194443047E-1,4.892223179E-1
2.180389271E1,-1.180312157E0,1.162202597E0,-1.254348010E-1
2.182407812E1,-4.106591344E-1,2.568350554E0,-5.451486707E-1
2.184426510E1,4.649875760E-1,1.983520865E0,-8.998814821E-1
2.186445364E1,8.378298283E-1,6.146571040E-1,-1.060203671E0
2.188464375E1,7.206508517E-1,-6.913561225E-1,-1.106009960E0
2.190483520E1,5.464802384E-1,-1.672996521E0,-8.295740485E-1
2.192502791E1,3.057306707E-1,-1.321459532E0,-5.659213066E-1
2.194522166E1,-5.379581451E-2,4.287686050E-1,-1.872200817E-1
2.196541614E1,-2.897517085E-1,2.426137924E0,4.050664902E-1
2.198561114E1,-4.234423041E-1,2.905506611E0,3.496727943E-1
2.200580635E1,-8.548740745E-1,1.238901615E0,-4.394212365E-2
2.202600073E1,-1.456215382E0,-1.007206798E0,-6.623276472E-1
2.204618916E1,-1.635179639E0,5.198486447E-1,-5.850960612E-1
2.206637218E1,-1.523326993E0,2.153430462E0,-4.087949097E-1
2.208655562E1,-1.790708184E0,1.999499798E0,-3.928159773E-1
2.210673958E1,-2.175801039E0,8.250467181E-1,-6.311687082E-2
2.212692427E1,-2.256228447E0,-3.957454562E-1,5.478118062E-1
2.214710979E1,-1.915344000E0,-3.153180480E-1,1.098020554E0
2.216729625E1,-1.470596433E0,3.462106884E-1,1.160871029E0
2.218748364E1,-1.235173225E0,7.850993276E-1,8.375635147E-1
2.220767198E1,-1.136103630E0,9.539436102E-1,7.928224802E-1
2.222786125E1,-1.376320601E0,7.126613855E-1,7.667235136E-1
2.224805135E1,-1.817339778E0,8.202529699E-2,7.544729710E-1
2.226824218E1,-1.752891302E0,2.796317041E-1,7.661908865E-1
2.228843364E1,-1.313470125E0,6.301034689E-1,4.695149362E-1
2.230862562E1,-9.161267281E-1,2.098569423E-1,5.406212807E-2
2.232881791E1,-3.195791040E-3,-1.603221744E-1,-1.179779470E-1
2.234901041E1,1.075383663E0,1.704421788E-1,-3.488738462E-2
2.236921375E1,1.143560529E0,1.030642629E0,-1.078579426E-1
2.238939281E1,5.715139508E-1,1.788577676E0,-1.515337527E-1
2.240957218E1,1.272990108E-1,2.077796698E0,-1.669800729E-1
2.242975229E1,2.487390637E-1,2.384592772E0,-2.937464416E-1
2.244993333E1,7.163897753E-1,2.451704264E0,-4.322307110E-1
2.247011562E1,1.570198655E0,2.020805120E0,-6.633929610E-1
2.249029937E1,2.757434845E0,1.416267991E0,-8.663256764E-1
2.251048468E1,2.759565353E0,1.030109882E0,-1.001614094E0
2.253067166E1,1.620798588E0,1.412006974E0,-1.317997456E0
2.255086031E1,9.853688478E-1,1.415735364E0,-1.432513237E0
2.257105052E1,1.086036325E0,8.213182688E-1,-1.422925949E0
2.259124218E1,-5.645897239E-2,-1.770468116E0,-8.966856599E-1
2.261143510E1,1.720400751E-1,-2.969954967E0,-1.556083918E0
2.263162906E1,1.126516342E0,3.984618664E0,-3.273288965E0
2.265182375E1,-4.633896947E-1,6.808099747E0,-2.455166340E0
2.267201885E1,-2.202432632E0,4.415517807E0,-1.414403796E0
2.269221416E1,-2.378201008E0,3.061035156E0,-1.151283622E0
2.271240791E1,-2.514554739E0,3.480748892E0,-8.375635147E-1
2.273259635E1,-2.780338049E0,3.983553410E0,-4.215780795E-1
2.275277937E1,-2.826677084E0,3.423757315E0,-8.788425475E-3
2.277296281E1,-2.508695841E0,2.127864122E0,2.569948435E-1
2.279314677E1,-2.010152578E0,8.447540402E-1,4.812328517E-1
2.281333146E1,-1.587775469E0,1.491369158E-1,5.371592045E-1
2.283351698E1,-8.468846083E-1,9.225183129E-1,5.563339591E-1
2.285370343E1,-1.278316379E-1,2.807502270E0,5.771065950E-1
2.287389083E1,-9.747162461E-1,2.612026453E0,-7.989477599E-4
2.289407916E1,-7.387603521E-1,1.805089235E0,-5.403549671E-1
2.291426843E1,1.597895473E-1,1.061535239E0,-9.057404399E-1
2.293445854E1,8.894951642E-2,3.653854430E-1,-1.526789069E0
2.295464937E1,-1.183507919E0,-3.978759646E-1,-1.488972306E0
2.297484083E1,-1.367265940E0,-3.089264631E-1,-3.129211962E-1
2.299503281E1,-7.041392922E-1,7.456845641E-1,6.897582114E-2
2.301522510E1,-6.002760530E-1,1.702291250E0,-2.825611830E-1
2.303541760E1,-4.825644195E-1,2.583796978E0,-4.221107066E-1
2.305562093E1,-3.563306928E-1,2.522011757E0,-2.106558830E-1
2.307579989E1,-5.741770864E-1,1.196823716E0,4.391549230E-1
2.309597916E1,-1.235173225E0,-4.559328258E-1,1.218395233E0
2.311615916E1,-2.067144156E0,-1.103080511E0,1.578454375E0
2.313634020E1,-2.580068588E0,6.354297400E-1,8.258456588E-1
2.315652250E1,-2.270609379E0,3.845601797E0,-3.326285779E-1
2.317670625E1,-1.237836361E0,7.866439342E0,-6.697844863E-1
2.319689156E1,-1.206943750E0,6.299969196E0,-4.125233591E-1
2.321707854E1,-1.130244732E0,-1.086568907E-1,-1.067926809E-1
2.323726718E1,1.491369121E-2,-3.169159412E0,9.321057238E-3
2.325745739E1,5.363602638E-1,-2.985401392E0,1.019989923E-1
2.327764906E1,3.994738758E-1,-1.451954365E0,1.169126853E-1
2.329784198E1,-5.219791830E-2,1.193095297E-1,1.541969180E-1
2.331803593E1,-1.104678392E0,1.063665748E0,3.693801761E-1
2.333823062E1,-2.044240952E0,1.269261599E0,4.769718051E-1
2.335842573E1,-1.638908148E0,1.250619531E0,3.715106845E-1
2.337862104E1,-4.308991432E-1,4.868254960E-1,2.415485233E-1
2.339881489E1,3.664506972E-1,-1.933453530E-1,2.157158963E-2
2.341900333E1,3.547327816E-1,2.130527347E-1,-2.186453640E-1
2.343918635E1,8.681898564E-2,8.729835749E-1,-4.098601937E-1
2.345936979E1,-2.087916732E-1,1.169659495E0,-5.137233734E-1
2.347955375E1,-4.724444151E-1,1.040229917E0,-6.777740121E-1
2.349973843E1,-3.691138625E-1,6.322339773E-1,-7.230476737E-1
2.351992396E1,2.274337858E-1,2.418148518E-1,-7.651256323E-1
2.354011041E1,1.002413034E0,3.781685978E-2,-8.753803968E-1
2.356029781E1,1.466868043E0,8.788424730E-2,-9.867004752E-1
2.358048614E1,1.774196625E0,5.890907645E-1,-1.041561484E0
2.360067541E1,2.512424231E0,1.613341808E0,-1.008538365E0
2.362086552E1,2.838927507E0,1.854091406E0,-6.836329699E-1
2.364105635E1,2.511358976E0,6.317013502E-1,-1.169126853E-1
2.366124781E1,1.847167134E0,-1.328383803E0,2.292979956E-1
2.368143979E1,1.151017308E0,-1.157941580E0,-1.659148186E-1
2.370163208E1,1.057806849E0,4.404865205E-1,-1.091628909E0
2.372182458E1,1.127048969E0,6.689855456E-1,-2.091911554E0
2.374202791E1,8.282424808E-1,3.893538713E-1,-2.562225342E0
2.376220666E1,2.972085476E-1,1.066328883E0,-2.013082027E0
2.378238573E1,-8.628635854E-2,1.528120637E0,-1.098020554E0
2.380256552E1,-1.944106072E-1,1.155811071E0,-3.869570196E-1
2.382274635E1,-1.826927215E-1,7.914909124E-1,-1.890842989E-2
2.384292843E1,-2.215748429E-1,7.323687673E-1,1.701758653E-1
2.386311198E1,-3.238401413E-1,1.011467814E0,2.985401452E-1
2.388329718E1,-4.878907502E-1,1.314535379E0,3.789675534E-1
2.390348406E1,-8.831035495E-1,1.426388025E0,4.950812757E-1
2.392367260E1,-1.406147957E0,1.388571143E0,5.499423742E-1
2.394386270E1,-1.746499777E0,1.267131090E0,3.981422782E-1
2.396405427E1,-1.810415506E0,1.091895223E0,1.331579522E-3
2.398424708E1,-1.655952334E0,6.386255622E-1,-4.269044101E-1
2.400444093E1,-1.568068027E0,-2.865559161E-1,-4.902876019E-1
2.402463562E1,-1.431714296E0,-6.311687231E-1,-1.227716357E-1
2.404483083E1,-1.097221494E0,-4.772381186E-1,5.938844755E-2
2.406502625E1,-8.847014308E-1,-3.014696240E-1,3.861580789E-2
2.408522156E1,-8.958867192E-1,-4.048001766E-2,1.536642760E-1
2.410541000E1,-7.968171835E-1,-1.390169114E-1,2.303632647E-1
2.412559302E1,-3.190464675E-1,-9.459540844E-1,2.079927325E-1
2.414577646E1,5.358276367E-1,-1.202682614E0,2.292979956E-1
2.416596041E1,1.881255627E0,-6.780403256E-1,6.631266326E-2
2.418614510E1,2.459693670E0,-4.277033508E-1,-2.681801319E-1
2.420633062E1,1.754489183E0,-1.864743948E0,-1.176849961E0
2.422651708E1,7.126613855E-1,-1.943040848E0,-1.606683850E0
2.424670448E1,-4.649875760E-1,-5.912213027E-2,-1.316932201E0
2.426689281E1,-1.209606886E0,1.195758462E0,-5.573992133E-1
2.428708208E1,-1.186703682E0,9.022783041E-1,2.985401452E-1
2.430727218E1,-6.684529185E-1,-2.886864543E-1,4.146538675E-1
2.432746302E1,-5.693834424E-1,-6.764423847E-2,3.677822649E-1
2.434765448E1,-8.202530146E-1,3.169159293E-1,3.608580530E-1
2.436784646E1,-9.416930676E-1,1.954758763E-1,2.745717168E-1
2.438803875E1,-8.111982346E-1,3.355580568E-2,3.821633458E-1
2.440823125E1,-6.146571040E-1,-5.539371073E-2,5.382244587E-1
2.442843458E1,-5.193160176E-1,-2.583264410E-1,5.755086541E-1
2.444861333E1,-4.367581010E-1,-2.753706574E-1,4.460791349E-1
2.446879239E1,-1.864211410E-1,-1.331579536E-1,4.114580750E-1
2.448897218E1,1.640505940E-1,-5.166528746E-2,3.432812095E-1
2.450915302E1,4.820317924E-1,-5.486107618E-2,2.708432674E-1
2.452933510E1,6.183855534E-1,-6.551371515E-2,2.308958918E-1
2.454951864E1,4.852275848E-1,-3.360906839E-1,1.675127149E-1
2.456970385E1,1.842906028E-1,-5.198486447E-1,1.467400640E-1
2.458989073E1,-1.390169114E-1,8.522108942E-2,1.424790174E-1
2.461007927E1,-3.595264852E-1,8.021435142E-1,1.499358565E-1
2.463026937E1,-4.362254739E-1,5.986781716E-1,1.531316489E-1
2.465046093E1,-2.801643312E-1,2.711096108E-1,1.669800729E-1
2.467065375E1,-7.829687744E-2,4.101265073E-1,-1.091895252E-2
2.469084760E1,2.013348341E-1,6.444845200E-1,-2.292979956E-1
2.471104229E1,9.368993640E-1,5.065328479E-1,-5.270391703E-1
2.473123750E1,2.020272493E0,-4.713791609E-1,-1.245559454E0
2.475143291E1,2.242912531E0,-1.288436413E0,-1.908153534E0
2.477162291E1,1.856221914E0,-9.917604327E-1,-1.762212396E0
2.479181302E1,1.607482791E0,-6.487455368E-1,-1.088433146E0
2.481201396E1,1.407745957E0,-9.502151608E-1,-4.764391780E-1
2.483219354E1,1.268196344E0,-1.138766885E0,-4.767054692E-2
2.485237343E1,1.141962647E0,-6.066676378E-1,2.873548567E-1
2.487255396E1,9.741836190E-1,-1.901495606E-1,3.986749053E-1
2.489273541E1,7.563371658E-1,6.018739566E-2,3.113232851E-1
2.491291802E1,5.166528821E-1,5.400886536E-1,5.089297295E-1
2.493310198E1,1.336905807E-1,1.243162632E0,8.242477179E-1
2.495328739E1,-3.318296373E-1,1.456748009E0,9.920267463E-1
2.497347437E1,-1.028512001E0,8.724509478E-1,1.062866807E0
2.499366291E1,-1.942508221E0,1.171789989E-1,1.049551010E0
2.501385291E1,-2.311089516E0,2.913496196E-1,7.315698266E-1
2.503404427E1,-2.203497887E0,6.125265956E-1,2.452769578E-1
2.505423677E1,-1.727324963E0,8.857667446E-1,-1.568600684E-1
2.507443021E1,-1.277783751E0,8.809730411E-1,-4.567317963E-1
2.509462437E1,-1.155811071E0,5.550023317E-1,-6.255760789E-1
2.511481906E1,-1.236771107E0,2.743053734E-1,-6.298371553E-1
2.513501396E1,-9.715204239E-1,1.399223804E0,-2.234390527E-1
2.515520854E1,-6.748445034E-1,2.229064226E0,1.723063886E-1
2.517539687E1,-6.556697488E-1,2.817622423E-1,3.230412006E-1
2.519557979E1,3.201117218E-1,-2.204563141E0,5.994771123E-1
2.521576312E1,1.024250984E0,-2.770750761E0,4.780370593E-1
2.523594708E1,6.785729527E-1,-1.063133121E0,1.856221855E-1
2.525613177E1,5.155876279E-1,6.317013502E-1,-1.382179558E-1
2.527631729E1,3.078611791E-1,2.886864543E-1,-4.189149141E-1
2.529650375E1,-2.061285079E-1,9.981520176E-1,-2.234390527E-1
2.531669114E1,-7.392929792E-1,1.243695259E0,-5.139897019E-2
2.533687948E1,-1.332644820E0,9.491499066E-1,2.894853950E-1
2.535706875E1,-1.428518534E0,7.099981904E-1,5.472791791E-1
2.537725885E1,-1.226651073E0,2.130527282E-3,6.074665785E-1
2.539744968E1,-8.719182611E-1,-7.973498106E-1,4.311654568E-1
2.541764114E1,-3.739075363E-1,-1.207476377E0,1.222390011E-1
2.543783312E1,8.149266988E-2,-7.217161059E-1,-7.057371736E-2
2.545802541E1,3.217096329E-1,-1.459411234E-1,-8.708529919E-2
2.547821791E1,3.733749092E-1,-2.913496196E-1,-7.723161485E-3
2.549842125E1,4.580633640E-1,-8.000130057E-1,4.500738904E-2
2.551860021E1,6.471476555E-1,-9.656614661E-1,1.057274193E-1
2.553877948E1,8.074698448E-1,-7.483476996E-1,1.669800729E-1
2.555895948E1,8.532761931E-1,-3.451454341E-1,1.483379602E-1
2.557914052E1,5.486107469E-1,-1.416800618E-1,3.275685757E-2
2.559932281E1,-3.701791167E-1,-1.040229917E0,-8.175898343E-2
2.561950656E1,-7.579351068E-1,-2.004293442E0,-1.142495275E-1
2.563969187E1,-2.141179889E-1,-1.818937659E0,-6.737792492E-2
2.565987885E1,4.138549268E-1,-8.958867192E-1,-8.655267209E-2
2.568006750E1,5.060002208E-1,4.793686420E-2,-1.525990218E-1
2.570025771E1,7.073350549E-1,3.739075363E-1,-8.375635147E-1
2.572044937E1,1.599493384E0,1.225053146E-2,-1.519332290E0
2.574064229E1,2.175268412E0,-7.068024278E-1,-1.900696635E0
2.576083625E1,1.970737696E0,-8.655267358E-1,-1.876195550E0
2.578103093E1,1.595232248E0,-1.029044628E0,-1.341965914E0
2.580122604E1,1.287371159E0,-1.278849006E0,-5.664539337E-1
2.582142135E1,9.645962119E-1,-5.305013061E-1,-6.897582114E-2
2.584161520E1,6.769750714E-1,-1.209074259E-1,2.735064328E-1
2.586180364E1,4.239749312E-1,9.534109384E-2,4.886896908E-1
2.588198666E1,1.581916511E-1,5.028044581E-1,5.701823831E-1
2.590217010E1,-1.544632316E-1,6.098634601E-1,8.583361506E-1
2.592235406E1,-4.351601899E-1,6.476802826E-1,1.241298437E0
2.594253875E1,-6.817687154E-1,9.161267281E-1,1.317464828E0
2.596272427E1,-1.013065696E0,1.106276274E0,1.038365722E0
2.598291073E1,-1.431714296E0,1.023185730E0,7.006771564E-1
2.600309812E1,-1.628788114E0,1.064731002E0,4.663191736E-1
2.602328646E1,-1.348623753E0,1.499891162E0,1.941442937E-1
2.604347573E1,-8.341014385E-1,1.856221914E0,-5.885581672E-2
2.606366583E1,-5.438171029E-1,1.222390056E0,-3.701791167E-2
2.608385666E1,-5.310339332E-1,-3.057306707E-1,1.446095407E-1
2.610404812E1,-1.528653353E-1,-1.644234419E0,2.889527678E-1
2.612424010E1,2.689790726E-1,-2.133723021E0,-6.125265732E-3
2.614443239E1,2.769685537E-2,-1.617602825E0,-3.933486044E-1
2.616462489E1,-4.554001987E-1,8.681898564E-2,-4.199801981E-1
2.618482823E1,-7.004108429E-1,1.071655273E0,-1.019989923E-1
2.620500718E1,-7.057371736E-1,1.188834190E0,2.788327634E-1
2.622518646E1,-3.110569715E-1,3.318296373E-1,6.309024096E-1
2.624536646E1,1.800295562E-1,-1.073253155E0,7.395592928E-1
2.626554750E1,1.315600574E-1,-1.242097378E0,2.916159332E-1
2.628572979E1,2.822948620E-2,-5.166528746E-2,-7.270424068E-2
2.630591354E1,3.536675274E-1,3.952127993E-1,-4.021370411E-2
2.632609885E1,6.657897681E-2,6.615287066E-1,1.504684836E-1
2.634628583E1,-6.498108506E-1,1.514804840E0,1.147821546E-1
2.636647448E1,-1.157408953E0,1.620798588E0,1.195758432E-1
2.638666468E1,-1.356613278E0,1.233575344E0,7.163897902E-2
2.640685635E1,-1.235173225E0,2.668485343E-1,2.303632647E-1
2.642704927E1,-8.527435660E-1,-8.394277692E-1,3.427485824E-1
2.644724323E1,-2.828274965E-1,-1.582449198E0,2.388853729E-1
2.646743791E1,2.210422009E-1,-1.471129060E0,-2.929474926E-3
2.648763312E1,3.334275186E-1,-9.544762373E-1,-4.873581231E-2
2.650782854E1,2.008021921E-1,-5.619265437E-1,1.414137483E-1
2.652802291E1,1.406148076E-1,-4.660528302E-1,2.351569533E-1
2.654821135E1,-7.456845790E-2,-1.655952334E0,1.249021590E-1
2.656839437E1,-6.711161137E-2,-7.211834788E-1,-6.844318658E-2
2.658857781E1,4.532696903E-1,6.077328920E-1,-2.330264151E-1
2.660876187E1,8.500803709E-1,1.079112053E0,-1.403484792E-1
2.662894666E1,7.291729450E-1,1.503619671E0,1.856221855E-1
2.664913229E1,3.952127993E-1,1.791773438E0,4.093275666E-1
2.666931885E1,-9.001477808E-2,1.437573314E0,4.322307110E-1
2.668950635E1,-2.311622053E-1,6.418213248E-1,1.145158429E-2
2.670969479E1,5.592634082E-1,1.225053146E-2,-6.175866127E-1
2.672988416E1,1.799762964E0,-1.800295562E-1,-1.294561625E0
2.675007437E1,2.624276876E0,-2.822948620E-2,-1.549692273E0
2.677026531E1,2.672746420E0,-1.603221744E-1,-1.307344794E0
2.679045687E1,2.287121058E0,-7.371624112E-1,-8.956204057E-1
2.681064896E1,1.632516503E0,-6.317013502E-1,-6.617950201E-1
2.683084135E1,9.006804228E-1,-2.828274965E-1,-5.962813497E-1
2.685103396E1,5.123918056E-1,-2.391516864E-1,-5.217128396E-1
2.687123739E1,3.078611791E-1,2.162485123E-1,-1.637842804E-1
2.689141604E1,-5.912213027E-2,2.796317041E-1,4.034686089E-1
2.691159500E1,-5.699160695E-1,-1.294295341E-1,7.044056058E-1
2.693177468E1,-1.024783611E0,-6.167876720E-1,9.515467286E-1
2.695195541E1,-1.260739565E0,-6.375603080E-1,1.051681519E0
2.697213750E1,-1.296425819E0,2.343579978E-1,8.551403880E-1
2.699232114E1,-1.326785922E0,1.547828078E0,6.165213585E-1
2.701250646E1,-1.603221774E0,2.009619951E0,5.515402555E-1
2.703269343E1,-1.855156660E0,1.128114223E0,4.535360038E-1
2.705288208E1,-1.351286888E0,6.263750196E-1,2.085253596E-1
2.707307239E1,-5.741770864E-1,2.034653574E-1,2.103895694E-2
2.709326416E1,-5.699160323E-2,5.006739125E-2,-2.117211521E-1
2.711345729E1,8.309056610E-2,-3.941475600E-2,-3.581948876E-1
2.713365146E1,8.841688186E-2,-5.028044581E-1,-3.832286000E-1
2.715384646E1,1.784316599E-1,-8.330361843E-1,-2.767022252E-1
2.717404198E1,2.700443268E-1,-8.815056682E-1,-8.761793375E-2
2.719423771E1,1.821600795E-1,-1.136103630E0,3.488738462E-2
2.721443250E1,9.853688627E-2,-8.617982864E-1,1.611211300E-1
2.723462104E1,2.609895915E-2,5.539371073E-2,4.103928208E-1
2.725480416E1,-5.006739125E-2,1.507348120E-1,5.584644675E-1
2.727498770E1,-2.806969583E-1,-2.093243003E-1,1.302284747E-1
2.729517177E1,-6.077328920E-1,-5.193160176E-1,-4.902876019E-1
2.731535656E1,-2.876211889E-2,-5.257076025E-1,-5.685844421E-1
2.733554218E1,7.153245211E-1,2.087916732E-1,-1.701758653E-1
2.735572875E1,3.307643533E-1,7.952193022E-1,6.737792492E-2
2.737591625E1,-4.580633715E-2,9.139962196E-1,2.181127369E-1
2.739610468E1,-9.480846673E-2,4.873581231E-1,4.657865167E-1
2.741629406E1,-6.072002649E-2,-2.897517085E-1,7.150582075E-1
2.743648427E1,5.060002208E-2,-1.530251265E0,9.510141015E-1
2.745667521E1,2.684464455E-1,-2.530533791E0,8.482161760E-1
2.747686677E1,2.561959028E-1,-2.798980236E0,3.289001584E-1
2.749705885E1,2.444780022E-1,-2.268478870E0,7.483477145E-2
2.751725125E1,4.250401855E-1,-1.238368988E0,1.339569092E-1
2.753744385E1,4.383559823E-1,-4.388886094E-1,1.360874325E-1
2.755764729E1,1.688442826E-1,-1.720400751E-1,-1.331579522E-3
2.757782656E1,1.656484902E-1,1.720400751E-1,-1.158474237E-1
2.759800614E1,2.125200927E-1,2.668485343E-1,-3.587275445E-1
2.761818635E1,4.127896726E-1,-1.667137593E-1,-6.862961054E-1
2.763836750E1,1.214933157E0,-4.074633420E-1,-8.636624813E-1
2.765854989E1,2.120407343E0,-6.727139950E-1,-1.283908963E0
2.767873375E1,2.224270582E0,-1.170192122E0,-1.840509295E0
2.769891916E1,1.390701652E0,-6.364950538E-1,-2.247972488E0
2.771910625E1,6.988129616E-1,7.206508517E-1,-2.225602150E0
2.773929500E1,4.500738978E-1,5.294360518E-1,-1.311073184E0
2.775948531E1,7.403582335E-2,1.065263618E-2,-3.629885912E-1
2.777967708E1,-2.466085255E-1,5.161202550E-1,1.446095407E-1
2.779987010E1,-4.569981098E-1,9.113330245E-1,5.083971024E-1
2.782006416E1,-6.082655191E-1,8.069372177E-1,6.079992056E-1
2.784025896E1,-8.293077350E-1,3.930822909E-1,7.523424625E-1
2.786045416E1,-1.105743647E0,2.902843356E-1,8.327698708E-1
2.788064958E1,-1.316133261E0,7.707182169E-1,8.466182947E-1
2.790084375E1,-1.501489043E0,1.515337586E0,9.190561771E-1
2.792103229E1,-1.790175557E0,2.034121037E0,9.073383212E-1
2.794121541E1,-1.975531459E0,2.177931547E0,8.210519552E-1
2.796139896E1,-1.527588010E0,2.556100130E0,5.547360182E-1
2.798158302E1,-1.031175256E0,3.439203739E0,-4.074633494E-2
2.800176781E1,-1.311339498E0,3.336405754E0,-6.820350289E-1
2.802195343E1,-1.548360705E0,1.363004804E0,-8.711193204E-1
2.804214000E1,-2.700443268E-1,-5.358276367E-1,-3.491401672E-1
2.806232750E1,7.201182246E-1,-1.596830249E0,1.259674281E-1
2.808251593E1,6.902908683E-1,-2.031457663E0,1.137168929E-1
2.810270531E1,6.151897311E-1,-1.387505889E0,2.796317078E-2
2.812289562E1,5.581981540E-1,-1.091895252E-1,1.414137483E-1
2.814308666E1,3.621896356E-2,8.522109389E-1,2.894853950E-1
2.816327833E1,-7.084003091E-1,1.717737675E0,4.540686309E-1
2.818347052E1,-1.167528987E0,2.348373652E0,3.944138587E-1
2.820366302E1,-1.242630005E0,1.944106102E0,2.942790687E-1
2.822385573E1,-6.966823936E-1,3.462106735E-2,2.234390527E-1
2.824405927E1,-4.159854650E-1,-8.367645741E-1,-9.081372619E-2
2.826423823E1,-6.364950538E-1,-4.878907502E-1,-4.972118139E-1
2.828441750E1,-2.759032845E-1,-9.438235760E-1,-6.564686894E-1
2.830459750E1,3.259706795E-1,8.468846232E-2,-3.496727943E-1
2.832477854E1,3.062632978E-1,1.179779530E0,-5.566002429E-2
2.834496083E1,-1.747032404E-1,1.341166973E0,-2.527337968E-1
2.836514458E1,-3.973433375E-1,1.045556307E0,-4.530033767E-1
2.838532989E1,-4.314317703E-1,2.679138184E-1,-4.796349406E-1
2.840551687E1,-3.771033287E-1,-6.700508595E-1,-2.655169666E-1
2.842570552E1,-4.186486006E-1,-1.442366958E0,1.494032294E-1
2.844589573E1,-9.214530587E-1,-1.294295311E0,4.466117918E-1
2.846608739E1,-1.464204907E0,4.000065029E-1,6.372939944E-1
2.848628031E1,-1.325187922E0,1.288436413E0,8.881635666E-1
2.850647427E1,-4.942823350E-1,5.928192139E-1,9.765804410E-1
2.852666906E1,3.312969804E-1,6.498108059E-2,9.574056864E-1
2.854686437E1,4.958802164E-1,3.824296594E-1,8.263782859E-1
2.856705989E1,-8.309056610E-2,7.105308771E-1,6.159886718E-1
2.858725000E1,-5.400886536E-1,1.562209129E0,3.581948876E-1
2.860744021E1,-2.407495826E-1,2.087383986E0,-2.902843431E-2
2.862764125E1,8.596677780E-1,2.057556629E0,-6.894918680E-1
2.864782146E1,1.616004944E0,1.987782001E0,-1.502288103E0
2.866800198E1,1.313470125E0,1.068992019E0,-2.374738932E0
2.868818312E1,4.569981098E-1,-6.109287143E-1,-3.256777287E0
2.870836510E1,-3.099917173E-1,-1.582449198E0,-3.373956203E0
2.872854823E1,6.620613337E-1,1.384842694E-1,-2.576073885E0
2.874873260E1,7.648593187E-1,3.211769760E-1,-1.515603900E0
2.876891833E1,2.924148738E-1,1.651691318E0,-6.404897571E-1
2.878910552E1,-1.880190372E-1,3.872766018E0,-7.856319100E-2
2.880929416E1,1.976063997E-1,3.553719521E0,-3.677822649E-1
2.882948416E1,-1.810948178E-2,2.794719219E0,-1.019191027E0
2.884967541E1,-4.138549268E-1,3.761978626E0,-1.679654479E0
2.886986781E1,-7.755119205E-1,4.667985439E0,-1.890576601E0
2.889006114E1,-1.278849006E0,4.518315792E0,-1.642370224E0
2.891025521E1,-2.049567223E0,3.696997404E0,-9.797762632E-1
2.893044968E1,-2.763826609E0,1.970737696E0,-1.105211005E-1
2.895064437E1,-3.245325565E0,-3.781685978E-2,7.555382252E-1
2.897083364E1,-3.385940552E0,-4.708465338E-1,1.368064880E0
2.899102302E1,-2.291914701E0,1.767804980E0,1.324921608E0
2.901121250E1,5.486107618E-2,5.113265514E0,6.631266326E-2
2.903140208E1,-4.490086138E-1,3.554252148E0,-1.071921587E0
2.905160250E1,-1.069524646E0,1.887647152E0,-8.897614479E-1
2.907178208E1,-1.259141564E0,9.560741186E-1,-2.596580088E-1
2.909196198E1,-1.363537431E0,4.101264849E-2,-3.808317333E-2
2.911214250E1,-1.499358535E0,5.464802384E-1,-1.051947847E-1
2.913232396E1,-1.185638428E0,1.957421899E0,5.158539414E-1
2.915250656E1,-8.937562108E-1,1.169659495E0,8.972182870E-1
2.917269052E1,-1.345960617E0,1.287371159E0,-7.590003312E-2
2.919287604E1,-1.358743787E0,2.167811394E0,-3.496727943E-1
2.921306312E1,-1.222922683E0,2.436257839E0,-2.282327414E-1
2.923325177E1,-1.314002752E0,2.237586260E0,7.590003312E-2
2.925344198E1,-1.714541793E0,8.404930234E-1,4.892223179E-1
2.927363354E1,-2.369678974E0,-7.014760971E-1,5.632581711E-1
2.929382635E1,-2.054360867E0,-3.568633199E-1,5.701823831E-1
2.931402021E1,-8.218508959E-1,5.294360518E-1,5.281044245E-1
2.933421479E1,-1.635179669E-1,2.316948473E-1,1.973400861E-1
2.935440989E1,-2.157158852E-1,2.157158852E-1,1.755021811E-1
2.937460520E1,-6.279729009E-1,7.707182169E-1,2.841590643E-1
2.939479979E1,-1.141962647E0,1.024783611E0,4.040012360E-1
2.941498833E1,-1.336905837E0,9.486172795E-1,4.402202070E-1
2.943517146E1,-9.374319911E-1,1.111602664E0,3.640538454E-1
2.945535500E1,-5.289034247E-1,1.037034154E0,1.430116445E-1
2.947553916E1,-4.820317924E-1,3.733749092E-1,-6.844318658E-2
2.949572406E1,-7.787077427E-1,-5.432844758E-1,-2.186453640E-1
2.951590979E1,-8.511456251E-1,-5.161202550E-1,-7.856319100E-2
2.953609646E1,-4.122570157E-1,6.157223582E-1,1.824263930E-1
2.955628406E1,1.848232448E-1,1.373657465E0,2.095906287E-1
2.957647260E1,8.532761931E-1,1.785914540E0,1.265000552E-1
2.959666208E1,1.242630005E0,2.737727642E0,-1.424790174E-1
2.961685239E1,1.215465784E0,3.826426983E0,-6.463487148E-1
2.963704343E1,8.777772188E-1,3.851993322E0,-1.019191027E0
2.965723510E1,7.483476996E-1,3.325752974E0,-1.253016353E0
2.967742729E1,8.149266839E-1,2.479401112E0,-1.330780625E0
2.969761979E1,5.693834424E-1,1.040229917E0,-1.095357299E0
2.971781239E1,3.307643533E-1,-2.870885432E-1,-1.214666843E0
2.973801583E1,4.607265294E-1,-3.142527640E-1,-1.704688191E0
2.975819458E1,4.974781275E-1,1.376320601E0,-1.727058649E0
2.977837364E1,1.677790284E-1,3.557980537E0,-1.353151083E0
2.979855343E1,-2.460758984E-1,5.037631989E0,-1.115064740E0
2.981873427E1,-5.603286624E-1,4.788360119E0,-1.584846020E0
2.983891646E1,-9.688572884E-1,3.941475391E0,-2.069540977E0
2.985910010E1,-1.397625923E0,3.491401672E0,-1.849563956E0
2.987928541E1,-1.629853368E0,3.029609680E0,-1.121988893E0
2.989947239E1,-1.611211300E0,2.645582199E0,-4.040012360E-1
2.991966104E1,-1.261272192E0,1.773663998E0,1.249021590E-1
2.993985135E1,-6.439518929E-1,7.131940126E-1,4.125233591E-1
2.996004312E1,-1.832253486E-1,4.490086138E-1,4.668518007E-1
2.998023625E1,-1.406148076E-1,2.631201148E-1,2.266348451E-1
3.000043041E1,-6.503434777E-1,-1.518000662E-1,-6.205160543E-2
3.002062541E1,-1.052480459E0,1.603221744E-1,-1.712411344E-1
3.004082093E1,-6.098634601E-1,1.235173225E0,-4.556665123E-1
3.006101666E1,1.587242782E-1,1.245825887E0,-9.552751780E-1
3.008121229E1,4.719117880E-1,-7.025413513E-1,-1.422393322E0
3.010140093E1,-1.017326787E-1,-2.127331495E0,-1.431980610E0
3.012158948E1,-1.638375521E0,-1.291632175E0,-7.704519033E-1
3.014177260E1,-2.333460093E0,2.609896064E-1,2.636527456E-2
3.016195614E1,-5.107939243E-1,-9.342362285E-1,-2.050632425E-2
3.018214031E1,3.717769980E-1,-1.155811027E-1,9.187898785E-2
3.020232520E1,-7.978824377E-1,2.424007416E0,6.862961054E-1
3.022251093E1,-1.090829968E0,2.906039238E0,1.306812167E0
3.024269760E1,-9.097351432E-1,2.381929398E0,1.429850101E0
3.026288521E1,-7.462171912E-1,1.935051441E0,1.228515267E0
3.028307375E1,-7.227813601E-1,8.953540921E-1,7.901592851E-1
3.030326323E1,-4.495412707E-1,-4.506065249E-1,-8.495477587E-2
3.032345354E1,-3.217096329E-1,-3.195790946E-1,-7.406245470E-1
3.034364458E1,-5.379581451E-1,3.701791167E-1,-4.737760127E-1
3.036383625E1,-4.649875760E-1,1.055676222E0,-1.518000662E-2
3.038402843E1,-2.812296152E-1,1.135038376E0,2.591253817E-1
3.040422093E1,-2.263685167E-1,7.621961236E-1,3.459443748E-1
3.042441364E1,-2.625874877E-1,2.940127552E-1,3.384875357E-1
3.044461718E1,-2.167811543E-1,-6.711161137E-2,1.925463974E-1
3.046479593E1,1.432779580E-1,-3.568633199E-1,-8.335687965E-2
3.048497500E1,4.127896726E-1,-4.138549268E-1,-1.680453420E-1
3.050515479E1,2.865559161E-1,2.663159184E-2,-3.755054250E-2
3.052533562E1,3.872233331E-1,3.707117438E-1,-3.275685757E-2
3.054551781E1,8.985498548E-1,2.002695650E-1,-2.527337968E-1
3.056570146E1,1.135038376E0,-4.809665382E-1,-4.977444410E-1
3.058588677E1,7.020087242E-1,-1.181377411E0,-4.743086398E-1
3.060607375E1,3.456780612E-1,-1.210139513E0,-1.829590350E-1
3.062626239E1,5.390233994E-1,-5.177181363E-1,1.195758432E-1
3.064645270E1,9.683246613E-1,-1.251684725E-1,1.478053331E-1
3.066664458E1,1.530251265E0,-6.689855456E-1,-3.661843836E-1
3.068683781E1,2.139581919E0,-1.502021790E0,-1.306812167E0
3.070703208E1,2.216280937E0,-1.252217412E0,-1.959818840E0
3.072722718E1,1.856221914E0,-4.005391300E-1,-1.902294517E0
3.074742281E1,1.364602685E0,-3.408843577E-1,-1.422393322E0
3.076761864E1,1.097221494E0,-4.463454783E-1,-9.361004233E-1
3.078781375E1,9.092025161E-1,-2.130527282E-3,-4.668518007E-1
3.080800239E1,6.247771382E-1,6.897581816E-1,7.749792933E-2
3.082819093E1,8.522108942E-2,8.580698371E-1,3.464770019E-1
3.084837406E1,-5.496760607E-1,6.002760530E-1,4.439486265E-1
3.086855760E1,-9.310404062E-1,3.744401634E-1,7.454182506E-1
3.088874177E1,-1.107874155E0,3.334275186E-1,1.115064740E0
3.090892666E1,-1.192030072E0,3.834949136E-1,1.292431116E0
3.092911239E1,-1.302284837E0,3.691138625E-1,1.118260503E0
3.094929906E1,-1.573394418E0,1.459411234E-1,8.151929975E-1
3.096948666E1,-1.924398780E0,5.060002208E-2,6.804371476E-1
3.098967520E1,-1.888712406E0,6.482129097E-1,5.078644156E-1
3.100986468E1,-1.380048990E0,1.499891162E0,2.580601275E-1
3.103005500E1,-9.001477957E-1,1.506282806E0,-1.898832470E-1
3.105024604E1,-9.752488732E-1,-8.149266988E-2,-7.432876825E-1
3.107043771E1,-9.491499066E-1,-1.644767046E0,-7.123950720E-1
3.109062989E1,-2.242379934E-1,-1.941975594E0,-2.000032514E-1
3.111082239E1,2.013348341E-1,-1.450889111E0,-9.853689000E-3
3.113101510E1,1.906821877E-1,-1.523326993E0,-9.187898785E-2
3.115121864E1,3.211769760E-1,-1.392299533E0,2.149169445E-1
3.117139760E1,7.169224024E-1,-7.009434700E-1,5.067991614E-1
3.119157687E1,9.203878045E-1,-1.810948178E-2,6.298371553E-1
3.121175687E1,7.430213690E-1,-1.390169114E-1,6.756434441E-1
3.123193791E1,5.134570599E-1,-4.825644195E-1,5.360939503E-1
3.125212020E1,2.242379934E-1,-1.043958366E-1,-1.099884734E-1
3.127230396E1,1.257011145E-1,-1.363537461E-1,-9.882983565E-1
3.129248937E1,-2.503369451E-1,-8.394277692E-1,-1.324921608E0
3.131267646E1,-8.037413955E-1,1.038632020E-1,-5.478118062E-1
3.133286520E1,-1.019457340E0,9.006804228E-1,-6.684529036E-2
3.135305552E1,-9.203878045E-1,5.044023395E-1,-1.145158429E-2
3.137324729E1,-4.255728126E-1,-1.139832065E-1,2.793653905E-1
3.139344031E1,3.036001325E-2,-3.707117438E-1,5.355613232E-1
3.141363437E1,1.432779580E-1,-5.475454926E-1,6.058686972E-1
3.143382927E1,4.527370632E-2,-6.386255622E-1,3.954791129E-1
3.145402468E1,8.042740822E-2,-4.223770201E-1,1.121189967E-1
3.147422031E1,3.925496638E-1,-2.870885432E-1,-8.761793375E-2
3.149441562E1,5.315665603E-1,-4.554001987E-1,-2.138516754E-1
3.151460427E1,4.612591565E-1,-7.137266397E-1,-2.351569533E-1
3.153478750E1,4.271707237E-1,-5.374255180E-1,-3.102580309E-1
3.155497114E1,2.988064587E-1,-5.645897388E-1,-4.093275666E-1
3.157515531E1,1.560611278E-1,-4.442149401E-1,-2.468748540E-1
3.159534021E1,-9.587372653E-3,1.683116555E-1,1.238368973E-1
3.161552593E1,-2.418148518E-1,6.620613337E-1,1.941442937E-1
3.163571260E1,-4.580633640E-1,1.049284697E0,8.122635633E-2
3.165590021E1,-6.460824013E-1,1.116396308E0,-6.311687082E-2
3.167608875E1,-6.572676897E-1,1.180844784E0,-1.776327193E-1
3.169627823E1,-3.526022732E-1,1.582981825E0,-2.553969622E-1
3.171646854E1,3.861580789E-1,1.628788114E0,-3.368896246E-1
3.173665958E1,1.543034434E0,1.013065696E0,-4.167844057E-1
3.175685125E1,2.518283129E0,4.367581010E-2,-4.902876019E-1
3.177704343E1,2.778740168E0,-8.580698371E-1,-6.426202655E-1
3.179723593E1,2.245575666E0,-1.071122646E0,-8.652604222E-1
3.181742864E1,1.457813263E0,-6.503434777E-1,-8.934898973E-1
3.183763218E1,1.088166833E0,-1.081242561E-1,-7.076013684E-1
3.185781104E1,1.016794205E0,2.854906619E-1,-5.121254921E-1
3.187799021E1,7.840340137E-1,5.113265514E-1,-3.022685647E-1
3.189817010E1,3.515369892E-1,3.776359558E-1,9.294424951E-2
3.191835104E1,-1.763011366E-1,9.374319762E-2,6.372939944E-1
3.193853323E1,-6.359623671E-1,2.157158852E-1,1.020788908E0
3.195871687E1,-1.072720528E0,4.777707458E-1,1.239700556E0
3.197890218E1,-1.619200706E0,7.217161059E-1,1.253016353E0
3.199908916E1,-1.981922984E0,1.043958426E0,9.201214910E-1
3.201927781E1,-2.008554697E0,9.422256947E-1,4.588623047E-1
3.203946812E1,-1.875396609E0,8.724509478E-1,-4.500738904E-2
3.205965989E1,-1.695899725E0,1.117994189E0,-3.560643792E-1
3.207985302E1,-1.549958587E0,9.113330245E-1,-3.491401672E-1
3.210004718E1,-1.338503718E0,2.897517085E-1,-1.984053552E-1
3.212024218E1,-1.091895223E0,2.359558940E-1,8.175898343E-2
3.214043771E1,-5.821665525E-1,1.421061754E0,6.980140209E-1
3.216063343E1,-1.091895252E-1,7.696529627E-1,1.062334180E0
3.218082375E1,7.494129539E-1,-2.543849468E0,7.704519033E-1
3.220101416E1,1.388571143E0,-4.550806046E0,-7.989477599E-4
3.222121541E1,1.159539461E0,-3.114298344E0,-6.149234176E-1
3.224139520E1,1.030642629E0,-5.922865868E-1,-7.283740044E-1
3.226157531E1,4.351601899E-1,-5.022718310E-1,-6.330329180E-1
3.228175604E1,-3.531349003E-1,1.475390196E-1,-1.920137703E-1
3.230193770E1,-6.476802826E-1,8.127961755E-1,1.589905918E-1
3.232212052E1,-1.088699460E0,9.049414396E-1,1.957421899E-1
3.234230468E1,-1.369929075E0,7.302381992E-1,7.643266767E-2
3.236249031E1,-1.186171055E0,-2.647180259E-1,2.207758874E-1
3.238267750E1,-7.941540480E-1,-1.262870073E0,3.901528120E-1
3.240286625E1,-4.010717571E-1,-1.470063806E0,3.805654347E-1
3.242305646E1,-1.640505940E-1,-5.060002208E-1,2.069274634E-1
3.244324802E1,-1.107874215E-1,6.141244769E-1,2.053295672E-1
3.246344073E1,-9.587372653E-3,7.483476996E-1,2.250369489E-1
3.248363437E1,2.972085476E-1,1.970737725E-1,7.803056389E-2
3.250382875E1,6.695181727E-1,-3.605917394E-1,-7.696529478E-2
3.252402364E1,7.110635042E-1,-3.717769980E-1,-1.110537350E-1
3.254421875E1,5.816339254E-1,1.331579592E-2,-4.820318148E-2
3.256441364E1,3.488738537E-1,3.142527640E-1,-1.518000662E-2
3.258460229E1,-8.948214352E-2,4.788360000E-1,-8.388951421E-2
3.260478552E1,-4.468781054E-1,4.159854650E-1,-3.219759464E-1
3.262496916E1,-2.684464455E-1,-1.320926845E-1,-3.784348965E-1
3.264515333E1,1.597895473E-1,-3.882885873E-1,1.890842989E-2
3.266533823E1,8.309056610E-2,1.054610983E-1,1.222390011E-1
3.268552396E1,-1.752358675E-1,9.257140756E-1,-8.868319541E-2
3.270571062E1,-8.309056610E-2,1.479651213E0,-2.841590643E-1
3.272589823E1,6.066676378E-1,1.325187922E0,-6.218476295E-1
3.274608677E1,1.483379602E0,3.957454562E-1,-1.282311082E0
3.276627625E1,1.649028063E0,-1.965411454E-1,-1.793105006E0
3.278646656E1,1.482846975E0,-1.544632316E-1,-1.474591136E0
3.280665760E1,1.288969040E0,-6.348971128E-1,-9.723193645E-1
3.282684927E1,1.102015257E0,-1.177648902E0,-6.740455627E-1
3.284704146E1,9.464867711E-1,-8.570045829E-1,-3.763043880E-1
3.286723396E1,8.681898713E-1,-7.882951200E-2,-1.541969180E-1
3.288742666E1,7.211834788E-1,5.374255180E-1,-2.956106514E-2
3.290763021E1,4.591286182E-1,8.948214650E-1,1.091895252E-2
3.292780927E1,2.215748429E-1,1.015196204E0,1.408811212E-1
3.294798864E1,-2.822948620E-2,1.145691037E0,4.673844278E-1
3.296816875E1,-2.743053734E-1,9.267793894E-1,7.550055981E-1
3.298834989E1,-5.283707380E-1,3.627222776E-1,9.100014567E-1
3.300853229E1,-7.366297841E-1,-1.065263674E-1,9.536772966E-1
3.302871614E1,-9.150614738E-1,1.491369121E-2,9.334372878E-1
3.304890156E1,-1.212802649E0,1.004543662E0,8.423572183E-1
3.306908864E1,-1.731586099E0,1.296425819E0,7.241129875E-1
3.308927739E1,-2.083122969E0,8.761793375E-1,4.780370593E-1
3.310946770E1,-1.911615610E0,4.271707237E-1,2.591253817E-1
3.312965948E1,-1.278849006E0,3.542001545E-1,-1.110537350E-1
3.314985250E1,1.731053442E-1,3.350254297E-1,-7.097318769E-1
3.317004656E1,3.398191035E-1,1.565937549E-1,-8.370308876E-1
3.319024146E1,-2.886864543E-1,-3.430148959E-1,9.187898785E-2
3.321043687E1,-1.688442826E-1,-8.463519812E-1,6.570013762E-1
3.323063250E1,8.149266988E-2,-7.952193022E-1,3.592601717E-1
3.325082770E1,1.507348120E-1,-1.826927215E-1,3.395527899E-1
3.327101635E1,4.016043842E-1,-2.524674833E-1,5.318328738E-1
3.329119958E1,-1.757685095E-2,-3.691138625E-1,1.616537571E-1
3.331138323E1,-4.213117659E-1,-2.588590682E-1,-2.117211521E-1
3.333156739E1,6.631265879E-1,-2.499108553E0,-1.137967944E0
3.335175229E1,-2.135853618E-1,-5.976129174E-1,-1.017060518E0
3.337193802E1,-1.260206938E0,2.465552807E0,-1.344895363E-1
3.339212468E1,-1.491369128E0,2.705236912E0,3.976096511E-1
3.341231229E1,-1.374190092E0,1.355015397E0,8.189214468E-1
3.343250083E1,-9.102677703E-1,-3.792338669E-1,1.363803744E0
3.345269031E1,-9.374319762E-2,-1.517468095E0,1.618401766E0
3.347288062E1,1.214400530E-1,-1.643701792E0,9.600688815E-1
3.349307166E1,-9.587372839E-2,-1.078579426E0,1.984053552E-1
3.351326333E1,5.592634156E-2,-2.284990549E-1,1.494032294E-1
3.353345552E1,4.878907502E-1,1.416800618E-1,1.009337306E-1
3.355364802E1,7.174550891E-1,-1.262337416E-1,-1.962748319E-1
3.357384073E1,6.492781639E-1,-4.921517968E-1,-5.568665862E-1
3.359404427E1,4.037349224E-1,-5.448823571E-1,-8.972182870E-1
3.361422343E1,4.356928170E-1,-6.562023759E-1,-1.257277369E0
3.363440291E1,5.235770941E-1,-8.181225061E-1,-1.102814198E0
3.365458312E1,3.952127993E-1,-6.301034689E-1,-6.138581634E-1
3.367476437E1,4.245075583E-1,-7.957519293E-1,-2.617885470E-1
3.369494687E1,6.285055280E-1,-8.602004051E-1,6.311687082E-2
3.371513083E1,8.836361766E-1,-1.890842915E-1,2.474074811E-1
3.373531635E1,1.124918461E0,2.775011659E-1,1.605884880E-1
3.375550354E1,1.213335276E0,7.014760971E-1,-3.222422674E-2
3.377569239E1,1.362472177E0,6.444845200E-1,-3.874896467E-1
3.379588281E1,1.541436434E0,-4.591286182E-1,-1.063399434E0
3.381607468E1,1.066861510E0,-1.398691177E0,-1.813877702E0
3.383626781E1,6.167876720E-1,-7.701855898E-1,-1.434111118E0
3.385646198E1,6.892255545E-1,-8.825709224E-1,-3.113232851E-1
3.387665687E1,6.386255622E-1,-1.039164662E0,2.639190555E-1
3.389685218E1,4.719117880E-1,-5.139896870E-1,7.134603262E-1
3.391704770E1,2.817622423E-1,2.370211631E-1,8.833698630E-1
3.393724187E1,2.045306265E-1,6.013413072E-1,8.077361584E-1
3.395743052E1,2.077264041E-1,5.960150361E-1,7.001445293E-1
3.397761375E1,4.048001766E-2,9.869667888E-1,5.547360182E-1
3.399779739E1,-2.631201148E-1,1.372059584E0,4.114580750E-1
3.401798156E1,-5.576655269E-1,1.131842613E0,3.795001805E-1
3.403816646E1,-7.222487330E-1,4.745749533E-1,5.392897129E-1
3.405835218E1,-7.829687595E-1,-2.183790505E-2,6.463487148E-1
3.407853885E1,-7.941540480E-1,4.026696682E-1,3.917506933E-1
3.409872646E1,-9.960215092E-1,8.958867192E-1,2.031990439E-1
3.411891500E1,-1.761413455E0,7.664572001E-1,1.784316637E-2
3.413910448E1,-2.498575926E0,2.620548606E-1,-2.399506420E-1
3.415929479E1,-1.235705853E0,5.608612895E-1,-4.743086398E-1
3.417948583E1,-8.841688186E-2,1.208009005E0,-2.292979956E-1
3.419967750E1,-2.247706354E-1,8.591351509E-1,3.571296334E-1
3.421986968E1,-6.870950758E-2,-3.355580568E-1,7.187866569E-1
3.424006218E1,7.323687673E-1,-1.480716467E0,1.028245687E0
3.426025489E1,1.559013367E0,-2.028794527E0,9.936246872E-1
3.428045843E1,1.014130950E0,-1.077514172E0,-2.980075181E-1
3.430063739E1,1.136636257E0,-1.597895473E-2,-1.575791240E0
3.432081666E1,1.788045049E0,-1.752358675E0,-1.774462938E0
3.434099666E1,-5.922865868E-1,-2.322274745E-1,-7.118624449E-1
3.436117770E1,-1.693769217E0,8.303729892E-1,6.117276549E-1
3.438136000E1,-1.768337607E0,9.821730852E-1,8.199867010E-1
3.440154375E1,-1.421594381E0,6.732466221E-1,4.210454524E-1
3.442172916E1,-1.242630005E0,2.482064217E-1,1.525990218E-1
3.444191625E1,-1.236771107E0,1.411474347E-1,2.884201407E-1
3.446210500E1,-1.201617360E0,1.656484902E-1,3.890875578E-1
3.448229531E1,-8.442214131E-1,3.888212144E-1,4.503402114E-1
3.450248708E1,-3.520696461E-1,7.281076908E-1,4.604602158E-1
3.452268010E1,-4.154528305E-2,7.648593187E-1,4.215780795E-1
3.454287416E1,-3.728422802E-3,5.550023317E-1,2.191779912E-1
3.456306906E1,-4.633896798E-2,2.327601016E-1,4.713791609E-2
3.458326448E1,-1.544632297E-2,4.809665382E-1,9.294424951E-2
3.460346010E1,-9.960214794E-2,1.204280496E0,3.097254038E-1
3.462365031E1,-5.544697046E-1,1.512141705E0,6.101297736E-1
3.464384062E1,-9.864341021E-1,1.571263909E0,6.948181987E-1
3.466404177E1,-8.442214131E-1,2.081525087E0,4.466117918E-1
3.468422166E1,-5.241097212E-1,2.671681166E0,2.689790726E-2
3.470440187E1,-3.882885873E-1,2.961432934E0,-3.342264593E-1
3.472458270E1,-3.563306928E-1,3.233607769E0,-7.107971907E-1
3.474476448E1,-0.000000000E0,3.044523478E0,-1.266332150E0
3.476494739E1,7.605982423E-1,2.311622143E0,-1.850096583E0
3.478513166E1,1.255413175E0,9.880320430E-1,-2.364619017E0
3.480531739E1,1.427985907E0,-9.480846524E-1,-2.519614935E0
3.482550458E1,1.297491074E0,-2.523609638E0,-1.722265005E0
3.484569323E1,6.902908683E-1,-1.070589900E0,-6.356960535E-1
3.486588333E1,-2.450106293E-2,1.469531178E0,-6.021402478E-1
3.488607479E1,-8.894951642E-2,2.524142265E0,-6.836329699E-1
3.490626739E1,7.403582335E-2,2.883668661E0,-6.266413331E-1
3.492646093E1,-1.416800618E-1,2.882070780E0,-6.175866127E-1
3.494665520E1,-5.635244846E-1,2.596580029E0,-3.922833502E-1
3.496685000E1,-8.479498625E-1,2.215215683E0,3.701791167E-2
3.498704500E1,-1.012000442E0,1.653289199E0,4.162517786E-1
3.500723979E1,-1.125983715E0,9.464867711E-1,5.882918239E-1
3.502742843E1,-1.142495275E0,6.700508595E-1,4.807002246E-1
3.504761166E1,-9.853688478E-1,1.232510090E0,2.058621943E-1
3.506779531E1,-1.012533069E0,2.087383986E0,2.583264373E-2
3.508797948E1,-1.344362736E0,2.373407364E0,8.442214131E-2
3.510816437E1,-1.373657465E0,2.515087366E0,2.868222296E-1
3.512835010E1,-3.829622865E-1,2.987531900E0,2.000032514E-1
3.514853677E1,9.209204316E-1,1.760880828E0,-3.906854391E-1
3.516872437E1,1.035968900E0,-1.320926845E-1,-7.619298100E-1
3.518891291E1,1.131842613E0,-1.105211020E0,-4.311654568E-1
3.520910239E1,1.983520865E0,-2.477803230E0,2.154495716E-1
3.522929270E1,6.711161137E-1,-4.147071362E0,2.548643351E-1
3.524948375E1,-1.192562699E0,-3.198454142E0,-9.560741484E-2
3.526967541E1,-4.617917836E-1,-1.393897533E0,-9.792435765E-1
3.528986760E1,1.477520704E0,2.892190814E-1,-1.601357579E0
3.531006010E1,-4.143875539E-1,1.482314348E0,-7.411571741E-1
3.533025281E1,-2.454367399E0,2.297240973E0,1.547295451E-1
3.535045635E1,-2.533196926E0,2.590188503E0,7.129276991E-1
3.537063520E1,-2.063415766E0,1.955824018E0,1.079378366E0
3.539081437E1,-1.732651353E0,9.576719999E-1,1.165664792E0
3.541099427E1,-1.565937519E0,4.628570378E-1,9.526119828E-1
3.543117520E1,-1.498293281E0,9.773793817E-1,6.532729268E-1
3.545135739E1,-1.479651213E0,1.228781581E0,5.052012801E-1
3.547154104E1,-1.408811212E0,1.188834190E0,5.344960093E-1
3.549172635E1,-1.245825887E0,1.271392107E0,5.877591968E-1
3.551191333E1,-1.194693208E0,1.595232248E0,5.206475854E-1
3.553210198E1,-1.448758602E0,1.851960897E0,3.853591084E-1
3.555229229E1,-1.969139814E0,1.225585818E0,3.624559641E-1
3.557248406E1,-2.095373631E0,4.229096770E-1,4.902876019E-1
3.559267718E1,-1.269261599E0,4.596612751E-1,5.344960093E-1
3.561287135E1,-3.222422600E-1,8.122635484E-1,3.411506712E-1
3.563306635E1,-4.474107176E-2,9.752488732E-1,1.366200596E-1
3.565326187E1,-1.874863952E-1,1.093493104E0,-3.382211924E-2
3.567345760E1,-3.510043621E-1,1.352884769E0,-1.946769357E-1
3.569365323E1,-4.415517747E-1,1.498825908E0,-3.518033028E-1
3.571384187E1,-2.929475009E-1,1.529718637E0,-3.555317521E-1
3.573403041E1,1.438105945E-2,1.464204907E0,-1.962748319E-1
3.575421354E1,2.141179889E-1,1.721466064E0,-2.388853729E-1
3.577439708E1,4.362254739E-1,2.213617802E0,-4.343612492E-1
3.579458125E1,7.680550814E-1,2.623211622E0,-6.751108170E-1
3.581476614E1,1.225053191E0,2.533729553E0,-9.318393469E-1
3.583495187E1,2.500706434E0,2.380864143E0,-1.339835286E0
3.585513854E1,3.117494106E0,2.028261900E0,-1.150750995E0
3.587532614E1,2.307893753E0,1.066861510E0,-9.558078051E-1
3.589551468E1,1.256478429E0,5.864276290E-1,-9.962878227E-1
3.591570416E1,3.467433155E-1,1.250619531E0,-1.158740520E0
3.593589448E1,3.675159439E-2,2.502836943E0,-1.503353357E0
3.595608552E1,7.776424289E-2,3.032273054E0,-2.279930592E0
3.597627718E1,-1.810948253E-1,3.041327715E0,-3.764908075E0
3.599646937E1,-6.759097576E-1,3.568100452E0,-4.598476887E0
3.601666187E1,-1.125451088E0,3.960650206E0,-3.356379509E0
3.603685458E1,-1.481249094E0,4.270109177E0,-2.183524132E0
3.605705812E1,-1.684181809E0,4.019239902E0,-1.652490258E0
3.607723698E1,-1.733183980E0,3.471694231E0,-1.326519608E0
3.609741614E1,-1.454084873E0,2.863961220E0,-9.856351614E-1
3.611759604E1,-9.779120088E-1,2.184323072E0,-5.712476373E-1
3.613777698E1,-5.885581374E-1,1.519065976E0,-2.340916842E-1
3.615795916E1,-7.041392922E-1,7.930887938E-1,-1.944106072E-2
3.617814281E1,-1.574992299E0,-1.288969070E-1,4.500738904E-2
3.619832812E1,-2.343047380E0,-4.554001987E-1,2.210422046E-2
3.621851510E1,-2.375005245E0,-1.038632020E-1,1.145158429E-2
3.623870375E1,-1.972335577E0,9.374319762E-2,5.832318589E-2
3.625889406E1,-1.308676362E0,2.993390858E-1,1.829590350E-1
3.627908583E1,-9.060067534E-1,9.704551697E-1,3.435475379E-2
3.629927896E1,-1.026914120E0,1.015196204E0,-3.395527899E-1
3.631947312E1,-8.676572442E-1,-2.615222335E-1,-5.217128396E-1
3.633966812E1,-5.502086878E-1,-1.661811233E0,-4.215780795E-1
3.635986364E1,-3.371559381E-1,-1.156343699E0,-5.531381369E-1
3.638005937E1,-5.203812718E-1,1.615472317E0,-1.446095407E-1
3.640025489E1,-7.584677339E-1,4.005923748E0,6.852308512E-1
3.642044343E1,-9.965541363E-1,4.925778866E0,7.672561407E-1
3.644062656E1,-1.256478429E0,4.725509644E0,5.110602379E-1
3.646081010E1,-1.537708044E0,3.130809784E0,3.203780353E-1
3.648099427E1,-1.800828218E0,3.968107104E-1,-4.607265070E-2
3.650117916E1,-2.063415766E0,-1.561676502E0,-5.898897648E-1
3.652136489E1,-1.612809181E0,-3.169159293E-1,-4.636560082E-1
3.654155156E1,-7.701855898E-1,1.595232248E0,-8.921582997E-2
3.656173916E1,-5.379581451E-1,1.424790144E0,-5.592633970E-3
3.658192771E1,-5.725792050E-1,5.858950019E-1,3.462106921E-3
3.660211718E1,-3.121222556E-1,-3.621896356E-2,4.527370445E-3
3.662230750E1,9.640636295E-2,1.352884769E-1,-8.122635633E-2
3.664249854E1,3.051980436E-1,3.621896505E-1,-1.211737394E-1
3.666269021E1,5.821665525E-1,1.086568907E-1,-2.410158962E-1
3.668288239E1,9.480846524E-1,-5.086634159E-1,-5.142560005E-1
3.670307489E1,8.681898713E-1,-8.303729892E-1,-6.154560447E-1
3.672326760E1,6.338318586E-1,-3.978759646E-1,-3.885549009E-1
3.674347114E1,5.795034170E-1,3.520696461E-1,-1.376853287E-1
3.676364979E1,5.395560265E-1,5.241097212E-1,3.222422674E-2
3.678382875E1,4.612591565E-1,1.129179448E-1,7.856319100E-2
3.680400843E1,5.842971206E-1,-3.281011879E-1,1.707084924E-1
3.682418916E1,7.153245211E-1,-4.085285962E-1,2.000032514E-1
3.684437125E1,7.147918940E-1,-1.699095517E-1,1.110537350E-1
3.686455489E1,8.745814562E-1,3.792338669E-1,-1.099884734E-1
3.688474020E1,1.542501807E0,8.266445994E-1,-6.772413850E-1
3.690492729E1,2.188051462E0,1.144625783E0,-1.502820730E0
3.692511614E1,1.887114525E0,1.618135452E0,-2.138250351E0
3.694530666E1,1.194160581E0,1.315600634E0,-2.294844151E0
3.696549864E1,7.206508517E-1,-4.197138846E-1,-1.713742852E0
3.698569198E1,5.779055357E-1,-1.456748009E0,-6.937529445E-1
3.700588635E1,3.275685608E-1,-5.139896870E-1,-2.367548496E-1
3.702608156E1,-1.081242561E-1,9.960214794E-2,1.280979514E-1
3.704627729E1,-4.367581010E-1,1.960085034E-1,5.115928650E-1
3.706647323E1,-6.881603003E-1,2.247706354E-1,7.384940386E-1
3.708666750E1,-9.267793894E-1,1.091895252E-1,9.994835854E-1
3.710685604E1,-1.128646851E0,4.580633715E-2,1.194426894E0
3.712703916E1,-1.346493244E0,1.640505940E-1,1.147022605E0
3.714722271E1,-1.645299673E0,4.729770422E-1,9.669930935E-1
3.716740687E1,-1.838112354E0,7.835013866E-1,7.624624372E-1
3.718759177E1,-1.794969201E0,1.026381493E0,5.669865608E-1
3.720777750E1,-1.505750179E0,1.243695259E0,3.880222738E-1
3.722796416E1,-1.156876326E0,1.454084873E0,1.627190262E-1
3.724815177E1,-9.890972972E-1,1.658615470E0,2.263685316E-2
3.726834031E1,-9.108003974E-1,1.431181669E0,-3.914843872E-2
3.728852979E1,-7.893603444E-1,4.271707237E-1,-1.249021590E-1
3.730872010E1,-4.175833464E-1,-7.115961313E-1,1.784316637E-2
3.732891114E1,1.017326787E-1,-1.141962647E0,4.940160215E-1
3.734910281E1,7.115961313E-1,-1.513206959E0,7.800393105E-1
3.736929500E1,1.138766885E0,-2.576872826E0,4.844286442E-1
3.738948750E1,8.431561589E-1,-4.213650227E0,-2.783001363E-1
3.740968010E1,1.800295562E-1,-2.657300234E0,-6.958834529E-1
3.742988354E1,6.870950758E-2,1.384842768E-2,-8.279761672E-1
3.745006218E1,7.046719193E-1,-7.643266916E-1,-1.034104705E0
3.747024114E1,-3.036001325E-1,9.028109312E-1,-2.676474750E-1
3.749042083E1,-1.165398479E0,2.816557169E0,3.203780353E-1
3.751060156E1,-1.249554276E0,2.214150429E0,1.478053331E-1
3.753078364E1,-1.201617360E0,7.691203356E-1,1.771000773E-1
3.755096729E1,-1.089232087E0,-6.322339773E-1,3.507380486E-1
3.757115260E1,-9.054740667E-1,-1.112667918E0,4.407528341E-1
3.759133968E1,-6.423539519E-1,-3.813643754E-1,4.008054435E-1
3.761152843E1,-4.431496859E-1,5.336970687E-1,3.901528120E-1
3.763171885E1,-3.334275186E-1,5.294360518E-1,4.705802202E-1
3.765191073E1,-4.474107176E-2,-1.848232448E-1,4.040012360E-1
3.767210396E1,2.812296152E-1,-6.737792492E-1,1.760348231E-1
3.769229823E1,4.383559823E-1,-6.290381551E-1,-5.139897019E-2
3.771249333E1,4.399538934E-1,-3.707117438E-1,-2.596580088E-1
3.773268896E1,4.926844239E-1,-1.763011366E-1,-4.242412448E-1
3.775288479E1,6.157223582E-1,-4.154528081E-1,-4.860265255E-1
3.777307958E1,5.278381109E-1,-6.412886977E-1,-3.853591084E-1
3.779326823E1,2.274337858E-1,-5.518065691E-1,-2.857569754E-1
3.781345677E1,-6.391582079E-3,-2.327601016E-1,-2.532664239E-1
3.783363989E1,-9.534109384E-2,2.290316820E-1,-1.238368973E-1
3.785382343E1,-1.054610983E-1,5.384907722E-1,6.125265732E-3
3.787400750E1,1.757685095E-2,9.086698890E-1,3.462106921E-3
3.789419229E1,1.544632316E-1,8.053393364E-1,-1.110537350E-1
3.791437791E1,4.271707237E-1,6.210486889E-1,-3.667170107E-1
3.793456448E1,1.347025871E0,4.687159881E-2,-8.290414214E-1
3.795475198E1,2.505500078E0,-7.552719116E-1,-1.201883674E0
3.797494041E1,2.748380184E0,-9.699225426E-1,-1.430382729E0
3.799512979E1,2.261554718E0,-1.025316238E0,-1.651957631E0
3.801532010E1,1.389103770E0,-3.291664720E-1,-1.262603760E0
3.803551114E1,1.124385715E0,2.982738242E-2,-5.520728827E-1
3.805570281E1,1.108939409E0,5.699160695E-1,-2.687127590E-1
3.807589500E1,8.053393364E-1,8.325035572E-1,4.127896577E-2
3.809608750E1,4.149201810E-1,6.732466221E-1,2.346243113E-1
3.811628020E1,1.864211448E-2,2.556632832E-2,4.822981060E-1
3.813648375E1,-4.452801943E-1,-6.066676378E-1,8.524772525E-1
3.815666260E1,-6.881603003E-1,-8.032087684E-1,1.153414249E0
3.817684177E1,-7.073350549E-1,-6.050697565E-1,1.279115319E0
3.819702166E1,-8.463519812E-1,-1.592569202E-1,1.042094111E0
3.821720260E1,-1.507880688E0,9.427583218E-2,6.420876384E-1
3.823738479E1,-2.354232550E0,2.780338228E-1,4.130559862E-1
3.825756843E1,-2.306295872E0,1.073785782E0,2.458095849E-1
3.827775375E1,-1.782186031E0,2.031990290E0,-2.210422046E-2
3.829794073E1,-1.454617500E0,2.303100109E0,-3.534012139E-1
3.831812937E1,-1.316133261E0,1.065796256E0,-6.016076207E-1
3.833831968E1,-6.604634523E-1,-3.920170069E-1,-5.653886795E-1
3.835851146E1,3.728422802E-3,-6.615287066E-1,2.628538013E-1
3.837870448E1,-7.084003091E-2,-1.442366958E0,9.147951603E-1
3.839889854E1,-1.667137593E-1,-1.961150408E0,8.210519552E-1
3.841909343E1,5.906887054E-1,-9.843035936E-1,5.424855351E-1
3.843928885E1,1.324655294E0,-1.306013227E0,3.768370152E-1
3.845948448E1,9.187898636E-1,-1.702291250E0,1.254348010E-1
3.847967979E1,2.732401192E-1,-7.941540480E-1,-5.619265884E-2
3.849986833E1,-2.561959028E-1,-3.957454562E-1,-1.712411344E-1
3.852005146E1,-3.616569936E-1,-1.430116415E0,-3.443464637E-1
3.854023500E1,-3.259706795E-1,-8.117309213E-1,-3.502054214E-1
3.856041906E1,-4.016043842E-1,4.277033508E-1,-6.578002870E-2
3.858060385E1,-6.269076467E-1,6.317013502E-1,9.667267650E-2
3.860078948E1,-6.562023759E-1,2.748380303E-1,2.873548567E-1
3.862097604E1,-4.037349224E-1,-7.574024200E-1,5.387570858E-1
3.864116354E1,4.633896798E-2,-1.749695539E0,6.532729268E-1
3.866135198E1,3.845601678E-1,-1.799762964E0,4.167844057E-1
3.868154135E1,4.692486227E-1,-1.119059443E0,-6.098634377E-2
3.870173156E1,5.613939166E-1,-3.643201590E-1,-1.536642760E-1
3.872192260E1,6.295707822E-1,-1.587242782E-1,-1.254348010E-1
3.874211427E1,4.793686271E-1,-2.359558940E-1,-1.611211300E-1
3.876230646E1,4.351601899E-1,1.278316379E-1,-1.217063740E-1
3.878249896E1,4.016043842E-1,4.894886315E-1,-7.803056389E-2
3.880269166E1,1.619200706E-1,6.141244769E-1,-1.557948142E-1
3.882289520E1,-7.723161578E-2,5.299686790E-1,-1.813611388E-1
3.884307396E1,-5.752423778E-2,9.267793596E-2,-7.483477145E-2
3.886325302E1,-2.663159044E-3,-2.338253707E-1,8.602003753E-2
3.888343281E1,-2.402169555E-1,-1.315600574E-1,4.660528526E-2
3.890361364E1,-3.542001545E-1,1.257011145E-1,-1.552621722E-1
3.892379573E1,2.455432713E-1,7.643266916E-1,-4.375570416E-1
3.894397927E1,1.023185730E0,1.571263909E0,-6.447508335E-1
3.896416448E1,1.643169165E0,1.979792476E0,-7.997466922E-1
3.898435146E1,2.186986208E0,1.540903807E0,-1.151283622E0
3.900454010E1,2.026131392E0,4.969455004E-1,-1.490570188E0
3.902473041E1,1.279381633E0,-3.078611791E-1,-1.282843709E0
3.904492218E1,8.543414474E-1,-7.057371736E-1,-7.145255804E-1
3.906511531E1,6.093307734E-1,-8.127961755E-1,-2.010685056E-1
3.908530948E1,3.973433375E-1,-7.318361402E-1,2.319611609E-1
3.910550448E1,1.475390196E-1,-3.435475230E-1,4.316980839E-1
3.912570000E1,-5.752423778E-2,-2.183790505E-2,5.446160436E-1
3.914589573E1,-1.933453530E-1,1.310274303E-1,6.942855716E-1
3.916609093E1,-3.440801501E-1,1.001347825E-1,9.494162202E-1
3.918627948E1,-5.001412630E-1,2.364885211E-1,1.027713060E0
3.920646260E1,-6.498108506E-1,4.958802164E-1,8.498140574E-1
3.922664614E1,-7.659245729E-1,5.086634159E-1,4.934833944E-1
3.924683020E1,-9.209204316E-1,3.312969804E-1,2.388853729E-1
3.926701500E1,-1.192562699E0,2.924148738E-1,1.669800729E-1
3.928720062E1,-1.231444716E0,5.816339254E-1,1.462074369E-1
3.930738718E1,-9.885646701E-1,6.652571559E-1,2.157158963E-2
3.932757468E1,-7.430213690E-1,3.339601457E-1,-2.676474750E-1
3.934776312E1,-3.840275407E-1,-9.853688627E-2,-4.279696643E-1
3.936795250E1,5.592634156E-2,-1.944106072E-1,-3.182475269E-1
3.938814270E1,-8.628635854E-2,-6.615287066E-1,3.169159219E-2
3.940833364E1,-5.523391962E-1,-1.270859480E0,3.294327855E-1
3.942852520E1,-8.463519812E-1,-9.017456770E-1,4.306328297E-1
3.944871729E1,-4.490086138E-1,5.305013061E-1,5.222455263E-1
3.946890968E1,2.119874656E-1,-3.941475451E-1,4.519380927E-1
3.948910229E1,-4.207791388E-2,-1.963813543E0,5.193160102E-2
3.950930573E1,2.391516864E-1,-1.507348061E0,-3.890875578E-1
3.952948479E1,1.142495275E0,-3.158506751E-1,-6.559360623E-1
3.954966416E1,5.837644935E-1,2.167811543E-1,-6.836329699E-1
3.956984427E1,-6.663224101E-1,1.568600655E0,-3.555317521E-1
3.959002541E1,-1.413072228E0,2.228531599E0,2.378201038E-1
3.961020781E1,-1.617602825E0,1.818405032E0,3.864243925E-1
3.963039166E1,-1.503619671E0,9.539436102E-1,5.691171288E-1
3.965057708E1,-1.257543683E0,-4.207791388E-2,6.538055539E-1
3.967076416E1,-8.032087684E-1,-1.465270162E0,6.223802567E-1
3.969095291E1,2.130527236E-2,-2.294045210E0,6.442182064E-1
3.971114323E1,6.764423847E-1,-1.665539742E0,4.316980839E-1
3.973133500E1,8.543414474E-1,-1.084971070E0,1.201084778E-1
3.975152802E1,8.932235837E-1,-6.269076467E-1,1.994706094E-1
3.977172208E1,8.878972530E-1,-2.716422379E-1,2.537990510E-1
3.979191687E1,8.154593110E-1,-8.149266988E-2,1.872200817E-1
3.981211208E1,6.008086801E-1,-3.941475600E-2,1.786979735E-1
3.983230750E1,3.941475600E-2,-2.833601236E-1,1.739042848E-1
3.985250156E1,-5.890907645E-1,-1.133440495E0,-2.356895804E-1
3.987269010E1,-6.450171471E-1,-7.206508517E-1,-9.723193645E-1
3.989287323E1,-4.101264849E-2,1.022653133E-1,-9.376983047E-1
3.991305677E1,3.057306707E-1,6.604634225E-2,-1.669800729E-1
3.993324083E1,3.499391079E-1,1.031175256E0,4.412854612E-1
3.995342562E1,5.070654750E-1,1.967541933E0,2.319611609E-1
3.997361125E1,8.356993198E-1,2.162485123E0,-6.205160543E-2
3.999379781E1,1.494032264E0,1.894571424E0,-4.822981060E-1
4.001398531E1,2.235455751E0,1.719868183E0,-9.302414656E-1
4.003417375E1,2.514554739E0,1.370994329E0,-1.352085829E0
4.005436312E1,2.010152578E0,2.519348562E-1,-1.653555512E0
4.007455333E1,1.094025731E0,-8.649940491E-1,-1.343031168E0
4.009474427E1,5.480781198E-1,-1.189899445E0,-4.743086398E-1
4.011493583E1,3.089264631E-1,-6.918887496E-1,1.158474237E-1
4.013512791E1,-9.001477808E-2,3.249054253E-1,2.692453861E-1
4.015532031E1,-4.996086359E-1,7.243793011E-1,4.082622826E-1
4.017551291E1,-8.761793375E-1,7.334340215E-1,5.344960093E-1
4.019571635E1,-1.320926905E0,7.898929715E-1,7.384940386E-1
4.021589520E1,-1.608015418E0,1.011467814E0,8.279761672E-1
4.023607437E1,-1.667670250E0,1.413604856E0,7.827024460E-1
4.025625427E1,-1.700693369E0,1.816274524E0,6.213150024E-1
4.027643521E1,-1.692703962E0,2.015478849E0,3.976096511E-1
4.029661739E1,-1.485510111E0,1.943573475E0,1.286305785E-1
4.031680104E1,-1.304415345E0,1.650093436E0,-3.049317300E-1
4.033698635E1,-1.086568952E0,7.994803786E-1,-7.731150985E-1
4.035717333E1,-5.805686712E-1,-6.082655191E-1,-8.881635666E-1
4.037736198E1,-5.858949851E-3,-1.544632316E0,-7.129276991E-1
4.039755218E1,5.219792128E-1,-1.233575344E0,-3.874896467E-1
4.041774385E1,6.636592746E-1,-4.964128435E-1,-1.731053367E-2
4.043793677E1,3.824296594E-1,-1.326253176E0,-3.328948840E-2
4.045813073E1,2.972085476E-1,-2.121472597E0,-1.403484792E-1
4.047832552E1,4.271707237E-1,-1.396560669E0,-3.994738683E-3
4.049852083E1,3.067959249E-1,-3.286338449E-1,2.202432603E-1
4.051871635E1,2.364885211E-1,-2.364885211E-1,2.900180221E-1
4.053890646E1,4.101265073E-1,-1.291099548E0,-5.779055133E-2
4.055909666E1,9.006804228E-1,-2.129462004E0,-5.036033988E-1
4.057929770E1,3.312969804E-1,-1.039697289E0,-3.198454082E-1
4.059947739E1,-7.185203433E-1,1.205878496E0,1.541969180E-1
4.061965739E1,-1.367798567E0,1.956356645E0,7.496792674E-1
4.063983802E1,-1.708150268E0,2.149702072E0,8.466182947E-1
4.066001958E1,-1.767804980E0,1.854624033E0,7.720498443E-1
4.068020229E1,-1.581383824E0,9.693899155E-1,8.269109130E-1
4.070038635E1,-1.261804819E0,1.752358675E-1,8.732498884E-1
4.072057187E1,-1.002945662E0,-1.693769246E-1,8.359656334E-1
