"Time (s)","Acceleration x (m/s^2)","Acceleration y (m/s^2)","Acceleration z (m/s^2)"
1.971720000E-2,9.912267923E-1,-8.779864311E0,3.095116138E0
3.985569000E-2,6.634100676E-1,-9.134002686E0,4.570291042E0
6.012386700E-2,2.560320199E-1,-8.827720642E0,5.020142078E0
8.039214800E-2,8.374879509E-2,-9.287142754E0,3.942773581E0
1.006604290E-1,4.785645381E-2,-9.260822296E0,2.135594130E0
1.210604290E-1,2.153540403E-1,-9.515059471E0,2.068595171E0
1.413554290E-1,1.196411345E-2,-9.945767403E0,3.452244759E0
1.614666270E-1,-4.737788737E-1,-9.553344727E0,4.778466702E0
1.817348040E-1,-2.895315289E-1,-9.308678627E0,4.520041943E0
2.020030340E-1,-1.962114573E-1,-8.882756233E0,3.248854876E0
2.222713670E-1,-3.589234129E-2,-8.988039970E0,2.915654421E0
2.425395960E-1,-4.354937077E-1,-9.443274498E0,4.570291042E0
2.628080340E-1,-1.074975610E0,-9.677771568E0,4.912465096E0
2.830764190E-1,-1.615753531E0,-8.877969742E0,3.519243956E0
3.033448040E-1,-1.165902853E0,-8.935398102E0,1.788036704E0
3.236131900E-1,-1.036690354E0,-9.917053223E0,3.056830883E0
3.438816270E-1,-1.994417667E0,-9.538987160E0,5.599802971E0
3.641500650E-1,-2.128415823E0,-8.720044136E0,5.542375565E0
3.844185020E-1,-1.163509965E0,-7.814958572E0,2.865405083E0
4.046868880E-1,-8.189435601E-1,-7.523034573E0,1.148554832E-1
4.249553770E-1,-4.187439680E-1,-8.066205025E0,5.024927258E-1
4.452238670E-1,-8.572286963E-1,-9.749555588E0,2.551945448E0
4.654923040E-1,-1.508076429E0,-9.586843491E0,4.292723656E0
4.857607940E-1,-9.553344250E-1,-9.358927727E0,3.080759048E0
5.060292320E-1,-6.508477330E-1,-9.486345291E0,1.859821439E0
5.262977210E-1,-1.295115232E0,-9.174679756E0,2.377269268E0
5.466977210E-1,-1.610967875E0,-8.944969177E0,3.303889751E0
5.668346480E-1,-1.283151150E0,-1.041057301E1,3.509672642E0
5.871030860E-1,-1.433898926E0,-1.172961617E1,3.435495138E0
6.073716270E-1,-1.723430514E0,-1.095613670E1,2.372483730E0
6.276400130E-1,-1.194616675E0,-1.007019424E1,1.991426587E0
6.479085020E-1,-4.977070987E-1,-1.039322472E1,1.989033818E0
6.681769920E-1,-1.007976532E0,-1.003430176E1,1.419542074E0
6.885769920E-1,-1.980060697E0,-9.232108116E0,8.997012973E-1
7.087138670E-1,-1.242473125E0,-9.768698692E0,1.943570137E0
7.289823570E-1,-3.780659735E-1,-1.107577801E1,2.717050076E0
7.492508460E-1,-1.582253933E0,-1.156929779E1,1.800000787E0
7.695192840E-1,-2.377269268E0,-1.096331501E1,1.357328653E0
7.897877730E-1,-3.327818155E0,-1.014437199E1,2.169093609E0
8.100562110E-1,-4.754538536E0,-1.033579731E1,1.965105653E0
8.303247000E-1,-4.601397991E0,-1.030947590E1,1.534397483E0
8.505931380E-1,-4.280759811E0,-9.620343208E0,1.139581800E0
8.708615750E-1,-5.829514027E0,-9.510273933E0,7.513462901E-1
8.911300650E-1,-5.963512421E0,-9.141180992E0,6.556333899E-1
9.113985020E-1,-4.551148891E0,-7.618747234E0,1.029511929E0
9.316669400E-1,-5.896512985E0,-8.925827026E0,8.590233326E-1
9.519354290E-1,-7.225726128E0,-8.408976555E0,1.746760458E-1
9.722038670E-1,-7.055835724E0,-8.638688087E0,1.866999865E0
9.924723040E-1,-6.748956203E0,-8.370692253E0,6.963114142E-1
1.012740794E0,-7.197012424E0,-7.350750923E0,6.340979934E-1
1.033009232E0,-7.311867714E0,-3.885943890E0,1.725823283E0
1.053277669E0,-9.918848038E0,-3.802195072E0,-2.246262312E0
1.073546107E0,-9.847063065E0,-6.227321148E0,-3.810569942E-1
1.093814596E0,-6.684350014E0,-5.813362598E0,1.493719578E0
1.114083034E0,-6.095715523E0,-5.964110374E0,-3.882354796E-1
1.134351471E0,-7.747361660E0,-5.911468506E0,-8.572286963E-1
1.154619909E0,-1.034297562E1,-5.916254044E0,-1.029511929E0
1.174888346E0,-9.763314247E0,-5.263013363E0,1.185045362E0
1.195156836E0,-8.248059273E0,-5.351547718E0,3.278166950E-1
1.215425273E0,-8.906085968E0,-4.968098164E0,-2.272583246E0
1.235693711E0,-9.032905579E0,-4.164109707E0,-5.365904570E-1
1.255962148E0,-9.686744690E0,-4.331607342E0,-1.704886109E-1
1.276230586E0,-1.037647533E1,-5.070989609E0,-5.772684813E-1
1.296499023E0,-1.044586754E1,-4.252644062E0,-1.974078640E-2
1.316767461E0,-9.825528145E0,-2.966501951E0,-1.702493310E0
1.337035846E0,-7.079763889E0,-2.083550215E0,-1.767099500E0
1.357304336E0,-6.579065800E0,-1.771885157E0,-2.808575630E0
1.377572825E0,-7.122834682E0,-2.003988981E0,-3.598805189E0
1.397841211E0,-7.120441914E0,-2.566900492E0,-2.827718258E0
1.418109648E0,-7.383652687E0,-2.504687071E0,-1.855633974E0
1.438378138E0,-6.100501537E0,-1.769492388E0,-1.829312921E0
1.458646575E0,-6.971488953E0,-2.231905222E0,-1.745564103E0
1.478915013E0,-8.181060791E0,-2.205584288E0,-2.176870346E0
1.499183450E0,-6.043073654E0,-2.145763636E0,-2.877369225E-1
1.519451836E0,-8.781659126E0,-4.250251293E0,-4.432703853E-1
1.539720273E0,-1.006002426E1,-6.378666878E0,1.076770201E-1
1.559988711E0,-8.638090134E0,-5.815755367E0,1.153938770E0
1.580257148E0,-7.697112083E0,-5.090131760E0,8.087740541E-1
1.600657148E0,-8.685946465E0,-4.621138573E0,5.072783828E-1
1.620794023E0,-7.510472298E0,-4.685744762E0,-3.212364316E-1
1.641062461E0,-7.582256794E0,-3.931407690E0,-1.872383654E-1
1.661330898E0,-7.893323898E0,-2.499901533E0,-5.581258535E-1
1.681599336E0,-8.863015175E0,-1.802991867E0,-3.212364316E-1
1.701867773E0,-8.989834785E0,-8.285148144E-1,4.881358147E-1
1.722136211E0,-9.275178909E0,-1.630708575E0,6.173482537E-1
1.742544179E0,-8.456234932E0,-3.062214851E0,5.742774159E-2
1.762817721E0,-8.221738815E0,-4.408177376E0,-9.625129104E-1
1.782896211E0,-8.367700577E0,-5.581258774E0,-8.548358679E-1
1.803203711E0,-7.256833076E0,-4.365106583E0,-3.499503136E-1
1.823478711E0,-5.841478348E0,-3.409772158E0,7.250252366E-1
1.843747044E0,-5.111667156E0,-4.738387108E0,9.427721500E-1
1.864015429E0,-5.049454212E0,-7.776673794E0,7.944171429E-1
1.884283815E0,-6.619743824E0,-1.074317551E1,1.546361685E0
1.904552148E0,-9.006584167E0,-1.066899776E1,3.454637766E0
1.924820586E0,-8.879764557E0,-1.098724365E1,3.210569859E0
1.945089023E0,-6.428318024E0,-1.001755238E1,4.000201225E0
1.965357409E0,-5.202594757E0,-9.421739578E0,2.477767944E0
1.985625898E0,-5.051846981E0,-8.609973907E0,1.948355794E0
2.005894336E0,-5.504090309E0,-7.302894592E0,1.314257860E0
2.026162773E0,-5.894120216E0,-6.739983082E0,8.231309652E-1
2.046431211E0,-5.346164227E0,-7.151548862E0,7.800601721E-1
2.066699648E0,-6.392425537E0,-7.367500782E0,3.014956415E-1
2.086968086E0,-7.139584541E0,-8.346763611E0,-5.653043389E-1
2.107236575E0,-7.945965767E0,-1.000080204E1,-8.404789567E-1
2.127504961E0,-5.243272781E0,-1.013719273E1,-7.208378315E-1
2.147773398E0,-4.058227062E0,-8.452047348E0,3.038884699E-1
2.168041888E0,-4.170690060E0,-4.633102894E0,-1.281356573E0
2.188310325E0,-2.595016241E0,-2.976073265E0,-3.044866920E-1
2.208578815E0,-2.408375978E0,-7.702496052E0,1.082154036E0
2.228847252E0,-4.689932346E0,-1.535414505E1,3.008974552E0
2.249115742E0,-4.737788677E0,-1.275912857E1,1.773679733E0
2.269384127E0,-3.210569859E0,-7.613961697E0,1.926820397E0
2.289652669E0,-1.462612867E0,-6.055037498E0,1.986641049E0
2.309921054E0,-2.899502754E0,-6.917052269E0,1.615753531E0
2.330189596E0,-2.269592285E0,-7.771887779E0,3.445664644E-1
2.350589596E0,-2.283949137E0,-7.599604607E0,1.338186026E0
2.370726575E0,-1.879562140E0,-8.300702095E0,1.957927108E0
2.390995065E0,-3.256033421E0,-1.131505966E1,2.504088879E0
2.411263554E0,-3.679563046E0,-1.162433243E1,2.214557409E0
2.431532044E0,-2.456232548E0,-1.115234852E1,1.326221943E0
2.451800534E0,-2.441875458E0,-9.885947227E0,9.786644578E-1
2.472069023E0,-2.894717216E0,-1.060917759E1,1.630110383E0
2.492337565E0,-2.731407166E0,-1.020179939E1,1.431506157E0
2.512606054E0,-2.611765862E0,-9.445667267E0,1.275972724E0
2.532874596E0,-1.756929994E0,-9.222537041E0,1.016949654E0
2.553143138E0,-1.951346874E0,-8.298309326E0,1.484148264E0
2.573411679E0,-1.797608018E0,-8.566903114E0,1.266401410E0
2.593680169E0,-1.953739643E0,-1.038843918E1,1.120439172E0
2.613948711E0,-1.891526341E0,-9.730413437E0,1.541576028E0
2.634217252E0,-2.073380709E0,-9.826126099E0,1.098903775E0
2.654485794E0,-1.283151150E0,-1.059242725E1,1.079761267E0
2.674754336E0,-5.335994363E-1,-1.001755238E1,8.039883971E-1
2.695022877E0,-8.853443712E-2,-9.699306488E0,6.723831892E-1
2.715291419E0,3.451646566E-1,-9.783055305E0,6.173482537E-1
2.735559961E0,1.024726272E0,-1.128634644E1,8.662018180E-1
2.755828502E0,1.556531072E0,-1.113320541E1,6.532405615E-1
2.776097044E0,1.300499082E0,-1.027358437E1,8.853443861E-1
2.796365638E0,7.112665176E-1,-8.971290588E0,7.968099117E-1
2.816634179E0,4.839483798E-1,-8.988039970E0,1.106082320E0
2.837034179E0,1.012762189E0,-8.997611046E0,4.929214716E-1
2.857171367E0,2.507079840E0,-1.118106174E1,3.541377485E-1
2.877439909E0,3.179463148E0,-1.318983650E1,7.920243144E-1
2.897708502E0,1.999203324E0,-9.929018021E0,5.240281820E-1
2.918108502E0,1.158724308E0,-9.383454323E0,7.417750359E-1
2.938245690E0,1.470389485E0,-9.694520950E0,8.494520187E-1
2.958514284E0,1.908276081E0,-9.950552940E0,8.733802438E-1
2.978782877E0,2.404188633E0,-9.627521515E0,3.110669553E-1
2.999051575E0,6.658028960E-1,-4.329214573E0,7.106683254E-1
3.019320169E0,-7.034898400E-1,-8.679366112E0,3.158525825E-1
3.039588763E0,7.178468257E-2,-1.082213879E1,-1.000798106E0
3.059857409E0,3.020938635E-1,-1.167697430E1,-7.136593461E-1
3.080126002E0,8.428717852E-1,-1.110449123E1,1.651047617E-1
3.100394648E0,2.140379906E0,-1.089631653E1,4.833501875E-1
3.120663294E0,3.337389469E0,-1.034776115E1,6.173482537E-1
3.140931940E0,3.397808075E0,-9.936196327E0,7.441678643E-1
3.161200534E0,3.057429075E0,-1.088195896E1,5.742774606E-1
3.181469179E0,3.457628727E0,-1.084128094E1,3.517449200E-1
3.201733867E0,2.495115757E0,-9.369096756E0,7.633104324E-1
3.221963242E0,8.404789567E-1,-8.176275253E0,8.566305041E-1
3.242373971E0,-2.919243574E-1,-8.904291153E0,3.613162339E-1
3.262707252E0,-8.763712645E-1,-9.838089943E0,-1.393819153E-1
3.282959232E0,-1.484148264E0,-9.912267685E0,-2.350948304E-1
3.303070534E0,-1.599003673E0,-1.008455086E1,1.603191197E-1
3.323350429E0,-6.460621357E-1,-9.809376717E0,5.431707501E-1
3.343619023E0,4.289134443E-1,-9.720842361E0,3.158525825E-1
3.363887565E0,1.273579836E0,-9.795019150E0,3.254238665E-1
3.384156211E0,1.750349760E0,-9.826126099E0,2.823530734E-1
3.404424804E0,1.992024899E0,-9.751948357E0,4.235295951E-1
3.424693450E0,2.183450699E0,-9.713663101E0,5.479564071E-1
3.444962148E0,2.324627161E0,-9.728020668E0,5.623133183E-1
3.465230846E0,2.336591244E0,-9.744770050E0,5.192425251E-1
3.485499492E0,2.178664923E0,-9.735198975E0,4.881358147E-1
3.505768242E0,1.884347796E0,-9.680164337E0,5.120640397E-1
3.526036940E0,1.520638824E0,-9.656235695E0,4.977070987E-1
3.546305690E0,1.103689432E0,-9.689735413E0,4.307080805E-1
3.566574440E0,7.423732281E-1,-9.706484795E0,3.732803464E-1
3.586843138E0,4.360919297E-1,-9.684949875E0,3.948157430E-1
3.607111888E0,2.464607358E-1,-9.661021233E0,4.331009090E-1
3.627380586E0,1.674975902E-1,-9.651450157E0,4.689932466E-1
3.647649336E0,1.627119333E-1,-9.675378799E0,5.383850932E-1
3.667918086E0,2.153540403E-1,-9.706484795E0,6.125625968E-1
3.688186836E0,3.475574851E-1,-9.708877563E0,7.322037220E-1
3.708455638E0,5.054838061E-1,-9.773484230E0,7.704889178E-1
3.728855638E0,7.591229677E-1,-9.845269203E0,8.087740541E-1
3.748993138E0,9.194421172E-1,-9.905089378E0,8.111668825E-1
3.769261940E0,1.055832982E0,-9.862018585E0,8.398807645E-1
3.789530690E0,1.218544960E0,-9.883553505E0,8.709874153E-1
3.809865013E0,1.396211982E0,-9.907482147E0,9.619147182E-1
3.830260742E0,1.534995675E0,-9.998409271E0,1.053440213E0
3.850336992E0,1.640279889E0,-1.006062317E1,1.189831018E0
3.870605794E0,1.680957913E0,-1.009412193E1,1.268794179E0
3.891005846E0,1.735992789E0,-1.015872860E1,1.304686546E0
3.911143398E0,1.776670814E0,-1.019222832E1,1.366899967E0
3.931412200E0,1.762313843E0,-1.019222832E1,1.505683661E0
3.951681002E0,1.683350682E0,-1.023769188E1,1.680359721E0
3.971949804E0,1.599601984E0,-1.017069244E1,1.869392633E0
3.992218659E0,1.563709617E0,-9.929018021E0,1.981855392E0
4.012487461E0,1.594816327E0,-9.790233612E0,2.099701881E0
4.032756263E0,1.534995675E0,-9.878767967E0,2.291127682E0
4.053025117E0,8.452646136E-1,-9.603593826E0,2.697907448E0
4.073293971E0,-2.321037948E-1,-9.373882294E0,2.918047190E0
4.093562825E0,-1.213759303E0,-9.572486877E0,2.575873613E0
4.113831679E0,-1.780858278E0,-9.346963882E0,1.953141451E0
4.134100482E0,-1.687538147E0,-8.799007416E0,1.639681697E0
4.154369336E0,-1.409970760E0,-8.633902550E0,1.534397483E0
4.174638190E0,-1.273579836E0,-8.866005898E0,1.287936807E0
4.194907044E0,-1.206580877E0,-8.866005898E0,1.194616675E0
4.215175898E0,-8.213363886E-1,-8.638688087E0,1.462612867E0
4.235444752E0,-4.546362907E-2,-8.633902550E0,1.895713687E0
4.255713607E0,7.328019142E-1,-8.868398666E0,2.293520451E0
4.275982461E0,1.415354609E0,-8.837292671E0,2.142772675E0
4.296251315E0,1.905883193E0,-8.612366676E0,1.378864050E0
4.316520221E0,1.987239242E0,-8.552546501E0,9.092726111E-1
4.336789075E0,1.580459356E0,-8.633902550E0,9.188438654E-1
4.357057929E0,1.436890006E0,-8.928219795E0,1.366899967E0
4.377326836E0,2.056631088E0,-9.334999084E0,4.833501875E-1
4.397595690E0,2.784647465E0,-9.184251785E0,-1.786242127E0
4.417864544E0,3.122035265E0,-9.224929810E0,-2.837289333E0
4.438264544E0,3.344567776E0,-1.028315544E1,-2.075773716E0
4.458560273E0,3.543770313E0,-1.083170986E1,1.211366415E0
4.478671836E0,2.861217737E0,-1.200000572E1,4.776073933E0
4.498940638E0,1.738385677E0,-1.237328625E1,2.843869686E0
4.519209388E0,1.501496196E0,-1.037886810E1,-1.058824062E0
4.539609388E0,1.338784218E0,-9.634700775E0,-2.499901533E0
4.559747148E0,5.964110494E-1,-9.811769485E0,-1.353141189E0
4.580015898E0,-7.680960894E-1,-1.081735325E1,-3.690928817E-1
4.600284752E0,-1.407577872E0,-1.272084332E1,-1.034895778E-1
4.620553607E0,-1.424327731E0,-1.094417286E1,7.489534616E-1
4.640822513E0,-6.723831892E-1,-7.901100159E0,8.973084688E-1
4.661091367E0,8.045865893E-1,-8.255238533E0,-2.374876440E-1
4.681360273E0,1.791027784E0,-9.809376717E0,-1.322034478E0
4.701629179E0,1.702493310E0,-9.902696609E0,-1.585245013E0
4.721898086E0,1.275972724E0,-9.234500885E0,-1.365105271E0
4.742166992E0,5.653043389E-1,-9.596415520E0,-9.242277741E-1
4.762435898E0,-4.929214716E-1,-1.033340454E1,-1.106680483E-1
4.782704752E0,-1.395613790E0,-1.055653572E1,6.077769399E-1
4.802973659E0,-1.848455548E0,-1.045125103E1,6.915257573E-1
4.823242565E0,-1.546361685E0,-1.018026352E1,2.225325108E-1
4.843511419E0,-9.696913958E-1,-1.030947590E1,-1.920240223E-1
4.863911419E0,-5.838487148E-1,-1.018026352E1,-7.806583643E-1
4.884049232E0,-1.268195957E-1,-9.818947792E0,-1.262213945E0
4.904318138E0,4.025924206E-1,-9.670592308E0,-1.788634896E0
4.924587044E0,6.897311211E-1,-9.656235695E0,-2.054238319E0
4.944855950E0,6.179464459E-1,-9.725627899E0,-2.020738840E0
4.965124909E0,3.978067636E-1,-9.873982430E0,-1.814955950E0
4.985393815E0,1.674975902E-1,-9.938589096E0,-1.566102386E0
5.005662721E0,2.392822644E-3,-9.964909554E0,-1.266999602E0
5.025931627E0,-1.363908947E-1,-9.864411354E0,-9.553344250E-1
5.046200534E0,-1.196411327E-1,-9.862018585E0,-7.208378315E-1
5.066469440E0,2.321037948E-1,-9.933803558E0,-6.490531564E-1
5.086738346E0,4.887340367E-1,-9.847661972E0,-8.931210637E-1
5.107007252E0,5.102694035E-1,-9.680164337E0,-1.408176184E0
5.127276107E0,5.437689424E-1,-9.546165466E0,-1.429711580E0
5.147545065E0,5.246263742E-1,-9.483952522E0,-1.156929731E0
5.167813919E0,7.351947427E-1,-9.462417603E0,-9.481559992E-1
5.188082825E0,9.864411354E-1,-9.596415520E0,-7.998009920E-1
5.208351732E0,1.192223907E0,-9.639486313E0,-7.471588850E-1
5.228620638E0,1.322034478E0,-9.555737495E0,-8.069794178E-1
5.248889544E0,1.290329576E0,-9.625128746E0,-8.141579032E-1
5.269158450E0,1.259222865E0,-9.747162819E0,-6.634100676E-1
5.289427357E0,1.429711580E0,-9.751948357E0,-3.930211067E-1
5.309696263E0,1.637887120E0,-9.797411919E0,-9.631111473E-2
5.329965169E0,1.881955028E0,-9.850054741E0,1.363908947E-1
5.350234075E0,2.082952023E0,-9.876375198E0,2.105683982E-1
5.370502982E0,2.121237278E0,-9.742377281E0,7.657032460E-2
5.390771836E0,1.956132531E0,-9.651450157E0,-2.063809484E-1
5.411040742E0,1.771885157E0,-9.625128746E0,-4.815555513E-1
5.431309596E0,1.625923038E0,-9.503094673E0,-4.911268353E-1
5.451578502E0,1.534995675E0,-9.424132347E0,-4.121637046E-1
5.471847409E0,1.472782373E0,-9.318249702E0,-3.690928817E-1
5.492116211E0,1.415354609E0,-9.260822296E0,-2.925225794E-1
5.512385169E0,1.314856052E0,-9.282357216E0,-3.044866920E-1
5.532654075E0,1.161117196E0,-9.711270332E0,-2.853440940E-1
5.552922929E0,1.039083242E0,-1.055414295E1,-3.499503136E-1
5.573191836E0,7.806583643E-1,-9.933803558E0,-3.523431420E-1
5.593460690E0,6.658028960E-1,-9.376275063E0,-3.260220885E-1
5.613729596E0,9.625129104E-1,-1.001755238E1,-2.207378894E-1
5.633998450E0,1.173081279E0,-1.038365364E1,4.235295951E-1
5.654267357E0,9.696913958E-1,-1.026401234E1,1.639681697E0
5.674536211E0,8.452646136E-1,-1.008455086E1,2.327019930E0
5.694805065E0,1.115653515E0,-1.007497978E1,1.350150228E0
5.715073919E0,1.625923038E0,-1.003669453E1,2.392822644E-3
5.735342825E0,1.970489502E0,-9.766305923E0,-1.173679471E0
5.755611679E0,2.006381750E0,-9.388239861E0,-1.759921074E0
5.775880534E0,1.738385677E0,-9.291928291E0,-1.609173179E0
5.796149388E0,1.134796143E0,-9.332606316E0,-8.524430394E-1
5.816418242E0,4.767699242E-1,-9.538987160E0,-2.327020019E-1
5.836687096E0,-7.178467698E-3,-9.763913155E0,5.742774159E-2
5.856955950E0,-2.321037948E-1,-9.866804123E0,1.698904037E-1
5.877224804E0,-4.546362907E-2,-9.931410789E0,1.962114573E-1
5.897493659E0,4.983053207E-1,-1.001755238E1,1.124626622E-1
5.917762461E0,1.125224829E0,-1.001276588E1,9.571290761E-2
5.938162461E0,1.647458434E0,-9.921838760E0,1.794617027E-1
5.958300169E0,2.128415823E0,-9.862018585E0,3.182454109E-1
5.978568971E0,2.487937450E0,-9.838089943E0,3.254238665E-1
5.998837773E0,2.492722988E0,-9.763913155E0,1.052841991E-1
6.019106679E0,2.013560295E0,-9.663414001E0,-2.327020019E-1
6.039375482E0,1.353141189E0,-9.680164337E0,-5.222335458E-1
6.059644336E0,6.921239495E-1,-9.763913155E0,-6.275177598E-1
6.079913138E0,2.662015259E-1,-9.747162819E0,-4.791627228E-1
6.100313138E0,2.201396823E-1,-9.661021233E0,-2.709871531E-1
6.120450742E0,6.275177598E-1,-9.696913719E0,-2.231307179E-1
6.140719596E0,1.232901812E0,-9.797411919E0,-2.709871531E-1
6.160988398E0,1.767099500E0,-9.732806206E0,-2.542374134E-1
6.181257200E0,2.090130568E0,-9.737591743E0,-1.393819153E-1
6.201526002E0,2.106880426E0,-9.783055305E0,2.392822690E-2
6.221794804E0,1.757528186E0,-9.806983948E0,9.332008660E-2
6.242063607E0,1.302891970E0,-9.795019150E0,-3.409772366E-2
6.262471523E0,9.050851464E-1,-9.747162819E0,-2.709871531E-1
6.282765482E0,7.328019142E-1,-9.692128181E0,-4.432703853E-1
6.303033086E0,7.998009920E-1,-9.663414001E0,-4.935196638E-1
6.323300950E0,1.043868899E0,-9.651450157E0,-4.073780477E-1
6.343553190E0,1.333998680E0,-9.718449593E0,-3.212364316E-1
6.363664700E0,1.570888042E0,-9.751948357E0,-2.566302419E-1
6.383945742E0,1.668993831E0,-9.668199539E0,-1.920240223E-1
6.404214388E0,1.616351724E0,-9.694520950E0,-1.585244983E-1
6.424483086E0,1.491924882E0,-9.766305923E0,-1.417747438E-1
6.444751784E0,1.264008522E0,-9.795019150E0,-8.673982322E-2
6.465020482E0,9.888339639E-1,-9.778269768E0,-8.434699476E-2
6.485289179E0,8.189435601E-1,-9.804591179E0,-1.130608693E-1
6.505557929E0,7.878368497E-1,-9.797411919E0,-1.250249892E-1
6.525826627E0,8.333004713E-1,-9.790233612E0,-7.716853172E-2
6.546095325E0,8.931210637E-1,-9.816555023E0,-1.974078640E-2
6.566364127E0,9.457631707E-1,-9.785448074E0,-1.256231871E-2
6.586632877E0,1.048654556E0,-9.754341125E0,-5.563312769E-2
6.606901627E0,1.182652593E0,-9.730413437E0,-1.034895778E-1
6.627170377E0,1.266401410E0,-9.749555588E0,-1.441675574E-1
6.647439127E0,1.242473125E0,-9.790233612E0,-1.298106313E-1
6.667707877E0,1.063011408E0,-9.775876999E0,-8.195417374E-2
6.687976627E0,8.835497499E-1,-9.785448074E0,-1.256231871E-2
6.708245325E0,7.232306600E-1,-9.823733330E0,4.067798331E-2
6.728514075E0,7.351947427E-1,-9.809376717E0,5.503492057E-2
6.748782825E0,8.093722463E-1,-9.847661972E0,3.110669367E-2
6.769051575E0,9.074779749E-1,-9.835697174E0,-1.495514158E-2
6.789320273E0,9.696913958E-1,-9.809376717E0,-4.845465720E-2
6.809589023E0,1.007976532E0,-9.785448074E0,-5.802594870E-2
6.829857773E0,1.034297585E0,-9.780662537E0,-6.759724021E-2
6.850126419E0,1.074975610E0,-9.785448074E0,-5.563312769E-2
6.870395013E0,1.103689432E0,-9.785448074E0,-1.974078640E-2
6.890663919E0,1.077368379E0,-9.773484230E0,-2.392822644E-3
6.910932617E0,1.007976532E0,-9.775876999E0,4.785645287E-3
6.931201367E0,9.840483069E-1,-9.790233612E0,-2.931207791E-2
6.951470065E0,9.744769931E-1,-9.747162819E0,-7.477571070E-2
6.971738815E0,9.888339639E-1,-9.739984512E0,-1.106680483E-1
6.992007394E0,9.672985673E-1,-9.742377281E0,-9.152546525E-2
7.012276248E0,9.553344250E-1,-9.742377281E0,-4.366901144E-2
7.032544998E0,9.409775138E-1,-9.766305923E0,-4.127619043E-2
7.052813696E0,9.361918569E-1,-9.780662537E0,-1.734796353E-2
7.073082394E0,9.672985673E-1,-9.783055305E0,-1.495514158E-2
7.093351144E0,9.792626500E-1,-9.780662537E0,-2.392822644E-3
7.113619841E0,1.000798106E0,-9.768698692E0,-1.495514158E-2
7.133888539E0,1.046261668E0,-9.795019150E0,-0.000000000E0
7.154157237E0,1.127617717E0,-9.792626381E0,9.571290575E-3
7.174425935E0,1.156331539E0,-9.766305923E0,7.178467698E-3
7.194694633E0,1.106082320E0,-9.780662537E0,-2.392822644E-3
7.214963279E0,1.046261668E0,-9.785448074E0,-9.571290575E-3
7.235231925E0,1.007976532E0,-9.761520386E0,2.392822644E-3
7.255500571E0,1.017547846E0,-9.756733894E0,-2.392822644E-3
7.275769373E0,1.036690354E0,-9.756733894E0,-2.691925503E-2
7.296038071E0,1.079761267E0,-9.747162819E0,-4.606183618E-2
7.316306769E0,1.110867858E0,-9.773484230E0,-4.127619043E-2
7.336706716E0,1.094118118E0,-9.771091461E0,-1.495514158E-2
7.356844112E0,1.053440213E0,-9.787840843E0,-0.000000000E0
7.377112758E0,1.046261668E0,-9.797411919E0,2.632104978E-2
7.397381456E0,1.077368379E0,-9.828518867E0,6.221338734E-2
7.417650154E0,1.098903775E0,-9.797411919E0,4.785645381E-2
7.438050154E0,1.074975610E0,-9.799804688E0,1.914258115E-2
7.458108591E0,1.024726272E0,-9.773484230E0,-2.452643216E-2
7.478455831E0,1.048654556E0,-9.761520386E0,-3.888336942E-2
7.498724581E0,1.065404296E0,-9.766305923E0,-2.452643216E-2
7.518993331E0,1.091725349E0,-9.759127617E0,-7.178467698E-3
7.539393331E0,1.101296663E0,-9.790233612E0,-7.178467698E-3
7.559530727E0,1.074975610E0,-9.792626381E0,-2.213360928E-2
7.579799373E0,1.043868899E0,-9.773484230E0,-1.256231871E-2
7.600068123E0,1.039083242E0,-9.790233612E0,-7.178467698E-3
7.620336769E0,1.101296663E0,-9.783055305E0,9.571290575E-3
7.640605519E0,1.094118118E0,-9.783055305E0,-0.000000000E0
7.660874164E0,1.096511006E0,-9.768698692E0,-7.178467698E-3
7.681142862E0,1.096511006E0,-9.751948357E0,-2.691925503E-2
7.701411508E0,1.070189953E0,-9.735198975E0,-6.759724021E-2
7.721680206E0,1.051047325E0,-9.751948357E0,-5.084748194E-2
7.741948956E0,1.053440213E0,-9.756733894E0,-5.084748194E-2
7.762217602E0,1.086939692E0,-9.773484230E0,-3.409772366E-2
7.782486248E0,1.108475089E0,-9.771091461E0,-9.571290575E-3
7.802754946E0,1.079761267E0,-9.783055305E0,2.392822690E-2
7.823023591E0,1.055832982E0,-9.785448074E0,2.871387079E-2
7.843292289E0,1.007976532E0,-9.780662537E0,2.153540403E-2
7.863692289E0,1.000798106E0,-9.771091461E0,2.153540403E-2
7.883829633E0,1.019940615E0,-9.778269768E0,1.435693540E-2
7.904098279E0,1.007976532E0,-9.778269768E0,1.914258115E-2
7.924366977E0,9.960124493E-1,-9.761520386E0,2.871387079E-2
7.944635675E0,9.481559992E-1,-9.773484230E0,-0.000000000E0
7.964904321E0,9.170492887E-1,-9.780662537E0,1.914258115E-2
7.985173019E0,9.242277741E-1,-9.787840843E0,4.307080805E-2
8.005441664E0,9.529415965E-1,-9.795019150E0,3.589234129E-2
8.025710362E0,1.005583763E0,-9.797411919E0,4.067798331E-2
8.045979008E0,1.029511929E0,-9.809376717E0,3.589234129E-2
8.066247706E0,1.024726272E0,-9.795019150E0,1.914258115E-2
8.086516404E0,1.065404296E0,-9.797411919E0,1.435693540E-2
8.106785050E0,1.094118118E0,-9.778269768E0,2.392822644E-3
8.127053748E0,1.082154036E0,-9.790233612E0,2.632104978E-2
8.147322394E0,1.039083242E0,-9.787840843E0,2.632104978E-2
8.167591091E0,1.015154958E0,-9.790233612E0,-7.178467698E-3
8.187859737E0,1.017547846E0,-9.783055305E0,-3.649054468E-2
8.208128435E0,1.065404296E0,-9.799804688E0,-2.931207791E-2
8.228528435E0,1.103689432E0,-9.804591179E0,3.349951655E-2
8.248665779E0,1.065404296E0,-9.783055305E0,5.264209956E-2
8.268934425E0,1.034297585E0,-9.785448074E0,3.589234129E-2
8.289203071E0,1.053440213E0,-9.763913155E0,-0.000000000E0
8.309471769E0,1.091725349E0,-9.744770050E0,-2.452643216E-2
8.329740414E0,1.079761267E0,-9.780662537E0,-4.845465720E-2
8.350009112E0,1.072582722E0,-9.744770050E0,-6.041877344E-2
8.370277758E0,1.048654556E0,-9.766305923E0,-4.127619043E-2
8.390546404E0,1.118046403E0,-9.797411919E0,-1.974078640E-2
8.410815102E0,1.161117196E0,-9.761520386E0,-1.256231871E-2
8.431083748E0,1.177866936E0,-9.742377281E0,-4.606183618E-2
8.451352394E0,1.168295622E0,-9.751948357E0,-7.716853172E-2
8.471621039E0,1.141974568E0,-9.768698692E0,-5.563312769E-2
8.491889737E0,1.139581800E0,-9.766305923E0,-3.649054468E-2
8.512158383E0,1.120439172E0,-9.766305923E0,-3.170489892E-2
8.532427029E0,1.120439172E0,-9.778269768E0,-9.571290575E-3
8.552695675E0,1.089332461E0,-9.783055305E0,-1.495514158E-2
8.572964321E0,1.079761267E0,-9.751948357E0,-3.170489892E-2
8.593233019E0,1.089332461E0,-9.778269768E0,-1.734796353E-2
8.613501664E0,1.070189953E0,-9.787840843E0,2.153540403E-2
8.633770258E0,1.070189953E0,-9.797411919E0,1.674975827E-2
8.654038956E0,1.077368379E0,-9.792626381E0,9.571290575E-3
8.674307602E0,1.067797065E0,-9.783055305E0,9.571290575E-3
8.694576248E0,1.048654556E0,-9.792626381E0,1.435693540E-2
8.714844894E0,1.005583763E0,-9.783055305E0,1.435693540E-2
8.735113539E0,9.720842242E-1,-9.773484230E0,4.785645287E-3
8.755382133E0,9.888339639E-1,-9.778269768E0,-2.392822644E-3
8.775650831E0,1.019940615E0,-9.780662537E0,1.196411345E-2
8.795919425E0,1.031904817E0,-9.787840843E0,2.871387079E-2
8.816188071E0,1.036690354E0,-9.785448074E0,1.196411345E-2
8.836456716E0,1.012762189E0,-9.773484230E0,2.392822644E-3
8.856725310E0,1.022333503E0,-9.766305923E0,-2.213360928E-2
8.876993956E0,1.046261668E0,-9.792626381E0,-0.000000000E0
8.897262550E0,1.034297585E0,-9.771091461E0,7.178467698E-3
8.917531196E0,9.936196208E-1,-9.783055305E0,1.674975827E-2
8.937931196E0,9.361918569E-1,-9.795019150E0,1.914258115E-2
8.958068435E0,9.266205430E-1,-9.792626381E0,-0.000000000E0
8.978337081E0,9.529415965E-1,-9.783055305E0,-4.785645287E-3
8.998605675E0,9.792626500E-1,-9.761520386E0,9.571290575E-3
9.018874321E0,9.912267923E-1,-9.780662537E0,2.153540403E-2
9.039274321E0,9.984052777E-1,-9.790233612E0,3.349951655E-2
9.059411508E0,1.003190875E0,-9.773484230E0,2.871387079E-2
9.079680154E0,9.577272534E-1,-9.768698692E0,9.571290575E-3
9.099948748E0,9.481559992E-1,-9.790233612E0,-0.000000000E0
9.120217341E0,9.457631707E-1,-9.778269768E0,2.392822690E-2
9.140617341E0,9.625129104E-1,-9.780662537E0,4.785645381E-2
9.160754529E0,9.553344250E-1,-9.780662537E0,5.024927482E-2
9.181023123E0,9.553344250E-1,-9.783055305E0,6.460621208E-2
9.201291769E0,9.696913958E-1,-9.787840843E0,4.785645381E-2
9.221560362E0,9.816554785E-1,-9.778269768E0,2.153540403E-2
9.241828956E0,9.912267923E-1,-9.768698692E0,2.153540403E-2
9.262097550E0,9.912267923E-1,-9.766305923E0,4.067798331E-2
9.282366144E0,9.936196208E-1,-9.775876999E0,4.546362907E-2
9.302634685E0,1.043868899E0,-9.795019150E0,4.307080805E-2
9.322903279E0,1.082154036E0,-9.785448074E0,3.349951655E-2
9.343171873E0,1.072582722E0,-9.785448074E0,4.307080805E-2
9.363559164E0,1.077368379E0,-9.797411919E0,5.503492057E-2
9.383709008E0,1.101296663E0,-9.778269768E0,8.614161611E-2
9.403977602E0,1.130010486E0,-9.775876999E0,1.004985496E-1
9.424246144E0,1.101296663E0,-9.785448074E0,8.374879509E-2
9.444514737E0,1.019940615E0,-9.780662537E0,6.699903309E-2
9.464783279E0,9.457631707E-1,-9.799804688E0,5.264209956E-2
9.485051873E0,9.409775138E-1,-9.775876999E0,6.939185411E-2
9.505320414E0,1.039083242E0,-9.766305923E0,8.135596663E-2
9.525589008E0,1.094118118E0,-9.773484230E0,8.135596663E-2
9.545857550E0,1.084546804E0,-9.783055305E0,7.657032460E-2
9.566126091E0,1.027119160E0,-9.787840843E0,7.417750359E-2
9.586394633E0,9.792626500E-1,-9.795019150E0,8.853443712E-2
9.606663227E0,9.481559992E-1,-9.792626381E0,8.853443712E-2
9.626931769E0,9.601200819E-1,-9.787840843E0,7.417750359E-2
9.647200310E0,9.864411354E-1,-9.802198410E0,5.024927482E-2
9.667468800E0,9.601200819E-1,-9.795019150E0,4.546362907E-2
9.687737394E0,9.625129104E-1,-9.775876999E0,3.828516230E-2
9.708005883E0,9.505487680E-1,-9.780662537E0,4.067798331E-2
9.728274425E0,9.984052777E-1,-9.763913155E0,2.392822690E-2
9.748542966E0,1.034297585E0,-9.756733894E0,-7.178467698E-3
9.768811508E0,1.063011408E0,-9.742377281E0,-3.409772366E-2
9.789080050E0,1.046261668E0,-9.751948357E0,-6.759724021E-2
9.809348539E0,1.012762189E0,-9.751948357E0,-6.520441920E-2
9.829617081E0,1.005583763E0,-9.780662537E0,-2.452643216E-2
9.849885571E0,1.005583763E0,-9.771091461E0,1.196411345E-2
9.870154060E0,1.012762189E0,-9.785448074E0,4.307080805E-2
9.890422654E0,1.065404296E0,-9.797411919E0,2.871387079E-2
9.910691144E0,1.113260746E0,-9.787840843E0,2.392822644E-3
9.930959633E0,1.096511006E0,-9.773484230E0,-1.974078640E-2
9.951228175E0,1.113260746E0,-9.761520386E0,-4.127619043E-2
9.971496664E0,1.053440213E0,-9.778269768E0,-3.888336942E-2
9.991765154E0,1.005583763E0,-9.768698692E0,-2.931207791E-2
1.001203364E1,9.601200819E-1,-9.780662537E0,-2.691925503E-2
1.003230218E1,9.672985673E-1,-9.778269768E0,-3.170489892E-2
1.005257068E1,9.816554785E-1,-9.775876999E0,-4.845465720E-2
1.007283916E1,1.022333503E0,-9.756733894E0,-2.931207791E-2
1.009310765E1,1.046261668E0,-9.759127617E0,-4.845465720E-2
1.011337609E1,1.041476011E0,-9.773484230E0,-6.999006122E-2
1.013364453E1,1.046261668E0,-9.766305923E0,-6.520441920E-2
1.015391302E1,1.055832982E0,-9.778269768E0,-5.324030295E-2
1.017418151E1,1.036690354E0,-9.792626381E0,-1.734796353E-2
1.019445000E1,1.027119160E0,-9.802198410E0,-2.392822644E-3
1.021471849E1,1.017547846E0,-9.816555023E0,9.571290575E-3
1.023498693E1,1.015154958E0,-9.806983948E0,-0.000000000E0
1.025525541E1,1.029511929E0,-9.799804688E0,-7.178467698E-3
1.027552385E1,1.041476011E0,-9.797411919E0,-3.888336942E-2
1.029579234E1,1.089332461E0,-9.768698692E0,-6.520441920E-2
1.031606078E1,1.086939692E0,-9.756733894E0,-8.434699476E-2
1.033632922E1,1.046261668E0,-9.771091461E0,-6.999006122E-2
1.035659765E1,1.007976532E0,-9.775876999E0,-4.606183618E-2
1.037686614E1,1.015154958E0,-9.778269768E0,-3.409772366E-2
1.039713458E1,9.936196208E-1,-9.775876999E0,-2.452643216E-2
1.041740302E1,1.015154958E0,-9.778269768E0,-1.974078640E-2
1.043780302E1,9.984052777E-1,-9.763913155E0,-2.691925503E-2
1.045762468E1,9.936196208E-1,-9.783055305E0,-1.256231871E-2
1.047802469E1,1.003190875E0,-9.785448074E0,7.178467698E-3
1.049842468E1,1.017547846E0,-9.792626381E0,1.674975827E-2
1.051874620E1,1.019940615E0,-9.787840843E0,2.871387079E-2
1.053914620E1,1.039083242E0,-9.783055305E0,4.785645381E-2
1.055928239E1,1.007976532E0,-9.787840843E0,5.742774159E-2
1.057955073E1,9.816554785E-1,-9.814162254E0,6.221338734E-2
1.059981906E1,9.912267923E-1,-9.780662537E0,5.024927482E-2
1.062008745E1,1.043868899E0,-9.768698692E0,5.024927482E-2
1.064035578E1,1.082154036E0,-9.768698692E0,5.264209956E-2
1.066062411E1,1.063011408E0,-9.785448074E0,5.264209956E-2
1.068089255E1,1.017547846E0,-9.780662537E0,6.221338734E-2
1.070129255E1,9.720842242E-1,-9.783055305E0,8.135596663E-2
1.072142927E1,9.457631707E-1,-9.771091461E0,8.853443712E-2
1.074169765E1,9.314061999E-1,-9.787840843E0,8.374879509E-2
1.076196604E1,9.433703423E-1,-9.775876999E0,7.657032460E-2
1.078223442E1,9.601200819E-1,-9.747162819E0,6.699903309E-2
1.080250281E1,9.912267923E-1,-9.787840843E0,6.939185411E-2
1.082277120E1,1.024726272E0,-9.768698692E0,7.178468257E-2
1.084303958E1,1.041476011E0,-9.775876999E0,5.982056633E-2
1.086342672E1,1.012762189E0,-9.771091461E0,9.092725813E-2
1.088357630E1,9.696913958E-1,-9.787840843E0,1.100698411E-1
1.090384469E1,9.050851464E-1,-9.780662537E0,1.387837082E-1
1.092411307E1,9.170492887E-1,-9.792626381E0,1.220339537E-1
1.094438135E1,9.696913958E-1,-9.799804688E0,1.124626622E-1
1.096464974E1,9.601200819E-1,-9.797411919E0,1.124626622E-1
1.098491807E1,9.960124493E-1,-9.790233612E0,1.387837082E-1
1.100518640E1,9.960124493E-1,-9.778269768E0,1.674975902E-1
1.102545479E1,9.960124493E-1,-9.780662537E0,1.698904037E-1
1.104572312E1,9.888339639E-1,-9.795019150E0,1.411765367E-1
1.106599151E1,1.012762189E0,-9.787840843E0,1.196411327E-1
1.108625984E1,1.067797065E0,-9.751948357E0,1.316052526E-1
1.110652818E1,1.072582722E0,-9.775876999E0,1.627119333E-1
1.112679651E1,1.027119160E0,-9.775876999E0,1.770688742E-1
1.114706489E1,1.003190875E0,-9.792626381E0,1.722832322E-1
1.116733323E1,1.007976532E0,-9.763913155E0,1.651047617E-1
1.118760156E1,1.027119160E0,-9.773484230E0,1.339980662E-1
1.120786989E1,1.043868899E0,-9.756733894E0,1.268195957E-1
1.122813823E1,1.067797065E0,-9.759127617E0,1.459621787E-1
1.124840656E1,1.091725349E0,-9.761520386E0,1.674975902E-1
1.126867484E1,1.058225870E0,-9.775876999E0,1.459621787E-1
1.128894323E1,9.433703423E-1,-9.754341125E0,1.220339537E-1
1.130921156E1,9.098708034E-1,-9.759127617E0,1.028913707E-1
1.132947989E1,9.074779749E-1,-9.790233612E0,1.316052526E-1
1.134974818E1,9.290133715E-1,-9.818947792E0,1.866401732E-1
1.137001651E1,9.409775138E-1,-9.828518867E0,2.009970993E-1
1.139028484E1,9.266205430E-1,-9.816555023E0,1.842473447E-1
1.141055318E1,9.050851464E-1,-9.783055305E0,2.057827413E-1
1.143082151E1,9.122636318E-1,-9.780662537E0,1.603191197E-1
1.145108979E1,9.218349457E-1,-9.775876999E0,1.052841991E-1
1.147135812E1,9.672985673E-1,-9.768698692E0,7.178468257E-2
1.149162646E1,9.864411354E-1,-9.766305923E0,5.742774159E-2
1.151189479E1,9.457631707E-1,-9.783055305E0,7.178468257E-2
1.153216307E1,9.481559992E-1,-9.775876999E0,7.896314561E-2
1.155243140E1,9.433703423E-1,-9.763913155E0,8.614161611E-2
1.157269974E1,9.696913958E-1,-9.749555588E0,9.571290761E-2
1.159296807E1,9.792626500E-1,-9.751948357E0,8.853443712E-2
1.161323635E1,9.672985673E-1,-9.799804688E0,8.135596663E-2
1.163350463E1,9.218349457E-1,-9.778269768E0,7.417750359E-2
1.165377297E1,9.146564603E-1,-9.780662537E0,4.067798331E-2
1.167404130E1,9.505487680E-1,-9.799804688E0,5.503492057E-2
1.169430958E1,9.649057388E-1,-9.785448074E0,7.657032460E-2
1.171457791E1,9.840483069E-1,-9.785448074E0,7.657032460E-2
1.173484625E1,9.696913958E-1,-9.785448074E0,7.657032460E-2
1.175511453E1,9.385846853E-1,-9.797411919E0,7.178468257E-2
1.177538281E1,9.290133715E-1,-9.790233612E0,5.264209956E-2
1.179565114E1,9.672985673E-1,-9.773484230E0,5.264209956E-2
1.181591942E1,9.625129104E-1,-9.780662537E0,5.742774159E-2
1.183631943E1,9.529415965E-1,-9.795019150E0,8.374879509E-2
1.185645599E1,9.266205430E-1,-9.792626381E0,9.810572863E-2
1.187672432E1,9.433703423E-1,-9.804591179E0,1.076770201E-1
1.189699260E1,9.361918569E-1,-9.828518867E0,9.332008660E-2
1.191726088E1,9.505487680E-1,-9.804591179E0,9.810572863E-2
1.193766088E1,9.409775138E-1,-9.795019150E0,8.853443712E-2
1.195779750E1,9.266205430E-1,-9.790233612E0,7.417750359E-2
1.197806578E1,9.098708034E-1,-9.780662537E0,5.264209956E-2
1.199833406E1,9.218349457E-1,-9.778269768E0,4.546362907E-2
1.201860234E1,9.266205430E-1,-9.771091461E0,3.110669367E-2
1.203900234E1,9.098708034E-1,-9.759127617E0,1.914258115E-2
1.205913890E1,8.979067206E-1,-9.790233612E0,2.632104978E-2
1.207940724E1,9.050851464E-1,-9.783055305E0,6.699903309E-2
1.209967547E1,9.481559992E-1,-9.787840843E0,6.221338734E-2
1.211994375E1,9.912267923E-1,-9.790233612E0,6.699903309E-2
1.214034375E1,1.017547846E0,-9.780662537E0,5.503492057E-2
1.216048031E1,1.043868899E0,-9.783055305E0,8.374879509E-2
1.218074859E1,1.000798106E0,-9.778269768E0,9.571290761E-2
1.220101687E1,9.337990284E-1,-9.771091461E0,5.982056633E-2
1.222128515E1,9.218349457E-1,-9.766305923E0,4.307080805E-2
1.224155344E1,9.601200819E-1,-9.778269768E0,6.221338734E-2
1.226182172E1,9.936196208E-1,-9.792626381E0,1.052841991E-1
1.228208995E1,9.960124493E-1,-9.790233612E0,1.220339537E-1
1.230235823E1,1.007976532E0,-9.775876999E0,1.220339537E-1
1.232262651E1,9.840483069E-1,-9.773484230E0,9.810572863E-2
1.234289474E1,9.816554785E-1,-9.783055305E0,9.332008660E-2
1.236328182E1,9.864411354E-1,-9.763913155E0,9.810572863E-2
1.238343130E1,1.029511929E0,-9.766305923E0,1.028913707E-1
1.240369953E1,1.067797065E0,-9.747162819E0,1.100698411E-1
1.242396781E1,1.046261668E0,-9.766305923E0,1.196411327E-1
1.244423604E1,9.577272534E-1,-9.754341125E0,1.459621787E-1
1.246450432E1,8.811569214E-1,-9.759127617E0,1.531406492E-1
1.248477250E1,8.787640929E-1,-9.771091461E0,1.387837082E-1
1.250504083E1,8.859425783E-1,-9.792626381E0,1.507478207E-1
1.252530906E1,9.242277741E-1,-9.797411919E0,1.531406492E-1
1.254557734E1,9.984052777E-1,-9.814162254E0,1.770688742E-1
1.256584557E1,1.031904817E0,-9.799804688E0,2.009970993E-1
1.258611380E1,1.003190875E0,-9.802198410E0,2.177468538E-1
1.260638203E1,1.003190875E0,-9.773484230E0,1.962114573E-1
1.262665031E1,9.936196208E-1,-9.771091461E0,1.651047617E-1
1.264691854E1,1.024726272E0,-9.761520386E0,1.459621787E-1
1.266718677E1,1.022333503E0,-9.761520386E0,1.268195957E-1
1.268745500E1,1.015154958E0,-9.761520386E0,1.124626622E-1
1.270772323E1,9.960124493E-1,-9.768698692E0,1.244267747E-1
1.272812323E1,9.960124493E-1,-9.780662537E0,1.531406492E-1
1.274825968E1,1.007976532E0,-9.797411919E0,1.842473447E-1
1.276852791E1,1.019940615E0,-9.797411919E0,2.273181528E-1
1.278879614E1,1.031904817E0,-9.790233612E0,2.201396823E-1
1.280906437E1,9.912267923E-1,-9.797411919E0,1.914258152E-1
1.282933260E1,9.577272534E-1,-9.804591179E0,1.866401732E-1
1.284960083E1,9.218349457E-1,-9.799804688E0,1.698904037E-1
1.286986906E1,9.170492887E-1,-9.792626381E0,1.770688742E-1
1.289013724E1,9.194421172E-1,-9.795019150E0,1.770688742E-1
1.291040547E1,9.577272534E-1,-9.780662537E0,1.698904037E-1
1.293067370E1,9.888339639E-1,-9.761520386E0,1.483550072E-1
1.295094187E1,9.960124493E-1,-9.747162819E0,1.172483116E-1
1.297121010E1,1.000798106E0,-9.742377281E0,9.810572863E-2
1.299147833E1,1.036690354E0,-9.768698692E0,9.332008660E-2
1.301174651E1,9.936196208E-1,-9.809376717E0,9.332008660E-2
1.303201474E1,9.505487680E-1,-9.816555023E0,1.172483116E-1
1.305228291E1,9.002995491E-1,-9.840482712E0,1.004985496E-1
1.307255114E1,8.979067206E-1,-9.869196892E0,1.100698411E-1
1.309281932E1,9.649057388E-1,-9.873982430E0,1.172483116E-1
1.311308750E1,1.079761267E0,-9.818947792E0,1.124626622E-1
1.313335573E1,1.240080357E0,-9.806983948E0,7.417750359E-2
1.315362390E1,1.329213023E0,-9.787840843E0,4.307080805E-2
1.317389208E1,1.355534077E0,-9.699306488E0,-1.256231871E-2
1.319416026E1,1.287936807E0,-9.663414001E0,-5.563312769E-2
1.321442849E1,1.228116274E0,-9.625128746E0,-1.250249892E-1
1.323469666E1,1.153938770E0,-9.637093544E0,-1.776670814E-1
1.325496484E1,1.015154958E0,-9.665806770E0,-2.159522474E-1
1.327523302E1,9.170492887E-1,-9.694520950E0,-1.872383654E-1
1.329550120E1,8.835497499E-1,-9.713663101E0,-1.130608693E-1
1.331576932E1,9.553344250E-1,-9.742377281E0,-1.495514158E-2
1.333603745E1,1.074975610E0,-9.780662537E0,8.614161611E-2
1.335630562E1,1.199402332E0,-9.811769485E0,1.483550072E-1
1.337657380E1,1.242473125E0,-9.866804123E0,1.674975902E-1
1.339684198E1,1.149153113E0,-9.888339996E0,1.698904037E-1
1.341711015E1,9.385846853E-1,-9.883553505E0,1.794617027E-1
1.343751015E1,7.950153351E-1,-9.883553505E0,1.842473447E-1
1.345776489E1,7.232306600E-1,-9.881160736E0,1.722832322E-1
1.347791505E1,7.423732281E-1,-9.842875481E0,1.531406492E-1
1.349818307E1,7.567301393E-1,-9.797411919E0,1.316052526E-1
1.351845120E1,7.830511928E-1,-9.787840843E0,7.417750359E-2
1.353885120E1,7.974081635E-1,-9.754341125E0,6.699903309E-2
1.355898745E1,8.668000102E-1,-9.742377281E0,5.742774159E-2
1.357925552E1,9.050851464E-1,-9.759127617E0,9.092725813E-2
1.359952364E1,9.026923180E-1,-9.766305923E0,8.614161611E-2
1.361979172E1,8.596215248E-1,-9.766305923E0,7.896314561E-2
1.364005984E1,7.974081635E-1,-9.792626381E0,1.028913707E-1
1.366032791E1,7.686942816E-1,-9.795019150E0,1.268195957E-1
1.368059604E1,7.256234884E-1,-9.783055305E0,1.316052526E-1
1.370086416E1,7.663014531E-1,-9.806983948E0,1.363908947E-1
1.372113229E1,8.261220455E-1,-9.814162254E0,1.483550072E-1
1.374140041E1,8.787640929E-1,-9.806983948E0,1.387837082E-1
1.376166854E1,9.002995491E-1,-9.838089943E0,1.316052526E-1
1.378193666E1,9.146564603E-1,-9.988838196E0,1.339980662E-1
1.380220479E1,8.691928387E-1,-9.981659889E0,1.818545163E-1
1.382247291E1,8.117650747E-1,-9.926624298E0,2.033899277E-1
1.384274099E1,8.644071817E-1,-9.869196892E0,1.531406492E-1
1.386314099E1,1.096511006E0,-9.790233612E0,1.028913707E-1
1.388327724E1,1.391426325E0,-9.672985077E0,1.076770201E-1
1.390354531E1,1.506281853E0,-9.646664619E0,1.292124242E-1
1.392381338E1,1.451246977E0,-9.617950439E0,8.374879509E-2
1.394408151E1,1.204187989E0,-9.565308571E0,-3.170489892E-2
1.396434963E1,8.428717852E-1,-9.522237778E0,-1.417747438E-1
1.398461771E1,5.653043389E-1,-9.538987160E0,-1.369891018E-1
1.400488583E1,4.504488707E-1,-9.591629982E0,-6.520441920E-2
1.402515390E1,5.030909777E-1,-9.672985077E0,5.982056633E-2
1.404542198E1,6.394818425E-1,-9.706484795E0,1.363908947E-1
1.406569010E1,8.141579032E-1,-9.818947792E0,3.326023519E-1
1.408595812E1,9.457631707E-1,-9.859625816E0,4.977070987E-1
1.410622620E1,9.505487680E-1,-9.919445992E0,6.388836503E-1
1.412649427E1,9.649057388E-1,-1.012762165E1,8.566305041E-1
1.414676239E1,8.955138922E-1,-1.017547798E1,9.236295223E-1
1.416703047E1,7.519445419E-1,-1.024008465E1,9.882357717E-1
1.418729854E1,6.418746710E-1,-1.022333431E1,1.074975610E0
1.420756661E1,5.509474277E-1,-1.001037312E1,9.619147182E-1
1.422783469E1,6.490531564E-1,-9.893125534E0,8.590233326E-1
1.424810276E1,9.625129104E-1,-9.979267120E0,9.810572863E-1
1.426837083E1,1.060618639E0,-9.850054741E0,8.159525394E-1
1.428863890E1,7.878368497E-1,-9.625128746E0,2.679961324E-1
1.430890698E1,5.030909777E-1,-9.574879646E0,-9.391828626E-2
1.432917505E1,3.068794906E-1,-9.546165466E0,-2.303091735E-1
1.434944312E1,1.938186288E-1,-9.582057953E0,-1.441675574E-1
1.436971109E1,3.044866920E-1,-9.572486877E0,1.363908947E-1
1.438997922E1,6.586244106E-1,-9.586843491E0,3.780659735E-1
1.441024729E1,1.060618639E0,-9.706484795E0,5.192425251E-1
1.443051531E1,1.268794179E0,-9.720842361E0,5.192425251E-1
1.445078338E1,1.225723386E0,-9.684949875E0,4.402793646E-1
1.447105146E1,9.984052777E-1,-9.730413437E0,4.378865361E-1
1.449131948E1,7.423732281E-1,-9.790233612E0,5.886343718E-1
1.451158755E1,6.658028960E-1,-9.900303841E0,7.848458290E-1
1.453185557E1,7.184450030E-1,-9.962516785E0,9.834501147E-1
1.455212364E1,7.423732281E-1,-1.001515961E1,1.232901812E0
1.457239166E1,7.088736892E-1,-9.933803558E0,1.316650629E0
1.459265969E1,6.921239495E-1,-9.783055305E0,1.098903775E0
1.461292776E1,5.940182209E-1,-9.598808289E0,8.039883971E-1
1.463319578E1,6.083751321E-1,-9.560523033E0,5.383850932E-1
1.465346380E1,8.093722463E-1,-9.629914284E0,4.211367965E-1
1.467373187E1,9.314061999E-1,-9.778269768E0,5.383850932E-1
1.469399984E1,9.361918569E-1,-9.909874916E0,8.207381964E-1
1.471426791E1,8.500502706E-1,-9.828518867E0,9.523434043E-1
1.473453594E1,7.519445419E-1,-9.701699257E0,9.403793216E-1
1.475480396E1,6.777670383E-1,-9.804591179E0,8.901300430E-1
1.477507198E1,6.490531564E-1,-9.687342644E0,8.614161611E-1
1.479534000E1,6.323033571E-1,-9.649057388E0,7.968099117E-1
1.481560802E1,6.083751321E-1,-9.761520386E0,7.752745152E-1
1.483587604E1,5.126622319E-1,-9.809376717E0,8.279166222E-1
1.485614396E1,5.389832854E-1,-9.584450722E0,8.303094506E-1
1.487641203E1,7.016952634E-1,-9.677771568E0,7.465606928E-1
1.489668005E1,8.524430394E-1,-9.864411354E0,7.202396393E-1
1.491694807E1,7.686942816E-1,-9.797411919E0,6.915257573E-1
1.493734807E1,5.964110494E-1,-9.771091461E0,6.101697683E-1
1.495748406E1,5.700899959E-1,-9.730413437E0,6.125625968E-1
1.497775203E1,6.993024349E-1,-9.677771568E0,5.982056856E-1
1.499802005E1,7.974081635E-1,-9.768698692E0,7.704889178E-1
1.501828802E1,7.663014531E-1,-9.802198410E0,9.116654396E-1
1.503868802E1,6.777670383E-1,-9.773484230E0,9.164510965E-1
1.505882401E1,6.442674994E-1,-9.787840843E0,8.733802438E-1
1.507909198E1,5.557330847E-1,-9.799804688E0,8.446664214E-1
1.509936000E1,4.767699242E-1,-9.821340561E0,7.752745152E-1
1.511962797E1,5.126622319E-1,-9.818947792E0,7.657032609E-1
1.514002797E1,6.107679605E-1,-9.840482712E0,8.279166222E-1
1.516016390E1,6.442674994E-1,-9.814162254E0,8.087740541E-1
1.518043187E1,7.495517135E-1,-9.775876999E0,6.915257573E-1
1.520069984E1,8.811569214E-1,-9.701699257E0,5.886343718E-1
1.522096781E1,8.811569214E-1,-9.677771568E0,5.694918036E-1
1.524123578E1,8.309076428E-1,-9.737591743E0,6.269195080E-1
1.526150375E1,7.543373108E-1,-9.720842361E0,7.298108935E-1
1.528177172E1,6.610172391E-1,-9.711270332E0,7.872386575E-1
1.530203968E1,5.413761139E-1,-9.742377281E0,8.135597110E-1
1.532230760E1,4.025924206E-1,-9.735198975E0,7.968099117E-1
1.534257557E1,2.997010350E-1,-9.744770050E0,7.896314859E-1
1.536288281E1,2.488535494E-1,-9.771091461E0,7.872386575E-1
1.538311146E1,2.877369225E-1,-9.775876999E0,7.513462901E-1
1.540337942E1,4.169493318E-1,-9.754341125E0,6.604190469E-1
1.542364734E1,4.887340367E-1,-9.692128181E0,5.527420044E-1
1.544391531E1,5.533402562E-1,-9.706484795E0,4.139583111E-1
1.546418323E1,7.328019142E-1,-9.759127617E0,5.240281820E-1
1.548445114E1,9.840483069E-1,-9.850054741E0,7.345965505E-1
1.550471911E1,1.302891970E0,-9.838089943E0,8.303094506E-1
1.552498703E1,1.544566989E0,-9.806983948E0,7.776673436E-1
1.554525495E1,1.618744493E0,-9.766305923E0,7.561319470E-1
1.556552286E1,1.475175142E0,-9.773484230E0,7.561319470E-1
1.558579078E1,1.141974568E0,-9.799804688E0,7.274180651E-1
1.560605870E1,9.242277741E-1,-9.787840843E0,5.958128572E-1
1.562632666E1,8.596215248E-1,-9.759127617E0,5.168496966E-1
1.564659453E1,8.596215248E-1,-9.761520386E0,4.259224236E-1
1.566686245E1,9.385846853E-1,-9.814162254E0,4.115654826E-1
1.568713036E1,9.912267923E-1,-9.790233612E0,3.565305769E-1
1.570739828E1,9.601200819E-1,-9.783055305E0,2.249253243E-1
1.572766620E1,9.170492887E-1,-9.775876999E0,1.196411327E-1
1.574793411E1,8.835497499E-1,-9.713663101E0,3.828516230E-2
1.576820203E1,8.715856671E-1,-9.663414001E0,5.503492057E-2
1.578846989E1,8.548358679E-1,-9.684949875E0,1.579262912E-1
1.580873781E1,8.763712645E-1,-9.730413437E0,3.206382394E-1
1.582900573E1,9.672985673E-1,-9.802198410E0,5.335994363E-1
1.584927359E1,1.031904817E0,-9.811769485E0,5.551348329E-1
1.586954146E1,1.031904817E0,-9.823733330E0,5.288137794E-1
1.588980943E1,9.242277741E-1,-9.869196892E0,4.905286431E-1
1.591007729E1,8.117650747E-1,-9.811769485E0,4.881358147E-1
1.593034515E1,7.447660565E-1,-9.857233047E0,5.766702294E-1
1.595074515E1,8.668000102E-1,-1.004387283E1,7.489534616E-1
1.597088094E1,1.175474167E0,-9.864411354E0,6.149554253E-1
1.599114880E1,1.467996716E0,-9.739984512E0,3.780659735E-1
1.601141672E1,1.456032634E0,-9.763913155E0,7.896314561E-2
1.603168453E1,1.273579836E0,-9.751948357E0,-1.298106313E-1
1.605195245E1,1.149153113E0,-9.708877563E0,-1.561316848E-1
1.607222031E1,1.103689432E0,-9.749555588E0,8.614161611E-2
1.609248818E1,1.029511929E0,-9.799804688E0,2.967100143E-1
1.611275604E1,1.019940615E0,-9.818947792E0,3.661018610E-1
1.613302390E1,1.074975610E0,-9.780662537E0,2.943171859E-1
1.615329177E1,1.151545882E0,-9.775876999E0,1.746760458E-1
1.617355958E1,1.187438250E0,-9.792626381E0,1.387837082E-1
1.619382739E1,1.141974568E0,-9.771091461E0,2.129612118E-1
1.621409526E1,1.103689432E0,-9.866804123E0,2.751746178E-1
1.623436312E1,1.027119160E0,-9.823733330E0,2.656033039E-1
1.625463099E1,9.481559992E-1,-9.759127617E0,1.651047617E-1
1.627489880E1,9.002995491E-1,-9.771091461E0,1.220339537E-1
1.629516666E1,8.644071817E-1,-9.763913155E0,1.962114573E-1
1.631543448E1,8.668000102E-1,-9.835697174E0,3.230310678E-1
1.633570234E1,8.644071817E-1,-9.852447510E0,3.756731451E-1
1.635597010E1,8.596215248E-1,-9.790233612E0,2.991028428E-1
1.637623802E1,8.715856671E-1,-9.802198410E0,1.579262912E-1
1.639650583E1,8.691928387E-1,-9.747162819E0,7.417750359E-2
1.641677364E1,9.194421172E-1,-9.728020668E0,3.110669367E-2
1.643717364E1,9.625129104E-1,-9.761520386E0,7.896314561E-2
1.645746724E1,9.720842242E-1,-9.783055305E0,1.196411327E-1
1.647757765E1,9.625129104E-1,-9.783055305E0,1.292124242E-1
1.649784536E1,9.577272534E-1,-9.754341125E0,6.939185411E-2
1.651811312E1,9.768698215E-1,-9.723235130E0,4.785645287E-3
1.653851312E1,9.696913958E-1,-9.692128181E0,7.178467698E-3
1.655864864E1,9.672985673E-1,-9.751948357E0,4.067798331E-2
1.657891640E1,9.625129104E-1,-9.773484230E0,9.332008660E-2
1.659918416E1,9.840483069E-1,-9.756733894E0,1.459621787E-1
1.661945187E1,9.337990284E-1,-9.732806206E0,1.531406492E-1
1.663971963E1,9.218349457E-1,-9.799804688E0,1.698904037E-1
1.665998745E1,9.433703423E-1,-9.838089943E0,2.249253243E-1
1.668025521E1,9.337990284E-1,-9.833304405E0,3.158525825E-1
1.670052297E1,8.404789567E-1,-9.866804123E0,3.613162339E-1
1.672079078E1,7.734799385E-1,-9.859625816E0,2.895315289E-1
1.674105859E1,7.926225066E-1,-9.838089943E0,2.057827413E-1
1.676132635E1,8.356932998E-1,-9.811769485E0,1.459621787E-1
1.678159416E1,9.170492887E-1,-9.787840843E0,1.292124242E-1
1.680186192E1,1.000798106E0,-9.775876999E0,1.268195957E-1
1.682212968E1,1.046261668E0,-9.761520386E0,1.004985496E-1
1.684239750E1,1.051047325E0,-9.723235130E0,6.221338734E-2
1.686266526E1,1.070189953E0,-9.723235130E0,-0.000000000E0
1.688293307E1,1.106082320E0,-9.718449593E0,-7.178467698E-3
1.690320083E1,1.153938770E0,-9.694520950E0,-4.785645287E-3
1.692346859E1,1.187438250E0,-9.725627899E0,7.178467698E-3
1.694373635E1,1.165902853E0,-9.744770050E0,4.307080805E-2
1.696400411E1,1.113260746E0,-9.773484230E0,9.332008660E-2
1.698427187E1,1.089332461E0,-9.795019150E0,1.387837082E-1
1.700453963E1,1.072582722E0,-9.816555023E0,2.057827413E-1
1.702480739E1,1.051047325E0,-9.840482712E0,2.512463629E-1
1.704507515E1,1.024726272E0,-9.840482712E0,2.201396823E-1
1.706534291E1,9.888339639E-1,-9.838089943E0,1.962114573E-1
1.708561068E1,9.529415965E-1,-9.842875481E0,1.698904037E-1
1.710587838E1,9.050851464E-1,-9.804591179E0,1.674975902E-1
1.712614614E1,8.739784956E-1,-9.795019150E0,1.986042857E-1
1.714641390E1,8.811569214E-1,-9.806983948E0,1.627119333E-1
1.716668161E1,9.601200819E-1,-9.790233612E0,1.555334777E-1
1.718694937E1,9.984052777E-1,-9.787840843E0,1.746760458E-1
1.720721713E1,1.060618639E0,-9.795019150E0,2.249253243E-1
1.722761713E1,1.067797065E0,-9.809376717E0,2.536391914E-1
1.724775260E1,1.094118118E0,-9.775876999E0,2.823530734E-1
1.726802031E1,1.084546804E0,-9.773484230E0,2.919243574E-1
1.728828807E1,1.067797065E0,-9.785448074E0,2.967100143E-1
1.730855578E1,1.074975610E0,-9.806983948E0,2.560320199E-1
1.732882349E1,1.022333503E0,-9.795019150E0,2.536391914E-1
1.734909120E1,9.840483069E-1,-9.783055305E0,2.249253243E-1
1.736935890E1,9.649057388E-1,-9.759127617E0,1.986042857E-1
1.738962666E1,9.864411354E-1,-9.763913155E0,1.818545163E-1
1.740989437E1,1.055832982E0,-9.749555588E0,1.914258152E-1
1.743016208E1,1.125224829E0,-9.763913155E0,2.297109663E-1
1.745042979E1,1.144367456E0,-9.759127617E0,2.751746178E-1
1.747069750E1,1.149153113E0,-9.773484230E0,2.656033039E-1
1.749096521E1,1.108475089E0,-9.754341125E0,2.129612118E-1
1.751123291E1,1.067797065E0,-9.759127617E0,1.579262912E-1
1.753156677E1,1.043868899E0,-9.739984512E0,1.363908947E-1
1.755196677E1,1.012762189E0,-9.751948357E0,1.244267747E-1
1.757203604E1,9.840483069E-1,-9.783055305E0,1.627119333E-1
1.759243604E1,9.649057388E-1,-9.787840843E0,1.818545163E-1
1.761272932E1,9.553344250E-1,-9.773484230E0,1.698904037E-1
1.763299713E1,9.266205430E-1,-9.780662537E0,1.555334777E-1
1.765310750E1,9.002995491E-1,-9.783055305E0,1.507478207E-1
1.767350750E1,8.811569214E-1,-9.790233612E0,1.651047617E-1
1.769364271E1,9.433703423E-1,-9.795019150E0,1.938186288E-1
1.771391031E1,9.457631707E-1,-9.792626381E0,2.201396823E-1
1.773431031E1,9.266205430E-1,-9.795019150E0,1.794617027E-1
1.775444562E1,9.050851464E-1,-9.783055305E0,1.459621787E-1
1.777471323E1,9.242277741E-1,-9.763913155E0,1.196411327E-1
1.779498083E1,9.457631707E-1,-9.771091461E0,1.196411327E-1
1.781524849E1,9.672985673E-1,-9.763913155E0,1.316052526E-1
1.783564849E1,9.577272534E-1,-9.761520386E0,1.316052526E-1
1.785578380E1,9.840483069E-1,-9.766305923E0,1.292124242E-1
1.787605140E1,9.984052777E-1,-9.759127617E0,1.052841991E-1
1.789631911E1,9.649057388E-1,-9.759127617E0,1.028913707E-1
1.791658672E1,9.194421172E-1,-9.780662537E0,1.052841991E-1
1.793698672E1,9.242277741E-1,-9.773484230E0,1.268195957E-1
1.795712208E1,8.979067206E-1,-9.773484230E0,1.651047617E-1
1.797738979E1,9.170492887E-1,-9.780662537E0,1.914258152E-1
1.799765745E1,9.098708034E-1,-9.809376717E0,2.153540403E-1
1.801792510E1,8.907282352E-1,-9.811769485E0,2.321037948E-1
1.803832510E1,8.835497499E-1,-9.799804688E0,2.488535494E-1
1.805846047E1,8.668000102E-1,-9.814162254E0,2.560320199E-1
1.807872818E1,8.476574421E-1,-9.797411919E0,2.488535494E-1
1.809899588E1,8.644071817E-1,-9.785448074E0,2.273181528E-1
1.811926354E1,8.500502706E-1,-9.785448074E0,1.818545163E-1
1.813966354E1,8.763712645E-1,-9.775876999E0,1.603191197E-1
1.815979890E1,9.098708034E-1,-9.783055305E0,2.033899277E-1
1.818006656E1,9.218349457E-1,-9.766305923E0,2.368894368E-1
1.820033427E1,9.074779749E-1,-9.785448074E0,2.392822653E-1
1.822060192E1,9.122636318E-1,-9.761520386E0,2.416750938E-1
1.824086963E1,9.601200819E-1,-9.787840843E0,2.368894368E-1
1.826113729E1,9.960124493E-1,-9.797411919E0,2.129612118E-1
1.828140500E1,1.015154958E0,-9.775876999E0,1.938186288E-1
1.830167265E1,1.015154958E0,-9.787840843E0,2.201396823E-1
1.832194036E1,1.000798106E0,-9.773484230E0,2.344966233E-1
1.834220802E1,9.888339639E-1,-9.806983948E0,3.038884699E-1
1.836247573E1,1.000798106E0,-9.787840843E0,3.014956415E-1
1.838274338E1,1.034297585E0,-9.766305923E0,2.512463629E-1
1.840301109E1,1.086939692E0,-9.797411919E0,2.057827413E-1
1.842327880E1,1.046261668E0,-9.830911636E0,2.033899277E-1
1.844354646E1,9.768698215E-1,-9.816555023E0,2.656033039E-1
1.846381416E1,9.984052777E-1,-9.826126099E0,3.278166950E-1
1.848408187E1,1.005583763E0,-9.826126099E0,3.852444589E-1
1.850434953E1,9.672985673E-1,-9.840482712E0,3.230310678E-1
1.852461724E1,9.050851464E-1,-9.795019150E0,3.924229145E-1
1.854488489E1,9.266205430E-1,-9.895518303E0,4.737788737E-1
1.856515260E1,8.883354068E-1,-9.876375198E0,5.718846321E-1
1.858553687E1,9.242277741E-1,-9.835697174E0,7.106683254E-1
1.860567646E1,1.048654556E0,-9.866804123E0,7.800601721E-1
1.862594401E1,1.247258782E0,-9.881160736E0,9.212366939E-1
1.864634651E1,1.439282775E0,-9.838089943E0,8.207381964E-1
1.866648370E1,1.420140266E0,-9.704092026E0,4.761717021E-1
1.868675281E1,1.074975610E0,-9.668199539E0,2.536391914E-1
1.870702177E1,5.820540786E-1,-9.625128746E0,1.962114573E-1
1.872728937E1,1.411765367E-1,-9.594022751E0,8.853443712E-2
1.874769041E1,1.914258115E-2,-9.634700775E0,-4.845465720E-2
1.876782661E1,2.105683982E-1,-9.627521515E0,-1.974078640E-2
1.878809484E1,6.275177598E-1,-9.708877563E0,1.698904037E-1
1.880836307E1,1.055832982E0,-9.766305923E0,4.594219327E-1
1.882863073E1,1.273579836E0,-9.706484795E0,6.364908218E-1
1.884903120E1,1.333998680E0,-9.763913155E0,6.077769399E-1
1.886916687E1,1.314856052E0,-9.814162254E0,5.407779217E-1
1.888943479E1,1.261615753E0,-9.811769485E0,5.288137794E-1
1.890970271E1,1.218544960E0,-9.816555023E0,5.647061467E-1
1.892997041E1,1.096511006E0,-9.811769485E0,6.388836503E-1
1.895037062E1,8.955138922E-1,-9.811769485E0,5.790630579E-1
1.897050620E1,6.610172391E-1,-9.799804688E0,4.666004181E-1
1.899077406E1,5.030909777E-1,-9.830911636E0,4.737788737E-1
1.901104182E1,5.892325640E-1,-9.799804688E0,5.288137794E-1
1.903137609E1,7.328019142E-1,-9.768698692E0,5.096712112E-1
1.905177609E1,8.883354068E-1,-9.790233612E0,4.139583111E-1
1.907184541E1,1.010369420E0,-9.771091461E0,3.852444589E-1
1.909219182E1,9.409775138E-1,-9.768698692E0,4.307080805E-1
1.911253849E1,8.380861282E-1,-9.751948357E0,3.469592929E-1
1.913280630E1,8.739784956E-1,-9.766305923E0,3.756731451E-1
1.915291672E1,9.505487680E-1,-9.761520386E0,4.809573591E-1
1.917318437E1,9.146564603E-1,-9.792626381E0,4.713860750E-1
1.919345203E1,8.620143533E-1,-9.773484230E0,3.804588020E-1
1.921371974E1,8.165507317E-1,-9.756733894E0,3.445664644E-1
1.923411974E1,8.165507317E-1,-9.778269768E0,3.684946895E-1
1.925425515E1,9.026923180E-1,-9.756733894E0,3.565305769E-1
1.927452281E1,9.122636318E-1,-9.747162819E0,3.254238665E-1
1.929479052E1,8.931210637E-1,-9.773484230E0,3.326023519E-1
1.931505823E1,8.548358679E-1,-9.775876999E0,4.091726840E-1
1.933545823E1,8.285148144E-1,-9.787840843E0,4.426721931E-1
1.935559370E1,8.380861282E-1,-9.780662537E0,5.096712112E-1
1.937586140E1,8.715856671E-1,-9.787840843E0,5.431707501E-1
1.939612916E1,8.811569214E-1,-9.773484230E0,4.570291340E-1
1.941639687E1,8.309076428E-1,-9.763913155E0,3.302095234E-1
1.943679687E1,8.117650747E-1,-9.761520386E0,3.517449200E-1
1.945709031E1,8.045865893E-1,-9.785448074E0,4.618147612E-1
1.947720073E1,8.907282352E-1,-9.792626381E0,4.809573591E-1
1.949746833E1,9.625129104E-1,-9.759127617E0,4.283152521E-1
1.951773604E1,9.266205430E-1,-9.754341125E0,3.972085714E-1
1.953813604E1,8.620143533E-1,-9.795019150E0,4.426721931E-1
1.955827140E1,8.524430394E-1,-9.763913155E0,4.857429862E-1
1.957853906E1,8.380861282E-1,-9.761520386E0,4.785645306E-1
1.959880677E1,8.548358679E-1,-9.771091461E0,4.235295951E-1
1.961907442E1,8.548358679E-1,-9.797411919E0,4.929214716E-1
1.963934218E1,7.854440212E-1,-9.778269768E0,5.120640397E-1
1.965960989E1,7.615157962E-1,-9.780662537E0,5.096712112E-1
1.967987760E1,8.069794178E-1,-9.775876999E0,5.359922647E-1
1.970014531E1,8.380861282E-1,-9.778269768E0,5.359922647E-1
1.972041307E1,8.380861282E-1,-9.799804688E0,5.359922647E-1
1.974064151E1,8.021938205E-1,-9.778269768E0,5.431707501E-1
1.976094849E1,8.069794178E-1,-9.756733894E0,5.216353536E-1
1.978121625E1,8.620143533E-1,-9.773484230E0,4.977070987E-1
1.980148401E1,9.002995491E-1,-9.766305923E0,5.024927258E-1
1.982175182E1,8.835497499E-1,-9.756733894E0,4.857429862E-1
1.984201948E1,8.428717852E-1,-9.771091461E0,4.857429862E-1
1.986228729E1,8.500502706E-1,-9.756733894E0,4.809573591E-1
1.988255505E1,8.739784956E-1,-9.783055305E0,4.833501875E-1
1.990282276E1,9.553344250E-1,-9.780662537E0,4.737788737E-1
1.992309052E1,1.012762189E0,-9.763913155E0,4.929214716E-1
1.994335828E1,1.082154036E0,-9.783055305E0,5.694918036E-1
1.996362604E1,1.058225870E0,-9.778269768E0,5.168496966E-1
1.998389375E1,9.409775138E-1,-9.775876999E0,4.618147612E-1
2.000416151E1,9.098708034E-1,-9.763913155E0,4.522434771E-1
2.002442927E1,9.457631707E-1,-9.763913155E0,5.383850932E-1
2.004469703E1,9.409775138E-1,-9.783055305E0,5.790630579E-1
2.006496479E1,9.361918569E-1,-9.790233612E0,5.192425251E-1
2.008523250E1,9.194421172E-1,-9.790233612E0,4.881358147E-1
2.010550021E1,9.505487680E-1,-9.780662537E0,5.288137794E-1
2.012576802E1,9.601200819E-1,-9.785448074E0,5.144568682E-1
2.014616797E1,1.000798106E0,-9.778269768E0,5.288137794E-1
2.016630344E1,9.672985673E-1,-9.790233612E0,5.670989752E-1
2.018657120E1,9.146564603E-1,-9.771091461E0,5.599204898E-1
2.020683896E1,8.883354068E-1,-9.802198410E0,5.024927258E-1
2.022710666E1,9.098708034E-1,-9.742377281E0,4.019941986E-1
2.024750666E1,9.026923180E-1,-9.747162819E0,3.517449200E-1
2.026764218E1,9.170492887E-1,-9.754341125E0,4.187439680E-1
2.028790989E1,9.026923180E-1,-9.802198410E0,4.977070987E-1
2.030817765E1,8.979067206E-1,-9.790233612E0,5.168496966E-1
2.032844536E1,9.361918569E-1,-9.768698692E0,4.331009090E-1
2.034884536E1,8.931210637E-1,-9.766305923E0,4.043870270E-1
2.036898083E1,8.428717852E-1,-9.766305923E0,4.139583111E-1
2.038924859E1,8.309076428E-1,-9.787840843E0,4.354937077E-1
2.040951630E1,8.165507317E-1,-9.775876999E0,4.570291340E-1
2.042978406E1,9.218349457E-1,-9.773484230E0,4.426721931E-1
2.045005177E1,1.010369420E0,-9.759127617E0,4.402793646E-1
2.047045177E1,1.053440213E0,-9.763913155E0,4.019941986E-1
2.049058724E1,1.003190875E0,-9.785448074E0,3.349951804E-1
2.051085500E1,9.050851464E-1,-9.756733894E0,3.086741269E-1
2.053118885E1,8.452646136E-1,-9.756733894E0,3.349951804E-1
2.055158885E1,8.069794178E-1,-9.816555023E0,4.043870270E-1
2.057165818E1,8.165507317E-1,-9.833304405E0,5.024927258E-1
2.059192594E1,8.572286963E-1,-9.785448074E0,5.024927258E-1
2.061231239E1,9.266205430E-1,-9.768698692E0,4.067798555E-1
2.063261927E1,9.912267923E-1,-9.809376717E0,3.852444589E-1
2.065288713E1,9.672985673E-1,-9.811769485E0,4.881358147E-1
2.067315489E1,8.979067206E-1,-9.775876999E0,5.024927258E-1
2.069342265E1,8.404789567E-1,-9.787840843E0,3.206382394E-1
2.071369041E1,8.548358679E-1,-9.771091461E0,1.962114573E-1
2.073395818E1,9.026923180E-1,-9.749555588E0,2.297109663E-1
2.075406859E1,9.218349457E-1,-9.763913155E0,2.751746178E-1
2.077433609E1,9.385846853E-1,-9.797411919E0,2.823530734E-1
2.079460370E1,9.433703423E-1,-9.766305923E0,3.230310678E-1
2.081487135E1,9.218349457E-1,-9.787840843E0,3.014956415E-1
2.083527135E1,9.649057388E-1,-9.806983948E0,2.871387303E-1
2.085540666E1,1.010369420E0,-9.766305923E0,3.230310678E-1
2.087567427E1,1.024726272E0,-9.799804688E0,3.684946895E-1
2.089594193E1,1.005583763E0,-9.785448074E0,4.067798555E-1
2.091620958E1,9.696913958E-1,-9.773484230E0,3.684946895E-1
2.093660958E1,9.481559992E-1,-9.811769485E0,3.661018610E-1
2.095674500E1,9.218349457E-1,-9.790233612E0,3.972085714E-1
2.097701265E1,8.811569214E-1,-9.780662537E0,3.230310678E-1
2.099728036E1,8.572286963E-1,-9.799804688E0,2.871387303E-1
2.101754802E1,8.787640929E-1,-9.751948357E0,2.847459018E-1
2.103794802E1,9.409775138E-1,-9.768698692E0,3.326023519E-1
2.105808344E1,9.577272534E-1,-9.802198410E0,4.163511395E-1
2.107835114E1,9.481559992E-1,-9.785448074E0,3.637090325E-1
2.109861885E1,9.553344250E-1,-9.759127617E0,2.656033039E-1
2.111888656E1,9.840483069E-1,-9.751948357E0,3.230310678E-1
2.113928656E1,9.744769931E-1,-9.766305923E0,4.426721931E-1
2.115942198E1,9.529415965E-1,-9.826126099E0,4.354937077E-1
2.117968968E1,9.816554785E-1,-9.780662537E0,3.397808075E-1
2.119995734E1,1.007976532E0,-9.763913155E0,3.110669553E-1
2.122022505E1,1.031904817E0,-9.771091461E0,3.684946895E-1
2.124049276E1,1.043868899E0,-9.790233612E0,3.661018610E-1
2.126076047E1,1.019940615E0,-9.790233612E0,3.756731451E-1
2.128102812E1,1.027119160E0,-9.790233612E0,3.349951804E-1
2.130129583E1,1.017547846E0,-9.773484230E0,3.924229145E-1
2.132156354E1,9.720842242E-1,-9.766305923E0,4.713860750E-1
2.134183125E1,9.361918569E-1,-9.802198410E0,4.929214716E-1
2.136209890E1,9.672985673E-1,-9.790233612E0,4.713860750E-1
2.138236661E1,9.696913958E-1,-9.806983948E0,5.144568682E-1
2.140263432E1,9.290133715E-1,-9.783055305E0,4.737788737E-1
2.142290198E1,8.715856671E-1,-9.756733894E0,3.876372576E-1
2.144316968E1,9.481559992E-1,-9.778269768E0,4.474578202E-1
2.146343734E1,1.000798106E0,-9.783055305E0,6.053841114E-1
2.148370505E1,9.361918569E-1,-9.756733894E0,5.335994363E-1
2.150397276E1,8.548358679E-1,-9.792626381E0,4.737788737E-1
2.152424041E1,9.218349457E-1,-9.768698692E0,4.354937077E-1
2.154450812E1,1.019940615E0,-9.739984512E0,5.120640397E-1
2.156477578E1,1.017547846E0,-9.797411919E0,6.675975323E-1
2.158504344E1,9.385846853E-1,-9.804591179E0,7.441678643E-1
2.160531114E1,9.194421172E-1,-9.775876999E0,6.843472719E-1
2.162557880E1,9.146564603E-1,-9.778269768E0,6.221339107E-1
2.164584646E1,8.404789567E-1,-9.787840843E0,5.599204898E-1
2.166611411E1,7.782655358E-1,-9.761520386E0,4.833501875E-1
2.168638182E1,8.763712645E-1,-9.766305923E0,4.450650215E-1
2.170664953E1,9.744769931E-1,-9.754341125E0,5.479564071E-1
2.172691718E1,1.003190875E0,-9.728020668E0,7.154539824E-1
2.174731718E1,9.385846853E-1,-9.742377281E0,7.680960894E-1
2.176745250E1,8.859425783E-1,-9.749555588E0,7.106683254E-1
2.178772015E1,8.691928387E-1,-9.773484230E0,7.178468108E-1
2.180798781E1,9.505487680E-1,-9.730413437E0,6.891329288E-1
2.182825547E1,9.649057388E-1,-9.723235130E0,6.628118753E-1
2.184865547E1,9.337990284E-1,-9.761520386E0,6.867401004E-1
2.186879078E1,8.165507317E-1,-9.773484230E0,7.082754970E-1
2.188905844E1,7.734799385E-1,-9.763913155E0,6.987041831E-1
2.190932614E1,8.069794178E-1,-9.763913155E0,6.652047038E-1
2.192959380E1,8.428717852E-1,-9.759127617E0,6.436693072E-1
2.194999380E1,9.242277741E-1,-9.728020668E0,4.689932466E-1
2.197012906E1,1.072582722E0,-9.747162819E0,4.809573591E-1
2.199039672E1,1.132403374E0,-9.756733894E0,5.144568682E-1
2.201066437E1,1.051047325E0,-9.732806206E0,5.240281820E-1
2.203093203E1,1.103689432E0,-9.735198975E0,4.235295951E-1
2.205119963E1,1.082154036E0,-9.692128181E0,3.852444589E-1
2.207146724E1,9.744769931E-1,-9.708877563E0,3.972085714E-1
2.209173489E1,9.050851464E-1,-9.730413437E0,3.661018610E-1
2.211200255E1,9.002995491E-1,-9.747162819E0,3.613162339E-1
2.213227015E1,8.404789567E-1,-9.704092026E0,4.091726840E-1
2.215253781E1,7.782655358E-1,-9.677771568E0,3.732803464E-1
2.217292416E1,7.639086246E-1,-9.737591743E0,4.235295951E-1
2.219307307E1,7.591229677E-1,-9.792626381E0,5.647061467E-1
2.221334073E1,7.663014531E-1,-9.814162254E0,6.652047038E-1
2.223360828E1,8.069794178E-1,-9.830911636E0,6.077769399E-1
2.225387599E1,8.452646136E-1,-9.802198410E0,4.881358147E-1
2.227414359E1,8.572286963E-1,-9.804591179E0,5.048855543E-1
2.229441120E1,7.806583643E-1,-9.876375198E0,5.814558864E-1
2.231467885E1,7.016952634E-1,-9.862018585E0,6.317051649E-1
2.233494646E1,6.969096065E-1,-9.790233612E0,5.000999570E-1
2.235521411E1,7.854440212E-1,-9.728020668E0,3.158525825E-1
2.237548172E1,8.620143533E-1,-9.778269768E0,2.464607358E-1
2.239574932E1,8.548358679E-1,-9.749555588E0,2.632105052E-1
2.241601698E1,8.787640929E-1,-9.692128181E0,1.986042857E-1
2.243628458E1,8.835497499E-1,-9.699306488E0,1.124626622E-1
2.245655219E1,8.404789567E-1,-9.680164337E0,6.221338734E-2
2.247681984E1,8.333004713E-1,-9.668199539E0,8.374879509E-2
2.249708745E1,9.505487680E-1,-9.644271851E0,1.076770201E-1
2.251735510E1,1.185045362E0,-9.699306488E0,3.349951655E-2
2.253762265E1,1.256830096E0,-9.689735413E0,2.871387079E-2
2.255789031E1,1.295115232E0,-9.723235130E0,3.349951655E-2
2.257815791E1,1.297508121E0,-9.783055305E0,1.052841991E-1
2.259842552E1,1.287936807E0,-9.816555023E0,1.363908947E-1
2.261869312E1,1.275972724E0,-9.840482712E0,1.603191197E-1
2.263909312E1,1.280758262E0,-9.847661972E0,1.651047617E-1
2.265922838E1,1.223330617E0,-9.890732765E0,1.507478207E-1
2.267949599E1,1.127617717E0,-9.976874352E0,1.507478207E-1
2.269976359E1,1.036690354E0,-1.003908730E1,2.129612118E-1
2.272003125E1,9.337990284E-1,-9.957731247E0,2.321037948E-1
2.274043125E1,8.955138922E-1,-9.919445992E0,1.244267747E-1
2.276056646E1,7.998009920E-1,-9.881160736E0,7.178467698E-3
2.278083406E1,7.112665176E-1,-9.866804123E0,-4.127619043E-2
2.280110166E1,7.016952634E-1,-9.823733330E0,-4.127619043E-2
2.282136932E1,6.825526357E-1,-9.792626381E0,-5.084748194E-2
2.284163693E1,7.184450030E-1,-9.773484230E0,-1.441675574E-1
2.286190453E1,8.021938205E-1,-9.728020668E0,-2.159522474E-1
2.288217213E1,8.309076428E-1,-9.689735413E0,-2.255235314E-1
2.290243974E1,8.093722463E-1,-9.706484795E0,-1.369891018E-1
2.292270734E1,8.213363886E-1,-9.732806206E0,-6.281159073E-2
2.294297495E1,8.476574421E-1,-9.737591743E0,-7.477571070E-2
2.296324255E1,8.524430394E-1,-9.735198975E0,-7.716853172E-2
2.298351010E1,8.572286963E-1,-9.797411919E0,-7.238288224E-2
2.300377776E1,8.380861282E-1,-9.814162254E0,-7.178467698E-3
2.302404536E1,8.261220455E-1,-9.795019150E0,-0.000000000E0
2.304431297E1,8.476574421E-1,-9.763913155E0,-9.571290575E-3
2.306458057E1,8.931210637E-1,-9.823733330E0,-4.845465720E-2
2.308484818E1,9.290133715E-1,-9.833304405E0,2.392822644E-3
2.310511583E1,8.955138922E-1,-9.783055305E0,3.110669367E-2
2.312538344E1,8.500502706E-1,-9.809376717E0,-3.409772366E-2
2.314565104E1,7.782655358E-1,-9.811769485E0,-2.931207791E-2
2.316591864E1,7.112665176E-1,-9.826126099E0,2.632104978E-2
2.318618625E1,7.423732281E-1,-9.818947792E0,5.024927482E-2
2.320645385E1,7.806583643E-1,-9.835697174E0,6.939185411E-2
2.322672140E1,7.328019142E-1,-9.833304405E0,7.896314561E-2
2.324712140E1,7.088736892E-1,-9.804591179E0,7.896314561E-2
2.326725661E1,7.040880919E-1,-9.773484230E0,7.657032460E-2
2.328752422E1,6.753742099E-1,-9.787840843E0,6.460621208E-2
2.330779182E1,6.897311211E-1,-9.775876999E0,2.871387079E-2
2.332805943E1,6.681957245E-1,-9.759127617E0,2.871387079E-2
2.334845942E1,6.227321029E-1,-9.792626381E0,1.172483116E-1
2.336859458E1,5.988038778E-1,-9.814162254E0,1.411765367E-1
2.338886614E1,5.748756528E-1,-9.790233612E0,8.374879509E-2
2.340916833E1,6.251249313E-1,-9.763913155E0,2.632104978E-2
2.342939677E1,6.969096065E-1,-9.780662537E0,1.004985496E-1
2.344966432E1,7.280163169E-1,-9.780662537E0,1.316052526E-1
2.347006442E1,6.873382926E-1,-9.795019150E0,1.603191197E-1
2.349019974E1,6.801598072E-1,-9.833304405E0,1.603191197E-1
2.351046739E1,6.370890141E-1,-9.847661972E0,1.938186288E-1
2.353073505E1,6.179464459E-1,-9.826126099E0,1.962114573E-1
2.355100271E1,6.466603279E-1,-9.833304405E0,1.890329868E-1
2.357127031E1,7.232306600E-1,-9.811769485E0,1.531406492E-1
2.359153791E1,7.663014531E-1,-9.761520386E0,1.124626622E-1
2.361180557E1,7.280163169E-1,-9.725627899E0,9.332008660E-2
2.363207312E1,6.562315822E-1,-9.759127617E0,1.172483116E-1
2.365234073E1,6.203392744E-1,-9.742377281E0,1.052841991E-1
2.367272708E1,5.700899959E-1,-9.744770050E0,4.067798331E-2
2.369287594E1,6.227321029E-1,-9.828518867E0,1.076770201E-1
2.371314349E1,7.256234884E-1,-9.818947792E0,2.751746178E-1
2.373341104E1,6.945167780E-1,-9.854840279E0,3.565305769E-1
2.375367864E1,5.964110494E-1,-9.881160736E0,2.991028428E-1
2.377394620E1,5.581258535E-1,-9.864411354E0,1.938186288E-1
2.379421380E1,7.016952634E-1,-9.756733894E0,1.579262912E-1
2.381448135E1,7.878368497E-1,-9.780662537E0,5.264209956E-2
2.383474890E1,7.806583643E-1,-9.768698692E0,6.699903309E-2
2.385501651E1,6.993024349E-1,-9.756733894E0,9.571290761E-2
2.387528411E1,7.016952634E-1,-9.739984512E0,6.699903309E-2
2.389555166E1,7.543373108E-1,-9.763913155E0,5.024927482E-2
2.391581922E1,7.256234884E-1,-9.754341125E0,5.742774159E-2
2.393608677E1,6.610172391E-1,-9.787840843E0,1.100698411E-1
2.395635437E1,6.299105883E-1,-9.792626381E0,1.316052526E-1
2.397662192E1,6.753742099E-1,-9.775876999E0,7.178468257E-2
2.399688943E1,7.878368497E-1,-9.763913155E0,7.657032460E-2
2.401715703E1,8.309076428E-1,-9.811769485E0,1.244267747E-1
2.403742453E1,8.787640929E-1,-9.826126099E0,1.651047617E-1
2.405769203E1,9.361918569E-1,-9.823733330E0,1.651047617E-1
2.407795573E1,9.601200819E-1,-9.785448074E0,9.092725813E-2
2.409818864E1,1.005583763E0,-9.766305923E0,5.982056633E-2
2.411849536E1,9.720842242E-1,-9.802198410E0,9.571290761E-2
2.413876276E1,8.045865893E-1,-9.811769485E0,1.100698411E-1
2.415903036E1,7.040880919E-1,-9.804591179E0,3.349951655E-2
2.417929734E1,7.112665176E-1,-9.840482712E0,3.828516230E-2
2.419956489E1,8.237292171E-1,-9.852447510E0,1.411765367E-1
2.421983239E1,9.146564603E-1,-9.833304405E0,2.081755698E-1
2.424010000E1,9.194421172E-1,-9.830911636E0,2.105683982E-1
2.426036755E1,9.050851464E-1,-9.775876999E0,9.332008660E-2
2.428063510E1,9.218349457E-1,-9.775876999E0,9.571290575E-3
2.430090260E1,9.194421172E-1,-9.780662537E0,1.196411345E-2
2.432117015E1,9.361918569E-1,-9.775876999E0,4.546362907E-2
2.434143771E1,9.266205430E-1,-9.763913155E0,9.571290761E-2
2.436170521E1,9.218349457E-1,-9.768698692E0,7.657032460E-2
2.438197276E1,8.285148144E-1,-9.763913155E0,4.546362907E-2
2.440224026E1,7.830511928E-1,-9.775876999E0,3.110669367E-2
2.442250781E1,7.926225066E-1,-9.766305923E0,3.828516230E-2
2.444277536E1,8.572286963E-1,-9.771091461E0,4.546362907E-2
2.446304286E1,9.170492887E-1,-9.792626381E0,5.024927482E-2
2.448331041E1,9.194421172E-1,-9.783055305E0,6.221338734E-2
2.450357791E1,8.739784956E-1,-9.766305923E0,5.024927482E-2
2.452384547E1,8.213363886E-1,-9.766305923E0,1.196411345E-2
2.454411297E1,8.093722463E-1,-9.761520386E0,-9.571290575E-3
2.456438047E1,7.950153351E-1,-9.792626381E0,1.914258115E-2
2.458464802E1,7.710871100E-1,-9.842875481E0,5.982056633E-2
2.460491552E1,7.902296782E-1,-9.852447510E0,1.268195957E-1
2.462518302E1,8.596215248E-1,-9.854840279E0,2.057827413E-1
2.464545057E1,1.000798106E0,-9.802198410E0,2.368894368E-1
2.466571807E1,1.137188911E0,-9.749555588E0,1.555334777E-1
2.468598557E1,1.177866936E0,-9.773484230E0,6.939185411E-2
2.470625307E1,1.113260746E0,-9.785448074E0,-1.495514158E-2
2.472652057E1,9.601200819E-1,-9.756733894E0,-6.759724021E-2
2.474692057E1,8.524430394E-1,-9.759127617E0,-1.537388563E-1
2.476705557E1,7.208378315E-1,-9.751948357E0,-1.537388563E-1
2.478732302E1,6.275177598E-1,-9.799804688E0,4.785645287E-3
2.480759057E1,7.543373108E-1,-9.818947792E0,1.316052526E-1
2.482785807E1,9.314061999E-1,-9.857233047E0,1.866401732E-1
2.484825807E1,1.048654556E0,-9.862018585E0,2.321037948E-1
2.486839307E1,1.031904817E0,-9.811769485E0,1.890329868E-1
2.488866057E1,9.960124493E-1,-9.804591179E0,1.268195957E-1
2.490892807E1,9.361918569E-1,-9.802198410E0,6.221338734E-2
2.492919557E1,8.835497499E-1,-9.744770050E0,3.349951655E-2
2.494959557E1,8.596215248E-1,-9.744770050E0,-1.734796353E-2
2.496973052E1,8.620143533E-1,-9.747162819E0,-3.409772366E-2
2.498999802E1,8.548358679E-1,-9.747162819E0,-2.931207791E-2
2.501026552E1,9.026923180E-1,-9.773484230E0,-4.785645287E-3
2.503053297E1,9.553344250E-1,-9.759127617E0,3.589234129E-2
2.505080047E1,9.960124493E-1,-9.766305923E0,7.178468257E-2
2.507106791E1,1.012762189E0,-9.785448074E0,9.810572863E-2
2.509133541E1,1.024726272E0,-9.804591179E0,9.332008660E-2
2.511160286E1,1.022333503E0,-9.795019150E0,9.092725813E-2
2.513187036E1,1.017547846E0,-9.780662537E0,7.178468257E-2
2.515213781E1,9.696913958E-1,-9.783055305E0,4.067798331E-2
2.517253781E1,9.505487680E-1,-9.763913155E0,2.632104978E-2
2.519267271E1,9.649057388E-1,-9.797411919E0,3.349951655E-2
2.521294021E1,9.601200819E-1,-9.787840843E0,4.067798331E-2
2.523320765E1,9.529415965E-1,-9.771091461E0,5.024927482E-2
2.525347510E1,9.672985673E-1,-9.778269768E0,3.828516230E-2
2.527374255E1,9.960124493E-1,-9.795019150E0,5.024927482E-2
2.529401005E1,1.017547846E0,-9.792626381E0,7.896314561E-2
2.531427750E1,9.912267923E-1,-9.778269768E0,7.178468257E-2
2.533454495E1,1.007976532E0,-9.780662537E0,3.349951655E-2
2.535481239E1,1.019940615E0,-9.778269768E0,3.110669367E-2
2.537507984E1,1.005583763E0,-9.768698692E0,4.307080805E-2
2.539534729E1,9.864411354E-1,-9.773484230E0,2.153540403E-2
2.541561474E1,9.888339639E-1,-9.771091461E0,7.178467698E-3
2.543588213E1,9.960124493E-1,-9.771091461E0,2.392822690E-2
2.545614953E1,1.019940615E0,-9.763913155E0,4.546362907E-2
2.547641698E1,1.015154958E0,-9.797411919E0,4.546362907E-2
2.549668442E1,9.960124493E-1,-9.795019150E0,5.264209956E-2
2.551695187E1,9.792626500E-1,-9.804591179E0,6.939185411E-2
2.553721932E1,1.007976532E0,-9.783055305E0,5.503492057E-2
2.555748677E1,1.031904817E0,-9.775876999E0,3.589234129E-2
2.557775416E1,1.053440213E0,-9.773484230E0,2.632104978E-2
2.559802161E1,1.055832982E0,-9.780662537E0,4.307080805E-2
2.561828906E1,1.024726272E0,-9.778269768E0,2.632104978E-2
2.563855646E1,9.768698215E-1,-9.778269768E0,1.914258115E-2
2.565882390E1,9.553344250E-1,-9.797411919E0,1.196411345E-2
2.567909135E1,9.505487680E-1,-9.792626381E0,4.307080805E-2
2.569935880E1,9.816554785E-1,-9.754341125E0,4.546362907E-2
2.571962620E1,1.010369420E0,-9.768698692E0,3.589234129E-2
2.574002620E1,1.041476011E0,-9.775876999E0,3.589234129E-2
2.576016104E1,1.034297585E0,-9.783055305E0,1.196411345E-2
2.578042849E1,1.010369420E0,-9.785448074E0,2.871387079E-2
2.580069588E1,9.936196208E-1,-9.780662537E0,5.024927482E-2
2.582096333E1,9.816554785E-1,-9.790233612E0,6.939185411E-2
2.584123073E1,1.022333503E0,-9.768698692E0,4.067798331E-2
2.586149818E1,1.031904817E0,-9.754341125E0,4.785645287E-3
2.588176557E1,1.051047325E0,-9.763913155E0,-0.000000000E0
2.590203297E1,1.060618639E0,-9.775876999E0,2.392822644E-3
2.592230041E1,1.034297585E0,-9.780662537E0,2.871387079E-2
2.594256781E1,1.007976532E0,-9.763913155E0,3.110669367E-2
2.596283521E1,9.864411354E-1,-9.785448074E0,3.589234129E-2
2.598310260E1,9.720842242E-1,-9.785448074E0,3.349951655E-2
2.600337005E1,1.000798106E0,-9.802198410E0,5.503492057E-2
2.602363745E1,1.005583763E0,-9.778269768E0,4.067798331E-2
2.604390484E1,1.022333503E0,-9.783055305E0,9.571290575E-3
2.606417224E1,1.022333503E0,-9.768698692E0,1.435693540E-2
2.608443963E1,1.034297585E0,-9.751948357E0,2.153540403E-2
2.610470703E1,1.022333503E0,-9.783055305E0,2.871387079E-2
2.612497442E1,9.936196208E-1,-9.768698692E0,1.196411345E-2
2.614524182E1,9.840483069E-1,-9.773484230E0,2.392822644E-3
2.616550922E1,9.816554785E-1,-9.766305923E0,4.785645287E-3
2.618577666E1,9.984052777E-1,-9.763913155E0,2.392822644E-3
2.620604406E1,1.031904817E0,-9.775876999E0,-0.000000000E0
2.622631140E1,1.039083242E0,-9.766305923E0,7.178467698E-3
2.624671140E1,1.015154958E0,-9.766305923E0,-2.392822644E-3
2.626684620E1,1.017547846E0,-9.763913155E0,4.785645287E-3
2.628711359E1,1.007976532E0,-9.766305923E0,1.196411345E-2
2.630738099E1,1.003190875E0,-9.787840843E0,1.914258115E-2
2.632764838E1,9.840483069E-1,-9.780662537E0,2.871387079E-2
2.634804838E1,9.553344250E-1,-9.775876999E0,3.110669367E-2
2.636818318E1,9.481559992E-1,-9.771091461E0,2.871387079E-2
2.638845052E1,9.936196208E-1,-9.763913155E0,2.392822644E-3
2.640871791E1,1.010369420E0,-9.735198975E0,-0.000000000E0
2.642898531E1,9.984052777E-1,-9.759127617E0,-2.213360928E-2
2.644939328E1,1.000798106E0,-9.761520386E0,-7.178467698E-3
2.646966859E1,9.792626500E-1,-9.783055305E0,-2.392822644E-3
2.648978052E1,9.888339639E-1,-9.775876999E0,1.674975827E-2
2.651004927E1,9.744769931E-1,-9.766305923E0,3.589234129E-2
2.653031661E1,9.840483069E-1,-9.809376717E0,5.024927482E-2
2.655071781E1,9.936196208E-1,-9.806983948E0,7.657032460E-2
2.657085338E1,9.864411354E-1,-9.811769485E0,7.657032460E-2
2.659112146E1,9.433703423E-1,-9.802198410E0,4.546362907E-2
2.661138937E1,9.074779749E-1,-9.802198410E0,3.110669367E-2
2.663165713E1,8.979067206E-1,-9.799804688E0,5.982056633E-2
2.665192890E1,9.098708034E-1,-9.802198410E0,6.221338734E-2
2.667223114E1,9.218349457E-1,-9.780662537E0,4.546362907E-2
2.669245958E1,8.979067206E-1,-9.785448074E0,2.632104978E-2
2.671272724E1,9.170492887E-1,-9.780662537E0,2.392822690E-2
2.673299484E1,9.194421172E-1,-9.778269768E0,1.435693540E-2
2.675326234E1,9.433703423E-1,-9.785448074E0,-0.000000000E0
2.677352984E1,9.696913958E-1,-9.768698692E0,1.674975827E-2
2.679379734E1,9.984052777E-1,-9.771091461E0,4.307080805E-2
2.681406479E1,1.012762189E0,-9.797411919E0,4.307080805E-2
2.683433224E1,1.027119160E0,-9.783055305E0,5.264209956E-2
2.685459963E1,9.840483069E-1,-9.780662537E0,4.067798331E-2
2.687486703E1,9.242277741E-1,-9.773484230E0,2.153540403E-2
2.689513443E1,8.763712645E-1,-9.783055305E0,7.178467698E-3
2.691540182E1,8.931210637E-1,-9.780662537E0,2.153540403E-2
2.693566916E1,9.170492887E-1,-9.759127617E0,7.178467698E-3
2.695593656E1,9.337990284E-1,-9.768698692E0,3.110669367E-2
2.697620390E1,9.433703423E-1,-9.787840843E0,4.785645381E-2
2.699647125E1,9.433703423E-1,-9.773484230E0,5.264209956E-2
2.701673864E1,9.361918569E-1,-9.766305923E0,4.067798331E-2
2.703700599E1,9.266205430E-1,-9.775876999E0,3.589234129E-2
2.705727333E1,9.290133715E-1,-9.790233612E0,3.589234129E-2
2.707754068E1,9.361918569E-1,-9.778269768E0,4.067798331E-2
2.709780797E1,9.625129104E-1,-9.771091461E0,6.939185411E-2
2.711807531E1,9.553344250E-1,-9.771091461E0,5.264209956E-2
2.713847531E1,9.242277741E-1,-9.780662537E0,5.503492057E-2
2.715860995E1,9.290133715E-1,-9.783055305E0,5.742774159E-2
2.717887734E1,9.242277741E-1,-9.766305923E0,5.264209956E-2
2.719914463E1,9.577272534E-1,-9.737591743E0,4.785645381E-2
2.721941198E1,9.242277741E-1,-9.756733894E0,6.460621208E-2
2.723967927E1,9.050851464E-1,-9.763913155E0,8.853443712E-2
2.725994661E1,8.715856671E-1,-9.783055305E0,1.004985496E-1
2.728021390E1,8.644071817E-1,-9.833304405E0,6.460621208E-2
2.730048125E1,8.883354068E-1,-9.773484230E0,5.264209956E-2
2.732074854E1,9.936196208E-1,-9.802198410E0,7.657032460E-2
2.734101588E1,1.130010486E0,-9.785448074E0,1.004985496E-1
2.736128318E1,1.165902853E0,-9.773484230E0,1.316052526E-1
2.738155052E1,1.110867858E0,-9.771091461E0,1.100698411E-1
2.740181781E1,1.048654556E0,-9.795019150E0,7.896314561E-2
2.742208510E1,1.058225870E0,-9.795019150E0,7.178468257E-2
2.744235245E1,1.086939692E0,-9.828518867E0,1.004985496E-1
2.746275245E1,1.079761267E0,-9.775876999E0,1.148554832E-1
2.748288703E1,1.048654556E0,-9.806983948E0,1.220339537E-1
2.750315432E1,1.079761267E0,-9.804591179E0,9.092725813E-2
2.752342166E1,1.070189953E0,-9.728020668E0,1.244267747E-1
2.754368896E1,9.888339639E-1,-9.744770050E0,1.387837082E-1
2.756395625E1,8.620143533E-1,-9.761520386E0,9.810572863E-2
2.758422354E1,8.404789567E-1,-9.725627899E0,6.939185411E-2
2.760449083E1,8.165507317E-1,-9.696913719E0,8.135596663E-2
2.762475812E1,7.184450030E-1,-9.754341125E0,1.507478207E-1
2.764502547E1,6.251249313E-1,-9.790233612E0,1.555334777E-1
2.766529271E1,6.466603279E-1,-9.816555023E0,1.316052526E-1
2.768556005E1,7.064808607E-1,-9.792626381E0,9.810572863E-2
2.770582734E1,7.806583643E-1,-9.842875481E0,1.268195957E-1
2.772609463E1,8.500502706E-1,-9.852447510E0,1.866401732E-1
2.774649463E1,8.739784956E-1,-9.823733330E0,1.651047617E-1
2.776662922E1,9.122636318E-1,-9.814162254E0,7.178468257E-2
2.778689651E1,9.433703423E-1,-9.816555023E0,-2.452643216E-2
2.780716380E1,9.720842242E-1,-9.821340561E0,1.435693540E-2
2.782743109E1,1.036690354E0,-9.795019150E0,3.589234129E-2
2.784783109E1,1.098903775E0,-9.759127617E0,-4.785645287E-3
2.786796562E1,1.051047325E0,-9.735198975E0,-4.845465720E-2
2.788823291E1,9.337990284E-1,-9.737591743E0,-7.956135273E-2
2.790850021E1,9.170492887E-1,-9.730413437E0,-1.226321608E-1
2.792876745E1,9.553344250E-1,-9.739984512E0,-1.465603858E-1
2.794916745E1,1.058225870E0,-9.763913155E0,-1.441675574E-1
2.796930208E1,1.244866014E0,-9.780662537E0,-8.913264424E-2
2.798956937E1,1.381855130E0,-9.785448074E0,-3.409772366E-2
2.800983666E1,1.453639746E0,-9.775876999E0,-1.495514158E-2
2.803010390E1,1.456032634E0,-9.756733894E0,-2.213360928E-2
2.805037120E1,1.403390527E0,-9.723235130E0,-3.888336942E-2
2.807063849E1,1.336391449E0,-9.747162819E0,-4.127619043E-2
2.809090578E1,1.220937729E0,-9.778269768E0,-2.213360928E-2
2.811117307E1,1.110867858E0,-9.742377281E0,-4.127619043E-2
2.813144031E1,1.022333503E0,-9.708877563E0,-4.127619043E-2
2.815170760E1,8.931210637E-1,-9.732806206E0,-2.691925503E-2
2.817197489E1,8.620143533E-1,-9.785448074E0,1.435693540E-2
2.819224218E1,8.907282352E-1,-9.761520386E0,5.982056633E-2
2.821250948E1,9.672985673E-1,-9.766305923E0,4.546362907E-2
2.823277672E1,1.005583763E0,-9.771091461E0,2.153540403E-2
2.825304401E1,1.060618639E0,-9.785448074E0,1.435693540E-2
2.827331125E1,1.077368379E0,-9.790233612E0,1.914258115E-2
2.829357854E1,1.127617717E0,-9.797411919E0,4.785645381E-2
2.831384583E1,1.127617717E0,-9.799804688E0,8.135596663E-2
2.833411312E1,9.912267923E-1,-9.790233612E0,7.896314561E-2
2.835438036E1,8.596215248E-1,-9.787840843E0,4.785645287E-3
2.837464765E1,7.543373108E-1,-9.806983948E0,-5.563312769E-2
2.839491495E1,7.160521746E-1,-9.823733330E0,-3.409772366E-2
2.841518219E1,7.016952634E-1,-9.806983948E0,4.546362907E-2
2.843544948E1,7.854440212E-1,-9.840482712E0,9.571290761E-2
2.845571672E1,9.002995491E-1,-9.833304405E0,3.110669367E-2
2.847598401E1,1.007976532E0,-9.806983948E0,-3.888336942E-2
2.849625125E1,1.079761267E0,-9.821340561E0,-5.084748194E-2
2.851651854E1,1.161117196E0,-9.809376717E0,-1.495514158E-2
2.853678578E1,1.240080357E0,-9.780662537E0,2.392822644E-3
2.855705307E1,1.206580877E0,-9.780662537E0,-7.178467698E-3
2.857732031E1,1.051047325E0,-9.795019150E0,1.674975827E-2
2.859758760E1,9.026923180E-1,-9.768698692E0,2.392822644E-3
2.861785484E1,7.375875711E-1,-9.725627899E0,-1.974078640E-2
2.863812213E1,6.251249313E-1,-9.672985077E0,-2.452643216E-2
2.865838937E1,5.653043389E-1,-9.730413437E0,-1.256231871E-2
2.867865661E1,5.676971674E-1,-9.754341125E0,9.571290575E-3
2.869892385E1,5.964110494E-1,-9.835697174E0,5.024927482E-2
2.871919109E1,6.610172391E-1,-9.842875481E0,9.092725813E-2
2.873959109E1,7.830511928E-1,-9.804591179E0,1.292124242E-1
2.875972562E1,9.672985673E-1,-9.785448074E0,1.339980662E-1
2.877999286E1,1.127617717E0,-9.809376717E0,2.057827413E-1
2.880026015E1,1.266401410E0,-9.804591179E0,2.584248483E-1
2.882052739E1,1.278365493E0,-9.823733330E0,2.799602449E-1
2.884079463E1,1.151545882E0,-9.866804123E0,2.679961324E-1
2.886106187E1,1.053440213E0,-9.864411354E0,2.081755698E-1
2.888132911E1,9.936196208E-1,-9.840482712E0,1.316052526E-1
2.890159640E1,1.022333503E0,-9.771091461E0,7.896314561E-2
2.892186364E1,9.888339639E-1,-9.739984512E0,4.785645381E-2
2.894213088E1,9.529415965E-1,-9.775876999E0,7.178468257E-2
2.896239812E1,8.404789567E-1,-9.785448074E0,1.124626622E-1
2.898266536E1,7.902296782E-1,-9.742377281E0,1.172483116E-1
2.900293260E1,7.974081635E-1,-9.701699257E0,9.810572863E-2
2.902319984E1,7.902296782E-1,-9.723235130E0,1.292124242E-1
2.904346708E1,7.519445419E-1,-9.739984512E0,2.321037948E-1
2.906373432E1,6.227321029E-1,-9.775876999E0,3.110669553E-1
2.908400156E1,4.289134443E-1,-9.814162254E0,3.469592929E-1
2.910426880E1,2.901297510E-1,-9.852447510E0,3.804588020E-1
2.912453604E1,1.770688742E-1,-9.792626381E0,4.331009090E-1
2.914480328E1,8.853443712E-2,-9.795019150E0,4.522434771E-1
2.916507052E1,7.178468257E-2,-9.778269768E0,4.091726840E-1
2.918533781E1,1.339980662E-1,-9.763913155E0,4.067798555E-1
2.920560505E1,2.009970993E-1,-9.759127617E0,3.804588020E-1
2.922587229E1,2.536391914E-1,-9.775876999E0,3.349951804E-1
2.924627224E1,2.877369225E-1,-9.749555588E0,2.632105052E-1
2.926640666E1,3.523431420E-1,-9.744770050E0,2.225325108E-1
2.928667390E1,4.384847581E-1,-9.771091461E0,2.033899277E-1
2.930694114E1,5.940182209E-1,-9.814162254E0,1.986042857E-1
2.932720838E1,8.213363886E-1,-9.840482712E0,2.368894368E-1
2.934760838E1,1.005583763E0,-9.783055305E0,3.230310678E-1
2.936774281E1,1.015154958E0,-9.852447510E0,3.756731451E-1
2.938801005E1,8.452646136E-1,-9.859625816E0,3.780659735E-1
2.940827729E1,6.825526357E-1,-9.826126099E0,3.349951804E-1
2.942854448E1,5.605186820E-1,-9.842875481E0,2.823530734E-1
2.944895245E1,5.485545993E-1,-9.869196892E0,2.727817893E-1
2.946922755E1,5.820540786E-1,-9.821340561E0,2.584248483E-1
2.948933927E1,5.796613097E-1,-9.809376717E0,2.153540403E-1
2.950960786E1,6.203392744E-1,-9.785448074E0,1.938186288E-1
2.952987500E1,6.610172391E-1,-9.792626381E0,1.651047617E-1
2.955027620E1,7.686942816E-1,-9.792626381E0,1.698904037E-1
2.957041151E1,8.691928387E-1,-9.811769485E0,2.416750938E-1
2.959068739E1,9.290133715E-1,-9.797411919E0,2.512463629E-1
2.961102432E1,9.314061999E-1,-9.756733894E0,2.057827413E-1
2.963121375E1,8.620143533E-1,-9.759127617E0,1.507478207E-1
2.965148151E1,8.045865893E-1,-9.768698692E0,1.387837082E-1
2.967174922E1,8.093722463E-1,-9.785448074E0,1.363908947E-1
2.969201677E1,7.758727670E-1,-9.780662537E0,1.531406492E-1
2.971228422E1,7.256234884E-1,-9.797411919E0,1.459621787E-1
2.973255166E1,7.016952634E-1,-9.804591179E0,1.746760458E-1
2.975281911E1,7.423732281E-1,-9.790233612E0,1.866401732E-1
2.977308640E1,8.261220455E-1,-9.792626381E0,1.866401732E-1
2.979335375E1,9.266205430E-1,-9.792626381E0,1.770688742E-1
2.981362109E1,1.000798106E0,-9.785448074E0,1.627119333E-1
2.983388838E1,1.003190875E0,-9.785448074E0,1.603191197E-1
2.985415562E1,9.409775138E-1,-9.795019150E0,1.698904037E-1
2.987442286E1,8.524430394E-1,-9.797411919E0,1.651047617E-1
2.989469010E1,7.758727670E-1,-9.814162254E0,1.292124242E-1
2.991495724E1,7.519445419E-1,-9.802198410E0,1.172483116E-1
2.993522453E1,7.471588850E-1,-9.835697174E0,1.316052526E-1
2.995549172E1,7.734799385E-1,-9.833304405E0,1.627119333E-1
2.997575896E1,7.591229677E-1,-9.838089943E0,1.794617027E-1
2.999602614E1,7.663014531E-1,-9.811769485E0,2.321037948E-1
3.001629333E1,7.639086246E-1,-9.811769485E0,2.632105052E-1
3.003656052E1,7.998009920E-1,-9.787840843E0,2.488535494E-1
3.005682771E1,8.500502706E-1,-9.792626381E0,1.890329868E-1
3.007709495E1,9.074779749E-1,-9.761520386E0,1.459621787E-1
3.009736213E1,9.577272534E-1,-9.766305923E0,1.555334777E-1
3.011762927E1,9.170492887E-1,-9.768698692E0,1.603191197E-1
3.013789646E1,8.883354068E-1,-9.780662537E0,1.363908947E-1
3.015816359E1,8.835497499E-1,-9.763913155E0,8.614161611E-2
3.017843083E1,9.074779749E-1,-9.749555588E0,4.785645381E-2
3.019869797E1,9.361918569E-1,-9.761520386E0,5.742774159E-2
3.021896515E1,9.792626500E-1,-9.723235130E0,8.374879509E-2
3.023919302E1,1.065404296E0,-9.747162819E0,1.148554832E-1
3.025949942E1,1.118046403E0,-9.761520386E0,1.603191197E-1
3.027976661E1,1.086939692E0,-9.754341125E0,2.009970993E-1
3.030003380E1,9.672985673E-1,-9.780662537E0,1.722832322E-1
3.032030099E1,8.620143533E-1,-9.792626381E0,1.148554832E-1
3.034070099E1,7.758727670E-1,-9.773484230E0,9.092725813E-2
3.036083531E1,7.854440212E-1,-9.773484230E0,1.004985496E-1
3.038110250E1,8.069794178E-1,-9.775876999E0,1.387837082E-1
3.040136963E1,8.811569214E-1,-9.773484230E0,1.914258152E-1
3.042163682E1,8.907282352E-1,-9.809376717E0,2.033899277E-1
3.044190390E1,8.691928387E-1,-9.804591179E0,2.129612118E-1
3.046217109E1,7.878368497E-1,-9.799804688E0,2.081755698E-1
3.048243828E1,7.543373108E-1,-9.780662537E0,1.746760458E-1
3.050270541E1,7.974081635E-1,-9.775876999E0,1.459621787E-1
3.052297260E1,8.691928387E-1,-9.756733894E0,1.435693651E-1
3.054323974E1,8.835497499E-1,-9.790233612E0,1.579262912E-1
3.056350687E1,8.668000102E-1,-9.785448074E0,1.890329868E-1
3.058377406E1,8.476574421E-1,-9.780662537E0,1.674975902E-1
3.060404120E1,8.333004713E-1,-9.797411919E0,1.842473447E-1
3.062430833E1,8.644071817E-1,-9.814162254E0,2.057827413E-1
3.064457547E1,8.883354068E-1,-9.811769485E0,2.488535494E-1
3.066484260E1,8.835497499E-1,-9.828518867E0,2.703889608E-1
3.068510979E1,8.811569214E-1,-9.806983948E0,2.057827413E-1
3.070537693E1,8.500502706E-1,-9.780662537E0,1.914258152E-1
3.072564406E1,7.806583643E-1,-9.792626381E0,1.890329868E-1
3.074604406E1,7.471588850E-1,-9.797411919E0,1.842473447E-1
3.076617833E1,7.160521746E-1,-9.792626381E0,1.890329868E-1
3.078644547E1,7.112665176E-1,-9.785448074E0,1.842473447E-1
3.080671260E1,7.639086246E-1,-9.773484230E0,1.962114573E-1
3.082697974E1,7.806583643E-1,-9.763913155E0,2.105683982E-1
3.084737974E1,7.806583643E-1,-9.792626381E0,1.914258152E-1
3.086751401E1,8.141579032E-1,-9.787840843E0,1.746760458E-1
3.088778114E1,8.237292171E-1,-9.795019150E0,1.698904037E-1
3.090804828E1,8.261220455E-1,-9.787840843E0,1.722832322E-1
3.092831541E1,8.165507317E-1,-9.792626381E0,1.938186288E-1
3.094871541E1,8.021938205E-1,-9.802198410E0,2.344966233E-1
3.096884963E1,8.069794178E-1,-9.806983948E0,2.727817893E-1
3.098911677E1,7.878368497E-1,-9.823733330E0,2.656033039E-1
3.100938390E1,7.902296782E-1,-9.795019150E0,2.129612118E-1
3.102965099E1,8.045865893E-1,-9.790233612E0,1.818545163E-1
3.104991807E1,8.285148144E-1,-9.778269768E0,1.627119333E-1
3.107018521E1,8.285148144E-1,-9.785448074E0,1.555334777E-1
3.109045229E1,7.998009920E-1,-9.780662537E0,1.579262912E-1
3.111071943E1,7.639086246E-1,-9.790233612E0,1.842473447E-1
3.113098651E1,7.447660565E-1,-9.795019150E0,1.962114573E-1
3.115125364E1,7.806583643E-1,-9.799804688E0,2.249253243E-1
3.117152073E1,8.093722463E-1,-9.799804688E0,2.464607358E-1
3.119178786E1,8.428717852E-1,-9.787840843E0,2.297109663E-1
3.121205500E1,8.620143533E-1,-9.768698692E0,1.986042857E-1
3.123232208E1,8.691928387E-1,-9.778269768E0,1.459621787E-1
3.125258916E1,8.811569214E-1,-9.766305923E0,1.387837082E-1
3.127285630E1,8.979067206E-1,-9.761520386E0,1.459621787E-1
3.129312338E1,8.333004713E-1,-9.797411919E0,1.770688742E-1
3.131339047E1,7.854440212E-1,-9.799804688E0,1.986042857E-1
3.133365755E1,7.806583643E-1,-9.797411919E0,2.129612118E-1
3.135392469E1,8.141579032E-1,-9.792626381E0,1.770688742E-1
3.137419177E1,8.380861282E-1,-9.790233612E0,2.033899277E-1
3.139445885E1,8.309076428E-1,-9.804591179E0,2.249253243E-1
3.141472594E1,7.710871100E-1,-9.799804688E0,2.225325108E-1
3.143499307E1,7.088736892E-1,-9.799804688E0,2.057827413E-1
3.145526015E1,6.777670383E-1,-9.811769485E0,2.153540403E-1
3.147552724E1,6.945167780E-1,-9.811769485E0,2.368894368E-1
3.149579432E1,7.878368497E-1,-9.797411919E0,2.177468538E-1
3.151606140E1,8.404789567E-1,-9.778269768E0,2.009970993E-1
3.153632849E1,8.333004713E-1,-9.766305923E0,1.938186288E-1
3.155659557E1,7.782655358E-1,-9.783055305E0,1.674975902E-1
3.157686265E1,7.567301393E-1,-9.797411919E0,1.698904037E-1
3.159712974E1,7.232306600E-1,-9.804591179E0,1.818545163E-1
3.161739682E1,7.519445419E-1,-9.804591179E0,2.344966233E-1
3.163779682E1,7.830511928E-1,-9.787840843E0,2.416750938E-1
3.165793088E1,8.213363886E-1,-9.821340561E0,2.368894368E-1
3.167819802E1,8.165507317E-1,-9.790233612E0,2.560320199E-1
3.169846510E1,8.165507317E-1,-9.780662537E0,2.105683982E-1
3.171873218E1,8.141579032E-1,-9.771091461E0,1.818545163E-1
3.173913219E1,8.045865893E-1,-9.763913155E0,1.627119333E-1
3.175926630E1,7.710871100E-1,-9.747162819E0,1.866401732E-1
3.177953338E1,7.567301393E-1,-9.766305923E0,1.627119333E-1
3.179980047E1,7.567301393E-1,-9.792626381E0,1.818545163E-1
3.182006750E1,7.567301393E-1,-9.797411919E0,2.105683982E-1
3.184033458E1,7.519445419E-1,-9.814162254E0,2.584248483E-1
3.186060166E1,7.399803996E-1,-9.816555023E0,2.847459018E-1
3.188086870E1,7.663014531E-1,-9.806983948E0,2.799602449E-1
3.190113578E1,7.854440212E-1,-9.830911636E0,2.991028428E-1
3.192140281E1,7.615157962E-1,-9.828518867E0,3.278166950E-1
3.194166989E1,7.280163169E-1,-9.799804688E0,2.895315289E-1
3.196193693E1,7.256234884E-1,-9.792626381E0,2.488535494E-1
3.198220401E1,7.160521746E-1,-9.771091461E0,1.866401732E-1
3.200247104E1,7.136593461E-1,-9.778269768E0,1.722832322E-1
3.202273807E1,7.423732281E-1,-9.773484230E0,1.962114573E-1
3.204300515E1,7.471588850E-1,-9.773484230E0,2.153540403E-1
3.206327218E1,7.328019142E-1,-9.799804688E0,2.129612118E-1
3.208353922E1,7.351947427E-1,-9.811769485E0,2.440679073E-1
3.210380625E1,7.878368497E-1,-9.809376717E0,2.727817893E-1
3.212407328E1,8.093722463E-1,-9.799804688E0,2.632105052E-1
3.214434036E1,8.452646136E-1,-9.809376717E0,2.799602449E-1
3.216460739E1,8.237292171E-1,-9.792626381E0,2.321037948E-1
3.218487443E1,7.950153351E-1,-9.778269768E0,2.009970993E-1
3.220514151E1,7.447660565E-1,-9.785448074E0,2.009970993E-1
3.222540854E1,7.112665176E-1,-9.790233612E0,2.464607358E-1
3.224580854E1,6.897311211E-1,-9.775876999E0,2.536391914E-1
3.226594260E1,7.016952634E-1,-9.790233612E0,2.512463629E-1
3.228620963E1,6.993024349E-1,-9.797411919E0,2.368894368E-1
3.230647666E1,7.160521746E-1,-9.792626381E0,2.153540403E-1
3.232674370E1,7.519445419E-1,-9.799804688E0,2.368894368E-1
3.234714370E1,7.256234884E-1,-9.797411919E0,2.536391914E-1
3.236727776E1,7.232306600E-1,-9.799804688E0,2.560320199E-1
3.238754474E1,7.639086246E-1,-9.809376717E0,2.608176768E-1
3.240781172E1,7.878368497E-1,-9.790233612E0,2.608176768E-1
3.242807875E1,8.069794178E-1,-9.802198410E0,2.871387303E-1
3.244848672E1,7.926225066E-1,-9.787840843E0,2.608176768E-1
3.246876140E1,7.663014531E-1,-9.763913155E0,2.129612118E-1
3.248887302E1,7.902296782E-1,-9.768698692E0,1.938186288E-1
3.250914140E1,8.045865893E-1,-9.778269768E0,2.033899277E-1
3.252940838E1,8.237292171E-1,-9.787840843E0,2.225325108E-1
3.254980958E1,8.189435601E-1,-9.780662537E0,2.081755698E-1
3.256994442E1,7.639086246E-1,-9.785448074E0,2.081755698E-1
3.259021213E1,7.639086246E-1,-9.775876999E0,2.129612118E-1
3.261047968E1,7.974081635E-1,-9.792626381E0,2.536391914E-1
3.263074719E1,8.476574421E-1,-9.795019150E0,2.464607358E-1
3.265101448E1,8.380861282E-1,-9.783055305E0,2.225325108E-1
3.267128177E1,7.926225066E-1,-9.790233612E0,2.033899277E-1
3.269154901E1,7.136593461E-1,-9.797411919E0,1.890329868E-1
3.271181625E1,6.370890141E-1,-9.785448074E0,2.033899277E-1
3.273208333E1,6.634100676E-1,-9.780662537E0,1.986042857E-1
3.275235047E1,7.328019142E-1,-9.775876999E0,1.842473447E-1
3.277261755E1,8.237292171E-1,-9.790233612E0,2.009970993E-1
3.279288469E1,8.524430394E-1,-9.792626381E0,2.009970993E-1
3.281315172E1,8.404789567E-1,-9.783055305E0,2.153540403E-1
3.283341875E1,7.806583643E-1,-9.783055305E0,2.129612118E-1
3.285368583E1,7.495517135E-1,-9.768698692E0,1.722832322E-1
3.287395286E1,7.543373108E-1,-9.751948357E0,1.483550072E-1
3.289421984E1,7.974081635E-1,-9.730413437E0,1.316052526E-1
3.291448682E1,8.189435601E-1,-9.718449593E0,1.196411327E-1
3.293475385E1,8.045865893E-1,-9.706484795E0,1.004985496E-1
3.295502083E1,7.375875711E-1,-9.814162254E0,3.589234129E-2
3.297528786E1,6.634100676E-1,-9.749555588E0,2.153540403E-2
3.299555479E1,6.323033571E-1,-9.761520386E0,5.503492057E-2
3.301582187E1,7.471588850E-1,-9.823733330E0,1.148554832E-1
3.303608885E1,1.019940615E0,-9.852447510E0,1.435693651E-1
3.305635583E1,1.338784218E0,-9.802198410E0,1.651047617E-1
3.307662281E1,1.554138303E0,-9.790233612E0,1.579262912E-1
3.309688979E1,1.570888042E0,-9.783055305E0,9.332008660E-2
3.311715677E1,1.374676585E0,-9.785448074E0,3.110669367E-2
3.313742375E1,1.137188911E0,-9.802198410E0,-6.041877344E-2
3.315769068E1,1.063011408E0,-9.780662537E0,-1.226321608E-1
3.317795765E1,1.027119160E0,-9.737591743E0,-1.274178028E-1
3.319822463E1,9.888339639E-1,-9.751948357E0,-7.238288224E-2
3.321849161E1,1.043868899E0,-9.830911636E0,-7.178467698E-3
3.323889161E1,1.132403374E0,-9.785448074E0,6.939185411E-2
3.325902552E1,1.235294700E0,-9.732806206E0,1.292124242E-1
3.327929250E1,1.275972724E0,-9.692128181E0,1.124626622E-1
3.329955948E1,1.273579836E0,-9.768698692E0,9.332008660E-2
3.331982640E1,1.292722464E0,-9.730413437E0,7.896314561E-2
3.334022640E1,1.211366415E0,-9.701699257E0,1.220339537E-1
3.336036036E1,1.175474167E0,-9.759127617E0,1.674975902E-1
3.338062729E1,1.218544960E0,-9.804591179E0,2.368894368E-1
3.340089427E1,1.336391449E0,-9.816555023E0,3.158525825E-1
3.342116120E1,1.465603828E0,-9.790233612E0,3.876372576E-1
3.344142812E1,1.551745534E0,-9.763913155E0,4.043870270E-1
3.346169510E1,1.484746456E0,-9.778269768E0,3.134597540E-1
3.348196208E1,1.398604870E0,-9.751948357E0,2.751746178E-1
3.350222901E1,1.362712502E0,-9.756733894E0,2.656033039E-1
3.352249599E1,1.353141189E0,-9.732806206E0,2.009970993E-1
3.354276291E1,1.312463164E0,-9.684949875E0,1.268195957E-1
3.356302989E1,1.312463164E0,-9.610772133E0,7.896314561E-2
3.358329682E1,1.310070395E0,-9.510273933E0,9.810572863E-2
3.360356375E1,1.333998680E0,-9.486345291E0,1.172483116E-1
3.362383068E1,1.302891970E0,-9.460023880E0,9.092725813E-2
3.364409765E1,8.428717852E-1,-9.495916367E0,-7.716853172E-2
3.366436463E1,1.076770201E-1,-9.763913155E0,-3.260220885E-1
3.368463156E1,-4.833501875E-1,-9.833304405E0,-4.001995921E-1
3.370489849E1,-6.795616150E-1,-9.914660454E0,-1.872383654E-1
3.372516541E1,-5.647061467E-1,-1.009412193E1,1.914258152E-1
3.374556541E1,-1.387837082E-1,-1.012283611E1,6.675975323E-1
3.376569932E1,6.586244106E-1,-1.006780148E1,8.063812256E-1
3.378596625E1,1.692921996E0,-1.018744278E1,6.699903607E-1
3.380623318E1,2.741576433E0,-1.000319481E1,4.115654826E-1
3.382650010E1,3.457628727E0,-9.723235130E0,8.135596663E-2
3.384690010E1,3.601198196E0,-9.498309135E0,-1.680957973E-1
3.386703396E1,3.143570662E0,-9.653842926E0,-4.001995921E-1
3.388730088E1,2.602792740E0,-9.637093544E0,-6.251249313E-1
3.390756786E1,2.027917147E0,-9.491130829E0,-6.346961856E-1
3.392783474E1,1.429711580E0,-9.641879082E0,-4.289134443E-1
3.394823474E1,8.620143533E-1,-9.177073479E0,-2.709871531E-1
3.396836859E1,2.781656384E-1,-9.785448074E0,-1.130608693E-1
3.398863552E1,-1.459621787E-1,-9.981659889E0,3.349951655E-2
3.400890239E1,-4.211367965E-1,-9.141180992E0,2.488535494E-1
3.402916932E1,-9.571290761E-2,-9.680164337E0,3.086741269E-1
3.404943625E1,3.092723191E-1,-1.069292641E1,2.368894368E-1
3.406970318E1,5.174478889E-1,-1.006540871E1,5.192425251E-1
3.408997010E1,1.213759303E0,-9.653842926E0,5.096712112E-1
3.411023703E1,1.996810555E0,-9.933803558E0,3.230310678E-1
3.413049609E1,2.657827854E0,-9.962516785E0,1.531406492E-1
3.415069390E1,3.169891834E0,-9.625128746E0,4.785645287E-3
3.417103901E1,3.481556892E0,-9.608379364E0,-8.673982322E-2
3.419130568E1,3.498306751E0,-9.680164337E0,-7.238288224E-2
3.421157245E1,3.014358282E0,-9.661021233E0,-0.000000000E0
3.423183916E1,2.358724833E0,-9.723235130E0,-2.392822644E-3
3.425210594E1,1.755135417E0,-9.639486313E0,4.067798331E-2
3.427237281E1,1.329213023E0,-9.713663101E0,1.674975827E-2
3.429263963E1,1.048654556E0,-9.814162254E0,-1.704886109E-1
3.431290646E1,8.763712645E-1,-9.699306488E0,-3.475574851E-1
3.433317333E1,6.873382926E-1,-9.637093544E0,-3.044866920E-1
3.435344015E1,4.863412082E-1,-9.728020668E0,-7.956135273E-2
3.437370703E1,3.667000830E-1,-9.682557106E0,1.316052526E-1
3.439397390E1,4.336991012E-1,-9.730413437E0,1.722832322E-1
3.441424078E1,8.093722463E-1,-9.747162819E0,5.503492057E-2
3.443450765E1,1.322034478E0,-9.763913155E0,4.785645287E-3
3.445477453E1,1.807777524E0,-9.826126099E0,5.264209956E-2
3.447504146E1,2.111665964E0,-9.716055870E0,1.794617027E-1
3.449544146E1,2.130808592E0,-9.696913719E0,3.541377485E-1
3.451573354E1,1.996810555E0,-9.799804688E0,3.684946895E-1
3.453600047E1,1.755135417E0,-9.775876999E0,2.943171859E-1
3.455625161E1,1.515853167E0,-9.711270332E0,1.100698411E-1
3.457636437E1,1.377069473E0,-9.751948357E0,-1.256231871E-2
3.459663354E1,1.240080357E0,-9.806983948E0,-1.974078640E-2
3.461690229E1,1.058225870E0,-9.732806206E0,6.939185411E-2
3.463717068E1,9.912267923E-1,-9.756733894E0,1.339980662E-1
3.465743870E1,1.082154036E0,-9.725627899E0,1.411765367E-1
3.467770651E1,1.153938770E0,-9.732806206E0,1.148554832E-1
3.469797416E1,1.237687469E0,-9.713663101E0,5.264209956E-2
3.471824172E1,1.259222865E0,-9.658628464E0,5.742774159E-2
3.473850906E1,1.254437327E0,-9.759127617E0,1.172483116E-1
3.475877630E1,1.218544960E0,-9.797411919E0,1.531406492E-1
3.477904349E1,1.149153113E0,-9.792626381E0,1.435693651E-1
3.479931057E1,1.125224829E0,-9.744770050E0,1.339980662E-1
3.481957776E1,1.211366415E0,-9.730413437E0,1.052841991E-1
3.483984479E1,1.324427366E0,-9.761520386E0,9.332008660E-2
3.486011177E1,1.417747378E0,-9.732806206E0,1.124626622E-1
3.488037875E1,1.465603828E0,-9.723235130E0,1.220339537E-1
3.490064568E1,1.489532113E0,-9.728020668E0,1.220339537E-1
3.492091265E1,1.484746456E0,-9.749555588E0,1.124626622E-1
3.494117958E1,1.379462242E0,-9.785448074E0,1.316052526E-1
3.496144651E1,1.412961721E0,-9.828518867E0,1.172483116E-1
3.498171338E1,1.439282775E0,-9.720842361E0,1.363908947E-1
3.500198031E1,1.365105271E0,-9.704092026E0,1.531406492E-1
3.502224719E1,1.208973646E0,-9.742377281E0,1.794617027E-1
3.504251406E1,1.096511006E0,-9.744770050E0,2.057827413E-1
3.506278094E1,1.070189953E0,-9.728020668E0,1.938186288E-1
3.508304781E1,1.074975610E0,-9.792626381E0,1.794617027E-1
3.510331468E1,1.134796143E0,-9.773484230E0,1.914258152E-1
3.512371468E1,1.127617717E0,-9.694520950E0,2.464607358E-1
3.514384838E1,1.041476011E0,-9.723235130E0,2.919243574E-1
3.516411531E1,1.031904817E0,-9.780662537E0,2.608176768E-1
3.518438219E1,1.060618639E0,-9.826126099E0,2.416750938E-1
3.520464906E1,1.158724308E0,-9.842875481E0,2.703889608E-1
3.522491588E1,1.173081279E0,-9.826126099E0,3.708875179E-1
3.524530151E1,1.091725349E0,-9.866804123E0,4.953143001E-1
3.526544963E1,9.457631707E-1,-9.871589661E0,5.024927258E-1
3.528571646E1,8.189435601E-1,-9.804591179E0,3.780659735E-1
3.530598333E1,8.356932998E-1,-9.699306488E0,1.770688742E-1
3.532625015E1,9.074779749E-1,-9.651450157E0,9.571290575E-3
3.534665015E1,9.720842242E-1,-9.687342644E0,-7.238288224E-2
3.536678390E1,1.034297585E0,-9.739984512E0,1.914258115E-2
3.538705073E1,1.074975610E0,-9.728020668E0,1.603191197E-1
3.540731760E1,1.067797065E0,-9.716055870E0,3.230310678E-1
3.542758442E1,1.082154036E0,-9.723235130E0,3.134597540E-1
3.544796479E1,1.146760225E0,-9.747162819E0,2.153540403E-1
3.546770474E1,1.228116274E0,-9.716055870E0,1.100698411E-1
3.548810474E1,1.312463164E0,-9.785448074E0,6.460621208E-2
3.550850474E1,1.355534077E0,-9.902696609E0,9.810572863E-2
3.552890036E1,1.345962763E0,-9.830911636E0,1.938186288E-1
3.554931224E1,1.254437327E0,-9.754341125E0,3.828516304E-1
3.556944666E1,1.118046403E0,-9.806983948E0,3.900300860E-1
3.558971469E1,1.070189953E0,-9.763913155E0,2.799602449E-1
3.560998239E1,1.072582722E0,-9.684949875E0,1.316052526E-1
3.563024995E1,1.074975610E0,-9.708877563E0,2.392822690E-2
3.565051739E1,1.019940615E0,-9.716055870E0,-1.974078640E-2
3.567078468E1,9.361918569E-1,-9.716055870E0,2.392822690E-2
3.569105182E1,8.548358679E-1,-9.732806206E0,8.853443712E-2
3.571131901E1,8.380861282E-1,-9.768698692E0,1.387837082E-1
3.573158609E1,9.553344250E-1,-9.802198410E0,1.651047617E-1
3.575185312E1,1.082154036E0,-9.818947792E0,1.507478207E-1
3.577212010E1,1.206580877E0,-9.833304405E0,1.316052526E-1
3.579238698E1,1.305284739E0,-9.806983948E0,1.698904037E-1
3.581265396E1,1.324427366E0,-9.804591179E0,2.009970993E-1
3.583292088E1,1.302891970E0,-9.821340561E0,1.866401732E-1
3.585318771E1,1.273579836E0,-9.783055305E0,1.603191197E-1
3.587345463E1,1.194616675E0,-9.792626381E0,1.435693651E-1
3.589372146E1,1.053440213E0,-9.785448074E0,1.603191197E-1
3.591398838E1,9.409775138E-1,-9.778269768E0,1.339980662E-1
3.593425521E1,8.165507317E-1,-9.787840843E0,1.028913707E-1
3.595452203E1,7.806583643E-1,-9.773484230E0,8.853443712E-2
3.597478890E1,8.548358679E-1,-9.773484230E0,1.148554832E-1
3.599505573E1,9.912267923E-1,-9.799804688E0,2.129612118E-1
3.601532260E1,1.175474167E0,-9.830911636E0,2.991028428E-1
3.603558943E1,1.302891970E0,-9.756733894E0,3.373879790E-1
3.605585625E1,1.353141189E0,-9.701699257E0,2.536391914E-1
3.607612307E1,1.312463164E0,-9.708877563E0,1.555334777E-1
3.609638989E1,1.201795220E0,-9.692128181E0,9.571290761E-2
3.611665672E1,1.096511006E0,-9.677771568E0,1.268195957E-1
3.613692349E1,1.048654556E0,-9.672985077E0,1.962114573E-1
3.615719031E1,1.036690354E0,-9.713663101E0,2.727817893E-1
3.617745708E1,1.048654556E0,-9.716055870E0,3.589234054E-1
3.619772396E1,1.115653515E0,-9.742377281E0,4.091726840E-1
3.621799073E1,1.106082320E0,-9.766305923E0,4.235295951E-1
3.623825755E1,1.113260746E0,-9.766305923E0,3.996013701E-1
3.625852437E1,1.108475089E0,-9.756733894E0,3.804588020E-1
3.627879120E1,1.118046403E0,-9.795019150E0,4.187439680E-1
3.629905797E1,1.084546804E0,-9.783055305E0,4.426721931E-1
3.631932479E1,1.041476011E0,-9.783055305E0,4.115654826E-1
3.633959161E1,1.015154958E0,-9.773484230E0,4.091726840E-1
3.635985838E1,1.029511929E0,-9.759127617E0,4.378865361E-1
3.638012521E1,1.079761267E0,-9.747162819E0,4.713860750E-1
3.640039203E1,1.170688510E0,-9.749555588E0,4.378865361E-1
3.642065880E1,1.194616675E0,-9.763913155E0,3.469592929E-1
3.644092562E1,1.161117196E0,-9.761520386E0,2.967100143E-1
3.646119239E1,1.060618639E0,-9.785448074E0,2.751746178E-1
3.648145922E1,9.744769931E-1,-9.816555023E0,3.230310678E-1
3.650172599E1,8.548358679E-1,-9.816555023E0,4.139583111E-1
3.652199281E1,7.734799385E-1,-9.816555023E0,4.450650215E-1
3.654225958E1,7.591229677E-1,-9.811769485E0,4.115654826E-1
3.656252640E1,7.710871100E-1,-9.826126099E0,2.919243574E-1
3.658279312E1,8.117650747E-1,-9.802198410E0,2.081755698E-1
3.660306000E1,8.117650747E-1,-9.739984512E0,1.746760458E-1
3.662332677E1,8.021938205E-1,-9.730413437E0,1.770688742E-1
3.664359359E1,8.691928387E-1,-9.761520386E0,1.770688742E-1
3.666386036E1,1.029511929E0,-9.723235130E0,1.316052526E-1
3.668412718E1,1.149153113E0,-9.689735413E0,1.268195957E-1
3.670439396E1,1.158724308E0,-9.716055870E0,1.316052526E-1
3.672466073E1,1.098903775E0,-9.737591743E0,1.004985496E-1
3.674492755E1,1.007976532E0,-9.749555588E0,1.076770201E-1
3.676519432E1,9.696913958E-1,-9.778269768E0,1.172483116E-1
3.678546109E1,9.314061999E-1,-9.778269768E0,1.435693651E-1
3.680572791E1,9.409775138E-1,-9.773484230E0,1.483550072E-1
3.682599469E1,9.960124493E-1,-9.783055305E0,1.363908947E-1
3.684639468E1,1.010369420E0,-9.775876999E0,1.866401732E-1
3.686652823E1,9.625129104E-1,-9.804591179E0,2.368894368E-1
3.688679500E1,8.811569214E-1,-9.828518867E0,2.488535494E-1
3.690706182E1,8.045865893E-1,-9.790233612E0,2.081755698E-1
3.692732859E1,7.710871100E-1,-9.799804688E0,1.244267747E-1
3.694772859E1,7.902296782E-1,-9.778269768E0,8.135596663E-2
3.696786208E1,8.309076428E-1,-9.756733894E0,1.220339537E-1
3.698812896E1,8.955138922E-1,-9.778269768E0,1.579262912E-1
3.700839573E1,9.050851464E-1,-9.749555588E0,1.531406492E-1
3.702866250E1,9.074779749E-1,-9.735198975E0,1.292124242E-1
3.704906250E1,9.170492887E-1,-9.754341125E0,1.004985496E-1
3.706919604E1,9.146564603E-1,-9.775876999E0,1.076770201E-1
3.708946281E1,9.385846853E-1,-9.792626381E0,1.339980662E-1
3.710972958E1,9.529415965E-1,-9.787840843E0,1.531406492E-1
3.712999635E1,9.242277741E-1,-9.787840843E0,1.698904037E-1
3.715039635E1,9.601200819E-1,-9.802198410E0,1.914258152E-1
3.717052989E1,1.012762189E0,-9.773484230E0,2.057827413E-1
3.719079666E1,1.055832982E0,-9.759127617E0,1.938186288E-1
3.721106338E1,1.003190875E0,-9.766305923E0,1.746760458E-1
3.723133015E1,9.457631707E-1,-9.778269768E0,1.411765367E-1
3.725159692E1,9.146564603E-1,-9.744770050E0,8.853443712E-2
3.727186370E1,9.385846853E-1,-9.771091461E0,9.092725813E-2
3.729213047E1,1.031904817E0,-9.754341125E0,1.004985496E-1
3.731239724E1,1.132403374E0,-9.751948357E0,8.374879509E-2
3.733266401E1,1.235294700E0,-9.751948357E0,4.067798331E-2
3.735293068E1,1.312463164E0,-9.773484230E0,1.435693540E-2
3.737319750E1,1.360319614E0,-9.737591743E0,2.153540403E-2
3.739346427E1,1.333998680E0,-9.723235130E0,7.178468257E-2
3.741373094E1,1.302891970E0,-9.730413437E0,8.614161611E-2
3.743399776E1,1.259222865E0,-9.754341125E0,9.810572863E-2
3.745426453E1,1.185045362E0,-9.785448074E0,7.657032460E-2
3.747453125E1,1.043868899E0,-9.783055305E0,8.135596663E-2
3.749479802E1,9.840483069E-1,-9.780662537E0,6.699903309E-2
3.751506479E1,9.960124493E-1,-9.814162254E0,9.810572863E-2
3.753533151E1,1.089332461E0,-9.821340561E0,1.196411327E-1
3.755559828E1,1.194616675E0,-9.780662537E0,1.316052526E-1
3.757586505E1,1.268794179E0,-9.818947792E0,1.052841991E-1
3.759613177E1,1.240080357E0,-9.787840843E0,7.657032460E-2
3.761639854E1,1.211366415E0,-9.814162254E0,4.546362907E-2
3.763666526E1,1.161117196E0,-9.804591179E0,2.392822690E-2
3.765693203E1,1.106082320E0,-9.763913155E0,-4.785645287E-3
3.767719875E1,1.094118118E0,-9.763913155E0,-8.434699476E-2
3.769746552E1,1.127617717E0,-9.739984512E0,-9.870393574E-2
3.771773224E1,1.220937729E0,-9.694520950E0,-1.154536903E-1
3.773799901E1,1.295115232E0,-9.665806770E0,-1.561316848E-1
3.775826573E1,1.372283816E0,-9.653842926E0,-2.111666054E-1
3.777853250E1,1.427318692E0,-9.665806770E0,-2.518445849E-1
3.779879922E1,1.412961721E0,-9.651450157E0,-2.374876440E-1
3.781906599E1,1.305284739E0,-9.694520950E0,-1.752742529E-1
3.783933271E1,1.206580877E0,-9.790233612E0,-7.956135273E-2
3.785959948E1,1.153938770E0,-9.852447510E0,1.674975827E-2
3.787986620E1,1.039083242E0,-9.842875481E0,8.135596663E-2
3.790013291E1,8.715856671E-1,-9.885947227E0,1.220339537E-1
3.792039968E1,7.998009920E-1,-9.878767967E0,7.178468257E-2
3.794066640E1,7.591229677E-1,-9.883553505E0,3.589234129E-2
3.796093312E1,7.328019142E-1,-9.881160736E0,2.392822690E-2
3.798119984E1,7.567301393E-1,-9.840482712E0,4.785645381E-2
3.800146661E1,8.596215248E-1,-9.802198410E0,3.589234129E-2
3.802173333E1,9.792626500E-1,-9.754341125E0,-1.495514158E-2
3.804200005E1,1.103689432E0,-9.723235130E0,-6.759724021E-2
3.806226677E1,1.185045362E0,-9.739984512E0,-1.465603858E-1
3.808253349E1,1.170688510E0,-9.744770050E0,-1.274178028E-1
3.810280026E1,1.101296663E0,-9.747162819E0,-9.870393574E-2
3.812306698E1,1.046261668E0,-9.759127617E0,-1.154536903E-1
3.814333370E1,1.043868899E0,-9.783055305E0,-1.226321608E-1
3.816360041E1,1.079761267E0,-9.759127617E0,-1.130608693E-1
3.818386713E1,1.019940615E0,-9.737591743E0,-9.870393574E-2
3.820413390E1,9.816554785E-1,-9.747162819E0,-2.691925503E-2
3.822440062E1,1.010369420E0,-9.771091461E0,-3.170489892E-2
3.824466734E1,1.019940615E0,-9.778269768E0,-4.606183618E-2
3.826493406E1,9.936196208E-1,-9.814162254E0,-3.888336942E-2
3.828520078E1,9.002995491E-1,-9.795019150E0,1.914258115E-2
3.830546750E1,8.333004713E-1,-9.773484230E0,7.178467698E-3
3.832573422E1,8.165507317E-1,-9.818947792E0,-1.974078640E-2
3.834613422E1,8.668000102E-1,-9.802198410E0,-1.256231871E-2
3.836626765E1,9.290133715E-1,-9.773484230E0,-3.649054468E-2
3.838653432E1,9.864411354E-1,-9.756733894E0,-2.691925503E-2
3.840680104E1,1.010369420E0,-9.790233612E0,-2.931207791E-2
3.842706781E1,9.912267923E-1,-9.787840843E0,-3.170489892E-2
3.844746583E1,9.768698215E-1,-9.761520386E0,-5.563312769E-2
3.846756411E1,9.744769931E-1,-9.742377281E0,-6.281159073E-2
3.848786963E1,9.433703423E-1,-9.754341125E0,-8.673982322E-2
3.850813604E1,9.625129104E-1,-9.751948357E0,-1.178465188E-1
3.852840276E1,9.625129104E-1,-9.749555588E0,-1.010967568E-1
3.854880245E1,9.792626500E-1,-9.783055305E0,-5.802594870E-2
3.856893568E1,9.888339639E-1,-9.775876999E0,-3.649054468E-2
3.858920213E1,9.984052777E-1,-9.790233612E0,-2.931207791E-2
3.860946870E1,9.960124493E-1,-9.761520386E0,-3.649054468E-2
3.862973536E1,9.888339639E-1,-9.771091461E0,-3.649054468E-2
3.865000198E1,9.816554785E-1,-9.780662537E0,-1.495514158E-2
3.867026859E1,9.792626500E-1,-9.775876999E0,-2.691925503E-2
3.869053521E1,9.194421172E-1,-9.790233612E0,-3.888336942E-2
3.871080187E1,9.122636318E-1,-9.814162254E0,1.435693540E-2
3.873106854E1,9.074779749E-1,-9.799804688E0,1.435693540E-2
3.875133521E1,9.266205430E-1,-9.802198410E0,2.392822690E-2
3.877160187E1,9.218349457E-1,-9.804591179E0,2.392822644E-3
3.879186854E1,9.816554785E-1,-9.795019150E0,-1.495514158E-2
3.881213526E1,1.019940615E0,-9.790233612E0,-2.931207791E-2
3.883240192E1,1.029511929E0,-9.804591179E0,-1.256231871E-2
3.885266859E1,9.912267923E-1,-9.778269768E0,-2.452643216E-2
3.887293526E1,9.816554785E-1,-9.766305923E0,-3.409772366E-2
3.889320198E1,9.744769931E-1,-9.744770050E0,-1.974078640E-2
3.891346864E1,1.005583763E0,-9.735198975E0,-0.000000000E0
3.893373536E1,1.012762189E0,-9.728020668E0,7.178467698E-3
3.895400203E1,9.601200819E-1,-9.761520386E0,-1.256231871E-2
3.897426870E1,8.859425783E-1,-9.768698692E0,2.153540403E-2
3.899453536E1,8.045865893E-1,-9.797411919E0,5.024927482E-2
3.901480208E1,7.639086246E-1,-9.828518867E0,6.460621208E-2
3.903506875E1,8.213363886E-1,-9.847661972E0,7.896314561E-2
3.905533547E1,9.074779749E-1,-9.842875481E0,9.810572863E-2
3.907560213E1,9.816554785E-1,-9.821340561E0,1.292124242E-1
3.909586880E1,9.864411354E-1,-9.804591179E0,1.316052526E-1
3.911613552E1,9.433703423E-1,-9.792626381E0,1.028913707E-1
3.913640218E1,9.266205430E-1,-9.751948357E0,4.785645381E-2
3.915666890E1,9.146564603E-1,-9.787840843E0,2.153540403E-2
3.917693557E1,9.529415965E-1,-9.787840843E0,1.674975827E-2
3.919720224E1,9.840483069E-1,-9.761520386E0,-4.785645287E-3
3.921746896E1,1.034297585E0,-9.739984512E0,1.435693540E-2
3.923773562E1,1.098903775E0,-9.742377281E0,2.632104978E-2
3.925800229E1,1.153938770E0,-9.730413437E0,2.632104978E-2
3.927826896E1,1.204187989E0,-9.706484795E0,-9.571290575E-3
3.929853568E1,1.163509965E0,-9.725627899E0,-3.170489892E-2
3.931880234E1,1.036690354E0,-9.763913155E0,-2.392822644E-3
3.933906901E1,8.907282352E-1,-9.785448074E0,4.546362907E-2
3.935933568E1,7.758727670E-1,-9.771091461E0,1.004985496E-1
3.937960234E1,7.471588850E-1,-9.783055305E0,1.435693651E-1
3.939986906E1,7.998009920E-1,-9.823733330E0,1.770688742E-1
3.942013573E1,8.333004713E-1,-9.850054741E0,2.153540403E-1
3.944040239E1,7.758727670E-1,-9.833304405E0,2.488535494E-1
3.946066906E1,5.700899959E-1,-9.823733330E0,2.368894368E-1
3.948093573E1,4.552344978E-1,-9.821340561E0,2.009970993E-1
3.950120239E1,4.648058116E-1,-9.828518867E0,1.722832322E-1
3.952146906E1,5.485545993E-1,-9.804591179E0,1.770688742E-1
3.954173573E1,6.083751321E-1,-9.785448074E0,2.584248483E-1
3.956200239E1,6.538388133E-1,-9.766305923E0,2.632105052E-1
3.958226906E1,6.442674994E-1,-9.754341125E0,2.297109663E-1
3.960253578E1,6.155536175E-1,-9.739984512E0,1.986042857E-1
3.962280245E1,6.466603279E-1,-9.689735413E0,2.392822653E-1
3.964306911E1,6.299105883E-1,-9.751948357E0,2.799602449E-1
3.966333578E1,5.820540786E-1,-9.806983948E0,2.895315289E-1
3.968360245E1,5.700899959E-1,-9.833304405E0,2.919243574E-1
3.970386911E1,6.610172391E-1,-9.885947227E0,2.608176768E-1
3.972413578E1,7.998009920E-1,-9.883553505E0,2.536391914E-1
3.974440245E1,8.787640929E-1,-9.809376717E0,3.230310678E-1
3.976466911E1,8.213363886E-1,-9.778269768E0,3.493520916E-1
3.978493578E1,6.299105883E-1,-9.706484795E0,2.799602449E-1
3.980520239E1,4.504488707E-1,-9.708877563E0,1.818545163E-1
3.982546911E1,3.978067636E-1,-9.732806206E0,9.810572863E-2
3.984586911E1,4.456632137E-1,-9.747162819E0,9.332008660E-2
3.986600239E1,5.126622319E-1,-9.773484230E0,2.344966233E-1
3.988626906E1,5.246263742E-1,-9.850054741E0,3.804588020E-1
3.990653573E1,5.365904570E-1,-9.897911072E0,5.144568682E-1
3.992680239E1,6.897311211E-1,-9.826126099E0,4.450650215E-1
3.994720239E1,8.907282352E-1,-9.802198410E0,3.038884699E-1
3.996733568E1,9.505487680E-1,-9.759127617E0,2.608176768E-1
3.998760234E1,8.333004713E-1,-9.735198975E0,3.469592929E-1
4.000786901E1,6.107679605E-1,-9.866804123E0,3.182454109E-1
4.002813562E1,5.198407173E-1,-9.897911072E0,1.339980662E-1
4.004853562E1,7.423732281E-1,-9.814162254E0,-1.974078640E-2
4.006866890E1,1.029511929E0,-9.749555588E0,-7.178467698E-3
4.008893562E1,1.156331539E0,-9.706484795E0,1.651047617E-1
4.010920224E1,1.053440213E0,-9.672985077E0,3.445664644E-1
4.012946885E1,8.285148144E-1,-9.735198975E0,2.608176768E-1
4.014986885E1,6.562315822E-1,-9.802198410E0,6.221338734E-2
4.017000218E1,6.299105883E-1,-9.766305923E0,-9.631111473E-2
4.019026885E1,7.782655358E-1,-9.730413437E0,-7.477571070E-2
4.021053552E1,9.505487680E-1,-9.780662537E0,8.374879509E-2
4.023080213E1,1.115653515E0,-9.828518867E0,2.584248483E-1
4.025106880E1,1.194616675E0,-9.795019150E0,3.732803464E-1
4.027133547E1,1.137188911E0,-9.785448074E0,2.416750938E-1
4.029160208E1,1.017547846E0,-9.799804688E0,5.024927482E-2
4.031186875E1,1.005583763E0,-9.818947792E0,-1.974078640E-2
4.033213536E1,1.031904817E0,-9.854840279E0,1.220339537E-1
4.035240203E1,1.015154958E0,-9.895518303E0,2.775674164E-1
4.037266870E1,9.481559992E-1,-9.811769485E0,2.392822653E-1
4.039293531E1,9.385846853E-1,-9.775876999E0,8.853443712E-2
4.041320192E1,9.720842242E-1,-9.747162819E0,-9.571290575E-3
4.043346859E1,1.017547846E0,-9.761520386E0,1.674975827E-2
4.045373521E1,9.936196208E-1,-9.783055305E0,1.004985496E-1
4.047400187E1,9.864411354E-1,-9.773484230E0,1.411765367E-1
4.049426849E1,9.768698215E-1,-9.756733894E0,9.571290761E-2
4.051453515E1,1.005583763E0,-9.754341125E0,4.067798331E-2
4.053480177E1,1.005583763E0,-9.766305923E0,5.264209956E-2
4.055506838E1,9.792626500E-1,-9.787840843E0,1.028913707E-1
4.057533505E1,9.194421172E-1,-9.811769485E0,1.459621787E-1
4.059560166E1,8.787640929E-1,-9.780662537E0,1.339980662E-1
4.061586828E1,8.309076428E-1,-9.778269768E0,1.004985496E-1
4.063626828E1,8.356932998E-1,-9.795019150E0,9.571290761E-2
4.065640156E1,9.361918569E-1,-9.797411919E0,9.810572863E-2
4.067666818E1,8.572286963E-1,-9.797411919E0,1.292124242E-1
4.069693484E1,7.639086246E-1,-9.806983948E0,1.914258152E-1
4.071720146E1,7.471588850E-1,-9.795019150E0,1.890329868E-1
4.073746807E1,7.854440212E-1,-9.790233612E0,1.483550072E-1
4.075773468E1,8.237292171E-1,-9.763913155E0,8.374879509E-2
4.077800130E1,8.333004713E-1,-9.763913155E0,8.374879509E-2
4.079826797E1,8.237292171E-1,-9.766305923E0,1.028913707E-1
4.081853458E1,7.974081635E-1,-9.732806206E0,1.316052526E-1
4.083880120E1,7.806583643E-1,-9.739984512E0,1.339980662E-1
4.085906781E1,7.734799385E-1,-9.818947792E0,1.435693651E-1
4.087933442E1,7.543373108E-1,-9.804591179E0,1.986042857E-1
4.089960104E1,7.256234884E-1,-9.771091461E0,2.321037948E-1
4.091986765E1,6.681957245E-1,-9.816555023E0,2.440679073E-1
4.094013432E1,5.772684813E-1,-9.780662537E0,2.536391914E-1
4.096040094E1,4.384847581E-1,-9.747162819E0,2.297109663E-1
4.098066755E1,3.595215976E-1,-9.823733330E0,1.411765367E-1
4.100093416E1,5.389832854E-1,-9.845269203E0,9.332008660E-2
4.102120078E1,8.021938205E-1,-9.787840843E0,2.057827413E-1
4.104146739E1,8.931210637E-1,-9.802198410E0,3.086741269E-1
4.106173401E1,7.974081635E-1,-9.795019150E0,2.775674164E-1
4.108200062E1,6.346961856E-1,-9.785448074E0,1.100698411E-1
4.110226724E1,4.719842672E-1,-9.828518867E0,2.392822690E-2
4.112253380E1,4.169493318E-1,-9.787840843E0,1.674975827E-2
4.114280041E1,5.246263742E-1,-9.754341125E0,2.392822690E-2
4.116306703E1,6.825526357E-1,-9.713663101E0,5.982056633E-2
4.118333359E1,8.668000102E-1,-9.768698692E0,1.220339537E-1
4.120360021E1,1.070189953E0,-9.785448074E0,1.746760458E-1
4.122386682E1,1.189831018E0,-9.737591743E0,1.914258152E-1
4.124413344E1,1.185045362E0,-9.783055305E0,1.866401732E-1
4.126440005E1,1.060618639E0,-9.787840843E0,1.770688742E-1
4.128466666E1,9.002995491E-1,-9.833304405E0,1.507478207E-1
4.130493328E1,7.926225066E-1,-9.885947227E0,1.507478207E-1
4.132519984E1,7.830511928E-1,-9.850054741E0,1.770688742E-1
