"Time (s)","Acceleration x (m/s^2)","Acceleration y (m/s^2)","Acceleration z (m/s^2)"
1.948074400E-2,-4.197634220E0,4.827907562E0,6.302735806E0
3.949793200E-2,-3.749918461E0,4.497508049E0,6.824671745E0
5.954678600E-2,-3.024475336E0,4.188655853E0,7.507019520E0
7.963168200E-2,-2.619855165E0,4.006696701E0,8.287528992E0
9.975543200E-2,-2.665344954E0,4.013879299E0,7.882909298E0
1.199191820E-1,-2.524087191E0,3.968389273E0,6.946776390E0
1.401224110E-1,-2.172139406E0,3.365050554E0,7.289146900E0
1.603630360E-1,-3.362057686E0,4.140771866E0,9.623494148E0
1.806376190E-1,-3.608660460E0,3.860650301E0,1.084932518E1
2.009413690E-1,-2.370858192E0,2.369062662E0,1.010472870E1
2.212686610E-1,-4.626794755E-1,1.267729759E0,8.632294655E0
2.416130360E-1,9.091981053E-1,1.104924083E0,7.404068947E0
2.619677230E-1,8.732850552E-1,1.545457244E0,7.274781704E0
2.823257440E-1,-2.687491477E-1,1.648407817E0,8.526948929E0
3.025975150E-1,-2.028487444E0,1.830367208E0,1.043512821E1
3.227882440E-1,-1.944690347E0,2.325966835E0,1.043752193E1
3.429735570E-1,-8.170213103E-1,2.208651066E0,9.968258858E0
3.631592860E-1,-1.006163239E0,2.287659645E0,8.965087891E0
3.833456400E-1,-3.094505668E-1,1.138442874E0,8.105569839E0
4.035327230E-1,4.614823759E-1,-8.224082589E-1,8.352172852E0
4.237206400E-1,-1.657984704E-1,-6.476315856E-1,7.159860134E0
4.439094940E-1,-1.044470549E0,3.076549172E-1,6.137536049E0
4.640992860E-1,-1.880046844E0,2.837128937E-1,7.437587738E0
4.842900150E-1,-2.090736628E0,-4.321534038E-1,8.775946617E0
5.044816820E-1,-2.694075346E0,-1.831564307E-1,8.771158218E0
5.246741820E-1,-1.726817966E0,-1.523909330E0,8.127118111E0
5.448674110E-1,-1.561618090E0,-3.187879562E0,6.350619793E0
5.650612650E-1,-2.521692991E0,-3.453635931E0,4.679467201E0
5.852556400E-1,-3.685275078E0,-4.114435673E0,4.897339344E0
6.054503270E-1,-3.673303843E0,-4.873397350E0,6.032191277E0
6.256452230E-1,-3.129820108E0,-5.488707542E0,6.865373611E0
6.458509520E-1,-3.788225651E0,-4.789600372E0,6.721721172E0
6.660323070E-1,-5.246294498E0,-5.742492676E0,7.538144112E0
6.862139730E-1,-6.531980991E0,-6.173449039E0,7.423222542E0
7.063963690E-1,-6.996456146E0,-6.180631638E0,6.862978935E0
7.265798070E-1,-6.517615795E0,-6.420052052E0,7.799111843E0
7.467644940E-1,-8.349180222E0,-6.829460144E0,1.046625233E1
7.669506400E-1,-1.068592072E1,-7.358579159E0,1.198896503E1
7.871383480E-1,-1.051353836E1,-6.925228596E0,1.077031612E1
8.073277230E-1,-9.007585526E0,-6.520608425E0,9.515754700E0
8.275187650E-1,-8.555081367E0,-6.834248543E0,8.828619003E0
8.477113690E-1,-8.787319183E0,-7.097610950E0,8.723274231E0
8.679054320E-1,-8.964489937E0,-7.135918140E0,9.161413193E0
8.881007440E-1,-8.677185059E0,-7.135918140E0,9.575610161E0
9.082970980E-1,-7.841609001E0,-6.673837185E0,9.309853554E0
9.284941820E-1,-7.039551735E0,-6.269217014E0,7.246051311E0
9.486916820E-1,-6.634931564E0,-6.922834396E0,6.700173378E0
9.688893900E-1,-6.579864979E0,-6.872556210E0,6.709750175E0
9.890855360E-1,-7.013215542E0,-6.874950409E0,6.173449039E0
1.009276369E0,-6.730699539E0,-6.752845764E0,5.306747913E0
1.029461786E0,-6.105813026E0,-6.084863663E0,4.401739597E0
1.049647619E0,-5.380369663E0,-5.629965305E0,3.207033157E0
1.069833973E0,-6.065111637E0,-5.045780182E0,1.629254222E0
1.090021057E0,-8.830414772E0,-3.484760523E0,2.187103271E0
1.110208973E0,-9.297284126E0,-3.173514366E0,3.750516891E0
1.130397827E0,-6.294954777E0,-5.565321922E0,3.590105534E0
1.150587619E0,-5.227140903E0,-5.256469727E0,2.737769604E0
1.170778348E0,-5.550358295E0,-3.642777920E0,2.491166830E0
1.190970015E0,-6.716334343E0,-3.594893932E0,3.116053581E0
1.211162515E0,-8.993220329E0,-4.653131008E0,2.890998602E0
1.231355744E0,-9.895833969E0,-3.867832899E0,2.050633669E0
1.251549598E0,-8.811261177E0,-3.472789526E0,8.942343593E-1
1.271743973E0,-8.397064209E0,-3.561375141E0,9.157821536E-1
1.291938661E0,-6.986878872E0,-3.707421303E0,2.366668463E0
1.312133557E0,-6.869563103E0,-2.682703018E0,3.501519918E0
1.332339286E0,-7.875127792E0,-2.515108824E0,3.886986494E0
1.352520536E0,-7.978078842E0,-2.601300240E0,3.453635931E0
1.372702098E0,-8.430583000E0,-2.582146645E0,2.685097218E0
1.392884390E0,-7.963713169E0,-2.934094191E0,1.897404790E0
1.413067723E0,-6.599018574E0,-2.919728994E0,-9.828197956E-1
1.433252307E0,-4.994903088E0,-3.415328741E0,-3.044227362E0
1.453438348E0,-4.542399406E0,-3.693056107E0,-2.220622063E0
1.473625952E0,-5.679645061E0,-4.978742599E0,6.691793799E-1
1.493815223E0,-8.200738907E0,-6.867767811E0,1.997961283E0
1.514006161E0,-5.387552261E0,-5.795165062E0,4.632780254E-1
1.534198661E0,-2.907159328E0,-6.077681065E0,-4.967968464E-1
1.554392619E0,-2.995744944E0,-8.031349182E0,-2.579752445E0
1.574587827E0,-9.206304550E0,-1.077989292E1,5.147533491E-2
1.594784077E0,-1.492365742E1,-8.596381187E0,1.985990286E0
1.614981161E0,-1.442566395E1,-8.103176117E0,1.598129630E0
1.635178765E0,-1.193808842E1,-8.744821548E0,1.531091928E0
1.655376577E0,-9.740211487E0,-1.006402683E1,2.543839216E0
1.675573869E0,-8.076240540E0,-1.092115116E1,4.657919407E0
1.695764702E0,-5.480926037E0,-9.319430351E0,4.337096214E0
1.715950119E0,-4.494514942E0,-7.880515099E0,2.108094692E0
1.736135952E0,-4.262277603E0,-7.478289127E0,7.170634270E-1
1.756322307E0,-2.555211782E0,-7.779958248E0,-5.805938840E-1
1.776509390E0,-3.618237257E0,-7.954735279E0,-8.415619135E-1
1.796697307E0,-5.392340660E0,-7.993042469E0,-1.903390288E-1
1.816886161E0,-6.271012783E0,-7.923610687E0,4.465186298E-1
1.837075952E0,-6.654085159E0,-7.665036678E0,1.768117905E0
1.857266682E0,-6.910264492E0,-8.431180954E0,2.057816267E0
1.877458348E0,-5.653308868E0,-9.582792282E0,9.373299479E-1
1.897650848E0,-4.214393616E0,-9.388861656E0,2.166752517E-1
1.917844077E0,-4.973355293E0,-4.241328239E0,5.710170865E-1
1.938037932E0,-6.206369400E0,-1.708262920E0,6.823474914E-2
1.958232307E0,-5.770624638E0,-6.429628849E0,-2.070984542E-1
1.978426994E0,-3.917512417E0,-1.148618221E1,1.495178938E0
1.998621890E0,-3.115454912E0,-1.458428001E1,1.614889026E0
2.018827619E0,-4.475361347E0,-1.116775417E1,5.626374111E-2
2.039008765E0,-4.324526787E0,-8.783128738E0,1.316810958E-2
2.059190223E0,-4.820126534E0,-9.453505516E0,2.621650994E-1
2.079372411E0,-5.023633480E0,-9.357737541E0,1.544260085E-1
2.099555640E0,-5.193622112E0,-9.812635422E0,-8.702923059E-1
2.119740119E0,-5.327697277E0,-1.000417137E1,-1.619677424E0
2.139926057E0,-3.170521498E0,-1.135929012E1,-4.848258495E-1
2.160113661E0,-1.719635367E0,-1.133774185E1,4.321534038E-1
2.180302932E0,-1.377264500E0,-9.652224541E0,9.038111567E-1
2.200493869E0,5.572504401E-1,-9.096769333E0,7.026981711E-1
2.220686369E0,1.210867524E0,-7.425616741E0,-3.244143426E-1
2.240880327E0,6.506243348E-1,-6.288370609E0,-4.189852998E-2
2.261075536E0,-1.221641421E0,-6.494272232E0,5.303156972E-1
2.281271786E0,-1.982997537E0,-6.096834660E0,6.715735793E-1
2.301468869E0,-5.919663906E-1,-1.851915002E0,1.663970202E-1
2.321666473E0,1.818994761E0,-5.129577160E0,-7.505822182E-1
2.341864286E0,1.490989089E0,-6.659471989E0,-1.236605167E0
2.362061786E0,-1.176151633E0,-8.941145897E0,-9.612720013E-1
2.382252619E0,-3.148973703E0,-1.280059910E1,-4.872200489E-1
2.402438036E0,-6.364386559E0,-1.642542076E1,-5.374982953E-1
2.422623869E0,-7.858368397E0,-1.454118443E1,-2.035071515E-2
2.442810223E0,-7.432200432E0,-1.166335392E1,3.866635859E-1
2.462997307E0,-3.838503838E0,-1.150773048E1,-1.352723986E-1
2.483185223E0,-5.536591411E-1,-1.253963184E1,2.214636505E-1
2.503374077E0,4.088099301E-1,-1.248217010E1,4.417302012E-1
2.523563869E0,-7.068880796E-1,-1.206557941E1,4.752490520E-1
2.543754598E0,-2.117072821E0,-1.041357994E1,-5.865794048E-2
2.563946265E0,-2.622249365E0,-8.304288864E0,-1.310825467E0
2.584138765E0,-2.753930569E0,-5.819107056E0,-1.748964310E0
2.604331994E0,-2.337339401E0,-5.766434669E0,-7.649474144E-1
2.624525848E0,-1.001374841E0,-7.056909561E0,8.020575345E-2
2.644720223E0,1.047463268E-1,-7.626729488E0,-2.190694511E-1
2.664914911E0,2.986766696E-1,-8.220491409E0,-7.769184709E-1
2.685109807E0,4.830302000E-1,-9.285911560E0,-1.198297977E0
2.705315536E0,7.463923693E-1,-1.038006115E1,-1.509544134E0
2.725496473E0,2.651578486E-1,-9.321824074E0,-1.234210968E0
2.745677723E0,-1.017535757E-2,-9.896432877E0,-9.564836025E-1
2.765859702E0,-1.496376097E-2,-1.293228054E1,-7.793126702E-1
2.786042723E0,-1.044470549E0,-1.533845329E1,-8.511387110E-1
2.806227098E0,-2.425924778E0,-1.445738697E1,-6.931213737E-1
2.826413036E0,-2.311003208E0,-1.188840866E1,-2.621650994E-1
2.846600640E0,-1.262342811E0,-1.071764374E1,-7.122750282E-1
2.866789911E0,-4.100070298E-1,-1.013824749E1,-9.923965931E-1
2.886980848E0,-2.280477136E-1,-1.032978344E1,-9.157821536E-1
2.907173452E0,-2.543839216E-1,-1.039442635E1,-7.074866295E-1
2.927367515E0,-3.573346138E-1,-9.668983459E0,-3.914519846E-1
2.947562932E0,-7.978677154E-1,-8.797493935E0,-2.621650994E-1
2.967759390E0,-1.360505104E0,-8.141483307E0,-4.513070285E-1
2.987956682E0,-1.671751380E0,-7.473500729E0,-8.271966577E-1
3.008154494E0,-1.880046844E0,-7.044938564E0,-9.732429981E-1
3.028352515E0,-2.253542423E0,-7.229291916E0,-1.126471877E0
3.048549911E0,-3.378817081E0,-8.301894188E0,-1.028309584E0
3.068740744E0,-4.154538631E0,-9.776722908E0,-4.896142483E-1
3.088926161E0,-3.503315687E0,-1.008796883E1,3.794809580E-1
3.109111994E0,-2.320580006E0,-9.391256332E0,5.303156972E-1
3.129298348E0,-2.457049608E0,-9.364919662E0,-2.980781198E-1
3.149485432E0,-2.569576979E0,-9.503783226E0,-8.056488633E-1
3.169673348E0,-2.234388828E0,-9.668983459E0,-5.662286878E-1
3.189862202E0,-2.081159830E0,-9.668983459E0,-2.238578647E-1
3.210051994E0,-2.217629433E0,-9.479841232E0,-2.023100406E-1
3.230242723E0,-2.540846586E0,-9.417592049E0,-4.800374508E-1
3.250434390E0,-3.378817081E0,-9.307458878E0,-1.092953086E0
3.270626890E0,-4.475361347E0,-8.974664688E0,-1.681926727E0
3.290820119E0,-4.437054157E0,-9.496601105E0,-1.899798989E0
3.311013973E0,-2.892794132E0,-1.039682102E1,-1.760935307E0
3.331208348E0,-1.475426793E0,-1.016218948E1,-1.387439847E0
3.351403036E0,-9.510966539E-1,-1.164659405E1,1.124077678E0
3.371597932E0,-1.504157186E0,-1.196981144E1,2.254140854E0
3.391803661E0,-2.682104349E0,-1.021486187E1,1.100135684E0
3.411985327E0,-2.981379747E0,-9.108740807E0,4.668693244E-2
3.432167307E0,-1.710058570E0,-9.338583946E0,-8.942343593E-1
3.452349911E0,1.095347255E-1,-1.011191082E1,-1.715445518E0
3.472533452E0,1.249174714E0,-1.030105305E1,-1.868674397E0
3.492718244E0,1.103128433E0,-9.238027573E0,-1.341950059E0
3.512904494E0,2.723404467E-1,-7.463923931E0,-1.006761789E0
3.533092307E0,5.686229095E-2,-5.555745125E0,-8.367735147E-1
3.553281682E0,-1.897404790E-1,-4.406527996E0,-7.601590157E-1
3.573472619E0,-6.733692288E-1,-6.106411457E0,-1.011550188E0
3.593665119E0,-3.238157928E-1,-8.431180954E0,-1.545457244E0
3.613859077E0,4.728548229E-2,-9.419986725E0,-2.536656618E0
3.634054286E0,5.955576897E-1,-1.160828686E1,-3.015496969E0
3.654250536E0,-6.398503780E-1,-1.323394966E1,-2.900575399E0
3.674447515E0,-3.156156301E0,-1.267370701E1,-2.342726469E0
3.694645015E0,-5.160103321E0,-1.146942329E1,1.286883354E0
3.714842723E0,-4.360439777E0,-1.053807831E1,4.818330765E0
3.735039494E0,-2.653373957E0,-1.041118622E1,4.728548229E-1
3.755230327E0,-1.628655672E0,-1.025795746E1,-2.665943623E0
3.775415744E0,-2.974795699E-1,-9.515754700E0,-2.182314873E0
3.795601577E0,8.230068088E-1,-8.165425301E0,-8.104372621E-1
3.815788036E0,9.834183455E-1,-7.315483093E0,-3.627215624E-1
3.835975223E0,3.585317135E-1,-8.457517624E0,-7.541735470E-2
3.856163244E0,-7.020996213E-1,-8.945934296E0,-1.327584863E0
3.876352202E0,-7.523778677E-1,-9.352949142E0,-1.954865694E0
3.896542098E0,-6.853402257E-1,-9.791088104E0,-1.710657120E0
3.916732932E0,-9.032126069E-1,-1.035611916E1,-8.631097078E-1
3.936924702E0,-1.212064624E0,-1.060511684E1,-2.549824715E-1
3.957117307E0,-1.458667397E0,-1.049019432E1,-4.896142483E-1
3.977310640E0,-2.332551003E0,-9.977835655E0,-1.049857497E0
3.997504598E0,-3.749918461E0,-9.527725220E0,-1.684320927E0
4.017699077E0,-4.810549736E0,-9.475052834E0,-1.337161660E0
4.037893869E0,-5.052364349E0,-9.324218750E0,-1.316810958E-2
4.058088765E0,-4.446630955E0,-9.039308548E0,6.763619781E-1
4.078294494E0,-3.216011524E0,-8.965087891E0,-3.591302549E-3
4.098475432E0,-2.346916199E0,-9.487024307E0,-1.399410844E0
4.118656682E0,-1.683722377E0,-9.791088104E0,-1.837549806E0
4.138838661E0,-1.221641421E0,-9.649829865E0,-1.250970364E0
4.159021682E0,-1.073200941E0,-9.637859344E0,-5.758054852E-1
4.179206057E0,-1.382052898E0,-9.752780914E0,-2.813186944E-1
4.199391994E0,-2.009333849E0,-9.599552155E0,-3.220201433E-1
4.219579598E0,-2.342127800E0,-9.429563522E0,-4.967968464E-1
4.239768973E0,-2.354098797E0,-9.405621529E0,-4.991910458E-1
4.259960015E0,-2.167351007E0,-9.470264435E0,-5.135562420E-1
4.280152723E0,-1.987785935E0,-9.542090416E0,-5.997475386E-1
4.300346890E0,-1.829768658E0,-9.604340553E0,-7.745242715E-1
4.320542411E0,-1.805826664E0,-9.599552155E0,-1.006761789E0
4.340738973E0,-1.786673069E0,-9.609128952E0,-1.224634171E0
4.360936369E0,-1.863287449E0,-9.558850288E0,-1.318008065E0
4.381134286E0,-2.078765631E0,-9.498994827E0,-1.095347285E0
4.401332411E0,-2.220023632E0,-9.477447510E0,-7.074866295E-1
4.421529702E0,-2.248754025E0,-9.520543098E0,-4.345476031E-1
4.441720640E0,-2.172139406E0,-9.503783226E0,-3.363853395E-1
4.461911473E0,-2.054823637E0,-9.496601105E0,-4.896142483E-1
4.482096890E0,-1.971026540E0,-9.570821762E0,-6.548141837E-1
4.502282723E0,-1.925536752E0,-9.563638687E0,-7.577648163E-1
4.522469182E0,-1.875258446E0,-9.510966301E0,-7.697358727E-1
4.542656369E0,-1.848922253E0,-9.532513618E0,-6.572083831E-1
4.562844390E0,-1.834557056E0,-9.587580681E0,-5.398924947E-1
4.583033348E0,-1.870470047E0,-9.585186958E0,-4.920084476E-1
4.603223244E0,-1.906383157E0,-9.551667213E0,-4.848258495E-1
4.623414077E0,-1.920748353E0,-9.570821762E0,-4.967968464E-1
4.643605848E0,-1.930325150E0,-9.570821762E0,-4.991910458E-1
4.663798452E0,-1.894412041E0,-9.546878815E0,-5.063736439E-1
4.683991786E0,-1.860893250E0,-9.554061890E0,-5.351040959E-1
4.704185744E0,-1.829768658E0,-9.556455612E0,-5.853823423E-1
4.724380223E0,-1.856104851E0,-9.568427086E0,-6.332663298E-1
4.744575015E0,-1.863287449E0,-9.556455612E0,-6.619967818E-1
4.764769911E0,-1.882441044E0,-9.549273491E0,-6.476315856E-1
4.784975640E0,-1.937507749E0,-9.554061890E0,-6.212953329E-1
4.805156682E0,-2.009333849E0,-9.539696693E0,-6.260837317E-1
4.825338036E0,-2.066794634E0,-9.534908295E0,-6.667851806E-1
4.845520119E0,-2.069188833E0,-9.520543098E0,-6.835445762E-1
4.865703244E0,-2.054823637E0,-9.532513618E0,-6.859387755E-1
4.885887723E0,-2.047641039E0,-9.520543098E0,-7.003039718E-1
4.906073661E0,-2.033275843E0,-9.494206429E0,-7.649474144E-1
4.926261265E0,-1.999756932E0,-9.484629631E0,-8.319851160E-1
4.946450536E0,-1.951872945E0,-9.513360023E0,-8.463503122E-1
4.966641473E0,-1.896806240E0,-9.506177902E0,-8.200140595E-1
4.986834077E0,-1.870470047E0,-9.491812706E0,-7.841010690E-1
5.007028140E0,-1.935113549E0,-9.527725220E0,-6.667851806E-1
5.027223557E0,-2.097919226E0,-9.563638687E0,-5.422866940E-1
5.047420015E0,-2.239177227E0,-9.542090416E0,-4.824316502E-1
5.067617307E0,-2.299032211E0,-9.539696693E0,-5.039794445E-1
5.087815119E0,-2.231994629E0,-9.525331497E0,-6.548141837E-1
5.108013140E0,-2.114678621E0,-9.551667213E0,-7.984662652E-1
5.128210952E0,-2.088342428E0,-9.549273491E0,-8.439561129E-1
5.148401890E0,-2.097919226E0,-9.532513618E0,-7.793126702E-1
5.168592723E0,-2.119467020E0,-9.487024307E0,-6.859387755E-1
5.188778140E0,-2.152985811E0,-9.439140320E0,-6.189011335E-1
5.208963973E0,-2.169745207E0,-9.527725220E0,-6.476315856E-1
5.229150432E0,-2.114678621E0,-9.558850288E0,-7.026981711E-1
5.249337619E0,-2.141014814E0,-9.522936821E0,-7.218518257E-1
5.269525640E0,-2.224812031E0,-9.506177902E0,-6.715735793E-1
5.289714598E0,-2.270301819E0,-9.429563522E0,-6.212953329E-1
5.309904494E0,-2.205658197E0,-9.343372345E0,-6.165069342E-1
5.330095327E0,-2.050035238E0,-9.396044731E0,-6.859387755E-1
5.350287098E0,-1.925536752E0,-9.491812706E0,-8.176198602E-1
5.370479702E0,-1.872864246E0,-9.515754700E0,-9.229647517E-1
5.390673036E0,-1.851316452E0,-9.498994827E0,-9.852139950E-1
5.410866994E0,-1.923142552E0,-9.522936821E0,-9.732429981E-1
5.431061473E0,-2.011728048E0,-9.463082314E0,-9.229647517E-1
5.451256265E0,-2.169745207E0,-9.429563522E0,-8.918401599E-1
5.471451161E0,-2.303820610E0,-9.451110840E0,-8.152256608E-1
5.491656890E0,-2.351704597E0,-9.491812706E0,-6.763619781E-1
5.511837827E0,-2.311003208E0,-9.546878815E0,-5.087678432E-1
5.532019077E0,-2.148197412E0,-9.618705750E0,-4.297592044E-1
5.552201057E0,-1.942296147E0,-9.676166534E0,-4.177882075E-1
5.572384077E0,-1.865681648E0,-9.683348656E0,-4.704606235E-1
5.592568452E0,-1.906383157E0,-9.604340553E0,-5.015852451E-1
5.612754390E0,-2.047641039E0,-9.506177902E0,-5.351040959E-1
5.632941994E0,-2.188898802E0,-9.439140320E0,-6.332663298E-1
5.653131369E0,-2.217629433E0,-9.434351921E0,-7.793126702E-1
5.673322411E0,-2.121861219E0,-9.453505516E0,-9.205705523E-1
5.693515119E0,-1.911171556E0,-9.465476036E0,-9.636662006E-1
5.713709286E0,-1.781884670E0,-9.616311073E0,-9.373299479E-1
5.733904807E0,-1.695693374E0,-9.810241699E0,-8.463503122E-1
5.754101369E0,-1.650203466E0,-9.068038940E0,-7.218518257E-1
5.774298765E0,-2.287061214E0,-9.340977669E0,-9.756371975E-1
5.794496682E0,-2.373252392E0,-9.736021042E0,-1.006761789E0
5.814694807E0,-2.253542423E0,-9.489418030E0,-5.542576909E-1
5.834891786E0,-2.100313425E0,-9.472659111E0,-2.477998734E-1
5.855082619E0,-1.767519355E0,-9.563638687E0,-4.513070285E-1
5.875268036E0,-1.856104851E0,-9.589975357E0,-8.271966577E-1
5.895453869E0,-2.172139406E0,-9.482235909E0,-8.702923059E-1
5.915640223E0,-2.385223389E0,-9.398438454E0,-8.319851160E-1
5.935827307E0,-2.387617588E0,-9.467870712E0,-9.780313969E-1
5.956015223E0,-2.248754025E0,-9.578003883E0,-1.114500880E0
5.976204077E0,-2.229600430E0,-9.616311073E0,-9.995791912E-1
5.996393869E0,-2.394800186E0,-9.558850288E0,-8.583213091E-1
6.016584598E0,-2.560000181E0,-9.467870712E0,-9.181763530E-1
6.036776265E0,-2.636614561E0,-9.410409927E0,-9.325415492E-1
6.056968765E0,-2.607884169E0,-9.458293915E0,-7.864952683E-1
6.077162098E0,-2.349310398E0,-9.460687637E0,-6.452373862E-1
6.097356057E0,-1.990180135E0,-9.410409927E0,-5.853823423E-1
6.117550536E0,-1.676539779E0,-9.465476036E0,-5.494692922E-1
6.137745327E0,-1.468244195E0,-9.542090416E0,-6.308721304E-1
6.157940327E0,-1.458667397E0,-9.515754700E0,-9.684545994E-1
6.178146161E0,-1.607107878E0,-9.453505516E0,-1.318008065E0
6.198327202E0,-1.765125155E0,-9.424775124E0,-1.490390539E0
6.218508557E0,-1.954267144E0,-9.501389503E0,-1.373074651E0
6.238690640E0,-2.184110403E0,-9.580398560E0,-9.181763530E-1
6.258873765E0,-2.413953781E0,-9.551667213E0,-4.489128292E-1
6.279058140E0,-2.682104349E0,-9.498994827E0,-1.663970202E-1
6.299243973E0,-2.708440781E0,-9.216479301E0,-2.549824715E-1
6.319431473E0,-2.279878616E0,-9.154230118E0,-8.607155085E-1
6.339620640E0,-1.446696401E0,-9.470264435E0,-1.684320927E0
6.359811473E0,-7.978677154E-1,-1.002811337E1,-1.641225219E0
6.380003973E0,-8.146271110E-1,-1.035851383E1,-3.268085420E-1
6.400198036E0,-2.047641039E0,-9.721655846E0,1.256955862E-1
6.420393452E0,-3.017292738E0,-9.161413193E0,-3.962403834E-1
6.440589911E0,-3.340509892E0,-9.266757965E0,-7.266402245E-1
6.460787202E0,-3.615843058E0,-9.537302017E0,-2.190694511E-1
6.480985015E0,-3.517680883E0,-9.496601105E0,-1.256955862E-1
6.501183036E0,-2.342127800E0,-8.989029884E0,-7.864952683E-1
6.521380640E0,-1.631049871E0,-9.068038940E0,-1.792060018E0
6.541571473E0,-1.192911029E0,-9.609128952E0,-2.153584480E0
6.561756890E0,-6.997054219E-1,-1.002811337E1,-1.399410844E0
6.581942723E0,-5.392939448E-1,-9.958682060E0,-6.141127348E-1
6.602129077E0,-1.128267527E0,-9.750386238E0,-4.153940082E-1
6.622316161E0,-1.930325150E0,-9.556455612E0,-4.896142483E-1
6.642504077E0,-2.126649618E0,-9.400833130E0,-5.542576909E-1
6.662692932E0,-2.062006235E0,-9.285911560E0,-7.697358727E-1
6.682882723E0,-2.117072821E0,-9.329007149E0,-1.231816769E0
6.703073452E0,-2.301426411E0,-9.487024307E0,-1.365892053E0
6.723265119E0,-2.543240786E0,-9.592369080E0,-9.540894032E-1
6.743457619E0,-2.751536369E0,-9.585186958E0,-5.063736439E-1
6.763650848E0,-2.876034737E0,-9.475052834E0,-4.608838260E-1
6.783844702E0,-2.847304344E0,-9.357737541E0,-7.984662652E-1
6.804039077E0,-2.686892748E0,-9.343372345E0,-1.136048675E0
6.824233765E0,-2.358887196E0,-9.374496460E0,-1.217451572E0
6.844428661E0,-2.023699045E0,-9.472659111E0,-1.238999367E0
6.864634390E0,-1.791461468E0,-9.561244011E0,-1.217451572E0
6.884815432E0,-1.779490471E0,-9.630676270E0,-1.057040095E0
6.904996786E0,-1.978209138E0,-9.623494148E0,-7.769184709E-1
6.925178869E0,-2.258330822E0,-9.489418030E0,-6.045359373E-1
6.945361994E0,-2.490568399E0,-9.364919662E0,-7.194576263E-1
6.965546369E0,-2.536058187E0,-9.429563522E0,-9.660604000E-1
6.985732202E0,-2.339733601E0,-9.554061890E0,-1.073799491E0
7.005919702E0,-2.198475599E0,-9.487024307E0,-1.025915384E0
7.026108869E0,-2.217629433E0,-9.494206429E0,-9.109937549E-1
7.046299702E0,-1.975814939E0,-9.642647743E0,-7.912836671E-1
7.066492202E0,-1.556829691E0,-9.343372345E0,-7.338228226E-1
7.086686161E0,-1.362899303E0,-9.321824074E0,-9.062053561E-1
7.106881473E0,-1.501762986E0,-9.633070946E0,-1.219845772E0
7.127077827E0,-1.944690347E0,-9.621099472E0,-1.181538582E0
7.147275015E0,-2.212841034E0,-9.360131264E0,-7.170634270E-1
7.167472723E0,-2.239177227E0,-9.369708061E0,-5.518634915E-1
7.187670640E0,-2.243965626E0,-9.532513618E0,-9.205705523E-1
7.207868244E0,-2.334945202E0,-9.525331497E0,-1.128866076E0
7.228058973E0,-2.447472572E0,-9.510966301E0,-8.439561129E-1
7.248244286E0,-2.490568399E0,-9.556455612E0,-5.351040959E-1
7.268430015E0,-2.516904593E0,-9.609128952E0,-4.967968464E-1
7.288616369E0,-2.595913172E0,-9.589975357E0,-5.279214978E-1
7.308803452E0,-2.694075346E0,-9.477447510E0,-5.686228871E-1
7.328991369E0,-2.727594376E0,-9.427168846E0,-6.524199843E-1
7.349180223E0,-2.528875589E0,-9.472659111E0,-7.529764175E-1
7.369370015E0,-2.193687201E0,-9.482235909E0,-8.295909166E-1
7.389560744E0,-1.939901948E0,-9.494206429E0,-8.655039072E-1
7.409752411E0,-1.793855667E0,-9.510966301E0,-8.463503122E-1
7.429944911E0,-1.784278870E0,-9.527725220E0,-7.888894677E-1
7.450138140E0,-1.856104851E0,-9.520543098E0,-7.146692276E-1
7.470331994E0,-1.944690347E0,-9.503783226E0,-6.811503768E-1
7.490526369E0,-2.052429438E0,-9.477447510E0,-6.883329749E-1
7.510721057E0,-2.152985811E0,-9.453505516E0,-6.931213737E-1
7.530915848E0,-2.234388828E0,-9.436745644E0,-6.739677787E-1
7.551121473E0,-2.284667015E0,-9.422380447E0,-6.596025825E-1
7.571302202E0,-2.191293001E0,-9.405621529E0,-6.907271743E-1
7.591483244E0,-2.028487444E0,-9.484629631E0,-7.793126702E-1
7.611665015E0,-1.923142552E0,-9.544485092E0,-8.271966577E-1
7.631847827E0,-1.968632340E0,-9.506177902E0,-7.984662652E-1
7.652031994E0,-2.095525026E0,-9.475052834E0,-7.122750282E-1
7.672217723E0,-2.188898802E0,-9.472659111E0,-6.787561774E-1
7.692405119E0,-2.258330822E0,-9.451110840E0,-6.715735793E-1
7.712594286E0,-2.289455414E0,-9.451110840E0,-6.596025825E-1
7.732785223E0,-2.296638012E0,-9.453505516E0,-6.548141837E-1
7.752977827E0,-2.320580006E0,-9.465476036E0,-6.260837317E-1
7.773171994E0,-2.382829189E0,-9.453505516E0,-5.829881430E-1
7.793367515E0,-2.445078373E0,-9.429563522E0,-5.494692922E-1
7.813564077E0,-2.521692991E0,-9.427168846E0,-5.853823423E-1
7.833761473E0,-2.560000181E0,-9.410409927E0,-6.907271743E-1
7.853959390E0,-2.500145197E0,-9.443928719E0,-7.433996201E-1
7.874157515E0,-2.368463993E0,-9.458293915E0,-7.338228226E-1
7.894354286E0,-2.267907619E0,-9.475052834E0,-6.907271743E-1
7.914545015E0,-2.234388828E0,-9.489418030E0,-6.859387755E-1
7.934730327E0,-2.303820610E0,-9.448717117E0,-7.194576263E-1
7.954916057E0,-2.397194386E0,-9.405621529E0,-7.362170219E-1
7.975102307E0,-2.418742180E0,-9.436745644E0,-7.170634270E-1
7.995289286E0,-2.378040791E0,-9.455899239E0,-6.596025825E-1
8.015477098E0,-2.308609009E0,-9.470264435E0,-5.758054852E-1
8.035665848E0,-2.205658197E0,-9.472659111E0,-5.039794445E-1
8.055855536E0,-2.119467020E0,-9.460687637E0,-5.374982953E-1
8.076046161E0,-2.047641039E0,-9.510966301E0,-6.260837317E-1
8.096237723E0,-2.028487444E0,-9.525331497E0,-6.380547285E-1
8.116430119E0,-2.102707624E0,-9.489418030E0,-5.925649405E-1
8.136623244E0,-2.184110403E0,-9.475052834E0,-5.518634915E-1
8.156816994E0,-2.263119221E0,-9.479841232E0,-5.590460896E-1
8.177011265E0,-2.270301819E0,-9.463082314E0,-5.973533392E-1
8.197205848E0,-2.215235233E0,-9.467870712E0,-6.500257850E-1
8.217400640E0,-2.200869799E0,-9.479841232E0,-6.907271743E-1
8.237606265E0,-2.231994629E0,-9.496601105E0,-6.548141837E-1
8.257787307E0,-2.246359825E0,-9.479841232E0,-5.925649405E-1
8.277968661E0,-2.260725021E0,-9.472659111E0,-6.069301367E-1
8.298150744E0,-2.270301819E0,-9.477447510E0,-6.596025825E-1
8.318333869E0,-2.291849613E0,-9.463082314E0,-6.931213737E-1
8.338518244E0,-2.351704597E0,-9.482235909E0,-6.667851806E-1
8.358704077E0,-2.399588585E0,-9.434351921E0,-5.734112859E-1
8.378891577E0,-2.471414804E0,-9.408015251E0,-4.944026470E-1
8.399080744E0,-2.586336374E0,-9.415198326E0,-4.848258495E-1
8.419271577E0,-2.734776974E0,-9.405621529E0,-4.417302012E-1
8.439463973E0,-2.780266762E0,-9.427168846E0,-2.861070931E-1
8.459657827E0,-2.531269789E0,-9.235632896E0,-1.424549967E-1
8.479852932E0,-2.358887196E0,-9.254786491E0,-3.052607179E-1
8.500049077E0,-2.476203203E0,-9.496601105E0,-5.039794445E-1
8.520246057E0,-2.627037764E0,-9.510966301E0,-4.944026470E-1
8.540443557E0,-2.864063740E0,-9.403226852E0,-4.153940082E-1
8.560641265E0,-2.995744944E0,-9.221267700E0,-4.153940082E-1
8.580838765E0,-2.967014551E0,-9.161413193E0,-3.938461840E-1
8.601029182E0,-2.744353771E0,-9.364919662E0,-3.172317147E-1
8.621214182E0,-2.531269789E0,-9.613917351E0,-4.680664241E-1
8.641399598E0,-2.636614561E0,-9.623494148E0,-9.684545994E-1
8.661585640E0,-2.765901566E0,-9.525331497E0,-1.217451572E0
8.681772411E0,-2.706046581E0,-9.379284859E0,-1.011550188E0
8.701960015E0,-2.267907619E0,-9.355342865E0,-8.798691034E-1
8.722148557E0,-1.791461468E0,-9.477447510E0,-1.183932781E0
8.742338140E0,-1.511339784E0,-9.558850288E0,-1.528697729E0
8.762528765E0,-1.403600693E0,-9.573215485E0,-1.686715126E0
8.782720327E0,-1.499368787E0,-9.666589737E0,-1.519120932E0
8.802912827E0,-1.813009262E0,-9.594763756E0,-1.100135684E0
8.823106161E0,-2.047641039E0,-9.448717117E0,-8.966285586E-1
8.843300119E0,-2.129043818E0,-9.408015251E0,-9.732429981E-1
8.863494598E0,-2.148197412E0,-9.501389503E0,-1.308431268E0
8.883689390E0,-2.052429438E0,-9.510966301E0,-1.411381960E0
8.903884286E0,-1.987785935E0,-9.568427086E0,-1.023521185E0
8.924090015E0,-2.054823637E0,-9.520543098E0,-6.308721304E-1
8.944270432E0,-2.181716204E0,-9.396044731E0,-5.279214978E-1
8.964451161E0,-2.318185806E0,-9.333795547E0,-4.848258495E-1
8.984632619E0,-2.753930569E0,-9.546878815E0,-4.106055796E-1
9.004815119E0,-3.261501312E0,-9.862914085E0,-4.201824069E-1
9.024998973E0,-3.500921488E0,-9.834183693E0,-4.129997790E-1
9.045184390E0,-3.776254654E0,-9.319430351E0,-3.507505357E-1
9.065371577E0,-3.251924515E0,-8.687360764E0,1.065419763E-1
9.085560536E0,-2.306214809E0,-8.694543839E0,-2.992752194E-2
9.105751265E0,-1.973420739E0,-9.336189270E0,-1.325190663E0
9.125943765E0,-2.102707624E0,-9.927556992E0,-2.309207439E0
9.146137827E0,-2.193687201E0,-9.929951668E0,-2.278082848E0
9.166333244E0,-2.255936623E0,-9.463082314E0,-1.289277673E0
9.186529807E0,-2.368463993E0,-9.197325706E0,-4.632780254E-1
9.206727202E0,-2.492962599E0,-9.214085579E0,-4.991910458E-1
9.226925119E0,-2.413953781E0,-9.357737541E0,-1.030703783E0
9.247123244E0,-2.236783028E0,-9.441534042E0,-1.164779186E0
9.267320640E0,-2.078765631E0,-9.410409927E0,-1.013944387E0
9.287511265E0,-2.208052635E0,-9.487024307E0,-7.745242715E-1
9.307696473E0,-2.603095770E0,-9.554061890E0,-5.374982953E-1
9.327882098E0,-2.873640537E0,-9.448717117E0,-3.124433160E-1
9.348068244E0,-2.990956545E0,-9.336189270E0,-2.669534981E-1
9.368255119E0,-2.899976730E0,-9.386467934E0,-6.141127348E-1
9.388442827E0,-2.480991602E0,-9.403226852E0,-8.439561129E-1
9.408631473E0,-2.021304846E0,-9.410409927E0,-8.846575022E-1
9.428821057E0,-1.777096152E0,-9.475052834E0,-9.923965931E-1
9.449011577E0,-1.717241168E0,-9.503783226E0,-9.588778019E-1
9.469203036E0,-1.990180135E0,-9.487024307E0,-7.912836671E-1
9.489395327E0,-2.447472572E0,-9.431957245E0,-6.260837317E-1
9.509588348E0,-2.749142170E0,-9.372102737E0,-5.829881430E-1
9.529781994E0,-2.722805977E0,-9.360131264E0,-6.667851806E-1
9.549976161E0,-2.373252392E0,-9.446322441E0,-8.104372621E-1
9.570170640E0,-2.062006235E0,-9.549273491E0,-9.636662006E-1
9.590365327E0,-1.903988957E0,-9.527725220E0,-1.049857497E0
9.610570848E0,-2.045246840E0,-9.398438454E0,-1.102529883E0
9.630751473E0,-2.430713177E0,-9.372102737E0,-1.069011092E0
9.650932411E0,-2.686892748E0,-9.369708061E0,-9.229647517E-1
9.671114077E0,-2.758718967E0,-9.376891136E0,-8.846575022E-1
9.691296786E0,-2.713229179E0,-9.386467934E0,-1.030703783E0
9.711480848E0,-2.490568399E0,-9.364919662E0,-1.124077678E0
9.731666473E0,-2.351704597E0,-9.417592049E0,-1.136048675E0
9.751853765E0,-2.349310398E0,-9.443928719E0,-9.828197956E-1
9.772042827E0,-2.445078373E0,-9.422380447E0,-8.008604646E-1
9.792233557E0,-2.557605982E0,-9.393650055E0,-7.793126702E-1
9.812425952E0,-2.588730574E0,-9.384073257E0,-8.463503122E-1
9.832619807E0,-2.480991602E0,-9.393650055E0,-7.817068696E-1
9.852815015E0,-2.373252392E0,-9.429563522E0,-6.907271743E-1
9.873011265E0,-2.363675594E0,-9.451110840E0,-7.529764175E-1
9.893208348E0,-2.327762604E0,-9.451110840E0,-8.487445116E-1
9.913405952E0,-2.093130827E0,-9.429563522E0,-7.290344238E-1
9.933603765E0,-1.853710651E0,-9.498994827E0,-5.997475386E-1
9.953800640E0,-1.932719350E0,-9.604340553E0,-8.008604646E-1
9.973991161E0,-2.229600430E0,-9.542090416E0,-1.059434295E0
9.994176265E0,-2.471414804E0,-9.379284859E0,-1.057040095E0
1.001436179E1,-2.569576979E0,-9.324218750E0,-9.493009448E-1
1.003454783E1,-2.586336374E0,-9.384073257E0,-9.277531505E-1
1.005473460E1,-2.440289974E0,-9.412803650E0,-9.923965931E-1
1.007492220E1,-2.236783028E0,-9.448717117E0,-1.040280581E0
1.009511074E1,-2.102707624E0,-9.453505516E0,-1.049857497E0
1.011530022E1,-2.033275843E0,-9.448717117E0,-9.947907925E-1
1.013549064E1,-2.009333849E0,-9.460687637E0,-8.918401599E-1
1.015568199E1,-2.057217836E0,-9.508571625E0,-8.080430627E-1
1.017587418E1,-2.136226416E0,-9.539696693E0,-7.721300721E-1
1.019606710E1,-2.174533606E0,-9.479841232E0,-8.080430627E-1
1.021626064E1,-2.160168409E0,-9.410409927E0,-8.726865053E-1
1.023645470E1,-2.102707624E0,-9.446322441E0,-8.559271097E-1
1.025664908E1,-2.083554029E0,-9.458293915E0,-8.295909166E-1
1.027684366E1,-2.131438017E0,-9.439140320E0,-8.966285586E-1
1.029704908E1,-2.181716204E0,-9.489418030E0,-8.942343593E-1
1.031723033E1,-2.196081400E0,-9.554061890E0,-7.960720658E-1
1.033741189E1,-2.224812031E0,-9.578003883E0,-7.649474144E-1
1.035759408E1,-2.258330822E0,-9.491812706E0,-8.487445116E-1
1.037777720E1,-2.267907619E0,-9.388861656E0,-9.684545994E-1
1.039796158E1,-2.234388828E0,-9.400833130E0,-1.009155989E0
1.041814741E1,-2.217629433E0,-9.463082314E0,-9.540894032E-1
1.043833481E1,-2.258330822E0,-9.494206429E0,-8.631097078E-1
1.045852387E1,-2.263119221E0,-9.510966301E0,-7.936778665E-1
1.047871449E1,-2.160168409E0,-9.518148422E0,-7.745242715E-1
1.049890668E1,-2.021304846E0,-9.494206429E0,-8.295909166E-1
1.051910033E1,-1.982997537E0,-9.498994827E0,-9.564836025E-1
1.053929522E1,-2.081159830E0,-9.498994827E0,-9.780313969E-1
1.055949116E1,-2.200869799E0,-9.434351921E0,-7.984662652E-1
1.057968783E1,-2.284667015E0,-9.465476036E0,-6.476315856E-1
1.059988491E1,-2.315791607E0,-9.527725220E0,-6.284779310E-1
1.062008220E1,-2.320580006E0,-9.518148422E0,-7.074866295E-1
1.064027845E1,-2.303820610E0,-9.472659111E0,-8.487445116E-1
1.066046897E1,-2.270301819E0,-9.441534042E0,-9.540894032E-1
1.068065939E1,-2.243965626E0,-9.431957245E0,-1.004367590E0
1.070084439E1,-2.224812031E0,-9.463082314E0,-1.021126986E0
1.072102981E1,-2.184110403E0,-9.475052834E0,-1.009155989E0
1.074121585E1,-2.150591612E0,-9.477447510E0,-1.004367590E0
1.076140262E1,-2.126649618E0,-9.472659111E0,-1.006761789E0
1.078159022E1,-2.141014814E0,-9.477447510E0,-1.042674899E0
1.080177876E1,-2.188898802E0,-9.467870712E0,-1.090558887E0
1.082196824E1,-2.227206230E0,-9.451110840E0,-1.124077678E0
1.084215866E1,-2.282272816E0,-9.429563522E0,-1.119289279E0
1.086235002E1,-2.380434990E0,-9.427168846E0,-1.071405292E0
1.088254220E1,-2.425924778E0,-9.455899239E0,-1.001973391E0
1.090273512E1,-2.366069794E0,-9.479841232E0,-9.301473498E-1
1.092292866E1,-2.296638012E0,-9.498994827E0,-9.157821536E-1
1.094312272E1,-2.215235233E0,-9.479841232E0,-9.540894032E-1
1.096331710E1,-2.160168409E0,-9.482235909E0,-1.033097982E0
1.098351158E1,-2.229600430E0,-9.515754700E0,-1.100135684E0
1.100371689E1,-2.251148224E0,-9.460687637E0,-1.069011092E0
1.102389752E1,-2.246359825E0,-9.417592049E0,-1.018732786E0
1.104407845E1,-2.289455414E0,-9.441534042E0,-1.006761789E0
1.106426012E1,-2.255936623E0,-9.482235909E0,-1.021126986E0
1.108444283E1,-2.203263998E0,-9.518148422E0,-1.001973391E0
1.110462679E1,-2.188898802E0,-9.484629631E0,-9.708487988E-1
1.112481231E1,-2.222417831E0,-9.491812706E0,-9.660604000E-1
1.114499949E1,-2.277484417E0,-9.489418030E0,-9.708487988E-1
1.116518835E1,-2.354098797E0,-9.467870712E0,-9.852139950E-1
1.118537887E1,-2.375646591E0,-9.460687637E0,-9.852139950E-1
1.120557106E1,-2.313397408E0,-9.467870712E0,-9.660604000E-1
1.122576470E1,-2.277484417E0,-9.484629631E0,-9.900023937E-1
1.124595970E1,-2.275090218E0,-9.477447510E0,-1.011550188E0
1.126615574E1,-2.265513420E0,-9.458293915E0,-9.900023937E-1
1.128635262E1,-2.227206230E0,-9.482235909E0,-1.004367590E0
1.130655002E1,-2.239177227E0,-9.487024307E0,-1.035492182E0
1.132674762E1,-2.236783028E0,-9.508571625E0,-1.018732786E0
1.134694460E1,-2.167351007E0,-9.491812706E0,-9.445125461E-1
1.136713512E1,-2.126649618E0,-9.479841232E0,-8.990227580E-1
1.138732554E1,-2.145803213E0,-9.487024307E0,-9.205705523E-1
1.140751054E1,-2.208052635E0,-9.475052834E0,-9.804255962E-1
1.142769595E1,-2.282272816E0,-9.446322441E0,-9.708487988E-1
1.144788189E1,-2.263119221E0,-9.429563522E0,-8.798691034E-1
1.146806856E1,-2.164956808E0,-9.482235909E0,-7.697358727E-1
1.148825606E1,-1.997362733E0,-9.549273491E0,-7.194576263E-1
1.150844449E1,-1.899200439E0,-9.570821762E0,-7.386112213E-1
1.152863387E1,-1.956661344E0,-9.585186958E0,-7.936778665E-1
1.154882418E1,-2.018910646E0,-9.549273491E0,-7.984662652E-1
1.156901543E1,-2.102707624E0,-9.487024307E0,-8.128314614E-1
1.158920752E1,-2.169745207E0,-9.427168846E0,-8.726865053E-1
1.160940033E1,-2.119467020E0,-9.465476036E0,-8.990227580E-1
1.162959377E1,-2.016516447E0,-9.554061890E0,-8.463503122E-1
1.164978772E1,-1.951872945E0,-9.554061890E0,-7.314286232E-1
1.166998199E1,-1.930325150E0,-9.532513618E0,-6.715735793E-1
1.169017647E1,-1.971026540E0,-9.534908295E0,-6.883329749E-1
1.171038179E1,-2.021304846E0,-9.549273491E0,-7.098808289E-1
1.173056272E1,-1.985391736E0,-9.532513618E0,-6.428431273E-1
1.175074397E1,-1.896806240E0,-9.508571625E0,-5.853823423E-1
1.177092595E1,-1.877652645E0,-9.532513618E0,-6.548141837E-1
1.179110897E1,-2.014122248E0,-9.501389503E0,-7.673416734E-1
1.181129324E1,-2.215235233E0,-9.460687637E0,-7.410054207E-1
1.183147897E1,-2.277484417E0,-9.463082314E0,-6.284779310E-1
1.185166626E1,-2.191293001E0,-9.479841232E0,-5.710170865E-1
1.187185522E1,-1.963843942E0,-9.546878815E0,-6.045359373E-1
1.189204585E1,-1.779490471E0,-9.575610161E0,-6.643909812E-1
1.191223804E1,-1.726817966E0,-9.515754700E0,-6.667851806E-1
1.193243168E1,-1.865681648E0,-9.539696693E0,-6.332663298E-1
1.195262658E1,-2.004545450E0,-9.518148422E0,-5.901707411E-1
1.197282252E1,-2.059612036E0,-9.508571625E0,-5.781996846E-1
1.199301918E1,-2.038064241E0,-9.522936821E0,-6.093243361E-1
1.201321626E1,-1.999756932E0,-9.520543098E0,-6.404489279E-1
1.203341356E1,-1.942296147E0,-9.532513618E0,-6.045359373E-1
1.205360929E1,-1.868075848E0,-9.537302017E0,-5.231330991E-1
1.207379970E1,-1.882441044E0,-9.570821762E0,-4.944026470E-1
1.209398470E1,-1.880046844E0,-9.568427086E0,-4.967968464E-1
1.211417012E1,-1.860893250E0,-9.534908295E0,-5.829881430E-1
1.213435606E1,-1.844133854E0,-9.527725220E0,-7.218518257E-1
1.215454272E1,-1.827374458E0,-9.508571625E0,-7.314286232E-1
1.217473022E1,-1.827374458E0,-9.561244011E0,-6.619967818E-1
1.219491866E1,-1.796249866E0,-9.580398560E0,-5.566518903E-1
1.221510804E1,-1.731606364E0,-9.575610161E0,-4.991910458E-1
1.223529835E1,-1.748365760E0,-9.554061890E0,-6.093243361E-1
1.225548960E1,-1.808220863E0,-9.520543098E0,-7.649474144E-1
1.227568168E1,-1.877652645E0,-9.520543098E0,-7.529764175E-1
1.229587449E1,-1.930325150E0,-9.556455612E0,-5.829881430E-1
1.231606793E1,-1.915959954E0,-9.582792282E0,-4.441244006E-1
1.233626189E1,-1.829768658E0,-9.601945877E0,-4.560954273E-1
1.235645616E1,-1.798644066E0,-9.582792282E0,-6.212953329E-1
1.237665064E1,-1.863287449E0,-9.530119896E0,-7.745242715E-1
1.239685595E1,-1.947084546E0,-9.498994827E0,-8.080430627E-1
1.241703647E1,-1.997362733E0,-9.494206429E0,-7.769184709E-1
1.243721731E1,-2.023699045E0,-9.494206429E0,-7.769184709E-1
1.245739887E1,-2.064400434E0,-9.496601105E0,-8.128314614E-1
1.247758147E1,-2.126649618E0,-9.487024307E0,-7.936778665E-1
1.249776543E1,-2.198475599E0,-9.494206429E0,-7.242460251E-1
1.251795085E1,-2.205658197E0,-9.530119896E0,-6.667851806E-1
1.253813793E1,-2.136226416E0,-9.537302017E0,-6.572083831E-1
1.255832668E1,-2.033275843E0,-9.544485092E0,-6.643909812E-1
1.257851710E1,-1.892017841E0,-9.551667213E0,-6.835445762E-1
1.259870918E1,-1.769913554E0,-9.534908295E0,-7.122750282E-1
1.261890283E1,-1.710058570E0,-9.506177902E0,-7.505822182E-1
1.263909783E1,-1.734000564E0,-9.515754700E0,-7.026981711E-1
1.265929387E1,-1.865681648E0,-9.566033363E0,-5.949591398E-1
1.267949074E1,-2.018910646E0,-9.589975357E0,-4.752490520E-1
1.269968814E1,-2.071583033E0,-9.671378136E0,-4.034229815E-1
1.271988574E1,-1.805826664E0,-9.570821762E0,-3.579331636E-1
1.274008272E1,-1.628655672E0,-9.573215485E0,-4.848258495E-1
1.276027304E1,-1.834557056E0,-9.566033363E0,-8.152256608E-1
1.278045793E1,-2.155380011E0,-9.417592049E0,-9.852139950E-1
1.280064324E1,-2.296638012E0,-9.446322441E0,-8.559271097E-1
1.282082918E1,-2.184110403E0,-9.561244011E0,-7.170634270E-1
1.284101585E1,-1.963843942E0,-9.537302017E0,-7.457938194E-1
1.286120335E1,-1.992574334E0,-9.578003883E0,-7.745242715E-1
1.288139179E1,-2.179322004E0,-9.522936821E0,-7.290344238E-1
1.290158116E1,-2.181716204E0,-9.453505516E0,-8.080430627E-1
1.292177147E1,-1.810615063E0,-9.446322441E0,-1.006761789E0
1.294196272E1,-1.549647093E0,-9.532513618E0,-1.136048675E0
1.296215481E1,-1.781884670E0,-9.654618263E0,-1.104924083E0
1.298234762E1,-2.215235233E0,-9.537302017E0,-8.343793154E-1
1.300254106E1,-2.471414804E0,-9.391256332E0,-5.781996846E-1
1.302273502E1,-2.473809004E0,-9.376891136E0,-6.572083831E-1
1.304292929E1,-2.184110403E0,-9.419986725E0,-9.995791912E-1
1.306312376E1,-1.887229443E0,-9.510966301E0,-1.183932781E0
1.308332908E1,-1.688510776E0,-9.556455612E0,-1.114500880E0
1.310350970E1,-1.717241168E0,-9.597157478E0,-8.750807047E-1
1.312369064E1,-1.963843942E0,-9.558850288E0,-7.290344238E-1
1.314387231E1,-2.231994629E0,-9.443928719E0,-7.266402245E-1
1.316405502E1,-2.358887196E0,-9.403226852E0,-8.319851160E-1
1.318423897E1,-2.282272816E0,-9.467870712E0,-9.684545994E-1
1.320442439E1,-2.109890223E0,-9.606734276E0,-1.028309584E0
1.322461147E1,-2.035670042E0,-9.652224541E0,-9.756371975E-1
1.324480022E1,-2.050035238E0,-9.513360023E0,-9.493009448E-1
1.326499064E1,-2.181716204E0,-9.307458878E0,-1.037886381E0
1.328518272E1,-2.265513420E0,-9.266757965E0,-1.198297977E0
1.330537627E1,-2.322974205E0,-9.427168846E0,-1.246181965E0
1.332557116E1,-2.284667015E0,-9.532513618E0,-1.080982089E0
1.334576710E1,-2.057217836E0,-9.496601105E0,-8.655039072E-1
1.336596387E1,-1.858499050E0,-9.503783226E0,-9.277531505E-1
1.338616116E1,-1.827374458E0,-9.510966301E0,-1.200692177E0
1.340635866E1,-2.054823637E0,-9.561244011E0,-1.320402265E0
1.342655595E1,-2.224812031E0,-9.534908295E0,-1.167173386E0
1.344674627E1,-2.339733601E0,-9.479841232E0,-9.421183467E-1
1.346693116E1,-2.406771183E0,-9.434351921E0,-8.583213091E-1
1.348711647E1,-2.490568399E0,-9.472659111E0,-9.181763530E-1
1.350730241E1,-2.526481390E0,-9.448717117E0,-1.064222693E0
1.352748908E1,-2.459443808E0,-9.410409927E0,-1.155202270E0
1.354767658E1,-2.234388828E0,-9.412803650E0,-1.157596469E0
1.356786502E1,-2.035670042E0,-9.463082314E0,-1.128866076E0
1.358805439E1,-1.961449742E0,-9.503783226E0,-1.155202270E0
1.360824470E1,-2.009333849E0,-9.498994827E0,-1.176750183E0
1.362843595E1,-2.112284422E0,-9.472659111E0,-1.186326981E0
1.364862804E1,-2.141014814E0,-9.439140320E0,-1.205480576E0
1.366882085E1,-2.114678621E0,-9.436745644E0,-1.222239971E0
1.368901429E1,-2.059612036E0,-9.506177902E0,-1.217451572E0
1.370920824E1,-2.050035238E0,-9.532513618E0,-1.176750183E0
1.372940252E1,-2.097919226E0,-9.506177902E0,-1.124077678E0
1.374959699E1,-2.188898802E0,-9.460687637E0,-1.124077678E0
1.376980231E1,-2.284667015E0,-9.472659111E0,-1.104924083E0
1.378998272E1,-2.275090218E0,-9.506177902E0,-1.052251697E0
1.381016345E1,-2.176927805E0,-9.484629631E0,-1.042674899E0
1.383034491E1,-2.112284422E0,-9.496601105E0,-1.073799491E0
1.385052741E1,-2.097919226E0,-9.498994827E0,-1.080982089E0
1.387071126E1,-2.097919226E0,-9.491812706E0,-1.064222693E0
1.389089668E1,-2.085948229E0,-9.487024307E0,-1.028309584E0
1.391108376E1,-2.054823637E0,-9.491812706E0,-1.035492182E0
1.393127262E1,-2.035670042E0,-9.501389503E0,-1.097741485E0
1.395146314E1,-2.064400434E0,-9.479841232E0,-1.131260276E0
1.397165533E1,-2.129043818E0,-9.455899239E0,-1.090558887E0
1.399184897E1,-2.157774210E0,-9.451110840E0,-1.045069098E0
1.401204397E1,-2.129043818E0,-9.475052834E0,-1.047463298E0
1.403224002E1,-2.119467020E0,-9.501389503E0,-1.071405292E0
1.405243689E1,-2.141014814E0,-9.494206429E0,-1.076193690E0
1.407263429E1,-2.191293001E0,-9.475052834E0,-1.061828494E0
1.409283189E1,-2.253542423E0,-9.441534042E0,-1.080982089E0
1.411302845E1,-2.267907619E0,-9.439140320E0,-1.097741485E0
1.413321887E1,-2.234388828E0,-9.465476036E0,-1.085770488E0
1.415340918E1,-2.181716204E0,-9.475052834E0,-1.064222693E0
1.417359408E1,-2.136226416E0,-9.477447510E0,-1.040280581E0
1.419377939E1,-2.112284422E0,-9.460687637E0,-1.013944387E0
1.421396522E1,-2.093130827E0,-9.463082314E0,-9.995791912E-1
1.423415179E1,-2.050035238E0,-9.465476036E0,-9.900023937E-1
1.425433918E1,-2.023699045E0,-9.467870712E0,-1.001973391E0
1.427452752E1,-2.030881643E0,-9.467870712E0,-1.021126986E0
1.429471679E1,-2.054823637E0,-9.472659111E0,-1.018732786E0
1.431490699E1,-2.090736628E0,-9.443928719E0,-1.006761789E0
1.433509814E1,-2.184110403E0,-9.439140320E0,-9.995791912E-1
1.435529012E1,-2.234388828E0,-9.455899239E0,-9.516952038E-1
1.437548293E1,-2.255936623E0,-9.475052834E0,-9.373299479E-1
1.439567637E1,-2.248754025E0,-9.482235909E0,-9.756371975E-1
1.441587033E1,-2.210446835E0,-9.470264435E0,-1.025915384E0
1.443606460E1,-2.167351007E0,-9.487024307E0,-1.071405292E0
1.445625908E1,-2.148197412E0,-9.496601105E0,-1.059434295E0
1.447646439E1,-2.143409014E0,-9.484629631E0,-9.995791912E-1
1.449664502E1,-2.162562609E0,-9.472659111E0,-9.804255962E-1
1.451682595E1,-2.186504602E0,-9.460687637E0,-1.013944387E0
1.453700762E1,-2.220023632E0,-9.458293915E0,-1.011550188E0
1.455719033E1,-2.193687201E0,-9.458293915E0,-9.876081944E-1
1.457737429E1,-2.117072821E0,-9.470264435E0,-1.006761789E0
1.459755970E1,-2.071583033E0,-9.475052834E0,-1.045069098E0
1.461774679E1,-2.076371431E0,-9.460687637E0,-1.040280581E0
1.463793554E1,-2.136226416E0,-9.458293915E0,-1.011550188E0
1.465812595E1,-2.188898802E0,-9.465476036E0,-9.732429981E-1
1.467831793E1,-2.191293001E0,-9.460687637E0,-9.469067454E-1
1.469851137E1,-2.205658197E0,-9.453505516E0,-9.732429981E-1
1.471870606E1,-2.205658197E0,-9.448717117E0,-1.001973391E0
1.473890179E1,-2.234388828E0,-9.434351921E0,-1.021126986E0
1.475909835E1,-2.239177227E0,-9.434351921E0,-1.021126986E0
1.477929543E1,-2.203263998E0,-9.463082314E0,-9.876081944E-1
1.479949272E1,-2.172139406E0,-9.477447510E0,-9.780313969E-1
1.481968460E1,-2.160168409E0,-9.458293915E0,-9.971849918E-1
1.483987658E1,-2.234388828E0,-9.429563522E0,-1.033097982E0
1.486007939E1,-2.330156803E0,-9.427168846E0,-1.040280581E0
1.488026106E1,-2.380434990E0,-9.424775124E0,-1.004367590E0
1.490044304E1,-2.382829189E0,-9.439140320E0,-9.469067454E-1
1.492062564E1,-2.351704597E0,-9.463082314E0,-9.397241473E-1
1.494080918E1,-2.291849613E0,-9.455899239E0,-9.947907925E-1
1.496099387E1,-2.243965626E0,-9.431957245E0,-1.064222693E0
1.498117991E1,-2.255936623E0,-9.427168846E0,-1.064222693E0
1.500136741E1,-2.284667015E0,-9.443928719E0,-1.013944387E0
1.502155637E1,-2.320580006E0,-9.470264435E0,-9.684545994E-1
1.504174679E1,-2.322974205E0,-9.465476036E0,-9.469067454E-1
1.506193866E1,-2.306214809E0,-9.458293915E0,-9.852139950E-1
1.508213179E1,-2.301426411E0,-9.446322441E0,-1.025915384E0
1.510232606E1,-2.284667015E0,-9.441534042E0,-1.001973391E0
1.512252127E1,-2.241571426E0,-9.453505516E0,-9.612720013E-1
1.514271720E1,-2.200869799E0,-9.470264435E0,-9.660604000E-1
1.516291356E1,-2.176927805E0,-9.455899239E0,-1.009155989E0
1.518311012E1,-2.193687201E0,-9.446322441E0,-1.006761789E0
1.520330585E1,-2.205658197E0,-9.448717117E0,-9.684545994E-1
1.522349616E1,-2.229600430E0,-9.446322441E0,-9.516952038E-1
1.524368637E1,-2.229600430E0,-9.460687637E0,-9.421183467E-1
1.526387116E1,-2.210446835E0,-9.477447510E0,-9.373299479E-1
1.528405637E1,-2.208052635E0,-9.460687637E0,-9.301473498E-1
1.530424220E1,-2.217629433E0,-9.463082314E0,-9.373299479E-1
1.532442876E1,-2.222417831E0,-9.448717117E0,-9.493009448E-1
1.534461616E1,-2.205658197E0,-9.453505516E0,-9.780313969E-1
1.536480449E1,-2.188898802E0,-9.465476036E0,-9.995791912E-1
1.538499376E1,-2.181716204E0,-9.465476036E0,-9.756371975E-1
1.540518397E1,-2.172139406E0,-9.453505516E0,-9.493009448E-1
1.542537512E1,-2.184110403E0,-9.463082314E0,-9.493009448E-1
1.544556710E1,-2.220023632E0,-9.436745644E0,-9.708487988E-1
1.546575981E1,-2.267907619E0,-9.446322441E0,-9.469067454E-1
1.548595314E1,-2.272696018E0,-9.467870712E0,-9.014169574E-1
1.550614699E1,-2.212841034E0,-9.455899239E0,-9.301473498E-1
1.552634116E1,-2.167351007E0,-9.455899239E0,-1.001973391E0
1.554653554E1,-2.172139406E0,-9.448717117E0,-1.006761789E0
1.556674074E1,-2.208052635E0,-9.446322441E0,-9.660604000E-1
1.558692106E1,-2.272696018E0,-9.479841232E0,-9.325415492E-1
1.560710168E1,-2.253542423E0,-9.451110840E0,-9.038111567E-1
1.562728304E1,-2.220023632E0,-9.467870712E0,-9.397241473E-1
1.564746543E1,-2.208052635E0,-9.453505516E0,-1.016338587E0
1.566764918E1,-2.215235233E0,-9.460687637E0,-1.023521185E0
1.568783449E1,-2.212841034E0,-9.460687637E0,-9.588778019E-1
1.570802147E1,-2.191293001E0,-9.443928719E0,-9.540894032E-1
1.572821022E1,-2.191293001E0,-9.424775124E0,-9.995791912E-1
1.574840064E1,-2.217629433E0,-9.451110840E0,-1.030703783E0
1.576859272E1,-2.253542423E0,-9.470264435E0,-1.001973391E0
1.578878626E1,-2.251148224E0,-9.446322441E0,-9.564836025E-1
1.580898116E1,-2.222417831E0,-9.455899239E0,-9.636662006E-1
1.582917710E1,-2.193687201E0,-9.475052834E0,-9.876081944E-1
1.584937387E1,-2.196081400E0,-9.453505516E0,-1.025915384E0
1.586957116E1,-2.236783028E0,-9.439140320E0,-1.049857497E0
1.588976866E1,-2.239177227E0,-9.441534042E0,-1.033097982E0
1.590996522E1,-2.227206230E0,-9.463082314E0,-9.756371975E-1
1.593015543E1,-2.203263998E0,-9.470264435E0,-9.421183467E-1
1.595034022E1,-2.181716204E0,-9.479841232E0,-9.421183467E-1
1.597052543E1,-2.174533606E0,-9.494206429E0,-9.636662006E-1
1.599071116E1,-2.169745207E0,-9.475052834E0,-9.828197956E-1
1.601089762E1,-2.186504602E0,-9.477447510E0,-9.947907925E-1
1.603108491E1,-2.212841034E0,-9.496601105E0,-9.516952038E-1
1.605127314E1,-2.191293001E0,-9.475052834E0,-9.014169574E-1
1.607146231E1,-2.160168409E0,-9.453505516E0,-9.516952038E-1
1.609165241E1,-2.131438017E0,-9.465476036E0,-1.042674899E0
1.611184345E1,-2.105101824E0,-9.460687637E0,-1.035492182E0
1.613203533E1,-2.105101824E0,-9.472659111E0,-9.995791912E-1
1.615222804E1,-2.124255419E0,-9.482235909E0,-9.684545994E-1
1.617242137E1,-2.121861219E0,-9.472659111E0,-9.540894032E-1
1.619261522E1,-2.136226416E0,-9.472659111E0,-9.947907925E-1
1.621280939E1,-2.167351007E0,-9.463082314E0,-1.049857497E0
1.623300376E1,-2.181716204E0,-9.451110840E0,-1.025915384E0
1.625320897E1,-2.179322004E0,-9.453505516E0,-9.828197956E-1
1.627338949E1,-2.162562609E0,-9.470264435E0,-9.947907925E-1
1.629357033E1,-2.155380011E0,-9.463082314E0,-1.030703783E0
1.631375189E1,-2.172139406E0,-9.460687637E0,-1.023521185E0
1.633393449E1,-2.212841034E0,-9.451110840E0,-1.001973391E0
1.635411835E1,-2.234388828E0,-9.453505516E0,-9.947907925E-1
1.637430366E1,-2.210446835E0,-9.477447510E0,-9.852139950E-1
1.639449064E1,-2.198475599E0,-9.472659111E0,-9.971849918E-1
1.641467929E1,-2.231994629E0,-9.472659111E0,-9.947907925E-1
1.643486960E1,-2.253542423E0,-9.460687637E0,-9.828197956E-1
1.645506147E1,-2.224812031E0,-9.465476036E0,-9.852139950E-1
1.647525481E1,-2.181716204E0,-9.479841232E0,-9.947907925E-1
1.649544939E1,-2.133832216E0,-9.467870712E0,-9.828197956E-1
1.651564502E1,-2.121861219E0,-9.477447510E0,-9.780313969E-1
1.653584147E1,-2.164956808E0,-9.467870712E0,-9.876081944E-1
1.655603845E1,-2.176927805E0,-9.446322441E0,-1.013944387E0
1.657623564E1,-2.160168409E0,-9.467870712E0,-1.057040095E0
1.659642741E1,-2.136226416E0,-9.477447510E0,-1.090558887E0
1.661661929E1,-2.117072821E0,-9.482235909E0,-1.085770488E0
1.663682199E1,-2.150591612E0,-9.465476036E0,-1.057040095E0
1.665700356E1,-2.145803213E0,-9.477447510E0,-1.016338587E0
1.667718543E1,-2.085948229E0,-9.479841232E0,-9.971849918E-1
1.669736793E1,-2.066794634E0,-9.510966301E0,-1.011550188E0
1.671755137E1,-2.095525026E0,-9.496601105E0,-9.540894032E-1
1.673773595E1,-2.129043818E0,-9.482235909E0,-9.253589511E-1
1.675792189E1,-2.141014814E0,-9.465476036E0,-9.493009448E-1
1.677810929E1,-2.114678621E0,-9.477447510E0,-9.660604000E-1
1.679829814E1,-2.102707624E0,-9.482235909E0,-9.564836025E-1
1.681848845E1,-2.114678621E0,-9.484629631E0,-9.397241473E-1
1.683868022E1,-2.129043818E0,-9.484629631E0,-9.684545994E-1
1.685887324E1,-2.129043818E0,-9.475052834E0,-1.004367590E0
1.687906741E1,-2.121861219E0,-9.472659111E0,-1.040280581E0
1.689926252E1,-2.129043818E0,-9.465476036E0,-1.061828494E0
1.691945835E1,-2.133832216E0,-9.455899239E0,-1.054645896E0
1.693965460E1,-2.129043818E0,-9.460687637E0,-1.025915384E0
1.695985106E1,-2.093130827E0,-9.477447510E0,-1.021126986E0
1.698004668E1,-2.064400434E0,-9.487024307E0,-1.033097982E0
1.700023679E1,-2.076371431E0,-9.489418030E0,-1.037886381E0
1.702042147E1,-2.121861219E0,-9.484629631E0,-9.900023937E-1
1.704060658E1,-2.150591612E0,-9.475052834E0,-9.612720013E-1
1.706079231E1,-2.150591612E0,-9.484629631E0,-9.780313969E-1
1.708097876E1,-2.141014814E0,-9.503783226E0,-9.900023937E-1
1.710116606E1,-2.117072821E0,-9.487024307E0,-9.971849918E-1
1.712135429E1,-2.126649618E0,-9.477447510E0,-9.995791912E-1
1.714154345E1,-2.167351007E0,-9.498994827E0,-9.804255962E-1
1.716173356E1,-2.164956808E0,-9.487024307E0,-9.660604000E-1
1.718192460E1,-2.117072821E0,-9.484629631E0,-1.013944387E0
1.720211647E1,-2.105101824E0,-9.487024307E0,-1.073799491E0
1.722230908E1,-2.112284422E0,-9.467870712E0,-1.059434295E0
1.724250231E1,-2.126649618E0,-9.503783226E0,-1.018732786E0
1.726269606E1,-2.131438017E0,-9.491812706E0,-1.001973391E0
1.728289012E1,-2.095525026E0,-9.487024307E0,-9.876081944E-1
1.730308439E1,-2.071583033E0,-9.487024307E0,-1.013944387E0
1.732328949E1,-2.071583033E0,-9.463082314E0,-1.054645896E0
1.734346981E1,-2.129043818E0,-9.470264435E0,-1.023521185E0
1.736365043E1,-2.167351007E0,-9.472659111E0,-9.732429981E-1
1.738383179E1,-2.114678621E0,-9.472659111E0,-9.780313969E-1
1.740401418E1,-2.050035238E0,-9.491812706E0,-1.021126986E0
1.742419793E1,-2.035670042E0,-9.501389503E0,-1.030703783E0
1.744438314E1,-2.059612036E0,-9.506177902E0,-9.804255962E-1
1.746457002E1,-2.114678621E0,-9.482235909E0,-9.301473498E-1
1.748475856E1,-2.138620615E0,-9.467870712E0,-9.277531505E-1
1.750494876E1,-2.112284422E0,-9.463082314E0,-9.612720013E-1
1.752514064E1,-2.059612036E0,-9.477447510E0,-9.900023937E-1
1.754533397E1,-1.990180135E0,-9.484629631E0,-1.004367590E0
1.756552866E1,-1.937507749E0,-9.487024307E0,-1.033097982E0
1.758572439E1,-1.927930951E0,-9.491812706E0,-1.066616893E0
1.760592095E1,-1.971026540E0,-9.515754700E0,-1.025915384E0
1.762611804E1,-2.081159830E0,-9.508571625E0,-9.469067454E-1
1.764631533E1,-2.198475599E0,-9.496601105E0,-9.085995555E-1
1.766651220E1,-2.215235233E0,-9.489418030E0,-9.062053561E-1
1.768670231E1,-2.205658197E0,-9.520543098E0,-8.798691034E-1
1.770688699E1,-2.229600430E0,-9.537302017E0,-8.894459605E-1
1.772707210E1,-2.229600430E0,-9.470264435E0,-9.109937549E-1
1.774725772E1,-2.279878616E0,-9.455899239E0,-1.001973391E0
1.776744408E1,-2.315791607E0,-9.470264435E0,-1.107318282E0
1.778763126E1,-2.241571426E0,-9.479841232E0,-1.124077678E0
1.780781939E1,-2.169745207E0,-9.515754700E0,-1.078587890E0
1.782800845E1,-2.172139406E0,-9.546878815E0,-9.971849918E-1
1.784819845E1,-2.208052635E0,-9.556455612E0,-9.109937549E-1
1.786838939E1,-2.203263998E0,-9.453505516E0,-8.702923059E-1
1.788858116E1,-2.035670042E0,-9.398438454E0,-8.822633028E-1
1.790877376E1,-1.784278870E0,-9.475052834E0,-9.900023937E-1
1.792896699E1,-1.518522382E0,-9.518148422E0,-1.102529883E0
1.794916074E1,-1.434725404E0,-9.530119896E0,-1.152808070E0
1.796935481E1,-1.640626669E0,-9.513360023E0,-1.112106681E0
1.798954908E1,-1.932719350E0,-9.508571625E0,-9.684545994E-1
1.800975418E1,-2.188898802E0,-9.551667213E0,-8.774749041E-1
1.802993460E1,-2.308609009E0,-9.501389503E0,-8.774749041E-1
1.805011533E1,-2.275090218E0,-9.463082314E0,-8.607155085E-1
1.807029679E1,-2.152985811E0,-9.551667213E0,-8.559271097E-1
1.809047929E1,-2.167351007E0,-9.582792282E0,-9.109937549E-1
1.811066304E1,-2.287061214E0,-9.496601105E0,-9.373299479E-1
1.813084824E1,-2.416347980E0,-9.455899239E0,-9.133879542E-1
1.815103512E1,-2.449866772E0,-9.515754700E0,-8.080430627E-1
1.817122366E1,-2.282272816E0,-9.542090416E0,-6.883329749E-1
1.819141387E1,-1.968632340E0,-9.510966301E0,-6.931213737E-1
1.821160564E1,-1.726817966E0,-9.520543098E0,-8.678981066E-1
1.823179887E1,-1.597531080E0,-9.530119896E0,-1.071405292E0
1.825199335E1,-1.621473074E0,-9.537302017E0,-1.114500880E0
1.827218887E1,-1.750759959E0,-9.513360023E0,-9.828197956E-1
1.829238522E1,-1.889623642E0,-9.465476036E0,-8.990227580E-1
1.831258210E1,-1.982997537E0,-9.463082314E0,-9.540894032E-1
1.833277918E1,-1.959055543E0,-9.498994827E0,-1.028309584E0
1.835297085E1,-1.913565755E0,-9.510966301E0,-1.047463298E0
1.837316262E1,-1.944690347E0,-9.549273491E0,-9.971849918E-1
1.839336522E1,-2.009333849E0,-9.542090416E0,-8.966285586E-1
1.841354668E1,-2.148197412E0,-9.494206429E0,-8.080430627E-1
1.843372845E1,-2.291849613E0,-9.463082314E0,-8.056488633E-1
1.845391085E1,-2.394800186E0,-9.424775124E0,-9.349357486E-1
1.847409418E1,-2.378040791E0,-9.431957245E0,-1.109712481E0
1.849427866E1,-2.227206230E0,-9.453505516E0,-1.179144382E0
1.851446449E1,-2.002151251E0,-9.487024307E0,-1.157596469E0
1.853465179E1,-1.793855667E0,-9.487024307E0,-1.136048675E0
1.855484054E1,-1.674145579E0,-9.556455612E0,-1.116895080E0
1.857503074E1,-1.657386184E0,-9.657012939E0,-1.016338587E0
1.859522241E1,-1.906383157E0,-9.683348656E0,-8.511387110E-1
1.861541533E1,-2.138620615E0,-9.575610161E0,-7.410054207E-1
1.863560939E1,-2.241571426E0,-9.534908295E0,-7.601590157E-1
1.865580439E1,-2.152985811E0,-9.522936821E0,-8.678981066E-1
1.867600012E1,-1.906383157E0,-9.532513618E0,-9.085995555E-1
1.869619626E1,-1.712452769E0,-9.594763756E0,-9.373299479E-1
1.871639262E1,-1.760336757E0,-9.635464668E0,-9.828197956E-1
1.873658824E1,-1.911171556E0,-9.609128952E0,-9.588778019E-1
1.875677824E1,-2.066794634E0,-9.551667213E0,-8.870517015E-1
1.877696283E1,-2.078765631E0,-9.458293915E0,-8.463503122E-1
1.879714783E1,-1.959055543E0,-9.434351921E0,-8.631097078E-1
1.881733345E1,-1.791461468E0,-9.501389503E0,-8.966285586E-1
1.883751981E1,-1.688510776E0,-9.618705750E0,-9.564836025E-1
1.885770699E1,-1.745971560E0,-9.661801338E0,-1.033097982E0
1.887789512E1,-1.868075848E0,-9.592369080E0,-1.011550188E0
1.889808418E1,-1.949478745E0,-9.573215485E0,-9.421183467E-1
1.891827418E1,-1.913565755E0,-9.534908295E0,-9.085995555E-1
1.893846512E1,-1.820191860E0,-9.532513618E0,-8.750807047E-1
1.895865689E1,-1.662174582E0,-9.628282547E0,-6.619967818E-1
1.897884939E1,-1.477820992E0,-9.716867447E0,-4.106055796E-1
1.899904252E1,-1.492186189E0,-9.714473724E0,-4.584896266E-1
1.901923616E1,-1.734000564E0,-9.573215485E0,-8.271966577E-1
1.903943012E1,-1.932719350E0,-9.484629631E0,-1.018732786E0
1.905962429E1,-1.911171556E0,-9.439140320E0,-9.133879542E-1
1.907982929E1,-1.757942557E0,-9.388861656E0,-8.343793154E-1
1.910000960E1,-1.583165884E0,-9.494206429E0,-7.960720658E-1
1.912019022E1,-1.468244195E0,-9.573215485E0,-7.314286232E-1
1.914037158E1,-1.453878999E0,-9.563638687E0,-8.343793154E-1
1.916055397E1,-1.616684675E0,-9.554061890E0,-1.080982089E0
1.918073762E1,-1.875258446E0,-9.506177902E0,-1.243787766E0
1.920092272E1,-1.982997537E0,-9.391256332E0,-1.140837073E0
1.922110949E1,-1.987785935E0,-9.398438454E0,-9.540894032E-1
1.924129793E1,-1.935113549E0,-9.448717117E0,-9.373299479E-1
1.926148804E1,-1.868075848E0,-9.539696693E0,-1.042674899E0
1.928167981E1,-1.734000564E0,-9.673771858E0,-1.001973391E0
1.930187304E1,-1.530493379E0,-9.747992516E0,-8.008604646E-1
1.932206762E1,-1.405994892E0,-9.700108528E0,-6.859387755E-1
1.934226324E1,-1.520916581E0,-9.661801338E0,-7.457938194E-1
1.936245970E1,-1.774701953E0,-9.628282547E0,-8.463503122E-1
1.938265668E1,-2.023699045E0,-9.589975357E0,-9.325415492E-1
1.940285387E1,-2.102707624E0,-9.544485092E0,-9.971849918E-1
1.942305054E1,-1.971026540E0,-9.455899239E0,-1.042674899E0
1.944324054E1,-1.848922253E0,-9.573215485E0,-1.057040095E0
1.946342512E1,-1.734000564E0,-9.764751434E0,-9.995791912E-1
1.948361012E1,-1.535281897E0,-9.716867447E0,-8.966285586E-1
1.950379574E1,-1.386841297E0,-9.597157478E0,-8.583213091E-1
1.952398210E1,-1.315015316E0,-9.592369080E0,-9.229647517E-1
1.954416929E1,-1.341351509E0,-9.601945877E0,-9.947907925E-1
1.956435741E1,-1.391629696E0,-9.575610161E0,-9.876081944E-1
1.958454647E1,-1.453878999E0,-9.484629631E0,-9.612720013E-1
1.960473647E1,-1.504157186E0,-9.379284859E0,-9.947907925E-1
1.962492741E1,-1.477820992E0,-9.501389503E0,-1.092953086E0
1.964511918E1,-1.291073322E0,-9.779116631E0,-1.109712481E0
1.966531168E1,-1.025316834E0,-9.846154213E0,-1.028309584E0
1.968550481E1,-8.481459618E-1,-9.740809441E0,-9.995791912E-1
1.970569845E1,-7.715315223E-1,-9.704896927E0,-1.028309584E0
1.972589241E1,-7.380126715E-1,-9.695320129E0,-1.078587890E0
1.974608647E1,-8.672995567E-1,-9.688137054E0,-1.138442874E0
1.976629137E1,-1.104325533E0,-9.688137054E0,-1.136048675E0
1.978647127E1,-1.276708007E0,-9.642647743E0,-1.006761789E0
1.980665147E1,-1.408389091E0,-9.589975357E0,-8.774749041E-1
1.982683241E1,-1.518522382E0,-9.606734276E0,-8.966285586E-1
1.984701439E1,-1.489791989E0,-9.582792282E0,-9.612720013E-1
1.986719772E1,-1.360505104E0,-9.558850288E0,-9.923965931E-1
1.988738262E1,-1.233612418E0,-9.597157478E0,-9.971849918E-1
1.990756918E1,-1.140238523E0,-9.676166534E0,-9.804255962E-1
1.992775752E1,-1.037287831E0,-9.676166534E0,-9.325415492E-1
1.994794762E1,-1.003769040E0,-9.657012939E0,-8.798691034E-1
1.996813939E1,-1.034893632E0,-9.683348656E0,-8.774749041E-1
1.998833272E1,-1.037287831E0,-9.726444244E0,-9.540894032E-1
2.000852741E1,-1.044470549E0,-9.743204117E0,-1.061828494E0
2.002872324E1,-9.965864420E-1,-9.704896927E0,-1.112106681E0
2.004891991E1,-9.080010056E-1,-9.647436142E0,-1.138442874E0
2.006911710E1,-7.954735160E-1,-9.673771858E0,-1.145625472E0
2.008931449E1,-6.829460263E-1,-9.688137054E0,-1.143231273E0
2.010951168E1,-5.512649417E-1,-9.750386238E0,-1.069011092E0
2.012970168E1,-4.291606545E-1,-9.819818497E0,-9.588778019E-1
2.014988627E1,-2.663549483E-1,-9.807847023E0,-8.271966577E-1
2.017007126E1,-1.777694821E-1,-9.731232643E0,-7.481880188E-1
2.019025679E1,-2.160767019E-1,-9.702502251E0,-7.817068696E-1
2.021044304E1,-3.764882088E-1,-9.793481827E0,-8.870517015E-1
2.023063012E1,-6.901286244E-1,-9.882067680E0,-9.732429981E-1
2.025081814E1,-1.063624144E0,-9.827000618E0,-1.001973391E0
2.027100710E1,-1.372476101E0,-9.704896927E0,-9.660604000E-1
2.029119699E1,-1.573589087E0,-9.623494148E0,-8.248024583E-1
2.031138783E1,-1.654991984E0,-9.558850288E0,-6.907271743E-1
2.033157949E1,-1.556829691E0,-9.515754700E0,-6.332663298E-1
2.035177189E1,-1.355716705E0,-9.628282547E0,-6.524199843E-1
2.037196491E1,-1.204882026E0,-9.762357712E0,-6.667851806E-1
2.039215845E1,-1.111508131E0,-9.805453300E0,-6.907271743E-1
2.041235231E1,-9.846154451E-1,-9.803058624E0,-7.194576263E-1
2.043254637E1,-8.888474107E-1,-9.822212219E0,-7.697358727E-1
2.045275126E1,-8.529343605E-1,-9.850942612E0,-8.032546639E-1
2.047293057E1,-8.385691643E-1,-9.762357712E0,-7.505822182E-1
2.049311150E1,-8.888474107E-1,-9.592369080E0,-6.165069342E-1
2.051329307E1,-1.137844324E0,-9.654618263E0,-4.584896266E-1
2.053347556E1,-1.439513803E0,-9.922768593E0,-2.597708702E-1
2.055365932E1,-1.585560083E0,-9.999382973E0,-2.992752194E-2
2.057384452E1,-1.638232470E0,-9.877279282E0,2.454056740E-1
2.059403129E1,-1.664568782E0,-9.640253067E0,4.297592044E-1
2.061421973E1,-1.839345455E0,-9.460687637E0,3.387795389E-1
2.063440984E1,-2.107496023E0,-9.467870712E0,3.591302549E-3
2.065460150E1,-2.356492996E0,-9.513360023E0,-2.214636505E-1
2.067479463E1,-2.749142170E0,-9.427168846E0,-1.161187813E-1
2.069498900E1,-3.201646328E0,-9.384073257E0,2.382230759E-1
2.071518442E1,-3.579930067E0,-9.357737541E0,5.518634915E-1
2.073538056E1,-3.630208254E0,-9.336189270E0,6.979097724E-1
2.075557723E1,-3.515286684E0,-9.226056099E0,7.003039718E-1
2.077577411E1,-3.187281132E0,-8.991424561E0,7.050924301E-1
2.079597046E1,-2.955043554E0,-8.888473511E0,6.619967818E-1
2.081616046E1,-2.931101322E0,-8.962694168E0,4.560954273E-1
2.083635036E1,-2.852092743E0,-9.020154953E0,8.259996027E-2
2.085653484E1,-2.504933596E0,-9.077615738E0,-2.166752517E-1
2.087671973E1,-2.023699045E0,-9.261969566E0,-1.256955862E-1
2.089690525E1,-1.654991984E0,-9.470264435E0,2.166752517E-1
2.091709150E1,-1.396418095E0,-9.465476036E0,6.907271743E-1
2.093727859E1,-1.125873327E0,-9.384073257E0,1.114500880E0
2.095746661E1,-9.223662019E-1,-9.295488358E0,1.236605167E0
2.097765557E1,-9.917980433E-1,-9.259574890E0,1.064222693E0
2.099784546E1,-1.307832718E0,-9.582792282E0,7.553706169E-1
2.101803629E1,-1.451484799E0,-9.795876503E0,6.979097724E-1
2.103822796E1,-1.405994892E0,-9.599552155E0,8.391677141E-1
2.105842036E1,-1.310226917E0,-9.269151688E0,7.769184709E-1
2.107861338E1,-1.429937005E0,-9.434351921E0,4.991910458E-1
2.109880692E1,-1.643020868E0,-9.929951668E0,6.105214357E-2
2.111900077E1,-1.571194887E0,-9.937133789E0,-3.052607179E-1
2.113919484E1,-1.300650120E0,-9.350554466E0,-5.279214978E-1
2.115939973E1,-1.111508131E0,-8.742427826E0,-7.888894677E-1
2.117958004E1,-1.020528436E0,-8.625111580E0,-9.397241473E-1
2.119976067E1,-1.027711034E0,-9.451110840E0,-8.798691034E-1
2.121994202E1,-9.917980433E-1,-1.053568459E1,-7.793126702E-1
2.124012442E1,-5.560533404E-1,-1.113662910E1,-4.872200489E-1
2.126030806E1,4.189853091E-3,-1.082777691E1,1.831564307E-1
2.128049317E1,2.268506140E-1,-1.004966164E1,1.301248670E0
2.130067984E1,-5.536591411E-1,-9.740809441E0,1.892616391E0
2.132086817E1,-1.511339784E0,-9.953893661E0,6.859387755E-1
2.134105817E1,-1.717241168E0,-1.006642151E1,-7.625532150E-1
2.136124973E1,-1.477820992E0,-9.980229378E0,-1.717839718E0
2.138144275E1,-1.075595140E0,-9.745597839E0,-2.124854088E0
2.140163713E1,-9.654618502E-1,-9.534908295E0,-1.650802016E0
2.142183254E1,-8.744821548E-1,-9.460687637E0,-7.888894677E-1
2.144202879E1,-5.464765429E-1,-9.695320129E0,-3.507505357E-1
2.146222556E1,-7.721300423E-2,-1.004008484E1,-5.015852451E-1
2.148242254E1,1.741781682E-1,-1.018373680E1,-7.793126702E-1
2.150261942E1,2.573766746E-2,-1.009994030E1,-7.577648163E-1
2.152280942E1,-4.195838571E-1,-9.917980194E0,-6.021417379E-1
2.154299932E1,-8.242039084E-1,-9.688137054E0,-6.045359373E-1
2.156318379E1,-1.152209520E0,-9.487024307E0,-8.032546639E-1
2.158336869E1,-1.370081902E0,-9.424775124E0,-1.023521185E0
2.160355421E1,-1.343745708E0,-9.453505516E0,-1.157596469E0
2.162374046E1,-1.192911029E0,-9.558850288E0,-1.183932781E0
2.164392754E1,-1.025316834E0,-9.649829865E0,-1.126471877E0
2.166411557E1,-8.816647530E-1,-9.719262123E0,-1.009155989E0
2.168430452E1,-7.428010702E-1,-9.721655846E0,-9.014169574E-1
2.170449442E1,-7.092822790E-1,-9.934740067E0,-7.577648163E-1
2.172468525E1,-6.901286244E-1,-1.029865837E1,-5.159504414E-1
2.174487692E1,-6.590040326E-1,-1.021725559E1,-8.259996027E-2
2.176506932E1,-1.008557439E0,-9.963470459E0,3.770867586E-1
2.178526234E1,-1.671751380E0,-9.827000618E0,6.045359373E-1
2.180545588E1,-2.236783028E0,-9.589975357E0,2.992752194E-2
2.182564973E1,-2.409165382E0,-9.072827339E0,-7.242460251E-1
2.184584369E1,-2.466626406E0,-8.763975143E0,-1.179144382E0
2.186604848E1,-2.667739153E0,-8.921992302E0,-1.248576164E0
2.188622848E1,-2.902370930E0,-9.329007149E0,-8.774749041E-1
2.190640879E1,-2.627037764E0,-9.791088104E0,-4.944026470E-1
2.192658984E1,-1.623867273E0,-9.906009674E0,-7.541735470E-2
2.194677192E1,-6.805518270E-1,-9.939528465E0,1.328781992E-1
2.196695536E1,-2.950853705E-1,-9.987412453E0,-2.358288616E-1
2.198714036E1,-3.429693878E-1,-1.002093124E1,-7.433996201E-1
2.200732702E1,-5.752069354E-1,-1.005445004E1,-9.708487988E-1
2.202751546E1,-1.111508131E0,-9.992200851E0,-8.224082589E-1
2.204770556E1,-1.575983286E0,-9.683348656E0,-5.734112859E-1
2.206789734E1,-1.810615063E0,-9.539696693E0,-3.124433160E-1
2.208809056E1,-1.848922253E0,-9.690531731E0,-1.903390288E-1
2.210828515E1,-1.599925280E0,-9.666589737E0,-3.100491166E-1
2.212848077E1,-1.111508131E0,-9.501389503E0,-3.411737382E-1
2.214867723E1,-7.858967185E-1,-9.465476036E0,-3.770867586E-1
2.216887421E1,-8.960300088E-1,-9.503783226E0,-4.369418025E-1
2.218907140E1,-1.204882026E0,-9.508571625E0,-4.273650050E-1
2.220926734E1,-1.643020868E0,-9.496601105E0,-4.297592044E-1
2.222945734E1,-2.052429438E0,-9.604340553E0,-5.518634915E-1
2.224964723E1,-2.296638012E0,-9.712079048E0,-5.997475386E-1
2.226983171E1,-2.330156803E0,-9.700108528E0,-4.824316502E-1
2.229001661E1,-2.212841034E0,-9.546878815E0,-3.986345828E-1
2.231020202E1,-1.899200439E0,-9.386467934E0,-4.273650050E-1
2.233038817E1,-1.619078875E0,-9.343372345E0,-4.920084476E-1
2.235057515E1,-1.470638394E0,-9.558850288E0,-5.734112859E-1
2.237076307E1,-1.398812294E0,-9.762357712E0,-5.470750928E-1
2.239095192E1,-1.394023895E0,-9.690531731E0,-3.938461840E-1
2.241114171E1,-1.508945584E0,-9.659406662E0,-3.028665185E-1
2.243133244E1,-1.626261473E0,-9.676166534E0,-3.292027414E-1
2.245152400E1,-1.683722377E0,-9.623494148E0,-3.579331636E-1
2.247171640E1,-1.743577361E0,-9.578003883E0,-3.387795389E-1
2.249190942E1,-1.789067268E0,-9.587580681E0,-3.531447649E-1
2.251210296E1,-1.757942557E0,-9.510966301E0,-3.603273630E-1
2.253229682E1,-1.765125155E0,-9.487024307E0,-4.321534038E-1
2.255249088E1,-1.927930951E0,-9.554061890E0,-4.776432514E-1
2.257269577E1,-2.114678621E0,-9.594763756E0,-3.531447649E-1
2.259287598E1,-2.291849613E0,-9.566033363E0,-1.783680320E-1
2.261305650E1,-2.457049608E0,-9.494206429E0,-1.400607973E-1
2.263323775E1,-2.662950754E0,-9.403226852E0,-3.711012751E-2
2.265342004E1,-2.825756550E0,-9.350554466E0,1.113303825E-1
2.267360359E1,-2.775478363E0,-9.269151688E0,2.992752194E-2
2.269378859E1,-2.445078373E0,-9.317035675E0,-1.400607973E-1
2.271397525E1,-1.915959954E0,-9.501389503E0,-3.914519846E-1
2.273416359E1,-1.444302201E0,-9.613917351E0,-7.242460251E-1
2.275435359E1,-1.252766013E0,-9.635464668E0,-8.678981066E-1
2.277454525E1,-1.420360208E0,-9.750386238E0,-7.601590157E-1
2.279473838E1,-1.633444071E0,-9.750386238E0,-5.374982953E-1
2.281493275E1,-1.822586060E0,-9.692925453E0,-3.459621370E-1
2.283512817E1,-1.884835243E0,-9.530119896E0,-3.028665185E-1
2.285532442E1,-1.769913554E0,-9.374496460E0,-4.752490520E-1
2.287552119E1,-1.710058570E0,-9.417592049E0,-7.529764175E-1
2.289571817E1,-1.813009262E0,-9.635464668E0,-8.990227580E-1
2.291591484E1,-2.026093245E0,-9.838972092E0,-7.841010690E-1
2.293610473E1,-2.152985811E0,-9.671378136E0,-4.991910458E-1
2.295628921E1,-2.181716204E0,-9.381679535E0,-3.124433160E-1
2.297647411E1,-2.184110403E0,-9.312247276E0,-2.166752517E-1
2.299665952E1,-2.052429438E0,-9.362525940E0,-2.023100406E-1
2.301684567E1,-1.959055543E0,-9.582792282E0,-3.579331636E-1
2.303703265E1,-2.035670042E0,-9.659406662E0,-5.374982953E-1
2.305722056E1,-1.980603337E0,-9.520543098E0,-4.369418025E-1
2.307740942E1,-1.863287449E0,-9.518148422E0,-2.908954918E-1
2.309759921E1,-1.789067268E0,-9.551667213E0,-3.603273630E-1
2.311778994E1,-1.712452769E0,-9.551667213E0,-4.537012279E-1
2.313798150E1,-1.717241168E0,-9.570821762E0,-4.369418025E-1
2.315817390E1,-1.846528053E0,-9.601945877E0,-3.579331636E-1
2.317836692E1,-2.011728048E0,-9.640253067E0,-3.172317147E-1
2.319856046E1,-2.169745207E0,-9.668983459E0,-3.555389643E-1
2.321875432E1,-2.239177227E0,-9.573215485E0,-3.651157618E-1
2.323894838E1,-2.263119221E0,-9.463082314E0,-2.621650994E-1
2.325915327E1,-2.246359825E0,-9.415198326E0,-1.927332431E-1
2.327933348E1,-2.188898802E0,-9.434351921E0,-1.640028208E-1
2.329951400E1,-2.052429438E0,-9.453505516E0,-1.592144072E-1
2.331969525E1,-1.858499050E0,-9.544485092E0,-2.047042400E-1
2.333987754E1,-1.762730956E0,-9.700108528E0,-3.268085420E-1
2.336006109E1,-1.707664371E0,-9.707290649E0,-3.579331636E-1
2.338024609E1,-1.702875972E0,-9.532513618E0,-3.052607179E-1
2.340043275E1,-1.729212165E0,-9.479841232E0,-2.358288616E-1
2.342062109E1,-1.755548358E0,-9.558850288E0,-2.070984542E-1
2.344081109E1,-1.760336757E0,-9.609128952E0,-2.789244950E-1
2.346100275E1,-1.738788962E0,-9.578003883E0,-3.746925592E-1
2.348119588E1,-1.755548358E0,-9.580398560E0,-3.938461840E-1
2.350139025E1,-1.769913554E0,-9.578003883E0,-3.914519846E-1
2.352158567E1,-1.805826664E0,-9.489418030E0,-3.579331636E-1
2.354178192E1,-1.813009262E0,-9.482235909E0,-2.382230759E-1
2.356197869E1,-1.777096152E0,-9.549273491E0,-1.711854190E-1
2.358217567E1,-1.717241168E0,-9.582792282E0,-1.735796183E-1
2.360237223E1,-1.705270171E0,-9.597157478E0,-2.070984542E-1
2.362256213E1,-1.786673069E0,-9.539696693E0,-1.879448295E-1
2.364274661E1,-1.889623642E0,-9.518148422E0,-1.616086215E-1
2.366293150E1,-1.975814939E0,-9.606734276E0,-1.185129806E-1
2.368311692E1,-2.085948229E0,-9.664195061E0,-6.105214357E-2
2.370330306E1,-2.131438017E0,-9.475052834E0,-1.089361757E-1
2.372349004E1,-2.117072821E0,-9.166201591E0,-1.640028208E-1
2.374367796E1,-2.121861219E0,-9.036913872E0,-2.070984542E-1
2.376386682E1,-2.112284422E0,-9.278728485E0,-5.865794048E-2
2.378405661E1,-2.126649618E0,-9.633070946E0,7.541735470E-2
2.380424734E1,-2.040458441E0,-9.618705750E0,-8.259996027E-2
2.382443890E1,-1.971026540E0,-9.688137054E0,-4.297592044E-1
2.384463119E1,-1.868075848E0,-9.788693428E0,-7.960720658E-1
2.386482411E1,-1.664568782E0,-9.908403397E0,-1.092953086E0
2.388501754E1,-1.398812294E0,-9.949105263E0,-1.274912357E0
2.390521129E1,-9.846154451E-1,-9.877279282E0,-1.205480576E0
2.392540525E1,-6.135141850E-1,-9.714473724E0,-1.054645896E0
2.394561004E1,-4.315548539E-1,-9.628282547E0,-1.016338587E0
2.396579067E1,-3.166331649E-1,-9.884461403E0,-9.636662006E-1
2.398597161E1,-2.472013235E-1,-1.023880386E1,-8.080430627E-1
2.400615317E1,-5.560533404E-1,-1.059075165E1,-8.774749041E-1
2.402633567E1,-7.811083198E-1,-1.080622959E1,-1.092953086E0
2.404651942E1,-6.087257862E-1,-1.091396809E1,-1.298854470E0
2.406670463E1,-4.914098978E-1,-1.092354488E1,-1.408987641E0
2.408689140E1,-5.680243373E-1,-1.076552773E1,-1.353921056E0
2.410707984E1,-5.823895931E-1,-1.046864700E1,-1.114500880E0
2.412726984E1,-5.560533404E-1,-1.012148762E1,-7.601590157E-1
2.414746140E1,-6.757634282E-1,-9.613917351E0,-5.327098966E-1
2.416765442E1,-8.984242082E-1,-8.967482567E0,-7.673416734E-1
2.418784869E1,-1.042076349E0,-8.522160530E0,-1.241393566E0
2.420804400E1,-9.080010056E-1,-8.352172852E0,-1.483207941E0
2.422824004E1,-6.685808301E-1,-8.364143372E0,-1.509544134E0
2.424843661E1,-6.350619793E-1,-8.423998833E0,-1.425747156E0
2.426863338E1,-8.577227592E-1,-8.651448250E0,-1.203086376E0
2.428882900E1,-1.118690729E0,-8.890868187E0,-1.011550188E0
2.430901890E1,-1.240795016E0,-9.017760277E0,-8.990227580E-1
2.432920338E1,-1.219247222E0,-9.091980934E0,-8.224082589E-1
2.434938827E1,-1.264737010E0,-9.424775124E0,-8.224082589E-1
2.436957369E1,-1.209670424E0,-1.008796883E1,-8.726865053E-1
2.438975984E1,-9.295488000E-1,-1.054765606E1,-8.870517015E-1
2.440994682E1,-6.398503780E-1,-1.056202126E1,-8.295909166E-1
2.443013473E1,-5.919663906E-1,-1.026274586E1,-6.236895323E-1
2.445032359E1,-8.409633636E-1,-1.010472870E1,-4.967968464E-1
2.447051338E1,-9.558850527E-1,-1.014542961E1,-7.242460251E-1
2.449070411E1,-8.936358094E-1,-9.992200851E0,-1.116895080E0
2.451089567E1,-8.649053574E-1,-9.657012939E0,-1.382651448E0
2.453108796E1,-8.529343605E-1,-9.484629631E0,-1.363497853E0
2.455128088E1,-8.122329116E-1,-9.455899239E0,-1.083376288E0
2.457147432E1,-7.906851172E-1,-9.381679535E0,-9.277531505E-1
2.459166806E1,-8.050503135E-1,-9.252392769E0,-9.947907925E-1
2.461186202E1,-8.696937561E-1,-9.226056099E0,-1.100135684E0
2.463206682E1,-8.936358094E-1,-9.410409927E0,-1.109712481E0
2.465224713E1,-7.978677154E-1,-9.578003883E0,-1.092953086E0
2.467242775E1,-6.709750295E-1,-9.649829865E0,-1.092953086E0
2.469260911E1,-6.590040326E-1,-9.759963036E0,-1.107318282E0
2.471279150E1,-7.978677154E-1,-9.853337288E0,-1.159990668E0
2.473297515E1,-9.846154451E-1,-9.862914085E0,-1.150413871E0
2.475316025E1,-1.070806742E0,-9.836577415E0,-1.028309584E0
2.477334692E1,-1.073200941E0,-9.858125687E0,-8.894459605E-1
2.479353525E1,-1.032499433E0,-9.870096207E0,-8.511387110E-1
2.481372525E1,-9.319429994E-1,-9.827000618E0,-8.702923059E-1
2.483391682E1,-8.505401611E-1,-9.724050522E0,-8.966285586E-1
2.485410984E1,-8.337807655E-1,-9.637859344E0,-9.421183467E-1
2.487430411E1,-8.601169586E-1,-9.534908295E0,-9.995791912E-1
2.489449942E1,-9.295488000E-1,-9.429563522E0,-1.037886381E0
2.491469557E1,-1.042076349E0,-9.448717117E0,-1.073799491E0
2.493489223E1,-1.104325533E0,-9.491812706E0,-1.119289279E0
2.495508911E1,-1.080383539E0,-9.460687637E0,-1.150413871E0
2.497528525E1,-1.046864748E0,-9.400833130E0,-1.157596469E0
2.499547504E1,-1.020528436E0,-9.431957245E0,-1.133654475E0
2.501565942E1,-9.319429994E-1,-9.532513618E0,-1.119289279E0
2.503584421E1,-8.481459618E-1,-9.625887871E0,-1.145625472E0
2.505602963E1,-7.835025191E-1,-9.688137054E0,-1.167173386E0
2.507621577E1,-7.212532759E-1,-9.695320129E0,-1.148019671E0
2.509640275E1,-6.853402257E-1,-9.657012939E0,-1.126471877E0
2.511659067E1,-6.949170232E-1,-9.647436142E0,-1.124077678E0
2.513677952E1,-7.380126715E-1,-9.671378136E0,-1.150413871E0
2.515696932E1,-8.146271110E-1,-9.707290649E0,-1.169567585E0
2.517716004E1,-8.840589523E-1,-9.611522675E0,-1.171961784E0
2.519735161E1,-9.534908533E-1,-9.463082314E0,-1.169567585E0
2.521754390E1,-1.049258947E0,-9.465476036E0,-1.162384868E0
2.523773682E1,-1.082777739E0,-9.556455612E0,-1.143231273E0
2.525793025E1,-1.099537134E0,-9.654618263E0,-1.064222693E0
2.527812400E1,-1.106719732E0,-9.685743332E0,-1.013944387E0
2.529831796E1,-1.159392118E0,-9.700108528E0,-9.995791912E-1
2.531852275E1,-1.166574836E0,-9.621099472E0,-9.780313969E-1
2.533870286E1,-1.145026922E0,-9.410409927E0,-9.421183467E-1
2.535888327E1,-1.197699428E0,-9.245209694E0,-9.588778019E-1
2.537906442E1,-1.298255920E0,-9.182960510E0,-1.207874775E0
2.539924661E1,-1.470638394E0,-9.216479301E0,-1.555034041E0
2.541943004E1,-1.688510776E0,-9.467870712E0,-2.074575663E0
2.543961494E1,-1.899200439E0,-9.783905029E0,-2.634819031E0
2.545980150E1,-2.148197412E0,-9.996989250E0,-3.003525972E0
2.547998973E1,-2.265513420E0,-1.018613148E1,-3.357867956E0
2.550017963E1,-2.107496023E0,-1.011430550E1,-3.381809950E0
2.552037119E1,-1.568800688E0,-9.750386238E0,-2.895787001E0
2.554056421E1,-9.080010056E-1,-9.489418030E0,-2.091335297E0
2.556075859E1,-9.876082093E-2,-9.570821762E0,-9.349357486E-1
2.558095400E1,5.883750916E-1,-9.894038200E0,8.020575345E-2
2.560115025E1,4.471171796E-1,-1.018373680E1,1.400607973E-1
2.562134702E1,-1.011550203E-1,-1.015500641E1,-5.805938840E-1
2.564154400E1,-5.608417392E-1,-9.925163269E0,-1.215057373E0
2.566174067E1,-9.247604012E-1,-9.635464668E0,-1.669955730E0
2.568193046E1,-1.269525409E0,-9.384073257E0,-1.997961283E0
2.570211484E1,-1.566406488E0,-9.178172112E0,-2.124854088E0
2.572229963E1,-1.935113549E0,-9.185355186E0,-2.069787264E0
2.574248504E1,-2.397194386E0,-9.317035675E0,-2.012326479E0
2.576267119E1,-2.777872562E0,-9.376891136E0,-2.038662672E0
2.578285817E1,-2.907159328E0,-9.451110840E0,-2.048239470E0
2.580304609E1,-2.804208755E0,-9.623494148E0,-1.720233917E0
2.582323494E1,-2.595913172E0,-9.767146111E0,-1.476025343E0
2.584342473E1,-2.531269789E0,-9.838972092E0,-1.452083349E0
2.586361546E1,-2.275090218E0,-9.831789017E0,-1.447294950E0
2.588380702E1,-1.475426793E0,-9.798270226E0,-1.337161660E0
2.590399932E1,-3.788824081E-1,-9.810241699E0,-9.612720013E-1
2.592419223E1,8.469488621E-1,-9.915586472E0,-1.233013868E-1
2.594438567E1,1.227626920E0,-1.001853657E1,2.861070931E-1
2.596457942E1,1.795651275E-3,-1.002811337E1,-6.476315856E-1
2.598477327E1,-1.216853023E0,-1.007839203E1,-1.947683096E0
2.600497796E1,-1.789067268E0,-1.012148762E1,-2.919728994E0
2.602515786E1,-1.801038265E0,-1.001614285E1,-3.159149170E0
2.604533807E1,-1.324592113E0,-9.786299706E0,-2.622848034E0
2.606551900E1,-9.487023950E-1,-9.700108528E0,-1.713051319E0
2.608570098E1,-6.997054219E-1,-9.788693428E0,-4.465186298E-1
2.610588432E1,-9.636662155E-2,-1.000895977E1,7.290344238E-1
2.612606921E1,5.285200477E-1,-1.009754562E1,1.341950059E0
2.614625577E1,8.517372608E-1,-9.989806175E0,1.557428241E0
2.616644411E1,6.649895310E-1,-9.853337288E0,1.181538582E0
2.618663411E1,1.430535465E-1,-9.731232643E0,3.076549172E-1
2.620682577E1,-1.538274586E-1,-9.549273491E0,-3.435679376E-1
2.622701890E1,-3.597288132E-1,-9.415198326E0,-5.303156972E-1
2.624721338E1,-5.823895931E-1,-9.321824074E0,-5.758054852E-1
2.626740890E1,-1.022922635E0,-9.551667213E0,-3.938461840E-1
2.628760525E1,-1.506551385E0,-1.007839203E1,6.105214357E-2
2.630780213E1,-1.700481772E0,-1.027950478E1,7.050924301E-1
2.632799921E1,-1.657386184E0,-9.965864182E0,1.337161660E0
2.634819536E1,-1.441908002E0,-9.652224541E0,1.533486247E0
2.636838515E1,-9.894038439E-1,-9.563638687E0,1.227028370E0
2.638856952E1,-4.507084787E-1,-9.594763756E0,9.301473498E-1
2.640875432E1,6.883329898E-2,-9.647436142E0,8.822633028E-1
2.642893963E1,2.364274114E-1,-9.759963036E0,8.870517015E-1
2.644912567E1,1.933317930E-1,-9.884461403E0,8.176198602E-1
2.646931254E1,1.358709484E-1,-1.004008484E1,9.109937549E-1
2.648950036E1,-5.386953708E-3,-9.783905029E0,1.198297977E0
2.650968911E1,-3.573346138E-1,-9.295488358E0,1.430535555E0
2.652987879E1,-7.978677154E-1,-9.127894402E0,1.440112352E0
2.655006942E1,-1.051653147E0,-9.321824074E0,1.236605167E0
2.657026098E1,-9.654618502E-1,-9.506177902E0,8.894459605E-1
2.659045327E1,-1.013345838E0,-9.412803650E0,8.391677141E-1
2.661064619E1,-1.219247222E0,-9.175778389E0,1.186326981E0
2.663083963E1,-1.465849996E0,-8.989029884E0,1.617283225E0
2.665103338E1,-1.686116576E0,-8.917203903E0,1.660378933E0
2.667122734E1,-1.911171556E0,-8.986636162E0,1.298854470E0
2.669143213E1,-2.016516447E0,-9.087192535E0,9.421183467E-1
2.671161234E1,-2.078765631E0,-9.029731750E0,7.026981711E-1
2.673179286E1,-2.026093245E0,-8.852560997E0,6.596025825E-1
2.675197411E1,-1.810615063E0,-8.941145897E0,7.912836671E-1
2.677215640E1,-1.678933978E0,-9.340977669E0,1.059434295E0
2.679233994E1,-1.554435492E0,-9.477447510E0,1.394622445E0
2.681252494E1,-1.360505104E0,-9.379284859E0,1.562216640E0
2.683271150E1,-1.446696401E0,-9.180566788E0,1.540668845E0
2.685289973E1,-1.848922253E0,-9.113529205E0,1.195903778E0
2.687308963E1,-2.526481390E0,-9.290699959E0,8.726865053E-1
2.689328109E1,-2.895188332E0,-9.443928719E0,1.071405292E0
2.691347400E1,-2.674921751E0,-9.240421295E0,1.545457244E0
2.693366817E1,-2.507327795E0,-9.053673744E0,1.825578809E0
2.695386338E1,-2.473809004E0,-9.288305283E0,2.026691675E0
2.697405942E1,-2.069188833E0,-9.771934509E0,2.208651066E0
2.699425598E1,-1.532887697E0,-1.026274586E1,2.081758261E0
2.701445275E1,-1.346139908E0,-1.065300083E1,1.835155606E0
2.703464411E1,-1.425148606E0,-1.086608410E1,1.878251195E0
2.705483556E1,-1.712452769E0,-1.120845509E1,1.784877419E0
2.707503786E1,-1.796249866E0,-1.121084976E1,1.454477549E0
2.709521900E1,-1.501762986E0,-1.027711105E1,1.030703783E0
2.711540046E1,-1.403600693E0,-9.190143585E0,5.135562420E-1
2.713558254E1,-1.643020868E0,-8.641871452E0,-2.573766708E-1
2.715576557E1,-1.683722377E0,-8.814253807E0,-1.107318282E0
2.717594973E1,-1.317409515E0,-9.226056099E0,-1.662773132E0
2.719613525E1,-8.289923668E-1,-9.484629631E0,-1.933317900E0
2.721632223E1,-2.017114908E-1,-9.800664902E0,-1.564610839E0
2.723651067E1,4.638765752E-1,-1.002093124E1,-7.553706169E-1
2.725670057E1,1.009754539E0,-9.989806175E0,-1.185129806E-1
2.727689192E1,1.172560334E0,-9.736021042E0,-2.047042400E-1
2.729708463E1,1.170166135E0,-9.613917351E0,-7.146692276E-1
2.731727848E1,7.703344226E-1,-9.843760490E0,-1.162384868E0
2.733747327E1,-5.386953708E-3,-1.002332497E1,-1.203086376E0
2.735766879E1,-6.302735806E-1,-9.740809441E0,-1.088164687E0
2.737786473E1,-1.094748735E0,-9.336189270E0,-1.279700756E0
2.739806088E1,-1.415571809E0,-9.254786491E0,-1.614889026E0
2.741825598E1,-1.518522382E0,-9.439140320E0,-1.736993313E0
2.743844588E1,-1.444302201E0,-9.520543098E0,-1.705868721E0
2.745863567E1,-1.405994892E0,-9.479841232E0,-1.619677424E0
2.747882004E1,-1.482609391E0,-9.566033363E0,-1.495178938E0
2.749900484E1,-1.552041292E0,-9.695320129E0,-1.363497853E0
2.751919015E1,-1.547252893E0,-9.757569313E0,-1.296460271E0
2.753937619E1,-1.530493379E0,-9.671378136E0,-1.399410844E0
2.755956307E1,-1.614290476E0,-9.580398560E0,-1.672349930E0
2.757975088E1,-1.666962981E0,-9.530119896E0,-1.947683096E0
2.759993963E1,-1.494580388E0,-9.542090416E0,-2.093729496E0
2.762012932E1,-1.106719732E0,-9.611522675E0,-2.036268473E0
2.764031994E1,-6.685808301E-1,-9.692925453E0,-1.957259893E0
2.766051140E1,-3.094505668E-1,-9.781511307E0,-1.940500498E0
2.768070359E1,-1.873462796E-1,-9.846154213E0,-1.890222192E0
2.770089640E1,-3.932476342E-1,-9.860519409E0,-1.751358509E0
2.772108973E1,-8.577227592E-1,-9.824606895E0,-1.641225219E0
2.774128338E1,-1.365293503E0,-9.714473724E0,-1.631648421E0
2.776147723E1,-1.784278870E0,-9.599552155E0,-1.631648421E0
2.778168192E1,-2.088342428E0,-9.580398560E0,-1.531091928E0
2.780186244E1,-2.239177227E0,-9.568427086E0,-1.387439847E0
2.782204327E1,-2.152985811E0,-9.510966301E0,-1.303642869E0
2.784222473E1,-1.990180135E0,-9.384073257E0,-1.377863050E0
2.786240713E1,-1.621473074E0,-9.161413193E0,-1.717839718E0
2.788259077E1,-8.050503135E-1,-9.204508781E0,-2.050633669E0
2.790277588E1,1.909375787E-1,-1.005205631E1,-2.081758261E0
2.792296254E1,1.031302333E0,-1.067454815E1,-1.634042621E0
2.794315088E1,1.574786186E0,-1.050455952E1,-1.504755735E0
2.796334088E1,1.543661594E0,-9.623494148E0,-2.225410461E0
2.798353244E1,9.379284978E-1,-8.831012726E0,-3.003525972E0
2.800372546E1,-1.945288926E-1,-9.051279068E0,-3.283647537E0
2.802391973E1,-1.224035621E0,-9.513360023E0,-3.027467966E0
2.804411504E1,-2.114678621E0,-9.573215485E0,-2.524685621E0
2.806431109E1,-2.854486942E0,-9.424775124E0,-1.947683096E0
2.808450754E1,-3.261501312E0,-9.364919662E0,-1.219845772E0
2.810470421E1,-3.002927542E0,-9.336189270E0,-5.063736439E-1
2.812489932E1,-1.702875972E0,-9.403226852E0,-3.579331636E-1
2.814508911E1,-3.525462151E-1,-9.925163269E0,-7.194576263E-1
2.816527348E1,5.668272376E-1,-1.038006115E1,-8.894459605E-1
2.818545827E1,1.136647224E0,-1.035372543E1,-8.798691034E-1
2.820564359E1,1.349731207E0,-1.001853657E1,-8.942343593E-1
2.822582963E1,8.277952671E-1,-9.762357712E0,-1.083376288E0
2.824601650E1,-4.076128304E-1,-9.621099472E0,-1.437718153E0
2.826620432E1,-1.444302201E0,-9.429563522E0,-1.866280198E0
2.828639307E1,-1.978209138E0,-9.305065155E0,-2.256535053E0
2.830658275E1,-1.870470047E0,-9.324218750E0,-2.132036686E0
2.832677338E1,-1.145026922E0,-9.453505516E0,-1.540668845E0
2.834696484E1,-4.938040972E-1,-9.702502251E0,-1.021126986E0
2.836715702E1,-1.203086376E-1,-9.860519409E0,-6.667851806E-1
2.838734984E1,-7.781155407E-3,-9.927556992E0,-4.489128292E-1
2.840754317E1,-1.777694821E-1,-9.937133789E0,-4.345476031E-1
2.842773682E1,-5.297171474E-1,-9.812635422E0,-5.805938840E-1
2.844793067E1,-8.170213103E-1,-9.683348656E0,-8.008604646E-1
2.846813536E1,-9.223662019E-1,-9.616311073E0,-9.684545994E-1
2.848831567E1,-8.912416101E-1,-9.609128952E0,-9.971849918E-1
2.850849629E1,-8.457517624E-1,-9.630676270E0,-9.421183467E-1
2.852867765E1,-8.313865662E-1,-9.680954933E0,-8.894459605E-1
2.854886004E1,-8.696937561E-1,-9.755174637E0,-7.984662652E-1
2.856904369E1,-9.008184075E-1,-9.764751434E0,-6.835445762E-1
2.858922879E1,-9.032126069E-1,-9.786299706E0,-5.327098966E-1
2.860941546E1,-9.487023950E-1,-9.786299706E0,-3.459621370E-1
2.862960379E1,-1.039682031E0,-9.724050522E0,-1.687912196E-1
2.864979379E1,-1.188122630E0,-9.668983459E0,-4.189852998E-2
2.866998536E1,-1.355716705E0,-9.628282547E0,-8.379706182E-3
2.869017838E1,-1.480215192E0,-9.606734276E0,-4.429273307E-2
2.871037265E1,-1.508945584E0,-9.582792282E0,-1.640028208E-1
2.873056796E1,-1.434725404E0,-9.601945877E0,-3.387795389E-1
2.875076400E1,-1.236006618E0,-9.621099472E0,-5.063736439E-1
2.877096046E1,-9.917980433E-1,-9.664195061E0,-5.398924947E-1
2.879115713E1,-8.170213103E-1,-9.649829865E0,-4.345476031E-1
2.881135234E1,-7.811083198E-1,-9.661801338E0,-2.621650994E-1
2.883154213E1,-8.936358094E-1,-9.683348656E0,-3.950432688E-2
2.885172650E1,-1.075595140E0,-9.740809441E0,1.687912196E-1
2.887191129E1,-1.281496406E0,-9.788693428E0,3.651157618E-1
2.889209661E1,-1.506551385E0,-9.738415718E0,4.608838260E-1
2.891228265E1,-1.695693374E0,-9.645041466E0,4.273650050E-1
2.893246952E1,-1.822586060E0,-9.606734276E0,2.813186944E-1
2.895265734E1,-1.884835243E0,-9.575610161E0,1.568202078E-1
2.897284609E1,-1.892017841E0,-9.527725220E0,6.105214357E-2
2.899303577E1,-1.832162857E0,-9.498994827E0,3.950432688E-2
2.901322640E1,-1.698087573E0,-9.506177902E0,2.753331885E-2
2.903341786E1,-1.556829691E0,-9.566033363E0,4.908113554E-2
2.905361004E1,-1.441908002E0,-9.621099472E0,1.113303825E-1
2.907380286E1,-1.350928307E0,-9.666589737E0,1.472434103E-1
2.909399619E1,-1.315015316E0,-9.700108528E0,1.568202078E-1
2.911418984E1,-1.293467522E0,-9.680954933E0,1.209071875E-1
2.913438369E1,-1.298255920E0,-9.673771858E0,8.499415964E-2
2.915458838E1,-1.329380512E0,-9.678560257E0,6.344634295E-2
2.917476848E1,-1.358110905E0,-9.664195061E0,5.386953801E-2
2.919494890E1,-1.389235497E0,-9.640253067E0,3.471592441E-2
2.921513004E1,-1.408389091E0,-9.645041466E0,1.077390742E-2
2.923531223E1,-1.410783410E0,-9.676166534E0,-8.379706182E-3
2.925549567E1,-1.398812294E0,-9.680954933E0,-2.992752194E-2
2.927568057E1,-1.370081902E0,-9.676166534E0,-5.865794048E-2
2.929586713E1,-1.343745708E0,-9.676166534E0,-8.738835901E-2
2.931605536E1,-1.329380512E0,-9.647436142E0,-1.161187813E-1
2.933624525E1,-1.324592113E0,-9.647436142E0,-1.328781992E-1
2.935643671E1,-1.341351509E0,-9.640253067E0,-1.568202078E-1
2.937662963E1,-1.386841297E0,-9.647436142E0,-1.783680320E-1
2.939682379E1,-1.413177609E0,-9.642647743E0,-2.286462635E-1
2.941701900E1,-1.425148606E0,-9.635464668E0,-2.765302956E-1
2.943721504E1,-1.410783410E0,-9.657012939E0,-3.220201433E-1
2.945741161E1,-1.374870300E0,-9.654618263E0,-3.627215624E-1
2.947760838E1,-1.326986313E0,-9.633070946E0,-3.986345828E-1
2.949780494E1,-1.271919608E0,-9.628282547E0,-4.273650050E-1
2.951799463E1,-1.240795016E0,-9.625887871E0,-4.608838260E-1
2.953817890E1,-1.200093627E0,-9.637859344E0,-5.015852451E-1
2.955836359E1,-1.164180517E0,-9.633070946E0,-5.686228871E-1
2.957854890E1,-1.161786318E0,-9.630676270E0,-6.141127348E-1
2.959873494E1,-1.166574836E0,-9.633070946E0,-6.667851806E-1
2.961892182E1,-1.154603720E0,-9.625887871E0,-7.242460251E-1
2.963910963E1,-1.152209520E0,-9.635464668E0,-7.697358727E-1
2.965929838E1,-1.135450125E0,-9.618705750E0,-8.128314614E-1
2.967948806E1,-1.118690729E0,-9.601945877E0,-8.631097078E-1
2.969967869E1,-1.075595140E0,-9.599552155E0,-9.133879542E-1
2.971987015E1,-1.020528436E0,-9.623494148E0,-9.660604000E-1
2.974006234E1,-9.654618502E-1,-9.640253067E0,-9.852139950E-1
2.976025515E1,-9.223662019E-1,-9.654618263E0,-9.828197956E-1
2.978044848E1,-9.319429994E-1,-9.719262123E0,-9.636662006E-1
2.980064213E1,-9.582792521E-1,-9.731232643E0,-9.301473498E-1
2.982083598E1,-9.965864420E-1,-9.719262123E0,-9.181763530E-1
2.984104067E1,-1.022922635E0,-9.702502251E0,-9.516952038E-1
2.986122077E1,-1.022922635E0,-9.709685326E0,-1.011550188E0
2.988140119E1,-1.018134236E0,-9.724050522E0,-1.071405292E0
2.990158234E1,-1.008557439E0,-9.685743332E0,-1.080982089E0
2.992176452E1,-1.032499433E0,-9.637859344E0,-1.097741485E0
2.994194796E1,-1.068412542E0,-9.618705750E0,-1.157596469E0
2.996213286E1,-1.039682031E0,-9.625887871E0,-1.238999367E0
2.998231942E1,-9.295488000E-1,-9.609128952E0,-1.306037068E0
3.000250765E1,-8.074445128E-1,-9.609128952E0,-1.368286252E0
3.002269754E1,-7.068880796E-1,-9.625887871E0,-1.428141356E0
3.004288900E1,-6.374561787E-1,-9.657012939E0,-1.485602140E0
3.006308192E1,-6.422445774E-1,-9.616311073E0,-1.526303530E0
3.008327609E1,-7.044938207E-1,-9.568427086E0,-1.576581836E0
3.010347129E1,-8.170213103E-1,-9.582792282E0,-1.622071624E0
3.012366734E1,-9.367313981E-1,-9.570821762E0,-1.669955730E0
3.014386390E1,-1.027711034E0,-9.616311073E0,-1.643619418E0
3.016406067E1,-1.025316834E0,-9.728838921E0,-1.521515131E0
3.018425702E1,-9.630676508E-1,-9.793481827E0,-1.375468850E0
3.020444682E1,-9.534908533E-1,-9.764751434E0,-1.389834046E0
3.022463119E1,-9.846154451E-1,-9.589975357E0,-1.559822440E0
3.024481598E1,-1.003769040E0,-9.465476036E0,-1.765723705E0
3.026500129E1,-9.870096445E-1,-9.520543098E0,-1.820790410E0
3.028518734E1,-9.822212458E-1,-9.582792282E0,-1.722628117E0
3.030537421E1,-1.034893632E0,-9.628282547E0,-1.624465823E0
3.032556202E1,-1.054047346E0,-9.625887871E0,-1.638831019E0
3.034575077E1,-1.039682031E0,-9.606734276E0,-1.686715126E0
3.036594046E1,-1.027711034E0,-9.637859344E0,-1.689109325E0
3.038613109E1,-1.006163239E0,-9.625887871E0,-1.672349930E0
3.040632254E1,-1.020528436E0,-9.592369080E0,-1.691503525E0
3.042651473E1,-1.022922635E0,-9.597157478E0,-1.698686123E0
3.044670754E1,-1.022922635E0,-9.633070946E0,-1.646013618E0
3.046690088E1,-1.006163239E0,-9.637859344E0,-1.576581836E0
3.048709452E1,-9.846154451E-1,-9.647436142E0,-1.567005038E0
3.050728827E1,-9.917980433E-1,-9.743204117E0,-1.540668845E0
3.052749286E1,-9.127894044E-1,-9.769539833E0,-1.514332533E0
3.054767275E1,-8.002619147E-1,-9.702502251E0,-1.586158633E0
3.056785296E1,-6.733692288E-1,-9.616311073E0,-1.720233917E0
3.058803390E1,-5.105634928E-1,-9.604340553E0,-1.816002011E0
3.060821588E1,-3.764882088E-1,-9.613917351E0,-1.818396211E0
3.062839921E1,-2.998737693E-1,-9.623494148E0,-1.801636815E0
3.064858400E1,-2.711433470E-1,-9.642647743E0,-1.756146908E0
3.066877046E1,-2.879027426E-1,-9.702502251E0,-1.713051319E0
3.068895859E1,-3.309983909E-1,-9.731232643E0,-1.653196216E0
3.070914838E1,-3.381809890E-1,-9.714473724E0,-1.569399238E0
3.072933984E1,-3.597288132E-1,-9.704896927E0,-1.485602140E0
3.074953275E1,-4.171896577E-1,-9.724050522E0,-1.444900751E0
3.076972702E1,-5.129576921E-1,-9.726444244E0,-1.408987641E0
3.078992234E1,-6.374561787E-1,-9.740809441E0,-1.353921056E0
3.081011848E1,-6.901286244E-1,-9.747992516E0,-1.250970364E0
3.083031515E1,-7.164648771E-1,-9.712079048E0,-1.198297977E0
3.085051202E1,-7.787141204E-1,-9.709685326E0,-1.171961784E0
3.087070879E1,-8.194155097E-1,-9.724050522E0,-1.148019671E0
3.089089848E1,-8.218097091E-1,-9.712079048E0,-1.119289279E0
3.091108275E1,-7.715315223E-1,-9.700108528E0,-1.061828494E0
3.093126744E1,-6.901286244E-1,-9.697713852E0,-1.049857497E0
3.095145275E1,-6.015431881E-1,-9.726444244E0,-1.085770488E0
3.097163879E1,-5.536591411E-1,-9.750386238E0,-1.112106681E0
3.099182567E1,-5.536591411E-1,-9.736021042E0,-1.114500880E0
3.101201348E1,-6.015431881E-1,-9.685743332E0,-1.097741485E0
3.103220223E1,-6.566098332E-1,-9.642647743E0,-1.045069098E0
3.105239192E1,-7.356184721E-1,-9.645041466E0,-9.588778019E-1
3.107258254E1,-8.194155097E-1,-9.647436142E0,-8.846575022E-1
3.109277400E1,-9.103952050E-1,-9.664195061E0,-7.673416734E-1
3.111296619E1,-9.654618502E-1,-9.688137054E0,-6.500257850E-1
3.113315900E1,-9.798270464E-1,-9.709685326E0,-5.087678432E-1
3.115335234E1,-9.295488000E-1,-9.759963036E0,-3.818751574E-1
3.117354598E1,-8.553285599E-1,-9.829395294E0,-3.507505357E-1
3.119373973E1,-7.643488646E-1,-9.838972092E0,-3.842693865E-1
3.121394432E1,-6.590040326E-1,-9.819818497E0,-4.153940082E-1
3.123412421E1,-6.135141850E-1,-9.767146111E0,-3.770867586E-1
3.125430442E1,-6.494272351E-1,-9.704896927E0,-3.268085420E-1
3.127448536E1,-8.050503135E-1,-9.652224541E0,-3.076549172E-1
3.129466734E1,-1.003769040E0,-9.609128952E0,-2.621650994E-1
3.131485067E1,-1.183334231E0,-9.601945877E0,-2.430114746E-1
3.133503546E1,-1.322197914E0,-9.604340553E0,-2.382230759E-1
3.135522192E1,-1.432331204E0,-9.623494148E0,-1.544260085E-1
3.137541004E1,-1.485003591E0,-9.652224541E0,-2.274491638E-2
3.139559984E1,-1.492186189E0,-9.661801338E0,9.457096457E-2
3.141579129E1,-1.434725404E0,-9.666589737E0,2.047042400E-1
3.143598421E1,-1.307832718E0,-9.616311073E0,2.789244950E-1
3.145617848E1,-1.204882026E0,-9.561244011E0,2.597708702E-1
3.147637379E1,-1.178545833E0,-9.554061890E0,1.903390288E-1
3.149656994E1,-1.200093627E0,-9.587580681E0,1.065419763E-1
3.151676661E1,-1.240795016E0,-9.640253067E0,8.978256583E-2
3.153696348E1,-1.353322506E0,-9.625887871E0,1.448491961E-1
3.155715994E1,-1.499368787E0,-9.578003883E0,2.286462635E-1
3.157734973E1,-1.688510776E0,-9.549273491E0,3.339911401E-1
3.159753942E1,-1.906383157E0,-9.563638687E0,4.153940082E-1
3.161772369E1,-2.050035238E0,-9.556455612E0,4.800374508E-1
3.163790838E1,-2.121861219E0,-9.530119896E0,5.183446407E-1
3.165809359E1,-2.085948229E0,-9.527725220E0,5.063736439E-1
3.167827952E1,-1.959055543E0,-9.549273491E0,4.608838260E-1
3.169846629E1,-1.784278870E0,-9.551667213E0,3.914519846E-1
3.171865400E1,-1.652597666E0,-9.549273491E0,3.268085420E-1
3.173884265E1,-1.585560083E0,-9.585186958E0,2.693476975E-1
3.175903234E1,-1.556829691E0,-9.611522675E0,2.190694511E-1
3.177922296E1,-1.530493379E0,-9.611522675E0,1.711854190E-1
3.179941442E1,-1.518522382E0,-9.601945877E0,1.113303825E-1
3.181960661E1,-1.506551385E0,-9.606734276E0,5.865794048E-2
3.183979942E1,-1.487397790E0,-9.628282547E0,2.035071515E-2
3.185999275E1,-1.461061597E0,-9.606734276E0,1.197100850E-3
3.188018640E1,-1.461061597E0,-9.582792282E0,-1.197100850E-3
3.190038025E1,-1.477820992E0,-9.561244011E0,5.985504016E-3
3.192058494E1,-1.518522382E0,-9.597157478E0,5.985504016E-3
3.194076484E1,-1.532887697E0,-9.625887871E0,-1.077390742E-2
3.196094504E1,-1.516128182E0,-9.616311073E0,-1.556231081E-2
3.198112598E1,-1.508945584E0,-9.640253067E0,-2.753331885E-2
3.200130796E1,-1.501762986E0,-9.671378136E0,-7.302315533E-2
3.202149119E1,-1.489791989E0,-9.668983459E0,-1.424549967E-1
3.204167598E1,-1.480215192E0,-9.657012939E0,-2.310404629E-1
3.206186244E1,-1.415571809E0,-9.625887871E0,-3.555389643E-1
3.208205056E1,-1.331774712E0,-9.618705750E0,-5.159504414E-1
3.210224036E1,-1.197699428E0,-9.606734276E0,-6.643909812E-1
3.212243182E1,-1.133055925E0,-9.621099472E0,-7.481880188E-1
3.214262473E1,-1.085171938E0,-9.637859344E0,-7.745242715E-1
3.216281900E1,-1.068412542E0,-9.621099472E0,-7.362170219E-1
3.218301432E1,-1.087566137E0,-9.628282547E0,-6.955155730E-1
3.220321046E1,-1.073200941E0,-9.637859344E0,-7.338228226E-1
3.222340713E1,-1.042076349E0,-9.652224541E0,-8.535329103E-1
3.224360400E1,-9.678560495E-1,-9.652224541E0,-9.971849918E-1
3.226380046E1,-8.529343605E-1,-9.664195061E0,-1.116895080E0
3.228399015E1,-7.236474752E-1,-9.649829865E0,-1.234210968E0
3.230417442E1,-6.278793812E-1,-9.671378136E0,-1.282094955E0
3.232435911E1,-5.656301379E-1,-9.719262123E0,-1.282094955E0
3.234454432E1,-5.440823436E-1,-9.719262123E0,-1.296460271E0
3.236473025E1,-5.895721912E-1,-9.690531731E0,-1.318008065E0
3.238491702E1,-6.709750295E-1,-9.704896927E0,-1.308431268E0
3.240510473E1,-7.380126715E-1,-9.690531731E0,-1.282094955E0
3.242529338E1,-7.954735160E-1,-9.680954933E0,-1.298854470E0
3.244548296E1,-8.529343605E-1,-9.680954933E0,-1.358709455E0
3.246567348E1,-8.625111580E-1,-9.688137054E0,-1.428141356E0
3.248586484E1,-8.433575630E-1,-9.637859344E0,-1.466448545E0
3.250605702E1,-8.577227592E-1,-9.580398560E0,-1.490390539E0
3.252624984E1,-8.768763542E-1,-9.582792282E0,-1.535880446E0
3.254644317E1,-8.481459618E-1,-9.628282547E0,-1.578976035E0
3.256663682E1,-7.930793166E-1,-9.664195061E0,-1.574187636E0
3.258683067E1,-7.691373229E-1,-9.676166534E0,-1.545457244E0
3.260703536E1,-7.787141204E-1,-9.659406662E0,-1.562216640E0
3.262721546E1,-8.218097091E-1,-9.628282547E0,-1.617283225E0
3.264739588E1,-8.936358094E-1,-9.585186958E0,-1.698686123E0
3.266757702E1,-9.678560495E-1,-9.544485092E0,-1.758541107E0
3.268775921E1,-1.020528436E0,-9.546878815E0,-1.789665818E0
3.270794265E1,-9.941922426E-1,-9.570821762E0,-1.782483220E0
3.272812754E1,-9.056068063E-1,-9.594763756E0,-1.775300503E0
3.274831400E1,-8.577227592E-1,-9.642647743E0,-1.794454217E0
3.276850213E1,-8.505401611E-1,-9.647436142E0,-1.808819413E0
3.278869192E1,-9.056068063E-1,-9.628282547E0,-1.813607812E0
3.280888327E1,-9.870096445E-1,-9.606734276E0,-1.823184609E0
3.282907609E1,-1.042076349E0,-9.570821762E0,-1.849520802E0
3.284927015E1,-1.066018343E0,-9.544485092E0,-1.895010591E0
3.286946525E1,-1.063624144E0,-9.601945877E0,-1.909375906E0
3.288966119E1,-1.034893632E0,-9.659406662E0,-1.859097600E0
3.290985765E1,-9.894038439E-1,-9.625887871E0,-1.820790410E0
3.293005432E1,-9.870096445E-1,-9.580398560E0,-1.861491799E0
3.295024556E1,-9.965864420E-1,-9.542090416E0,-1.899798989E0
3.297043692E1,-1.018134236E0,-9.575610161E0,-1.909375906E0
3.299063911E1,-9.726444483E-1,-9.561244011E0,-1.911770105E0
3.301082036E1,-9.271546006E-1,-9.494206429E0,-1.962048292E0
3.303100192E1,-9.127894044E-1,-9.472659111E0,-2.036268473E0
3.305118411E1,-8.888474107E-1,-9.477447510E0,-2.110488892E0
3.307136713E1,-8.242039084E-1,-9.506177902E0,-2.108094692E0
3.309155129E1,-7.787141204E-1,-9.532513618E0,-2.029085875E0
3.311173671E1,-7.619546652E-1,-9.549273491E0,-1.940500498E0
3.313192359E1,-6.733692288E-1,-9.592369080E0,-1.902193308E0
3.315211192E1,-5.752069354E-1,-9.601945877E0,-1.904587507E0
3.317230171E1,-5.416881442E-1,-9.633070946E0,-1.878251195E0
3.319249296E1,-5.273229480E-1,-9.664195061E0,-1.794454217E0
3.321268546E1,-5.297171474E-1,-9.702502251E0,-1.732204914E0
3.323287911E1,-5.704185367E-1,-9.700108528E0,-1.715445518E0
3.325307369E1,-6.829460263E-1,-9.678560257E0,-1.665167332E0
3.327326900E1,-7.667431235E-1,-9.647436142E0,-1.617283225E0
3.329346473E1,-8.218097091E-1,-9.623494148E0,-1.576581836E0
3.331366067E1,-8.625111580E-1,-9.613917351E0,-1.538274646E0
3.333385619E1,-8.888474107E-1,-9.623494148E0,-1.511938334E0
3.335404588E1,-8.840589523E-1,-9.664195061E0,-1.468842745E0
3.337423015E1,-8.601169586E-1,-9.680954933E0,-1.430535555E0
3.339441484E1,-7.954735160E-1,-9.671378136E0,-1.440112352E0
3.341460015E1,-6.997054219E-1,-9.630676270E0,-1.492784739E0
3.343478619E1,-5.752069354E-1,-9.642647743E0,-1.509544134E0
3.345497307E1,-5.009866953E-1,-9.728838921E0,-1.454477549E0
3.347516088E1,-4.818331003E-1,-9.786299706E0,-1.389834046E0
3.349534963E1,-5.177460909E-1,-9.800664902E0,-1.346738458E0
3.351553932E1,-5.273229480E-1,-9.781511307E0,-1.301248670E0
3.353572994E1,-4.938040972E-1,-9.743204117E0,-1.262941360E0
3.355592140E1,-4.961982965E-1,-9.719262123E0,-1.291671872E0
3.357611359E1,-5.656301379E-1,-9.649829865E0,-1.351526856E0
3.359630640E1,-6.781576276E-1,-9.554061890E0,-1.382651448E0
3.361649973E1,-8.122329116E-1,-9.503783226E0,-1.363497853E0
3.363669338E1,-9.032126069E-1,-9.513360023E0,-1.282094955E0
3.365688713E1,-9.271546006E-1,-9.566033363E0,-1.186326981E0
3.367709171E1,-9.199720025E-1,-9.606734276E0,-1.071405292E0
3.369727150E1,-9.702502489E-1,-9.616311073E0,-9.636662006E-1
3.371745161E1,-1.051653147E0,-9.613917351E0,-8.559271097E-1
3.373763244E1,-1.087566137E0,-9.640253067E0,-7.505822182E-1
3.375781432E1,-1.037287831E0,-9.676166534E0,-6.236895323E-1
3.377799754E1,-9.702502489E-1,-9.743204117E0,-5.279214978E-1
3.379818234E1,-9.319429994E-1,-9.764751434E0,-4.752490520E-1
3.381836879E1,-8.744821548E-1,-9.745597839E0,-4.441244006E-1
3.383855702E1,-8.074445128E-1,-9.740809441E0,-4.129997790E-1
3.385874692E1,-7.739257216E-1,-9.755174637E0,-4.177882075E-1
3.387893848E1,-7.667431235E-1,-9.759963036E0,-4.345476031E-1
3.389913150E1,-7.356184721E-1,-9.762357712E0,-4.153940082E-1
3.391932588E1,-7.164648771E-1,-9.786299706E0,-3.579331636E-1
3.393952129E1,-7.236474752E-1,-9.798270226E0,-3.004723191E-1
3.395971754E1,-8.146271110E-1,-9.757569313E0,-2.621650994E-1
3.397991432E1,-9.247604012E-1,-9.707290649E0,-1.975216419E-1
3.400011129E1,-1.018134236E0,-9.731232643E0,-1.400607973E-1
3.402030744E1,-1.061229944E0,-9.745597839E0,-8.978256583E-2
3.404049713E1,-1.125873327E0,-9.688137054E0,-9.696517140E-2
3.406068140E1,-1.224035621E0,-9.623494148E0,-1.280897856E-1
3.408086609E1,-1.372476101E0,-9.599552155E0,-1.233013868E-1
3.410105140E1,-1.525704980E0,-9.604340553E0,-1.077390742E-2
3.412123744E1,-1.623867273E0,-9.621099472E0,9.217676520E-2
3.414142432E1,-1.654991984E0,-9.652224541E0,1.568202078E-1
3.416161213E1,-1.614290476E0,-9.647436142E0,1.831564307E-1
3.418180088E1,-1.523310781E0,-9.609128952E0,1.592144072E-1
3.420199056E1,-1.463455796E0,-9.594763756E0,1.400607973E-1
3.422218119E1,-1.427542806E0,-9.633070946E0,1.424549967E-1
3.424237265E1,-1.413177609E0,-9.659406662E0,1.568202078E-1
3.426256484E1,-1.417966008E0,-9.642647743E0,1.999158412E-1
3.428275765E1,-1.444302201E0,-9.599552155E0,2.406172752E-1
3.430295098E1,-1.489791989E0,-9.568427086E0,2.573766708E-1
3.432314463E1,-1.523310781E0,-9.578003883E0,2.047042400E-1
3.434333838E1,-1.552041292E0,-9.640253067E0,1.233013868E-1
3.436354296E1,-1.587954283E0,-9.659406662E0,9.217676520E-2
3.438372275E1,-1.540070295E0,-9.618705750E0,6.823474914E-2
3.440390286E1,-1.458667397E0,-9.582792282E0,6.344634295E-2
3.442408369E1,-1.408389091E0,-9.585186958E0,8.499415964E-2
3.444426556E1,-1.410783410E0,-9.630676270E0,8.020575345E-2
3.446444879E1,-1.429937005E0,-9.654618263E0,3.232172132E-2
3.448463359E1,-1.482609391E0,-9.621099472E0,5.985504016E-3
3.450482004E1,-1.578377485E0,-9.573215485E0,1.795651205E-2
3.452500827E1,-1.688510776E0,-9.551667213E0,3.950432688E-2
3.454519817E1,-1.786673069E0,-9.518148422E0,3.711012751E-2
3.456538973E1,-1.851316452E0,-9.544485092E0,1.077390742E-2
3.458558275E1,-1.870470047E0,-9.585186958E0,-5.386953801E-2
3.460577713E1,-1.803432465E0,-9.611522675E0,-1.065419763E-1
3.462597254E1,-1.722029567E0,-9.611522675E0,-1.185129806E-1
3.464616879E1,-1.676539779E0,-9.601945877E0,-1.424549967E-1
3.466636556E1,-1.643020868E0,-9.563638687E0,-1.831564307E-1
3.468656254E1,-1.604713678E0,-9.556455612E0,-2.501940727E-1
3.470675859E1,-1.559223890E0,-9.582792282E0,-3.315969408E-1
3.472694838E1,-1.583165884E0,-9.635464668E0,-3.770867586E-1
3.474713806E1,-1.669357181E0,-9.633070946E0,-3.794809580E-1
3.476732234E1,-1.779490471E0,-9.585186958E0,-3.627215624E-1
3.478750702E1,-1.820191860E0,-9.539696693E0,-3.794809580E-1
3.480769234E1,-1.748365760E0,-9.534908295E0,-4.369418025E-1
3.482787838E1,-1.575983286E0,-9.597157478E0,-5.135562420E-1
3.484806525E1,-1.341351509E0,-9.668983459E0,-5.159504414E-1
3.486825307E1,-1.173757434E0,-9.712079048E0,-3.675099611E-1
3.488844182E1,-1.118690729E0,-9.740809441E0,-1.903390288E-1
3.490863150E1,-1.113902330E0,-9.745597839E0,-1.735796183E-1
3.492882213E1,-1.128267527E0,-9.736021042E0,-3.435679376E-1
3.494901359E1,-1.159392118E0,-9.700108528E0,-5.686228871E-1
3.496920577E1,-1.183334231E0,-9.659406662E0,-7.745242715E-1
3.498939859E1,-1.226429820E0,-9.640253067E0,-8.894459605E-1
3.500959192E1,-1.257554412E0,-9.657012939E0,-8.583213091E-1
3.502978557E1,-1.231218219E0,-9.683348656E0,-7.841010690E-1
3.504997932E1,-1.154603720E0,-9.664195061E0,-6.979097724E-1
3.507018390E1,-1.176151633E0,-9.621099472E0,-6.021417379E-1
3.509036359E1,-1.295861721E0,-9.597157478E0,-5.614402890E-1
3.511054359E1,-1.437119603E0,-9.611522675E0,-5.925649405E-1
3.513072432E1,-1.549647093E0,-9.582792282E0,-6.572083831E-1
3.515090609E1,-1.616684675E0,-9.597157478E0,-7.505822182E-1
3.517108921E1,-1.571194887E0,-9.625887871E0,-8.678981066E-1
3.519127390E1,-1.482609391E0,-9.611522675E0,-9.445125461E-1
3.521146025E1,-1.353322506E0,-9.592369080E0,-9.876081944E-1
3.523164838E1,-1.240795016E0,-9.451110840E0,-9.660604000E-1
3.525183827E1,-1.288679123E0,-9.451110840E0,-9.445125461E-1
3.527202984E1,-1.209670424E0,-9.566033363E0,-9.995791912E-1
3.529222296E1,-9.678560495E-1,-9.647436142E0,-1.176750183E0
3.531241744E1,-8.002619147E-1,-9.704896927E0,-1.408987641E0
3.533261296E1,-7.236474752E-1,-9.673771858E0,-1.538274646E0
3.535280932E1,-8.265981078E-1,-9.702502251E0,-1.514332533E0
3.537300619E1,-1.037287831E0,-9.757569313E0,-1.272518158E0
3.539320327E1,-1.219247222E0,-9.747992516E0,-9.900023937E-1
3.541339932E1,-1.298255920E0,-9.733627319E0,-8.535329103E-1
3.543358911E1,-1.250371814E0,-9.685743332E0,-9.469067454E-1
3.545377879E1,-1.259948611E0,-9.657012939E0,-1.159990668E0
3.547396306E1,-1.336563110E0,-9.657012939E0,-1.327584863E0
3.549414775E1,-1.415571809E0,-9.611522675E0,-1.387439847E0
3.551433296E1,-1.434725404E0,-9.518148422E0,-1.399410844E0
3.553451890E1,-1.398812294E0,-9.491812706E0,-1.413776159E0
3.555470567E1,-1.312621117E0,-9.530119896E0,-1.495178938E0
3.557489338E1,-1.228824019E0,-9.566033363E0,-1.581370234E0
3.559508202E1,-1.137844324E0,-9.601945877E0,-1.610100627E0
3.561527161E1,-1.054047346E0,-9.616311073E0,-1.559822440E0
3.563546213E1,-9.894038439E-1,-9.654618263E0,-1.509544134E0
3.565565359E1,-9.175778031E-1,-9.668983459E0,-1.516726732E0
3.567584577E1,-8.505401611E-1,-9.680954933E0,-1.545457244E0
3.569603859E1,-7.667431235E-1,-9.685743332E0,-1.576581836E0
3.571623192E1,-7.092822790E-1,-9.664195061E0,-1.593341231E0
3.573642557E1,-6.949170232E-1,-9.680954933E0,-1.610100627E0
3.575661942E1,-7.619546652E-1,-9.695320129E0,-1.600523829E0
3.577682411E1,-8.289923668E-1,-9.714473724E0,-1.557428241E0
3.579700411E1,-8.912416101E-1,-9.712079048E0,-1.504755735E0
3.581718442E1,-8.984242082E-1,-9.664195061E0,-1.485602140E0
3.583736546E1,-8.553285599E-1,-9.652224541E0,-1.502361536E0
3.585754754E1,-8.194155097E-1,-9.637859344E0,-1.516726732E0
3.587773088E1,-8.218097091E-1,-9.640253067E0,-1.485602140E0
3.589791567E1,-8.720879555E-1,-9.659406662E0,-1.430535555E0
3.591810213E1,-9.175778031E-1,-9.654618263E0,-1.401805043E0
3.593829025E1,-8.529343605E-1,-9.628282547E0,-1.420958757E0
3.595848004E1,-7.547720671E-1,-9.671378136E0,-1.413776159E0
3.597867150E1,-6.901286244E-1,-9.731232643E0,-1.351526856E0
3.599886442E1,-7.140706778E-1,-9.759963036E0,-1.258152962E0
3.601905859E1,-8.265981078E-1,-9.736021042E0,-1.143231273E0
3.603925379E1,-9.750386477E-1,-9.664195061E0,-1.073799491E0
3.605944984E1,-1.123479128E0,-9.652224541E0,-1.088164687E0
3.607964640E1,-1.154603720E0,-9.659406662E0,-1.143231273E0
3.609984317E1,-1.034893632E0,-9.676166534E0,-1.131260276E0
3.612003963E1,-8.577227592E-1,-9.712079048E0,-1.035492182E0
3.614022942E1,-7.571662664E-1,-9.759963036E0,-9.253589511E-1
3.616041911E1,-7.571662664E-1,-9.786299706E0,-8.487445116E-1
3.618060338E1,-8.337807655E-1,-9.769539833E0,-8.319851160E-1
3.620078807E1,-9.798270464E-1,-9.709685326E0,-8.559271097E-1
3.622097327E1,-1.118690729E0,-9.640253067E0,-8.463503122E-1
3.624115921E1,-1.219247222E0,-9.616311073E0,-8.176198602E-1
3.626134598E1,-1.298255920E0,-9.635464668E0,-7.697358727E-1
3.628153369E1,-1.315015316E0,-9.661801338E0,-7.170634270E-1
3.630172234E1,-1.286284804E0,-9.642647743E0,-6.524199843E-1
3.632191192E1,-1.274313807E0,-9.625887871E0,-5.973533392E-1
3.634210244E1,-1.267131209E0,-9.647436142E0,-5.734112859E-1
3.636229379E1,-1.238400817E0,-9.664195061E0,-5.734112859E-1
3.638248598E1,-1.185728431E0,-9.661801338E0,-5.542576909E-1
3.640267879E1,-1.128267527E0,-9.666589737E0,-5.207388401E-1
3.642287213E1,-1.128267527E0,-9.707290649E0,-4.680664241E-1
3.644306577E1,-1.173757434E0,-9.728838921E0,-3.315969408E-1
3.646325963E1,-1.178545833E0,-9.702502251E0,-2.118868530E-1
3.648346432E1,-1.125873327E0,-9.628282547E0,-2.501940727E-1
3.650364432E1,-1.130661726E0,-9.601945877E0,-3.627215624E-1
3.652382463E1,-1.204882026E0,-9.611522675E0,-3.986345828E-1
3.654400567E1,-1.274313807E0,-9.594763756E0,-3.770867586E-1
3.656418775E1,-1.358110905E0,-9.573215485E0,-3.507505357E-1
3.658437109E1,-1.506551385E0,-9.568427086E0,-2.190694511E-1
3.660455588E1,-1.635838270E0,-9.568427086E0,-1.137245819E-1
3.662474234E1,-1.736394763E0,-9.568427086E0,-4.429273307E-2
3.664493046E1,-1.834557056E0,-9.601945877E0,-4.908113554E-2
3.666512025E1,-1.848922253E0,-9.613917351E0,-5.386953801E-2
3.668531171E1,-1.829768658E0,-9.546878815E0,3.232172132E-2
3.670550463E1,-1.887229443E0,-9.465476036E0,8.020575345E-2
3.672569879E1,-1.956661344E0,-9.491812706E0,3.232172132E-2
3.674589400E1,-2.016516447E0,-9.491812706E0,-5.626374111E-2
3.676609004E1,-2.040458441E0,-9.446322441E0,-1.209071875E-1
3.678628661E1,-1.997362733E0,-9.434351921E0,-5.865794048E-2
3.680648338E1,-1.889623642E0,-9.534908295E0,1.137245819E-1
3.682668004E1,-1.774701953E0,-9.628282547E0,2.765302956E-1
3.684686973E1,-1.796249866E0,-9.635464668E0,3.459621370E-1
3.686705400E1,-1.954267144E0,-9.558850288E0,2.430114746E-1
3.688723869E1,-2.117072821E0,-9.506177902E0,-8.379706182E-3
3.690742400E1,-2.272696018E0,-9.458293915E0,-1.137245819E-1
3.692761004E1,-2.349310398E0,-9.405621529E0,-8.259996027E-2
3.694779692E1,-2.284667015E0,-9.443928719E0,1.316810958E-2
3.696798473E1,-2.133832216E0,-9.527725220E0,1.161187813E-1
3.698817348E1,-1.968632340E0,-9.563638687E0,1.999158412E-1
3.700836317E1,-1.860893250E0,-9.585186958E0,1.903390288E-1
3.702855379E1,-1.695693374E0,-9.657012939E0,1.161187813E-1
3.704874525E1,-1.508945584E0,-9.700108528E0,1.233013868E-1
3.706893744E1,-1.434725404E0,-9.704896927E0,5.147533491E-2
3.708913025E1,-1.444302201E0,-9.719262123E0,-2.274491638E-2
3.710932359E1,-1.511339784E0,-9.714473724E0,-3.591302549E-3
3.712951723E1,-1.561618090E0,-9.668983459E0,-8.379706182E-3
3.714971098E1,-1.631049871E0,-9.582792282E0,-7.541735470E-2
3.716991557E1,-1.698087573E0,-9.573215485E0,-1.065419763E-1
3.719009536E1,-1.702875972E0,-9.592369080E0,-6.105214357E-2
3.721027546E1,-1.635838270E0,-9.585186958E0,-7.781155407E-2
3.723045629E1,-1.530493379E0,-9.609128952E0,-1.831564307E-1
3.725063817E1,-1.367687702E0,-9.673771858E0,-2.070984542E-1
3.727082140E1,-1.212064624E0,-9.695320129E0,-1.663970202E-1
3.729100619E1,-1.099537134E0,-9.719262123E0,-2.190694511E-1
3.731119265E1,-1.063624144E0,-9.726444244E0,-3.076549172E-1
3.733138088E1,-1.101931334E0,-9.683348656E0,-3.770867586E-1
3.735157088E1,-1.130661726E0,-9.640253067E0,-4.513070285E-1
3.737176254E1,-1.116296530E0,-9.640253067E0,-4.896142483E-1
3.739195567E1,-1.116296530E0,-9.678560257E0,-4.273650050E-1
3.741215015E1,-1.176151633E0,-9.702502251E0,-3.555389643E-1
3.743234567E1,-1.279102206E0,-9.680954933E0,-3.531447649E-1
3.745254202E1,-1.374870300E0,-9.668983459E0,-3.866635859E-1
3.747273890E1,-1.429937005E0,-9.640253067E0,-4.369418025E-1
3.749293598E1,-1.394023895E0,-9.613917351E0,-5.087678432E-1
3.751313161E1,-1.317409515E0,-9.623494148E0,-5.063736439E-1
3.753332140E1,-1.219247222E0,-9.630676270E0,-4.776432514E-1
3.755351109E1,-1.116296530E0,-9.652224541E0,-5.494692922E-1
3.757369536E1,-1.058835745E0,-9.683348656E0,-6.739677787E-1
3.759388004E1,-9.917980433E-1,-9.680954933E0,-7.433996201E-1
3.761406536E1,-9.822212458E-1,-9.695320129E0,-7.960720658E-1
3.763425140E1,-9.295488000E-1,-9.700108528E0,-8.990227580E-1
3.765443827E1,-8.984242082E-1,-9.707290649E0,-9.157821536E-1
3.767462609E1,-9.319429994E-1,-9.695320129E0,-8.798691034E-1
3.769481484E1,-9.870096445E-1,-9.680954933E0,-8.846575022E-1
3.771500452E1,-1.075595140E0,-9.621099472E0,-8.990227580E-1
3.773519515E1,-1.118690729E0,-9.633070946E0,-9.349357486E-1
3.775538661E1,-1.082777739E0,-9.671378136E0,-9.516952038E-1
3.777557879E1,-9.894038439E-1,-9.683348656E0,-9.804255962E-1
3.779577161E1,-9.103952050E-1,-9.685743332E0,-1.069011092E0
3.781596494E1,-8.433575630E-1,-9.678560257E0,-1.164779186E0
3.783615859E1,-8.050503135E-1,-9.671378136E0,-1.250970364E0
3.785635244E1,-7.978677154E-1,-9.661801338E0,-1.310825467E0
3.787655713E1,-8.218097091E-1,-9.661801338E0,-1.320402265E0
3.789673723E1,-8.218097091E-1,-9.659406662E0,-1.291671872E0
3.791691765E1,-7.691373229E-1,-9.671378136E0,-1.308431268E0
3.793709879E1,-6.997054219E-1,-9.673771858E0,-1.365892053E0
3.795728098E1,-7.020996213E-1,-9.680954933E0,-1.418564558E0
3.797746442E1,-8.050503135E-1,-9.683348656E0,-1.444900751E0
3.799764932E1,-9.606734514E-1,-9.647436142E0,-1.440112352E0
3.801783577E1,-1.034893632E0,-9.578003883E0,-1.404199243E0
3.803802390E1,-9.941922426E-1,-9.558850288E0,-1.389834046E0
3.805821369E1,-8.864531517E-1,-9.623494148E0,-1.428141356E0
3.807840515E1,-7.811083198E-1,-9.668983459E0,-1.430535555E0
3.809859807E1,-7.499836683E-1,-9.645041466E0,-1.387439847E0
3.811879223E1,-8.265981078E-1,-9.666589737E0,-1.389834046E0
3.813898744E1,-9.271546006E-1,-9.752780914E0,-1.440112352E0
3.815918348E1,-9.151836038E-1,-9.769539833E0,-1.571793437E0
3.817938004E1,-8.481459618E-1,-9.688137054E0,-1.631648421E0
3.819957682E1,-7.930793166E-1,-9.647436142E0,-1.533486247E0
3.821977348E1,-7.523778677E-1,-9.635464668E0,-1.461660147E0
3.823996327E1,-7.547720671E-1,-9.657012939E0,-1.526303530E0
3.826015296E1,-7.595604658E-1,-9.697713852E0,-1.605312228E0
3.828033723E1,-7.811083198E-1,-9.637859344E0,-1.643619418E0
3.830052192E1,-8.505401611E-1,-9.568427086E0,-1.643619418E0
3.832070723E1,-9.080010056E-1,-9.549273491E0,-1.607706428E0
3.834089327E1,-9.008184075E-1,-9.570821762E0,-1.567005038E0
3.836108015E1,-8.912416101E-1,-9.592369080E0,-1.507149935E0
3.838126796E1,-9.008184075E-1,-9.616311073E0,-1.420958757E0
3.840145671E1,-9.056068063E-1,-9.659406662E0,-1.337161660E0
3.842164640E1,-8.744821548E-1,-9.697713852E0,-1.286883354E0
3.844183702E1,-8.672995567E-1,-9.712079048E0,-1.279700756E0
3.846202848E1,-8.936358094E-1,-9.680954933E0,-1.296460271E0
3.848222067E1,-9.127894044E-1,-9.647436142E0,-1.351526856E0
3.850241348E1,-8.816647530E-1,-9.618705750E0,-1.382651448E0
3.852260682E1,-8.074445128E-1,-9.630676270E0,-1.370680451E0
3.854280046E1,-7.571662664E-1,-9.678560257E0,-1.353921056E0
3.856299432E1,-7.356184721E-1,-9.712079048E0,-1.332373261E0
3.858319900E1,-7.020996213E-1,-9.714473724E0,-1.315613866E0
3.860337900E1,-6.590040326E-1,-9.690531731E0,-1.318008065E0
3.862355932E1,-6.039373875E-1,-9.668983459E0,-1.294066072E0
3.864374036E1,-6.015431881E-1,-9.666589737E0,-1.279700756E0
3.866392244E1,-6.374561787E-1,-9.657012939E0,-1.255758762E0
3.868410577E1,-6.781576276E-1,-9.659406662E0,-1.217451572E0
3.870429056E1,-7.140706778E-1,-9.680954933E0,-1.183932781E0
3.872447702E1,-7.332242727E-1,-9.695320129E0,-1.157596469E0
3.874466515E1,-7.547720671E-1,-9.690531731E0,-1.107318282E0
3.876485494E1,-7.763199210E-1,-9.704896927E0,-1.064222693E0
3.878504640E1,-8.026561141E-1,-9.700108528E0,-1.042674899E0
3.880523932E1,-8.529343605E-1,-9.678560257E0,-9.852139950E-1
3.882543359E1,-9.151836038E-1,-9.685743332E0,-9.133879542E-1
3.884562890E1,-9.726444483E-1,-9.704896927E0,-8.559271097E-1
3.886582504E1,-9.917980433E-1,-9.714473724E0,-8.176198602E-1
3.888602171E1,-9.917980433E-1,-9.707290649E0,-7.888894677E-1
3.890621859E1,-9.798270464E-1,-9.690531731E0,-7.864952683E-1
3.892641525E1,-9.894038439E-1,-9.702502251E0,-7.745242715E-1
3.894660504E1,-9.606734514E-1,-9.704896927E0,-7.793126702E-1
3.896679473E1,-9.534908533E-1,-9.700108528E0,-7.912836671E-1
3.898697900E1,-9.582792521E-1,-9.688137054E0,-7.817068696E-1
3.900716369E1,-9.271546006E-1,-9.690531731E0,-7.721300721E-1
3.902734900E1,-8.744821548E-1,-9.683348656E0,-7.673416734E-1
3.904753504E1,-8.457517624E-1,-9.707290649E0,-7.625532150E-1
3.906772192E1,-8.050503135E-1,-9.719262123E0,-7.649474144E-1
3.908790973E1,-7.882909179E-1,-9.721655846E0,-7.529764175E-1
3.910809848E1,-7.930793166E-1,-9.697713852E0,-7.505822182E-1
3.912828817E1,-8.026561141E-1,-9.671378136E0,-7.577648163E-1
3.914847879E1,-8.098387122E-1,-9.685743332E0,-7.745242715E-1
3.916867025E1,-8.026561141E-1,-9.695320129E0,-7.888894677E-1
3.918886244E1,-8.170213103E-1,-9.678560257E0,-7.888894677E-1
3.920905525E1,-9.056068063E-1,-9.676166534E0,-7.984662652E-1
3.922924859E1,-1.015740037E0,-9.685743332E0,-7.984662652E-1
3.924944223E1,-1.080383539E0,-9.671378136E0,-7.338228226E-1
3.926963609E1,-1.149815321E0,-9.664195061E0,-6.165069342E-1
3.928984077E1,-1.236006618E0,-9.661801338E0,-5.949591398E-1
3.931002056E1,-1.240795016E0,-9.712079048E0,-6.619967818E-1
3.933020067E1,-1.140238523E0,-9.781511307E0,-6.045359373E-1
3.935038150E1,-9.391255975E-1,-9.827000618E0,-4.393360019E-1
3.937056338E1,-7.451952696E-1,-9.800664902E0,-4.106055796E-1
3.939074661E1,-6.637924314E-1,-9.752780914E0,-5.853823423E-1
3.941093140E1,-6.661866307E-1,-9.724050522E0,-8.248024583E-1
3.943111786E1,-7.140706778E-1,-9.690531731E0,-9.253589511E-1
3.945130609E1,-7.523778677E-1,-9.654618263E0,-8.678981066E-1
3.947149609E1,-8.409633636E-1,-9.666589737E0,-7.864952683E-1
3.949168775E1,-9.606734514E-1,-9.649829865E0,-7.074866295E-1
3.951188088E1,-1.142632723E0,-9.613917351E0,-6.524199843E-1
3.953207525E1,-1.365293503E0,-9.585186958E0,-5.949591398E-1
3.955227067E1,-1.513733983E0,-9.544485092E0,-5.901707411E-1
3.957246692E1,-1.556829691E0,-9.568427086E0,-6.093243361E-1
3.959266369E1,-1.429937005E0,-9.649829865E0,-5.781996846E-1
3.961286067E1,-1.250371814E0,-9.704896927E0,-5.135562420E-1
3.963305650E1,-1.111508131E0,-9.757569313E0,-3.722983599E-1
3.965324629E1,-1.089960337E0,-9.759963036E0,-3.124433160E-1
3.967343598E1,-1.152209520E0,-9.747992516E0,-4.465186298E-1
3.969362025E1,-1.231218219E0,-9.628282547E0,-6.500257850E-1
3.971380494E1,-1.262342811E0,-9.546878815E0,-8.248024583E-1
3.973399025E1,-1.259948611E0,-9.623494148E0,-7.960720658E-1
3.975417629E1,-1.276708007E0,-9.700108528E0,-5.470750928E-1
3.977436317E1,-1.408389091E0,-9.692925453E0,-3.339911401E-1
3.979455098E1,-1.602319479E0,-9.609128952E0,-3.244143426E-1
3.981473973E1,-1.635838270E0,-9.549273491E0,-4.872200489E-1
3.983492942E1,-1.441908002E0,-9.625887871E0,-5.710170865E-1
3.985512004E1,-1.204882026E0,-9.719262123E0,-5.374982953E-1
3.987531150E1,-1.058835745E0,-9.733627319E0,-5.494692922E-1
3.989550369E1,-1.013345838E0,-9.738415718E0,-5.542576909E-1
3.991569650E1,-1.015740037E0,-9.752780914E0,-5.159504414E-1
3.993588984E1,-1.063624144E0,-9.716867447E0,-5.662286878E-1
3.995608348E1,-1.161786318E0,-9.676166534E0,-6.596025825E-1
3.997627723E1,-1.128267527E0,-9.673771858E0,-7.314286232E-1
3.999648182E1,-9.726444483E-1,-9.704896927E0,-7.338228226E-1
4.001666150E1,-8.888474107E-1,-9.714473724E0,-7.050924301E-1
4.003684150E1,-8.744821548E-1,-9.738415718E0,-6.835445762E-1
4.005702223E1,-8.696937561E-1,-9.700108528E0,-7.697358727E-1
4.007720400E1,-9.463081956E-1,-9.661801338E0,-8.367735147E-1
4.009738713E1,-1.066018343E0,-9.649829865E0,-7.817068696E-1
4.011757182E1,-1.161786318E0,-9.661801338E0,-6.979097724E-1
4.013775817E1,-1.257554412E0,-9.661801338E0,-6.859387755E-1
4.015794629E1,-1.288679123E0,-9.647436142E0,-7.050924301E-1
4.017813619E1,-1.269525409E0,-9.625887871E0,-7.146692276E-1
4.019832775E1,-1.274313807E0,-9.623494148E0,-7.745242715E-1
4.021852088E1,-1.334168911E0,-9.642647743E0,-7.793126702E-1
4.023871536E1,-1.362899303E0,-9.637859344E0,-7.433996201E-1
4.025891088E1,-1.288679123E0,-9.647436142E0,-7.793126702E-1
4.027910723E1,-1.200093627E0,-9.678560257E0,-7.912836671E-1
4.029930411E1,-1.197699428E0,-9.695320129E0,-7.457938194E-1
4.031950119E1,-1.257554412E0,-9.666589737E0,-7.577648163E-1
4.033969723E1,-1.317409515E0,-9.642647743E0,-8.607155085E-1
4.035988692E1,-1.403600693E0,-9.621099472E0,-8.750807047E-1
4.038007119E1,-1.506551385E0,-9.587580681E0,-8.511387110E-1
4.040025588E1,-1.573589087E0,-9.549273491E0,-8.750807047E-1
4.042044109E1,-1.611896276E0,-9.534908295E0,-8.846575022E-1
4.044062702E1,-1.611896276E0,-9.556455612E0,-9.062053561E-1
4.046081379E1,-1.575983286E0,-9.604340553E0,-9.445125461E-1
4.048100150E1,-1.532887697E0,-9.606734276E0,-9.756371975E-1
4.050119015E1,-1.566406488E0,-9.585186958E0,-9.588778019E-1
4.052137973E1,-1.602319479E0,-9.566033363E0,-8.798691034E-1
4.054157025E1,-1.566406488E0,-9.592369080E0,-9.133879542E-1
