"Time (s)","Acceleration x (m/s^2)","Acceleration y (m/s^2)","Acceleration z (m/s^2)"
3.949793200E-2,-3.571726322E0,4.251982689E0,8.082933426E0
5.954678600E-2,-3.358673573E0,4.073993206E0,8.263914108E0
7.963168200E-2,-3.124416351E0,3.896327257E0,8.439612389E0
9.975543200E-2,-2.918868542E0,3.745359182E0,8.580377579E0
1.199191820E-1,-2.801571369E0,3.605445385E0,8.678845406E0
1.401224110E-1,-2.776431084E0,3.442363262E0,8.752825737E0
1.603630360E-1,-2.712294102E0,3.288855553E0,8.831605911E0
1.806376190E-1,-2.454872847E0,3.199808121E0,8.938971519E0
2.009413690E-1,-2.132283211E0,3.136362314E0,9.043615341E0
2.212686610E-1,-1.837348223E0,3.053298473E0,9.136296272E0
2.416130360E-1,-1.658574700E0,2.930176973E0,9.210515022E0
2.619677230E-1,-1.601188660E0,2.743362427E0,9.277959824E0
2.823257440E-1,-1.525399327E0,2.455698490E0,9.370863914E0
3.025975150E-1,-1.409301281E0,2.118681431E0,9.470768929E0
3.227882440E-1,-1.385675907E0,1.849119663E0,9.530532837E0
3.429735570E-1,-1.503023386E0,1.689608574E0,9.542354584E0
3.631592860E-1,-1.784012198E0,1.625977516E0,9.504940033E0
3.833456400E-1,-2.195920467E0,1.603890538E0,9.422093391E0
4.035327230E-1,-2.626573086E0,1.533295751E0,9.323116302E0
4.237206400E-1,-2.888768196E0,1.428942204E0,9.261939049E0
4.439094940E-1,-3.151699543E0,1.215517402E0,9.206501961E0
4.640992860E-1,-3.326070309E0,8.850475550E-1,9.182827950E0
4.842900150E-1,-3.379951239E0,5.507544279E-1,9.189286232E0
5.044816820E-1,-3.468235254E0,2.770891786E-1,9.168694496E0
5.246741820E-1,-3.647459745E0,5.910990387E-2,9.102908134E0
5.448674110E-1,-3.839506626E0,-1.755329818E-1,9.022071838E0
5.650612650E-1,-4.021077156E0,-4.950477183E-1,8.930635452E0
5.852556400E-1,-4.162834644E0,-9.361467957E-1,8.829770088E0
6.054503270E-1,-4.223396301E0,-1.428571939E0,8.734557152E0
6.256452230E-1,-4.182293892E0,-1.906550884E0,8.662786484E0
6.458509520E-1,-4.099316120E0,-2.394236565E0,8.581004143E0
6.660323070E-1,-3.994014263E0,-2.904059649E0,8.472583771E0
6.862139730E-1,-3.940195322E0,-3.429761410E0,8.299516678E0
7.063963690E-1,-3.978279591E0,-4.010992527E0,8.015959740E0
7.265798070E-1,-4.031901836E0,-4.651823044E0,7.633787155E0
7.467644940E-1,-4.012407780E0,-5.269852638E0,7.231847286E0
7.669506400E-1,-3.995104790E0,-5.738548279E0,6.875943184E0
7.871383480E-1,-4.044304848E0,-6.062671661E0,6.561859608E0
8.073277230E-1,-4.143243790E0,-6.331870556E0,6.237895012E0
8.275187650E-1,-4.289105415E0,-6.596280098E0,5.853464603E0
8.477113690E-1,-4.469328880E0,-6.859895229E0,5.397900581E0
8.679054320E-1,-4.667006493E0,-7.079430580E0,4.926572323E0
8.881007440E-1,-4.870822906E0,-7.205086231E0,4.531246185E0
9.082970980E-1,-5.080504417E0,-7.230231285E0,4.252365589E0
9.284941820E-1,-5.313626289E0,-7.195941925E0,4.019227505E0
9.486916820E-1,-5.537527084E0,-7.157532215E0,3.778349876E0
9.688893900E-1,-5.767020702E0,-7.092629910E0,3.550558090E0
9.890855360E-1,-6.016832352E0,-6.980376244E0,3.352977514E0
1.009276369E0,-6.282242775E0,-6.811092377E0,3.211360931E0
1.029461786E0,-6.557818413E0,-6.598040104E0,3.103429079E0
1.049647619E0,-6.819141388E0,-6.376425743E0,3.001815557E0
1.069833973E0,-7.064803600E0,-6.190798759E0,2.816546679E0
1.090021057E0,-7.345285416E0,-5.979020119E0,2.543320417E0
1.110208973E0,-7.693153381E0,-5.602085590E0,2.366944313E0
1.130397827E0,-7.991865635E0,-5.150004864E0,2.403732300E0
1.150587619E0,-8.220234871E0,-4.749275684E0,2.458152771E0
1.170778348E0,-8.389919281E0,-4.460162640E0,2.426230192E0
1.190970015E0,-8.513664246E0,-4.261578083E0,2.350925446E0
1.211162515E0,-8.598184586E0,-4.132786274E0,2.271936178E0
1.231355744E0,-8.692747116E0,-3.993591547E0,2.158185244E0
1.251549598E0,-8.792796135E0,-3.831987858E0,2.042787790E0
1.271743973E0,-8.891833305E0,-3.646171808E0,1.952205420E0
1.291938661E0,-8.981892586E0,-3.434792042E0,1.923071980E0
1.312133557E0,-9.045783997E0,-3.224203587E0,1.987133980E0
1.332339286E0,-9.092362404E0,-3.020307064E0,2.092149734E0
1.352520536E0,-9.127610207E0,-2.862352848E0,2.159642696E0
1.372702098E0,-9.157786369E0,-2.757701635E0,2.168044329E0
1.392884390E0,-9.187560081E0,-2.676850557E0,2.143269300E0
1.413067723E0,-9.211570740E0,-2.677150249E0,2.037208319E0
1.433252307E0,-9.209639549E0,-2.860017538E0,1.781352639E0
1.453438348E0,-9.136700630E0,-3.253973722E0,1.450084925E0
1.473625952E0,-8.967905045E0,-3.784174204E0,1.194607377E0
1.493815223E0,-8.739876747E0,-4.326140404E0,1.034146070E0
1.514006161E0,-8.455045700E0,-4.870984554E0,9.778100252E-1
1.534198661E0,-8.072528839E0,-5.473773479E0,1.021015525E0
1.554392619E0,-7.563519001E0,-6.141057968E0,1.118472934E0
1.574587827E0,-7.009286404E0,-6.764572620E0,1.131744981E0
1.594784077E0,-6.581036568E0,-7.162872791E0,1.246427655E0
1.614981161E0,-6.343355656E0,-7.357167244E0,1.343248725E0
1.635178765E0,-6.236497879E0,-7.447970390E0,1.343209863E0
1.655376577E0,-6.187382698E0,-7.502401352E0,1.265176177E0
1.675573869E0,-6.191703320E0,-7.521810532E0,1.120515704E0
1.695764702E0,-6.191516399E0,-7.531251907E0,1.056294441E0
1.715950119E0,-6.088929176E0,-7.607720375E0,1.103586555E0
1.736135952E0,-5.940949917E0,-7.708647728E0,1.205087066E0
1.756322307E0,-5.671093941E0,-7.895308018E0,1.293519855E0
1.776509390E0,-5.289061069E0,-8.169638634E0,1.205498934E0
1.796697307E0,-4.950096130E0,-8.398486137E0,1.064124346E0
1.816886161E0,-4.707150459E0,-8.553838730E0,9.192174673E-1
1.837075952E0,-4.585495949E0,-8.628351212E0,8.337675929E-1
1.857266682E0,-4.598608494E0,-8.625309944E0,7.919726968E-1
1.877458348E0,-4.648340702E0,-8.595208168E0,8.280721307E-1
1.897650848E0,-4.604982376E0,-8.611224174E0,9.007545710E-1
1.917844077E0,-4.518800259E0,-8.659560204E0,8.734060526E-1
1.938037932E0,-4.410434246E0,-8.726861954E0,7.485538721E-1
1.958232307E0,-4.350494862E0,-8.772919655E0,5.286379457E-1
1.978426994E0,-4.298886299E0,-8.806627274E0,3.650504649E-1
1.998621890E0,-4.123844624E0,-8.890483856E0,3.515616953E-1
2.018827619E0,-3.839361429E0,-9.017244339E0,3.449423611E-1
2.039008765E0,-3.500183105E0,-9.157240868E0,2.530631125E-1
2.059190223E0,-3.204519987E0,-9.267309189E0,1.357553303E-1
2.079372411E0,-3.013761520E0,-9.331513405E0,1.024041548E-1
2.099555640E0,-2.897912979E0,-9.367197037E0,1.676077247E-1
2.119740119E0,-2.907423258E0,-9.362380981E0,2.512273788E-1
2.139926057E0,-2.892882347E0,-9.365106583E0,3.104899228E-1
2.160113661E0,-2.765934229E0,-9.401344299E0,3.670350611E-1
2.180302932E0,-2.663037300E0,-9.430259705E0,3.857867420E-1
2.200493869E0,-2.653883934E0,-9.431353569E0,4.205491841E-1
2.220686369E0,-2.685864449E0,-9.422008514E0,4.269197285E-1
2.240880327E0,-2.697654247E0,-9.421145439E0,3.674874902E-1
2.261075536E0,-2.737472773E0,-9.412308693E0,2.916752696E-1
2.281271786E0,-2.865382910E0,-9.375836372E0,2.316832095E-1
2.301468869E0,-3.008833647E0,-9.332432747E0,1.516629755E-1
2.321666473E0,-3.025125980E0,-9.328250885E0,5.228324980E-2
2.341864286E0,-2.953159571E0,-9.350908279E0,-9.877525270E-2
2.362061786E0,-2.813159943E0,-9.391506195E0,-2.369232476E-1
2.382252619E0,-2.596586704E0,-9.453821182E0,-2.310698032E-1
2.402438036E0,-2.323401451E0,-9.526483536E0,-1.352697164E-1
2.422623869E0,-2.101985455E0,-9.577731133E0,-1.382858008E-1
2.442810223E0,-2.051045895E0,-9.587882042E0,-1.900246292E-1
2.462997307E0,-2.106863976E0,-9.573530197E0,-2.811269760E-1
2.483185223E0,-2.140880346E0,-9.562801361E0,-3.739448190E-1
2.503374077E0,-2.075033188E0,-9.575090408E0,-4.269171357E-1
2.523563869E0,-1.895575523E0,-9.612915993E0,-4.111346602E-1
2.543754598E0,-1.652699232E0,-9.660876274E0,-3.262363970E-1
2.563946265E0,-1.432389855E0,-9.698307037E0,-2.479719222E-1
2.584138765E0,-1.297561288E0,-9.717312813E0,-2.460924685E-1
2.604331994E0,-1.270936370E0,-9.719397545E0,-2.973520458E-1
2.624525848E0,-1.285382628E0,-9.715683937E0,-3.516470194E-1
2.644720223E0,-1.268403292E0,-9.715749741E0,-4.071274996E-1
2.664914911E0,-1.187984705E0,-9.725111961E0,-4.257779419E-1
2.685109807E0,-1.062812805E0,-9.740247726E0,-4.103583097E-1
2.705315536E0,-9.128272533E-1,-9.754757881E0,-4.264178872E-1
2.725496473E0,-7.502824664E-1,-9.765747070E0,-4.874727726E-1
2.745677723E0,-6.095232964E-1,-9.772232056E0,-5.498757958E-1
2.765859702E0,-4.684890211E-1,-9.778556824E0,-5.750989318E-1
2.786042723E0,-3.048746586E-1,-9.786335945E0,-5.523121953E-1
2.806227098E0,-1.673495024E-1,-9.790561676E0,-5.359953642E-1
2.826413036E0,-1.074192747E-1,-9.792606354E0,-5.135189891E-1
2.846600640E0,-1.348838061E-1,-9.794373512E0,-4.716171324E-1
2.866789911E0,-2.325562984E-1,-9.794246674E0,-4.347824156E-1
2.886980848E0,-3.867956698E-1,-9.789815903E0,-4.246021211E-1
2.907173452E0,-6.171871424E-1,-9.777554512E0,-4.346346855E-1
2.927367515E0,-9.270226955E-1,-9.751947403E0,-4.588500857E-1
2.947562932E0,-1.265844464E0,-9.712950706E0,-4.760228992E-1
2.967759390E0,-1.621633291E0,-9.659797668E0,-4.785205126E-1
2.987956682E0,-1.971157789E0,-9.595132828E0,-4.672723114E-1
3.008154494E0,-2.239238739E0,-9.537790298E0,-4.321531057E-1
3.028352515E0,-2.345056772E0,-9.514415741E0,-3.833827972E-1
3.048549911E0,-2.316416502E0,-9.521748543E0,-3.753499091E-1
3.068740744E0,-2.279439211E0,-9.528641701E0,-4.237245023E-1
3.088926161E0,-2.314841270E0,-9.517876625E0,-4.710776806E-1
3.109111994E0,-2.359858990E0,-9.507353783E0,-4.600919485E-1
3.129298348E0,-2.386634588E0,-9.502792358E0,-4.138964713E-1
3.149485432E0,-2.419687271E0,-9.495389938E0,-3.912376165E-1
3.169673348E0,-2.443751574E0,-9.489038467E0,-3.957544267E-1
3.189862202E0,-2.448580503E0,-9.487650871E0,-3.991409540E-1
3.210051994E0,-2.449411631E0,-9.487653732E0,-3.939529359E-1
3.230242723E0,-2.450793982E0,-9.487588882E0,-3.868459463E-1
3.250434390E0,-2.435322285E0,-9.491678238E0,-3.842431903E-1
3.270626890E0,-2.388945818E0,-9.503009796E0,-3.951470852E-1
3.290820119E0,-2.346343517E0,-9.511868477E0,-4.352084398E-1
3.311013973E0,-2.294648886E0,-9.519302368E0,-5.365070105E-1
3.331208348E0,-2.158332109E0,-9.538465500E0,-7.277771831E-1
3.351403036E0,-1.856064558E0,-9.590483665E0,-8.648805022E-1
3.371597932E0,-1.451746225E0,-9.660126686E0,-8.629878759E-1
3.391803661E0,-1.088596225E0,-9.708548546E0,-8.540689945E-1
3.411985327E0,-8.676822782E-1,-9.731065750E0,-8.508093953E-1
3.432167307E0,-7.989797592E-1,-9.738715172E0,-8.303313851E-1
3.452349911E0,-7.774152756E-1,-9.740681648E0,-8.277268410E-1
3.472533452E0,-7.084882259E-1,-9.742030144E0,-8.725093603E-1
3.492718244E0,-5.912885070E-1,-9.743954659E0,-9.360133410E-1
3.512904494E0,-5.422258973E-1,-9.738421440E0,-1.019573689E0
3.533092307E0,-6.030822396E-1,-9.720698357E0,-1.146604419E0
3.553281682E0,-7.479212284E-1,-9.694511414E0,-1.275716662E0
3.573472619E0,-9.670095444E-1,-9.671470642E0,-1.303048372E0
3.593665119E0,-1.254312515E0,-9.652069092E0,-1.197767019E0
3.613859077E0,-1.570216775E0,-9.627720833E0,-1.005869865E0
3.634054286E0,-1.797148347E0,-9.608147621E0,-7.900216579E-1
3.654250536E0,-1.785854816E0,-9.622786522E0,-6.189366579E-1
3.674447515E0,-1.616913199E0,-9.652617455E0,-6.188336015E-1
3.694645015E0,-1.487944841E0,-9.655576706E0,-8.521994352E-1
3.714842723E0,-1.459668040E0,-9.650905609E0,-9.485613704E-1
3.735039494E0,-1.438759327E0,-9.664052963E0,-8.405015469E-1
3.755230327E0,-1.384967804E0,-9.674923897E0,-8.050464392E-1
3.775415744E0,-1.343293548E0,-9.672481537E0,-8.994781971E-1
3.795601577E0,-1.368239164E0,-9.657893181E0,-1.011640787E0
3.815788036E0,-1.441187024E0,-9.642691612E0,-1.054448485E0
3.835975223E0,-1.498026848E0,-9.642933846E0,-9.696059823E-1
3.856163244E0,-1.608304381E0,-9.643316269E0,-7.682443261E-1
3.876352202E0,-1.804183841E0,-9.619697571E0,-6.137822866E-1
3.896542098E0,-2.058040857E0,-9.570832253E0,-5.779591799E-1
3.916732932E0,-2.281018257E0,-9.514575005E0,-6.634716988E-1
3.936924702E0,-2.409335852E0,-9.473963737E0,-7.807099819E-1
3.957117307E0,-2.434759140E0,-9.468817711E0,-7.640850544E-1
3.977310640E0,-2.357732534E0,-9.497315407E0,-6.422556639E-1
3.997504598E0,-2.157307386E0,-9.546221733E0,-6.213395000E-1
4.017699077E0,-1.926656246E0,-9.588688850E0,-7.179342508E-1
4.037893869E0,-1.795918107E0,-9.607826233E0,-7.967131138E-1
4.058088765E0,-1.786693692E0,-9.608927727E0,-8.041250110E-1
4.078294494E0,-1.830299616E0,-9.605368614E0,-7.465147972E-1
4.098475432E0,-1.881513000E0,-9.600105286E0,-6.842995286E-1
4.118656682E0,-1.926870823E0,-9.592447281E0,-6.652184725E-1
4.138838661E0,-1.958113790E0,-9.585355759E0,-6.761051416E-1
4.159021682E0,-1.968020916E0,-9.582299232E0,-6.905219555E-1
4.179206057E0,-1.959996462E0,-9.583859444E0,-6.917008758E-1
4.199391994E0,-1.948354125E0,-9.587244987E0,-6.775303483E-1
4.219579598E0,-1.944859385E0,-9.589293480E0,-6.583079696E-1
4.239768973E0,-1.951793313E0,-9.589486122E0,-6.345363259E-1
4.259960015E0,-1.969326019E0,-9.587990761E0,-6.021534801E-1
4.280152723E0,-1.990736723E0,-9.585780144E0,-5.658379197E-1
4.300346890E0,-2.007161856E0,-9.584273338E0,-5.323435664E-1
4.320542411E0,-2.015176058E0,-9.584060669E0,-5.052014589E-1
4.340738973E0,-2.014216185E0,-9.585083961E0,-4.893714190E-1
4.360936369E0,-2.004012346E0,-9.587262154E0,-4.886155725E-1
4.381134286E0,-1.991654992E0,-9.589396477E0,-4.971579015E-1
4.401332411E0,-1.982221007E0,-9.590794563E0,-5.078078508E-1
4.421529702E0,-1.975898266E0,-9.591650963E0,-5.161891580E-1
4.441720640E0,-1.971940041E0,-9.592453957E0,-5.164102912E-1
4.461911473E0,-1.970628262E0,-9.592934608E0,-5.124626160E-1
4.482096890E0,-1.969384313E0,-9.593261719E0,-5.111197829E-1
4.502282723E0,-1.968479991E0,-9.593446732E0,-5.111324787E-1
4.522469182E0,-1.969428658E0,-9.593119621E0,-5.136231780E-1
4.542656369E0,-1.972506166E0,-9.592259407E0,-5.178312063E-1
4.562844390E0,-1.976021528E0,-9.591326714E0,-5.216902494E-1
4.583033348E0,-1.976078153E0,-9.591185570E0,-5.240813494E-1
4.603223244E0,-1.977750063E0,-9.590748787E0,-5.257642865E-1
4.623414077E0,-1.980703473E0,-9.590091705E0,-5.266414285E-1
4.643605848E0,-1.984379411E0,-9.589326859E0,-5.267049670E-1
4.663798452E0,-1.987247348E0,-9.588750839E0,-5.264198780E-1
4.683991786E0,-1.988819838E0,-9.588382721E0,-5.271758437E-1
4.704185744E0,-1.988050580E0,-9.588406563E0,-5.296184421E-1
4.724380223E0,-1.987059474E0,-9.588365555E0,-5.340920687E-1
4.744575015E0,-1.986542583E0,-9.588115692E0,-5.404443741E-1
4.764769911E0,-1.986802101E0,-9.587692261E0,-5.469559431E-1
4.784975640E0,-1.988061070E0,-9.587126732E0,-5.522688031E-1
4.805156682E0,-1.991278529E0,-9.586170197E0,-5.572676659E-1
4.825338036E0,-1.997331619E0,-9.584545135E0,-5.635129809E-1
4.845520119E0,-2.004205227E0,-9.582716942E0,-5.701633692E-1
4.865703244E0,-2.010236502E0,-9.581101418E0,-5.760475993E-1
4.885887723E0,-2.015851259E0,-9.579645157E0,-5.806418657E-1
4.906073661E0,-2.022168398E0,-9.577953339E0,-5.865257382E-1
4.926261265E0,-2.028257847E0,-9.576107979E0,-5.955777168E-1
4.946450536E0,-2.032700300E0,-9.574478149E0,-6.065476537E-1
4.966641473E0,-2.035207987E0,-9.573260307E0,-6.172479987E-1
4.986834077E0,-2.035402298E0,-9.572483063E0,-6.285684705E-1
5.007028140E0,-2.034222603E0,-9.572104454E0,-6.380891204E-1
5.027223557E0,-2.034608603E0,-9.571704865E0,-6.428303123E-1
5.047420015E0,-2.038889647E0,-9.570802689E0,-6.426990628E-1
5.067617307E0,-2.047169685E0,-9.569289207E0,-6.388922930E-1
5.087815119E0,-2.056555510E0,-9.567463875E0,-6.360713840E-1
5.108013140E0,-2.061441422E0,-9.566250801E0,-6.385220289E-1
5.128210952E0,-2.063843966E0,-9.565254211E0,-6.456319094E-1
5.148401890E0,-2.066638708E0,-9.564196587E0,-6.523325443E-1
5.168592723E0,-2.072451353E0,-9.562682152E0,-6.560810804E-1
5.188778140E0,-2.083730221E0,-9.560227394E0,-6.561311483E-1
5.208963973E0,-2.098371983E0,-9.557137489E0,-6.544958353E-1
5.229150432E0,-2.110193253E0,-9.554591179E0,-6.536507010E-1
5.249337619E0,-2.119496107E0,-9.552485466E0,-6.543339491E-1
5.269525640E0,-2.129461765E0,-9.550332069E0,-6.533931494E-1
5.289714598E0,-2.141496181E0,-9.547883987E0,-6.498483419E-1
5.309904494E0,-2.154233694E0,-9.545305252E0,-6.456165910E-1
5.330095327E0,-2.162531137E0,-9.543683052E0,-6.418415308E-1
5.350287098E0,-2.163697243E0,-9.543470383E0,-6.410754919E-1
5.370479702E0,-2.158793688E0,-9.544339180E0,-6.446605921E-1
5.390673036E0,-2.146777630E0,-9.546406746E0,-6.540983915E-1
5.410866994E0,-2.130556583E0,-9.549227715E0,-6.658436060E-1
5.431061473E0,-2.112661839E0,-9.552441597E0,-6.766854525E-1
5.451256265E0,-2.095751286E0,-9.555191040E0,-6.903226376E-1
5.471451161E0,-2.085789204E0,-9.556238174E0,-7.058235407E-1
5.491656890E0,-2.084371805E0,-9.555626869E0,-7.181712985E-1
5.511837827E0,-2.089596033E0,-9.554020882E0,-7.243410349E-1
5.532019077E0,-2.096401691E0,-9.552446365E0,-7.254411578E-1
5.552201057E0,-2.097790718E0,-9.552334785E0,-7.228758931E-1
5.572384077E0,-2.094187260E0,-9.553387642E0,-7.194043398E-1
5.592568452E0,-2.089247704E0,-9.554653168E0,-7.169633508E-1
5.612754390E0,-2.087871552E0,-9.555136681E0,-7.145187259E-1
5.632941994E0,-2.092740297E0,-9.554296494E0,-7.115114927E-1
5.653131369E0,-2.100511312E0,-9.552690506E0,-7.101774216E-1
5.673322411E0,-2.105507135E0,-9.551249504E0,-7.147598267E-1
5.693515119E0,-2.103314161E0,-9.550920486E0,-7.255272269E-1
5.713709286E0,-2.094672918E0,-9.551789284E0,-7.389724851E-1
5.733904807E0,-2.079860449E0,-9.554196358E0,-7.495908737E-1
5.754101369E0,-2.056612968E0,-9.558904648E0,-7.537036538E-1
5.774298765E0,-2.061501265E0,-9.556805611E0,-7.668623924E-1
5.794496682E0,-2.082328796E0,-9.550232887E0,-7.920475602E-1
5.814694807E0,-2.095147133E0,-9.546418190E0,-8.041504025E-1
5.834891786E0,-2.108742952E0,-9.544300079E0,-7.936758399E-1
5.855082619E0,-2.113360405E0,-9.544548035E0,-7.782638669E-1
5.875268036E0,-2.111624241E0,-9.544740677E0,-7.806182504E-1
5.895453869E0,-2.110375404E0,-9.543815613E0,-7.951692939E-1
5.915640223E0,-2.115707636E0,-9.541752815E0,-8.056770563E-1
5.935827307E0,-2.128053665E0,-9.538693428E0,-8.093723655E-1
5.956015223E0,-2.136739254E0,-9.536319733E0,-8.144598603E-1
5.976204077E0,-2.135627508E0,-9.535981178E0,-8.213069439E-1
5.996393869E0,-2.134098530E0,-9.536107063E0,-8.238059282E-1
6.016584598E0,-2.141764402E0,-9.534228325E0,-8.256692886E-1
6.036776265E0,-2.157769442E0,-9.530288696E0,-8.294650316E-1
6.056968765E0,-2.178632021E0,-9.525781631E0,-8.267084956E-1
6.077162098E0,-2.192641735E0,-9.523767471E0,-8.127542734E-1
6.097356057E0,-2.194215536E0,-9.525061607E0,-7.930944562E-1
6.117550536E0,-2.183167934E0,-9.529323578E0,-7.721109390E-1
6.137745327E0,-2.158443451E0,-9.536561966E0,-7.519997954E-1
6.157940327E0,-2.123236895E0,-9.545138359E0,-7.433658838E-1
6.178146161E0,-2.085931778E0,-9.552808762E0,-7.504112720E-1
6.198327202E0,-2.051731110E0,-9.558494568E0,-7.719892263E-1
6.218508557E0,-2.026623964E0,-9.561332703E0,-8.025534749E-1
6.238690640E0,-2.016098738E0,-9.561541557E0,-8.262218237E-1
6.258873765E0,-2.018478870E0,-9.560273170E0,-8.350501060E-1
6.279058140E0,-2.036988258E0,-9.556972504E0,-8.278527260E-1
6.299243973E0,-2.066524744E0,-9.551606178E0,-8.165045977E-1
6.319431473E0,-2.090426207E0,-9.546430588E0,-8.161967993E-1
6.339620640E0,-2.092889547E0,-9.543684959E0,-8.415975571E-1
6.359811473E0,-2.116597176E0,-9.535928726E0,-8.697577715E-1
6.380003973E0,-2.119884968E0,-9.530478477E0,-9.200288653E-1
6.400198036E0,-2.079373598E0,-9.538294792E0,-9.314142466E-1
6.420393452E0,-2.017775059E0,-9.555597305E0,-8.885550499E-1
6.440589911E0,-1.941154480E0,-9.572737694E0,-8.746472001E-1
6.460787202E0,-1.868813157E0,-9.584386826E0,-9.041249752E-1
6.480985015E0,-1.862737298E0,-9.584614754E0,-9.141952991E-1
6.501183036E0,-1.924714565E0,-9.575704575E0,-8.784948587E-1
6.521380640E0,-2.012161732E0,-9.562089920E0,-8.294700384E-1
6.541571473E0,-2.100931168E0,-9.544538498E0,-8.113310933E-1
6.561756890E0,-2.169353962E0,-9.528336525E0,-8.216460347E-1
6.581942723E0,-2.196124792E0,-9.521136284E0,-8.338973522E-1
6.602129077E0,-2.177528381E0,-9.525076866E0,-8.376531601E-1
6.622316161E0,-2.149457216E0,-9.531105042E0,-8.415811062E-1
6.642504077E0,-2.131712437E0,-9.534202576E0,-8.515766263E-1
6.662692932E0,-2.121199846E0,-9.536235809E0,-8.550499082E-1
6.682882723E0,-2.114083767E0,-9.538103104E0,-8.518396020E-1
6.703073452E0,-2.105268955E0,-9.539317131E0,-8.600415587E-1
6.723265119E0,-2.093376160E0,-9.540146828E0,-8.796326518E-1
6.743457619E0,-2.082203865E0,-9.541146278E0,-8.951704502E-1
6.763650848E0,-2.078438282E0,-9.541959763E0,-8.952438235E-1
6.783844702E0,-2.084435940E0,-9.541386604E0,-8.873872161E-1
6.804039077E0,-2.098140717E0,-9.538679123E0,-8.841814399E-1
6.824233765E0,-2.115839005E0,-9.534701347E0,-8.849100471E-1
6.844428661E0,-2.134444714E0,-9.530518532E0,-8.852950931E-1
6.864634390E0,-2.147987127E0,-9.527179718E0,-8.884717226E-1
6.884815432E0,-2.153480291E0,-9.525135994E0,-8.970500827E-1
6.904996786E0,-2.152757645E0,-9.524337769E0,-9.072026610E-1
6.925178869E0,-2.150509834E0,-9.524538994E0,-9.104257226E-1
6.945361994E0,-2.151396275E0,-9.524935722E0,-9.041482210E-1
6.965546369E0,-2.159175873E0,-9.524036407E0,-8.950313330E-1
6.985732202E0,-2.169403791E0,-9.522422791E0,-8.874406815E-1
7.005919702E0,-2.176600218E0,-9.521370888E0,-8.810793161E-1
7.026108869E0,-2.182176352E0,-9.520681381E0,-8.747209311E-1
7.046299702E0,-2.187050104E0,-9.520223618E0,-8.674938083E-1
7.066492202E0,-2.183969736E0,-9.521874428E0,-8.570628762E-1
7.086686161E0,-2.154782772E0,-9.529174805E0,-8.497835994E-1
7.106881473E0,-2.119873524E0,-9.536439896E0,-8.560560346E-1
7.127077827E0,-2.086681366E0,-9.542171478E0,-8.735625148E-1
7.147275015E0,-2.064864635E0,-9.546232224E0,-8.810014725E-1
7.167472723E0,-2.053289175E0,-9.549594879E0,-8.715535402E-1
7.187670640E0,-2.046363115E0,-9.551358223E0,-8.685199618E-1
7.207868244E0,-2.045077801E0,-9.550385475E0,-8.821415305E-1
7.228058973E0,-2.053708792E0,-9.547608376E0,-8.920959830E-1
7.248244286E0,-2.070544720E0,-9.544777870E0,-8.834311366E-1
7.268430015E0,-2.090243101E0,-9.542217255E0,-8.645058870E-1
7.288616369E0,-2.111871958E0,-9.539307594E0,-8.437964320E-1
7.308803452E0,-2.138311863E0,-9.535287857E0,-8.223792315E-1
7.328991369E0,-2.170459747E0,-9.529880524E0,-8.005501032E-1
7.349180223E0,-2.201768875E0,-9.524390221E0,-7.801089883E-1
7.369370015E0,-2.224621058E0,-9.520526886E0,-7.622407079E-1
7.389560744E0,-2.238798618E0,-9.518309593E0,-7.482863665E-1
7.409752411E0,-2.246434212E0,-9.517389297E0,-7.370364070E-1
7.429944911E0,-2.250921726E0,-9.517171860E0,-7.260683775E-1
7.450138140E0,-2.255358458E0,-9.517086029E0,-7.133083344E-1
7.470331994E0,-2.261757851E0,-9.516595840E0,-6.994583011E-1
7.490526369E0,-2.271317720E0,-9.515266418E0,-6.864537001E-1
7.510721057E0,-2.283597469E0,-9.513130188E0,-6.752189398E-1
7.530915848E0,-2.297698259E0,-9.510420799E0,-6.654777527E-1
7.551121473E0,-2.313167095E0,-9.507314682E0,-6.562108994E-1
7.571302202E0,-2.326338768E0,-9.504644394E0,-6.482803822E-1
7.591483244E0,-2.331925392E0,-9.503525734E0,-6.445997953E-1
7.611665015E0,-2.328541279E0,-9.504296303E0,-6.454684138E-1
7.631847827E0,-2.321384668E0,-9.505832672E0,-6.486283541E-1
7.652031994E0,-2.315238476E0,-9.507237434E0,-6.499947309E-1
7.672217723E0,-2.310540915E0,-9.508358002E0,-6.503241062E-1
7.692405119E0,-2.307803869E0,-9.508993149E0,-6.507483125E-1
7.712594286E0,-2.305681467E0,-9.509454727E0,-6.515339017E-1
7.732785223E0,-2.303106546E0,-9.509986877E0,-6.528571248E-1
7.752977827E0,-2.299818277E0,-9.510692596E0,-6.541630626E-1
7.773171994E0,-2.297483206E0,-9.511263847E0,-6.540720463E-1
7.793367515E0,-2.297760725E0,-9.511416435E0,-6.508666873E-1
7.813564077E0,-2.301033497E0,-9.510901451E0,-6.468411088E-1
7.833761473E0,-2.307446480E0,-9.509363174E0,-6.465988159E-1
7.853959390E0,-2.313753366E0,-9.507666588E0,-6.490131617E-1
7.874157515E0,-2.317116261E0,-9.506682396E0,-6.514286995E-1
7.894354286E0,-2.317188501E0,-9.506629944E0,-6.519277096E-1
7.914545015E0,-2.314491034E0,-9.507299423E0,-6.517505646E-1
7.934730327E0,-2.312223911E0,-9.507730484E0,-6.535040736E-1
7.954916057E0,-2.313333035E0,-9.507216454E0,-6.570566297E-1
7.975102307E0,-2.316574574E0,-9.506172180E0,-6.607437134E-1
7.995289286E0,-2.319630384E0,-9.505267143E0,-6.630151272E-1
8.015477098E0,-2.321739197E0,-9.504777908E0,-6.626535654E-1
8.035665848E0,-2.321847200E0,-9.505041122E0,-6.585012078E-1
8.055855536E0,-2.319990635E0,-9.505807877E0,-6.539391279E-1
8.076046161E0,-2.314642668E0,-9.507148743E0,-6.534054279E-1
8.096237723E0,-2.306840897E0,-9.508919716E0,-6.552141905E-1
8.116430119E0,-2.300646305E0,-9.510358810E0,-6.561254859E-1
8.136623244E0,-2.297309637E0,-9.511226654E0,-6.552305222E-1
8.156816994E0,-2.297082663E0,-9.511351585E0,-6.542094946E-1
8.177011265E0,-2.298532724E0,-9.510984421E0,-6.544651985E-1
8.197205848E0,-2.299217463E0,-9.510684013E0,-6.564289331E-1
8.217400640E0,-2.299513340E0,-9.510340691E0,-6.603370309E-1
8.237606265E0,-2.300330639E0,-9.509891510E0,-6.639613509E-1
8.257787307E0,-2.302139521E0,-9.509400368E0,-6.647132039E-1
8.277968661E0,-2.305019379E0,-9.508706093E0,-6.646639109E-1
8.298150744E0,-2.308058023E0,-9.507864952E0,-6.661558151E-1
8.318333869E0,-2.312155724E0,-9.506684303E0,-6.688053608E-1
8.338518244E0,-2.318701267E0,-9.504953384E0,-6.707191467E-1
8.358704077E0,-2.326923847E0,-9.503015518E0,-6.696971059E-1
8.378891577E0,-2.334607840E0,-9.501469612E0,-6.648874283E-1
8.399080744E0,-2.340352774E0,-9.500272751E0,-6.617794037E-1
8.419271577E0,-2.348463058E0,-9.498057365E0,-6.648444533E-1
8.439463973E0,-2.364490509E0,-9.493974686E0,-6.663590670E-1
8.459657827E0,-2.381641388E0,-9.490407944E0,-6.559844017E-1
8.479852932E0,-2.394422293E0,-9.488276482E0,-6.401155591E-1
8.500049077E0,-2.404482126E0,-9.486108780E0,-6.345036030E-1
8.520246057E0,-2.411079168E0,-9.484405518E0,-6.349257231E-1
8.540443557E0,-2.420945406E0,-9.482135773E0,-6.312728524E-1
8.560641265E0,-2.440527916E0,-9.477738380E0,-6.218441725E-1
8.580838765E0,-2.465312481E0,-9.472228050E0,-6.078781486E-1
8.601029182E0,-2.483094692E0,-9.468900681E0,-5.869923830E-1
8.621214182E0,-2.486319780E0,-9.469358444E0,-5.655441284E-1
8.641399598E0,-2.486040354E0,-9.469791412E0,-5.594990253E-1
8.661585640E0,-2.485204935E0,-9.468746185E0,-5.805054307E-1
8.681772411E0,-2.486837387E0,-9.466502190E0,-6.093987226E-1
8.701960015E0,-2.486811399E0,-9.465287209E0,-6.280888915E-1
8.722148557E0,-2.479939938E0,-9.465748787E0,-6.479843259E-1
8.742338140E0,-2.465484619E0,-9.467240334E0,-6.805445552E-1
8.762528765E0,-2.442317247E0,-9.470260620E0,-7.208601832E-1
8.782720327E0,-2.441625834E0,-9.469470024E0,-7.334854603E-1
8.802912827E0,-2.439639568E0,-9.469616890E0,-7.381790280E-1
8.823106161E0,-2.442812681E0,-9.469120026E0,-7.340461612E-1
8.843300119E0,-2.453042746E0,-9.467081070E0,-7.261815071E-1
8.863494598E0,-2.470465422E0,-9.463354111E0,-7.156292796E-1
8.883689390E0,-2.489948988E0,-9.458791733E0,-7.083757520E-1
8.903884286E0,-2.506564617E0,-9.454557419E0,-7.062900662E-1
8.924090015E0,-2.517804384E0,-9.451852798E0,-7.025260925E-1
8.944270432E0,-2.522853136E0,-9.450499535E0,-7.026106715E-1
8.964451161E0,-2.514064550E0,-9.451536179E0,-7.199466825E-1
8.984632619E0,-2.480093956E0,-9.457101822E0,-7.633825541E-1
9.004815119E0,-2.417542934E0,-9.468720436E0,-8.180512190E-1
9.024998973E0,-2.333598375E0,-9.485416412E0,-8.669313788E-1
9.045184390E0,-2.269913197E0,-9.496369362E0,-9.147923589E-1
9.065371577E0,-2.263280869E0,-9.494832993E0,-9.466252327E-1
9.085560536E0,-2.300962925E0,-9.488120079E0,-9.227894545E-1
9.105751265E0,-2.347192287E0,-9.482618332E0,-8.608264923E-1
9.125943765E0,-2.374733210E0,-9.478981018E0,-8.245931864E-1
9.146137827E0,-2.378530502E0,-9.477402687E0,-8.317500353E-1
9.166333244E0,-2.370781422E0,-9.476996422E0,-8.580930233E-1
9.186529807E0,-2.364174366E0,-9.477299690E0,-8.728491068E-1
9.206727202E0,-2.366287231E0,-9.477351189E0,-8.665276766E-1
9.226925119E0,-2.377647877E0,-9.474949837E0,-8.616864681E-1
9.247123244E0,-2.392070055E0,-9.470662117E0,-8.688877225E-1
9.267320640E0,-2.400913715E0,-9.467403412E0,-8.799231052E-1
9.287511265E0,-2.397242308E0,-9.467217445E0,-8.918535709E-1
9.307696473E0,-2.382480145E0,-9.469778061E0,-9.041442871E-1
9.327882098E0,-2.364122629E0,-9.473538399E0,-9.129064679E-1
9.348068244E0,-2.351336956E0,-9.476856232E0,-9.114788175E-1
9.368255119E0,-2.351535559E0,-9.477787971E0,-9.012101293E-1
9.388442827E0,-2.364887953E0,-9.475363731E0,-8.917286992E-1
9.408631473E0,-2.385893345E0,-9.470967293E0,-8.824303746E-1
9.428821057E0,-2.403666973E0,-9.467206001E0,-8.745100498E-1
9.449011577E0,-2.409839630E0,-9.465632439E0,-8.745511174E-1
9.469203036E0,-2.405671835E0,-9.466254234E0,-8.793002963E-1
9.489395327E0,-2.400500059E0,-9.467188835E0,-8.833656311E-1
9.509588348E0,-2.403282881E0,-9.466636658E0,-8.817058802E-1
9.529781994E0,-2.416626215E0,-9.463920593E0,-8.743584752E-1
9.549976161E0,-2.434946775E0,-9.459989548E0,-8.660365343E-1
9.570170640E0,-2.450340033E0,-9.456502914E0,-8.606839180E-1
9.590365327E0,-2.457256079E0,-9.454755783E0,-8.601610065E-1
9.610570848E0,-2.453469038E0,-9.455543518E0,-8.623033762E-1
9.630751473E0,-2.445565701E0,-9.456411362E0,-8.751456738E-1
9.650932411E0,-2.446523905E0,-9.455323219E0,-8.841867447E-1
9.671114077E0,-2.451770782E0,-9.453572273E0,-8.883550763E-1
9.691296786E0,-2.456956863E0,-9.451704025E0,-8.938927650E-1
9.711480848E0,-2.454691648E0,-9.451413155E0,-9.031388760E-1
9.731666473E0,-2.444320679E0,-9.452929497E0,-9.153119326E-1
9.751853765E0,-2.429445744E0,-9.455733299E0,-9.258890748E-1
9.772042827E0,-2.415393114E0,-9.459046364E0,-9.288225770E-1
9.792233557E0,-2.405281544E0,-9.461709976E0,-9.279297590E-1
9.812425952E0,-2.398950338E0,-9.463274956E0,-9.283537269E-1
9.832619807E0,-2.392002583E0,-9.465074539E0,-9.279421568E-1
9.852815015E0,-2.382670164E0,-9.468058586E0,-9.214897156E-1
9.873011265E0,-2.374123573E0,-9.471219063E0,-9.110173583E-1
9.893208348E0,-2.367307186E0,-9.473407745E0,-9.059674740E-1
9.913405952E0,-2.357350588E0,-9.476058960E0,-9.042113423E-1
9.933603765E0,-2.339829922E0,-9.481277466E0,-8.949615955E-1
9.953800640E0,-2.317446470E0,-9.487814903E0,-8.838587999E-1
9.973991161E0,-2.298352003E0,-9.492378235E0,-8.847125769E-1
9.994176265E0,-2.287708521E0,-9.494149208E0,-8.932512403E-1
1.001436179E1,-2.285107136E0,-9.494294167E0,-8.983584046E-1
1.003454783E1,-2.287849903E0,-9.493526459E0,-8.994930387E-1
1.005473460E1,-2.288750172E0,-9.493102074E0,-9.016805291E-1
1.007492220E1,-2.282582045E0,-9.494068146E0,-9.071289301E-1
1.009511074E1,-2.270839214E0,-9.496116638E0,-9.151151776E-1
1.011530022E1,-2.256212950E0,-9.498867989E0,-9.227061272E-1
1.013549064E1,-2.240358591E0,-9.502122879E0,-9.278068542E-1
1.015568199E1,-2.225357771E0,-9.505568504E0,-9.286266565E-1
1.017587418E1,-2.213453770E0,-9.508779526E0,-9.241925478E-1
1.019606710E1,-2.206212997E0,-9.511259079E0,-9.159482718E-1
1.021626064E1,-2.203386068E0,-9.512827873E0,-9.064161181E-1
1.023645470E1,-2.201748371E0,-9.513905525E0,-8.990488052E-1
1.025664908E1,-2.199541330E0,-9.515158653E0,-8.911609054E-1
1.027684366E1,-2.197064638E0,-9.516489029E0,-8.830272555E-1
1.029704908E1,-2.195827007E0,-9.517189980E0,-8.785429001E-1
1.031723033E1,-2.196373701E0,-9.517499924E0,-8.737900853E-1
1.033741189E1,-2.196944237E0,-9.518026352E0,-8.665997982E-1
1.035759408E1,-2.197572708E0,-9.518302917E0,-8.619524240E-1
1.037777720E1,-2.199764490E0,-9.517493248E0,-8.652858138E-1
1.039796158E1,-2.202541113E0,-9.516013145E0,-8.744667172E-1
1.041814741E1,-2.203523874E0,-9.514925003E0,-8.837804198E-1
1.043833481E1,-2.204932451E0,-9.513998985E0,-8.902160525E-1
1.045852387E1,-2.207330465E0,-9.513088226E0,-8.939948082E-1
1.047871449E1,-2.207577229E0,-9.512773514E0,-8.967278600E-1
1.049890668E1,-2.203524351E0,-9.513464928E0,-8.993670344E-1
1.051910033E1,-2.196724176E0,-9.514476776E0,-9.052750468E-1
1.053929522E1,-2.191137552E0,-9.514816284E0,-9.151947498E-1
1.055949116E1,-2.189566374E0,-9.514551163E0,-9.216909409E-1
1.057968783E1,-2.192559481E0,-9.513950348E0,-9.207704067E-1
1.059988491E1,-2.197927475E0,-9.513239861E0,-9.153023362E-1
1.062008220E1,-2.204027414E0,-9.512422562E0,-9.090943933E-1
1.064027845E1,-2.210725069E0,-9.511073112E0,-9.069608450E-1
1.066046897E1,-2.217496157E0,-9.509225845E0,-9.097926617E-1
1.068065939E1,-2.223370552E0,-9.507308006E0,-9.154830575E-1
1.070084439E1,-2.227821827E0,-9.505556107E0,-9.228197932E-1
1.072102981E1,-2.229455709E0,-9.504450798E0,-9.302218556E-1
1.074121585E1,-2.228854895E0,-9.503898621E0,-9.372884631E-1
1.076140262E1,-2.226823568E0,-9.503706932E0,-9.440345168E-1
1.078159022E1,-2.224474192E0,-9.503572464E0,-9.509079456E-1
1.080177876E1,-2.222928286E0,-9.503153801E0,-9.586679339E-1
1.082196824E1,-2.221482038E0,-9.502528191E0,-9.681805968E-1
1.084215866E1,-2.220226049E0,-9.501777649E0,-9.783735871E-1
1.086235002E1,-2.221170187E0,-9.500645638E0,-9.871685505E-1
1.088254220E1,-2.225008011E0,-9.499157906E0,-9.928378463E-1
1.090273512E1,-2.228485107E0,-9.498257637E0,-9.936544299E-1
1.092292866E1,-2.230071306E0,-9.498149872E0,-9.911196828E-1
1.094312272E1,-2.229910135E0,-9.498449326E0,-9.886130095E-1
1.096331710E1,-2.227522135E0,-9.499013901E0,-9.885674715E-1
1.098351158E1,-2.225791931E0,-9.499150276E0,-9.911476970E-1
1.100371689E1,-2.225426674E0,-9.498985291E0,-9.935444593E-1
1.102389752E1,-2.225565672E0,-9.498831749E0,-9.947062731E-1
1.104407845E1,-2.227455616E0,-9.498390198E0,-9.946889877E-1
1.106426012E1,-2.228618860E0,-9.498122215E0,-9.946535230E-1
1.108444283E1,-2.226685524E0,-9.498692513E0,-9.935299158E-1
1.110462679E1,-2.223441362E0,-9.499786377E0,-9.903390408E-1
1.112481231E1,-2.220557690E0,-9.500885963E0,-9.862419963E-1
1.114499949E1,-2.218229532E0,-9.501897812E0,-9.817281961E-1
1.116518835E1,-2.217943907E0,-9.502403259E0,-9.774709344E-1
1.118537887E1,-2.219820023E0,-9.502430916E0,-9.729311466E-1
1.120557106E1,-2.221062660E0,-9.502809525E0,-9.663760662E-1
1.122576470E1,-2.220169067E0,-9.503740311E0,-9.592364430E-1
1.124595970E1,-2.217324018E0,-9.504971504E0,-9.536072016E-1
1.126615574E1,-2.214320660E0,-9.506217957E0,-9.481497407E-1
1.128635262E1,-2.209412336E0,-9.507926941E0,-9.424519539E-1
1.130655002E1,-2.204120874E0,-9.509628296E0,-9.376579523E-1
1.132674762E1,-2.198819876E0,-9.511258125E0,-9.335697293E-1
1.134694460E1,-2.191888571E0,-9.513477325E0,-9.272302985E-1
1.136713512E1,-2.183238745E0,-9.516362190E0,-9.179911613E-1
1.138732554E1,-2.174034834E0,-9.519385338E0,-9.084382653E-1
1.140751054E1,-2.165173292E0,-9.522055626E0,-9.015938044E-1
1.142769595E1,-2.158682585E0,-9.523980141E0,-8.968186975E-1
1.144788189E1,-2.153917789E0,-9.525645256E0,-8.905643225E-1
1.146806856E1,-2.149583340E0,-9.527614594E0,-8.799001575E-1
1.148825606E1,-2.142777920E0,-9.530406952E0,-8.661572337E-1
1.150844449E1,-2.132157326E0,-9.534071922E0,-8.519147038E-1
1.152863387E1,-2.121702671E0,-9.537460327E0,-8.400068283E-1
1.154882418E1,-2.113772154E0,-9.540139198E0,-8.295284510E-1
1.156901543E1,-2.109343052E0,-9.542012215E0,-8.191827536E-1
1.158920752E1,-2.108718634E0,-9.542842865E0,-8.110677600E-1
1.160940033E1,-2.108827829E0,-9.543290138E0,-8.055106401E-1
1.162959377E1,-2.105421066E0,-9.544545174E0,-7.995219827E-1
1.164978772E1,-2.098766565E0,-9.546815872E0,-7.898524404E-1
1.166998199E1,-2.090392828E0,-9.549660683E0,-7.775730491E-1
1.169017647E1,-2.082393408E0,-9.552358627E0,-7.658044100E-1
1.171038179E1,-2.077111959E0,-9.554265022E0,-7.563173175E-1
1.173056272E1,-2.072974205E0,-9.556022644E0,-7.453763485E-1
1.175074397E1,-2.067069054E0,-9.558417320E0,-7.309426665E-1
1.177092595E1,-2.057255268E0,-9.561513901E0,-7.180118561E-1
1.179110897E1,-2.048291445E0,-9.563891411E0,-7.119598985E-1
1.181129324E1,-2.045535803E0,-9.564654350E0,-7.096135020E-1
1.183147897E1,-2.046765566E0,-9.564803123E0,-7.040475011E-1
1.185166626E1,-2.047978401E0,-9.565257072E0,-6.942892075E-1
1.187185522E1,-2.042879581E0,-9.567028046E0,-6.848335266E-1
1.189204585E1,-2.030430317E0,-9.570089340E0,-6.790660024E-1
1.191223804E1,-2.013629198E0,-9.573926926E0,-6.749916077E-1
1.193243168E1,-1.999571681E0,-9.577181816E0,-6.705883145E-1
1.195262658E1,-1.990912557E0,-9.579324722E0,-6.657257676E-1
1.197282252E1,-1.986089826E0,-9.580691338E0,-6.604568958E-1
1.199301918E1,-1.982459903E0,-9.581773758E0,-6.556409597E-1
1.201321626E1,-1.978334069E0,-9.582806587E0,-6.529839039E-1
1.203341356E1,-1.973152280E0,-9.584006310E0,-6.510545611E-1
1.205360929E1,-1.966296911E0,-9.585717201E0,-6.465893388E-1
1.207379970E1,-1.959970474E0,-9.587422371E0,-6.404904723E-1
1.209398470E1,-1.955019712E0,-9.588892937E0,-6.335691214E-1
1.211417012E1,-1.950998306E0,-9.590052605E0,-6.284006238E-1
1.213435606E1,-1.947546840E0,-9.590669632E0,-6.296874285E-1
1.215454272E1,-1.945200443E0,-9.590816498E0,-6.346892118E-1
1.217473022E1,-1.944403529E0,-9.590741158E0,-6.382477283E-1
1.219491866E1,-1.943880916E0,-9.590833664E0,-6.384524703E-1
1.221510804E1,-1.941099167E0,-9.591616631E0,-6.351344585E-1
1.223529835E1,-1.937347054E0,-9.592474937E0,-6.336399913E-1
1.225548960E1,-1.934919596E0,-9.592551231E0,-6.398679614E-1
1.227568168E1,-1.934768438E0,-9.591922760E0,-6.496739984E-1
1.229587449E1,-1.936332703E0,-9.591284752E0,-6.544259787E-1
1.231606793E1,-1.938516855E0,-9.591009140E0,-6.519865990E-1
1.233626189E1,-1.937900424E0,-9.591496468E0,-6.466284394E-1
1.235645616E1,-1.934713721E0,-9.592211723E0,-6.455700994E-1
1.237665064E1,-1.932857513E0,-9.592181206E0,-6.515381336E-1
1.239685595E1,-1.933882236E0,-9.591319084E0,-6.611192822E-1
1.241703647E1,-1.936712861E0,-9.590129852E0,-6.700327396E-1
1.243721731E1,-1.939796805E0,-9.588873863E0,-6.790173054E-1
1.245739887E1,-1.942574859E0,-9.587489128E0,-6.905429959E-1
1.247758147E1,-1.945617676E0,-9.585958481E0,-7.031056881E-1
1.249776543E1,-1.950184345E0,-9.584290504E0,-7.131183743E-1
1.251795085E1,-1.955247402E0,-9.582755089E0,-7.198662758E-1
1.253813793E1,-1.958868384E0,-9.581645966E0,-7.247558832E-1
1.255832668E1,-1.960046768E0,-9.581116676E0,-7.285701036E-1
1.257851710E1,-1.957400560E0,-9.581390381E0,-7.320759892E-1
1.259870918E1,-1.950765729E0,-9.582443237E0,-7.359815240E-1
1.261890283E1,-1.942121983E0,-9.583709717E0,-7.423436046E-1
1.263909783E1,-1.933092237E0,-9.584911346E0,-7.503389716E-1
1.265929387E1,-1.926510453E0,-9.585752487E0,-7.564976215E-1
1.267949074E1,-1.924747825E0,-9.585931778E0,-7.587188482E-1
1.269968814E1,-1.929356813E0,-9.585165024E0,-7.566885948E-1
1.271988574E1,-1.933387399E0,-9.584834099E0,-7.505667806E-1
1.274008272E1,-1.933658004E0,-9.585295677E0,-7.439390421E-1
1.276027304E1,-1.937341571E0,-9.584191322E0,-7.485794425E-1
1.278045793E1,-1.952010989E0,-9.579875946E0,-7.655089498E-1
1.280064324E1,-1.975429058E0,-9.573881149E0,-7.802996635E-1
1.282082918E1,-2.000102520E0,-9.568457603E0,-7.839637399E-1
1.284101585E1,-2.018723011E0,-9.564405441E0,-7.856805325E-1
1.286120335E1,-2.033349514E0,-9.560851097E0,-7.912096977E-1
1.288139179E1,-2.050423384E0,-9.556893349E0,-7.949403524E-1
1.290158116E1,-2.071878672E0,-9.552074432E0,-7.972394824E-1
1.292177147E1,-2.086738825E0,-9.548229218E0,-8.044978380E-1
1.294196272E1,-2.088289499E0,-9.546710014E0,-8.183994293E-1
1.296215481E1,-2.081808805E0,-9.546585083E0,-8.361588717E-1
1.298234762E1,-2.080659389E0,-9.545638084E0,-8.497347236E-1
1.300254106E1,-2.087463379E0,-9.543947220E0,-8.520249724E-1
1.302273502E1,-2.099716663E0,-9.541465759E0,-8.497156501E-1
1.304292929E1,-2.106321335E0,-9.539258003E0,-8.581066728E-1
1.306312376E1,-2.101700068E0,-9.538500786E0,-8.776450157E-1
1.308332908E1,-2.086066246E0,-9.539854050E0,-8.999425173E-1
1.310350970E1,-2.066740513E0,-9.542579651E0,-9.155029655E-1
1.312369064E1,-2.053448200E0,-9.544631004E0,-9.239858389E-1
1.314387231E1,-2.052023649E0,-9.544419289E0,-9.293140769E-1
1.316405502E1,-2.062200546E0,-9.541647911E0,-9.352375269E-1
1.318423897E1,-2.076451063E0,-9.537830353E0,-9.426092505E-1
1.320442439E1,-2.087056398E0,-9.534915924E0,-9.486683011E-1
1.322461147E1,-2.093405724E0,-9.533283234E0,-9.510828257E-1
1.324480022E1,-2.096560001E0,-9.532384872E0,-9.531344175E-1
1.326499064E1,-2.101871729E0,-9.530450821E0,-9.607492089E-1
1.328518272E1,-2.111885071E0,-9.526422501E0,-9.785782695E-1
1.330537627E1,-2.124233961E0,-9.521339417E0,-1.001055121E0
1.332557116E1,-2.134576559E0,-9.517130852E0,-1.018908739E0
1.334576710E1,-2.138090134E0,-9.515726089E0,-1.024652958E0
1.336596387E1,-2.134984016E0,-9.516291618E0,-1.025873184E0
1.338616116E1,-2.127157450E0,-9.516909599E0,-1.036349416E0
1.340635866E1,-2.120465040E0,-9.516199112E0,-1.056388855E0
1.342655595E1,-2.117594481E0,-9.514924049E0,-1.073495746E0
1.344674627E1,-2.120728970E0,-9.513648033E0,-1.078608871E0
1.346693116E1,-2.126753092E0,-9.512598991E0,-1.075990677E0
1.348711647E1,-2.133145332E0,-9.511528015E0,-1.072805285E0
1.350730241E1,-2.141213417E0,-9.509543419E0,-1.074321151E0
1.352748908E1,-2.149503708E0,-9.507036209E0,-1.079945207E0
1.354767658E1,-2.152633667E0,-9.505777359E0,-1.084779143E0
1.356786502E1,-2.148793459E0,-9.506391525E0,-1.087010622E0
1.358805439E1,-2.140308619E0,-9.507951736E0,-1.090106249E0
1.360824470E1,-2.131245136E0,-9.509348869E0,-1.095653772E0
1.362843595E1,-2.127026796E0,-9.509646416E0,-1.101257563E0
1.364862804E1,-2.127542734E0,-9.509085655E0,-1.105098963E0
1.366882085E1,-2.130381346E0,-9.508106232E0,-1.108051777E0
1.368901429E1,-2.130983353E0,-9.507510185E0,-1.112003565E0
1.370920824E1,-2.129035473E0,-9.507493019E0,-1.115870237E0
1.372940252E1,-2.127255201E0,-9.507667542E0,-1.117780447E0
1.374959699E1,-2.128160715E0,-9.507327080E0,-1.118948102E0
1.376980231E1,-2.133001804E0,-9.506240845E0,-1.118965745E0
1.378998272E1,-2.139389038E0,-9.505191803E0,-1.115676999E0
1.381016345E1,-2.144094467E0,-9.504769325E0,-1.110225439E0
1.383034491E1,-2.146566391E0,-9.504739761E0,-1.105698586E0
1.385052741E1,-2.148556471E0,-9.504696846E0,-1.102196693E0
1.387071126E1,-2.150730371E0,-9.504620552E0,-1.098602533E0
1.389089668E1,-2.152616978E0,-9.504797935E0,-1.093361855E0
1.391108376E1,-2.153311968E0,-9.505330086E0,-1.087355018E0
1.393127262E1,-2.152030468E0,-9.506064415E0,-1.083468556E0
1.395146314E1,-2.150924921E0,-9.506424904E0,-1.082490206E0
1.397165533E1,-2.152139425E0,-9.506288528E0,-1.081276059E0
1.399184897E1,-2.155085087E0,-9.505970955E0,-1.078205228E0
1.401204397E1,-2.157005310E0,-9.505960464E0,-1.074438810E0
1.403224002E1,-2.157372952E0,-9.506211281E0,-1.071481109E0
1.405243689E1,-2.157498360E0,-9.506447792E0,-1.069130182E0
1.407263429E1,-2.158841610E0,-9.506530762E0,-1.065678358E0
1.409283189E1,-2.163135052E0,-9.505960464E0,-1.062048912E0
1.411302845E1,-2.169029951E0,-9.504970551E0,-1.058887362E0
1.413321887E1,-2.174205065E0,-9.504176140E0,-1.055394411E0
1.415340918E1,-2.177313805E0,-9.503925323E0,-1.051238179E0
1.417359408E1,-2.178298950E0,-9.504200935E0,-1.046694875E0
1.419377939E1,-2.178241253E0,-9.504733086E0,-1.041966438E0
1.421396522E1,-2.177565575E0,-9.505395889E0,-1.037322164E0
1.423415179E1,-2.175781965E0,-9.506303787E0,-1.032736421E0
1.425433918E1,-2.172632456E0,-9.507434845E0,-1.028953671E0
1.427452752E1,-2.168966532E0,-9.508545876E0,-1.026418447E0
1.429471679E1,-2.166187525E0,-9.509332657E0,-1.024984479E0
1.431490699E1,-2.164546728E0,-9.509800911E0,-1.024119020E0
1.433509814E1,-2.166194439E0,-9.509445190E0,-1.023937583E0
1.435529012E1,-2.169953823E0,-9.508778572E0,-1.022170901E0
1.437548293E1,-2.174442768E0,-9.508111000E0,-1.018817782E0
1.439567637E1,-2.178996563E0,-9.507385254E0,-1.015867591E0
1.441587033E1,-2.183673382E0,-9.506488800E0,-1.014217496E0
1.443606460E1,-2.187694788E0,-9.505634308E0,-1.013555408E0
1.445625908E1,-2.190928698E0,-9.504945755E0,-1.013024688E0
1.447646439E1,-2.193547726E0,-9.504570961E0,-1.010878086E0
1.449664502E1,-2.196459532E0,-9.504253387E0,-1.007535815E0
1.451682595E1,-2.200149298E0,-9.503612518E0,-1.005519867E0
1.453700762E1,-2.205569267E0,-9.502526283E0,-1.003915429E0
1.455719033E1,-2.211367130E0,-9.501461983E0,-1.001229882E0
1.457737429E1,-2.214983225E0,-9.500894547E0,-9.986242056E-1
1.459755970E1,-2.216269493E0,-9.500642776E0,-9.981515408E-1
1.461774679E1,-2.216516972E0,-9.500504494E0,-9.989268184E-1
1.463793554E1,-2.217957735E0,-9.500112534E0,-9.994597435E-1
1.465812595E1,-2.221665144E0,-9.499375343E0,-9.982285500E-1
1.467831793E1,-2.225625992E0,-9.498749733E0,-9.953553677E-1
1.469851137E1,-2.229780674E0,-9.498021126E0,-9.930020571E-1
1.471870606E1,-2.233259201E0,-9.497273445E0,-9.923499227E-1
1.473890179E1,-2.236938238E0,-9.496325493E0,-9.931365252E-1
1.475909835E1,-2.240791798E0,-9.495284081E0,-9.944071770E-1
1.477929543E1,-2.243044138E0,-9.494731903E0,-9.945899248E-1
1.479949272E1,-2.243506432E0,-9.494685173E0,-9.939919710E-1
1.481968460E1,-2.242572069E0,-9.494939804E0,-9.936718941E-1
1.483987658E1,-2.242317200E0,-9.494850159E0,-9.950923920E-1
1.486007939E1,-2.244272232E0,-9.494143486E0,-9.974324107E-1
1.488026106E1,-2.248291016E0,-9.493010521E0,-9.991511703E-1
1.490044304E1,-2.253045082E0,-9.491954803E0,-9.984872937E-1
1.492062564E1,-2.257212162E0,-9.491264343E0,-9.956347942E-1
1.494080918E1,-2.259376764E0,-9.490966797E0,-9.935515523E-1
1.496099387E1,-2.259307146E0,-9.490822792E0,-9.950897694E-1
1.498117991E1,-2.259241343E0,-9.490484238E0,-9.984574318E-1
1.500136741E1,-2.259831667E0,-9.490220070E0,-9.996406436E-1
1.502155637E1,-2.261364222E0,-9.489975929E0,-9.984811544E-1
1.504174679E1,-2.262604475E0,-9.489979744E0,-9.956361651E-1
1.506193866E1,-2.263084650E0,-9.490118027E0,-9.932223558E-1
1.508213179E1,-2.263233900E0,-9.490186691E0,-9.922279716E-1
1.510232606E1,-2.263743639E0,-9.490210533E0,-9.908311963E-1
1.512252127E1,-2.263560534E0,-9.490557671E0,-9.879248738E-1
1.514271720E1,-2.261901379E0,-9.491287231E0,-9.847013354E-1
1.516291356E1,-2.258739710E0,-9.492189407E0,-9.832674265E-1
1.518311012E1,-2.255959272E0,-9.492890358E0,-9.828790426E-1
1.520330585E1,-2.253185511E0,-9.493660927E0,-9.818013906E-1
1.522349616E1,-2.251736641E0,-9.494178772E0,-9.801146388E-1
1.524368637E1,-2.251015186E0,-9.494574547E0,-9.779466987E-1
1.526387116E1,-2.249636412E0,-9.495185852E0,-9.751780033E-1
1.528405637E1,-2.248186827E0,-9.495865822E0,-9.718913436E-1
1.530424220E1,-2.247174263E0,-9.496399879E0,-9.690126777E-1
1.532442876E1,-2.246838570E0,-9.496737480E0,-9.664714932E-1
1.534461616E1,-2.246328115E0,-9.497000694E0,-9.650762081E-1
1.536480449E1,-2.244958639E0,-9.497318268E0,-9.651378393E-1
1.538499376E1,-2.243266582E0,-9.497697830E0,-9.653390646E-1
1.540518397E1,-2.241671085E0,-9.498104095E0,-9.650431275E-1
1.542537512E1,-2.240199566E0,-9.498524666E0,-9.643165469E-1
1.544556710E1,-2.239305496E0,-9.498669624E0,-9.649778605E-1
1.546575981E1,-2.239859104E0,-9.498492241E0,-9.654302001E-1
1.548595314E1,-2.241251230E0,-9.498370171E0,-9.634038210E-1
1.550614699E1,-2.241209745E0,-9.498605728E0,-9.611792564E-1
1.552634116E1,-2.239237547E0,-9.498924255E0,-9.626239538E-1
1.554653554E1,-2.236423969E0,-9.499238968E0,-9.660580158E-1
1.556674074E1,-2.234336138E0,-9.499505997E0,-9.682477117E-1
1.558692106E1,-2.233931780E0,-9.499521255E0,-9.690415859E-1
1.560710168E1,-2.233150244E0,-9.499754906E0,-9.685454369E-1
1.562728304E1,-2.231066942E0,-9.500312805E0,-9.678875804E-1
1.564746543E1,-2.228140831E0,-9.500763893E0,-9.701847434E-1
1.566764918E1,-2.224978447E0,-9.501122475E0,-9.739226103E-1
1.568783449E1,-2.221951008E0,-9.501677513E0,-9.754232764E-1
1.570802147E1,-2.218435049E0,-9.502442360E0,-9.759666920E-1
1.572821022E1,-2.214800596E0,-9.503059387E0,-9.782110453E-1
1.574840064E1,-2.211287737E0,-9.503392220E0,-9.829259515E-1
1.576859272E1,-2.208172798E0,-9.503686905E0,-9.870519042E-1
1.578878626E1,-2.205113411E0,-9.504220009E0,-9.887692332E-1
1.580898116E1,-2.201663256E0,-9.504922867E0,-9.896987081E-1
1.582917710E1,-2.197318792E0,-9.505811691E0,-9.908198714E-1
1.584937387E1,-2.192783117E0,-9.506634712E0,-9.929723144E-1
1.586957116E1,-2.190123796E0,-9.506891251E0,-9.963752627E-1
1.588976866E1,-2.188720226E0,-9.506834030E0,-9.999979734E-1
1.590996522E1,-2.187730789E0,-9.506919861E0,-1.001342297E0
1.593015543E1,-2.186340570E0,-9.507306099E0,-1.000726819E0
1.595034022E1,-2.184195042E0,-9.507908821E0,-9.996703267E-1
1.597052543E1,-2.181740999E0,-9.508547783E0,-9.989594221E-1
1.599071116E1,-2.179849148E0,-9.509033203E0,-9.984646440E-1
1.601089762E1,-2.179484129E0,-9.509116173E0,-9.984662533E-1
1.603108491E1,-2.180607796E0,-9.508994102E0,-9.971752763E-1
1.605127314E1,-2.182220936E0,-9.509051323E0,-9.930947423E-1
1.607146231E1,-2.183630228E0,-9.509107590E0,-9.894577861E-1
1.609165241E1,-2.184095860E0,-9.508923531E0,-9.901993871E-1
1.611184345E1,-2.183552265E0,-9.508835793E0,-9.922327399E-1
1.613203533E1,-2.182713270E0,-9.508956909E0,-9.929141998E-1
1.615222804E1,-2.182049990E0,-9.509148598E0,-9.925410151E-1
1.617242137E1,-2.181301832E0,-9.509435654E0,-9.914276600E-1
1.619261522E1,-2.180088758E0,-9.509744644E0,-9.911348224E-1
1.621280939E1,-2.179357290E0,-9.509691238E0,-9.932615757E-1
1.623300376E1,-2.179211140E0,-9.509475708E0,-9.956399202E-1
1.625320897E1,-2.179373503E0,-9.509392738E0,-9.960790277E-1
1.627338949E1,-2.178768158E0,-9.509521484E0,-9.961649179E-1
1.629357033E1,-2.177401543E0,-9.509620667E0,-9.982063174E-1
1.631375189E1,-2.175632715E0,-9.509759903E0,-1.000744104E0
1.633393449E1,-2.174955368E0,-9.509760857E0,-1.002202272E0
1.635411835E1,-2.175515175E0,-9.509541512E0,-1.003067255E0
1.637430366E1,-2.175633669E0,-9.509499550E0,-1.003205776E0
1.639449064E1,-2.174960852E0,-9.509609222E0,-1.003625751E0
1.641467929E1,-2.175150633E0,-9.509520531E0,-1.004059792E0
1.643486960E1,-2.176625252E0,-9.509203911E0,-1.003857374E0
1.645506147E1,-2.178504467E0,-9.508873940E0,-1.002910018E0
1.647525481E1,-2.179410219E0,-9.508799553E0,-1.001649141E0
1.649544939E1,-2.178690910E0,-9.509133339E0,-1.000041366E0
1.651564502E1,-2.176637173E0,-9.509750366E0,-9.986481667E-1
1.653584147E1,-2.174971819E0,-9.510221481E0,-9.977911711E-1
1.655603845E1,-2.173378944E0,-9.510546684E0,-9.981576800E-1
1.657623564E1,-2.171045542E0,-9.510974884E0,-9.991493225E-1
1.659642741E1,-2.168787003E0,-9.511198997E0,-1.001926064E0
1.661661929E1,-2.165838242E0,-9.511478424E0,-1.005643606E0
1.663682199E1,-2.163682222E0,-9.511575699E0,-1.009351969E0
1.665700356E1,-2.161573172E0,-9.511802673E0,-1.011731148E0
1.667718543E1,-2.158199310E0,-9.512568474E0,-1.011735678E0
1.669736793E1,-2.153705359E0,-9.513589859E0,-1.011703014E0
1.671755137E1,-2.149911404E0,-9.514547348E0,-1.010768533E0
1.673773595E1,-2.147188663E0,-9.515403748E0,-1.008497119E0
1.675792189E1,-2.145624161E0,-9.516022682E0,-1.005980968E0
1.677810929E1,-2.143052816E0,-9.516815186E0,-1.003958821E0
1.679829814E1,-2.140418291E0,-9.517558098E0,-1.002536058E0
1.681848845E1,-2.138779402E0,-9.518100739E0,-1.000893712E0
1.683868022E1,-2.137875557E0,-9.518431664E0,-9.996663928E-1
1.685887324E1,-2.137287140E0,-9.518590927E0,-9.994170666E-1
1.687906741E1,-2.136458635E0,-9.518659592E0,-1.000522256E0
1.689926252E1,-2.135562658E0,-9.518594742E0,-1.003050566E0
1.691945835E1,-2.134552479E0,-9.518506050E0,-1.006034613E0
1.693965460E1,-2.133203506E0,-9.518562317E0,-1.008373618E0
1.695985106E1,-2.130123138E0,-9.519047737E0,-1.010293603E0
1.698004668E1,-2.125308275E0,-9.519873619E0,-1.012646794E0
1.700023679E1,-2.120103836E0,-9.520698547E0,-1.015799999E0
1.702042147E1,-2.116418600E0,-9.521336555E0,-1.017497063E0
1.704060658E1,-2.114257812E0,-9.521816254E0,-1.017504454E0
1.706079231E1,-2.112792492E0,-9.522140503E0,-1.017518163E0
1.708097876E1,-2.111673117E0,-9.522373199E0,-1.017661929E0
1.710116606E1,-2.110114813E0,-9.522696495E0,-1.017860293E0
1.712135429E1,-2.109191656E0,-9.522883415E0,-1.018035054E0
1.714154345E1,-2.109837055E0,-9.522795677E0,-1.017510772E0
1.716173356E1,-2.111453772E0,-9.522641182E0,-1.015603185E0
1.718192460E1,-2.112370253E0,-9.522558212E0,-1.014475226E0
1.720211647E1,-2.112555742E0,-9.522344589E0,-1.016092777E0
1.722230908E1,-2.113409996E0,-9.521937370E0,-1.018130660E0
1.724250231E1,-2.114815712E0,-9.521646500E0,-1.017939210E0
1.726269606E1,-2.117027998E0,-9.521295547E0,-1.016620517E0
1.728289012E1,-2.118422031E0,-9.521233559E0,-1.014286399E0
1.730308439E1,-2.118247032E0,-9.521493912E0,-1.012215853E0
1.732328949E1,-2.116666794E0,-9.521840096E0,-1.012268186E0
1.734346981E1,-2.115575790E0,-9.522027016E0,-1.012784243E0
1.736365043E1,-2.116706610E0,-9.521894455E0,-1.011669517E0
1.738383179E1,-2.117699146E0,-9.521882057E0,-1.009701610E0
1.740401418E1,-2.117147207E0,-9.522061348E0,-1.009166479E0
1.742419793E1,-2.115393400E0,-9.522380829E0,-1.009835601E0
1.744438314E1,-2.113474369E0,-9.522821426E0,-1.009695530E0
1.746457002E1,-2.112931013E0,-9.523242950E0,-1.006855726E0
1.748475856E1,-2.113258600E0,-9.523611069E0,-1.002676129E0
1.750494876E1,-2.112696409E0,-9.524053574E0,-9.996494055E-1
1.752514064E1,-2.109619617E0,-9.524916649E0,-9.979305863E-1
1.754533397E1,-2.103705168E0,-9.526371002E0,-9.965288639E-1
1.756552866E1,-2.095136166E0,-9.528245926E0,-9.966584444E-1
1.758572439E1,-2.085349321E0,-9.530138969E0,-9.990794063E-1
1.760592095E1,-2.075824976E0,-9.532026291E0,-1.000903249E0
1.762611804E1,-2.068795204E0,-9.533666611E0,-9.998432994E-1
1.764631533E1,-2.066630602E0,-9.534470558E0,-9.966533780E-1
1.766651220E1,-2.067093134E0,-9.534789085E0,-9.926241040E-1
1.768670231E1,-2.067919254E0,-9.535266876E0,-9.863024950E-1
1.770688699E1,-2.070098639E0,-9.535572052E0,-9.787405729E-1
1.772707210E1,-2.074194670E0,-9.535488129E0,-9.708713889E-1
1.774725772E1,-2.082484484E0,-9.534286499E0,-9.648901820E-1
1.776744408E1,-2.093347311E0,-9.532149315E0,-9.625009298E-1
1.778763126E1,-2.101758480E0,-9.530408859E0,-9.614148140E-1
1.780781939E1,-2.106015444E0,-9.529766083E0,-9.584509134E-1
1.782800845E1,-2.109114885E0,-9.529666901E0,-9.526162148E-1
1.784819845E1,-2.112164259E0,-9.529837608E0,-9.441159368E-1
1.786838939E1,-2.116928577E0,-9.529812813E0,-9.336420298E-1
1.788858116E1,-2.119297743E0,-9.530470848E0,-9.214653373E-1
1.790877376E1,-2.115180492E0,-9.532256126E0,-9.124119878E-1
1.792896699E1,-2.100155592E0,-9.535755157E0,-9.105516672E-1
1.794916074E1,-2.074548721E0,-9.540761948E0,-9.167802334E-1
1.796935481E1,-2.049276114E0,-9.545057297E0,-9.288321733E-1
1.798954908E1,-2.032426596E0,-9.547611237E0,-9.395536780E-1
1.800975418E1,-2.024375439E0,-9.548856735E0,-9.442535043E-1
1.802993460E1,-2.022622108E0,-9.549072266E0,-9.458412528E-1
1.805011533E1,-2.023363590E0,-9.548867226E0,-9.463209510E-1
1.807029679E1,-2.022090673E0,-9.549226761E0,-9.454069734E-1
1.809047929E1,-2.019327641E0,-9.549817085E0,-9.453533292E-1
1.811066304E1,-2.019902945E0,-9.549670219E0,-9.456118941E-1
1.813084824E1,-2.027569771E0,-9.548113823E0,-9.449220896E-1
1.815103512E1,-2.041954279E0,-9.545518875E0,-9.401522279E-1
1.817122366E1,-2.055310965E0,-9.543661118E0,-9.298536777E-1
1.819141387E1,-2.061082840E0,-9.543683052E0,-9.167562723E-1
1.821160564E1,-2.059113741E0,-9.544914246E0,-9.083244205E-1
1.823179887E1,-2.051505566E0,-9.546355247E0,-9.103878140E-1
1.825199335E1,-2.041665316E0,-9.547680855E0,-9.185739756E-1
1.827218887E1,-2.034055710E0,-9.548831940E0,-9.234799743E-1
1.829238522E1,-2.029783487E0,-9.549631119E0,-9.246084690E-1
1.831258210E1,-2.028809786E0,-9.549391747E0,-9.292085767E-1
1.833277918E1,-2.027511120E0,-9.548693657E0,-9.391665459E-1
1.835297085E1,-2.023564577E0,-9.548296928E0,-9.516330361E-1
1.837316262E1,-2.017272711E0,-9.548423767E0,-9.636415839E-1
1.839336522E1,-2.009500504E0,-9.549359322E0,-9.705832005E-1
1.841354668E1,-2.003255606E0,-9.550700188E0,-9.703000188E-1
1.843372845E1,-2.000926495E0,-9.551568031E0,-9.665597081E-1
1.845391085E1,-2.004049778E0,-9.551012993E0,-9.655622244E-1
1.847409418E1,-2.009988785E0,-9.549176216E0,-9.713706970E-1
1.849427866E1,-2.013078213E0,-9.547640800E0,-9.800258875E-1
1.851446449E1,-2.008246660E0,-9.547795296E0,-9.883988500E-1
1.853465179E1,-1.993725061E0,-9.550036430E0,-9.961130619E-1
1.855484054E1,-1.971294165E0,-9.553822517E0,-1.004419446E0
1.857503074E1,-1.941815615E0,-9.559267044E0,-1.010029435E0
1.859522241E1,-1.916516304E0,-9.564611435E0,-1.007753968E0
1.861541533E1,-1.902852654E0,-9.568444252E0,-9.971978664E-1
1.863560939E1,-1.899756551E0,-9.570570946E0,-9.825906157E-1
1.865580439E1,-1.901198983E0,-9.571606636E0,-9.696334600E-1
1.867600012E1,-1.899099708E0,-9.573121071E0,-9.587261081E-1
1.869619626E1,-1.889547586E0,-9.576124191E0,-9.475512505E-1
1.871639262E1,-1.876578569E0,-9.579574585E0,-9.384068847E-1
1.873658824E1,-1.865089178E0,-9.582437515E0,-9.320584536E-1
1.875677824E1,-1.858589888E0,-9.584494591E0,-9.238476157E-1
1.877696283E1,-1.855473518E0,-9.586181641E0,-9.125341773E-1
1.879714783E1,-1.851010799E0,-9.588232040E0,-8.999715447E-1
1.881733345E1,-1.840756655E0,-9.591212273E0,-8.891813755E-1
1.883751981E1,-1.822625995E0,-9.595292091E0,-8.824989200E-1
1.885770699E1,-1.801179886E0,-9.599379539E0,-8.820626736E-1
1.887789512E1,-1.786286950E0,-9.601697922E0,-8.871052861E-1
1.889808418E1,-1.783737540E0,-9.601876259E0,-8.903101683E-1
1.891827418E1,-1.790985584E0,-9.600633621E0,-8.891541362E-1
1.893846512E1,-1.802358508E0,-9.598575592E0,-8.883879781E-1
1.895865689E1,-1.812786341E0,-9.596700668E0,-8.874298334E-1
1.897884939E1,-1.816926479E0,-9.596962929E0,-8.760542870E-1
1.899904252E1,-1.817870975E0,-9.598715782E0,-8.546283245E-1
1.901923616E1,-1.825542092E0,-9.598612785E0,-8.393030763E-1
1.903943012E1,-1.842981935E0,-9.595437050E0,-8.374941349E-1
1.905962429E1,-1.863080382E0,-9.591876030E0,-8.338130116E-1
1.907982929E1,-1.879399776E0,-9.589653969E0,-8.226657510E-1
1.910000960E1,-1.885627270E0,-9.589585304E0,-8.090971112E-1
1.912019022E1,-1.878254414E0,-9.592103004E0,-7.963143587E-1
1.914037158E1,-1.856625795E0,-9.597091675E0,-7.868759632E-1
1.916055397E1,-1.824832201E0,-9.603027344E0,-7.888227105E-1
1.918073762E1,-1.792063355E0,-9.607758522E0,-8.061462641E-1
1.920092272E1,-1.761139154E0,-9.611432076E0,-8.301532269E-1
1.922110949E1,-1.732768536E0,-9.614874840E0,-8.497564793E-1
1.924129793E1,-1.705472112E0,-9.618425369E0,-8.646718264E-1
1.926148804E1,-1.677167773E0,-9.621755600E0,-8.827891946E-1
1.928167981E1,-1.646601915E0,-9.625117302E0,-9.034406543E-1
1.930187304E1,-1.613419414E0,-9.629573822E0,-9.157381654E-1
1.932206762E1,-1.578629732E0,-9.635313988E0,-9.159944057E-1
1.934226324E1,-1.547449350E0,-9.640678406E0,-9.127465487E-1
1.936245970E1,-1.521257639E0,-9.644796371E0,-9.132698178E-1
1.938265668E1,-1.502365351E0,-9.647247314E0,-9.186487198E-1
1.940285387E1,-1.489077091E0,-9.648309708E0,-9.290588498E-1
1.942305054E1,-1.475782871E0,-9.649072647E0,-9.422604442E-1
1.944324054E1,-1.460780263E0,-9.650029182E0,-9.557449818E-1
1.946342512E1,-1.445255399E0,-9.651237488E0,-9.670797586E-1
1.948361012E1,-1.427386522E0,-9.653234482E0,-9.736633897E-1
1.950379574E1,-1.408468127E0,-9.655944824E0,-9.743350148E-1
1.952398210E1,-1.389245152E0,-9.659054756E0,-9.711065888E-1
1.954416929E1,-1.370599031E0,-9.661893845E0,-9.693546891E-1
1.956435741E1,-1.351096749E0,-9.664519310E0,-9.705690742E-1
1.958454647E1,-1.330832005E0,-9.667001724E0,-9.738336802E-1
1.960473647E1,-1.311409831E0,-9.669126511E0,-9.790823460E-1
1.962492741E1,-1.295207500E0,-9.670331955E0,-9.886898994E-1
1.964511918E1,-1.277095079E0,-9.671449661E0,-1.001243591E0
1.966531168E1,-1.251429677E0,-9.673736572E0,-1.011511207E0
1.968550481E1,-1.221270919E0,-9.676981926E0,-1.017299891E0
1.970569845E1,-1.192538142E0,-9.680171013E0,-1.021044731E0
1.972589241E1,-1.163906097E0,-9.683391571E0,-1.023537397E0
1.974608647E1,-1.136347771E0,-9.686325073E0,-1.026746035E0
1.976629137E1,-1.115214586E0,-9.688164711E0,-1.032544374E0
1.978647127E1,-1.099637270E0,-9.689425468E0,-1.037415147E0
1.980665147E1,-1.090188265E0,-9.690464973E0,-1.037673235E0
1.982683241E1,-1.088959694E0,-9.690886497E0,-1.035027266E0
1.984701439E1,-1.094651699E0,-9.690518379E0,-1.032470465E0
1.986719772E1,-1.104584694E0,-9.689700127E0,-1.029555678E0
1.988738262E1,-1.116108537E0,-9.688888550E0,-1.024752617E0
1.990756918E1,-1.128683209E0,-9.688155174E0,-1.017894149E0
1.992775752E1,-1.140609264E0,-9.687654495E0,-1.009334683E0
1.994794762E1,-1.152449489E0,-9.687303543E0,-9.992053509E-1
1.996813939E1,-1.167417645E0,-9.686698914E0,-9.876118302E-1
1.998833272E1,-1.183511496E0,-9.685930252E0,-9.759241939E-1
2.000852741E1,-1.197461605E0,-9.684981346E0,-9.683034420E-1
2.002872324E1,-1.211180091E0,-9.683735847E0,-9.636838436E-1
2.004891991E1,-1.224035978E0,-9.682627678E0,-9.585573673E-1
2.006911710E1,-1.235562801E0,-9.681803703E0,-9.520769715E-1
2.008931449E1,-1.246301293E0,-9.680828094E0,-9.479860663E-1
2.010951168E1,-1.253361583E0,-9.680049896E0,-9.466301203E-1
2.012970168E1,-1.256924748E0,-9.679662704E0,-9.458661079E-1
2.014988627E1,-1.253678560E0,-9.680584908E0,-9.407184720E-1
2.017007126E1,-1.243977904E0,-9.683297157E0,-9.255523682E-1
2.019025679E1,-1.231104255E0,-9.687130928E0,-9.023725390E-1
2.021044304E1,-1.215928793E0,-9.691249847E0,-8.783968091E-1
2.023063012E1,-1.202026844E0,-9.694812775E0,-8.579773307E-1
2.025081814E1,-1.195425749E0,-9.697178841E0,-8.402801752E-1
2.027100710E1,-1.200430751E0,-9.697963715E0,-8.239287734E-1
2.029119699E1,-1.217761397E0,-9.697547913E0,-8.031209111E-1
2.031138783E1,-1.246199369E0,-9.696217537E0,-7.750751972E-1
2.033157949E1,-1.279994488E0,-9.694492340E0,-7.408369780E-1
2.035177189E1,-1.309309483E0,-9.693218231E0,-7.054081559E-1
2.037196491E1,-1.328789473E0,-9.693004608E0,-6.710848808E-1
2.039215845E1,-1.340695739E0,-9.693604469E0,-6.379486322E-1
2.041235231E1,-1.346896529E0,-9.694780350E0,-6.062090397E-1
2.043254637E1,-1.349398732E0,-9.696270943E0,-5.760619640E-1
2.045275126E1,-1.349807739E0,-9.697866440E0,-5.475127697E-1
2.047293072E1,-1.346068740E0,-9.699916840E0,-5.197083950E-1
2.049311150E1,-1.338101864E0,-9.702339172E0,-4.944651723E-1
2.051329307E1,-1.332139373E0,-9.704318047E0,-4.711749256E-1
2.053347556E1,-1.334788561E0,-9.705204964E0,-4.446726739E-1
2.055365932E1,-1.344975591E0,-9.705165863E0,-4.137406647E-1
2.057384452E1,-1.353770375E0,-9.704928398E0,-3.899359405E-1
2.059403129E1,-1.366936088E0,-9.704793930E0,-3.447607458E-1
2.061421973E1,-1.383206367E0,-9.704833984E0,-2.707830966E-1
2.063440984E1,-1.403832316E0,-9.703855515E0,-1.866332144E-1
2.065460150E1,-1.427259326E0,-9.701537132E0,-1.161321104E-1
2.067479463E1,-1.453224301E0,-9.698137283E0,-6.820093840E-2
2.069498900E1,-1.485271573E0,-9.693470001E0,-3.136697039E-2
2.071518442E1,-1.532442331E0,-9.686171532E0,9.734576568E-3
2.073538056E1,-1.597935200E0,-9.675387383E0,6.210669130E-2
2.075557723E1,-1.675071597E0,-9.661753654E0,1.225944683E-1
2.077577411E1,-1.752558708E0,-9.646987915E0,1.858637780E-1
2.079597046E1,-1.821298957E0,-9.632839203E0,2.483302057E-1
2.081616046E1,-1.881009459E0,-9.619665146E0,3.069648147E-1
2.083635036E1,-1.931786060E0,-9.607863426E0,3.571480513E-1
2.085653484E1,-1.969534993E0,-9.598837852E0,3.919546008E-1
2.087671973E1,-1.987636685E0,-9.594217300E0,4.131506085E-1
2.089690525E1,-1.981303334E0,-9.594811440E0,4.294269383E-1
2.091709150E1,-1.949201822E0,-9.600360870E0,4.517486393E-1
2.093727859E1,-1.894864202E0,-9.609593391E0,4.853753150E-1
2.095746661E1,-1.821132421E0,-9.621860504E0,5.231255293E-1
2.097765557E1,-1.731547475E0,-9.636828423E0,5.510659218E-1
2.099784546E1,-1.635397792E0,-9.653211594E0,5.580036640E-1
2.101803629E1,-1.540473938E0,-9.669654846E0,5.432447195E-1
2.103822796E1,-1.453866482E0,-9.684527397E0,5.163227320E-1
2.105842036E1,-1.372436047E0,-9.697965622E0,4.860527217E-1
2.107861338E1,-1.296990633E0,-9.709867477E0,4.546186626E-1
2.109880692E1,-1.235173702E0,-9.719638824E0,4.163754284E-1
2.111900077E1,-1.183361888E0,-9.728282928E0,3.613024354E-1
2.113919484E1,-1.131978512E0,-9.736924171E0,2.851666510E-1
2.115939973E1,-1.083977103E0,-9.744797707E0,1.852328181E-1
2.117958004E1,-1.048289537E0,-9.750261307E0,6.214924529E-2
2.119976067E1,-1.034218431E0,-9.751695633E0,-7.225492597E-2
2.121994202E1,-1.041291475E0,-9.748956680E0,-2.096370459E-1
2.124012442E1,-1.046581149E0,-9.744245529E0,-3.531864882E-1
2.126030806E1,-1.019568801E0,-9.740691185E0,-4.998018146E-1
2.128049317E1,-9.500644207E-1,-9.740840912E0,-6.194971800E-1
2.130067984E1,-8.698509336E-1,-9.744739532E0,-6.736444831E-1
2.132086817E1,-8.200827837E-1,-9.749158859E0,-6.721380949E-1
2.134105817E1,-8.017921448E-1,-9.752163887E0,-6.502459645E-1
2.136124973E1,-8.069404364E-1,-9.752698898E0,-6.356834173E-1
2.138144275E1,-8.231374621E-1,-9.750546455E0,-6.478435397E-1
2.140163713E1,-8.436527252E-1,-9.746710777E0,-6.784368157E-1
2.142183254E1,-8.731743097E-1,-9.742520332E0,-7.008901238E-1
2.144202879E1,-9.091804624E-1,-9.739172935E0,-7.016358972E-1
2.146222556E1,-9.389850497E-1,-9.737416267E0,-6.865938902E-1
2.148242254E1,-9.519503713E-1,-9.737118721E0,-6.728329062E-1
2.150261942E1,-9.461500049E-1,-9.738013268E0,-6.680459380E-1
2.152280942E1,-9.290204048E-1,-9.739714622E0,-6.672963500E-1
2.154299932E1,-9.081628919E-1,-9.741951942E0,-6.633187532E-1
2.156318379E1,-8.898051977E-1,-9.744193077E0,-6.552479267E-1
2.158336869E1,-8.816367984E-1,-9.745538712E0,-6.461918950E-1
2.160355421E1,-8.875938058E-1,-9.745514870E0,-6.383585930E-1
2.162374046E1,-9.038938880E-1,-9.744344711E0,-6.333327293E-1
2.164392754E1,-9.263713956E-1,-9.742383957E0,-6.310070753E-1
2.166411557E1,-9.533286095E-1,-9.739867210E0,-6.297160387E-1
2.168430452E1,-9.829943180E-1,-9.736915588E0,-6.297403574E-1
2.170449442E1,-1.012019753E0,-9.733394623E0,-6.381464005E-1
2.172468525E1,-1.036865592E0,-9.728959084E0,-6.653266549E-1
2.174487692E1,-1.046449542E0,-9.725802422E0,-6.957734823E-1
2.176506932E1,-1.036853671E0,-9.726324081E0,-7.028097510E-1
2.178526234E1,-1.016908526E0,-9.730777740E0,-6.695212126E-1
2.180545588E1,-1.005768895E0,-9.736351967E0,-6.018958092E-1
2.182564973E1,-1.011702538E0,-9.740319252E0,-5.225247145E-1
2.184584369E1,-1.025418401E0,-9.742133141E0,-4.579873383E-1
2.186604848E1,-1.046336532E0,-9.740975380E0,-4.346980453E-1
2.188622848E1,-1.086691022E0,-9.736531258E0,-4.352467358E-1
2.190640879E1,-1.150221705E0,-9.728666306E0,-4.476846457E-1
2.192658984E1,-1.234338164E0,-9.717174530E0,-4.725673199E-1
2.194677192E1,-1.317231894E0,-9.705944061E0,-4.795184135E-1
2.196695536E1,-1.369885683E0,-9.699555397E0,-4.608981609E-1
2.198714036E1,-1.390147328E0,-9.697669029E0,-4.394355714E-1
2.200732702E1,-1.387136459E0,-9.698295593E0,-4.351057410E-1
2.202751546E1,-1.375938058E0,-9.699487686E0,-4.440048635E-1
2.204770556E1,-1.370375514E0,-9.699604988E0,-4.583823085E-1
2.206789734E1,-1.379078984E0,-9.697755814E0,-4.712531269E-1
2.208809056E1,-1.404377460E0,-9.694030762E0,-4.731428921E-1
2.210828515E1,-1.442068458E0,-9.688488960E0,-4.733002782E-1
2.212848077E1,-1.482727170E0,-9.682275772E0,-4.748106003E-1
2.214867723E1,-1.507614493E0,-9.678598404E0,-4.714237154E-1
2.216887421E1,-1.516275525E0,-9.677502632E0,-4.660967886E-1
2.218907140E1,-1.514774323E0,-9.677981377E0,-4.610005915E-1
2.220926734E1,-1.508916259E0,-9.679248810E0,-4.535381198E-1
2.222945734E1,-1.505305529E0,-9.680127144E0,-4.467337728E-1
2.224964723E1,-1.508573294E0,-9.679628372E0,-4.465509057E-1
2.226983171E1,-1.517760038E0,-9.678129196E0,-4.478963912E-1
2.229001661E1,-1.532593608E0,-9.676032066E0,-4.426695406E-1
2.231020202E1,-1.550374031E0,-9.673542976E0,-4.350640178E-1
2.233038817E1,-1.567938447E0,-9.671000481E0,-4.286086559E-1
2.235057515E1,-1.583588243E0,-9.668653488E0,-4.240157306E-1
2.237076307E1,-1.597488046E0,-9.666359901E0,-4.241509438E-1
2.239095192E1,-1.610187054E0,-9.664151192E0,-4.264634848E-1
2.241114171E1,-1.621679306E0,-9.662307739E0,-4.246909022E-1
2.243133244E1,-1.634149551E0,-9.660376549E0,-4.207904339E-1
2.245152400E1,-1.646838427E0,-9.658367157E0,-4.174224734E-1
2.247171640E1,-1.661478639E0,-9.656121254E0,-4.113531113E-1
2.249190942E1,-1.676739454E0,-9.653665543E0,-4.070199728E-1
2.251210296E1,-1.689550161E0,-9.651494026E0,-4.055515528E-1
2.253229682E1,-1.695739031E0,-9.650325775E0,-4.075344503E-1
2.255249088E1,-1.699200988E0,-9.649221420E0,-4.190739691E-1
2.257269577E1,-1.702898622E0,-9.647730827E0,-4.379507005E-1
2.259287598E1,-1.707484007E0,-9.646142960E0,-4.547580183E-1
2.261305650E1,-1.713776946E0,-9.644232750E0,-4.713184834E-1
2.263323775E1,-1.727410555E0,-9.641167641E0,-4.840668738E-1
2.265342004E1,-1.754292727E0,-9.636391640E0,-4.825038612E-1
2.267360359E1,-1.794836044E0,-9.629496574E0,-4.708959758E-1
2.269378859E1,-1.843058109E0,-9.621225357E0,-4.533752203E-1
2.271397525E1,-1.885478258E0,-9.613866806E0,-4.346537292E-1
2.273416359E1,-1.909124136E0,-9.609544754E0,-4.269424975E-1
2.275435359E1,-1.910483122E0,-9.608838081E0,-4.366629720E-1
2.277454525E1,-1.902360201E0,-9.609663963E0,-4.536008239E-1
2.279473838E1,-1.894675851E0,-9.610591888E0,-4.659714997E-1
2.281493275E1,-1.890518546E0,-9.611274719E0,-4.687380493E-1
2.283512817E1,-1.890223265E0,-9.611669540E0,-4.617905617E-1
2.285532442E1,-1.887895823E0,-9.612473488E0,-4.545261562E-1
2.287552119E1,-1.881834984E0,-9.613570213E0,-4.564436078E-1
2.289571817E1,-1.874648452E0,-9.614352226E0,-4.693833590E-1
2.291591484E1,-1.872483969E0,-9.613921165E0,-4.865291417E-1
2.293610473E1,-1.877481699E0,-9.612427711E0,-4.966787100E-1
2.295628921E1,-1.887370586E0,-9.610558510E0,-4.953602850E-1
2.297647411E1,-1.898693919E0,-9.608776093E0,-4.865873158E-1
2.299665952E1,-1.905213356E0,-9.608233452E0,-4.715842903E-1
2.301684567E1,-1.903758645E0,-9.609272957E0,-4.560314119E-1
2.303703265E1,-1.901811481E0,-9.610011101E0,-4.485536218E-1
2.305722056E1,-1.901319742E0,-9.610432625E0,-4.415458739E-1
2.307740942E1,-1.896207690E0,-9.612155914E0,-4.257141054E-1
2.309759921E1,-1.885386348E0,-9.614978790E0,-4.097441137E-1
2.311778994E1,-1.869784474E0,-9.618381500E0,-4.012717307E-1
2.313798150E1,-1.850249171E0,-9.622401237E0,-3.954457045E-1
2.315817390E1,-1.829845786E0,-9.626499176E0,-3.905927539E-1
2.317836692E1,-1.811460137E0,-9.630025864E0,-3.893493414E-1
2.319856046E1,-1.797163248E0,-9.632624626E0,-3.913158774E-1
2.321875432E1,-1.786781549E0,-9.634347916E0,-3.964056969E-1
2.323894838E1,-1.779905081E0,-9.635499954E0,-3.993260264E-1
2.325915327E1,-1.777305722E0,-9.636006355E0,-3.986968696E-1
2.327933348E1,-1.777742267E0,-9.636094093E0,-3.945971429E-1
2.329951400E1,-1.781209111E0,-9.635658264E0,-3.895784020E-1
2.331969525E1,-1.780802131E0,-9.635951042E0,-3.841768801E-1
2.333987754E1,-1.776036024E0,-9.636992455E0,-3.800837398E-1
2.336006109E1,-1.767961383E0,-9.638521194E0,-3.789490461E-1
2.338024609E1,-1.759288073E0,-9.640053749E0,-3.803259730E-1
2.340043275E1,-1.750043631E0,-9.641676903E0,-3.818443418E-1
2.342062109E1,-1.739234805E0,-9.643736839E0,-3.792143166E-1
2.344081109E1,-1.728000879E0,-9.645909309E0,-3.752917647E-1
2.346100275E1,-1.716476202E0,-9.647926331E0,-3.763195276E-1
2.348119588E1,-1.705638647E0,-9.649649620E0,-3.813506365E-1
2.350139025E1,-1.695468545E0,-9.651179314E0,-3.879576325E-1
2.352158567E1,-1.687424779E0,-9.652293205E0,-3.952578008E-1
2.354178192E1,-1.681467891E0,-9.653226852E0,-3.978192210E-1
2.356197869E1,-1.676953793E0,-9.654058456E0,-3.967084885E-1
2.358217567E1,-1.672017813E0,-9.655056000E0,-3.932622075E-1
2.360237223E1,-1.663848519E0,-9.656596184E0,-3.900483251E-1
2.362256213E1,-1.654352427E0,-9.658389091E0,-3.860659301E-1
2.364274661E1,-1.646764994E0,-9.659867287E0,-3.814669251E-1
2.366293150E1,-1.642283201E0,-9.660816193E0,-3.767113686E-1
2.368311692E1,-1.641084909E0,-9.661409378E0,-3.666020036E-1
2.370330306E1,-1.640254617E0,-9.662043571E0,-3.533498347E-1
2.372349004E1,-1.636540651E0,-9.663103104E0,-3.413927257E-1
2.374367796E1,-1.637726665E0,-9.663073540E0,-3.365094662E-1
2.376386682E1,-1.642097235E0,-9.662445068E0,-3.332563639E-1
2.378405661E1,-1.650746942E0,-9.661277771E0,-3.242540061E-1
2.380424734E1,-1.658430219E0,-9.660228729E0,-3.161888719E-1
2.382443890E1,-1.663931847E0,-9.659175873E0,-3.194348812E-1
2.384463119E1,-1.667752028E0,-9.657718658E0,-3.427603841E-1
2.386482411E1,-1.665769815E0,-9.656214714E0,-3.913072944E-1
2.388501754E1,-1.655051470E0,-9.654849052E0,-4.637951851E-1
2.390521129E1,-1.629369020E0,-9.654942513E0,-5.455671549E-1
2.392540525E1,-1.590055466E0,-9.656843185E0,-6.224772930E-1
2.394561004E1,-1.579460025E0,-9.654833794E0,-6.781352758E-1
2.396579067E1,-1.572883248E0,-9.652974129E0,-7.186976671E-1
2.398597161E1,-1.566729188E0,-9.652390480E0,-7.396743298E-1
2.400615317E1,-1.553570747E0,-9.653882027E0,-7.478924394E-1
2.402633567E1,-1.539955854E0,-9.655409813E0,-7.562929988E-1
2.404651942E1,-1.527336836E0,-9.656074524E0,-7.731999159E-1
2.406670463E1,-1.511983752E0,-9.656910896E0,-7.926892042E-1
2.408689140E1,-1.498210907E0,-9.658028603E0,-8.051350117E-1
2.410707984E1,-1.488317966E0,-9.659438133E0,-8.065664172E-1
2.412726984E1,-1.476446152E0,-9.662299156E0,-7.940117717E-1
2.414746140E1,-1.458798766E0,-9.667565346E0,-7.619010210E-1
2.416765442E1,-1.438174963E0,-9.674104691E0,-7.167549133E-1
2.418784869E1,-1.422422647E0,-9.679217339E0,-6.781244874E-1
2.420804400E1,-1.412278533E0,-9.681992531E0,-6.594545245E-1
2.422824004E1,-1.397081137E0,-9.684144974E0,-6.602171659E-1
2.424843661E1,-1.374506354E0,-9.686352730E0,-6.750444770E-1
2.426863338E1,-1.351411343E0,-9.687909126E0,-6.989216208E-1
2.428882900E1,-1.329605341E0,-9.688718796E0,-7.288767695E-1
2.430901890E1,-1.310955524E0,-9.688577652E0,-7.637033463E-1
2.432920338E1,-1.296915412E0,-9.687600136E0,-7.992508411E-1
2.434938827E1,-1.290281534E0,-9.685911179E0,-8.298704028E-1
2.436957369E1,-1.294736624E0,-9.683081627E0,-8.555585742E-1
2.438975984E1,-1.302506328E0,-9.680207253E0,-8.760496378E-1
2.440994682E1,-1.303231359E0,-9.678949356E0,-8.887769580E-1
2.443013473E1,-1.297749162E0,-9.679466248E0,-8.911543489E-1
2.445032359E1,-1.294041157E0,-9.680860519E0,-8.813479543E-1
2.447051338E1,-1.295336008E0,-9.682197571E0,-8.645960689E-1
2.449070411E1,-1.292283654E0,-9.683767319E0,-8.514840603E-1
2.451089567E1,-1.284576535E0,-9.685207367E0,-8.467578888E-1
2.453108796E1,-1.277972221E0,-9.685766220E0,-8.503456712E-1
2.455128088E1,-1.273455143E0,-9.685780525E0,-8.569507599E-1
2.457147432E1,-1.266551375E0,-9.686173439E0,-8.627142310E-1
2.459166806E1,-1.256049275E0,-9.686908722E0,-8.697808981E-1
2.461186202E1,-1.244339108E0,-9.687301636E0,-8.821455836E-1
2.463206682E1,-1.235642552E0,-9.686683655E0,-9.009653926E-1
2.465224713E1,-1.229369402E0,-9.685442924E0,-9.226264954E-1
2.467242775E1,-1.222533345E0,-9.684194565E0,-9.445461631E-1
2.469260911E1,-1.211910129E0,-9.683523178E0,-9.649084210E-1
2.471279150E1,-1.196713686E0,-9.683490753E0,-9.840096235E-1
2.473297515E1,-1.180582643E0,-9.683437347E0,-1.003812790E0
2.475316025E1,-1.165392280E0,-9.683198929E0,-1.023677707E0
2.477334692E1,-1.155908585E0,-9.683165550E0,-1.034687519E0
2.479353525E1,-1.149984241E0,-9.683657646E0,-1.036672115E0
2.481372525E1,-1.143405437E0,-9.684807777E0,-1.033202291E0
2.483391682E1,-1.134673119E0,-9.686431885E0,-1.027582169E0
2.485410984E1,-1.124851227E0,-9.688194275E0,-1.021759391E0
2.487430411E1,-1.115739465E0,-9.689794540E0,-1.016558051E0
2.489449942E1,-1.109595418E0,-9.690988541E0,-1.011885643E0
2.491469557E1,-1.108701229E0,-9.691576958E0,-1.007219672E0
2.493489223E1,-1.111625671E0,-9.691507339E0,-1.004667759E0
2.495508911E1,-1.114505410E0,-9.691047668E0,-1.005920649E0
2.497528525E1,-1.117329001E0,-9.690127373E0,-1.011626840E0
2.499547504E1,-1.122694850E0,-9.688668251E0,-1.019634843E0
2.501565942E1,-1.128456593E0,-9.687056541E0,-1.028545499E0
2.503584421E1,-1.132171035E0,-9.685510635E0,-1.038971901E0
2.505602963E1,-1.132691741E0,-9.684126854E0,-1.051228881E0
2.507621577E1,-1.131299257E0,-9.682869911E0,-1.064229727E0
2.509640275E1,-1.129745364E0,-9.681696892E0,-1.076471448E0
2.511659067E1,-1.129651189E0,-9.680468559E0,-1.087569118E0
2.513677952E1,-1.130638003E0,-9.679054260E0,-1.099072337E0
2.515696932E1,-1.132825494E0,-9.677291870E0,-1.112257242E0
2.517716004E1,-1.135673523E0,-9.675200462E0,-1.127445221E0
2.519735161E1,-1.139166236E0,-9.672728539E0,-1.144990206E0
2.521754390E1,-1.145584106E0,-9.669537544E0,-1.165365458E0
2.523773682E1,-1.152461052E0,-9.665814400E0,-1.189216614E0
2.525793025E1,-1.158300400E0,-9.662236214E0,-1.212396860E0
2.527812400E1,-1.161221623E0,-9.659417152E0,-1.231914043E0
2.529831796E1,-1.163169622E0,-9.657129288E0,-1.247898936E0
2.531852275E1,-1.164268613E0,-9.655385971E0,-1.260316730E0
2.533870286E1,-1.162293434E0,-9.654670715E0,-1.267594934E0
2.535888327E1,-1.156713367E0,-9.655094147E0,-1.269473195E0
2.537906442E1,-1.144151211E0,-9.656569481E0,-1.269633770E0
2.539924661E1,-1.124666691E0,-9.658860207E0,-1.269616842E0
2.541943004E1,-1.101068497E0,-9.660245895E0,-1.279723287E0
2.543961494E1,-1.078294158E0,-9.658096313E0,-1.314857364E0
2.545980150E1,-1.040720940E0,-9.659843445E0,-1.332179308E0
2.547998973E1,-1.020465732E0,-9.655853271E0,-1.376056433E0
2.550017963E1,-1.017583847E0,-9.645262718E0,-1.450450659E0
2.552037119E1,-1.032574177E0,-9.629728317E0,-1.540291071E0
2.554056421E1,-1.065493822E0,-9.612262726E0,-1.624661088E0
2.556075859E1,-1.105942845E0,-9.598575592E0,-1.677684546E0
2.558095400E1,-1.129005790E0,-9.596997261E0,-1.671344042E0
2.560115025E1,-1.126572609E0,-9.607766151E0,-1.609985232E0
2.562134702E1,-1.104946613E0,-9.624006271E0,-1.525771141E0
2.564154400E1,-1.066198826E0,-9.641473770E0,-1.440688848E0
2.566174067E1,-1.015440583E0,-9.658375740E0,-1.362005115E0
2.568193046E1,-9.585996270E-1,-9.673089027E0,-1.297235370E0
2.570211484E1,-8.957949877E-1,-9.684987068E0,-1.252578020E0
2.572229963E1,-8.228682876E-1,-9.694998741E0,-1.224855185E0
2.574248504E1,-7.426745892E-1,-9.703446388E0,-1.209105730E0
2.576267119E1,-6.684868336E-1,-9.709015846E0,-1.207689285E0
2.578285817E1,-6.112320423E-1,-9.711301804E0,-1.219589949E0
2.580304609E1,-5.763730407E-1,-9.712952614E0,-1.223413587E0
2.582323494E1,-5.566853881E-1,-9.716966629E0,-1.200435877E0
2.584342473E1,-5.517476797E-1,-9.722482681E0,-1.157277107E0
2.586361546E1,-5.751208067E-1,-9.725810051E0,-1.117249727E0
2.588380702E1,-6.314769983E-1,-9.724663734E0,-1.096601129E0
2.590399932E1,-7.085465789E-1,-9.719409943E0,-1.096090555E0
2.592419223E1,-7.614671588E-1,-9.716258049E0,-1.088524938E0
2.594438567E1,-7.387584448E-1,-9.724069595E0,-1.033001781E0
2.596457942E1,-6.529918909E-1,-9.740972519E0,-9.259759188E-1
2.598477327E1,-5.651181340E-1,-9.757144928E0,-8.056975603E-1
2.600497796E1,-5.176021457E-1,-9.766805649E0,-7.155253887E-1
2.602515786E1,-5.294949412E-1,-9.769059181E0,-6.749179959E-1
2.604533807E1,-5.818839073E-1,-9.766667366E0,-6.663325429E-1
2.606551900E1,-6.430839896E-1,-9.763266563E0,-6.598792672E-1
2.608570098E1,-7.131135464E-1,-9.760027885E0,-6.353856921E-1
2.610588432E1,-7.976393700E-1,-9.756891251E0,-5.807099342E-1
2.612606921E1,-8.902289271E-1,-9.753552437E0,-4.960939586E-1
2.614625577E1,-9.778805971E-1,-9.750204086E0,-3.842566311E-1
2.616644411E1,-1.041981816E0,-9.748005867E0,-2.470661998E-1
2.618663411E1,-1.079527974E0,-9.746516228E0,-1.021348909E-1
2.620682577E1,-1.090761185E0,-9.745766640E0,2.579245530E-2
2.622701890E1,-1.079457521E0,-9.746154785E0,1.328077465E-1
2.624721338E1,-1.055497527E0,-9.747204781E0,2.197846323E-1
2.626740890E1,-1.029449821E0,-9.748370171E0,2.826497555E-1
2.628760525E1,-1.011463404E0,-9.749065399E0,3.210093677E-1
2.630780213E1,-1.001428366E0,-9.749333382E0,3.435494900E-1
2.632799921E1,-9.965215921E-1,-9.748803139E0,3.717330992E-1
2.634819536E1,-1.003430724E0,-9.746181488E0,4.188778698E-1
2.636838515E1,-1.028399944E0,-9.740779877E0,4.795594513E-1
2.638856952E1,-1.068629384E0,-9.733246803E0,5.406858325E-1
2.640875432E1,-1.112306714E0,-9.725038528E0,5.973059535E-1
2.642893963E1,-1.151577592E0,-9.717030525E0,6.508336663E-1
2.644912567E1,-1.191499352E0,-9.709380150E0,6.918395758E-1
2.646931254E1,-1.230474353E0,-9.702607155E0,7.181301713E-1
2.648950036E1,-1.266237378E0,-9.695899963E0,7.460149527E-1
2.650968911E1,-1.299020171E0,-9.687618256E0,7.955976725E-1
2.652987879E1,-1.335457444E0,-9.677103996E0,8.605709076E-1
2.655006942E1,-1.370412111E0,-9.666802406E0,9.193976521E-1
2.657026098E1,-1.383972287E0,-9.660940170E0,9.598186612E-1
2.659045327E1,-1.366514921E0,-9.661003113E0,9.838878512E-1
2.661064619E1,-1.330988050E0,-9.664005280E0,1.002923608E0
2.663083963E1,-1.297642231E0,-9.665982246E0,1.027278900E0
2.665103338E1,-1.275910735E0,-9.665099144E0,1.062220693E0
2.667122734E1,-1.265139937E0,-9.662482262E0,1.098291755E0
2.669143213E1,-1.260141969E0,-9.660918236E0,1.117624640E0
2.671161234E1,-1.253854275E0,-9.662810326E0,1.108297348E0
2.673179286E1,-1.249950051E0,-9.667262077E0,1.073341012E0
2.675197411E1,-1.245054245E0,-9.672919273E0,1.027073622E0
2.677215640E1,-1.233319044E0,-9.679656029E0,9.765050411E-1
2.679233994E1,-1.214355111E0,-9.687351227E0,9.224672914E-1
2.681252494E1,-1.181430101E0,-9.696452141E0,8.680031896E-1
2.683271150E1,-1.129536748E0,-9.707189560E0,8.154704571E-1
2.685289973E1,-1.056661606E0,-9.720379829E0,7.537149191E-1
2.687308963E1,-9.838722944E-1,-9.734453201E0,6.654351354E-1
2.689328109E1,-9.272532463E-1,-9.746322632E0,5.655058026E-1
2.691347400E1,-8.868463039E-1,-9.754863739E0,4.759395421E-1
2.693366817E1,-8.600686193E-1,-9.760420799E0,4.060096145E-1
2.695386338E1,-8.610497117E-1,-9.762433052E0,3.519970477E-1
2.697405942E1,-8.847393990E-1,-9.761690140E0,3.115075231E-1
2.699425598E1,-9.031361341E-1,-9.761013031E0,2.781297863E-1
2.701445275E1,-9.018885493E-1,-9.762136459E0,2.401676029E-1
2.703464411E1,-8.780768514E-1,-9.765183449E0,2.014101893E-1
2.705483556E1,-8.471844196E-1,-9.768534660E0,1.684816331E-1
2.707503786E1,-8.278023005E-1,-9.770642281E0,1.403325498E-1
2.709521900E1,-8.142197132E-1,-9.772109032E0,1.154173985E-1
2.711540046E1,-7.915080786E-1,-9.774200439E0,9.423346817E-2
2.713558254E1,-7.705594301E-1,-9.776088715E0,6.862027943E-2
2.715576557E1,-7.747011185E-1,-9.775967598E0,2.610294335E-2
2.717594973E1,-8.056807518E-1,-9.773432732E0,-3.570232168E-2
2.719613525E1,-8.612510562E-1,-9.768000603E0,-1.216936335E-1
2.721632223E1,-9.326500297E-1,-9.759473801E0,-2.307058424E-1
2.723651067E1,-1.004935145E0,-9.748942375E0,-3.444190919E-1
2.725670057E1,-1.060205579E0,-9.739274025E0,-4.391878843E-1
2.727689192E1,-1.091583371E0,-9.732651711E0,-5.043233633E-1
2.729708463E1,-1.097704291E0,-9.729470253E0,-5.502976179E-1
2.731727848E1,-1.077790618E0,-9.728927612E0,-5.972559452E-1
2.733747327E1,-1.047085166E0,-9.728705406E0,-6.529131532E-1
2.735766879E1,-1.016480207E0,-9.728112221E0,-7.078103423E-1
2.737786473E1,-9.901831150E-1,-9.727175713E0,-7.563019395E-1
2.739806088E1,-9.727810025E-1,-9.724817276E0,-8.074759245E-1
2.741825598E1,-9.647933245E-1,-9.720340729E0,-8.686431646E-1
2.743844588E1,-9.596641064E-1,-9.714553833E0,-9.364217520E-1
2.745863567E1,-9.505339861E-1,-9.708540916E0,-1.005540609E0
2.747882004E1,-9.376730919E-1,-9.702412605E0,-1.074406624E0
2.749900484E1,-9.216558337E-1,-9.696119308E0,-1.142888665E0
2.751919015E1,-9.023697376E-1,-9.690114021E0,-1.207391500E0
2.753937619E1,-8.820498586E-1,-9.684709549E0,-1.264424682E0
2.755956307E1,-8.674046993E-1,-9.679203033E0,-1.315682054E0
2.757975088E1,-8.660679460E-1,-9.672292709E0,-1.366410255E0
2.759993963E1,-8.782292008E-1,-9.663516045E0,-1.419702888E0
2.762012932E1,-8.974179029E-1,-9.654308319E0,-1.469477296E0
2.764031994E1,-9.174484015E-1,-9.646457672E0,-1.508155346E0
2.766051140E1,-9.311691523E-1,-9.640869141E0,-1.535238385E0
2.768070359E1,-9.321914315E-1,-9.637732506E0,-1.554192185E0
2.770089640E1,-9.177002311E-1,-9.637122154E0,-1.566552639E0
2.772108973E1,-8.898525834E-1,-9.639213562E0,-1.569746852E0
2.774128338E1,-8.524882197E-1,-9.643548012E0,-1.563850403E0
2.776147723E1,-8.100993037E-1,-9.648885727E0,-1.553429246E0
2.778168192E1,-7.668200135E-1,-9.654204369E0,-1.542311192E0
2.780186244E1,-7.278112173E-1,-9.658713341E0,-1.532949567E0
2.782204327E1,-6.970394850E-1,-9.661992073E0,-1.526580930E0
2.784222473E1,-6.806278825E-1,-9.663946152E0,-1.521607280E0
2.786240713E1,-6.884666085E-1,-9.663262367E0,-1.522423983E0
2.788259077E1,-7.248781919E-1,-9.657182693E0,-1.543946505E0
2.790277588E1,-7.913010716E-1,-9.643670082E0,-1.594949841E0
2.792296254E1,-8.683789968E-1,-9.628024101E0,-1.648469448E0
2.794315088E1,-9.132163525E-1,-9.622900963E0,-1.654140830E0
2.796334088E1,-8.932704329E-1,-9.633515358E0,-1.602449179E0
2.798353244E1,-8.292083740E-1,-9.650567055E0,-1.532754064E0
2.800372546E1,-7.643305063E-1,-9.664266586E0,-1.479232669E0
2.802391973E1,-7.105596662E-1,-9.674008369E0,-1.441891551E0
2.804411504E1,-6.640517712E-1,-9.681594849E0,-1.412849665E0
2.806431109E1,-6.309577823E-1,-9.685201645E0,-1.403259993E0
2.808450754E1,-6.211348176E-1,-9.683793068E0,-1.417296648E0
2.810470421E1,-6.478893757E-1,-9.680473328E0,-1.427959681E0
2.812489932E1,-7.108875513E-1,-9.678391457E0,-1.412011266E0
2.814508911E1,-7.853618264E-1,-9.676823616E0,-1.382992506E0
2.816527348E1,-8.485935330E-1,-9.675410271E0,-1.355252147E0
2.818545827E1,-8.889790773E-1,-9.675925255E0,-1.325363994E0
2.820564359E1,-8.988140225E-1,-9.680379868E0,-1.285594940E0
2.822582963E1,-8.779939413E-1,-9.688920021E0,-1.234641671E0
2.824601650E1,-8.364672065E-1,-9.699460030E0,-1.179489255E0
2.826620432E1,-7.958354950E-1,-9.709130287E0,-1.126866579E0
2.828639307E1,-7.796015739E-1,-9.714852333E0,-1.088229895E0
2.830658275E1,-7.989575863E-1,-9.715645790E0,-1.066898108E0
2.832677338E1,-8.383439183E-1,-9.714115143E0,-1.050490499E0
2.834696484E1,-8.773425817E-1,-9.712955475E0,-1.029151559E0
2.836715702E1,-9.043143392E-1,-9.713304520E0,-1.002157688E0
2.838734984E1,-9.155998230E-1,-9.715317726E0,-9.719318748E-1
2.840754317E1,-9.142028093E-1,-9.718603134E0,-9.398711920E-1
2.842773682E1,-9.079695940E-1,-9.722628593E0,-9.035913348E-1
2.844793067E1,-9.053362608E-1,-9.726563454E0,-8.629765511E-1
2.846813536E1,-9.115335941E-1,-9.729535103E0,-8.219682574E-1
2.848831567E1,-9.248526096E-1,-9.731436729E0,-7.836833000E-1
2.850849629E1,-9.416363239E-1,-9.732650757E0,-7.478035092E-1
2.852867765E1,-9.584109187E-1,-9.733612061E0,-7.131896019E-1
2.854886004E1,-9.737961292E-1,-9.734584808E0,-6.781973839E-1
2.856904369E1,-9.881546497E-1,-9.735579491E0,-6.421973109E-1
2.858922879E1,-9.999835491E-1,-9.736755371E0,-6.049972177E-1
2.860941546E1,-1.008087158E0,-9.738217354E0,-5.668142438E-1
2.862960379E1,-1.012770772E0,-9.739921570E0,-5.278452039E-1
2.864979379E1,-1.015665412E0,-9.741723061E0,-4.874999523E-1
2.866998536E1,-1.019703269E0,-9.743294716E0,-4.458716810E-1
2.869017838E1,-1.027381301E0,-9.744360924E0,-4.028778374E-1
2.871037265E1,-1.040729523E0,-9.744630814E0,-3.597523272E-1
2.873056796E1,-1.061107516E0,-9.743853569E0,-3.190225959E-1
2.875076400E1,-1.087935567E0,-9.741988182E0,-2.836476862E-1
2.877096046E1,-1.118080139E0,-9.739368439E0,-2.549477220E-1
2.879115713E1,-1.148900270E0,-9.736366272E0,-2.315078527E-1
2.881135234E1,-1.165535450E0,-9.734807014E0,-2.131851315E-1
2.883154213E1,-1.179027319E0,-9.733642578E0,-1.910092384E-1
2.885172650E1,-1.190146446E0,-9.732768059E0,-1.648700833E-1
2.887191129E1,-1.199424028E0,-9.732096672E0,-1.344636381E-1
2.889209661E1,-1.209710836E0,-9.731216431E0,-1.020217091E-1
2.891228265E1,-1.223991513E0,-9.729715347E0,-6.991750002E-2
2.893246952E1,-1.242791057E0,-9.727491379E0,-4.196599871E-2
2.895265734E1,-1.265625477E0,-9.724617958E0,-1.965314522E-2
2.897284609E1,-1.291063190E0,-9.721292496E0,-4.728154745E-3
2.899303577E1,-1.317492008E0,-9.717745781E0,5.113118328E-3
2.901322640E1,-1.340533495E0,-9.714590073E0,1.000433322E-2
2.903341786E1,-1.357685089E0,-9.712207794E0,1.083832700E-2
2.905361004E1,-1.368304133E0,-9.710717201E0,1.036157552E-2
2.907380286E1,-1.371623278E0,-9.710249901E0,8.779745549E-3
2.909399619E1,-1.369555593E0,-9.710543633E0,6.551654544E-3
2.911418984E1,-1.364718437E0,-9.711226463E0,2.376157092E-3
2.913438369E1,-1.358725190E0,-9.712065697E0,-4.445922561E-3
2.915458838E1,-1.353033543E0,-9.712853432E0,-1.295009349E-2
2.917476848E1,-1.347960114E0,-9.713541985E0,-2.233266644E-2
2.919494890E1,-1.344212055E0,-9.714033127E0,-3.251436725E-2
2.921513004E1,-1.341431737E0,-9.714369774E0,-4.426275939E-2
2.923531223E1,-1.338534713E0,-9.714697838E0,-5.799057707E-2
2.925549567E1,-1.334501505E0,-9.715142250E0,-7.410848886E-2
2.927568057E1,-1.328390598E0,-9.715818405E0,-9.296685457E-2
2.929586713E1,-1.320549250E0,-9.716665268E0,-1.138309315E-1
2.931605536E1,-1.311970830E0,-9.717532158E0,-1.367082149E-1
2.933624525E1,-1.302589059E0,-9.718426704E0,-1.607541740E-1
2.935643671E1,-1.292680144E0,-9.719291687E0,-1.863691211E-1
2.937662963E1,-1.282792687E0,-9.720049858E0,-2.132595927E-1
2.939682379E1,-1.273444414E0,-9.720591545E0,-2.425482571E-1
2.941701900E1,-1.264847279E0,-9.720879555E0,-2.739401162E-1
2.943721504E1,-1.256811619E0,-9.720954895E0,-3.063469827E-1
2.945741161E1,-1.249321103E0,-9.720834732E0,-3.390483558E-1
2.947760838E1,-1.241832376E0,-9.720638275E0,-3.707080185E-1
2.949780494E1,-1.233769655E0,-9.720456123E0,-4.011561275E-1
2.951799463E1,-1.225748897E0,-9.720204353E0,-4.307558537E-1
2.953817890E1,-1.216728330E0,-9.719993591E0,-4.600985050E-1
2.955836359E1,-1.206017852E0,-9.719808578E0,-4.911541045E-1
2.957854890E1,-1.194466949E0,-9.719563484E0,-5.231807232E-1
2.959873494E1,-1.182379127E0,-9.719177246E0,-5.567185283E-1
2.961892182E1,-1.169529796E0,-9.718626976E0,-5.923470855E-1
2.963910963E1,-1.156231284E0,-9.717897415E0,-6.292682886E-1
2.965929838E1,-1.142066956E0,-9.717027664E0,-6.674041748E-1
2.967948806E1,-1.128294945E0,-9.715867996E0,-7.065744400E-1
2.969967869E1,-1.114106536E0,-9.714483261E0,-7.469713092E-1
2.971987015E1,-1.098812222E0,-9.712898254E0,-7.890601158E-1
2.974006234E1,-1.082809091E0,-9.711153984E0,-8.315081596E-1
2.976025515E1,-1.065805912E0,-9.709428787E0,-8.726114631E-1
2.978044848E1,-1.049248099E0,-9.707772255E0,-9.102918506E-1
2.980064213E1,-1.034343004E0,-9.706310272E0,-9.423697591E-1
2.982083598E1,-1.022724986E0,-9.704957962E0,-9.686073065E-1
2.984104067E1,-1.014329433E0,-9.703598976E0,-9.907987118E-1
2.986122077E1,-1.008063197E0,-9.702251434E0,-1.010202408E0
2.988140119E1,-1.003567815E0,-9.700785637E0,-1.028577566E0
2.990158234E1,-1.000172973E0,-9.699393272E0,-1.044899106E0
2.992176452E1,-9.982156754E-1,-9.698060989E0,-1.059036016E0
2.994194796E1,-9.987199306E-1,-9.696441650E0,-1.073292851E0
2.996213286E1,-1.000516057E0,-9.694407463E0,-1.089871526E0
2.998231942E1,-1.000819802E0,-9.692186356E0,-1.109182835E0
3.000250765E1,-9.981988668E-1,-9.690008163E0,-1.130365014E0
3.002269754E1,-9.916484356E-1,-9.688032150E0,-1.152851105E0
3.004288900E1,-9.795832038E-1,-9.686365128E0,-1.176914215E0
3.006308192E1,-9.630938768E-1,-9.684799194E0,-1.203123331E0
3.008327609E1,-9.448063374E-1,-9.682786942E0,-1.233429432E0
3.010347129E1,-9.279036522E-1,-9.679920197E0,-1.268280983E0
3.012366734E1,-9.146392941E-1,-9.675858498E0,-1.308280349E0
3.014386390E1,-9.066204429E-1,-9.671018600E0,-1.349015474E0
3.016406067E1,-9.021034837E-1,-9.666771889E0,-1.382074594E0
3.018425702E1,-8.972775936E-1,-9.664600372E0,-1.400282502E0
3.020444682E1,-8.922651410E-1,-9.664029121E0,-1.407409191E0
3.022463119E1,-8.898841739E-1,-9.663241386E0,-1.414307117E0
3.024481598E1,-8.911381960E-1,-9.660824776E0,-1.429929852E0
3.026500129E1,-8.933033943E-1,-9.657494545E0,-1.450925112E0
3.028518734E1,-8.946316242E-1,-9.654642105E0,-1.468982339E0
3.030537421E1,-8.965523839E-1,-9.652565956E0,-1.481402636E0
3.032556202E1,-8.977639675E-1,-9.650600433E0,-1.493421316E0
3.034575077E1,-8.978310823E-1,-9.648333549E0,-1.507961631E0
3.036594046E1,-8.981253505E-1,-9.646222115E0,-1.521234274E0
3.038613109E1,-8.992897868E-1,-9.644766808E0,-1.529748440E0
3.040632254E1,-9.033120871E-1,-9.643599510E0,-1.534723997E0
3.042651473E1,-9.101272225E-1,-9.642522812E0,-1.537465811E0
3.044670754E1,-9.189624786E-1,-9.641738892E0,-1.537129760E0
3.046690088E1,-9.281271696E-1,-9.641653061E0,-1.532148480E0
3.048709452E1,-9.361091256E-1,-9.642163277E0,-1.524070978E0
3.050728827E1,-9.444024563E-1,-9.643231392E0,-1.512140393E0
3.052749286E1,-9.497308135E-1,-9.645161629E0,-1.496412873E0
3.054767275E1,-9.506914616E-1,-9.647489548E0,-1.480717182E0
3.056785296E1,-9.477259517E-1,-9.649419785E0,-1.469997406E0
3.058803390E1,-9.385310411E-1,-9.650906563E0,-1.466132522E0
3.060821588E1,-9.227204323E-1,-9.652448654E0,-1.466018081E0
3.062839921E1,-9.024331570E-1,-9.654109955E0,-1.467704654E0
3.064858400E1,-8.789749742E-1,-9.656041145E0,-1.469243407E0
3.066877046E1,-8.535729647E-1,-9.658241272E0,-1.469751358E0
3.068895859E1,-8.281190991E-1,-9.660636902E0,-1.468570352E0
3.070914838E1,-8.020161986E-1,-9.663467407E0,-1.464431167E0
3.072933984E1,-7.767755389E-1,-9.666905403E0,-1.455311179E0
3.074953275E1,-7.530061603E-1,-9.670783997E0,-1.441981196E0
3.076972702E1,-7.315527201E-1,-9.674851418E0,-1.425647497E0
3.078992234E1,-7.157454491E-1,-9.678798676E0,-1.406750560E0
3.081011848E1,-7.046595216E-1,-9.683097839E0,-1.382557154E0
3.083031515E1,-6.970672607E-1,-9.687705994E0,-1.353823900E0
3.085051202E1,-6.938062310E-1,-9.692400932E0,-1.321508050E0
3.087070879E1,-6.948314309E-1,-9.696994781E0,-1.286816359E0
3.089089848E1,-6.994503736E-1,-9.701330185E0,-1.251136303E0
3.091108275E1,-7.055492401E-1,-9.705781937E0,-1.212595224E0
3.093126744E1,-7.115999460E-1,-9.710456848E0,-1.170911074E0
3.095145275E1,-7.153248191E-1,-9.715340614E0,-1.127320766E0
3.097163879E1,-7.162069678E-1,-9.720226288E0,-1.083804727E0
3.099182567E1,-7.144482136E-1,-9.724916458E0,-1.042088389E0
3.101201348E1,-7.113779187E-1,-9.729255676E0,-1.002952695E0
3.103220223E1,-7.089054585E-1,-9.733180046E0,-9.659382105E-1
3.105239192E1,-7.088817358E-1,-9.736781120E0,-9.289628267E-1
3.107258254E1,-7.128105164E-1,-9.739986420E0,-8.916042447E-1
3.109277400E1,-7.234708071E-1,-9.742726326E0,-8.522229791E-1
3.111296619E1,-7.405687571E-1,-9.745082855E0,-8.095015883E-1
3.113315900E1,-7.637577653E-1,-9.747144699E0,-7.617361546E-1
3.115335234E1,-7.904887199E-1,-9.749126434E0,-7.071477771E-1
3.117354598E1,-8.177638650E-1,-9.751085281E0,-6.465208530E-1
3.119373973E1,-8.429273367E-1,-9.752839088E0,-5.847948790E-1
3.121394432E1,-8.635933399E-1,-9.754415512E0,-5.253130794E-1
3.123412421E1,-8.812558651E-1,-9.755806923E0,-4.669255912E-1
3.125430442E1,-8.969738483E-1,-9.757018089E0,-4.079558849E-1
3.127448536E1,-9.130211473E-1,-9.757756233E0,-3.507075310E-1
3.129466734E1,-9.326412678E-1,-9.757697105E0,-2.965072989E-1
3.131485067E1,-9.568670392E-1,-9.756704330E0,-2.480007112E-1
3.133503546E1,-9.849433899E-1,-9.754851341E0,-2.077370733E-1
3.135522192E1,-1.016518593E0,-9.752287865E0,-1.730578393E-1
3.137541004E1,-1.050937057E0,-9.749169350E0,-1.400803030E-1
3.139559984E1,-1.087640405E0,-9.745556831E0,-1.073980480E-1
3.141579129E1,-1.125231266E0,-9.741604805E0,-7.332699001E-2
3.143598421E1,-1.160384059E0,-9.737687111E0,-3.665182367E-2
3.145617848E1,-1.190969586E0,-9.734062195E0,-2.488778846E-4
3.147637379E1,-1.216913700E0,-9.730801582E0,3.176800162E-2
3.149656994E1,-1.237963915E0,-9.728037834E0,5.576232448E-2
3.151676661E1,-1.251955271E0,-9.726146698E0,7.124499977E-2
3.153696348E1,-1.260400772E0,-9.724979401E0,8.086792380E-2
3.155715994E1,-1.265114188E0,-9.724318504E0,8.664324135E-2
3.157734973E1,-1.270024300E0,-9.723635674E0,9.134698659E-2
3.159753942E1,-1.280130148E0,-9.722259521E0,9.646372497E-2
3.161772369E1,-1.297491074E0,-9.719893456E0,1.027783751E-1
3.163790838E1,-1.322320223E0,-9.716466904E0,1.101745665E-1
3.165809359E1,-1.351544857E0,-9.712354660E0,1.177599505E-1
3.167827952E1,-1.380510449E0,-9.708199501E0,1.243147627E-1
3.169846629E1,-1.404600978E0,-9.704688072E0,1.284864396E-1
3.171865400E1,-1.422052741E0,-9.702135086E0,1.293349415E-1
3.173884265E1,-1.433382034E0,-9.700510025E0,1.261533201E-1
3.175903234E1,-1.439310670E0,-9.699724197E0,1.188142449E-1
3.177922296E1,-1.439878583E0,-9.699770927E0,1.075452045E-1
3.179941442E1,-1.436434507E0,-9.700439453E0,9.220977128E-2
3.181960661E1,-1.430001974E0,-9.701557159E0,7.264474779E-2
3.183979942E1,-1.420503855E0,-9.703099251E0,4.920145497E-2
3.185999275E1,-1.408139706E0,-9.704999924E0,2.253870107E-2
3.188018640E1,-1.393613815E0,-9.707119942E0,-6.632693578E-3
3.190038025E1,-1.377800226E0,-9.709305763E0,-3.792013973E-2
3.192058494E1,-1.361743212E0,-9.711381912E0,-7.146049291E-2
3.194076484E1,-1.344870806E0,-9.713399887E0,-1.076036394E-1
3.196094504E1,-1.326752543E0,-9.715401649E0,-1.451773643E-1
3.198112598E1,-1.308205724E0,-9.717281342E0,-1.828006357E-1
3.200130796E1,-1.290277839E0,-9.718901634E0,-2.202327549E-1
3.202149119E1,-1.274706006E0,-9.720047951E0,-2.572448254E-1
3.204167598E1,-1.262702584E0,-9.720602036E0,-2.930304408E-1
3.206186244E1,-1.252210736E0,-9.720804214E0,-3.291390240E-1
3.208205056E1,-1.241666317E0,-9.720714569E0,-3.692750633E-1
3.210224036E1,-1.227974415E0,-9.720540047E0,-4.166255593E-1
3.212243182E1,-1.213275075E0,-9.719962120E0,-4.697816670E-1
3.214262473E1,-1.199225426E0,-9.718882561E0,-5.249545574E-1
3.216281900E1,-1.186775923E0,-9.717422485E0,-5.776236057E-1
3.218301432E1,-1.178491592E0,-9.715641975E0,-6.227705479E-1
3.220321046E1,-1.173299432E0,-9.713733673E0,-6.611510515E-1
3.222340713E1,-1.169341326E0,-9.711615562E0,-6.982461810E-1
3.224360400E1,-1.164344907E0,-9.709182739E0,-7.392235994E-1
3.226380046E1,-1.155903459E0,-9.706588745E0,-7.851310372E-1
3.228399015E1,-1.142101407E0,-9.703930855E0,-8.364896178E-1
3.230417442E1,-1.123870730E0,-9.701242447E0,-8.906141520E-1
3.232435911E1,-1.101074815E0,-9.698852539E0,-9.435443878E-1
3.234454432E1,-1.089684129E0,-9.695944786E0,-9.857114553E-1
3.236473025E1,-1.074102163E0,-9.693206787E0,-1.028805256E0
3.238491702E1,-1.057180762E0,-9.690258980E0,-1.073140979E0
3.240510473E1,-1.040431619E0,-9.687191010E0,-1.116340756E0
3.242529338E1,-1.024616241E0,-9.684212685E0,-1.156100273E0
3.244548296E1,-1.006322980E0,-9.681124687E0,-1.197301507E0
3.246567348E1,-9.901059866E-1,-9.677787781E0,-1.237132907E0
3.248586484E1,-9.740534425E-1,-9.674385071E0,-1.275889039E0
3.250605702E1,-9.589272738E-1,-9.670819283E0,-1.313805699E0
3.252624984E1,-9.454025626E-1,-9.666867256E0,-1.352146506E0
3.254644317E1,-9.327054024E-1,-9.662511826E0,-1.391515374E0
3.256663682E1,-9.183188677E-1,-9.658252716E0,-1.430114865E0
3.258683067E1,-9.019978046E-1,-9.654653549E0,-1.464397788E0
3.260703536E1,-8.848793507E-1,-9.651676178E0,-1.494161248E0
3.262721546E1,-8.682638407E-1,-9.648957253E0,-1.521222591E0
3.264739588E1,-8.545536995E-1,-9.645802498E0,-1.548745036E0
3.266757702E1,-8.451138735E-1,-9.641888618E0,-1.578025818E0
3.268775921E1,-8.409966230E-1,-9.637242317E0,-1.608314395E0
3.270794265E1,-8.400739431E-1,-9.632560730E0,-1.636598349E0
3.272812754E1,-8.387646079E-1,-9.628488541E0,-1.661045194E0
3.274831400E1,-8.370445967E-1,-9.625109673E0,-1.681376457E0
3.276850213E1,-8.349173665E-1,-9.622291565E0,-1.698472977E0
3.278869192E1,-8.339517713E-1,-9.619938850E0,-1.712217093E0
3.280888327E1,-8.361690044E-1,-9.617773056E0,-1.723266482E0
3.282907609E1,-8.420204520E-1,-9.615624428E0,-1.732381463E0
3.284927015E1,-8.509461284E-1,-9.613241196E0,-1.741228461E0
3.286946525E1,-8.620243669E-1,-9.610928535E0,-1.748529792E0
3.288966119E1,-8.734737039E-1,-9.609502792E0,-1.750678062E0
3.290985765E1,-8.835450411E-1,-9.609325409E0,-1.746598244E0
3.293005432E1,-8.934502602E-1,-9.609554291E0,-1.740288496E0
3.295024556E1,-9.040000439E-1,-9.609661102E0,-1.734238267E0
3.297043692E1,-9.152113199E-1,-9.609765053E0,-1.727768421E0
3.299063911E1,-9.237185717E-1,-9.610243797E0,-1.720566273E0
3.301082036E1,-9.280330539E-1,-9.610670090E0,-1.715856910E0
3.303100192E1,-9.298176765E-1,-9.610485077E0,-1.715924382E0
3.305118411E1,-9.290078878E-1,-9.609418869E0,-1.722324610E0
3.307136713E1,-9.241946936E-1,-9.607900620E0,-1.733351231E0
3.309155129E1,-9.158600569E-1,-9.606524467E0,-1.745356202E0
3.311173671E1,-9.054680467E-1,-9.605668068E0,-1.755469561E0
3.313192359E1,-8.917229176E-1,-9.605455399E0,-1.763646126E0
3.315211192E1,-8.737185597E-1,-9.605592728E0,-1.771890044E0
3.317230171E1,-8.539358974E-1,-9.606027603E0,-1.779161811E0
3.319249296E1,-8.329147696E-1,-9.607630730E0,-1.780472636E0
3.321268546E1,-8.116828203E-1,-9.610629082E0,-1.774082899E0
3.323287911E1,-7.917481661E-1,-9.614411354E0,-1.762561679E0
3.325307369E1,-7.770129442E-1,-9.618406296E0,-1.747255206E0
3.327326900E1,-7.675373554E-1,-9.622545242E0,-1.728553176E0
3.329346473E1,-7.623946071E-1,-9.626942635E0,-1.706201553E0
3.331366067E1,-7.618991733E-1,-9.631496429E0,-1.680530548E0
3.333385619E1,-7.656562924E-1,-9.636050224E0,-1.652480602E0
3.335404588E1,-7.724443078E-1,-9.640711784E0,-1.621855497E0
3.337423015E1,-7.805796266E-1,-9.645534515E0,-1.588942766E0
3.339441484E1,-7.881388664E-1,-9.650335312E0,-1.555715680E0
3.341460015E1,-7.942368984E-1,-9.654668808E0,-1.525426507E0
3.343478619E1,-7.979166508E-1,-9.658721924E0,-1.497604966E0
3.345497307E1,-7.996386290E-1,-9.663153648E0,-1.467795849E0
3.347516088E1,-7.996681333E-1,-9.668394089E0,-1.432854414E0
3.349534963E1,-7.994278073E-1,-9.674178123E0,-1.393409371E0
3.351553932E1,-7.989379168E-1,-9.680368423E0,-1.350015998E0
3.353572994E1,-7.966932654E-1,-9.686960220E0,-1.303249240E0
3.355592140E1,-7.933526039E-1,-9.693603516E0,-1.255007386E0
3.357611359E1,-7.910839915E-1,-9.699634552E0,-1.208998680E0
3.359630640E1,-7.911795974E-1,-9.704611778E0,-1.168301582E0
3.361649973E1,-7.953368425E-1,-9.708377838E0,-1.133682251E0
3.363669338E1,-8.030042648E-1,-9.711316109E0,-1.102687836E0
3.365688713E1,-8.113428354E-1,-9.713978767E0,-1.072717190E0
3.367709171E1,-8.180246353E-1,-9.716949463E0,-1.040250301E0
3.369727150E1,-8.242624998E-1,-9.720165253E0,-1.004665494E0
3.371745161E1,-8.327605724E-1,-9.723149300E0,-9.681232572E-1
3.373763244E1,-8.436824679E-1,-9.725752831E0,-9.318332672E-1
3.375781432E1,-8.550965786E-1,-9.728324890E0,-8.938181996E-1
3.377799754E1,-8.658570051E-1,-9.731132507E0,-8.519030809E-1
3.379818234E1,-8.773375750E-1,-9.733996391E0,-8.062053323E-1
3.381836879E1,-8.903298378E-1,-9.736631393E0,-7.587462664E-1
3.383855702E1,-9.049863815E-1,-9.739037514E0,-7.089005709E-1
3.385874692E1,-9.210228920E-1,-9.741159439E0,-6.572072506E-1
3.387893848E1,-9.394550920E-1,-9.742701530E0,-6.062720418E-1
3.389913150E1,-9.595695734E-1,-9.743690491E0,-5.568894744E-1
3.391932588E1,-9.813032746E-1,-9.744286537E0,-5.062724352E-1
3.393952129E1,-1.002399206E0,-9.744764328E0,-4.529429674E-1
3.395971754E1,-1.023875594E0,-9.744847298E0,-4.000188112E-1
3.397991432E1,-1.047208071E0,-9.744280815E0,-3.503337204E-1
3.400011129E1,-1.072519660E0,-9.743100166E0,-3.034627438E-1
3.402030744E1,-1.097309232E0,-9.741685867E0,-2.566226125E-1
3.404049713E1,-1.120153785E0,-9.740189552E0,-2.105932087E-1
3.406068140E1,-1.142320752E0,-9.738417625E0,-1.694259346E-1
3.408086609E1,-1.165988088E0,-9.736129761E0,-1.365298331E-1
3.410105140E1,-1.193222642E0,-9.733181953E0,-1.085666642E-1
3.412123744E1,-1.223200202E0,-9.729706764E0,-8.355700225E-2
3.414142432E1,-1.254466772E0,-9.725895882E0,-6.036938727E-2
3.416161213E1,-1.285543203E0,-9.721953392E0,-3.733088449E-2
3.418180088E1,-1.314234376E0,-9.718174934E0,-1.552379131E-2
3.420199056E1,-1.341108441E0,-9.714514732E0,4.570025951E-3
3.422218119E1,-1.365449905E0,-9.711097717E0,2.269401960E-2
3.424237265E1,-1.387383223E0,-9.707938194E0,3.851183876E-2
3.426256484E1,-1.407279849E0,-9.705007553E0,5.269840732E-2
3.428275765E1,-1.425394058E0,-9.702283859E0,6.568291038E-2
3.430295098E1,-1.442116976E0,-9.699727058E0,7.740527391E-2
3.432314463E1,-1.456887364E0,-9.697445869E0,8.596800268E-2
3.434333838E1,-1.469540596E0,-9.695504189E0,8.958234638E-2
3.436354296E1,-1.482898593E0,-9.693460464E0,9.063111246E-2
3.438372275E1,-1.495186448E0,-9.691596985E0,8.811617643E-2
3.440390286E1,-1.503829479E0,-9.690313339E0,8.185508102E-2
3.442408369E1,-1.507271647E0,-9.689836502E0,7.463447750E-2
3.444426556E1,-1.506411910E0,-9.690024376E0,6.734235585E-2
3.446444879E1,-1.501965761E0,-9.690774918E0,5.803009123E-2
3.448463359E1,-1.495517850E0,-9.691837311E0,4.578264058E-2
3.450482004E1,-1.488785267E0,-9.692933083E0,3.097572736E-2
3.452500827E1,-1.482637286E0,-9.693914413E0,1.421654504E-2
3.454519817E1,-1.477793217E0,-9.694663048E0,-3.503452521E-3
3.456538973E1,-1.475485563E0,-9.694992065E0,-2.156277932E-2
3.458558275E1,-1.476408362E0,-9.694787979E0,-4.122723266E-2
3.460577713E1,-1.478223562E0,-9.694394112E0,-6.302127242E-2
3.462597254E1,-1.478594303E0,-9.694167137E0,-8.530029655E-2
3.464616879E1,-1.476844788E0,-9.694207191E0,-1.079865173E-1
3.466636556E1,-1.473752975E0,-9.694391251E0,-1.312394440E-1
3.468656254E1,-1.469769359E0,-9.694625854E0,-1.562012285E-1
3.470675859E1,-1.463569045E0,-9.695072174E0,-1.842261106E-1
3.472694838E1,-1.455785871E0,-9.695627213E0,-2.142021209E-1
3.474713806E1,-1.448695540E0,-9.695979118E0,-2.442461252E-1
3.476732234E1,-1.445146799E0,-9.695745468E0,-2.728749812E-1
3.478750702E1,-1.445973516E0,-9.694789886E0,-3.009848595E-1
3.480769234E1,-1.450900078E0,-9.693099022E0,-3.303091824E-1
3.482787838E1,-1.457141995E0,-9.691015244E0,-3.624266386E-1
3.484806525E1,-1.460387349E0,-9.689209938E0,-3.960680962E-1
3.486825307E1,-1.459001660E0,-9.688216209E0,-4.244724810E-1
3.488844182E1,-1.453077912E0,-9.688321114E0,-4.420246780E-1
3.490863150E1,-1.442846298E0,-9.689388275E0,-4.520246685E-1
3.492882213E1,-1.429118752E0,-9.690918922E0,-4.627156854E-1
3.494901359E1,-1.413653731E0,-9.692358971E0,-4.797365665E-1
3.496920577E1,-1.397403717E0,-9.693372726E0,-5.061426759E-1
3.498939859E1,-1.382599592E0,-9.693579674E0,-5.415909290E-1
3.500959192E1,-1.370287776E0,-9.693097115E0,-5.801495910E-1
3.502978557E1,-1.359115243E0,-9.692464828E0,-6.159074306E-1
3.504997932E1,-1.344612598E0,-9.692400932E0,-6.478874683E-1
3.507018390E1,-1.327197790E0,-9.692900658E0,-6.757323742E-1
3.509036359E1,-1.310868144E0,-9.693384171E0,-7.002217770E-1
3.511054359E1,-1.297925711E0,-9.693350792E0,-7.243850827E-1
3.513072432E1,-1.289607525E0,-9.692600250E0,-7.488592267E-1
3.515090609E1,-1.285545468E0,-9.691161156E0,-7.740474939E-1
3.517108921E1,-1.282511473E0,-9.689346313E0,-8.013286591E-1
3.519127390E1,-1.277759671E0,-9.687556267E0,-8.300369382E-1
3.521146025E1,-1.268613577E0,-9.686135292E0,-8.601091504E-1
3.523164838E1,-1.254182458E0,-9.685300827E0,-8.901464343E-1
3.525183827E1,-1.240568876E0,-9.684284210E0,-9.197890759E-1
3.527202984E1,-1.228193045E0,-9.683049202E0,-9.489388466E-1
3.529222296E1,-1.208491564E0,-9.682318687E0,-9.811413884E-1
3.531241744E1,-1.181283951E0,-9.681403160E0,-1.022441506E0
3.533261296E1,-1.149357438E0,-9.679762840E0,-1.073105216E0
3.535280932E1,-1.120296240E0,-9.677105904E0,-1.126477361E0
3.537300619E1,-1.099723458E0,-9.674530983E0,-1.168097138E0
3.539320327E1,-1.087375164E0,-9.673361778E0,-1.189149618E0
3.541339932E1,-1.081175566E0,-9.673337936E0,-1.194984078E0
3.543358911E1,-1.077146053E0,-9.673336029E0,-1.198620439E0
3.545377879E1,-1.077019453E0,-9.672263145E0,-1.207371831E0
3.547396306E1,-1.083085895E0,-9.670027733E0,-1.219790578E0
3.549414775E1,-1.093828440E0,-9.667276382E0,-1.231945753E0
3.551433296E1,-1.105390668E0,-9.664520264E0,-1.243201375E0
3.553451890E1,-1.114162803E0,-9.662002563E0,-1.254883528E0
3.555470567E1,-1.117780924E0,-9.659564018E0,-1.270338893E0
3.557489338E1,-1.117495418E0,-9.656713486E0,-1.292079210E0
3.559508202E1,-1.113631010E0,-9.653559685E0,-1.318709612E0
3.561527161E1,-1.107881188E0,-9.650690079E0,-1.344306707E0
3.563546213E1,-1.101078153E0,-9.648687363E0,-1.364132524E0
3.565565359E1,-1.093554735E0,-9.647490501E0,-1.378566146E0
3.567584577E1,-1.084974885E0,-9.646908760E0,-1.389371276E0
3.569603859E1,-1.073861122E0,-9.646835327E0,-1.398486972E0
3.571623192E1,-1.060967207E0,-9.647173882E0,-1.405978441E0
3.573642557E1,-1.047426105E0,-9.647957802E0,-1.410745859E0
3.575661942E1,-1.036484122E0,-9.649028778E0,-1.411497712E0
3.577682411E1,-1.028889775E0,-9.650518417E0,-1.406864762E0
3.579700411E1,-1.024806261E0,-9.652379036E0,-1.397051573E0
3.581718442E1,-1.022115469E0,-9.654459000E0,-1.384589911E0
3.583736546E1,-1.019524932E0,-9.656511307E0,-1.372133493E0
3.585754754E1,-1.016893148E0,-9.658389091E0,-1.360820293E0
3.587773088E1,-1.014617443E0,-9.660383224E0,-1.348313808E0
3.589791567E1,-1.014161468E0,-9.662610054E0,-1.332598448E0
3.591810213E1,-1.015651107E0,-9.664973259E0,-1.314200044E0
3.593829025E1,-1.016204000E0,-9.667250633E0,-1.296912313E0
3.595848004E1,-1.014365315E0,-9.669721603E0,-1.279813051E0
3.597867150E1,-1.009184122E0,-9.672932625E0,-1.259484649E0
3.599886442E1,-1.002991438E0,-9.676833153E0,-1.234224558E0
3.601905859E1,-9.994269609E-1,-9.680990219E0,-1.204141021E0
3.603925379E1,-1.000880599E0,-9.684923172E0,-1.170844197E0
3.605944984E1,-1.008864284E0,-9.688024521E0,-1.137873054E0
3.607964640E1,-1.021218657E0,-9.690105438E0,-1.108765006E0
3.609984317E1,-1.033374429E0,-9.691828728E0,-1.082116604E0
3.612003963E1,-1.041222930E0,-9.694210052E0,-1.052867651E0
3.614022942E1,-1.045673966E0,-9.697465897E0,-1.017889619E0
3.616041911E1,-1.049890399E0,-9.701233864E0,-9.768166542E-1
3.618060338E1,-1.055747271E0,-9.705023766E0,-9.318313599E-1
3.620078807E1,-1.066120148E0,-9.708137512E0,-8.864783645E-1
3.622097327E1,-1.081862211E0,-9.710309982E0,-8.425270319E-1
3.624115921E1,-1.102525115E0,-9.711612701E0,-7.996206880E-1
3.626134598E1,-1.127004862E0,-9.712217331E0,-7.570303679E-1
3.628153369E1,-1.153537869E0,-9.712248802E0,-7.155102491E-1
3.630172234E1,-1.180988550E0,-9.711912155E0,-6.741036773E-1
3.632191192E1,-1.208893657E0,-9.711301804E0,-6.321223378E-1
3.634210244E1,-1.236296892E0,-9.710442543E0,-5.910042524E-1
3.636229379E1,-1.262590528E0,-9.709281921E0,-5.532591343E-1
3.638248598E1,-1.286859751E0,-9.708001137E0,-5.187474489E-1
3.640267879E1,-1.308061004E0,-9.706776619E0,-4.877168536E-1
3.642287213E1,-1.327097774E0,-9.705519676E0,-4.605377018E-1
3.644306577E1,-1.345478535E0,-9.704230309E0,-4.335594177E-1
3.646325963E1,-1.363421559E0,-9.703149796E0,-4.004401863E-1
3.648346432E1,-1.377970099E0,-9.702571869E0,-3.628874719E-1
3.650364432E1,-1.387732744E0,-9.702349663E0,-3.301526606E-1
3.652382463E1,-1.395190358E0,-9.702077866E0,-3.058059812E-1
3.654400567E1,-1.401768565E0,-9.701697350E0,-2.872485518E-1
3.656418775E1,-1.407747269E0,-9.701193810E0,-2.747157216E-1
3.658437109E1,-1.415170908E0,-9.700398445E0,-2.644542456E-1
3.660455588E1,-1.425578475E0,-9.699200630E0,-2.522759438E-1
3.662474234E1,-1.438128829E0,-9.697699547E0,-2.383198291E-1
3.664493046E1,-1.453853965E0,-9.695640564E0,-2.263464481E-1
3.666512025E1,-1.470355868E0,-9.693331718E0,-2.185905129E-1
3.668531171E1,-1.485144138E0,-9.691255569E0,-2.105060667E-1
3.670550463E1,-1.501281500E0,-9.689015388E0,-1.987914741E-1
3.672569879E1,-1.519812226E0,-9.686425209E0,-1.836587936E-1
3.674589400E1,-1.540246487E0,-9.683548927E0,-1.640615612E-1
3.676609004E1,-1.562387586E0,-9.680273056E0,-1.470299512E-1
3.678628661E1,-1.585094810E0,-9.676789284E0,-1.327358931E-1
3.680648338E1,-1.605030417E0,-9.673730850E0,-1.149432734E-1
3.682668004E1,-1.617631793E0,-9.671868324E0,-9.282016754E-2
3.684686973E1,-1.621300340E0,-9.671436310E0,-7.137876004E-2
3.686705400E1,-1.620343089E0,-9.671710968E0,-5.358773842E-2
3.688723869E1,-1.617413521E0,-9.672234535E0,-4.734057188E-2
3.690742400E1,-1.616488218E0,-9.672363281E0,-5.230269209E-2
3.692761004E1,-1.619214654E0,-9.671852112E0,-6.179521605E-2
3.694779692E1,-1.623120546E0,-9.671130180E0,-7.151865214E-2
3.696798473E1,-1.624395728E0,-9.670843124E0,-8.085585386E-2
3.698817348E1,-1.620904922E0,-9.671362877E0,-8.830430359E-2
3.700836317E1,-1.614639759E0,-9.672371864E0,-9.246877581E-2
3.702855379E1,-1.605561852E0,-9.673827171E0,-9.811758250E-2
3.704874525E1,-1.591009259E0,-9.676171303E0,-1.038588062E-1
3.706893744E1,-1.572535634E0,-9.679132462E0,-1.091682613E-1
3.708913025E1,-1.553676128E0,-9.682093620E0,-1.163987741E-1
3.710932359E1,-1.538616657E0,-9.684437752E0,-1.212681383E-1
3.712951723E1,-1.527021408E0,-9.686247826E0,-1.233246550E-1
3.714971098E1,-1.519269586E0,-9.687416077E0,-1.272049993E-1
3.716991557E1,-1.515456438E0,-9.687932014E0,-1.332158148E-1
3.719009536E1,-1.514119864E0,-9.688059807E0,-1.390437782E-1
3.721027546E1,-1.512442112E0,-9.688232422E0,-1.450587362E-1
3.723045629E1,-1.509041667E0,-9.688618660E0,-1.544466764E-1
3.725063817E1,-1.501029134E0,-9.689652443E0,-1.671614647E-1
3.727082140E1,-1.486122727E0,-9.691751480E0,-1.782976240E-1
3.729100619E1,-1.464604378E0,-9.694823265E0,-1.889670193E-1
3.731119265E1,-1.438287616E0,-9.698452950E0,-2.042560726E-1
3.733138088E1,-1.410635710E0,-9.702035904E0,-2.258307636E-1
3.735157088E1,-1.383833766E0,-9.705168724E0,-2.551192343E-1
3.737176254E1,-1.357769966E0,-9.707849503E0,-2.907334864E-1
3.739195567E1,-1.332546473E0,-9.710206985E0,-3.264760673E-1
3.741215015E1,-1.309827924E0,-9.712216377E0,-3.572117686E-1
3.743234567E1,-1.291871786E0,-9.713647842E0,-3.827304542E-1
3.745254202E1,-1.279030681E0,-9.714394569E0,-4.061971009E-1
3.747273890E1,-1.271053076E0,-9.714353561E0,-4.314333200E-1
3.749293598E1,-1.264495611E0,-9.713927269E0,-4.594004750E-1
3.751313161E1,-1.257983804E0,-9.713365555E0,-4.882478416E-1
3.753332140E1,-1.251409054E0,-9.712818146E0,-5.152865648E-1
3.755351109E1,-1.242672086E0,-9.712490082E0,-5.419401526E-1
3.757369536E1,-1.231854916E0,-9.712196350E0,-5.711029172E-1
3.759388004E1,-1.216617346E0,-9.712198257E0,-6.028522253E-1
3.761406536E1,-1.199104190E0,-9.712245941E0,-6.362627745E-1
3.763425140E1,-1.179563880E0,-9.712080956E0,-6.741857529E-1
3.765443827E1,-1.157486320E0,-9.711789131E0,-7.153765559E-1
3.767462609E1,-1.135119081E0,-9.711341858E0,-7.561314106E-1
3.769481484E1,-1.113976359E0,-9.710639954E0,-7.955660820E-1
3.771500452E1,-1.098446965E0,-9.709294319E0,-8.327183723E-1
3.773519515E1,-1.088746786E0,-9.707282066E0,-8.681587577E-1
3.775538661E1,-1.081319571E0,-9.705073357E0,-9.014921188E-1
3.777557879E1,-1.072731495E0,-9.702939034E0,-9.341328144E-1
3.779577161E1,-1.061565399E0,-9.700876236E0,-9.677103758E-1
3.781596494E1,-1.048162699E0,-9.698787689E0,-1.002635956E0
3.783615859E1,-1.033117294E0,-9.696500778E0,-1.039671659E0
3.785635244E1,-1.017139792E0,-9.693986893E0,-1.078155279E0
3.787655713E1,-1.001531959E0,-9.691310883E0,-1.116158485E0
3.789673723E1,-9.864039421E-1,-9.688899994E0,-1.150047183E0
3.791691765E1,-9.700410366E-1,-9.686807632E0,-1.181167364E0
3.793709879E1,-9.507184029E-1,-9.684878349E0,-1.212298155E0
3.795728098E1,-9.307684898E-1,-9.682774544E0,-1.244162917E0
3.797746442E1,-9.137917757E-1,-9.680120468E0,-1.276964307E0
3.799764932E1,-9.033646584E-1,-9.676796913E0,-1.309170246E0
3.801783577E1,-8.978194594E-1,-9.673275948E0,-1.338673592E0
3.803802390E1,-8.932995200E-1,-9.670238495E0,-1.363412380E0
3.805821369E1,-8.871048093E-1,-9.668096542E0,-1.382506251E0
3.807840515E1,-8.768293262E-1,-9.667450905E0,-1.393536687E0
3.809859807E1,-8.642185330E-1,-9.668513298E0,-1.394040585E0
3.811879223E1,-8.540499806E-1,-9.670410156E0,-1.387145281E0
3.813898744E1,-8.501470685E-1,-9.671988487E0,-1.378503084E0
3.815918348E1,-8.486427665E-1,-9.672589302E0,-1.375208378E0
3.817938004E1,-8.451315761E-1,-9.672333717E0,-1.379159093E0
3.819957682E1,-8.403485417E-1,-9.672307014E0,-1.382275820E0
3.821977348E1,-8.344361186E-1,-9.673312187E0,-1.378819942E0
3.823996327E1,-8.283485770E-1,-9.674655914E0,-1.373051286E0
3.826015296E1,-8.215996027E-1,-9.675679207E0,-1.369891405E0
3.828033723E1,-8.143935204E-1,-9.676097870E0,-1.371237040E0
3.830052192E1,-8.097107410E-1,-9.676005363E0,-1.374656677E0
3.832070723E1,-8.078994155E-1,-9.675846100E0,-1.376839638E0
3.834089327E1,-8.064826727E-1,-9.675806046E0,-1.377949953E0
3.836108015E1,-8.051960468E-1,-9.675717354E0,-1.379324436E0
3.838126796E1,-8.048005104E-1,-9.675659180E0,-1.379964828E0
3.840145671E1,-8.054827452E-1,-9.676149368E0,-1.376119614E0
3.842164640E1,-8.061283231E-1,-9.677452087E0,-1.366546512E0
3.844183702E1,-8.069913387E-1,-9.679256439E0,-1.353200555E0
3.846202848E1,-8.088539243E-1,-9.681097031E0,-1.338844538E0
3.848222067E1,-8.118336201E-1,-9.682638168E0,-1.325831652E0
3.850241348E1,-8.148239851E-1,-9.683899879E0,-1.314733744E0
3.852260682E1,-8.161492348E-1,-9.685200691E0,-1.304294229E0
3.854280046E1,-8.156905770E-1,-9.686677933E0,-1.293557405E0
3.856299432E1,-8.143993616E-1,-9.688419342E0,-1.281282306E0
3.858319900E1,-8.118487597E-1,-9.690450668E0,-1.267461658E0
3.860337900E1,-8.075601459E-1,-9.692693710E0,-1.252959847E0
3.862355932E1,-8.006190062E-1,-9.695176125E0,-1.238128304E0
3.864374036E1,-7.925269008E-1,-9.697632790E0,-1.224009752E0
3.866392244E1,-7.845318913E-1,-9.699937820E0,-1.210830688E0
3.868410577E1,-7.775270939E-1,-9.702108383E0,-1.197892308E0
3.870429056E1,-7.715907693E-1,-9.704271317E0,-1.184119225E0
3.872447702E1,-7.662855387E-1,-9.706502914E0,-1.169192672E0
3.874466515E1,-7.624337673E-1,-9.708844185E0,-1.152144313E0
3.876485494E1,-7.603516579E-1,-9.711195946E0,-1.133554101E0
3.878504640E1,-7.604008913E-1,-9.713385582E0,-1.114597559E0
3.880523932E1,-7.637791038E-1,-9.715349197E0,-1.094999671E0
3.882543359E1,-7.713465095E-1,-9.717137337E0,-1.073615432E0
3.884562890E1,-7.833128572E-1,-9.718782425E0,-1.049793959E0
3.886582504E1,-7.980891466E-1,-9.720408440E0,-1.023277640E0
3.888602171E1,-8.139276505E-1,-9.722082138E0,-9.944950342E-1
3.890621859E1,-8.302578330E-1,-9.723661423E0,-9.651283026E-1
3.892641525E1,-8.478718400E-1,-9.724936485E0,-9.365443587E-1
3.894660504E1,-8.648644686E-1,-9.726005554E0,-9.095178843E-1
3.896679473E1,-8.813334703E-1,-9.726848602E0,-8.843414187E-1
3.898697900E1,-8.978136182E-1,-9.727469444E0,-8.606206179E-1
3.900716369E1,-9.127767682E-1,-9.728032112E0,-8.382281661E-1
3.902734900E1,-9.248855710E-1,-9.728687286E0,-8.170775771E-1
3.904753504E1,-9.349160194E-1,-9.729375839E0,-7.972233295E-1
3.906772192E1,-9.426243901E-1,-9.730034828E0,-7.799056768E-1
3.908790973E1,-9.480962753E-1,-9.730771065E0,-7.639262676E-1
3.910809848E1,-9.520711303E-1,-9.731564522E0,-7.487369180E-1
3.912828817E1,-9.557536244E-1,-9.732250214E0,-7.349971533E-1
3.914847879E1,-9.588602185E-1,-9.732789993E0,-7.237119675E-1
3.916867025E1,-9.602404833E-1,-9.733295441E0,-7.150397897E-1
3.918886244E1,-9.592814445E-1,-9.733840942E0,-7.088798285E-1
3.920905525E1,-9.584550261E-1,-9.734123230E0,-7.061277032E-1
3.922924859E1,-9.604236484E-1,-9.733775139E0,-7.082416415E-1
3.924944223E1,-9.651928544E-1,-9.732993126E0,-7.124869823E-1
3.926963609E1,-9.738804102E-1,-9.732079506E0,-7.131465077E-1
3.928984077E1,-9.894686341E-1,-9.730658531E0,-7.110709548E-1
3.931002056E1,-1.011434674E0,-9.728414536E0,-7.108790278E-1
3.933020067E1,-1.036188245E0,-9.725868225E0,-7.100687027E-1
3.935038150E1,-1.057926893E0,-9.724144936E0,-7.015604377E-1
3.937056338E1,-1.071321487E0,-9.723935127E0,-6.839054823E-1
3.939074661E1,-1.076773405E0,-9.724676132E0,-6.645494103E-1
3.941093140E1,-1.077893972E0,-9.725418091E0,-6.517472863E-1
3.943111786E1,-1.075388432E0,-9.726062775E0,-6.462392211E-1
3.945130609E1,-1.067990541E0,-9.726855278E0,-6.465807557E-1
3.947149609E1,-1.056515694E0,-9.727543831E0,-6.550271511E-1
3.949168775E1,-1.043024421E0,-9.728056908E0,-6.688744426E-1
3.951188088E1,-1.032042861E0,-9.728213310E0,-6.834744811E-1
3.953207525E1,-1.029489994E0,-9.727546692E0,-6.966852546E-1
3.955227067E1,-1.034831285E0,-9.726282120E0,-7.063641548E-1
3.957246692E1,-1.047066808E0,-9.724405289E0,-7.141314149E-1
3.959266369E1,-1.060098529E0,-9.722852707E0,-7.160370350E-1
3.961286067E1,-1.069354773E0,-9.722197533E0,-7.111500502E-1
3.963305650E1,-1.074011683E0,-9.722534180E0,-6.994400024E-1
3.965324629E1,-1.076850057E0,-9.723535538E0,-6.809254289E-1
3.967343598E1,-1.080477357E0,-9.724110603E0,-6.667869687E-1
3.969362025E1,-1.085307598E0,-9.723768234E0,-6.639542580E-1
3.971380494E1,-1.091924667E0,-9.722434044E0,-6.725692749E-1
3.973399025E1,-1.100586057E0,-9.720495224E0,-6.863404512E-1
3.975417629E1,-1.109212041E0,-9.719290733E0,-6.895109415E-1
3.977436317E1,-1.120279670E0,-9.718858719E0,-6.776058078E-1
3.979455098E1,-1.138000607E0,-9.717826843E0,-6.627150774E-1
3.981473973E1,-1.158321023E0,-9.715783119E0,-6.574379802E-1
3.983492942E1,-1.173861027E0,-9.713690758E0,-6.608014703E-1
3.985512004E1,-1.181346416E0,-9.712567329E0,-6.639624238E-1
3.987531150E1,-1.182319164E0,-9.712388992E0,-6.648331881E-1
3.989550369E1,-1.180773497E0,-9.712565422E0,-6.650076509E-1
3.991569650E1,-1.179724097E0,-9.712819099E0,-6.631615758E-1
3.993588984E1,-1.181180954E0,-9.712838173E0,-6.602919698E-1
3.995608348E1,-1.188842416E0,-9.712018013E0,-6.585913301E-1
3.997627723E1,-1.201155901E0,-9.710445404E0,-6.594466567E-1
3.999648182E1,-1.211616755E0,-9.709025383E0,-6.612136364E-1
4.001666150E1,-1.218834162E0,-9.708119392E0,-6.612474322E-1
4.003684150E1,-1.224469423E0,-9.707437515E0,-6.608381867E-1
4.005702223E1,-1.228168964E0,-9.706796646E0,-6.633926034E-1
4.007720400E1,-1.232306838E0,-9.705780983E0,-6.705327034E-1
4.009738713E1,-1.239695311E0,-9.704319000E0,-6.780412197E-1
4.011757182E1,-1.248854280E0,-9.702953339E0,-6.807672381E-1
4.013775817E1,-1.259549022E0,-9.701506615E0,-6.816804409E-1
4.015794629E1,-1.270378113E0,-9.699844360E0,-6.852397919E-1
4.017813619E1,-1.279748201E0,-9.698231697E0,-6.906134486E-1
4.019832775E1,-1.288760304E0,-9.696505547E0,-6.980379224E-1
4.021852088E1,-1.299585581E0,-9.694510460E0,-7.056549788E-1
4.023871536E1,-1.313764930E0,-9.692189217E0,-7.112531066E-1
4.025891088E1,-1.327627301E0,-9.689840317E0,-7.174752951E-1
4.027910723E1,-1.338009953E0,-9.687985420E0,-7.232254148E-1
4.029930411E1,-1.346746922E0,-9.686577797E0,-7.258554101E-1
4.031950119E1,-1.356326461E0,-9.685237885E0,-7.259049416E-1
4.033969723E1,-1.367189765E0,-9.683545113E0,-7.281066775E-1
4.035988692E1,-1.379274964E0,-9.681551933E0,-7.318147421E-1
4.038007119E1,-1.393790007E0,-9.679261208E0,-7.345912457E-1
4.040025588E1,-1.410236001E0,-9.676559448E0,-7.387883067E-1
4.042044109E1,-1.427435637E0,-9.673541069E0,-7.452633977E-1
4.044062702E1,-1.443582535E0,-9.670533180E0,-7.531591058E-1
4.046081379E1,-1.456724524E0,-9.667817116E0,-7.626576424E-1
4.048100150E1,-1.465446949E0,-9.665574074E0,-7.742899656E-1
4.050119015E1,-1.471735835E0,-9.663652420E0,-7.862600684E-1
