"Time (s)","Gyroscope x (rad/s)","Gyroscope y (rad/s)","Gyroscope z (rad/s)"
1.948074400E-2,-8.050730228E-1,-6.153228879E-1,-3.382211924E-2
3.949793200E-2,-1.017060518E0,-1.000948310E0,6.045371294E-2
5.954678600E-2,-1.151283622E0,-1.233708501E0,1.243695319E-1
7.963168200E-2,-1.120923638E0,-1.315201163E0,1.430116445E-1
9.975543200E-2,-9.680583477E-1,-1.106409431E0,2.037316710E-1
1.199191820E-1,-9.105340838E-1,-5.748428702E-1,2.436790615E-1
1.401224110E-1,-1.011734128E0,-4.540686309E-2,2.287653685E-1
1.603630360E-1,-9.771130681E-1,-2.451438010E-1,3.251717389E-1
1.806376190E-1,-6.522076726E-1,-1.245426297E0,5.472791791E-1
2.009413690E-1,-4.460791349E-1,-1.594300151E0,4.945486486E-1
2.212686610E-1,-4.743086398E-1,-1.468066454E0,2.846917212E-1
2.416130360E-1,-6.309024096E-1,-9.029440880E-1,-7.190529723E-3
2.619677230E-1,-9.313067198E-1,-3.356912136E-1,-2.793653905E-1
2.823257440E-1,-1.440502763E0,-4.725775719E-1,-3.651190996E-1
3.025975150E-1,-1.700427055E0,-7.000113726E-1,-3.262369931E-1
3.227882440E-1,-1.391500592E0,-1.641837656E-1,-1.419463754E-1
3.429735570E-1,-8.183888197E-1,6.021402478E-1,-1.451421678E-1
3.631592860E-1,-3.416832983E-1,1.469797492E0,-5.299686641E-2
3.833456400E-1,-1.573926955E-1,2.232526302E0,2.181127369E-1
4.035327230E-1,-2.761695981E-1,2.317214727E0,-1.600558609E-1
4.237206400E-1,-3.235738277E-1,1.346759558E0,-6.282392144E-1
4.439094940E-1,-8.902940750E-1,1.329182744E0,-7.400919199E-1
4.640992860E-1,-1.625326037E0,9.105340838E-1,-4.103928208E-1
4.842900150E-1,-1.796833396E0,3.203780353E-1,5.246423557E-2
5.044816820E-1,-1.483645916E0,4.934833944E-1,5.246423557E-2
5.246741820E-1,-1.150218368E0,1.008538365E0,3.275685757E-2
5.448674110E-1,-1.182708979E0,1.077247858E0,-3.275685757E-2
5.650612650E-1,-1.584846020E0,1.001081467E0,-2.005358785E-1
5.852556400E-1,-2.195774794E0,7.901592851E-1,-3.539338410E-1
6.054503270E-1,-2.482863188E0,3.816306889E-1,-3.858917654E-1
6.256452230E-1,-2.435991526E0,-1.524658650E-1,-3.560643792E-1
6.458509520E-1,-2.460492611E0,-3.468764722E-1,-5.387570858E-1
6.660323070E-1,-2.561160088E0,-4.331628382E-1,-6.740455627E-1
6.862139730E-1,-2.653838158E0,-7.736477256E-2,-8.034750819E-1
7.063963690E-1,-3.027745485E0,5.717802644E-1,-9.201214910E-1
7.265798070E-1,-3.477286816E0,8.801741004E-1,-1.075117350E0
7.467644940E-1,-3.528419495E0,5.659213066E-1,-1.160871029E0
7.669506400E-1,-2.985667706E0,2.932138145E-1,-7.060034871E-1
7.871383480E-1,-2.453035831E0,2.745717168E-1,-7.323687524E-2
8.073277230E-1,-2.345444202E0,3.992075622E-1,2.527337968E-1
8.275187650E-1,-2.451437950E0,7.960182428E-1,2.729738057E-1
8.477113690E-1,-2.616021156E0,1.194426894E0,2.356895804E-1
8.679054320E-1,-2.560627460E0,1.314269066E0,3.491401672E-1
8.881007440E-1,-2.152098894E0,1.041028857E0,6.617950201E-1
9.082970980E-1,-1.542235494E0,7.187866569E-1,9.616667628E-1
9.284941820E-1,-1.083106756E0,8.391614556E-1,1.088965774E0
9.486916820E-1,-1.041028857E0,9.259804487E-1,1.034637332E0
9.688893900E-1,-8.098666668E-1,1.088433146E0,1.037300467E0
9.890855360E-1,-5.211802125E-1,1.134239435E0,1.199220538E0
1.009276369E0,-2.719085515E-1,9.078709483E-1,1.479384899E0
1.029461786E0,-1.089232042E-1,7.720498443E-1,1.683382869E0
1.049647619E0,-1.408811212E-1,6.399571300E-1,1.711612344E0
1.069833973E0,-4.503402114E-1,8.902940750E-1,1.512940645E0
1.090021057E0,-8.103992939E-1,1.186437368E0,1.682850242E0
1.110208973E0,-8.050730228E-1,5.866939425E-1,2.660229683E0
1.130397827E0,-4.034686089E-1,-4.629902244E-1,3.001113892E0
1.150587619E0,-1.637842804E-1,-4.075964987E-1,2.544115782E0
1.170778348E0,-1.446095407E-1,1.318263710E-1,1.780321836E0
1.190970015E0,-1.856221855E-1,3.795001805E-1,1.217862606E0
1.211162515E0,-2.681801319E-1,3.390201628E-1,8.242477179E-1
1.231355744E0,-2.740390599E-1,5.131907463E-1,8.524772525E-1
1.251549598E0,-2.356895804E-1,5.174518228E-1,9.659277797E-1
1.271743973E0,-3.587275445E-1,3.304980397E-1,1.126250029E0
1.291938661E0,-2.926811874E-1,6.684529036E-2,1.257809997E0
1.312133557E0,-6.045371294E-2,-3.218427896E-1,1.171523690E0
1.332339286E0,9.294424951E-2,-4.864259958E-1,1.085237384E0
1.352520536E0,1.845569313E-1,-2.669816911E-1,8.157256246E-1
1.372702098E0,8.602003753E-2,-1.198421582E-3,5.467465520E-1
1.392884390E0,3.091927767E-1,2.250369489E-1,3.795001805E-1
1.413067723E0,3.757717609E-1,6.149234176E-1,-5.832318589E-2
1.433252307E0,-7.004108280E-2,1.246092200E0,-9.174582958E-1
1.453438348E0,-5.648560524E-1,1.517734408E0,-1.973134637E0
1.473625952E0,-5.925529003E-1,1.160871029E0,-2.751842260E0
1.493815223E0,-5.885581672E-2,8.972182870E-1,-2.958503485E0
1.514006161E0,3.560643792E-1,5.067991614E-1,-3.117760420E0
1.534198661E0,3.086601496E-1,-1.018658355E-1,-3.557714224E0
1.554392619E0,-1.440769136E-1,-8.384956717E-1,-4.082889080E0
1.574587827E0,-5.259739161E-1,-6.110618711E-1,-4.113249302E0
1.594784077E0,3.861580789E-2,-8.006787896E-1,-3.042126656E0
1.614981161E0,4.167844057E-1,-2.914827764E-1,-1.716405988E0
1.635178765E0,5.536707640E-1,6.388918757E-1,-9.238498807E-1
1.655376577E0,5.643234253E-1,1.332378507E0,-5.845634341E-1
1.675573869E0,5.733781457E-1,1.977395654E0,-2.585927546E-1
1.695764702E0,5.030707717E-1,1.250885844E0,-1.302284747E-1
1.715950119E0,3.997401893E-1,1.525990218E-1,-6.538055539E-1
1.736135952E0,2.181127369E-1,-5.732449889E-1,-8.407593369E-1
1.756322307E0,-1.510011256E-1,-1.025449395E0,-1.488972306E0
1.776509390E0,-1.140631080E0,-9.615336061E-1,-2.175002098E0
1.796697307E0,-1.766473413E0,-1.558613896E0,-1.829856634E0
1.816886161E0,-1.937448263E0,-1.949565649E0,-1.235439539E0
1.837075952E0,-1.610412359E0,-2.026797295E0,-5.536707640E-1
1.857266682E0,-6.665887237E-1,-7.410240173E-1,9.187898785E-2
1.877458348E0,2.362222075E-1,5.206476152E-2,2.703106403E-1
1.897650848E0,1.451421678E-1,-5.466133952E-1,-1.771000773E-1
1.917844077E0,-4.764391780E-1,-6.041376591E-1,-4.940160215E-1
1.938037932E0,-6.932203174E-1,2.103895694E-2,-7.406245470E-1
1.958232307E0,-1.278582692E0,-1.077247858E-1,-3.912180662E-1
1.978426994E0,-1.373923779E0,-8.592683077E-1,-2.095906287E-1
1.998621890E0,-7.624624372E-1,-1.372192740E0,-8.412919641E-1
2.018827619E0,-5.792371035E-1,-1.237969518E0,-1.517734408E0
2.039008765E0,-9.765804410E-1,-1.193761110E0,-1.831987143E0
2.059190223E0,-1.059671044E0,-1.172988415E0,-1.602422833E0
2.079372411E0,-4.514054656E-1,-8.161250949E-1,-1.054877281E0
2.099555640E0,4.103928208E-1,1.211737394E-1,-6.687192321E-1
2.119740119E0,8.716519475E-1,1.229580522E0,-3.275685757E-2
2.139926057E0,8.380961418E-1,1.618934393E0,-1.185105816E-1
2.160113661E0,6.319676638E-1,1.098553181E0,-6.703171730E-1
2.180302932E0,3.880222738E-1,1.050616264E0,-5.504750013E-1
2.200493869E0,4.151864946E-1,8.567382693E-1,-8.255792782E-3
2.220686369E0,3.065296113E-1,9.046751261E-1,2.079927325E-1
2.240880327E0,3.808317333E-2,1.198687911E0,7.057371736E-2
2.261075536E0,-3.755054250E-2,1.281778455E0,1.808284968E-1
2.281271786E0,-3.382211924E-2,9.968204498E-1,6.436855793E-1
2.301468869E0,-5.052012801E-1,-2.430132627E-1,7.635276914E-1
2.321666473E0,-9.978857040E-1,-1.508013844E0,1.872200817E-1
2.341864286E0,-1.363271117E0,-1.845702410E0,-2.969422340E-1
2.362061786E0,-1.107075214E0,-1.283243179E0,-7.246456146E-1
2.382252619E0,-2.213085145E-1,-8.874977827E-1,-1.152348995E0
2.402438036E0,5.467465520E-1,1.616537571E-1,-1.482580662E0
2.422623869E0,4.050664902E-1,1.867673516E0,-1.239700556E0
2.442810223E0,7.962846011E-2,1.699361801E0,-3.581948876E-1
2.462997307E0,-3.198454082E-1,7.283740044E-1,2.729738057E-1
2.483185223E0,-5.861613154E-1,-3.910849094E-1,2.175800949E-1
2.503374077E0,-5.163865685E-1,-9.780451655E-1,-3.054643571E-1
2.523563869E0,-5.406212807E-2,-5.247755051E-1,-9.084035754E-1
2.543754598E0,4.338286221E-1,3.502054140E-2,-1.255679488E0
2.563946265E0,5.020055175E-1,4.684496820E-1,-1.148620486E0
2.584138765E0,1.323590130E-1,5.882918239E-1,-7.230476737E-1
2.604331994E0,-2.623211741E-1,-1.247690022E-1,-1.792306006E-1
2.624525848E0,-4.162517786E-1,-9.982851744E-1,3.808317333E-2
2.644720223E0,-4.631233811E-1,-1.348756909E0,-1.115863696E-1
2.664914911E0,-1.643169224E-1,-6.265081763E-1,-4.034686089E-1
2.685109807E0,8.548741043E-2,-1.146489978E-1,-6.037381887E-1
2.705315536E0,-7.856319100E-2,-2.398174703E-1,-7.278413773E-1
2.725496473E0,-3.102580309E-1,-2.350237966E-1,-8.109319210E-1
2.745677723E0,-2.932138145E-1,1.941442937E-1,-6.878939867E-1
2.765859702E0,-1.009337306E-1,4.833633900E-1,-6.713824272E-1
2.786042723E0,1.499358565E-1,8.961530328E-1,-7.912245989E-1
2.806227098E0,1.067926809E-1,1.156610012E0,-6.873613596E-1
2.826413036E0,1.201084778E-1,1.218395233E0,-2.932138145E-1
2.846600640E0,2.346243113E-1,1.564073324E0,1.893506050E-1
2.866789911E0,2.308958918E-1,1.702024937E0,5.680518150E-1
2.886980848E0,1.089232042E-1,1.471395373E0,8.487488031E-1
2.907173452E0,2.849580161E-2,1.439970136E0,1.239167929E0
2.927367515E0,-3.595264629E-2,1.135837317E0,1.637043953E0
2.947562932E0,-6.524740160E-2,2.569948435E-1,1.744635582E0
2.967759390E0,-7.110634446E-2,-3.868238628E-1,1.799496651E0
2.987956682E0,4.074633494E-2,-1.593900770E-1,1.786180854E0
3.008154494E0,2.426137924E-1,1.946769357E-1,1.390967965E0
3.028352515E0,3.555317521E-1,3.310306668E-1,5.526055098E-1
3.048549911E0,1.531316489E-1,3.795001805E-1,-1.675127149E-1
3.068740744E0,-1.547295451E-1,3.976096511E-1,-2.207758874E-1
3.088926161E0,-2.175800949E-1,2.165148407E-1,1.680453420E-1
3.109111994E0,5.086633936E-2,7.909582555E-2,2.383527458E-1
3.129298348E0,2.447443157E-1,2.743053809E-2,1.382179558E-1
3.149485432E0,1.371526867E-1,3.222422674E-2,1.701758653E-1
3.169673348E0,-9.853689000E-3,3.648528084E-2,1.334242672E-1
3.189862202E0,-2.530001104E-2,-1.131842658E-2,3.488738462E-2
3.210051994E0,1.864211401E-3,-7.843003422E-2,6.657897960E-3
3.230242723E0,2.263685316E-2,-6.564687192E-2,1.864211401E-3
3.250434390E0,1.089232042E-1,2.985401452E-1,-9.294424951E-2
3.270626890E0,2.783001363E-1,1.189633131E0,-2.479401082E-1
3.290820119E0,3.789675534E-1,2.214949369E0,-1.776327193E-1
3.311013973E0,2.287653685E-1,2.976613045E0,-1.280979514E-1
3.331208348E0,-1.643169224E-1,3.469297409E0,-4.599275887E-1
3.351403036E0,5.246423557E-2,3.870369196E0,-1.206677437E0
3.371597932E0,5.488771200E-1,3.608846903E0,-1.742504954E0
3.391803661E0,3.960117698E-1,3.065029860E0,-1.621597528E0
3.411985327E0,2.255695760E-1,2.318812609E0,-9.776456952E-1
3.432167307E0,2.372874767E-1,1.550757527E0,-2.394180000E-1
3.452349911E0,1.302284747E-1,1.177915215E0,1.358211134E-2
3.472533452E0,-1.376853287E-1,8.503466845E-1,-2.261022031E-1
3.492718244E0,-2.788327634E-1,4.732433856E-1,-5.099949837E-1
3.512904494E0,-4.178496599E-1,1.890842989E-2,-2.303632647E-1
3.533092307E0,-6.825676560E-1,-6.920219064E-1,2.426137924E-1
3.553281682E0,-7.731150985E-1,-1.708816051E0,5.286371112E-1
3.573472619E0,-3.331612051E-1,-2.243045807E0,8.183888197E-1
3.593665119E0,2.639190555E-1,-2.515753269E0,1.164599419E0
3.613859077E0,6.511424184E-1,-2.558363676E0,1.370195389E0
3.634054286E0,8.535425067E-1,-1.779123425E0,1.071921587E0
3.654250536E0,8.620646000E-1,-3.862912357E-1,-4.181159660E-2
3.674447515E0,2.458095849E-1,1.170991063E0,-8.205193281E-1
3.694645015E0,-9.350351691E-1,2.019473553E0,-5.952160358E-1
3.714842723E0,-4.444812536E-1,1.325986862E0,-9.081372619E-2
3.735039494E0,6.351634264E-1,7.800393105E-1,-6.098634377E-2
3.755230327E0,3.773696423E-1,1.022386789E0,-1.930790395E-1
3.775415744E0,-3.070622385E-1,1.013332009E0,-9.933583438E-2
3.795601577E0,-5.025381446E-1,5.201149583E-1,2.287653685E-1
3.815788036E0,-2.964096069E-1,-4.507396817E-1,3.779022694E-1
3.835975223E0,1.371526867E-1,-1.821733952E0,1.414137483E-1
3.856163244E0,4.759065211E-1,-3.559711695E0,2.655169666E-1
3.876352202E0,5.406212807E-2,-4.382095337E0,7.225150466E-1
3.896542098E0,-5.265065432E-1,-3.692337036E0,1.121456265E0
3.916732932E0,-6.921550632E-1,-1.130377889E0,1.126250029E0
3.936924702E0,-2.607232630E-1,1.462340713E0,8.194540739E-1
3.957117307E0,5.206475854E-1,1.720667124E0,3.059969842E-1
3.977310640E0,8.407593369E-1,7.640603185E-1,-3.400854170E-1
3.997504598E0,2.223737836E-1,3.587275445E-1,-1.058073163E0
4.017699077E0,-4.285022914E-1,2.612559199E-1,-1.248222709E0
4.037893869E0,-5.062665343E-1,-4.161186218E-1,-7.912245989E-1
4.058088765E0,-1.984053552E-1,-6.621944904E-1,-1.733716577E-1
4.078294494E0,2.005358785E-1,-4.155859649E-1,1.525990218E-1
4.098475432E0,3.038664460E-1,-1.854890287E-1,2.383527458E-1
4.118656682E0,1.360874325E-1,3.701791167E-2,2.442116886E-1
4.138838661E0,-2.902843431E-2,5.992107838E-2,1.845569313E-1
4.159021682E0,-8.815056831E-2,-5.286370963E-2,7.004108280E-2
4.179206057E0,-4.713791609E-2,-1.476721764E-1,-3.701791167E-2
4.199391994E0,1.464737486E-2,-2.419480085E-1,-7.909582555E-2
4.219579598E0,1.571263932E-2,-3.921501637E-1,-5.619265884E-2
4.239768973E0,7.190529723E-3,-5.530049801E-1,-1.251684781E-2
4.259960015E0,1.997369342E-2,-7.101313472E-1,3.914843872E-2
4.280152723E0,2.263685316E-2,-8.033419251E-1,6.151897460E-2
4.300346890E0,1.731053367E-2,-7.767103314E-1,4.500738904E-2
4.320542411E0,1.571263932E-2,-6.552702785E-1,1.145158429E-2
4.340738973E0,2.396843163E-3,-4.683165252E-1,-2.316948399E-2
4.360936369E0,-1.251684781E-2,-1.812279820E-1,-5.832318589E-2
4.381134286E0,-2.210422046E-2,3.062633052E-2,-6.471476704E-2
4.401332411E0,-2.636527456E-2,1.126516312E-1,-4.926844314E-2
4.421529702E0,-2.210422046E-2,1.126516312E-1,-3.382211924E-2
4.441720640E0,7.989477599E-4,3.169159219E-2,-2.423474751E-2
4.461911473E0,-2.663159103E-4,-9.813741595E-2,-1.464737486E-2
4.482096890E0,-2.050632425E-2,-1.519332230E-1,-1.464737486E-2
4.502282723E0,-1.944106072E-2,-1.258342713E-1,-1.038632076E-2
4.522469182E0,-1.518000662E-2,-4.434159771E-2,4.527370445E-3
4.542656369E0,-1.518000662E-2,1.358211134E-2,1.944106072E-2
4.562844390E0,-1.571263932E-2,1.784316637E-2,2.263685316E-2
4.583033348E0,-1.677790284E-2,5.060002208E-3,1.837579720E-2
4.603223244E0,-1.731053367E-2,-8.655266836E-3,1.890842989E-2
4.623414077E0,-1.358211134E-2,-1.930790395E-2,2.370211668E-2
4.643605848E0,-9.321057238E-3,-2.090579830E-2,2.636527456E-2
4.663798452E0,-6.125265732E-3,-2.197106183E-2,2.796317078E-2
4.683991786E0,-7.190529723E-3,-2.516685426E-2,2.743053809E-2
4.704185744E0,-6.125265732E-3,-1.930790395E-2,2.103895694E-2
4.724380223E0,-5.060002208E-3,-1.331579551E-4,1.677790284E-2
4.744575015E0,-5.592633970E-3,2.423474751E-2,1.890842989E-2
4.764769911E0,-6.125265732E-3,4.340949282E-2,2.050632425E-2
4.784975640E0,-5.060002208E-3,4.660528526E-2,1.677790284E-2
4.805156682E0,-5.592633970E-3,3.648528084E-2,1.411474310E-2
4.825338036E0,-7.723161485E-3,2.796317078E-2,1.944106072E-2
4.845520119E0,-7.190529723E-3,3.115896136E-2,2.423474751E-2
4.865703244E0,-7.989477599E-4,4.607265070E-2,2.476738021E-2
4.885887723E0,8.788425475E-3,5.086633936E-2,2.476738021E-2
4.906073661E0,1.091895252E-2,4.127896577E-2,3.062633052E-2
4.926261265E0,4.527370445E-3,3.861580789E-2,3.595264629E-2
4.946450536E0,-1.331579522E-3,5.566002429E-2,3.861580789E-2
4.966641473E0,2.663159103E-4,8.655267209E-2,4.021370411E-2
4.986834077E0,-6.125265732E-3,1.099884734E-1,3.382211924E-2
5.007028140E0,-1.944106072E-2,1.126516312E-1,1.677790284E-2
5.027223557E0,-2.370211668E-2,8.868319541E-2,-3.462106921E-3
5.047420015E0,-1.784316637E-2,4.820318148E-2,-1.038632076E-2
5.067617307E0,-5.060002208E-3,-1.731053460E-3,-1.864211401E-3
5.087815119E0,1.038632076E-2,-3.528685868E-2,1.464737486E-2
5.108013140E0,1.145158429E-2,-2.037316747E-2,1.464737486E-2
5.128210952E0,7.989477599E-4,9.853689000E-3,8.788425475E-3
5.148401890E0,-6.657897960E-3,2.370211668E-2,9.853689000E-3
5.168592723E0,-4.527370445E-3,4.074633494E-2,2.210422046E-2
5.188778140E0,5.592633970E-3,5.193160102E-2,4.554001987E-2
5.208963973E0,1.944106072E-2,5.512739345E-2,6.631266326E-2
5.229150432E0,2.743053809E-2,6.524740160E-2,6.524740160E-2
5.249337619E0,2.370211668E-2,6.737792492E-2,4.820318148E-2
5.269525640E0,1.731053367E-2,4.021370411E-2,3.648528084E-2
5.289714598E0,1.304947957E-2,-5.459476262E-3,3.542001545E-2
5.309904494E0,7.723161485E-3,-4.966791719E-2,4.607265070E-2
5.330095327E0,9.853689000E-3,-8.641951531E-2,5.086633936E-2
5.350287098E0,1.251684781E-2,-1.066595241E-1,3.808317333E-2
5.370479702E0,1.864211401E-3,-1.338237375E-1,1.411474310E-2
5.390673036E0,-2.157158963E-2,-1.466069072E-1,-2.263685316E-2
5.410866994E0,-3.968106955E-2,-1.540637612E-1,-5.938844755E-2
5.431061473E0,-4.926844314E-2,-1.727058738E-1,-9.028109163E-2
5.451256265E0,-6.844318658E-2,-1.593900770E-1,-1.158474237E-1
5.471451161E0,-8.815056831E-2,-1.284974217E-1,-1.019989923E-1
5.491656890E0,-8.069372177E-2,-4.274370521E-2,-5.885581672E-2
5.511837827E0,-4.873581231E-2,1.025316268E-1,-3.994738683E-3
5.532019077E0,-1.251684781E-2,2.149169445E-1,4.447475821E-2
5.552201057E0,1.411474310E-2,2.569948435E-1,5.725792050E-2
5.572384077E0,2.689790726E-2,2.474074811E-1,4.340949282E-2
5.592568452E0,2.423474751E-2,2.287653685E-1,2.423474751E-2
5.612754390E0,2.370211668E-2,1.936116666E-1,1.198421605E-2
5.632941994E0,3.009369783E-2,1.249021590E-1,1.358211134E-2
5.653131369E0,3.062633052E-2,4.660528526E-2,1.944106072E-2
5.673322411E0,1.411474310E-2,-1.331579551E-4,1.997369342E-2
5.693515119E0,-8.788425475E-3,1.304947957E-2,1.997369342E-2
5.713709286E0,-1.518000662E-2,8.655267209E-2,1.837579720E-2
5.733904807E0,-4.527370445E-3,1.621863842E-1,1.145158429E-2
5.754101369E0,2.902843431E-2,2.223737836E-1,-5.139897019E-2
5.774298765E0,1.251684781E-2,1.914811432E-1,-5.592633970E-3
5.794496682E0,-6.524740160E-2,1.410142779E-1,7.696529478E-2
5.814694807E0,-4.447475821E-2,2.862896025E-1,6.045371294E-2
5.834891786E0,6.258423626E-2,4.753738940E-1,1.078579426E-1
5.855082619E0,1.115863696E-1,4.024033546E-1,1.163800508E-1
5.875268036E0,2.476738021E-2,1.286305785E-1,4.713791609E-2
5.895453869E0,-8.069372177E-2,-8.695214242E-2,-2.636527456E-2
5.915640223E0,-7.483477145E-2,-1.183774248E-1,-3.382211924E-2
5.935827307E0,-8.788425475E-3,-8.961530030E-2,9.853689000E-3
5.956015223E0,2.210422046E-2,-1.824264042E-2,2.689790726E-2
5.976204077E0,1.677790284E-2,9.827057272E-2,-9.853689000E-3
5.996393869E0,1.464737486E-2,1.014663652E-1,-4.287686199E-2
6.016584598E0,8.255792782E-3,8.255792782E-3,-3.328948840E-2
6.036776265E0,-5.060002208E-3,-1.717737690E-2,-4.527370445E-3
6.056968765E0,2.316948399E-2,7.270424068E-2,3.861580789E-2
6.077162098E0,8.921582997E-2,2.017343044E-1,6.045371294E-2
6.097356057E0,1.158474237E-1,2.101232558E-1,5.566002429E-2
6.117550536E0,8.175898343E-2,4.340949282E-2,2.956106514E-2
6.137745327E0,3.648528084E-2,-2.110553533E-1,-2.743053809E-2
6.157940327E0,-3.994738683E-3,-4.049333334E-1,-1.009337306E-1
6.178146161E0,-3.435475379E-2,-4.603270590E-1,-1.488705873E-1
6.198327202E0,-5.725792050E-2,-3.516701460E-1,-1.584579647E-1
6.218508557E0,-8.175898343E-2,-1.226384789E-1,-1.280979514E-1
6.238690640E0,-8.815056831E-2,8.974846452E-2,-7.483477145E-2
6.258873765E0,-6.471476704E-2,2.426137924E-1,-3.595264629E-2
6.279058140E0,-2.263685316E-2,2.804306448E-1,5.592633970E-3
6.299243973E0,-1.331579522E-3,1.739042848E-1,4.394212365E-2
6.319431473E0,-1.518000662E-2,-1.370195299E-1,6.524740160E-2
6.339620640E0,-6.311687082E-2,-3.862912357E-1,9.081372619E-2
6.359811473E0,-1.376853287E-1,-5.073318258E-2,1.547295451E-1
6.380003973E0,-9.773793817E-2,8.082687855E-1,1.302284747E-1
6.400198036E0,1.584579647E-1,1.112934232E0,-1.004010960E-1
6.420393452E0,2.761695981E-1,3.065296113E-1,-3.171822429E-1
6.440589911E0,1.731053367E-2,-2.483395934E-1,-4.561991692E-1
6.460787202E0,-2.197106332E-1,-2.467416972E-1,-4.412854612E-1
6.480985015E0,-1.302284747E-1,-2.957438231E-1,-1.019989923E-1
6.501183036E0,1.190432087E-1,-3.261038363E-1,2.761695981E-1
6.521380640E0,2.484727502E-1,-1.535311192E-1,4.460791349E-1
6.541571473E0,1.877527237E-1,2.697780132E-1,5.067991614E-1
6.561756890E0,1.035968885E-1,6.335655451E-1,4.492749274E-1
6.581942723E0,8.388951421E-2,6.671213508E-1,2.410158962E-1
6.602129077E0,5.033370852E-2,3.507380486E-1,-3.861580789E-2
6.622316161E0,-5.779055133E-2,-1.247690022E-1,-1.515337527E-1
6.642504077E0,-1.238368973E-1,-2.872217000E-1,-1.185105816E-1
6.662692932E0,-3.968106955E-2,-8.961530030E-2,-6.258423626E-2
6.682882723E0,5.725792050E-2,1.360874325E-1,-2.583264373E-2
6.703073452E0,2.157158963E-2,2.303632647E-1,-3.009369783E-2
6.723265119E0,-6.791055948E-2,1.463405937E-1,-5.938844755E-2
6.743457619E0,-8.388951421E-2,3.328948840E-2,-7.163897902E-2
6.763650848E0,-3.062633052E-2,-8.588688076E-2,-4.820318148E-2
6.783844702E0,-1.331579522E-3,-1.828258783E-1,-6.125265732E-3
6.804039077E0,-1.890842989E-2,-1.929458827E-1,3.755054250E-2
6.824233765E0,-1.677790284E-2,-9.920267761E-2,7.590003312E-2
6.844428661E0,1.784316637E-2,4.660528526E-2,1.035968885E-1
6.864634390E0,2.316948399E-2,1.378184855E-1,9.241162241E-2
6.884815432E0,-1.731053367E-2,1.025316268E-1,4.820318148E-2
6.904996786E0,-5.193160102E-2,1.944106072E-2,2.929474926E-3
6.925178869E0,-3.701791167E-2,-5.446160212E-2,-1.997369342E-2
6.945361994E0,2.396843163E-3,-1.135837361E-1,-1.571263932E-2
6.965546369E0,1.890842989E-2,-1.343563795E-1,1.784316637E-2
6.985732202E0,2.103895694E-2,-1.018658355E-1,3.968106955E-2
7.005919702E0,2.316948399E-2,-6.032055244E-2,3.115896136E-2
7.026108869E0,2.476738021E-2,-4.061317816E-2,2.423474751E-2
7.046299702E0,3.382211924E-2,-7.057371549E-3,3.062633052E-2
7.066492202E0,6.151897460E-2,4.234423116E-2,2.396843163E-3
7.086686161E0,6.205160543E-2,3.595264629E-2,-2.050632425E-2
7.106881473E0,9.321057238E-3,-1.055942550E-1,-7.962846011E-2
7.127077827E0,-8.016108721E-2,-1.972069293E-1,-1.616537571E-1
7.147275015E0,-9.720530361E-2,-1.460742801E-1,-1.595232338E-1
7.167472723E0,-1.997369342E-2,-6.511423737E-2,-1.057274193E-1
7.187670640E0,1.304947957E-2,-5.392897129E-2,-7.536740601E-2
7.207868244E0,-3.861580789E-2,-5.339634046E-2,-6.151897460E-2
7.228058973E0,-5.672528967E-2,1.997369342E-2,-2.263685316E-2
7.248244286E0,5.060002208E-3,1.110537350E-1,2.476738021E-2
7.268430015E0,5.619265884E-2,1.201084778E-1,4.127896577E-2
7.288616369E0,5.779055133E-2,4.127896577E-2,3.382211924E-2
7.308803452E0,5.033370852E-2,-6.564687192E-2,3.328948840E-2
7.328991369E0,5.885581672E-2,-1.231711060E-1,5.672528967E-2
7.349180223E0,7.590003312E-2,-1.098553166E-1,9.560741484E-2
7.369370015E0,8.708529919E-2,-7.949529588E-2,1.163800508E-1
7.389560744E0,7.962846011E-2,-6.458161026E-2,1.190432087E-1
7.409752411E0,6.631266326E-2,-5.605949834E-2,1.126516312E-1
7.429944911E0,6.311687082E-2,-2.729738131E-2,1.014663652E-1
7.450138140E0,6.950845569E-2,7.190529723E-3,9.187898785E-2
7.470331994E0,7.590003312E-2,2.530001104E-2,8.868319541E-2
7.490526369E0,7.590003312E-2,2.849580161E-2,8.761793375E-2
7.510721057E0,6.844318658E-2,2.370211668E-2,8.548741043E-2
7.530915848E0,5.885581672E-2,2.316948399E-2,8.282424510E-2
7.551121473E0,5.512739345E-2,2.157158963E-2,8.335687965E-2
7.571302202E0,5.406212807E-2,1.464737486E-2,8.868319541E-2
7.591483244E0,4.926844314E-2,1.944106072E-2,8.175898343E-2
7.611665015E0,3.808317333E-2,3.755054250E-2,5.619265884E-2
7.631847827E0,2.263685316E-2,4.554001987E-2,2.636527456E-2
7.652031994E0,1.358211134E-2,3.488738462E-2,6.657897960E-3
7.672217723E0,1.198421605E-2,3.222422674E-2,-2.929474926E-3
7.692405119E0,1.145158429E-2,3.755054250E-2,-5.592633970E-3
7.712594286E0,6.657897960E-3,3.542001545E-2,-8.255792782E-3
7.732785223E0,-2.663159103E-4,2.316948399E-2,-1.304947957E-2
7.752977827E0,-7.723161485E-3,1.518000662E-2,-2.157158963E-2
7.773171994E0,-1.091895252E-2,3.994738683E-3,-2.902843431E-2
7.793367515E0,-5.060002208E-3,-1.664474420E-2,-2.849580161E-2
7.813564077E0,7.989477599E-4,-3.901528195E-2,-2.689790726E-2
7.833761473E0,-3.462106921E-3,-5.392897129E-2,-1.731053367E-2
7.853959390E0,-8.788425475E-3,-5.499423668E-2,-5.060002208E-3
7.874157515E0,-6.125265732E-3,-3.581948951E-2,4.527370445E-3
7.894354286E0,-2.663159103E-4,-2.090579830E-2,6.125265732E-3
7.914545015E0,7.989477599E-4,-2.729738131E-2,-2.929474926E-3
7.934730327E0,-5.592633970E-3,-3.688475490E-2,-1.518000662E-2
7.954916057E0,-1.091895252E-2,-3.102580272E-2,-1.464737486E-2
7.975102307E0,-1.304947957E-2,-1.824264042E-2,-4.527370445E-3
7.995289286E0,-1.731053367E-2,-2.143843099E-2,2.396843163E-3
8.015477098E0,-2.103895694E-2,-3.155843541E-2,9.321057238E-3
8.035665848E0,-1.358211134E-2,-3.315633163E-2,1.624527015E-2
8.055855536E0,-2.396843163E-3,-2.569948509E-2,2.050632425E-2
8.076046161E0,-2.929474926E-3,-5.992108025E-3,1.731053367E-2
8.096237723E0,-7.190529723E-3,1.944106072E-2,8.788425475E-3
8.116430119E0,-6.657897960E-3,3.595264629E-2,2.929474926E-3
8.136623244E0,-3.462106921E-3,4.021370411E-2,2.929474926E-3
8.156816994E0,-2.396843163E-3,3.701791167E-2,5.592633970E-3
8.177011265E0,-2.929474926E-3,3.328948840E-2,1.251684781E-2
8.197205848E0,-7.989477599E-4,4.074633494E-2,1.890842989E-2
8.217400640E0,-7.989477599E-4,5.566002429E-2,2.103895694E-2
8.237606265E0,-3.994738683E-3,6.684529036E-2,1.997369342E-2
8.257787307E0,1.331579522E-3,7.323687524E-2,2.263685316E-2
8.277968661E0,9.321057238E-3,7.803056389E-2,2.636527456E-2
8.298150744E0,1.198421605E-2,8.442214131E-2,2.689790726E-2
8.318333869E0,1.358211134E-2,9.241162241E-2,2.956106514E-2
8.338518244E0,1.677790284E-2,1.121189967E-1,3.542001545E-2
8.358704077E0,2.210422046E-2,1.372858584E-1,3.701791167E-2
8.378891577E0,3.275685757E-2,1.536642760E-1,2.316948399E-2
8.399080744E0,3.062633052E-2,1.872200817E-1,-2.929474926E-3
8.419271577E0,2.663159103E-4,2.292979956E-1,-1.198421605E-2
8.439463973E0,-1.358211134E-2,2.553969622E-1,2.689790726E-2
8.459657827E0,3.861580789E-2,2.980075181E-1,7.270424068E-2
8.479852932E0,1.078579426E-1,3.283675313E-1,8.442214131E-2
8.500049077E0,9.880319983E-2,3.693801761E-1,6.524740160E-2
8.520246057E0,6.098634377E-2,3.528685868E-1,2.210422046E-2
8.540443557E0,5.193160102E-2,2.841590643E-1,-8.788425475E-3
8.560641265E0,5.139897019E-2,1.494032294E-1,6.125265732E-3
8.580838765E0,3.648528084E-2,9.321057005E-4,3.009369783E-2
8.601029182E0,4.394212365E-2,-6.458161026E-2,3.914843872E-2
8.621214182E0,7.376950979E-2,-7.310371846E-2,1.091895252E-2
8.641399598E0,4.021370411E-2,-2.414153665E-1,-3.328948840E-2
8.661585640E0,-1.025316268E-1,-4.054659605E-1,-7.163897902E-2
8.681772411E0,-1.946769357E-1,-4.438154697E-1,-5.885581672E-2
8.701960015E0,-1.478053331E-1,-3.697796464E-1,8.788425475E-3
8.722148557E0,-7.110634446E-2,-2.488722205E-1,6.631266326E-2
8.742338140E0,-5.619265884E-2,-1.545963883E-1,8.229161799E-2
8.762528765E0,-6.844318658E-2,-1.290300637E-1,5.352949724E-2
8.782720327E0,-6.791055948E-2,-8.748477697E-2,1.464737486E-2
8.802912827E0,-2.902843431E-2,-5.446160212E-2,1.864211401E-3
8.823106161E0,5.060002208E-3,-8.162582666E-2,1.997369342E-2
8.843300119E0,1.837579720E-2,-1.141163707E-1,5.246423557E-2
8.863494598E0,3.701791167E-2,-1.300953180E-1,8.974846452E-2
8.883689390E0,4.074633494E-2,-6.032055244E-2,1.089232042E-1
8.903884286E0,2.956106514E-2,3.861580789E-2,1.035968885E-1
8.924090015E0,3.275685757E-2,5.566002429E-2,7.483477145E-2
8.944270432E0,8.255792782E-3,4.873581231E-2,3.808317333E-2
8.964451161E0,-7.110634446E-2,9.614004195E-2,-3.488738462E-2
8.984632619E0,-1.749695539E-1,2.356895804E-1,-1.659148186E-1
9.004815119E0,-2.394180000E-1,2.261022031E-1,-3.273022473E-1
9.024998973E0,-2.617885470E-1,2.743053809E-2,-4.636560082E-1
9.045184390E0,-3.198454082E-1,-2.275669426E-1,-3.928159773E-1
9.065371577E0,-2.772348523E-1,-3.580617309E-1,-9.986846894E-2
9.085560536E0,1.464737486E-2,-3.681817353E-1,1.547295451E-1
9.105751265E0,2.575274706E-1,-3.213101327E-1,2.197106332E-1
9.125943765E0,1.930790395E-1,-1.375521719E-1,1.419463754E-1
9.146137827E0,-2.210422046E-2,-8.641951531E-2,2.050632425E-2
9.166333244E0,-1.504684836E-1,-9.653951973E-2,-4.607265070E-2
9.186529807E0,-8.548741043E-2,6.657897960E-3,-3.595264629E-2
9.206727202E0,5.299686641E-2,1.163800508E-1,1.677790284E-2
9.226925119E0,7.376950979E-2,1.751027107E-1,7.376950979E-2
9.247123244E0,1.997369342E-2,1.973400861E-1,9.720530361E-2
9.267320640E0,-2.396843163E-3,2.031990439E-1,7.270424068E-2
9.287511265E0,-1.251684781E-2,2.085253596E-1,5.060002208E-3
9.307696473E0,-3.701791167E-2,1.474058628E-1,-6.844318658E-2
9.327882098E0,-5.406212807E-2,3.062633052E-2,-1.062600464E-1
9.348068244E0,-3.382211924E-2,-9.813741595E-2,-9.347688407E-2
9.368255119E0,-5.592633970E-3,-2.083922029E-1,-3.328948840E-2
9.388442827E0,6.125265732E-3,-1.700427085E-1,5.033370852E-2
9.408631473E0,4.340949282E-2,-2.250369452E-2,1.163800508E-1
9.428821057E0,6.897582114E-2,9.507478029E-2,1.174453199E-1
9.449011577E0,3.914843872E-2,1.447426975E-1,6.311687082E-2
9.469203036E0,7.989477599E-4,1.089232042E-1,-1.331579522E-3
9.489395327E0,-8.788425475E-3,7.536740601E-2,-2.157158963E-2
9.509588348E0,7.723161485E-3,2.689790726E-2,7.723161485E-3
9.529781994E0,3.328948840E-2,7.989477599E-4,6.151897460E-2
9.549976161E0,5.086633936E-2,3.382211924E-2,1.004010960E-1
9.570170640E0,4.873581231E-2,6.950845569E-2,9.720530361E-2
9.590365327E0,3.328948840E-2,9.773793817E-2,5.938844755E-2
9.610570848E0,2.157158963E-2,1.004010960E-1,-7.989477599E-4
9.630751473E0,-2.396843163E-3,1.105211005E-1,-3.169159219E-2
9.650932411E0,-1.837579720E-2,8.388951421E-2,-3.169159219E-2
9.671114077E0,-1.038632076E-2,4.713791609E-2,-2.370211668E-2
9.691296786E0,2.396843163E-3,2.636527456E-2,-1.624527015E-2
9.711480848E0,-5.060002208E-3,9.321057238E-3,-1.997369342E-2
9.731666473E0,-2.583264373E-2,-1.025316212E-2,-4.021370411E-2
9.751853765E0,-4.926844314E-2,-1.771000773E-2,-6.631266326E-2
9.772042827E0,-4.873581231E-2,-4.221107066E-2,-8.495477587E-2
9.792233557E0,-4.181159660E-2,-7.949529588E-2,-9.028109163E-2
9.812425952E0,-4.607265070E-2,-1.167795286E-1,-8.069372177E-2
9.832619807E0,-5.193160102E-2,-1.130511016E-1,-6.631266326E-2
9.852815015E0,-3.435475379E-2,-1.082574204E-1,-6.045371294E-2
9.873011265E0,-1.198421605E-2,-1.540637612E-1,-5.938844755E-2
9.893208348E0,-2.370211668E-2,-1.609879732E-1,-4.554001987E-2
9.913405952E0,-4.181159660E-2,-8.535424620E-2,-1.784316637E-2
9.933603765E0,-9.321057238E-3,-2.516685426E-2,-1.145158429E-2
9.953800640E0,3.595264629E-2,-2.729738131E-2,-4.926844314E-2
9.973991161E0,1.304947957E-2,-5.446160212E-2,-9.028109163E-2
9.994176265E0,-3.701791167E-2,-9.494162351E-2,-9.986846894E-2
1.001436179E1,-4.181159660E-2,-1.077247858E-1,-7.909582555E-2
1.003454783E1,-1.837579720E-2,-7.523424178E-2,-4.820318148E-2
1.005473460E1,-8.255792782E-3,-5.712476373E-2,-2.956106514E-2
1.007492220E1,-2.157158963E-2,-7.416898012E-2,-3.275685757E-2
1.009511074E1,-3.914843872E-2,-9.547425061E-2,-4.287686199E-2
1.011530022E1,-4.554001987E-2,-8.588688076E-2,-4.820318148E-2
1.013549064E1,-4.074633494E-2,-3.901528195E-2,-4.873581231E-2
1.015568199E1,-2.796317078E-2,-1.131842658E-2,-5.086633936E-2
1.017587418E1,-8.255792782E-3,-1.664474420E-2,-4.980107397E-2
1.019606710E1,1.304947957E-2,-4.807002097E-2,-3.861580789E-2
1.021626064E1,2.743053809E-2,-7.736477256E-2,-1.890842989E-2
1.023645470E1,2.423474751E-2,-3.368896246E-2,2.396843163E-3
1.025664908E1,2.796317078E-2,-1.451421715E-2,4.527370445E-3
1.027684366E1,3.062633052E-2,-6.724476814E-2,-1.091895252E-2
1.029704908E1,9.321057238E-3,-7.470161468E-2,-1.198421605E-2
1.031723033E1,-1.864211401E-3,-5.233107507E-2,-7.989477599E-4
1.033741189E1,1.038632076E-2,-3.368896246E-2,-2.929474926E-3
1.035759408E1,1.518000662E-2,-2.942790836E-2,-1.091895252E-2
1.037777720E1,-5.592633970E-3,-3.635212034E-2,-8.255792782E-3
1.039796158E1,-2.849580161E-2,-2.783001214E-2,2.396843163E-3
1.041814741E1,-3.275685757E-2,1.038632076E-2,1.864211401E-3
1.043833481E1,-2.956106514E-2,3.755054250E-2,7.989477599E-4
1.045852387E1,-3.009369783E-2,3.328948840E-2,5.592633970E-3
1.047871449E1,-2.902843431E-2,3.009369783E-2,1.198421605E-2
1.049890668E1,-1.677790284E-2,3.648528084E-2,1.251684781E-2
1.051910033E1,-8.788425475E-3,5.086633936E-2,5.592633970E-3
1.053929522E1,-2.370211668E-2,6.950845569E-2,-3.994738683E-3
1.055949116E1,-3.648528084E-2,7.856319100E-2,-6.125265732E-3
1.057968783E1,-2.796317078E-2,6.791055948E-2,3.462106921E-3
1.059988491E1,-1.091895252E-2,5.459476262E-2,1.251684781E-2
1.062008220E1,1.331579522E-3,2.423474751E-2,1.358211134E-2
1.064027845E1,-1.331579522E-3,-9.720530361E-3,1.624527015E-2
1.066046897E1,-9.853689000E-3,-1.664474420E-2,2.210422046E-2
1.068065939E1,-1.304947957E-2,-1.731053460E-3,2.423474751E-2
1.070084439E1,-1.677790284E-2,1.358211134E-2,2.370211668E-2
1.072102981E1,-2.050632425E-2,1.411474310E-2,1.677790284E-2
1.074121585E1,-2.316948399E-2,3.994738683E-3,9.853689000E-3
1.076140262E1,-2.423474751E-2,-4.926844500E-3,5.060002208E-3
1.078159022E1,-1.997369342E-2,-5.459476262E-3,7.989477599E-4
1.080177876E1,-1.571263932E-2,1.997369342E-3,-2.929474926E-3
1.082196824E1,-1.944106072E-2,6.125265732E-3,-9.321057238E-3
1.084215866E1,-2.689790726E-2,3.994738800E-4,-1.944106072E-2
1.086235002E1,-3.222422674E-2,-8.655266836E-3,-2.583264373E-2
1.088254220E1,-2.956106514E-2,-6.524739787E-3,-1.677790284E-2
1.090273512E1,-1.518000662E-2,3.062632866E-3,-6.125265732E-3
1.092292866E1,-1.864211401E-3,-5.459476262E-3,-3.994738683E-3
1.094312272E1,1.331579522E-3,-2.516685426E-2,-1.864211401E-3
1.096331710E1,2.929474926E-3,-2.463422157E-2,-3.994738683E-3
1.098351158E1,3.994738683E-3,-7.057371549E-3,-9.321057238E-3
1.100371689E1,3.462106921E-3,8.255792782E-3,-6.657897960E-3
1.102389752E1,3.994738683E-3,1.890842989E-2,-3.994738683E-3
1.104407845E1,6.657897960E-3,1.571263932E-2,-1.331579522E-3
1.106426012E1,6.125265732E-3,4.527370445E-3,1.331579522E-3
1.108444283E1,8.788425475E-3,7.190529723E-3,-4.527370445E-3
1.110462679E1,1.411474310E-2,2.396843163E-3,-1.145158429E-2
1.112481231E1,1.571263932E-2,-9.187898599E-3,-1.677790284E-2
1.114499949E1,1.837579720E-2,-1.344895363E-2,-2.423474751E-2
1.116518835E1,1.944106072E-2,-1.771000773E-2,-2.796317078E-2
1.118537887E1,1.890842989E-2,-2.996053919E-2,-2.157158963E-2
1.120557106E1,2.530001104E-2,-3.848264739E-2,-1.464737486E-2
1.122576470E1,3.275685757E-2,-4.274370521E-2,-1.944106072E-2
1.124595970E1,2.689790726E-2,-5.552686751E-2,-3.115896136E-2
1.126615574E1,1.731053367E-2,-8.215846121E-2,-3.435475379E-2
1.128635262E1,1.944106072E-2,-9.281109273E-2,-3.861580789E-2
1.130655002E1,2.316948399E-2,-8.375635743E-2,-4.234423116E-2
1.132674762E1,1.890842989E-2,-7.523424178E-2,-4.127896577E-2
1.134694460E1,1.997369342E-2,-7.150582224E-2,-3.968106955E-2
1.136713512E1,2.743053809E-2,-7.843003422E-2,-4.447475821E-2
1.138732554E1,3.169159219E-2,-9.068056941E-2,-5.299686641E-2
1.140751054E1,2.689790726E-2,-1.023984700E-1,-6.471476704E-2
1.142769595E1,1.411474310E-2,-1.087900475E-1,-6.791055948E-2
1.144788189E1,8.788425475E-3,-1.013332009E-1,-5.672528967E-2
1.146806856E1,1.677790284E-2,-8.695214242E-2,-3.542001545E-2
1.148825606E1,2.956106514E-2,-7.044056058E-2,-1.677790284E-2
1.150844449E1,4.127896577E-2,-5.659212917E-2,-1.944106072E-2
1.152863387E1,4.181159660E-2,-5.179844424E-2,-2.902843431E-2
1.154882418E1,3.808317333E-2,-4.913528636E-2,-2.902843431E-2
1.156901543E1,4.447475821E-2,-4.008054361E-2,-2.743053809E-2
1.158920752E1,4.767054692E-2,-3.102580272E-2,-2.050632425E-2
1.160940033E1,4.074633494E-2,-2.623211779E-2,-6.125265732E-3
1.162959377E1,3.701791167E-2,-1.131842658E-2,-2.929474926E-3
1.164978772E1,3.861580789E-2,-6.524739787E-3,-9.853689000E-3
1.166998199E1,4.181159660E-2,-1.664474420E-2,-1.837579720E-2
1.169017647E1,4.234423116E-2,-2.463422157E-2,-2.530001104E-2
1.171038179E1,3.755054250E-2,-1.611211337E-2,-1.944106072E-2
1.173056272E1,4.021370411E-2,5.592633970E-3,-7.190529723E-3
1.175074397E1,5.512739345E-2,2.370211668E-2,-1.864211401E-3
1.177092595E1,6.045371294E-2,1.784316637E-2,-1.997369342E-2
1.179110897E1,3.861580789E-2,-1.611211337E-2,-4.394212365E-2
1.181129324E1,7.723161485E-3,-5.073318258E-2,-5.086633936E-2
1.183147897E1,3.994738683E-3,-5.605949834E-2,-4.127896577E-2
1.185166626E1,1.731053367E-2,-5.552686751E-2,-2.583264373E-2
1.187185522E1,1.997369342E-2,-7.044056058E-2,-1.890842989E-2
1.189204585E1,1.251684781E-2,-7.150582224E-2,-2.636527456E-2
1.191223804E1,8.788425475E-3,-5.765739456E-2,-4.394212365E-2
1.193243168E1,6.657897960E-3,-4.860265180E-2,-5.459476262E-2
1.195262658E1,1.864211401E-3,-5.020054802E-2,-5.299686641E-2
1.197282252E1,7.989477599E-4,-5.978792161E-2,-4.447475821E-2
1.199301918E1,3.994738683E-3,-6.351634115E-2,-3.488738462E-2
1.201321626E1,-1.331579522E-3,-6.511423737E-2,-3.169159219E-2
1.203341356E1,-1.145158429E-2,-6.671213359E-2,-2.796317078E-2
1.205360929E1,-1.091895252E-2,-6.191844866E-2,-2.476738021E-2
1.207379970E1,-6.125265732E-3,-5.819002539E-2,-2.423474751E-2
1.209398470E1,-7.989477599E-4,-6.138581783E-2,-1.784316637E-2
1.211417012E1,6.657897960E-3,-6.245107949E-2,-1.145158429E-2
1.213435606E1,1.331579522E-3,-4.593949392E-2,-5.060002208E-3
1.215454272E1,-1.038632076E-2,-1.451421715E-2,4.527370445E-3
1.217473022E1,-1.145158429E-2,1.038632076E-2,1.571263932E-2
1.219491866E1,-1.038632076E-2,2.370211668E-2,2.370211668E-2
1.221510804E1,-2.396843163E-3,1.997369342E-2,2.210422046E-2
1.223529835E1,6.657897960E-3,1.198421605E-2,1.251684781E-2
1.225548960E1,-5.060002208E-3,1.837579720E-2,8.255792782E-3
1.227568168E1,-2.370211668E-2,3.755054250E-2,9.321057238E-3
1.229587449E1,-2.423474751E-2,6.258423626E-2,1.198421605E-2
1.231606793E1,-1.091895252E-2,6.631266326E-2,1.890842989E-2
1.233626189E1,2.929474926E-3,4.500738904E-2,1.837579720E-2
1.235645616E1,6.657897960E-3,2.530001104E-2,8.255792782E-3
1.237665064E1,-2.396843163E-3,2.796317078E-2,2.396843163E-3
1.239685595E1,-1.091895252E-2,5.619265884E-2,3.994738683E-3
1.241703647E1,-9.853689000E-3,8.016108721E-2,6.657897960E-3
1.243721731E1,-1.358211134E-2,7.163897902E-2,3.462106921E-3
1.245739887E1,-2.743053809E-2,4.713791609E-2,-6.125265732E-3
1.247758147E1,-4.127896577E-2,3.328948840E-2,-1.624527015E-2
1.249776543E1,-4.447475821E-2,2.370211668E-2,-2.050632425E-2
1.251795085E1,-4.287686199E-2,7.190529723E-3,-1.837579720E-2
1.253813793E1,-4.021370411E-2,-1.451421715E-2,-1.464737486E-2
1.255832668E1,-3.595264629E-2,-2.463422157E-2,-9.853689000E-3
1.257851710E1,-3.009369783E-2,-1.877527125E-2,-5.060002208E-3
1.259870918E1,-2.370211668E-2,-1.731053460E-3,-5.060002208E-3
1.261890283E1,-2.636527456E-2,1.677790284E-2,-6.125265732E-3
1.263909783E1,-4.074633494E-2,3.755054250E-2,-1.198421605E-2
1.265929387E1,-4.820318148E-2,5.938844755E-2,-1.997369342E-2
1.267949074E1,-4.713791609E-2,7.536740601E-2,-1.997369342E-2
1.269968814E1,-3.914843872E-2,7.376950979E-2,7.190529723E-3
1.271988574E1,-2.263685316E-2,7.483477145E-2,4.713791609E-2
1.274008272E1,3.462106921E-3,7.110634446E-2,5.832318589E-2
1.276027304E1,-1.331579522E-3,5.086633936E-2,4.021370411E-2
1.278045793E1,-3.808317333E-2,4.287686199E-2,3.914843872E-2
1.280064324E1,-4.340949282E-2,9.187898785E-2,6.897582114E-2
1.282082918E1,2.396843163E-3,1.627190262E-1,1.089232042E-1
1.284101585E1,1.837579720E-2,1.612542868E-1,1.179779470E-1
1.286120335E1,-1.251684781E-2,9.081372619E-2,9.081372619E-2
1.288139179E1,-2.050632425E-2,4.926844314E-2,6.897582114E-2
1.290158116E1,8.788425475E-3,8.229161799E-2,9.560741484E-2
1.292177147E1,3.115896136E-2,1.392832249E-1,1.328916401E-1
1.294196272E1,2.530001104E-2,1.765674502E-1,1.158474237E-1
1.296215481E1,-9.853689000E-3,1.595232338E-1,3.648528084E-2
1.298234762E1,-5.406212807E-2,8.921582997E-2,-2.157158963E-2
1.300254106E1,-5.406212807E-2,2.583264373E-2,-3.488738462E-2
1.302273502E1,-2.316948399E-2,-9.187898599E-3,-8.255792782E-3
1.304292929E1,-2.103895694E-2,-1.930790395E-2,1.518000662E-2
1.306312376E1,-4.767054692E-2,-9.187898599E-3,1.198421605E-2
1.308332908E1,-7.110634446E-2,2.370211668E-2,-9.321057238E-3
1.310350970E1,-7.962846011E-2,3.701791167E-2,-3.488738462E-2
1.312369064E1,-7.696529478E-2,8.255792782E-3,-5.299686641E-2
1.314387231E1,-7.004108280E-2,-3.368896246E-2,-4.607265070E-2
1.316405502E1,-5.566002429E-2,-3.581948951E-2,-7.190529723E-3
1.318423897E1,-3.009369783E-2,1.464737486E-2,3.755054250E-2
1.320442439E1,2.396843163E-3,9.614004195E-2,6.364950538E-2
1.322461147E1,2.103895694E-2,1.414137483E-1,6.151897460E-2
1.324480022E1,1.624527015E-2,1.233042628E-1,3.595264629E-2
1.326499064E1,-2.929474926E-3,8.815056831E-2,1.464737486E-2
1.328518272E1,-3.435475379E-2,6.897582114E-2,2.370211668E-2
1.330537627E1,-6.205160543E-2,4.607265070E-2,3.222422674E-2
1.332557116E1,-7.110634446E-2,5.193160102E-2,3.435475379E-2
1.334576710E1,-4.234423116E-2,6.791055948E-2,3.808317333E-2
1.336596387E1,-9.853689000E-3,5.619265884E-2,3.648528084E-2
1.338616116E1,-1.784316637E-2,2.689790726E-2,1.411474310E-2
1.340635866E1,-5.406212807E-2,1.677790284E-2,-1.890842989E-2
1.342655595E1,-6.578002870E-2,3.328948840E-2,-2.849580161E-2
1.344674627E1,-4.074633494E-2,4.713791609E-2,-1.784316637E-2
1.346693116E1,-1.411474310E-2,4.820318148E-2,-1.518000662E-2
1.348711647E1,-9.321057238E-3,1.091895252E-2,-2.902843431E-2
1.350730241E1,-1.837579720E-2,-3.635212034E-2,-3.062633052E-2
1.352748908E1,-2.636527456E-2,-4.860265180E-2,-1.890842989E-2
1.354767658E1,-1.784316637E-2,-3.102580272E-2,-4.527370445E-3
1.356786502E1,-6.657897960E-3,-1.664474420E-2,-3.994738683E-3
1.358805439E1,-1.145158429E-2,-3.422159329E-2,-1.731053367E-2
1.360824470E1,-2.530001104E-2,-5.126581341E-2,-3.222422674E-2
1.362843595E1,-2.263685316E-2,-4.167843983E-2,-2.530001104E-2
1.364862804E1,-2.929474926E-3,-9.187898599E-3,-2.929474926E-3
1.366882085E1,9.321057238E-3,1.304947957E-2,1.677790284E-2
1.368901429E1,3.462106921E-3,2.210422046E-2,1.837579720E-2
1.370920824E1,-5.592633970E-3,1.731053367E-2,6.657897960E-3
1.372940252E1,-6.125265732E-3,1.145158429E-2,-2.929474926E-3
1.374959699E1,-3.994738683E-3,2.396843163E-3,-7.190529723E-3
1.376980231E1,-5.060002208E-3,-1.078579482E-2,-3.462106921E-3
1.378998272E1,2.396843163E-3,-1.238369010E-2,8.255792782E-3
1.381016345E1,1.464737486E-2,-8.655266836E-3,1.677790284E-2
1.383034491E1,1.731053367E-2,-3.861580743E-3,1.784316637E-2
1.385052741E1,1.304947957E-2,-7.590003312E-3,1.784316637E-2
1.387071126E1,1.145158429E-2,-7.057371549E-3,1.890842989E-2
1.389089668E1,1.677790284E-2,1.997369342E-3,2.050632425E-2
1.391108376E1,2.316948399E-2,1.997369342E-3,1.997369342E-2
1.393127262E1,2.210422046E-2,-5.459476262E-3,1.251684781E-2
1.395146314E1,1.145158429E-2,-1.398158539E-2,6.657897960E-3
1.397165533E1,5.592633970E-3,-1.504684892E-2,6.657897960E-3
1.399184897E1,9.853689000E-3,-5.459476262E-3,1.198421605E-2
1.401204397E1,1.677790284E-2,5.592633970E-3,1.411474310E-2
1.403224002E1,1.677790284E-2,5.060002208E-3,8.788425475E-3
1.405243689E1,1.251684781E-2,-5.459476262E-3,2.396843163E-3
1.407263429E1,1.464737486E-2,-1.344895363E-2,-1.331579522E-3
1.409283189E1,1.890842989E-2,-1.824264042E-2,2.396843163E-3
1.411302845E1,1.890842989E-2,-2.303632535E-2,8.788425475E-3
1.413321887E1,1.731053367E-2,-2.942790836E-2,1.198421605E-2
1.415340918E1,1.624527015E-2,-3.581948951E-2,1.038632076E-2
1.417359408E1,1.251684781E-2,-4.647212476E-2,6.125265732E-3
1.419377939E1,7.723161485E-3,-5.659212917E-2,2.929474926E-3
1.421396522E1,5.592633970E-3,-5.659212917E-2,2.929474926E-3
1.423415179E1,6.125265732E-3,-4.966791719E-2,5.060002208E-3
1.425433918E1,6.657897960E-3,-4.167843983E-2,2.929474926E-3
1.427452752E1,5.592633970E-3,-3.475422785E-2,-7.989477599E-4
1.429471679E1,1.331579522E-3,-2.676474862E-2,2.663159103E-4
1.431490699E1,-7.989477599E-4,-1.611211337E-2,-2.663159103E-4
1.433509814E1,-5.060002208E-3,-1.238369010E-2,1.331579522E-3
1.435529012E1,-5.060002208E-3,-1.025316212E-2,5.060002208E-3
1.437548293E1,7.989477599E-4,-1.025316212E-2,6.657897960E-3
1.439567637E1,5.592633970E-3,-1.185105834E-2,9.321057238E-3
1.441587033E1,7.723161485E-3,-1.504684892E-2,1.677790284E-2
1.443606460E1,1.251684781E-2,-7.057371549E-3,2.316948399E-2
1.445625908E1,1.411474310E-2,1.198421605E-2,2.530001104E-2
1.447646439E1,1.358211134E-2,1.677790284E-2,2.316948399E-2
1.449664502E1,1.518000662E-2,8.255792782E-3,2.050632425E-2
1.451682595E1,1.411474310E-2,5.592633970E-3,2.050632425E-2
1.453700762E1,1.198421605E-2,6.657897960E-3,2.476738021E-2
1.455719033E1,1.518000662E-2,1.198421605E-2,3.275685757E-2
1.457737429E1,2.050632425E-2,1.944106072E-2,3.648528084E-2
1.459755970E1,1.890842989E-2,3.009369783E-2,3.382211924E-2
1.461774679E1,1.251684781E-2,3.382211924E-2,2.743053809E-2
1.463793554E1,7.723161485E-3,3.115896136E-2,2.316948399E-2
1.465812595E1,1.145158429E-2,3.755054250E-2,2.743053809E-2
1.467831793E1,1.890842989E-2,5.033370852E-2,3.009369783E-2
1.469851137E1,2.103895694E-2,4.873581231E-2,2.902843431E-2
1.471870606E1,1.464737486E-2,3.648528084E-2,2.476738021E-2
1.473890179E1,9.321057238E-3,3.115896136E-2,2.050632425E-2
1.475909835E1,7.190529723E-3,3.382211924E-2,2.157158963E-2
1.477929543E1,8.255792782E-3,4.127896577E-2,2.157158963E-2
1.479949272E1,9.853689000E-3,3.808317333E-2,1.784316637E-2
1.481968460E1,1.038632076E-2,3.009369783E-2,1.091895252E-2
1.483987658E1,6.657897960E-3,2.583264373E-2,2.663159103E-4
1.486007939E1,1.864211401E-3,2.370211668E-2,-4.527370445E-3
1.488026106E1,-2.929474926E-3,1.890842989E-2,-2.396843163E-3
1.490044304E1,-2.929474926E-3,1.038632076E-2,1.331579522E-3
1.492062564E1,4.527370445E-3,-1.731053460E-3,3.994738683E-3
1.494080918E1,7.190529723E-3,-1.824264042E-2,2.396843163E-3
1.496099387E1,7.989477599E-4,-1.930790395E-2,-1.864211401E-3
1.498117991E1,-6.657897960E-3,-8.122635074E-3,-2.929474926E-3
1.500136741E1,-3.994738683E-3,-4.394212738E-3,-3.462106921E-3
1.502155637E1,-1.331579522E-3,-8.655266836E-3,-3.994738683E-3
1.504174679E1,2.663159103E-4,-2.516685426E-2,-7.723161485E-3
1.506193866E1,7.989477599E-4,-4.487423226E-2,-1.091895252E-2
1.508213179E1,1.331579522E-3,-4.380896688E-2,-1.198421605E-2
1.510232606E1,1.331579522E-3,-3.635212034E-2,-6.657897960E-3
1.512252127E1,2.929474926E-3,-3.422159329E-2,-2.396843163E-3
1.514271720E1,6.657897960E-3,-3.102580272E-2,-2.396843163E-3
1.516291356E1,6.657897960E-3,-2.676474862E-2,-6.657897960E-3
1.518311012E1,1.331579522E-3,-2.516685426E-2,-8.255792782E-3
1.520330585E1,-7.989477599E-4,-2.090579830E-2,-1.038632076E-2
1.522349616E1,2.663159103E-4,-1.824264042E-2,-7.723161485E-3
1.524368637E1,1.331579522E-3,-1.771000773E-2,-3.462106921E-3
1.526387116E1,4.527370445E-3,-1.504684892E-2,-2.929474926E-3
1.528405637E1,7.723161485E-3,-1.131842658E-2,-3.462106921E-3
1.530424220E1,7.190529723E-3,-1.185105834E-2,-2.929474926E-3
1.532442876E1,8.255792782E-3,-1.185105834E-2,-7.989477599E-4
1.534461616E1,8.788425475E-3,-7.057371549E-3,1.864211401E-3
1.536480449E1,6.657897960E-3,3.994738800E-4,1.331579522E-3
1.538499376E1,2.396843163E-3,3.462106921E-3,7.989477599E-4
1.540518397E1,1.331579522E-3,6.657897960E-3,2.396843163E-3
1.542537512E1,3.994738683E-3,8.788425475E-3,1.331579522E-3
1.544556710E1,7.989477599E-4,8.788425475E-3,-2.929474926E-3
1.546575981E1,-3.462106921E-3,6.125265732E-3,-3.462106921E-3
1.548595314E1,7.989477599E-4,3.994738683E-3,7.989477599E-4
1.550614699E1,7.190529723E-3,1.464737463E-3,2.929474926E-3
1.552634116E1,1.331579522E-3,3.462106921E-3,7.989477599E-4
1.554653554E1,-7.190529723E-3,9.853689000E-3,-4.527370445E-3
1.556674074E1,-7.723161485E-3,1.304947957E-2,-7.190529723E-3
1.558692106E1,-7.190529723E-3,1.411474310E-2,-8.255792782E-3
1.560710168E1,-7.190529723E-3,4.527370445E-3,-9.321057238E-3
1.562728304E1,-3.462106921E-3,-1.025316212E-2,-1.145158429E-2
1.564746543E1,-6.657897960E-3,-1.611211337E-2,-1.518000662E-2
1.566764918E1,-1.358211134E-2,-1.557948068E-2,-1.784316637E-2
1.568783449E1,-1.198421605E-2,-8.122635074E-3,-1.677790284E-2
1.570802147E1,-7.190529723E-3,-6.524739787E-3,-1.677790284E-2
1.572821022E1,-9.853689000E-3,-1.451421715E-2,-1.944106072E-2
1.574840064E1,-1.944106072E-2,-1.824264042E-2,-2.316948399E-2
1.576859272E1,-2.210422046E-2,-1.557948068E-2,-2.689790726E-2
1.578878626E1,-1.890842989E-2,-2.143843099E-2,-2.849580161E-2
1.580898116E1,-1.731053367E-2,-3.688475490E-2,-2.743053809E-2
1.582917710E1,-1.518000662E-2,-4.008054361E-2,-2.743053809E-2
1.584937387E1,-1.198421605E-2,-3.262370080E-2,-2.956106514E-2
1.586957116E1,-1.411474310E-2,-2.996053919E-2,-2.743053809E-2
1.588976866E1,-1.784316637E-2,-2.516685426E-2,-2.103895694E-2
1.590996522E1,-1.411474310E-2,-1.344895363E-2,-1.518000662E-2
1.593015543E1,-9.321057238E-3,-1.131842658E-2,-1.304947957E-2
1.595034022E1,-9.853689000E-3,-2.410159074E-2,-1.464737486E-2
1.597052543E1,-9.853689000E-3,-3.262370080E-2,-1.571263932E-2
1.599071116E1,-6.125265732E-3,-2.836264484E-2,-1.251684781E-2
1.601089762E1,-3.994738683E-3,-1.664474420E-2,-6.125265732E-3
1.603108491E1,-3.462106921E-3,-9.187898599E-3,-1.331579522E-3
1.605127314E1,2.929474926E-3,-1.078579482E-2,3.994738683E-3
1.607146231E1,1.038632076E-2,-1.238369010E-2,7.723161485E-3
1.609165241E1,5.060002208E-3,-5.992108025E-3,9.321057238E-3
1.611184345E1,-7.989477599E-4,3.994738683E-3,9.321057238E-3
1.613203533E1,1.331579522E-3,1.198421605E-2,8.788425475E-3
1.615222804E1,1.331579522E-3,1.304947957E-2,6.657897960E-3
1.617242137E1,7.989477599E-4,3.462106921E-3,5.060002208E-3
1.619261522E1,2.929474926E-3,-1.331579551E-4,-2.663159103E-4
1.621280939E1,7.989477599E-4,3.994738683E-3,-2.929474926E-3
1.623300376E1,-5.060002208E-3,3.994738683E-3,-2.929474926E-3
1.625320897E1,-2.396843163E-3,5.592633970E-3,-7.989477599E-4
1.627338949E1,1.331579522E-3,5.592633970E-3,-1.331579522E-3
1.629357033E1,-3.994738683E-3,-1.331579551E-4,-5.060002208E-3
1.631375189E1,-9.321057238E-3,-4.394212738E-3,-1.091895252E-2
1.633393449E1,-7.190529723E-3,-1.731053460E-3,-1.251684781E-2
1.635411835E1,-5.060002208E-3,9.321057005E-4,-9.321057238E-3
1.637430366E1,-3.462106921E-3,3.994738800E-4,-6.657897960E-3
1.639449064E1,-3.462106921E-3,-2.796316985E-3,-9.321057238E-3
1.641467929E1,-6.125265732E-3,-1.131842658E-2,-1.145158429E-2
1.643486960E1,-6.125265732E-3,-1.717737690E-2,-9.321057238E-3
1.645506147E1,-1.864211401E-3,-1.824264042E-2,-1.864211401E-3
1.647525481E1,1.864211401E-3,-1.717737690E-2,1.331579522E-3
1.649544939E1,1.864211401E-3,-1.877527125E-2,2.663159103E-4
1.651564502E1,2.663159103E-4,-1.771000773E-2,-4.527370445E-3
1.653584147E1,7.989477599E-4,-1.131842658E-2,-9.853689000E-3
1.655603845E1,2.929474926E-3,3.994738683E-3,-1.091895252E-2
1.657623564E1,7.723161485E-3,7.723161485E-3,-1.091895252E-2
1.659642741E1,7.989477599E-4,-5.459476262E-3,-7.723161485E-3
1.661661929E1,-8.788425475E-3,-1.930790395E-2,-9.853689000E-3
1.663682199E1,-1.411474310E-2,-1.824264042E-2,-1.251684781E-2
1.665700356E1,-1.145158429E-2,-2.263685223E-3,-9.853689000E-3
1.667718543E1,1.331579522E-3,1.358211134E-2,-5.060002208E-3
1.669736793E1,2.396843163E-3,8.255792782E-3,-7.723161485E-3
1.671755137E1,-7.190529723E-3,-1.078579482E-2,-1.251684781E-2
1.673773595E1,-8.788425475E-3,-2.836264484E-2,-1.571263932E-2
1.675792189E1,-1.331579522E-3,-2.303632535E-2,-1.198421605E-2
1.677810929E1,1.864211401E-3,-1.185105834E-2,-1.145158429E-2
1.679829814E1,-3.462106921E-3,-1.504684892E-2,-1.038632076E-2
1.681848845E1,-6.657897960E-3,-2.197106183E-2,-8.255792782E-3
1.683868022E1,-2.929474926E-3,-1.930790395E-2,-6.657897960E-3
1.685887324E1,-7.989477599E-4,-1.664474420E-2,-5.060002208E-3
1.687906741E1,-1.331579522E-3,-1.557948068E-2,-5.060002208E-3
1.689926252E1,-4.527370445E-3,-1.238369010E-2,-6.657897960E-3
1.691945835E1,-7.723161485E-3,-8.655266836E-3,-8.255792782E-3
1.693965460E1,-9.853689000E-3,-8.122635074E-3,-9.321057238E-3
1.695985106E1,-8.788425475E-3,-7.057371549E-3,-1.198421605E-2
1.698004668E1,-8.788425475E-3,-4.394212738E-3,-1.624527015E-2
1.700023679E1,-1.251684781E-2,-3.328948980E-3,-2.103895694E-2
1.702042147E1,-1.411474310E-2,-4.394212738E-3,-2.210422046E-2
1.704060658E1,-1.038632076E-2,-4.394212738E-3,-1.997369342E-2
1.706079231E1,-7.723161485E-3,-4.926844500E-3,-1.624527015E-2
1.708097876E1,-7.190529723E-3,-7.590003312E-3,-1.251684781E-2
1.710116606E1,-5.592633970E-3,-6.524739787E-3,-1.145158429E-2
1.712135429E1,-3.994738683E-3,-2.263685223E-3,-9.853689000E-3
1.714154345E1,-3.994738683E-3,-1.198421582E-3,-7.723161485E-3
1.716173356E1,2.663159103E-4,-5.459476262E-3,-2.929474926E-3
1.718192460E1,5.060002208E-3,-5.992108025E-3,1.864211401E-3
1.720211647E1,2.929474926E-3,1.997369342E-3,1.331579522E-3
1.722230908E1,-7.989477599E-4,6.657897960E-3,3.462106921E-3
1.724250231E1,3.462106921E-3,9.321057238E-3,5.592633970E-3
1.726269606E1,6.657897960E-3,8.788425475E-3,8.788425475E-3
1.728289012E1,8.255792782E-3,9.321057005E-4,9.853689000E-3
1.730308439E1,1.145158429E-2,-1.731053460E-3,5.592633970E-3
1.732328949E1,8.788425475E-3,1.464737463E-3,-2.396843163E-3
1.734346981E1,1.331579522E-3,5.592633970E-3,-9.321057238E-3
1.736365043E1,2.663159103E-4,3.062632866E-3,-4.527370445E-3
1.738383179E1,6.125265732E-3,3.062632866E-3,3.994738683E-3
1.740401418E1,7.190529723E-3,6.657897960E-3,8.255792782E-3
1.742419793E1,3.462106921E-3,1.145158429E-2,5.060002208E-3
1.744438314E1,7.989477599E-4,2.157158963E-2,7.989477599E-4
1.746457002E1,6.125265732E-3,1.944106072E-2,-2.929474926E-3
1.748475856E1,1.038632076E-2,5.060002208E-3,-4.527370445E-3
1.750494876E1,8.255792782E-3,-7.590003312E-3,-6.125265732E-3
1.752514064E1,6.125265732E-3,-1.078579482E-2,-1.038632076E-2
1.754533397E1,9.321057238E-3,-2.263685223E-3,-1.304947957E-2
1.756552866E1,9.321057238E-3,9.853689000E-3,-1.784316637E-2
1.758572439E1,4.527370445E-3,1.731053367E-2,-2.316948399E-2
1.760592095E1,2.929474926E-3,3.328948840E-2,-2.849580161E-2
1.762611804E1,8.788425475E-3,5.672528967E-2,-3.382211924E-2
1.764631533E1,1.251684781E-2,5.299686641E-2,-3.009369783E-2
1.766651220E1,1.411474310E-2,3.861580789E-2,-2.103895694E-2
1.768670231E1,2.103895694E-2,3.435475379E-2,-1.677790284E-2
1.770688699E1,2.636527456E-2,1.677790284E-2,-1.464737486E-2
1.772707210E1,2.583264373E-2,-2.250369452E-2,-1.038632076E-2
1.774725772E1,2.743053809E-2,-4.966791719E-2,1.331579522E-3
1.776744408E1,2.636527456E-2,-5.499423668E-2,1.091895252E-2
1.778763126E1,2.902843431E-2,-2.676474862E-2,1.571263932E-2
1.780781939E1,3.755054250E-2,3.462106921E-3,1.145158429E-2
1.782800845E1,3.542001545E-2,-1.025316212E-2,5.060002208E-3
1.784819845E1,2.796317078E-2,-4.274370521E-2,-3.994738683E-3
1.786838939E1,2.689790726E-2,-7.736477256E-2,-7.989477599E-4
1.788858116E1,3.701791167E-2,-9.760478139E-2,1.198421605E-2
1.790877376E1,4.287686199E-2,-9.014793485E-2,2.476738021E-2
1.792896699E1,3.222422674E-2,-6.298371404E-2,1.571263932E-2
1.794916074E1,6.125265732E-3,-2.729738131E-2,-2.530001104E-2
1.796935481E1,-3.169159219E-2,-1.717737690E-2,-6.311687082E-2
1.798954908E1,-5.193160102E-2,-1.131842658E-2,-7.270424068E-2
1.800975418E1,-3.435475379E-2,1.198421605E-2,-6.897582114E-2
1.802993460E1,-1.304947957E-2,3.595264629E-2,-5.672528967E-2
1.805011533E1,-1.038632076E-2,3.222422674E-2,-3.968106955E-2
1.807029679E1,-9.853689000E-3,8.788425475E-3,-2.849580161E-2
1.809047929E1,-6.657897960E-3,1.331579522E-3,-3.861580789E-2
1.811066304E1,-8.788425475E-3,-2.783001214E-2,-4.767054692E-2
1.813084824E1,-1.464737486E-2,-6.032055244E-2,-3.648528084E-2
1.815103512E1,-1.358211134E-2,-6.511423737E-2,-3.462106921E-3
1.817122366E1,1.864211401E-3,-3.635212034E-2,2.583264373E-2
1.819141387E1,2.103895694E-2,-3.688475490E-2,4.021370411E-2
1.821160564E1,2.316948399E-2,-6.884266436E-2,3.914843872E-2
1.823179887E1,4.527370445E-3,-7.044056058E-2,3.169159219E-2
1.825199335E1,-1.038632076E-2,-2.037316747E-2,1.944106072E-2
1.827218887E1,-8.255792782E-3,2.370211668E-2,1.038632076E-2
1.829238522E1,-2.929474926E-3,2.636527456E-2,1.331579522E-3
1.831258210E1,-1.677790284E-2,5.060002208E-3,2.663159103E-4
1.833277918E1,-3.488738462E-2,-6.657897611E-4,3.462106921E-3
1.835297085E1,-4.394212365E-2,1.251684781E-2,-1.331579522E-3
1.837316262E1,-4.926844314E-2,3.222422674E-2,-1.677790284E-2
1.839336522E1,-4.447475821E-2,2.157158963E-2,-3.861580789E-2
1.841354668E1,-2.902843431E-2,-9.720530361E-3,-6.098634377E-2
1.843372845E1,-2.050632425E-2,-5.605949834E-2,-7.163897902E-2
1.845391085E1,-2.583264373E-2,-1.258342713E-1,-6.844318658E-2
1.847409418E1,-4.394212365E-2,-1.865542978E-1,-5.512739345E-2
1.849427866E1,-4.980107397E-2,-1.956090331E-1,-4.340949282E-2
1.851446449E1,-4.554001987E-2,-1.577921808E-1,-4.181159660E-2
1.853465179E1,-4.287686199E-2,-1.407479644E-1,-5.725792050E-2
1.855484054E1,-5.193160102E-2,-1.434111148E-1,-7.962846011E-2
1.857503074E1,-5.992107838E-2,-1.519332230E-1,-1.163800508E-1
1.859522241E1,-5.193160102E-2,-1.673795432E-1,-1.435442716E-1
1.861541533E1,-3.115896136E-2,-1.977395564E-1,-1.328916401E-1
1.863560939E1,-6.125265732E-3,-2.105227262E-1,-9.880319983E-2
1.865580439E1,1.251684781E-2,-1.838911325E-1,-5.672528967E-2
1.867600012E1,2.530001104E-2,-1.151816323E-1,-2.530001104E-2
1.869619626E1,4.340949282E-2,-6.458161026E-2,-2.476738021E-2
1.871639262E1,4.287686199E-2,-5.925529078E-2,-5.086633936E-2
1.873658824E1,1.890842989E-2,-9.227846563E-2,-7.536740601E-2
1.875677824E1,8.255792782E-3,-1.418132186E-1,-8.442214131E-2
1.877696283E1,1.624527015E-2,-1.647163928E-1,-7.483477145E-2
1.879714783E1,3.062633052E-2,-1.545963883E-1,-6.151897460E-2
1.881733345E1,3.169159219E-2,-1.396826953E-1,-6.045371294E-2
1.883751981E1,1.784316637E-2,-1.556616426E-1,-8.388951421E-2
1.885770699E1,-9.321057238E-3,-1.982721984E-1,-1.169126853E-1
1.887789512E1,-4.074633494E-2,-1.961416751E-1,-1.089232042E-1
1.889808418E1,-3.701791167E-2,-1.593900770E-1,-5.725792050E-2
1.891827418E1,-1.864211401E-3,-6.404897571E-2,8.255792782E-3
1.893846512E1,1.677790284E-2,7.590003312E-2,6.045371294E-2
1.895865689E1,7.989477599E-4,1.898832470E-1,9.773793817E-2
1.897884939E1,1.358211134E-2,2.010685056E-1,1.009337306E-1
1.899904252E1,6.311687082E-2,1.238368973E-1,7.483477145E-2
1.901923616E1,8.122635633E-2,1.944106072E-2,5.619265884E-2
1.903943012E1,4.447475821E-2,8.788425475E-3,7.217161357E-2
1.905962429E1,5.459476262E-2,1.004010960E-1,9.933583438E-2
1.907982929E1,1.083905771E-1,2.330264151E-1,1.185105816E-1
1.910000960E1,1.259674281E-1,2.841590643E-1,1.051947847E-1
1.912019022E1,1.046621501E-1,2.474074811E-1,5.246423557E-2
1.914037158E1,8.868319541E-2,1.531316489E-1,-3.062633052E-2
1.916055397E1,5.779055133E-2,7.643266767E-2,-1.227716357E-1
1.918073762E1,-1.198421605E-2,-8.122635074E-3,-1.861548275E-1
1.920092272E1,-8.548741043E-2,-1.055942550E-1,-2.127864063E-1
1.922110949E1,-1.099884734E-1,-1.657816470E-1,-2.111885101E-1
1.924129793E1,-9.667267650E-2,-1.945437789E-1,-2.026664019E-1
1.926148804E1,-9.827057272E-2,-1.940111369E-1,-1.984053552E-1
1.928167981E1,-1.126516312E-1,-1.316932142E-1,-1.829590350E-1
1.930187304E1,-8.708529919E-2,-1.025316212E-2,-1.541969180E-1
1.932206762E1,-2.423474751E-2,1.105211005E-1,-1.371526867E-1
1.934226324E1,1.358211134E-2,1.644500792E-1,-1.398158520E-1
1.936245970E1,4.527370445E-3,1.222390011E-1,-1.675127149E-1
1.938265668E1,-1.571263932E-2,6.311687082E-2,-1.829590350E-1
1.940285387E1,-3.328948840E-2,5.193160102E-2,-1.723063886E-1
1.942305054E1,-4.554001987E-2,1.677790284E-2,-1.573926955E-1
1.944324054E1,-5.193160102E-2,-5.459476262E-3,-1.467400640E-1
1.946342512E1,-5.299686641E-2,1.464737486E-2,-1.254348010E-1
1.948361012E1,-3.755054250E-2,7.536740601E-2,-1.014663652E-1
1.950379574E1,-1.864211401E-3,1.424790174E-1,-8.069372177E-2
1.952398210E1,3.755054250E-2,1.941442937E-1,-6.791055948E-2
1.954416929E1,4.873581231E-2,2.394180000E-1,-6.791055948E-2
1.956435741E1,3.435475379E-2,2.569948435E-1,-8.335687965E-2
1.958454647E1,1.464737486E-2,2.218411565E-1,-1.073253155E-1
1.960473647E1,1.331579522E-3,1.531316489E-1,-1.243695319E-1
1.962492741E1,-1.358211134E-2,1.099884734E-1,-1.073253155E-1
1.964511918E1,-2.849580161E-2,1.408811212E-1,-7.803056389E-2
1.966531168E1,-2.210422046E-2,2.298306376E-1,-6.418213248E-2
1.968550481E1,4.527370445E-3,2.926811874E-1,-5.725792050E-2
1.970569845E1,2.423474751E-2,3.320959508E-1,-3.808317333E-2
1.972589241E1,4.287686199E-2,3.699128032E-1,-3.275685757E-2
1.974608647E1,5.139897019E-2,4.002728164E-1,-5.139897019E-2
1.976629137E1,3.648528084E-2,4.130559862E-1,-6.205160543E-2
1.978647127E1,1.624527015E-2,4.040012360E-1,-6.844318658E-2
1.980665147E1,1.251684781E-2,3.619233072E-1,-6.737792492E-2
1.982683241E1,2.316948399E-2,2.974748611E-1,-5.139897019E-2
1.984701439E1,3.062633052E-2,2.580601275E-1,-1.464737486E-2
1.986719772E1,3.968106955E-2,2.607232630E-1,3.115896136E-2
1.988738262E1,5.672528967E-2,3.113232851E-1,6.950845569E-2
1.990756918E1,7.323687524E-2,3.848264813E-1,1.025316268E-1
1.992775752E1,8.016108721E-2,4.215780795E-1,1.227716357E-1
1.994794762E1,7.962846011E-2,4.040012360E-1,1.275653243E-1
1.996813939E1,8.069372177E-2,3.368896246E-1,1.339569092E-1
1.998833272E1,8.655267209E-2,2.553969622E-1,1.344895363E-1
2.000852741E1,8.335687965E-2,2.330264151E-1,1.227716357E-1
2.002872324E1,8.122635633E-2,2.527337968E-1,1.334242672E-1
2.004891991E1,9.400951862E-2,2.772348523E-1,1.478053331E-1
2.006911710E1,1.051947847E-1,2.900180221E-1,1.643169224E-1
2.008931449E1,9.507478029E-2,3.006706536E-1,1.829590350E-1
2.010951168E1,7.057371736E-2,3.209106624E-1,1.914811432E-1
2.012970168E1,5.193160102E-2,3.528685868E-1,2.000032514E-1
2.014988627E1,6.098634377E-2,4.146538675E-1,1.984053552E-1
2.017007126E1,1.062600464E-1,4.450138807E-1,1.797632426E-1
2.019025679E1,1.547295451E-1,4.279696643E-1,1.515337527E-1
2.021044304E1,1.733716577E-1,3.848264813E-1,1.062600464E-1
2.023063012E1,1.643169224E-1,3.310306668E-1,5.193160102E-2
2.025081814E1,1.525990218E-1,2.868222296E-1,1.731053367E-2
2.027100710E1,1.424790174E-1,2.798980176E-1,1.997369342E-2
2.029119699E1,1.478053331E-1,3.012032807E-1,5.033370852E-2
2.031138783E1,1.717737615E-1,3.342264593E-1,9.827057272E-2
2.033157949E1,2.016011477E-1,3.374222517E-1,1.467400640E-1
2.035177189E1,2.127864063E-1,3.028011918E-1,1.627190262E-1
2.037196491E1,2.058621943E-1,2.340916842E-1,1.392832249E-1
2.039215845E1,1.989379823E-1,1.543300748E-1,1.137168929E-1
2.041235231E1,2.000032514E-1,1.335574239E-1,1.057274193E-1
2.043254637E1,2.165148407E-1,2.079927325E-1,1.083905771E-1
2.045275126E1,2.415485233E-1,3.688475490E-1,1.131842583E-1
2.047293109E1,2.553969622E-1,5.190497041E-1,9.880319983E-2
2.049311150E1,2.340916842E-1,5.904223919E-1,6.524740160E-2
2.051329307E1,1.968074590E-1,5.760413408E-1,3.062633052E-2
2.053347556E1,1.776327193E-1,5.589970946E-1,2.689790726E-2
2.055365932E1,1.786979735E-1,6.591318846E-1,4.660528526E-2
2.057384452E1,2.202432603E-1,8.290414214E-1,7.270424068E-2
2.059403129E1,3.416832983E-1,9.345025420E-1,9.507478029E-2
2.061421973E1,5.004075766E-1,9.771130681E-1,1.019989923E-1
2.063440984E1,5.653886795E-1,9.813741446E-1,1.099884734E-1
2.065460150E1,4.982770681E-1,9.318393469E-1,1.099884734E-1
2.067479463E1,3.693801761E-1,8.333024979E-1,1.067926809E-1
2.069498900E1,2.958769798E-1,7.592666745E-1,1.233042628E-1
2.071518442E1,3.081275225E-1,7.225150466E-1,1.893506050E-1
2.073538056E1,3.581948876E-1,6.628602743E-1,2.804306448E-1
2.075557723E1,3.848264813E-1,5.339633822E-1,3.422159553E-1
2.077577411E1,3.704454303E-1,3.368896246E-1,3.534012139E-1
2.079597046E1,3.273022473E-1,9.507478029E-2,3.193127811E-1
2.081616046E1,2.703106403E-1,-1.407479644E-1,2.820285559E-1
2.083635036E1,1.925463974E-1,-3.665838540E-1,2.484727502E-1
2.085653484E1,7.909582555E-2,-5.700492263E-1,2.010685056E-1
2.087671973E1,-2.050632425E-2,-6.957502961E-1,1.201084778E-1
2.089690525E1,-6.578002870E-2,-7.490134835E-1,7.723161485E-3
2.091709150E1,-6.258423626E-2,-8.352998495E-1,-1.142495275E-1
2.093727859E1,-3.755054250E-2,-9.689904451E-1,-2.149169445E-1
2.095746661E1,-3.755054250E-2,-1.100017905E0,-3.012032807E-1
2.097765557E1,-8.175898343E-2,-1.144758940E0,-3.800328076E-1
2.099784546E1,-1.595232338E-1,-1.086702108E0,-4.231759906E-1
2.101803629E1,-2.463422120E-1,-1.014796734E0,-4.258391261E-1
2.103822796E1,-2.964096069E-1,-9.711209536E-1,-3.890875578E-1
2.105842036E1,-3.033338189E-1,-9.647293687E-1,-3.661843836E-1
2.107861338E1,-2.969422340E-1,-9.828388691E-1,-3.416832983E-1
2.109880692E1,-3.123885691E-1,-9.748494029E-1,-2.809632719E-1
2.111900077E1,-3.800328076E-1,-9.412935972E-1,-2.351569533E-1
2.113919484E1,-4.753738940E-1,-9.130641222E-1,-2.362222075E-1
2.115939973E1,-5.819002390E-1,-8.672577739E-1,-2.261022031E-1
2.117958004E1,-6.862961054E-1,-7.878956199E-1,-1.733716577E-1
2.119976067E1,-7.358308434E-1,-6.904240251E-1,-7.217161357E-2
2.121994202E1,-7.422224283E-1,-5.482112765E-1,3.169159219E-2
2.124012442E1,-7.688540220E-1,-3.852259517E-1,3.222422674E-2
2.126030806E1,-8.013445735E-1,-3.468764722E-1,-1.238368973E-1
2.128049317E1,-7.060034871E-1,-4.709796906E-1,-3.507380486E-1
2.130067984E1,-4.024033546E-1,-6.605966091E-1,-4.450138807E-1
2.132086817E1,-8.921582997E-2,-7.165229321E-1,-3.203780353E-1
2.134105817E1,5.992107838E-2,-6.467481852E-1,-1.595232338E-1
2.136124973E1,5.459476262E-2,-5.657881498E-1,-2.743053809E-2
2.138144275E1,-5.566002429E-2,-3.777691126E-1,5.139897019E-2
2.140163713E1,-1.382179558E-1,-9.334372729E-2,9.454214573E-2
2.142183254E1,-9.933583438E-2,1.355548054E-1,1.589905918E-1
2.144202879E1,1.304947957E-2,2.793653905E-1,2.122537792E-1
2.146222556E1,1.030642539E-1,3.326285779E-1,1.978727281E-1
2.148242254E1,1.004010960E-1,2.900180221E-1,1.158474237E-1
2.150261942E1,4.127896577E-2,1.541969180E-1,6.657897960E-3
2.152280942E1,-2.663159103E-4,-2.303632535E-2,-7.536740601E-2
2.154299932E1,1.864211401E-3,-1.801627129E-1,-1.163800508E-1
2.156318379E1,2.370211668E-2,-2.334259003E-1,-1.163800508E-1
2.158336869E1,4.021370411E-2,-1.753690243E-1,-6.631266326E-2
2.160355421E1,4.873581231E-2,-5.233107507E-2,1.464737486E-2
2.162374046E1,4.767054692E-2,8.495477587E-2,8.069372177E-2
2.164392754E1,4.234423116E-2,1.888179779E-1,1.238368973E-1
2.166411557E1,4.074633494E-2,2.532664239E-1,1.552621722E-1
2.168430452E1,3.542001545E-2,2.868222296E-1,1.755021811E-1
2.170449442E1,-3.994738683E-3,3.507380486E-1,1.786979735E-1
2.172468525E1,-9.454214573E-2,4.599275887E-1,1.675127149E-1
2.174487692E1,-1.312937438E-1,3.741738498E-1,8.602003753E-2
2.176506932E1,-4.074633494E-2,2.143843025E-1,-3.222422674E-2
2.178526234E1,1.589905918E-1,2.111885101E-1,-1.030642539E-1
2.180545588E1,3.576622605E-1,2.868222296E-1,-6.950845569E-2
2.182564973E1,4.364917874E-1,2.623211741E-1,8.255792782E-3
2.184584369E1,3.704454303E-1,2.207758874E-1,4.181159660E-2
2.186604848E1,1.621863842E-1,2.111885101E-1,7.270424068E-2
2.188622848E1,1.571263932E-2,6.418213248E-2,1.611211300E-1
2.190640879E1,-5.566002429E-2,5.885581672E-2,2.889527678E-1
2.192658984E1,-1.233042628E-1,1.137168929E-1,4.247738719E-1
2.194677192E1,-5.566002429E-2,-3.209106624E-2,4.380896688E-1
2.196695536E1,6.471476704E-2,-1.753690243E-1,2.884201407E-1
2.198714036E1,8.335687965E-2,-2.371543199E-1,1.201084778E-1
2.200732702E1,5.592633970E-3,-2.089248300E-1,-2.929474926E-3
2.202751546E1,-5.406212807E-2,-1.263668984E-1,-5.512739345E-2
2.204770556E1,-7.110634446E-2,-4.394212738E-3,-3.382211924E-2
2.206789734E1,-5.619265884E-2,9.507478029E-2,3.755054250E-2
2.208809056E1,1.864211401E-3,1.312937438E-1,1.243695319E-1
2.210828515E1,2.157158963E-2,1.808284968E-1,1.973400861E-1
2.212848077E1,2.050632425E-2,2.074600905E-1,2.266348451E-1
2.214867723E1,5.246423557E-2,2.399506420E-1,1.563274413E-1
2.216887421E1,7.217161357E-2,2.894853950E-1,7.323687524E-2
2.218907140E1,7.004108280E-2,2.841590643E-1,1.304947957E-2
2.220926734E1,7.376950979E-2,2.303632647E-1,-2.316948399E-2
2.222945734E1,6.524740160E-2,1.782985032E-1,-2.423474751E-2
2.224964723E1,2.636527456E-2,1.392832249E-1,3.462106921E-3
2.226983171E1,7.190529723E-3,8.548741043E-2,3.062633052E-2
2.229001661E1,3.115896136E-2,3.488738462E-2,5.992107838E-2
2.231020202E1,4.500738904E-2,3.755054250E-2,8.282424510E-2
2.233038817E1,4.181159660E-2,4.181159660E-2,8.921582997E-2
2.235057515E1,3.435475379E-2,4.181159660E-2,8.442214131E-2
2.237076307E1,1.571263932E-2,8.069372177E-2,8.016108721E-2
2.239095192E1,9.321057238E-3,1.324921697E-1,7.643266767E-2
2.241114171E1,2.956106514E-2,1.410142779E-1,6.791055948E-2
2.243133244E1,4.021370411E-2,1.340900660E-1,7.004108280E-2
2.245152400E1,3.328948840E-2,1.030642539E-1,6.844318658E-2
2.247171640E1,3.062633052E-2,6.950845569E-2,6.151897460E-2
2.249190942E1,2.316948399E-2,5.885581672E-2,5.938844755E-2
2.251210296E1,9.853689000E-3,5.406212807E-2,5.193160102E-2
2.253229682E1,-1.331579522E-3,1.944106072E-2,1.571263932E-2
2.255249088E1,-4.980107397E-2,-7.590003312E-3,-2.476738021E-2
2.257269577E1,-1.115863696E-1,2.396843163E-3,-5.352949724E-2
2.259287598E1,-1.302284747E-1,3.009369783E-2,-7.856319100E-2
2.261305650E1,-1.344895363E-1,5.193160102E-2,-9.827057272E-2
2.263323775E1,-1.430116445E-1,6.125265732E-3,-9.880319983E-2
2.265342004E1,-1.094558388E-1,-7.257108390E-2,-5.992107838E-2
2.267360359E1,-5.086633936E-2,-1.268995255E-1,2.103895694E-2
2.269378859E1,1.464737486E-2,-1.135837361E-1,1.286305785E-1
2.271397525E1,8.602003753E-2,-1.824264042E-2,2.085253596E-1
2.273416359E1,1.046621501E-1,5.672528967E-2,2.047969401E-1
2.275435359E1,5.246423557E-2,1.243695319E-1,1.270326823E-1
2.277454525E1,-3.462106921E-3,1.483379602E-1,5.299686641E-2
2.279473838E1,-2.849580161E-2,1.174453199E-1,1.571263932E-2
2.281493275E1,-2.583264373E-2,5.512739345E-2,-4.527370445E-3
2.283512817E1,6.657897960E-3,-7.590003312E-3,-3.994738683E-3
2.285532442E1,3.435475379E-2,-4.487423226E-2,-1.864211401E-3
2.287552119E1,2.956106514E-2,-7.736477256E-2,-1.145158429E-2
2.289571817E1,-4.527370445E-3,-7.310371846E-2,-2.849580161E-2
2.291591484E1,-3.968106955E-2,-1.078579482E-2,-3.009369783E-2
2.293610473E1,-4.607265070E-2,3.488738462E-2,-1.784316637E-2
2.295628921E1,-2.263685316E-2,8.255792782E-3,-7.190529723E-3
2.297647411E1,-1.331579522E-3,-2.796316985E-3,-1.331579522E-3
2.299665952E1,2.796317078E-2,-1.611211337E-2,-1.331579522E-3
2.301684567E1,5.725792050E-2,-2.783001214E-2,-1.944106072E-2
2.303703265E1,5.193160102E-2,-9.187898599E-3,-3.169159219E-2
2.305722056E1,4.181159660E-2,3.009369783E-2,-1.784316637E-2
2.307740942E1,7.856319100E-2,1.025316268E-1,-1.944106072E-2
2.309759921E1,1.083905771E-1,1.744369268E-1,-3.382211924E-2
2.311778994E1,8.495477587E-2,1.600558609E-1,-4.873581231E-2
2.313798150E1,5.406212807E-2,8.335687965E-2,-7.590003312E-2
2.315817390E1,3.328948840E-2,7.323687524E-2,-1.057274193E-1
2.317836692E1,1.145158429E-2,9.667267650E-2,-1.249021590E-1
2.319856046E1,-7.723161485E-3,5.086633936E-2,-1.344895363E-1
2.321875432E1,-3.755054250E-2,-3.049317189E-2,-1.344895363E-1
2.323894838E1,-5.619265884E-2,-9.440898895E-2,-1.280979514E-1
2.325915327E1,-5.406212807E-2,-1.178447902E-1,-1.062600464E-1
2.327933348E1,-3.808317333E-2,-1.034637317E-1,-7.962846011E-2
2.329951400E1,-3.275685757E-2,-1.002679393E-1,-3.914843872E-2
2.331969525E1,-1.944106072E-2,-8.535424620E-2,-2.210422046E-2
2.333987754E1,2.663159103E-4,-5.872265995E-2,-2.263685316E-2
2.336006109E1,-3.462106921E-3,-2.783001214E-2,-3.009369783E-2
2.338024609E1,-2.583264373E-2,-3.368896246E-2,-3.968106955E-2
2.340043275E1,-4.287686199E-2,-5.605949834E-2,-5.139897019E-2
2.342062109E1,-3.009369783E-2,-7.470161468E-2,-6.418213248E-2
2.344081109E1,-1.464737486E-2,-9.920267761E-2,-6.844318658E-2
2.346100275E1,-2.743053809E-2,-1.247690022E-1,-7.004108280E-2
2.348119588E1,-4.713791609E-2,-1.348890066E-1,-7.163897902E-2
2.350139025E1,-5.459476262E-2,-1.231711060E-1,-7.217161357E-2
2.352158567E1,-5.992107838E-2,-9.600688517E-2,-7.057371736E-2
2.354178192E1,-4.820318148E-2,-4.434159771E-2,-6.045371294E-2
2.356197869E1,-2.956106514E-2,2.423474751E-2,-4.287686199E-2
2.358217567E1,-1.358211134E-2,4.234423116E-2,-3.382211924E-2
2.360237223E1,-1.038632076E-2,3.062633052E-2,-4.980107397E-2
2.362256213E1,-1.198421605E-2,1.251684781E-2,-7.483477145E-2
2.364274661E1,-1.304947957E-2,1.038632076E-2,-8.495477587E-2
2.366293150E1,-1.571263932E-2,3.435475379E-2,-8.122635633E-2
2.368311692E1,3.994738683E-3,4.127896577E-2,-8.175898343E-2
2.370330306E1,3.169159219E-2,3.861580789E-2,-9.347688407E-2
2.372349004E1,3.701791167E-2,2.796317078E-2,-1.158474237E-1
2.374367796E1,-4.527370445E-3,-5.819002539E-2,-9.827057272E-2
2.376386682E1,-5.033370852E-2,-1.178447902E-1,-7.483477145E-2
2.378405661E1,-5.246423557E-2,-1.593900770E-1,-4.500738904E-2
2.380424734E1,-3.382211924E-2,-1.956090331E-1,-3.488738462E-2
2.382443890E1,-4.873581231E-2,-2.989396155E-1,-3.382211924E-2
2.384463119E1,-1.094558388E-1,-4.038680792E-1,-2.423474751E-2
2.386482411E1,-2.047969401E-1,-4.565986395E-1,-1.837579720E-2
2.388501754E1,-3.091927767E-1,-4.597944319E-1,-2.050632425E-2
2.390521129E1,-3.725759685E-1,-4.022701681E-1,-3.328948840E-2
2.392540525E1,-3.613906801E-1,-2.637858987E-1,-4.607265070E-2
2.394561004E1,-2.878875136E-1,-7.097318769E-2,-3.009369783E-2
2.396579067E1,-1.978727281E-1,2.476738021E-2,7.989477599E-4
2.398597161E1,-1.206411049E-1,-8.588688076E-2,-2.396843163E-3
2.400615317E1,-7.962846011E-2,-2.424806356E-1,-5.725792050E-2
2.402633567E1,-8.708529919E-2,-3.154512048E-1,-7.057371736E-2
2.404651942E1,-1.174453199E-1,-2.637858987E-1,-5.725792050E-2
2.406670463E1,-1.099884734E-1,-1.492700726E-1,-5.992107838E-2
2.408689140E1,-5.512739345E-2,-2.143843099E-2,-4.447475821E-2
2.410707984E1,1.677790284E-2,1.137168929E-1,-1.518000662E-2
2.412726984E1,9.933583438E-2,2.372874767E-1,-1.624527015E-2
2.414746140E1,1.989379823E-1,2.623211741E-1,-4.980107397E-2
2.416765442E1,2.580601275E-1,1.607216448E-1,-8.229161799E-2
2.418784869E1,2.181127369E-1,2.583264373E-2,-7.323687524E-2
2.420804400E1,1.142495275E-1,-3.262370080E-2,-4.607265070E-2
2.422824004E1,2.316948399E-2,1.944106072E-2,-6.258423626E-2
2.424843661E1,-4.500738904E-2,6.364950538E-2,-9.667267650E-2
2.426863338E1,-1.025316268E-1,3.222422674E-2,-1.067926809E-1
2.428882900E1,-1.504684836E-1,-4.487423226E-2,-1.121189967E-1
2.430901890E1,-1.888179779E-1,-1.146489978E-1,-1.046621501E-1
2.432920338E1,-2.000032514E-1,-1.492700726E-1,-8.388951421E-2
2.434938827E1,-1.776327193E-1,-1.604553312E-1,-4.767054692E-2
2.436957369E1,-1.472726911E-1,-1.157142594E-1,1.624527015E-2
2.438975984E1,-1.067926809E-1,-2.929474926E-3,5.193160102E-2
2.440994682E1,-5.406212807E-2,1.067926809E-1,3.328948840E-2
2.443013473E1,3.994738683E-3,1.792306006E-1,8.255792782E-3
2.445032359E1,6.524740160E-2,1.920137703E-1,1.145158429E-2
2.447051338E1,1.025316268E-1,1.595232338E-1,3.115896136E-2
2.449070411E1,9.081372619E-2,1.308942735E-1,7.190529723E-3
2.451089567E1,5.139897019E-2,9.986846894E-2,-1.997369342E-2
2.453108796E1,7.190529723E-3,8.921582997E-2,-1.571263932E-2
2.455128088E1,-1.358211134E-2,1.041295230E-1,-2.929474926E-3
2.457147432E1,-1.518000662E-2,8.974846452E-2,-1.624527015E-2
2.459166806E1,-2.370211668E-2,6.205160543E-2,-3.808317333E-2
2.461186202E1,-4.980107397E-2,5.139897019E-2,-4.713791609E-2
2.463206682E1,-8.175898343E-2,6.471476704E-2,-3.062633052E-2
2.465224713E1,-9.400951862E-2,9.454214573E-2,-1.251684781E-2
2.467242775E1,-8.921582997E-2,1.488705873E-1,-6.657897960E-3
2.469260911E1,-7.430213690E-2,2.085253596E-1,-1.944106072E-2
2.471279150E1,-6.364950538E-2,2.399506420E-1,-4.287686199E-2
2.473297515E1,-6.737792492E-2,2.490053773E-1,-5.139897019E-2
2.475316025E1,-7.110634446E-2,2.665822208E-1,-3.009369783E-2
2.477334692E1,-4.926844314E-2,2.964096069E-1,7.989477599E-4
2.479353525E1,-8.255792782E-3,3.150517344E-1,2.743053809E-2
2.481372525E1,2.583264373E-2,3.262369931E-1,4.074633494E-2
2.483391682E1,4.554001987E-2,3.368896246E-1,4.127896577E-2
2.485410984E1,5.725792050E-2,3.406180441E-1,3.542001545E-2
2.487430411E1,6.578002870E-2,3.347590864E-1,3.009369783E-2
2.489449942E1,7.163897902E-2,3.315632939E-1,2.956106514E-2
2.491469557E1,7.749792933E-2,3.278348744E-1,3.648528084E-2
2.493489223E1,7.323687524E-2,3.193127811E-1,4.554001987E-2
2.495508911E1,5.725792050E-2,2.974748611E-1,4.713791609E-2
2.497528525E1,3.169159219E-2,2.596580088E-1,4.820318148E-2
2.499547504E1,1.145158429E-2,2.378201038E-1,6.524740160E-2
2.501565942E1,1.864211401E-3,2.426137924E-1,8.655267209E-2
2.503584421E1,-3.462106921E-3,2.511359155E-1,9.454214573E-2
2.505602963E1,-1.145158429E-2,2.569948435E-1,9.187898785E-2
2.507621577E1,-1.890842989E-2,2.740390599E-1,9.507478029E-2
2.509640275E1,-1.731053367E-2,2.985401452E-1,1.025316268E-1
2.511659067E1,-9.321057238E-3,3.358243704E-1,1.126516312E-1
2.513677952E1,-3.994738683E-3,3.816306889E-1,1.169126853E-1
2.515696932E1,-7.190529723E-3,4.263717830E-1,1.163800508E-1
2.517716004E1,-1.464737486E-2,4.540686309E-1,1.099884734E-1
2.519735161E1,-2.689790726E-2,4.572644234E-1,9.986846894E-2
2.521754390E1,-4.607265070E-2,4.593949318E-1,1.004010960E-1
2.523773682E1,-7.217161357E-2,4.673844278E-1,1.019989923E-1
2.525793025E1,-8.868319541E-2,4.663191736E-1,9.773793817E-2
2.527812400E1,-8.602003753E-2,4.386222959E-1,8.016108721E-2
2.529831796E1,-7.962846011E-2,3.890875578E-1,6.098634377E-2
2.531852275E1,-7.270424068E-2,3.289001584E-1,4.660528526E-2
2.533870286E1,-5.512739345E-2,2.798980176E-1,2.370211668E-2
2.535888327E1,-2.423474751E-2,2.559295893E-1,-1.145158429E-2
2.537906442E1,2.902843431E-2,2.553969622E-1,-6.791055948E-2
2.539924661E1,8.229161799E-2,1.957421899E-1,-1.435442716E-1
2.541943004E1,9.400951862E-2,2.743053809E-2,-2.229064107E-1
2.543961494E1,2.050632425E-2,-2.344911546E-1,-2.868222296E-1
2.545980150E1,-1.014663652E-1,-4.922849536E-1,-2.868222296E-1
2.547998973E1,-2.362222075E-1,-5.588639379E-1,-2.117211521E-1
2.550017963E1,-3.629885912E-1,-2.675143182E-1,-7.962846011E-2
2.552037119E1,-4.050664902E-1,2.149169445E-1,9.773793817E-2
2.554056421E1,-3.358243704E-1,7.880287766E-1,3.033338189E-1
2.556075859E1,-1.504684836E-1,1.244494200E0,4.487423003E-1
2.558095400E1,1.552621722E-1,1.429850101E0,4.141212404E-1
2.560115025E1,4.370244145E-1,1.411208034E0,2.713759243E-1
2.562134702E1,5.627255440E-1,1.328117490E0,1.328916401E-1
2.564154400E1,5.712476373E-1,1.242896318E0,6.125265732E-3
2.566174067E1,5.270391703E-1,1.067127824E0,-1.030642539E-1
2.568193046E1,4.327633679E-1,8.029424548E-1,-1.893506050E-1
2.570211484E1,3.001380265E-1,4.982770681E-1,-2.740390599E-1
2.572229963E1,1.824263930E-1,1.989379823E-1,-3.768370152E-1
2.574248504E1,9.827057272E-2,-4.540686309E-2,-4.583296776E-1
2.576267119E1,1.731053367E-2,-1.631184965E-1,-4.535360038E-1
2.578285817E1,-4.340949282E-2,-6.298371404E-2,-3.592601717E-1
2.580304609E1,2.396843163E-3,1.568600684E-1,-2.154495716E-1
2.582323494E1,1.472726911E-1,4.109254479E-1,-1.014663652E-1
2.584342473E1,2.628538013E-1,6.410223842E-1,1.864211401E-3
2.586361546E1,2.591253817E-1,8.285087943E-1,1.723063886E-1
2.588380702E1,1.707084924E-1,9.712541103E-1,3.757717609E-1
2.590399932E1,7.004108280E-2,1.032506824E0,5.174518228E-1
2.592419223E1,8.229161799E-2,8.998814821E-1,4.125233591E-1
2.594438567E1,2.926811874E-1,5.584644675E-1,-3.462106921E-3
2.596457942E1,5.542033911E-1,2.362222075E-1,-3.949464858E-1
2.598477327E1,6.399571300E-1,7.323687430E-3,-4.615254700E-1
2.600497796E1,5.052012801E-1,-1.359542757E-1,-2.830938101E-1
2.602515786E1,2.649843395E-1,-7.363634557E-2,2.316948399E-2
2.604533807E1,1.035968885E-1,1.792306006E-1,2.591253817E-1
2.606551900E1,9.400951862E-2,5.451486707E-1,3.395527899E-1
2.608570098E1,1.856221855E-1,9.499488473E-1,4.189149141E-1
2.610588432E1,3.416832983E-1,1.260473251E0,5.265065432E-1
2.612606921E1,5.057339072E-1,1.419197440E0,5.861613154E-1
2.614625577E1,6.575340033E-1,1.445296407E0,5.584644675E-1
2.616644411E1,8.002793193E-1,1.341433287E0,4.135886133E-1
2.618663411E1,8.434224725E-1,1.074052095E0,2.415485233E-1
2.620682577E1,7.406245470E-1,7.251782417E-1,8.335687965E-2
2.622701890E1,6.202497482E-1,5.328981280E-1,-4.447475821E-2
2.624721338E1,5.227781534E-1,5.531381369E-1,-1.211737394E-1
2.626740890E1,4.024033546E-1,6.154560447E-1,-1.488705873E-1
2.628760525E1,2.623211741E-1,5.787044764E-1,-1.211737394E-1
2.630780213E1,1.525990218E-1,4.546012580E-1,-8.282424510E-2
2.632799921E1,1.552621722E-1,3.576622605E-1,-5.406212807E-2
2.634819536E1,2.506032586E-1,3.880222738E-1,8.255792782E-3
2.636838515E1,3.422159553E-1,5.099949837E-1,1.041295230E-1
2.638856952E1,3.672496378E-1,6.170539856E-1,1.877527237E-1
2.640875432E1,3.544664681E-1,6.564686894E-1,2.138516754E-1
2.642893963E1,3.448790908E-1,6.703171730E-1,1.925463974E-1
2.644912567E1,2.942790687E-1,7.299718857E-1,1.888179779E-1
2.646931254E1,2.351569533E-1,8.434224725E-1,1.733716577E-1
2.648950036E1,2.649843395E-1,1.039963603E0,1.366200596E-1
2.650968911E1,4.061317742E-1,1.281778455E0,8.868319541E-2
2.652987879E1,5.259739161E-1,1.540637493E0,6.684529036E-2
2.655006942E1,5.147886276E-1,1.590172291E0,3.968106955E-2
2.657026098E1,3.896201849E-1,1.268995285E0,-4.394212365E-2
2.659045327E1,2.431464195E-1,8.178561330E-1,-1.637842804E-1
2.661064619E1,1.691105962E-1,5.542033911E-1,-2.378201038E-1
2.663083963E1,1.802958697E-1,5.323655009E-1,-2.330264151E-1
2.665103338E1,2.500706315E-1,6.644582152E-1,-1.957421899E-1
2.667122734E1,2.836264372E-1,8.050730228E-1,-1.637842804E-1
2.669143213E1,2.143843025E-1,8.604667187E-1,-1.456748098E-1
2.671161234E1,6.418213248E-2,7.938877344E-1,-1.472726911E-1
2.673179286E1,-7.909582555E-2,7.076013684E-1,-1.227716357E-1
2.675197411E1,-1.510011256E-1,6.346307993E-1,-1.110537350E-1
2.677215640E1,-1.845569313E-1,6.032055616E-1,-1.350221634E-1
2.679233994E1,-1.989379823E-1,7.129276991E-1,-1.760348231E-1
2.681252494E1,-1.893506050E-1,8.700540662E-1,-2.537990510E-1
2.683271150E1,-1.813611388E-1,8.940225244E-1,-3.518033028E-1
2.685289973E1,-2.553969622E-1,6.372939944E-1,-4.450138807E-1
2.687308963E1,-4.130559862E-1,4.024033546E-1,-4.407528341E-1
2.689328109E1,-4.972118139E-1,2.452769578E-1,-3.544664681E-1
2.691347400E1,-4.535360038E-1,3.166496158E-1,-2.687127590E-1
2.693366817E1,-3.443464637E-1,5.355613232E-1,-2.031990439E-1
2.695386338E1,-2.639190555E-1,6.101297736E-1,-6.045371294E-2
2.697405942E1,-2.165148407E-1,4.221107066E-1,7.590003312E-2
2.699425598E1,-2.058621943E-1,1.030642539E-1,7.536740601E-2
2.701445275E1,-2.532664239E-1,-2.195774615E-1,-9.853689000E-3
2.703464411E1,-2.756369710E-1,-4.012049139E-1,-1.233042628E-1
2.705483556E1,-2.458095849E-1,-4.310323000E-1,-1.675127149E-1
2.707503786E1,-2.149169445E-1,-4.587291479E-1,-1.126516312E-1
2.709521900E1,-1.973400861E-1,-5.695165992E-1,-7.803056389E-2
2.711540046E1,-1.856221855E-1,-8.214514256E-1,-1.233042628E-1
2.713558254E1,-2.122537792E-1,-1.138367414E0,-1.211737394E-1
2.715576557E1,-2.846917212E-1,-1.250220060E0,2.396843163E-3
2.717594973E1,-3.544664681E-1,-1.032373667E0,1.430116445E-1
2.719613525E1,-4.466117918E-1,-6.744450331E-1,2.772348523E-1
2.721632223E1,-5.504750013E-1,-3.468764722E-1,3.752391040E-1
2.723651067E1,-5.771065950E-1,-1.029310971E-1,4.024033546E-1
2.725670057E1,-4.791023135E-1,1.009337306E-1,3.384875357E-1
2.727689192E1,-3.171822429E-1,1.930790395E-1,2.266348451E-1
2.729708463E1,-2.133190483E-1,1.403484792E-1,9.614004195E-2
2.731727848E1,-2.154495716E-1,7.909582555E-2,-4.926844314E-2
2.733747327E1,-2.617885470E-1,7.004108280E-2,-1.243695319E-1
2.735766879E1,-2.564622164E-1,1.238368973E-1,-1.371526867E-1
2.737786473E1,-2.213085145E-1,1.099884734E-1,-1.291632205E-1
2.739806088E1,-2.388853729E-1,2.663159103E-4,-1.009337306E-1
2.741825598E1,-2.958769798E-1,-7.150582224E-2,-6.151897460E-2
2.743844588E1,-3.336938322E-1,-8.375635743E-2,-4.660528526E-2
2.745863567E1,-3.470096290E-1,-1.087900475E-1,-6.950845569E-2
2.747882004E1,-3.581948876E-1,-1.817606091E-1,-9.933583438E-2
2.749900484E1,-3.677822649E-1,-2.451438010E-1,-1.259674281E-1
2.751919015E1,-3.544664681E-1,-2.840259075E-1,-1.494032294E-1
2.753937619E1,-3.198454082E-1,-3.426154256E-1,-1.643169224E-1
2.755956307E1,-2.942790687E-1,-4.576638937E-1,-1.552621722E-1
2.757975088E1,-2.953443527E-1,-5.679186583E-1,-1.062600464E-1
2.759993963E1,-3.028011918E-1,-5.242428780E-1,-2.902843431E-2
2.762012932E1,-2.703106403E-1,-3.223754168E-1,4.500738904E-2
2.764031994E1,-1.946769357E-1,-8.002793044E-2,9.720530361E-2
2.766051140E1,-1.147821546E-1,1.488705873E-1,1.105211005E-1
2.768070359E1,-5.672528967E-2,3.368896246E-1,7.909582555E-2
2.770089640E1,-1.464737486E-2,4.663191736E-1,1.518000662E-2
2.772108973E1,3.435475379E-2,5.291697383E-1,-5.566002429E-2
2.774128338E1,8.016108721E-2,5.382244587E-1,-1.174453199E-1
2.776147723E1,9.827057272E-2,4.988096952E-1,-1.621863842E-1
2.778168192E1,9.134636074E-2,4.263717830E-1,-1.877527237E-1
2.780186244E1,7.004108280E-2,3.342264593E-1,-1.861548275E-1
2.782204327E1,4.181159660E-2,1.984053552E-1,-1.643169224E-1
2.784222473E1,2.050632425E-2,-3.049317189E-2,-1.233042628E-1
2.786240713E1,-1.731053367E-2,-2.813627720E-1,-2.902843431E-2
2.788259077E1,-1.217063740E-1,-3.559312224E-1,1.275653243E-1
2.790277588E1,-2.660495937E-1,-1.945437789E-1,3.358243704E-1
2.792296254E1,-2.617885470E-1,1.984053552E-1,4.812328517E-1
2.794315088E1,2.263685316E-2,6.218476295E-1,4.040012360E-1
2.796334088E1,3.629885912E-1,8.450203538E-1,1.035968885E-1
2.798353244E1,4.689823091E-1,7.741803527E-1,-1.589905918E-1
2.800372546E1,3.677822649E-1,5.435507894E-1,-2.340916842E-1
2.802391973E1,2.575274706E-1,3.358243704E-1,-2.378201038E-1
2.804411504E1,1.909485012E-1,1.994706094E-1,-2.458095849E-1
2.806431109E1,7.909582555E-2,2.394180000E-1,-1.920137703E-1
2.808450754E1,-4.926844314E-2,4.226433635E-1,-5.725792050E-2
2.810470421E1,-4.394212365E-2,5.137233734E-1,1.510011256E-1
2.812489932E1,9.134636074E-2,5.131907463E-1,3.715106845E-1
2.814508911E1,1.797632426E-1,6.309024096E-1,4.838960171E-1
2.816527348E1,1.936116666E-1,7.699192762E-1,4.705802202E-1
2.818545827E1,2.063948363E-1,7.331677079E-1,3.619233072E-1
2.820564359E1,2.351569533E-1,4.503402114E-1,1.696432382E-1
2.822582963E1,2.649843395E-1,8.495477587E-2,-5.139897019E-2
2.824601650E1,2.809632719E-1,-8.855003864E-2,-2.122537792E-1
2.826620432E1,2.793653905E-1,-1.039963663E-1,-2.367548496E-1
2.828639307E1,2.298306376E-1,2.689790726E-2,-1.110537350E-1
2.830658275E1,1.600558609E-1,2.889527678E-1,1.025316268E-1
2.832677338E1,1.392832249E-1,5.052012801E-1,2.474074811E-1
2.834696484E1,1.579253376E-1,5.563339591E-1,2.681801319E-1
2.836715702E1,1.739042848E-1,4.892223179E-1,2.090579867E-1
2.838734984E1,1.749695539E-1,3.672496378E-1,1.185105816E-1
2.840754317E1,1.771000773E-1,2.852243483E-1,4.021370411E-2
2.842773682E1,2.016011477E-1,2.676474750E-1,3.462106921E-3
2.844793067E1,2.319611609E-1,2.852243483E-1,1.464737486E-2
2.846813536E1,2.420811653E-1,3.155843616E-1,5.832318589E-2
2.848831567E1,2.330264151E-1,3.427485824E-1,9.667267650E-2
2.850849629E1,2.229064107E-1,3.651190996E-1,1.163800508E-1
2.852867765E1,2.213085145E-1,4.141212404E-1,1.195758432E-1
2.854886004E1,2.303632647E-1,4.950812757E-1,1.163800508E-1
2.856904369E1,2.436790615E-1,5.893571377E-1,1.153147891E-1
2.858922879E1,2.559295893E-1,6.708498001E-1,1.057274193E-1
2.860941546E1,2.607232630E-1,6.996119022E-1,8.495477587E-2
2.862960379E1,2.569948435E-1,6.548708081E-1,5.992107838E-2
2.864979379E1,2.516685426E-1,5.558013320E-1,3.914843872E-2
2.866998536E1,2.463422120E-1,4.391549230E-1,3.275685757E-2
2.869017838E1,2.420811653E-1,3.113232851E-1,4.074633494E-2
2.871037265E1,2.362222075E-1,2.074600905E-1,6.364950538E-2
2.873056796E1,2.250369489E-1,1.621863842E-1,9.933583438E-2
2.875076400E1,2.069274634E-1,1.936116666E-1,1.382179558E-1
2.877096046E1,1.866874546E-1,2.948117256E-1,1.643169224E-1
2.879115713E1,1.744369268E-1,4.285022914E-1,1.755021811E-1
2.881135234E1,1.696432382E-1,5.632581711E-1,1.627190262E-1
2.883154213E1,1.648495495E-1,6.484792233E-1,1.307611167E-1
2.885172650E1,1.525990218E-1,6.431529522E-1,8.868319541E-2
2.887191129E1,1.334242672E-1,5.462139249E-1,4.287686199E-2
2.889209661E1,1.158474237E-1,4.066644013E-1,6.125265732E-3
2.891228265E1,1.131842583E-1,3.017359376E-1,-8.255792782E-3
2.893246952E1,1.163800508E-1,2.474074811E-1,-6.125265732E-3
2.895265734E1,1.089232042E-1,2.069274634E-1,6.125265732E-3
2.897284609E1,8.602003753E-2,1.659148186E-1,2.103895694E-2
2.899303577E1,6.045371294E-2,1.233042628E-1,4.021370411E-2
2.901322640E1,3.435475379E-2,9.241162241E-2,5.033370852E-2
2.903341786E1,5.592633970E-3,5.885581672E-2,4.926844314E-2
2.905361004E1,-1.731053367E-2,2.157158963E-2,3.914843872E-2
2.907380286E1,-3.542001545E-2,-1.984053478E-2,1.944106072E-2
2.909399619E1,-4.554001987E-2,-5.339634046E-2,-1.331579522E-3
2.911418984E1,-5.193160102E-2,-6.831002980E-2,-1.304947957E-2
2.913438369E1,-6.045371294E-2,-6.990792602E-2,-2.103895694E-2
2.915458838E1,-6.737792492E-2,-7.523424178E-2,-2.583264373E-2
2.917476848E1,-7.323687524E-2,-8.535424620E-2,-2.902843431E-2
2.919494890E1,-7.749792933E-2,-9.867004305E-2,-2.902843431E-2
2.921513004E1,-8.548741043E-2,-1.146489978E-1,-2.796317078E-2
2.923531223E1,-9.827057272E-2,-1.412805915E-1,-2.902843431E-2
2.925549567E1,-1.147821546E-1,-1.801627129E-1,-3.382211924E-2
2.927568057E1,-1.323590130E-1,-2.201101035E-1,-4.127896577E-2
2.929586713E1,-1.451421678E-1,-2.504701018E-1,-4.767054692E-2
2.931605536E1,-1.568600684E-1,-2.712427676E-1,-5.193160102E-2
2.933624525E1,-1.664474458E-1,-2.909501195E-1,-5.779055133E-2
2.935643671E1,-1.765674502E-1,-3.074617088E-1,-6.631266326E-2
2.937662963E1,-1.866874546E-1,-3.303648829E-1,-7.696529478E-2
2.939682379E1,-1.994706094E-1,-3.660512269E-1,-8.229161799E-2
2.941701900E1,-2.122537792E-1,-4.075964987E-1,-8.442214131E-2
2.943721504E1,-2.191779912E-1,-4.411523044E-1,-8.229161799E-2
2.945741161E1,-2.202432603E-1,-4.518049359E-1,-7.643266767E-2
2.947760838E1,-2.127864063E-1,-4.448807240E-1,-7.110634446E-2
2.949780494E1,-2.047969401E-1,-4.315649271E-1,-6.684529036E-2
2.951799463E1,-1.984053552E-1,-4.235754609E-1,-6.364950538E-2
2.953817890E1,-1.946769357E-1,-4.225101769E-1,-6.418213248E-2
2.955836359E1,-1.973400861E-1,-4.289017618E-1,-7.004108280E-2
2.957854890E1,-2.010685056E-1,-4.427502155E-1,-7.803056389E-2
2.959873494E1,-2.069274634E-1,-4.597944319E-1,-8.602003753E-2
2.961892182E1,-2.143843025E-1,-4.709796906E-1,-9.241162241E-2
2.963910963E1,-2.202432603E-1,-4.821649492E-1,-9.880319983E-2
2.965929838E1,-2.261022031E-1,-4.944154918E-1,-1.057274193E-1
2.967948806E1,-2.298306376E-1,-5.061333776E-1,-1.062600464E-1
2.969967869E1,-2.340916842E-1,-5.109270811E-1,-1.057274193E-1
2.971987015E1,-2.399506420E-1,-5.071986318E-1,-1.057274193E-1
2.974006234E1,-2.442116886E-1,-4.976112843E-1,-1.035968885E-1
2.976025515E1,-2.426137924E-1,-4.816323221E-1,-1.046621501E-1
2.978044848E1,-2.335590571E-1,-4.645881057E-1,-1.062600464E-1
2.980064213E1,-2.143843025E-1,-4.491417706E-1,-1.051947847E-1
2.982083598E1,-1.888179779E-1,-4.326302111E-1,-9.720530361E-2
2.984104067E1,-1.637842804E-1,-4.166512489E-1,-8.655267209E-2
2.986122077E1,-1.414137483E-1,-4.065312445E-1,-7.643266767E-2
2.988140119E1,-1.280979514E-1,-3.980091214E-1,-6.684529036E-2
2.990158234E1,-1.169126853E-1,-3.878891170E-1,-6.045371294E-2
2.992176452E1,-1.041295230E-1,-3.857586086E-1,-5.885581672E-2
2.994194796E1,-9.720530361E-2,-3.932154477E-1,-5.406212807E-2
2.996213286E1,-9.933583438E-2,-4.070638716E-1,-4.394212365E-2
2.998231942E1,-1.057274193E-1,-4.182491302E-1,-3.435475379E-2
3.000250765E1,-1.083905771E-1,-4.225101769E-1,-2.956106514E-2
3.002269754E1,-1.073253155E-1,-4.102596641E-1,-3.222422674E-2
3.004288900E1,-1.067926809E-1,-3.809649050E-1,-4.713791609E-2
3.006308192E1,-1.110537350E-1,-3.527354300E-1,-7.163897902E-2
3.008327609E1,-1.249021590E-1,-3.314301372E-1,-9.400951862E-2
3.010347129E1,-1.451421678E-1,-3.197122514E-1,-1.089232042E-1
3.012366734E1,-1.691105962E-1,-3.138532937E-1,-1.142495275E-1
3.014386390E1,-1.861548275E-1,-3.191796243E-1,-1.062600464E-1
3.016406067E1,-1.771000773E-1,-3.239732981E-1,-8.921582997E-2
3.018425702E1,-1.302284747E-1,-3.143859208E-1,-7.962846011E-2
3.020444682E1,-7.004108280E-2,-3.000048697E-1,-7.856319100E-2
3.022463119E1,-3.595264629E-2,-2.984069884E-1,-7.323687524E-2
3.024481598E1,-4.447475821E-2,-2.978743315E-1,-5.938844755E-2
3.026500129E1,-6.524740160E-2,-2.723080218E-1,-4.713791609E-2
3.028518734E1,-6.631266326E-2,-2.094574571E-1,-4.074633494E-2
3.030537421E1,-5.352949724E-2,-1.609879732E-1,-3.914843872E-2
3.032556202E1,-4.980107397E-2,-1.466069072E-1,-4.394212365E-2
3.034575077E1,-5.779055133E-2,-1.604553312E-1,-4.980107397E-2
3.036594046E1,-5.619265884E-2,-1.833585054E-1,-4.980107397E-2
3.038613109E1,-3.648528084E-2,-1.902827173E-1,-4.287686199E-2
3.040632254E1,-1.411474310E-2,-1.801627129E-1,-2.902843431E-2
3.042651473E1,-1.331579522E-3,-1.716406047E-1,-1.251684781E-2
3.044670754E1,4.527370445E-3,-1.689774394E-1,2.663159103E-4
3.046690088E1,1.677790284E-2,-1.711079776E-1,6.125265732E-3
3.048709452E1,3.115896136E-2,-1.806953400E-1,3.994738683E-3
3.050728827E1,4.554001987E-2,-1.828258783E-1,7.190529723E-3
3.052749286E1,6.311687082E-2,-1.774995476E-1,8.255792782E-3
3.054767275E1,8.122635633E-2,-1.679121852E-1,6.657897960E-3
3.056785296E1,8.495477587E-2,-1.519332230E-1,9.853689000E-3
3.058803390E1,7.163897902E-2,-1.130511016E-1,1.091895252E-2
3.060821588E1,5.725792050E-2,-6.937529147E-2,4.527370445E-3
3.062839921E1,5.033370852E-2,-1.185105834E-2,2.663159103E-4
3.064858400E1,4.820318148E-2,4.926844314E-2,-5.592633970E-3
3.066877046E1,4.926844314E-2,1.057274193E-1,-1.358211134E-2
3.068895859E1,5.139897019E-2,1.607216448E-1,-1.731053367E-2
3.070914838E1,5.725792050E-2,2.138516754E-1,-1.890842989E-2
3.072933984E1,7.323687524E-2,2.596580088E-1,-1.624527015E-2
3.074953275E1,9.241162241E-2,3.054643571E-1,-1.624527015E-2
3.076972702E1,1.062600464E-1,3.427485824E-1,-1.997369342E-2
3.078992234E1,1.137168929E-1,3.683148921E-1,-1.251684781E-2
3.081011848E1,1.270326823E-1,3.768370152E-1,7.989477599E-4
3.083031515E1,1.467400640E-1,3.789675534E-1,1.145158429E-2
3.085051202E1,1.659148186E-1,3.805654347E-1,2.103895694E-2
3.087070879E1,1.792306006E-1,3.773696423E-1,3.435475379E-2
3.089089848E1,1.861548275E-1,3.805654347E-1,5.193160102E-2
3.091108275E1,1.994706094E-1,3.992075622E-1,7.004108280E-2
3.093126744E1,2.239716798E-1,4.380896688E-1,8.815056831E-2
3.095145275E1,2.506032586E-1,4.828307331E-1,9.614004195E-2
3.097163879E1,2.644517124E-1,5.147886276E-1,9.187898785E-2
3.099182567E1,2.644517124E-1,5.323655009E-1,7.749792933E-2
3.101201348E1,2.564622164E-1,5.414202213E-1,5.992107838E-2
3.103220223E1,2.442116886E-1,5.536707640E-1,5.139897019E-2
3.105239192E1,2.356895804E-1,5.621928573E-1,4.873581231E-2
3.107258254E1,2.324937880E-1,5.824328661E-1,5.459476262E-2
3.109277400E1,2.308958918E-1,6.069339514E-1,7.483477145E-2
3.111296619E1,2.367548496E-1,6.277065873E-1,1.004010960E-1
3.113315900E1,2.495380044E-1,6.607297659E-1,1.328916401E-1
3.115335234E1,2.756369710E-1,6.974813938E-1,1.643169224E-1
3.117354598E1,3.155843616E-1,7.315698266E-1,1.840242893E-1
3.119373973E1,3.432812095E-1,7.704519033E-1,1.914811432E-1
3.121394432E1,3.544664681E-1,8.226498365E-1,1.882853508E-1
3.123412421E1,3.603254259E-1,8.823046088E-1,1.813611388E-1
3.125430442E1,3.688475490E-1,9.062730670E-1,1.627190262E-1
3.127448536E1,3.672496378E-1,8.966856599E-1,1.334242672E-1
3.129466734E1,3.507380486E-1,8.556730151E-1,1.131842583E-1
3.131485067E1,3.241064548E-1,8.103992939E-1,1.035968885E-1
3.133503546E1,2.868222296E-1,7.747129798E-1,9.933583438E-2
3.135522192E1,2.495380044E-1,7.507445216E-1,1.004010960E-1
3.137541004E1,2.239716798E-1,7.315698266E-1,1.094558388E-1
3.139559984E1,2.079927325E-1,7.102645040E-1,1.238368973E-1
3.141579129E1,2.016011477E-1,6.841655970E-1,1.424790174E-1
3.143598421E1,2.085253596E-1,6.623276472E-1,1.547295451E-1
3.145617848E1,2.175800949E-1,6.479465961E-1,1.510011256E-1
3.147637379E1,2.133190483E-1,6.340981722E-1,1.339569092E-1
3.149656994E1,1.904158741E-1,6.133255363E-1,1.078579426E-1
3.151676661E1,1.504684836E-1,5.861613154E-1,6.737792492E-2
3.153696348E1,1.062600464E-1,5.323655009E-1,2.050632425E-2
3.155715994E1,6.205160543E-2,4.471444190E-1,-2.370211668E-2
3.157734973E1,2.583264373E-2,3.464770019E-1,-5.459476262E-2
3.159753942E1,2.396843163E-3,2.522011697E-1,-6.311687082E-2
3.161772369E1,-1.038632076E-2,1.845569313E-1,-4.767054692E-2
3.163790838E1,-1.731053367E-2,1.296958476E-1,-1.784316637E-2
3.165809359E1,-1.784316637E-2,9.081372619E-2,1.624527015E-2
3.167827952E1,-1.784316637E-2,6.045371294E-2,4.287686199E-2
3.169846629E1,-2.157158963E-2,2.743053809E-2,5.299686641E-2
3.171865400E1,-3.382211924E-2,-1.984053478E-2,4.554001987E-2
3.173884265E1,-5.352949724E-2,-7.949529588E-2,2.956106514E-2
3.175903234E1,-7.536740601E-2,-1.348890066E-1,9.321057238E-3
3.177922296E1,-9.507478029E-2,-1.759016514E-1,-1.304947957E-2
3.179941442E1,-1.126516312E-1,-2.078595608E-1,-3.222422674E-2
3.181960661E1,-1.312937438E-1,-2.286322117E-1,-4.660528526E-2
3.183979942E1,-1.504684836E-1,-2.440785319E-1,-6.045371294E-2
3.185999275E1,-1.712411344E-1,-2.669816911E-1,-7.376950979E-2
3.188018640E1,-1.936116666E-1,-3.037332892E-1,-8.868319541E-2
3.190038025E1,-2.175800949E-1,-3.527354300E-1,-1.025316268E-1
3.192058494E1,-2.426137924E-1,-4.123901725E-1,-1.142495275E-1
3.194076484E1,-2.681801319E-1,-4.800344408E-1,-1.254348010E-1
3.196094504E1,-2.894853950E-1,-5.471460223E-1,-1.350221634E-1
3.198112598E1,-3.022685647E-1,-6.142576337E-1,-1.419463754E-1
3.200130796E1,-3.065296113E-1,-6.728471518E-1,-1.435442716E-1
3.202149119E1,-3.017359376E-1,-7.058703303E-1,-1.355548054E-1
3.204167598E1,-2.852243483E-1,-7.074682117E-1,-1.206411049E-1
3.206186244E1,-2.687127590E-1,-6.957502961E-1,-1.062600464E-1
3.208205056E1,-2.681801319E-1,-7.037398219E-1,-9.667267650E-2
3.210224036E1,-2.900180221E-1,-7.346324325E-1,-9.614004195E-2
3.212243182E1,-3.182475269E-1,-7.751124501E-1,-9.773793817E-2
3.214262473E1,-3.336938322E-1,-7.841671705E-1,-9.294424951E-2
3.216281900E1,-3.294327855E-1,-7.330345511E-1,-8.602003753E-2
3.218301432E1,-2.969422340E-1,-6.627271175E-1,-6.897582114E-2
3.220321046E1,-2.559295893E-1,-6.115944982E-1,-5.086633936E-2
3.222340713E1,-2.340916842E-1,-6.062681675E-1,-4.127896577E-2
3.224360400E1,-2.388853729E-1,-6.339650154E-1,-3.861580789E-2
3.226380046E1,-2.553969622E-1,-6.723145247E-1,-4.287686199E-2
3.228399015E1,-2.724411786E-1,-6.866955757E-1,-5.459476262E-2
3.230417442E1,-2.841590643E-1,-6.627271175E-1,-6.471476704E-2
3.232435911E1,-2.809632719E-1,-6.115944982E-1,-7.909582555E-2
3.234454432E1,-2.708432674E-1,-5.609944463E-1,-9.986846894E-2
3.236473025E1,-2.713759243E-1,-5.253081322E-1,-1.217063740E-1
3.238491702E1,-2.767022252E-1,-5.103944540E-1,-1.318263710E-1
3.240510473E1,-2.713759243E-1,-5.061333776E-1,-1.350221634E-1
3.242529338E1,-2.527337968E-1,-4.981439114E-1,-1.334242672E-1
3.244548296E1,-2.330264151E-1,-4.832302332E-1,-1.249021590E-1
3.246567348E1,-2.186453640E-1,-4.667186439E-1,-1.185105816E-1
3.248586484E1,-2.095906287E-1,-4.480765164E-1,-1.174453199E-1
3.250605702E1,-2.042642981E-1,-4.320975542E-1,-1.185105816E-1
3.252624984E1,-2.042642981E-1,-4.267712533E-1,-1.169126853E-1
3.254644317E1,-2.090579867E-1,-4.214449227E-1,-1.099884734E-1
3.256663682E1,-2.117211521E-1,-4.065312445E-1,-1.105211005E-1
3.258683067E1,-1.984053552E-1,-3.852259517E-1,-1.174453199E-1
3.260703536E1,-1.744369268E-1,-3.628554344E-1,-1.243695319E-1
3.262721546E1,-1.531316489E-1,-3.463438451E-1,-1.312937438E-1
3.264739588E1,-1.440769136E-1,-3.394196332E-1,-1.318263710E-1
3.266757702E1,-1.467400640E-1,-3.415501416E-1,-1.265000552E-1
3.268775921E1,-1.520663798E-1,-3.436806798E-1,-1.105211005E-1
3.270794265E1,-1.483379602E-1,-3.399522603E-1,-8.974846452E-2
3.272812754E1,-1.334242672E-1,-3.245059252E-1,-7.430213690E-2
3.274831400E1,-1.115863696E-1,-2.978743315E-1,-6.364950538E-2
3.276850213E1,-9.294424951E-2,-2.669816911E-1,-5.992107838E-2
3.278869192E1,-7.430213690E-2,-2.376869470E-1,-5.938844755E-2
3.280888327E1,-5.832318589E-2,-2.147837877E-1,-5.352949724E-2
3.282907609E1,-4.340949282E-2,-2.014679909E-1,-4.181159660E-2
3.284927015E1,-3.488738462E-2,-1.982721984E-1,-2.849580161E-2
3.286946525E1,-2.743053809E-2,-1.945437789E-1,-1.358211134E-2
3.288966119E1,-1.038632076E-2,-1.774995476E-1,-7.989477599E-4
3.290985765E1,1.890842989E-2,-1.540637612E-1,5.592633970E-3
3.293005432E1,4.181159660E-2,-1.322258562E-1,1.038632076E-2
3.295024556E1,5.033370852E-2,-1.199753210E-1,1.571263932E-2
3.297043692E1,5.512739345E-2,-1.087900475E-1,1.997369342E-2
3.299063911E1,6.258423626E-2,-9.227846563E-2,1.837579720E-2
3.301082036E1,6.364950538E-2,-6.937529147E-2,8.788425475E-3
3.303100192E1,5.406212807E-2,-5.339634046E-2,1.331579522E-3
3.305118411E1,3.328948840E-2,-5.073318258E-2,-7.190529723E-3
3.307136713E1,6.125265732E-3,-5.339634046E-2,-1.731053367E-2
3.309155129E1,-1.464737486E-2,-4.593949392E-2,-2.743053809E-2
3.311173671E1,-2.050632425E-2,-2.569948509E-2,-3.328948840E-2
3.313192359E1,-1.731053367E-2,-6.657897611E-4,-3.222422674E-2
3.315211192E1,-1.677790284E-2,2.050632425E-2,-3.595264629E-2
3.317230171E1,-1.571263932E-2,5.193160102E-2,-3.648528084E-2
3.319249296E1,4.527370445E-3,1.115863696E-1,-3.275685757E-2
3.321268546E1,3.914843872E-2,1.813611388E-1,-2.476738021E-2
3.323287911E1,6.844318658E-2,2.308958918E-1,-1.997369342E-2
3.325307369E1,8.388951421E-2,2.553969622E-1,-1.198421605E-2
3.327326900E1,9.773793817E-2,2.671148479E-1,-2.663159103E-4
3.329346473E1,1.142495275E-1,2.729738057E-1,1.145158429E-2
3.331366067E1,1.291632205E-1,2.713759243E-1,2.689790726E-2
3.333385619E1,1.408811212E-1,2.644517124E-1,4.287686199E-2
3.335404588E1,1.499358565E-1,2.506032586E-1,5.779055133E-2
3.337423015E1,1.600558609E-1,2.431464195E-1,6.844318658E-2
3.339441484E1,1.696432382E-1,2.415485233E-1,7.696529478E-2
3.341460015E1,1.701758653E-1,2.378201038E-1,8.548741043E-2
3.343478619E1,1.653821766E-1,2.378201038E-1,9.507478029E-2
3.345497307E1,1.707084924E-1,2.553969622E-1,1.014663652E-1
3.347516088E1,1.936116666E-1,2.921485603E-1,1.014663652E-1
3.349534963E1,2.191779912E-1,3.342264593E-1,9.880319983E-2
3.351553932E1,2.420811653E-1,3.651190996E-1,9.827057272E-2
3.353572994E1,2.633864284E-1,3.848264813E-1,9.507478029E-2
3.355592140E1,2.852243483E-1,3.917506933E-1,8.708529919E-2
3.357611359E1,2.942790687E-1,4.034686089E-1,7.856319100E-2
3.359630640E1,2.820285559E-1,4.135886133E-1,6.897582114E-2
3.361649973E1,2.548643351E-1,4.194475710E-1,6.524740160E-2
3.363669338E1,2.271674722E-1,4.167844057E-1,6.684529036E-2
3.365688713E1,2.101232558E-1,4.215780795E-1,6.737792492E-2
3.367709171E1,2.095906287E-1,4.412854612E-1,6.258423626E-2
3.369727150E1,2.154495716E-1,4.695149362E-1,5.406212807E-2
3.371745161E1,2.079927325E-1,4.689823091E-1,5.086633936E-2
3.373763244E1,1.925463974E-1,4.460791349E-1,5.512739345E-2
3.375781432E1,1.840242893E-1,4.258391261E-1,6.524740160E-2
3.377799754E1,1.930790395E-1,4.151864946E-1,7.376950979E-2
3.379818234E1,2.111885101E-1,4.135886133E-1,8.442214131E-2
3.381836879E1,2.255695760E-1,4.322307110E-1,1.035968885E-1
3.383855702E1,2.447443157E-1,4.647212625E-1,1.265000552E-1
3.385874692E1,2.687127590E-1,5.083971024E-1,1.430116445E-1
3.387893848E1,2.820285559E-1,5.552686453E-1,1.600558609E-1
3.389913150E1,2.862896025E-1,6.138581634E-1,1.781653464E-1
3.391932588E1,3.006706536E-1,6.953508258E-1,1.952095628E-1
3.393952129E1,3.230412006E-1,7.720498443E-1,1.946769357E-1
3.395971754E1,3.283675313E-1,8.008119464E-1,1.808284968E-1
3.397991432E1,3.086601496E-1,7.768434882E-1,1.691105962E-1
3.400011129E1,2.900180221E-1,7.390266657E-1,1.627190262E-1
3.402030744E1,2.889527678E-1,7.198519111E-1,1.531316489E-1
3.404049713E1,2.953443527E-1,7.123950720E-1,1.312937438E-1
3.406068140E1,2.841590643E-1,7.044056058E-1,1.099884734E-1
3.408086609E1,2.458095849E-1,6.815024018E-1,9.241162241E-2
3.410105140E1,2.000032514E-1,6.202497482E-1,8.602003753E-2
3.412123744E1,1.611211300E-1,5.243760347E-1,8.602003753E-2
3.414142432E1,1.328916401E-1,4.194475710E-1,9.134636074E-2
3.416161213E1,1.233042628E-1,3.448790908E-1,1.014663652E-1
3.418180088E1,1.233042628E-1,3.225085735E-1,1.083905771E-1
3.420199056E1,1.227716357E-1,3.246390820E-1,1.131842583E-1
3.422218119E1,1.179779470E-1,3.358243704E-1,1.110537350E-1
3.424237265E1,1.078579426E-1,3.395527899E-1,1.051947847E-1
3.426256484E1,9.241162241E-2,3.203780353E-1,9.667267650E-2
3.428275765E1,7.590003312E-2,2.788327634E-1,8.495477587E-2
3.430295098E1,6.098634377E-2,2.245043069E-1,7.217161357E-2
3.432314463E1,4.873581231E-2,1.755021811E-1,5.938844755E-2
3.434333838E1,3.275685757E-2,1.350221634E-1,4.767054692E-2
3.436354296E1,1.997369342E-2,9.827057272E-2,4.820318148E-2
3.438372275E1,7.989477599E-4,6.684529036E-2,5.246423557E-2
3.440390286E1,-2.263685316E-2,4.074633494E-2,4.873581231E-2
3.442408369E1,-3.542001545E-2,2.263685316E-2,3.169159219E-2
3.444426556E1,-3.648528084E-2,2.050632425E-2,1.038632076E-2
3.446444879E1,-3.861580789E-2,2.902843431E-2,-1.145158429E-2
3.448463359E1,-5.246423557E-2,2.050632425E-2,-3.275685757E-2
3.450482004E1,-7.856319100E-2,-3.315633163E-2,-5.299686641E-2
3.452500827E1,-1.089232042E-1,-1.226384789E-1,-7.057371736E-2
3.454519817E1,-1.286305785E-1,-2.030658871E-1,-8.282424510E-2
3.456538973E1,-1.371526867E-1,-2.584595978E-1,-8.122635633E-2
3.458558275E1,-1.419463754E-1,-2.888196111E-1,-6.737792492E-2
3.460577713E1,-1.499358565E-1,-3.053312004E-1,-5.086633936E-2
3.462597254E1,-1.589905918E-1,-3.362238407E-1,-4.500738904E-2
3.464616879E1,-1.685779691E-1,-3.873564899E-1,-4.980107397E-2
3.466636556E1,-1.776327193E-1,-4.496744275E-1,-5.406212807E-2
3.468656254E1,-1.856221855E-1,-4.954807460E-1,-5.459476262E-2
3.470675859E1,-1.936116666E-1,-5.087965727E-1,-5.992107838E-2
3.472694838E1,-2.016011477E-1,-5.151881576E-1,-7.376950979E-2
3.474713806E1,-2.101232558E-1,-5.402218103E-1,-8.868319541E-2
3.476732234E1,-2.175800949E-1,-5.886912942E-1,-9.454214573E-2
3.478750702E1,-2.234390527E-1,-6.350302696E-1,-8.335687965E-2
3.480769234E1,-2.266348451E-1,-6.472808123E-1,-5.139897019E-2
3.482787838E1,-2.277000993E-1,-6.062681675E-1,-1.251684781E-2
3.484806525E1,-2.282327414E-1,-5.157207847E-1,1.677790284E-2
3.486825307E1,-2.181127369E-1,-4.161186218E-1,2.530001104E-2
3.488844182E1,-1.904158741E-1,-3.713775277E-1,1.198421605E-2
3.490863150E1,-1.595232338E-1,-3.932154477E-1,-1.251684781E-2
3.492882213E1,-1.435442716E-1,-4.555333555E-1,-3.861580789E-2
3.494901359E1,-1.478053331E-1,-5.215796828E-1,-5.992107838E-2
3.496920577E1,-1.675127149E-1,-5.540702343E-1,-7.430213690E-2
3.498939859E1,-1.946769357E-1,-5.269060135E-1,-7.749792933E-2
3.500959192E1,-2.085253596E-1,-4.299670458E-1,-6.844318658E-2
3.502978557E1,-1.957421899E-1,-3.047985733E-1,-5.352949724E-2
3.504997932E1,-1.840242893E-1,-2.147837877E-1,-5.566002429E-2
3.507018390E1,-1.824263930E-1,-2.051964104E-1,-7.856319100E-2
3.509036359E1,-1.840242893E-1,-2.611227632E-1,-1.019989923E-1
3.511054359E1,-1.893506050E-1,-3.229080439E-1,-1.163800508E-1
3.513072432E1,-1.909485012E-1,-3.809649050E-1,-1.195758432E-1
3.515090609E1,-1.877527237E-1,-4.198470414E-1,-1.137168929E-1
3.517108921E1,-1.840242893E-1,-4.289017618E-1,-1.019989923E-1
3.519127390E1,-1.818937659E-1,-4.246407151E-1,-9.720530361E-2
3.521146025E1,-1.850895584E-1,-4.187817574E-1,-9.986846894E-2
3.523164838E1,-1.909485012E-1,-4.177165031E-1,-1.142495275E-1
3.525183827E1,-2.010685056E-1,-4.470112622E-1,-1.249021590E-1
3.527202984E1,-2.016011477E-1,-4.976112843E-1,-1.105211005E-1
3.529222296E1,-1.973400861E-1,-5.396891832E-1,-1.126516312E-1
3.531241744E1,-2.117211521E-1,-5.540702343E-1,-1.280979514E-1
3.533261296E1,-2.399506420E-1,-5.237102509E-1,-1.440769136E-1
3.535280932E1,-2.569948435E-1,-4.416849315E-1,-1.456748098E-1
3.537300619E1,-2.319611609E-1,-3.101248741E-1,-1.291632205E-1
3.539320327E1,-1.643169224E-1,-1.753690243E-1,-1.067926809E-1
3.541339932E1,-1.019989923E-1,-9.494162351E-2,-8.122635633E-2
3.543358911E1,-7.430213690E-2,-9.867004305E-2,-6.364950538E-2
3.545377879E1,-6.950845569E-2,-1.466069072E-1,-5.139897019E-2
3.547396306E1,-6.471476704E-2,-1.759016514E-1,-3.542001545E-2
3.549414775E1,-5.246423557E-2,-1.583248079E-1,-2.210422046E-2
3.551433296E1,-3.968106955E-2,-1.029310971E-1,-1.411474310E-2
3.553451890E1,-3.648528084E-2,-6.458161026E-2,-1.624527015E-2
3.555470567E1,-4.767054692E-2,-8.748477697E-2,-2.902843431E-2
3.557489338E1,-7.696529478E-2,-1.535311192E-1,-4.234423116E-2
3.559508202E1,-1.078579426E-1,-2.009353489E-1,-5.139897019E-2
3.561527161E1,-1.158474237E-1,-1.998700947E-1,-4.767054692E-2
3.563546213E1,-9.400951862E-2,-1.545963883E-1,-3.648528084E-2
3.565565359E1,-6.098634377E-2,-9.547425061E-2,-2.050632425E-2
3.567584577E1,-3.275685757E-2,-3.741738573E-2,-7.190529723E-3
3.569603859E1,-1.464737486E-2,1.145158429E-2,-2.663159103E-4
3.571623192E1,1.331579522E-3,5.992107838E-2,5.060002208E-3
3.573642557E1,2.263685316E-2,1.121189967E-1,9.853689000E-3
3.575661942E1,4.713791609E-2,1.713742912E-1,1.837579720E-2
3.577682411E1,7.270424068E-2,2.223737836E-1,3.009369783E-2
3.579700411E1,9.507478029E-2,2.543317080E-1,4.074633494E-2
3.581718442E1,1.094558388E-1,2.623211741E-1,4.607265070E-2
3.583736546E1,1.131842583E-1,2.463422120E-1,5.086633936E-2
3.585754754E1,1.099884734E-1,2.255695760E-1,5.299686641E-2
3.587773088E1,1.126516312E-1,2.245043069E-1,5.352949724E-2
3.589791567E1,1.238368973E-1,2.452769578E-1,5.672528967E-2
3.591810213E1,1.382179558E-1,2.681801319E-1,6.151897460E-2
3.593829025E1,1.419463754E-1,2.894853950E-1,7.004108280E-2
3.595848004E1,1.440769136E-1,3.091927767E-1,7.749792933E-2
3.597867150E1,1.541969180E-1,3.294327855E-1,7.376950979E-2
3.599886442E1,1.691105962E-1,3.523359597E-1,6.578002870E-2
3.601905859E1,1.808284968E-1,3.693801761E-1,5.938844755E-2
3.603925379E1,1.920137703E-1,3.693801761E-1,5.672528967E-2
3.605944984E1,1.968074590E-1,3.523359597E-1,6.205160543E-2
3.607964640E1,1.904158741E-1,3.384875357E-1,7.856319100E-2
3.609984317E1,1.813611388E-1,3.432812095E-1,1.004010960E-1
3.612003963E1,1.861548275E-1,3.704454303E-1,1.131842583E-1
3.614022942E1,2.063948363E-1,4.109254479E-1,1.179779470E-1
3.616041911E1,2.356895804E-1,4.535360038E-1,1.206411049E-1
3.618060338E1,2.644517124E-1,4.854938984E-1,1.174453199E-1
3.620078807E1,2.809632719E-1,4.998749495E-1,1.147821546E-1
3.622097327E1,2.809632719E-1,4.982770681E-1,1.169126853E-1
3.624115921E1,2.777675092E-1,4.865591824E-1,1.243695319E-1
3.626134598E1,2.756369710E-1,4.844286442E-1,1.323590130E-1
3.628153369E1,2.692453861E-1,4.854938984E-1,1.430116445E-1
3.630172234E1,2.649843395E-1,4.748412669E-1,1.541969180E-1
3.632191192E1,2.644517124E-1,4.524707198E-1,1.595232338E-1
3.634210244E1,2.601906359E-1,4.210454524E-1,1.595232338E-1
3.636229379E1,2.474074811E-1,3.954791129E-1,1.605884880E-1
3.638248598E1,2.324937880E-1,3.779022694E-1,1.611211300E-1
3.640267879E1,2.138516754E-1,3.672496378E-1,1.573926955E-1
3.642287213E1,1.898832470E-1,3.651190996E-1,1.494032294E-1
3.644306577E1,1.717737615E-1,3.773696423E-1,1.414137483E-1
3.646325963E1,1.909485012E-1,3.928159773E-1,1.403484792E-1
3.648346432E1,2.277000993E-1,3.901528120E-1,1.312937438E-1
3.650364432E1,2.314285189E-1,4.034686089E-1,1.062600464E-1
3.652382463E1,2.031990439E-1,4.301002026E-1,8.282424510E-2
3.654400567E1,1.744369268E-1,4.375570416E-1,6.631266326E-2
3.656418775E1,1.424790174E-1,4.444812536E-1,4.873581231E-2
3.658437109E1,1.099884734E-1,4.476770461E-1,3.115896136E-2
3.660455588E1,1.004010960E-1,4.263717830E-1,2.476738021E-2
3.662474234E1,9.720530361E-2,4.071970284E-1,1.944106072E-2
3.664493046E1,8.602003753E-2,3.779022694E-1,2.103895694E-2
3.666512025E1,5.992107838E-2,3.289001584E-1,2.423474751E-2
3.668531171E1,4.181159660E-2,2.841590643E-1,1.837579720E-2
3.670550463E1,5.086633936E-2,2.596580088E-1,1.518000662E-2
3.672569879E1,7.909582555E-2,2.553969622E-1,1.890842989E-2
3.674589400E1,1.227716357E-1,2.633864284E-1,2.157158963E-2
3.676609004E1,1.323590130E-1,3.107906580E-1,2.902843431E-2
3.678628661E1,1.147821546E-1,3.363569975E-1,4.287686199E-2
3.680648338E1,1.035968885E-1,3.225085735E-1,5.299686641E-2
3.682668004E1,9.400951862E-2,2.788327634E-1,3.914843872E-2
3.684686973E1,6.631266326E-2,1.834916621E-1,-1.091895252E-2
3.686705400E1,4.287686199E-2,2.636527456E-2,-6.578002870E-2
3.688723869E1,6.657897960E-3,-1.109205782E-1,-1.067926809E-1
3.690742400E1,-4.926844314E-2,-2.099900991E-1,-1.254348010E-1
3.692761004E1,-9.347688407E-2,-2.936132848E-1,-1.217063740E-1
3.694779692E1,-1.254348010E-1,-3.649859428E-1,-1.035968885E-1
3.696798473E1,-1.520663798E-1,-4.150533378E-1,-8.921582997E-2
3.698817348E1,-1.659148186E-1,-4.581965208E-1,-8.548741043E-2
3.700836317E1,-1.557948142E-1,-5.050681233E-1,-8.229161799E-2
3.702855379E1,-1.525990218E-1,-5.146554708E-1,-6.791055948E-2
3.704874525E1,-1.541969180E-1,-5.103944540E-1,-6.524740160E-2
3.706893744E1,-1.403484792E-1,-5.167860389E-1,-7.590003312E-2
3.708913025E1,-1.318263710E-1,-4.832302332E-1,-8.229161799E-2
3.710932359E1,-1.153147891E-1,-4.347607195E-1,-7.696529478E-2
3.712951723E1,-9.614004195E-2,-4.123901725E-1,-7.110634446E-2
3.714971098E1,-9.560741484E-2,-4.251733422E-1,-6.737792492E-2
3.716991557E1,-1.078579426E-1,-4.645881057E-1,-6.045371294E-2
3.719009536E1,-1.217063740E-1,-5.013396740E-1,-4.926844314E-2
3.721027546E1,-1.265000552E-1,-5.386239290E-1,-4.074633494E-2
3.723045629E1,-1.334242672E-1,-5.817670822E-1,-3.222422674E-2
3.725063817E1,-1.488705873E-1,-5.849629045E-1,-2.796317078E-2
3.727082140E1,-1.451421678E-1,-5.572660565E-1,-3.861580789E-2
3.729100619E1,-1.307611167E-1,-5.338302255E-1,-5.619265884E-2
3.731119265E1,-1.371526867E-1,-5.146554708E-1,-7.909582555E-2
3.733138088E1,-1.589905918E-1,-5.141228437E-1,-9.933583438E-2
3.735157088E1,-1.909485012E-1,-5.301018357E-1,-1.073253155E-1
3.737176254E1,-2.213085145E-1,-5.311670899E-1,-1.073253155E-1
3.739195567E1,-2.324937880E-1,-4.917523265E-1,-1.073253155E-1
3.741215015E1,-2.149169445E-1,-4.257059693E-1,-1.078579426E-1
3.743234567E1,-1.861548275E-1,-3.809649050E-1,-1.046621501E-1
3.745254202E1,-1.701758653E-1,-3.580617309E-1,-9.773793817E-2
3.747273890E1,-1.744369268E-1,-3.601922691E-1,-8.548741043E-2
3.749293598E1,-1.866874546E-1,-4.107922912E-1,-7.696529478E-2
3.751313161E1,-2.026664019E-1,-4.587291479E-1,-6.791055948E-2
3.753332140E1,-2.042642981E-1,-4.683165252E-1,-5.406212807E-2
3.755351109E1,-1.925463974E-1,-4.560659826E-1,-4.873581231E-2
3.757369536E1,-1.866874546E-1,-4.427502155E-1,-5.086633936E-2
3.759388004E1,-1.893506050E-1,-4.171838760E-1,-6.418213248E-2
3.761406536E1,-1.904158741E-1,-3.894870281E-1,-7.643266767E-2
3.763425140E1,-2.005358785E-1,-3.836280704E-1,-8.175898343E-2
3.765443827E1,-2.207758874E-1,-3.836280704E-1,-9.454214573E-2
3.767462609E1,-2.303632647E-1,-3.777691126E-1,-1.073253155E-1
3.769481484E1,-2.250369489E-1,-3.458112180E-1,-1.137168929E-1
3.771500452E1,-2.143843025E-1,-3.319627941E-1,-1.046621501E-1
3.773519515E1,-2.058621943E-1,-3.362238407E-1,-8.548741043E-2
3.775538661E1,-1.978727281E-1,-3.319627941E-1,-6.897582114E-2
3.777557879E1,-1.930790395E-1,-3.154512048E-1,-5.938844755E-2
3.779577161E1,-1.866874546E-1,-3.042659163E-1,-6.045371294E-2
3.781596494E1,-1.808284968E-1,-2.898848653E-1,-6.205160543E-2
3.783615859E1,-1.808284968E-1,-2.744385600E-1,-6.578002870E-2
3.785635244E1,-1.829590350E-1,-2.648511827E-1,-7.217161357E-2
3.787655713E1,-1.829590350E-1,-2.440785319E-1,-7.590003312E-2
3.789673723E1,-1.701758653E-1,-2.190448344E-1,-7.430213690E-2
3.791691765E1,-1.557948142E-1,-1.929458827E-1,-7.163897902E-2
3.793709879E1,-1.488705873E-1,-1.721732318E-1,-7.590003312E-2
3.795728098E1,-1.472726911E-1,-1.551290154E-1,-8.122635633E-2
3.797746442E1,-1.510011256E-1,-1.311605871E-1,-8.442214131E-2
3.799764932E1,-1.531316489E-1,-1.237037405E-1,-8.016108721E-2
3.801783577E1,-1.494032294E-1,-1.258342713E-1,-7.110634446E-2
3.803802390E1,-1.286305785E-1,-9.707214683E-2,-5.619265884E-2
3.805821369E1,-9.294424951E-2,-4.487423226E-2,-3.861580789E-2
3.807840515E1,-4.873581231E-2,1.304947957E-2,-3.382211924E-2
3.809859807E1,1.331579522E-3,4.713791609E-2,-3.808317333E-2
3.811879223E1,4.127896577E-2,6.045371294E-2,-3.861580789E-2
3.813898744E1,5.832318589E-2,6.311687082E-2,-2.316948399E-2
3.815918348E1,5.352949724E-2,5.779055133E-2,-9.321057238E-3
3.817938004E1,2.902843431E-2,6.684529036E-2,-8.255792782E-3
3.819957682E1,1.944106072E-2,9.720530361E-2,-2.396843163E-3
3.821977348E1,4.447475821E-2,1.307611167E-1,2.396843163E-3
3.823996327E1,7.110634446E-2,1.676458716E-1,5.592633970E-3
3.826015296E1,7.217161357E-2,1.824263930E-1,2.929474926E-3
3.828033723E1,5.566002429E-2,1.691105962E-1,-7.190529723E-3
3.830052192E1,4.554001987E-2,1.653821766E-1,-8.788425475E-3
3.832070723E1,4.820318148E-2,1.973400861E-1,-2.663159103E-4
3.834089327E1,4.926844314E-2,2.378201038E-1,8.788425475E-3
3.836108015E1,3.755054250E-2,2.474074811E-1,1.251684781E-2
3.838126796E1,2.476738021E-2,2.372874767E-1,1.411474310E-2
3.840145671E1,3.222422674E-2,2.303632647E-1,1.837579720E-2
3.842164640E1,5.406212807E-2,2.351569533E-1,2.476738021E-2
3.844183702E1,7.430213690E-2,2.367548496E-1,2.743053809E-2
3.846202848E1,8.495477587E-2,2.287653685E-1,2.636527456E-2
3.848222067E1,8.974846452E-2,2.170474678E-1,2.689790726E-2
3.850241348E1,8.708529919E-2,2.047969401E-1,3.062633052E-2
3.852260682E1,8.282424510E-2,1.978727281E-1,3.435475379E-2
3.854280046E1,8.229161799E-2,1.973400861E-1,3.435475379E-2
3.856299432E1,8.815056831E-2,2.010685056E-1,3.435475379E-2
3.858319900E1,9.667267650E-2,2.149169445E-1,3.488738462E-2
3.860337900E1,1.051947847E-1,2.319611609E-1,3.435475379E-2
3.862355932E1,1.067926809E-1,2.442116886E-1,3.009369783E-2
3.864374036E1,1.025316268E-1,2.388853729E-1,2.210422046E-2
3.866392244E1,9.560741484E-2,2.367548496E-1,1.411474310E-2
3.868410577E1,9.028109163E-2,2.447443157E-1,1.145158429E-2
3.870429056E1,9.134636074E-2,2.564622164E-1,1.091895252E-2
3.872447702E1,9.560741484E-2,2.671148479E-1,1.091895252E-2
3.874466515E1,1.014663652E-1,2.783001363E-1,1.464737486E-2
3.876485494E1,1.051947847E-1,2.852243483E-1,1.997369342E-2
3.878504640E1,1.067926809E-1,2.873548567E-1,2.583264373E-2
3.880523932E1,1.035968885E-1,2.841590643E-1,3.328948840E-2
3.882543359E1,1.030642539E-1,2.745717168E-1,4.340949282E-2
3.884562890E1,1.089232042E-1,2.681801319E-1,5.672528967E-2
3.886582504E1,1.206411049E-1,2.665822208E-1,6.950845569E-2
3.888602171E1,1.328916401E-1,2.681801319E-1,7.696529478E-2
3.890621859E1,1.408811212E-1,2.628538013E-1,8.282424510E-2
3.892641525E1,1.387505829E-1,2.479401082E-1,8.868319541E-2
3.894660504E1,1.344895363E-1,2.207758874E-1,9.028109163E-2
3.896679473E1,1.296958476E-1,1.946769357E-1,8.868319541E-2
3.898697900E1,1.233042628E-1,1.728390306E-1,8.815056831E-2
3.900716369E1,1.174453199E-1,1.552621722E-1,8.655267209E-2
3.902734900E1,1.131842583E-1,1.424790174E-1,8.175898343E-2
3.904753504E1,1.078579426E-1,1.296958476E-1,7.696529478E-2
3.906772192E1,9.614004195E-2,1.062600464E-1,7.163897902E-2
3.908790973E1,8.708529919E-2,7.536740601E-2,6.151897460E-2
3.910809848E1,8.335687965E-2,5.193160102E-2,5.139897019E-2
3.912828817E1,7.909582555E-2,4.287686199E-2,4.767054692E-2
3.914847879E1,7.163897902E-2,4.607265070E-2,4.447475821E-2
3.916867025E1,6.258423626E-2,4.926844314E-2,3.755054250E-2
3.918886244E1,5.033370852E-2,4.181159660E-2,2.210422046E-2
3.920905525E1,3.222422674E-2,1.304947957E-2,5.060002208E-3
3.922924859E1,1.331579522E-3,-4.274370521E-2,-3.462106921E-3
3.924944223E1,-2.689790726E-2,-9.760478139E-2,-3.994738683E-3
3.926963609E1,-3.222422674E-2,-1.263668984E-1,2.929474926E-3
3.928984077E1,-2.316948399E-2,-1.386174262E-1,2.476738021E-2
3.931002056E1,-2.316948399E-2,-1.508679688E-1,6.045371294E-2
3.933020067E1,-3.115896136E-2,-1.514005959E-1,9.773793817E-2
3.935038150E1,-1.890842989E-2,-1.402153224E-1,1.227716357E-1
3.937056338E1,2.743053809E-2,-1.279647946E-1,1.169126853E-1
3.939074661E1,7.270424068E-2,-1.098553166E-1,9.241162241E-2
3.941093140E1,8.548741043E-2,-9.494162351E-2,7.110634446E-2
3.943111786E1,6.897582114E-2,-7.949529588E-2,4.447475821E-2
3.945130609E1,3.222422674E-2,-5.446160212E-2,1.251684781E-2
3.947149609E1,-2.370211668E-2,-4.274370521E-2,-2.476738021E-2
3.949168775E1,-7.270424068E-2,-9.227846563E-2,-6.205160543E-2
3.951188088E1,-9.347688407E-2,-1.402153224E-1,-8.708529919E-2
3.953207525E1,-1.004010960E-1,-1.577921808E-1,-8.548741043E-2
3.955227067E1,-8.602003753E-2,-1.711079776E-1,-7.217161357E-2
3.957246692E1,-7.430213690E-2,-1.663142890E-1,-4.181159660E-2
3.959266369E1,-5.139897019E-2,-1.663142890E-1,-1.198421605E-2
3.961286067E1,-2.370211668E-2,-1.268995255E-1,5.592633970E-3
3.963305650E1,-3.994738683E-3,-5.179844424E-2,1.358211134E-2
3.965324629E1,2.530001104E-2,-3.475422785E-2,9.853689000E-3
3.967343598E1,2.956106514E-2,-3.049317189E-2,3.994738683E-3
3.969362025E1,5.592633970E-3,-6.564687192E-2,-7.190529723E-3
3.971380494E1,-3.009369783E-2,-1.322258562E-1,-8.255792782E-3
3.973399025E1,-6.364950538E-2,-1.215732098E-1,6.125265732E-3
3.975417629E1,-4.980107397E-2,-7.576687634E-2,8.788425475E-3
3.977436317E1,-7.723161485E-3,-6.937529147E-2,2.663159103E-4
3.979455098E1,4.527370445E-3,-1.087900475E-1,-7.989477599E-4
3.981473973E1,-2.370211668E-2,-1.870869249E-1,3.994738683E-3
3.983492942E1,-5.938844755E-2,-2.265016884E-1,1.518000662E-2
3.985512004E1,-6.524740160E-2,-2.206427306E-1,1.890842989E-2
3.987531150E1,-5.193160102E-2,-2.222406268E-1,1.145158429E-2
3.989550369E1,-4.607265070E-2,-2.099900991E-1,7.190529723E-3
3.991569650E1,-3.861580789E-2,-1.796300858E-1,1.145158429E-2
3.993588984E1,-2.050632425E-2,-1.535311192E-1,1.731053367E-2
3.995608348E1,-7.190529723E-3,-1.348890066E-1,3.382211924E-2
3.997627723E1,-5.592633970E-3,-1.167795286E-1,6.684529036E-2
3.999648182E1,-7.190529723E-3,-9.068056941E-2,8.868319541E-2
4.001666150E1,2.663159103E-4,-6.085318699E-2,9.028109163E-2
4.003684150E1,6.125265732E-3,-7.989477599E-4,9.028109163E-2
4.005702223E1,8.255792782E-3,1.571263932E-2,8.229161799E-2
