"Time (s)","Acceleration x (m/s^2)","Acceleration y (m/s^2)","Acceleration z (m/s^2)"
3.851276300E-2,3.195733786E0,-1.268295527E0,9.184177399E0
5.870161700E-2,3.195164919E0,-1.152898431E0,9.199572563E0
7.890130500E-2,3.187784672E0,-1.039079070E0,9.215679169E0
9.907932600E-2,3.244278908E0,-9.312359095E-1,9.207488060E0
1.192577630E-1,3.355393648E0,-8.591573834E-1,9.174614906E0
1.394370340E-1,3.479437113E0,-8.438161016E-1,9.129724503E0
1.596174510E-1,3.586885929E0,-8.682935834E-1,9.085742950E0
1.797993260E-1,3.685263395E0,-8.877679706E-1,9.044394493E0
1.999828670E-1,3.840653181E0,-9.219701290E-1,8.976065636E0
2.201681800E-1,4.016385555E0,-1.019881725E0,8.888131142E0
2.403553670E-1,4.231543541E0,-1.122115493E0,8.775264740E0
2.605444300E-1,4.484314442E0,-1.143389821E0,8.646038055E0
2.807352630E-1,4.730681896E0,-1.079717040E0,8.522045135E0
3.009277630E-1,4.967152119E0,-1.002259374E0,8.396026611E0
3.211217210E-1,5.214829445E0,-9.474394321E-1,8.250956535E0
3.413168260E-1,5.508204937E0,-9.079124331E-1,8.062615395E0
3.615127630E-1,5.860024929E0,-8.568351865E-1,7.816414356E0
3.817092210E-1,6.241404057E0,-8.141596317E-1,7.520133972E0
4.019058880E-1,6.610064030E0,-8.200000525E-1,7.197571754E0
4.221013050E-1,6.919607162E0,-8.817856312E-1,6.892887115E0
4.422904710E-1,7.199850082E0,-9.676945806E-1,6.587573528E0
4.624790130E-1,7.466781139E0,-1.042389393E0,6.271442413E0
4.826621380E-1,7.673870087E0,-1.113029122E0,6.003604889E0
5.028456800E-1,7.800060749E0,-1.188228130E0,5.823878288E0
5.230298460E-1,7.890240192E0,-1.228282928E0,5.692609787E0
5.432147420E-1,8.001141548E0,-1.205721021E0,5.540609360E0
5.634005760E-1,8.156915665E0,-1.152072310E0,5.320509911E0
5.835873460E-1,8.328494072E0,-1.117607951E0,5.055445671E0
6.037751590E-1,8.486980438E0,-1.137356877E0,4.779953957E0
6.239640130E-1,8.646344185E0,-1.198289871E0,4.469366074E0
6.441539090E-1,8.822348595E0,-1.299813390E0,4.080075741E0
6.643447420E-1,9.006313324E0,-1.401608229E0,3.618314743E0
6.845364090E-1,9.229743004E0,-1.427896857E0,2.990544319E0
7.047287010E-1,9.477260590E0,-1.301464796E0,2.158266544E0
7.249215130E-1,9.635705948E0,-1.069093585E0,1.476682663E0
7.451146380E-1,9.694453239E0,-9.385066628E-1,1.143312335E0
7.653078670E-1,9.694686890E0,-1.015068889E0,1.073809147E0
7.855009920E-1,9.729098320E0,-1.013218880E0,6.988722086E-1
8.056898460E-1,9.755721092E0,-9.614210129E-1,2.682498395E-1
8.258895340E-1,9.762361526E0,-9.308922887E-1,-1.083523687E-2
8.460675550E-1,9.770676613E0,-8.148848414E-1,-2.005688250E-1
8.662459920E-1,9.780098915E0,-4.890274405E-1,-5.299988389E-1
8.864252630E-1,9.781512260E0,-1.079946235E-1,-6.933668852E-1
9.066056800E-1,9.783578873E0,6.964036822E-2,-6.686766744E-1
9.267875550E-1,9.794880867E0,1.455544531E-1,-4.577037394E-1
9.469710960E-1,9.800565720E0,2.221640199E-1,-2.644692063E-1
9.671564090E-1,9.801060677E0,2.992285490E-1,-1.416004449E-1
9.873435960E-1,9.798832893E0,3.819416165E-1,-8.596941829E-2
1.007532659E0,9.794966698E0,4.715632796E-1,-8.142118901E-2
1.027723492E0,9.790675163E0,5.576971769E-1,-4.525833204E-2
1.047915992E0,9.787316322E0,6.154680848E-1,-4.673298914E-3
1.068109951E0,9.787576675E0,6.113276482E-1,3.791298950E-3
1.088305055E0,9.793149948E0,5.142232776E-1,-1.264924370E-2
1.108500992E0,9.799838066E0,3.653972149E-1,-5.873715971E-3
1.128697451E0,9.804278374E0,2.144342214E-1,2.323142625E-2
1.148894117E0,9.805701256E0,1.358695477E-1,-1.243325416E-2
1.169089430E0,9.805642128E0,1.210177317E-1,-7.161898911E-2
1.189293857E0,9.805516243E0,1.079866216E-1,-1.028449237E-1
1.209452190E0,9.805922508E0,6.139488518E-2,-1.024703681E-1
1.229612346E0,9.806321144E0,3.428801720E-4,-8.028641343E-2
1.249775367E0,9.806214333E0,-7.781349123E-2,-4.988384247E-2
1.269942138E0,9.804404259E0,-2.023457438E-1,5.572192743E-2
1.290113388E0,9.796286583E0,-3.763022721E-1,2.481004745E-1
1.310289638E0,9.780369759E0,-5.652660131E-1,4.418480992E-1
1.330471201E0,9.765569687E0,-7.043148279E-1,5.549567938E-1
1.350658180E0,9.757718086E0,-7.777343988E-1,5.936750174E-1
1.370850419E0,9.747543335E0,-8.441820145E-1,6.656891108E-1
1.391047555E0,9.730615616E0,-9.151238799E-1,8.050219417E-1
1.411249065E0,9.715371132E0,-9.732235670E-1,9.136667848E-1
1.431454274E0,9.705130577E0,-1.020721436E0,9.689984322E-1
1.451662399E0,9.690166473E0,-1.043050051E0,1.087710261E0
1.471872555E0,9.650797844E0,-1.029769182E0,1.404299617E0
1.492083805E0,9.566953659E0,-1.038296938E0,1.888308764E0
1.512292086E0,9.471780777E0,-1.013113022E0,2.330096483E0
1.532489013E0,9.440005302E0,-9.629645348E-1,2.475761175E0
1.552675159E0,9.448155403E0,-8.616299629E-1,2.482003450E0
1.572858805E0,9.450020790E0,-7.611414790E-1,2.507616520E0
1.593042919E0,9.430042267E0,-7.259923220E-1,2.591840744E0
1.613227659E0,9.406961441E0,-8.026838899E-1,2.652387619E0
1.633413180E0,9.442033768E0,-9.020231366E-1,2.490932465E0
1.653599586E0,9.538297653E0,-8.935368061E-1,2.095915794E0
1.673786930E0,9.593699455E0,-8.529272676E-1,1.844945788E0
1.693975211E0,9.604935646E0,-7.943295836E-1,1.812363625E0
1.714164430E0,9.637287140E0,-7.387261391E-1,1.657513261E0
1.734354534E0,9.677656174E0,-7.832553387E-1,1.378354430E0
1.754545419E0,9.710494995E0,-9.102140069E-1,1.023809195E0
1.774736982E0,9.730792046E0,-1.043015361E0,6.278534532E-1
1.794929117E0,9.732142448E0,-1.203483105E0,8.606787026E-2
1.815121669E0,9.675797462E0,-1.496906877E0,-5.555067658E-1
1.835314482E0,9.545647621E0,-1.949132919E0,-1.118875265E0
1.855512815E0,9.347967148E0,-2.483796835E0,-1.617605686E0
1.875704378E0,9.129276276E0,-2.984302044E0,-1.980063081E0
1.895883909E0,8.988311768E0,-3.294880867E0,-2.127064943E0
1.916063961E0,8.957663536E0,-3.427062750E0,-2.045944929E0
1.936244899E0,8.916149139E0,-3.502545118E0,-2.098776817E0
1.956426982E0,8.751367569E0,-3.663507938E0,-2.482466459E0
1.976610419E0,8.469924927E0,-3.861789227E0,-3.085020304E0
1.996795367E0,8.317397118E0,-4.034532547E0,-3.273202419E0
2.016981930E0,8.267790794E0,-4.192761421E0,-3.199182034E0
2.037170159E0,8.195000648E0,-4.397560120E0,-3.110274076E0
2.057360003E0,8.048725128E0,-4.785241604E0,-2.913741827E0
2.077551357E0,7.860738277E0,-5.334115982E0,-2.434417486E0
2.097744065E0,7.573824406E0,-5.987143993E0,-1.720949054E0
2.117937919E0,7.144136906E0,-6.587965012E0,-1.315457821E0
2.138132659E0,6.744056225E0,-7.016530514E0,-1.206809878E0
2.158327971E0,6.465212822E0,-7.304502010E0,-1.007799268E0
2.178553596E0,6.229815006E0,-7.534754276E0,-7.663295865E-1
2.198721305E0,6.010511875E0,-7.723772049E0,-6.224905849E-1
2.218889846E0,5.816043854E0,-7.877567291E0,-5.366143584E-1
2.239059951E0,5.616617680E0,-8.025475502E0,-4.644933343E-1
2.259232346E0,5.349298477E0,-8.211271286E0,-3.611305654E-1
2.279407555E0,5.001835823E0,-8.427556992E0,-3.582240045E-1
2.299585992E0,4.666333199E0,-8.617319107E0,-3.708763123E-1
2.319767971E0,4.396233082E0,-8.763327599E0,-2.181835771E-1
2.339953596E0,4.024768353E0,-8.942385674E0,7.316862792E-2
2.360142867E0,3.468665123E0,-9.165261269E0,3.697676361E-1
2.380335680E0,2.696673870E0,-9.404324532E0,6.760289669E-1
2.400531721E0,1.633847952E0,-9.619922638E0,9.787797332E-1
2.420730576E0,3.759211004E-1,-9.716343880E0,1.273479342E0
2.440931721E0,-8.330621123E-1,-9.659492493E0,1.473298430E0
2.461134534E0,-1.584038019E0,-9.539584160E0,1.630201459E0
2.481338388E0,-1.624198318E0,-9.497294426E0,1.825858712E0
2.501542659E0,-1.258640170E0,-9.500429153E0,2.080394983E0
2.521742971E0,-8.605313897E-1,-9.475613594E0,2.375421047E0
2.541931721E0,-6.395251751E-1,-9.508534431E0,2.312828541E0
2.562115055E0,-7.051882148E-1,-9.572326660E0,2.010884047E0
2.582298805E0,-8.285951614E-1,-9.595542908E0,1.846456051E0
2.602483180E0,-8.185430169E-1,-9.611779213E0,1.764678359E0
2.622668284E0,-6.333497763E-1,-9.652687073E0,1.610866189E0
2.642854221E0,-4.018937051E-1,-9.709761620E0,1.315067172E0
2.663041096E0,-2.260685712E-1,-9.762681007E0,8.996306658E-1
2.683228909E0,-9.700886160E-2,-9.797191620E0,4.195256531E-1
2.703417659E0,1.794526353E-2,-9.806374550E0,-7.119596004E-2
2.723607346E0,1.100488007E-1,-9.789491653E0,-5.693204403E-1
2.743797867E0,1.862041056E-1,-9.737544060E0,-1.147152662E0
2.763989117E0,2.527393401E-1,-9.634823799E0,-1.810160756E0
2.784180992E0,3.430005908E-1,-9.484140396E0,-2.470589638E0
2.804373388E0,5.020726323E-1,-9.290314674E0,-3.099736929E0
2.824566096E0,6.920852065E-1,-9.072942734E0,-3.656924725E0
2.844759013E0,8.111162186E-1,-8.866103172E0,-4.111531258E0
2.864962763E0,8.602330685E-1,-8.711018562E0,-4.421372890E0
2.885142138E0,8.825622797E-1,-8.641815186E0,-4.550879002E0
2.905321826E0,9.000051618E-1,-8.640105247E0,-4.550710678E0
2.925502242E0,8.818296194E-1,-8.690018654E0,-4.458290100E0
2.945683596E0,8.224769235E-1,-8.778288841E0,-4.293665409E0
2.965866201E0,7.864032984E-1,-8.884229660E0,-4.077060223E0
2.986050263E0,8.177686930E-1,-8.987753868E0,-3.836916208E0
3.006235888E0,9.007663131E-1,-9.080162048E0,-3.593006134E0
3.026423180E0,1.002974868E0,-9.158344269E0,-3.359934330E0
3.046612138E0,1.069181204E0,-9.206864357E0,-3.203258991E0
3.066802659E0,1.100538731E0,-9.197199821E0,-3.220360756E0
3.086994638E0,1.276175618E0,-9.148215294E0,-3.294225931E0
3.107187867E0,1.712587237E0,-9.100464821E0,-3.227843285E0
3.127382138E0,2.319857121E0,-9.064129829E0,-2.937718153E0
3.147577138E0,2.980218887E0,-9.006668091E0,-2.483669758E0
3.167772659E0,3.494200945E0,-8.906979561E0,-2.150966644E0
3.187985888E0,3.631203413E0,-8.847207069E0,-2.170636177E0
3.208152763E0,3.509353876E0,-8.873729706E0,-2.260918617E0
3.228320888E0,3.329689264E0,-8.923910141E0,-2.333965063E0
3.248491044E0,3.188059807E0,-8.971364975E0,-2.349735260E0
3.268663909E0,3.130453825E0,-9.021417618E0,-2.232638121E0
3.288840003E0,3.202322721E0,-9.063742638E0,-1.940125108E0
3.309019690E0,3.388244629E0,-9.076050758E0,-1.521674275E0
3.329203232E0,3.611188889E0,-9.054144859E0,-1.073397160E0
3.349390680E0,3.719164371E0,-9.028059006E0,-9.123322964E-1
3.369581930E0,3.722251892E0,-9.008023262E0,-1.082011104E0
3.389776774E0,3.749290943E0,-8.988945007E0,-1.145452499E0
3.409974794E0,3.795624018E0,-8.992734909E0,-9.457002282E-1
3.430175471E0,3.822270870E0,-9.005762100E0,-6.759290695E-1
3.450378232E0,3.845685482E0,-9.007451057E0,-4.969033897E-1
3.470582451E0,3.858956575E0,-9.006017685E0,-4.128871560E-1
3.490787451E0,3.857764006E0,-9.010355949E0,-3.186583221E-1
3.510990263E0,3.874025822E0,-9.007154465E0,-1.829995960E-1
3.531184899E0,3.910487175E0,-8.992556572E0,-1.113520786E-1
3.551371044E0,3.960287094E0,-8.969552994E0,-1.833819449E-1
3.571554690E0,4.015375137E0,-8.940110207E0,-3.487042189E-1
3.591738805E0,4.081461906E0,-8.902186394E0,-5.129783154E-1
3.611923544E0,4.179074764E0,-8.850342751E0,-6.141324043E-1
3.632109065E0,4.309923172E0,-8.785423279E0,-6.413283348E-1
3.652295471E0,4.456149578E0,-8.712396622E0,-6.381630301E-1
3.672482815E0,4.611484051E0,-8.626954079E0,-6.930129528E-1
3.692671096E0,4.751369953E0,-8.538548470E0,-8.294972777E-1
3.712860315E0,4.810882092E0,-8.484748840E0,-1.017271638E0
3.733050419E0,4.790236950E0,-8.469422340E0,-1.221841812E0
3.753241305E0,4.690909863E0,-8.478706360E0,-1.509068131E0
3.773432867E0,4.502929211E0,-8.493677139E0,-1.936870217E0
3.793625003E0,4.318914413E0,-8.461905479E0,-2.431771755E0
3.813817555E0,4.214913845E0,-8.357682228E0,-2.924728870E0
3.834010367E0,4.220766068E0,-8.198570251E0,-3.337509632E0
3.854208701E0,4.351278782E0,-8.020547867E0,-3.592710972E0
3.874400003E0,4.497692108E0,-7.879690647E0,-3.721776485E0
3.894579013E0,4.499328136E0,-7.832275391E0,-3.818624258E0
3.914758544E0,4.400514126E0,-7.842762947E0,-3.911129951E0
3.934938961E0,4.259010792E0,-7.886321068E0,-3.979592085E0
3.955120576E0,4.144766808E0,-7.949761391E0,-3.973990202E0
3.975303649E0,4.116804600E0,-8.024677277E0,-3.850567579E0
3.995488336E0,4.140712738E0,-8.094492912E0,-3.674787760E0
4.015674742E0,4.166035175E0,-8.170123100E0,-3.473272085E0
4.035862919E0,4.167869091E0,-8.259505272E0,-3.252666473E0
4.056052815E0,4.188408375E0,-8.353320122E0,-2.974838495E0
4.076244274E0,4.252576351E0,-8.446162224E0,-2.597750187E0
4.096437138E0,4.306305408E0,-8.539211273E0,-2.169790268E0
4.116631201E0,4.049770832E0,-8.659014702E0,-2.188885212E0
4.136826201E0,3.660041809E0,-8.814097404E0,-2.255256653E0
4.157021878E0,3.596513271E0,-8.893715858E0,-2.034034491E0
4.177217919E0,3.769732237E0,-8.846512794E0,-1.923208356E0
4.197413284E0,3.938300133E0,-8.739017487E0,-2.071172237E0
4.217605003E0,4.072124481E0,-8.636375427E0,-2.236341238E0
4.237793805E0,4.221901894E0,-8.541327477E0,-2.321994305E0
4.257979846E0,4.370509624E0,-8.473969460E0,-2.293657780E0
4.278163388E0,4.439605713E0,-8.470151901E0,-2.171825171E0
4.298347451E0,4.425561428E0,-8.518655777E0,-2.004318476E0
4.318532190E0,4.417315483E0,-8.560037613E0,-1.839421988E0
4.338717711E0,4.420358658E0,-8.576787949E0,-1.752009511E0
4.358904117E0,4.402603149E0,-8.587815285E0,-1.742673397E0
4.379091461E0,4.381764889E0,-8.598933220E0,-1.740366101E0
4.399279742E0,4.362497330E0,-8.611161232E0,-1.728263736E0
4.419468961E0,4.327433586E0,-8.628177643E0,-1.731550336E0
4.439659065E0,4.274684429E0,-8.650383949E0,-1.751661658E0
4.459849951E0,4.218516350E0,-8.675086021E0,-1.765609622E0
4.480041513E0,4.169610977E0,-8.701636314E0,-1.751074910E0
4.500233649E0,4.130517960E0,-8.729742050E0,-1.703176975E0
4.520426201E0,4.118894100E0,-8.753176689E0,-1.608412147E0
4.540619013E0,4.139474392E0,-8.769071579E0,-1.462366104E0
4.560817346E0,4.150047302E0,-8.784954071E0,-1.331198215E0
4.581008649E0,4.098909378E0,-8.802268982E0,-1.374549031E0
4.601187659E0,3.996897459E0,-8.826979637E0,-1.509842277E0
4.621367190E0,3.918493986E0,-8.849453926E0,-1.582071304E0
4.641547607E0,3.875231028E0,-8.865316391E0,-1.599730015E0
4.661729221E0,3.836749792E0,-8.882081985E0,-1.599482059E0
4.681932711E0,3.813709021E0,-8.896713257E0,-1.573057532E0
4.702136461E0,3.793212414E0,-8.915276527E0,-1.516502023E0
4.722325315E0,3.781964064E0,-8.933105469E0,-1.437627673E0
4.742508753E0,3.789863348E0,-8.945895195E0,-1.333526134E0
4.762692607E0,3.813053846E0,-8.954109192E0,-1.206205845E0
4.782876982E0,3.866811752E0,-8.946352005E0,-1.086708307E0
4.803062086E0,3.950166941E0,-8.916339874E0,-1.032210827E0
4.823248024E0,4.037829399E0,-8.874654770E0,-1.052052498E0
4.843434899E0,4.102353096E0,-8.837852478E0,-1.110600352E0
4.863622711E0,4.108398438E0,-8.827357292E0,-1.170131326E0
4.883811461E0,3.982097864E0,-8.876718521E0,-1.231722355E0
4.904001149E0,3.825667143E0,-8.943864822E0,-1.241742730E0
4.924191669E0,3.683078766E0,-9.022765160E0,-1.093168497E0
4.944382919E0,3.691366911E0,-9.049236298E0,-8.096432090E-1
4.964574794E0,3.822153091E0,-9.007616997E0,-6.514368653E-1
4.984767190E0,3.938513756E0,-8.958961487E0,-6.288908124E-1
5.004959899E0,4.011961460E0,-8.924855232E0,-6.492380500E-1
5.025152711E0,4.207749844E0,-8.819921494E0,-8.211039901E-1
5.045356357E0,4.390013695E0,-8.714459419E0,-9.779363871E-1
5.065535003E0,4.415115356E0,-8.678156853E0,-1.169073105E0
5.085713961E0,4.329533100E0,-8.695877075E0,-1.344343543E0
5.105893649E0,4.230086803E0,-8.736179352E0,-1.398541808E0
5.126074378E0,4.122278214E0,-8.786865234E0,-1.402927518E0
5.146256461E0,4.016983032E0,-8.830775261E0,-1.432358384E0
5.166440107E0,3.914948702E0,-8.866192818E0,-1.494718552E0
5.186625419E0,3.812093973E0,-8.897721291E0,-1.571267009E0
5.206812503E0,3.706781626E0,-8.929685593E0,-1.640388489E0
5.227001357E0,3.618218422E0,-8.961150169E0,-1.666329622E0
5.247191878E0,3.588448286E0,-8.984056473E0,-1.606287003E0
5.267383961E0,3.585922003E0,-9.005680084E0,-1.486364841E0
5.287577399E0,3.536570787E0,-9.040542603E0,-1.389832139E0
5.307771982E0,3.513662338E0,-9.062522888E0,-1.302013636E0
5.327967399E0,3.558861494E0,-9.059658051E0,-1.194774270E0
5.348163336E0,3.592751503E0,-9.059285164E0,-1.091720939E0
5.368359482E0,3.568201780E0,-9.076500893E0,-1.027360797E0
5.388550211E0,3.525186300E0,-9.099234581E0,-9.733356833E-1
5.408741044E0,3.479699135E0,-9.126097679E0,-8.811544180E-1
5.428942711E0,3.425467014E0,-9.159126282E0,-7.395841479E-1
5.449121982E0,3.403351068E0,-9.177955627E0,-5.939124227E-1
5.469301565E0,3.407950401E0,-9.185202599E0,-4.339648783E-1
5.489481878E0,3.437360525E0,-9.181775093E0,-2.234552950E-1
5.509663232E0,3.469613314E0,-9.172292709E0,3.467688337E-2
5.529845836E0,3.463832617E0,-9.169051170E0,3.174024522E-1
5.550029899E0,3.403700590E0,-9.180616379E0,5.490865707E-1
5.570215524E0,3.317250252E0,-9.202565193E0,6.921246648E-1
5.590402815E0,3.230730295E0,-9.223377228E0,8.136844039E-1
5.610591774E0,3.153285742E0,-9.236864090E0,9.526412487E-1
5.630782294E0,3.092842817E0,-9.238413811E0,1.120901465E0
5.650974274E0,3.050873756E0,-9.230790138E0,1.286493897E0
5.671167503E0,3.038164139E0,-9.222141266E0,1.375522614E0
5.691384742E0,3.073426962E0,-9.207593918E0,1.394505501E0
5.711576201E0,3.146429777E0,-9.181946754E0,1.400789499E0
5.731762242E0,3.227336884E0,-9.152145386E0,1.411709547E0
5.751945784E0,3.340229988E0,-9.115946770E0,1.383023024E0
5.772129794E0,3.499320745E0,-9.076588631E0,1.241236567E0
5.792314430E0,3.751929760E0,-9.007700920E0,9.771030545E-1
5.812499846E0,4.122253895E0,-8.876519203E0,6.203280091E-1
5.832686149E0,4.498912811E0,-8.711697578E0,1.910416931E-1
5.852873388E0,4.734097481E0,-8.582048416E0,-3.273553550E-1
5.873061565E0,4.710211754E0,-8.544023514E0,-9.919435382E-1
5.893250680E0,4.430239677E0,-8.587759972E0,-1.671456456E0
5.913440680E0,4.066151619E0,-8.650167465E0,-2.193493605E0
5.933631513E0,3.803998470E0,-8.667182922E0,-2.565135479E0
5.953823076E0,3.786332846E0,-8.582404137E0,-2.859442472E0
5.974015211E0,3.968600512E0,-8.400055885E0,-3.140007734E0
5.994207763E0,4.239379883E0,-8.158309937E0,-3.411750078E0
6.014400576E0,4.503389359E0,-7.906315327E0,-3.657874823E0
6.034598909E0,4.675580502E0,-7.682882309E0,-3.909303188E0
6.054790263E0,4.721137524E0,-7.510724545E0,-4.179747105E0
6.074969378E0,4.666895390E0,-7.408960342E0,-4.415630341E0
6.095149013E0,4.574615955E0,-7.384939194E0,-4.550378799E0
6.115329534E0,4.488708496E0,-7.423149109E0,-4.573701382E0
6.135511201E0,4.414539814E0,-7.511461258E0,-4.501130581E0
6.155694221E0,4.348903656E0,-7.641387463E0,-4.343572617E0
6.175878805E0,4.312639713E0,-7.799584866E0,-4.091211796E0
6.196065055E0,4.315729141E0,-7.981666565E0,-3.719929457E0
6.216252971E0,4.322499275E0,-8.169795036E0,-3.277320862E0
6.236442555E0,4.320548534E0,-8.303901672E0,-2.923772812E0
6.256633753E0,4.412051201E0,-8.296372414E0,-2.806138992E0
6.276826409E0,4.635510921E0,-8.155141830E0,-2.859385729E0
6.297020263E0,4.871035576E0,-8.010412216E0,-2.876923561E0
6.317215055E0,5.057778835E0,-7.930831909E0,-2.773294687E0
6.337410524E0,5.106294632E0,-7.965835571E0,-2.577132463E0
6.357606357E0,4.967309952E0,-8.125266075E0,-2.340142727E0
6.377802138E0,4.731473446E0,-8.344724655E0,-2.036940575E0
6.397994326E0,4.472235203E0,-8.551445961E0,-1.744210124E0
6.418180367E0,4.225244522E0,-8.716169357E0,-1.531691790E0
6.438363909E0,3.985757589E0,-8.852919579E0,-1.382004142E0
6.458547919E0,3.787675619E0,-8.956852913E0,-1.264386296E0
6.478732555E0,3.696167469E0,-9.009550095E0,-1.156179905E0
6.498917971E0,3.692672491E0,-9.024276733E0,-1.047370791E0
6.519104274E0,3.728688955E0,-9.024281502E0,-9.108260870E-1
6.539291513E0,3.789467096E0,-9.015946388E0,-7.232205868E-1
6.559479690E0,3.885687351E0,-8.990101814E0,-4.998848736E-1
6.579668805E0,3.986300468E0,-8.958621025E0,-1.513428688E-1
6.599858805E0,4.041123867E0,-8.932283401E0,2.324108034E-1
6.620049586E0,4.035575390E0,-8.928174019E0,4.150013626E-1
6.640241044E0,4.006150723E0,-8.940943718E0,4.250735939E-1
6.660433076E0,3.977818012E0,-8.952801704E0,4.412424564E-1
6.680651044E0,3.923771620E0,-8.967143059E0,6.039459705E-1
6.700825628E0,3.836549520E0,-8.987607002E0,8.210915923E-1
6.721000732E0,3.747888565E0,-9.011744499E0,9.550825953E-1
6.741176878E0,3.703713894E0,-9.023016930E0,1.018852949E0
6.761354482E0,3.726889849E0,-9.009514809E0,1.053246379E0
6.781533961E0,3.806382895E0,-8.983299255E0,9.910539985E-1
6.801715628E0,3.915439844E0,-8.951005936E0,8.480522037E-1
6.821899690E0,4.069734097E0,-8.894014359E0,7.100356221E-1
6.842086253E0,4.278835297E0,-8.808734894E0,5.178216100E-1
6.862275315E0,4.536408901E0,-8.692334175E0,1.863460690E-1
6.882466774E0,4.823411465E0,-8.534418106E0,-2.622857094E-1
6.902660419E0,5.076270103E0,-8.352791786E0,-7.954499125E-1
6.922855940E0,5.230535030E0,-8.188076019E0,-1.329399943E0
6.943052919E0,5.226568699E0,-8.099223137E0,-1.804429293E0
6.963251044E0,5.115166664E0,-8.042826653E0,-2.306165218E0
6.983449899E0,5.014385700E0,-7.962020397E0,-2.762706041E0
7.003649065E0,4.945116997E0,-7.874310017E0,-3.116319418E0
7.023845419E0,4.883043766E0,-7.782201290E0,-3.429814100E0
7.044034169E0,4.792430878E0,-7.678663731E0,-3.773741245E0
7.064233753E0,4.699837685E0,-7.548021317E0,-4.136337757E0
7.084411565E0,4.645737648E0,-7.415448666E0,-4.427033424E0
7.104589794E0,4.627578735E0,-7.303318024E0,-4.627897263E0
7.124768857E0,4.614359856E0,-7.225977898E0,-4.760600090E0
7.144949065E0,4.570097446E0,-7.216686726E0,-4.817057133E0
7.165130732E0,4.502253056E0,-7.292687416E0,-4.766217709E0
7.185314065E0,4.461202621E0,-7.439477444E0,-4.574084282E0
7.205499169E0,4.450197697E0,-7.642280102E0,-4.238122463E0
7.225686149E0,4.446085930E0,-7.879923344E0,-3.782792330E0
7.245875003E0,4.453895092E0,-8.095876694E0,-3.284812450E0
7.266065628E0,4.476042271E0,-8.233009338E0,-2.890156984E0
7.286257919E0,4.502838135E0,-8.225465775E0,-2.869940281E0
7.306451669E0,4.578593731E0,-8.129307747E0,-3.020136118E0
7.326646565E0,4.684258461E0,-8.051421165E0,-3.066387892E0
7.346842399E0,4.721750736E0,-8.051711082E0,-3.007556438E0
7.367038753E0,4.636700153E0,-8.151744843E0,-2.867133856E0
7.387235315E0,4.517261982E0,-8.283375740E0,-2.674025297E0
7.407431253E0,4.389453888E0,-8.394831657E0,-2.535719395E0
7.427620003E0,4.266608238E0,-8.478501320E0,-2.466062069E0
7.447808649E0,4.157525063E0,-8.545622826E0,-2.420269966E0
7.467991878E0,4.096296787E0,-8.596304893E0,-2.343987465E0
7.488175524E0,4.083885670E0,-8.640567780E0,-2.198374748E0
7.508359794E0,4.109166145E0,-8.677293777E0,-1.997431755E0
7.528544794E0,4.192181110E0,-8.684823036E0,-1.780410647E0
7.548730628E0,4.276840687E0,-8.705287933E0,-1.448100448E0
7.568917399E0,4.335907459E0,-8.750814438E0,-8.908157945E-1
7.589105107E0,4.378340721E0,-8.765738487E0,-4.029411674E-1
7.609293753E0,4.380726814E0,-8.769811630E0,-2.646232247E-1
7.629483336E0,4.373104572E0,-8.773087502E0,-2.815855145E-1
7.649673753E0,4.363006592E0,-8.780580521E0,-1.896465868E-1
7.669864899E0,4.343898296E0,-8.792080879E0,-1.582560875E-2
7.690078024E0,4.301880836E0,-8.811385155E0,1.539404541E-1
7.710257451E0,4.225598812E0,-8.842183113E0,3.612683713E-1
7.730437399E0,4.114515781E0,-8.878376961E0,6.446465254E-1
7.750618180E0,3.995557308E0,-8.909926414E0,9.050575495E-1
7.770800055E0,3.911688089E0,-8.933821678E0,1.027576327E0
7.790983284E0,3.868155479E0,-8.954077721E0,1.016004086E0
7.811168024E0,3.868640184E0,-8.963774681E0,9.245314002E-1
7.831354378E0,3.941163778E0,-8.941852570E0,8.251711726E-1
7.851542399E0,4.105998039E0,-8.873057365E0,7.615909576E-1
7.871732034E0,4.315976620E0,-8.781014442E0,6.606973410E-1
7.891923180E0,4.569087505E0,-8.666767120E0,4.254106283E-1
7.912115680E0,4.859179497E0,-8.517940521E0,5.882067606E-2
7.932309326E0,5.107306004E0,-8.363207817E0,-3.775613904E-1
7.952503857E0,5.227658272E0,-8.253042221E0,-8.539705276E-1
7.972699013E0,5.183865547E0,-8.217909813E0,-1.328111768E0
7.992894534E0,5.004763603E0,-8.235260010E0,-1.817475319E0
8.013089586E0,4.788687706E0,-8.238955498E0,-2.314837933E0
8.033281201E0,4.632904053E0,-8.190903664E0,-2.759654760E0
8.053469899E0,4.574318886E0,-8.089243889E0,-3.132110834E0
8.073663961E0,4.576531410E0,-7.964440346E0,-3.434157848E0
8.093852659E0,4.560893059E0,-7.822814941E0,-3.764600992E0
8.114030784E0,4.486865997E0,-7.688286304E0,-4.114449024E0
8.134209482E0,4.382501602E0,-7.590171814E0,-4.399245739E0
8.154389117E0,4.339582443E0,-7.504356384E0,-4.585089207E0
8.174570055E0,4.351955414E0,-7.448566437E0,-4.663660526E0
8.194752555E0,4.381104469E0,-7.451253414E0,-4.631969452E0
8.214936774E0,4.401613235E0,-7.527589798E0,-4.486822128E0
8.235122815E0,4.404107571E0,-7.676057816E0,-4.225204468E0
8.255310732E0,4.384520531E0,-7.869167805E0,-3.875895500E0
8.275500471E0,4.354370594E0,-8.068921089E0,-3.478843212E0
8.295691930E0,4.329391003E0,-8.187329292E0,-3.224036932E0
8.315884951E0,4.344249725E0,-8.153201103E0,-3.289864302E0
8.336079274E0,4.427680969E0,-8.080870628E0,-3.356418848E0
8.356274586E0,4.544248104E0,-8.030718803E0,-3.320807219E0
8.376470576E0,4.635486126E0,-8.047761917E0,-3.148997545E0
8.396666930E0,4.540513039E0,-8.224186897E0,-2.813695431E0
8.416862919E0,4.315250397E0,-8.461396217E0,-2.440036297E0
8.437055003E0,4.073902607E0,-8.645078659E0,-2.199164867E0
8.457240940E0,3.890614986E0,-8.758508682E0,-2.078944921E0
8.477424378E0,3.762321472E0,-8.835728645E0,-1.986257911E0
8.497608284E0,3.672101498E0,-8.892933846E0,-1.897834659E0
8.517792815E0,3.629783869E0,-8.933007240E0,-1.787855744E0
8.537978128E0,3.669387817E0,-8.945385933E0,-1.638909459E0
8.558164326E0,3.790764093E0,-8.927461624E0,-1.449461460E0
8.578351461E0,3.927130699E0,-8.905811310E0,-1.197733164E0
8.598539534E0,4.050544262E0,-8.883844376E0,-9.169401526E-1
8.618728544E0,4.124656677E0,-8.871738434E0,-6.707082987E-1
8.638918492E0,4.150300503E0,-8.872671127E0,-4.702059031E-1
8.659109274E0,4.159682751E0,-8.875264168E0,-3.116360605E-1
8.679330524E0,4.164484978E0,-8.876551628E0,-1.851519346E-1
8.699507815E0,4.162098885E0,-8.879386902E0,-6.169237569E-2
8.719685524E0,4.128125191E0,-8.894970894E0,9.198839217E-2
8.739864065E0,4.036027908E0,-8.930864334E0,3.471738100E-1
8.760043857E0,3.894248724E0,-8.973561287E0,6.931121945E-1
8.780225107E0,3.731481791E0,-9.012579918E0,1.009865999E0
8.800408128E0,3.600074053E0,-9.040756226E0,1.214324832E0
8.820593024E0,3.528352976E0,-9.059781075E0,1.281202435E0
8.840779899E0,3.510190248E0,-9.078841209E0,1.193146706E0
8.860968753E0,3.561455727E0,-9.078328133E0,1.034589171E0
8.881159482E0,3.736629963E0,-9.020477295E0,9.159579277E-1
8.901351982E0,4.014742851E0,-8.907838821E0,8.382301927E-1
8.921545940E0,4.271732330E0,-8.802340508E0,6.644470692E-1
8.941741149E0,4.551005363E0,-8.680871010E0,3.181508183E-1
8.961937294E0,4.837830067E0,-8.528485298E0,-1.752673686E-1
8.982134065E0,5.043121815E0,-8.381265640E0,-7.012119293E-1
9.002331044E0,5.119235039E0,-8.283963203E0,-1.157483816E0
9.022526565E0,5.029496193E0,-8.263729095E0,-1.607891321E0
9.042715211E0,4.786159515E0,-8.284893990E0,-2.150255680E0
9.062914690E0,4.537413597E0,-8.259401321E0,-2.713776350E0
9.083092503E0,4.386414528E0,-8.159901619E0,-3.216485023E0
9.103270732E0,4.332243919E0,-8.025511742E0,-3.604609251E0
9.123449794E0,4.346796513E0,-7.856346130E0,-3.943803787E0
9.143630003E0,4.343247890E0,-7.672064781E0,-4.294881821E0
9.163811669E0,4.244889259E0,-7.557538509E0,-4.586383343E0
9.183995003E0,4.130149364E0,-7.504473209E0,-4.774425507E0
9.204180107E0,4.088773727E0,-7.463560104E0,-4.873148918E0
9.224367086E0,4.117571354E0,-7.445599079E0,-4.876376629E0
9.244555940E0,4.174519062E0,-7.485205650E0,-4.766075134E0
9.264746565E0,4.225729942E0,-7.590767384E0,-4.549047470E0
9.284938857E0,4.248079777E0,-7.751454830E0,-4.247251987E0
9.305132607E0,4.234065056E0,-7.944031715E0,-3.890427351E0
9.325327503E0,4.217881203E0,-8.129199028E0,-3.506562710E0
9.345523232E0,4.205546379E0,-8.240581512E0,-3.252166271E0
9.365719482E0,4.197947979E0,-8.205761909E0,-3.348594904E0
9.385915940E0,4.302044392E0,-8.125042915E0,-3.412693501E0
9.406111044E0,4.430997372E0,-8.066855431E0,-3.385628939E0
9.426299690E0,4.500732899E0,-8.068655968E0,-3.287944794E0
9.446482919E0,4.414679527E0,-8.203023911E0,-3.064534187E0
9.466666565E0,4.248591423E0,-8.398754120E0,-2.753319263E0
9.486850732E0,4.057614803E0,-8.584148407E0,-2.453267813E0
9.507035628E0,3.878663063E0,-8.726002693E0,-2.232316256E0
9.527221357E0,3.731039047E0,-8.829092979E0,-2.072886705E0
9.547408024E0,3.649328709E0,-8.898076057E0,-1.917553544E0
9.567595628E0,3.648770809E0,-8.931647301E0,-1.755717993E0
9.587784169E0,3.703484297E0,-8.936611176E0,-1.609830856E0
9.607973649E0,3.767322302E0,-8.940814972E0,-1.428114057E0
9.628163961E0,3.704434395E0,-9.010846138E0,-1.119015098E0
9.648355003E0,3.511852026E0,-9.125096321E0,-7.549052238E-1
9.668546669E0,3.478265047E0,-9.147662163E0,-6.263682246E-1
9.688760576E0,3.608056307E0,-9.091124535E0,-7.097738981E-1
9.708932346E0,3.767275572E0,-9.026681900E0,-7.050019503E-1
9.729105055E0,3.883857012E0,-8.989246368E0,-5.286716819E-1
9.749279326E0,3.971297503E0,-8.961860657E0,-2.902252972E-1
9.769455680E0,4.026335239E0,-8.941695213E0,-7.146192342E-2
9.789634482E0,4.019311905E0,-8.944211960E0,1.288633943E-1
9.809834221E0,3.928982019E0,-8.973746300E0,4.531685710E-1
9.830054326E0,3.784906149E0,-9.007594109E0,8.415025473E-1
9.850261096E0,3.684826374E0,-9.013167381E0,1.164150953E0
9.870449742E0,3.672440052E0,-8.989352226E0,1.369343758E0
9.890649221E0,3.706683636E0,-8.979590416E0,1.340833902E0
9.910827034E0,3.785516262E0,-8.973231316E0,1.149509788E0
9.931005263E0,3.927870274E0,-8.932514191E0,9.759166837E-1
9.951184326E0,4.099689960E0,-8.865534782E0,8.747643828E-1
9.971364534E0,4.293342590E0,-8.786777496E0,7.281085253E-1
9.991546201E0,4.535669804E0,-8.687940598E0,3.431952000E-1
1.001172953E1,4.731009007E0,-8.586050987E0,-2.601108253E-1
1.003191464E1,4.804930687E0,-8.508179665E0,-8.330060840E-1
1.005210162E1,4.768693924E0,-8.473648071E0,-1.275625229E0
1.007229047E1,4.662446976E0,-8.455354691E0,-1.714335084E0
1.009248110E1,4.525364876E0,-8.410949707E0,-2.224270821E0
1.011267328E1,4.413266659E0,-8.340705872E0,-2.669475794E0
1.013286693E1,4.374690533E0,-8.244282722E0,-3.010689974E0
1.015306172E1,4.357110023E0,-8.145351410E0,-3.292299509E0
1.017325735E1,4.340231895E0,-8.022044182E0,-3.602718115E0
1.019346714E1,4.332490921E0,-7.843276978E0,-3.985336542E0
1.021365641E1,4.329125404E0,-7.654081821E0,-4.340978622E0
1.023384235E1,4.358999252E0,-7.504997253E0,-4.565581799E0
1.025402578E1,4.423708439E0,-7.420692444E0,-4.640529156E0
1.027420969E1,4.479435444E0,-7.408834934E0,-4.605888367E0
1.029439422E1,4.518620491E0,-7.461821079E0,-4.480366230E0
1.031457953E1,4.545917511E0,-7.576492310E0,-4.254620552E0
1.033476573E1,4.543814182E0,-7.752061367E0,-3.928062677E0
1.035496047E1,4.503802299E0,-7.966923237E0,-3.523391008E0
1.037517412E1,4.432518482E0,-8.150483131E0,-3.176915407E0
1.039535401E1,4.377895832E0,-8.163970947E0,-3.217760801E0
1.041553422E1,4.442408085E0,-8.072500229E0,-3.357102633E0
1.043571506E1,4.567087173E0,-7.993800640E0,-3.378054619E0
1.045589683E1,4.703212261E0,-7.964484692E0,-3.258400202E0
1.047607974E1,4.704434872E0,-8.088899612E0,-2.934003115E0
1.049626401E1,4.493362427E0,-8.357138634E0,-2.477560520E0
1.051644974E1,4.141330719E0,-8.598147392E0,-2.256461620E0
1.053663693E1,3.864866495E0,-8.740965843E0,-2.197430372E0
1.055682558E1,3.759572744E0,-8.825567245E0,-2.036017418E0
1.057701568E1,3.763858318E0,-8.873234749E0,-1.808163643E0
1.059720714E1,3.819958210E0,-8.892437935E0,-1.582044005E0
1.061739974E1,3.922218323E0,-8.877144814E0,-1.408150077E0
1.063759328E1,4.063016415E0,-8.833544731E0,-1.277014613E0
1.065778756E1,4.180514812E0,-8.800182343E0,-1.118248940E0
1.067798224E1,4.238863945E0,-8.799114227E0,-8.820597529E-1
1.069817714E1,4.244183064E0,-8.818382263E0,-6.272431016E-1
1.071837172E1,4.217487812E0,-8.835622787E0,-5.612050891E-1
1.073856037E1,4.175745964E0,-8.858278275E0,-5.142420530E-1
1.075874891E1,4.125927448E0,-8.892520905E0,-2.649395168E-1
1.077893203E1,4.074392796E0,-8.920045853E0,4.997904599E-2
1.079911558E1,4.029449463E0,-8.936230659E0,2.787935436E-1
1.081929974E1,3.977345705E0,-8.954887390E0,4.013496339E-1
1.083948464E1,3.909729958E0,-8.975190163E0,5.747720003E-1
1.085967037E1,3.792732954E0,-9.000492096E0,8.813049793E-1
1.087985703E1,3.650830507E0,-9.031455994E0,1.128991008E0
1.090004464E1,3.564667225E0,-9.063205719E0,1.149716735E0
1.092023318E1,3.526998520E0,-9.086727142E0,1.077986002E0
1.094042266E1,3.540404081E0,-9.088850021E0,1.014252186E0
1.096061297E1,3.623276949E0,-9.066941261E0,9.125895500E-1
1.098080401E1,3.775743961E0,-9.014865875E0,8.039458394E-1
1.100099568E1,3.992388487E0,-8.931469917E0,6.782735586E-1
1.102118787E1,4.285258293E0,-8.811176300E0,4.124470353E-1
1.104138037E1,4.636300564E0,-8.641475677E0,-1.363511081E-3
1.106157297E1,4.968757629E0,-8.443473816E0,-4.353961945E-1
1.108177641E1,5.181941032E0,-8.287735939E0,-7.945408225E-1
1.110195506E1,5.167250633E0,-8.251435280E0,-1.176320553E0
1.112213401E1,4.900101185E0,-8.328339577E0,-1.672767043E0
1.114231370E1,4.571016312E0,-8.408049583E0,-2.140303612E0
1.116249443E1,4.333590508E0,-8.419489861E0,-2.550011635E0
1.118267651E1,4.234982014E0,-8.351720810E0,-2.912743807E0
1.120286016E1,4.229620457E0,-8.256898880E0,-3.178728819E0
1.122304547E1,4.306254864E0,-8.138882637E0,-3.374187946E0
1.124323256E1,4.423066139E0,-7.988706589E0,-3.575953960E0
1.126342131E1,4.509680748E0,-7.841916561E0,-3.786490917E0
1.128361172E1,4.527192593E0,-7.733323574E0,-3.983793259E0
1.130380360E1,4.494341373E0,-7.693792820E0,-4.095952034E0
1.132399683E1,4.448537827E0,-7.722997189E0,-4.090991497E0
1.134419110E1,4.399927616E0,-7.801426411E0,-3.993591309E0
1.136438620E1,4.356560230E0,-7.903465271E0,-3.837446451E0
1.138458183E1,4.317608833E0,-8.022524834E0,-3.628736734E0
1.140477766E1,4.308181286E0,-8.153427124E0,-3.336403370E0
1.142497256E1,4.364126682E0,-8.290575981E0,-2.896750212E0
1.144516110E1,4.402512074E0,-8.393130302E0,-2.518657923E0
1.146534422E1,4.443428993E0,-8.371107101E0,-2.520095587E0
1.148552776E1,4.611742496E0,-8.249552727E0,-2.616696596E0
1.150571183E1,4.800272942E0,-8.146204948E0,-2.601365089E0
1.152589662E1,4.948803425E0,-8.117133141E0,-2.406631470E0
1.154608224E1,4.933889866E0,-8.213673592E0,-2.088701010E0
1.156626880E1,4.741933346E0,-8.405817032E0,-1.739739656E0
1.158645630E1,4.519325733E0,-8.575058937E0,-1.488100410E0
1.160664474E1,4.326179028E0,-8.693039894E0,-1.373173356E0
1.162683412E1,4.156177998E0,-8.782711029E0,-1.326862216E0
1.164702443E1,4.009479046E0,-8.854048729E0,-1.303954601E0
1.166721547E1,3.918913126E0,-8.902746201E0,-1.246437073E0
1.168740714E1,3.905974388E0,-8.926408768E0,-1.110392094E0
1.170759933E1,3.955535889E0,-8.929915428E0,-8.835901022E-1
1.172779183E1,4.014441013E0,-8.926753044E0,-6.064115763E-1
1.174798453E1,4.097849369E0,-8.901023865E0,-3.870228827E-1
1.176818808E1,4.227698803E0,-8.843051910E0,-3.120585680E-1
1.178836693E1,4.333330631E0,-8.794365883E0,-2.274938822E-1
1.180848453E1,4.343809128E0,-8.792084694E0,-3.106056526E-2
1.182860776E1,4.279741764E0,-8.822366714E0,1.415584087E-1
1.184873901E1,4.253697395E0,-8.833542824E0,2.120732069E-1
1.186888026E1,4.228455067E0,-8.842858315E0,3.072832525E-1
1.188903297E1,4.127912998E0,-8.879456520E0,5.347674489E-1
1.190919818E1,3.948037624E0,-8.939775467E0,8.147414327E-1
1.192937630E1,3.747121811E0,-8.999151230E0,1.069921732E0
1.194956724E1,3.567490339E0,-9.045618057E0,1.272870064E0
1.196977037E1,3.452729702E0,-9.071747780E0,1.397292495E0
1.198998464E1,3.429424524E0,-9.078588486E0,1.410195470E0
1.201020860E1,3.487802505E0,-9.066969872E0,1.340031266E0
1.203044037E1,3.600844622E0,-9.030764580E0,1.284371138E0
1.205067797E1,3.752537727E0,-8.969921112E0,1.276461840E0
1.207091922E1,3.952951193E0,-8.900710106E0,1.149747372E0
1.209116183E1,4.215857983E0,-8.818276405E0,7.968168259E-1
1.211138401E1,4.547852039E0,-8.683250427E0,2.976556718E-1
1.213157256E1,4.862215996E0,-8.512263298E0,-2.657060921E-1
1.215175568E1,5.047548294E0,-8.359198570E0,-9.035672545E-1
1.217193922E1,4.973176479E0,-8.280974388E0,-1.692151427E0
1.219212328E1,4.647819042E0,-8.277162552E0,-2.461044788E0
1.221230808E1,4.293999672E0,-8.282405853E0,-3.022201300E0
1.223249370E1,4.097846508E0,-8.222644806E0,-3.430183887E0
1.225268026E1,4.052510738E0,-8.075758934E0,-3.811779022E0
1.227286776E1,4.126965046E0,-7.774201870E0,-4.324389935E0
1.229305620E1,4.234245777E0,-7.299221039E0,-4.996291637E0
1.231326604E1,4.299419403E0,-6.746964455E0,-5.671319008E0
1.233345818E1,4.333324909E0,-6.255358696E0,-6.185722828E0
1.235365214E1,4.320003986E0,-5.870609760E0,-6.560784817E0
1.237384068E1,4.302427292E0,-5.520601749E0,-6.868949413E0
1.239401860E1,4.264824390E0,-5.181001663E0,-7.151145458E0
1.241419714E1,4.194850922E0,-4.880962372E0,-7.399312496E0
1.243437667E1,4.153531075E0,-4.694330692E0,-7.542003632E0
1.245455750E1,4.101092815E0,-4.647596836E0,-7.599425316E0
1.247473990E1,3.990248680E0,-4.704623222E0,-7.623308182E0
1.249492401E1,3.852980137E0,-4.789520264E0,-7.641036034E0
1.251510995E1,3.824563503E0,-4.828600883E0,-7.630709171E0
1.253529776E1,3.862937212E0,-4.873482227E0,-7.582695961E0
1.255548740E1,3.855953455E0,-5.163207054E0,-7.392111301E0
1.257567875E1,3.493559122E0,-5.447354794E0,-7.368294716E0
1.259587167E1,3.254004002E0,-5.906250954E0,-7.120256424E0
1.261606589E1,3.415180683E0,-6.540303707E0,-6.459981441E0
1.263626110E1,3.658390999E0,-6.926113129E0,-5.900467396E0
1.265645698E1,3.769681692E0,-7.220391750E0,-5.461303711E0
1.267665323E1,3.686230659E0,-7.525570869E0,-5.093904972E0
1.269684886E1,3.506640196E0,-7.861537933E0,-4.697881699E0
1.271704058E1,3.407126904E0,-8.200021744E0,-4.161913395E0
1.273722641E1,3.492630720E0,-8.447165489E0,-3.552085400E0
1.275740974E1,3.677247524E0,-8.564752579E0,-3.048485518E0
1.277759354E1,3.842540264E0,-8.623710632E0,-2.652713537E0
1.279777797E1,3.959074974E0,-8.686059952E0,-2.246878624E0
1.281796318E1,3.996913671E0,-8.765234947E0,-1.834596753E0
1.283814927E1,4.011151314E0,-8.827547073E0,-1.468155026E0
1.285833631E1,4.042657375E0,-8.855498314E0,-1.186366916E0
1.287852427E1,4.074360847E0,-8.863017082E0,-1.008418798E0
1.289871318E1,4.079692364E0,-8.870901108E0,-9.130249023E-1
1.291890297E1,4.084654808E0,-8.879164696E0,-8.039946556E-1
1.293909354E1,4.095654011E0,-8.888160706E0,-6.297566295E-1
1.295928479E1,4.080420017E0,-8.907389641E0,-4.230458736E-1
1.297947662E1,4.047487736E0,-8.930493355E0,-1.857551038E-1
1.299966886E1,3.988457441E0,-8.958451271E0,9.353971481E-2
1.301986136E1,3.900141716E0,-8.991759300E0,3.279404640E-1
1.304005938E1,3.787763834E0,-9.033047676E0,4.767399430E-1
1.306025063E1,3.656608820E0,-9.078916550E0,6.106349826E-1
1.308042985E1,3.525812864E0,-9.115513802E0,8.040240407E-1
1.310060959E1,3.405651808E0,-9.143674850E0,9.824088216E-1
1.312079016E1,3.310287237E0,-9.177591324E0,9.920672178E-1
1.314097183E1,3.260488510E0,-9.210536003E0,8.400149941E-1
1.316115485E1,3.298684835E0,-9.213419914E0,6.340096593E-1
1.318133938E1,3.495499372E0,-9.152450562E0,4.295442700E-1
1.320152552E1,3.863271236E0,-9.011480331E0,1.968268305E-1
1.322171334E1,4.246323586E0,-8.839218140E0,-8.571854234E-2
1.324190276E1,4.491743565E0,-8.708839417E0,-3.882763684E-1
1.326209370E1,4.597177029E0,-8.626302719E0,-7.894510627E-1
1.328228599E1,4.529808521E0,-8.589044571E0,-1.370957732E0
1.330249901E1,4.295567513E0,-8.604719162E0,-1.917624354E0
1.332269693E1,4.040270329E0,-8.619815826E0,-2.354861259E0
1.334288537E1,3.961907148E0,-8.544404030E0,-2.732553959E0
1.336306839E1,4.096304893E0,-8.370699883E0,-3.053205013E0
1.338325183E1,4.334394455E0,-8.156306267E0,-3.295159101E0
1.340343589E1,4.504240036E0,-7.970603943E0,-3.514496565E0
1.342362068E1,4.455268860E0,-7.863557816E0,-3.805972099E0
1.344380630E1,4.288794994E0,-7.799899101E0,-4.115606785E0
1.346399287E1,4.190483093E0,-7.715733051E0,-4.367801189E0
1.348418037E1,4.205786228E0,-7.604113102E0,-4.545239925E0
1.350436880E1,4.243866444E0,-7.519582748E0,-4.649285316E0
1.352455818E1,4.263137817E0,-7.502779484E0,-4.658790588E0
1.354474839E1,4.271949291E0,-7.548621655E0,-4.575932503E0
1.356493933E1,4.262060642E0,-7.658241749E0,-4.399610043E0
1.358513089E1,4.223758221E0,-7.831262112E0,-4.123297691E0
1.360532297E1,4.172195435E0,-8.043786049E0,-3.749756336E0
1.362551537E1,4.170027256E0,-8.260724068E0,-3.246800184E0
1.364570797E1,4.238644123E0,-8.399666786E0,-2.765839100E0
1.366591141E1,4.348227978E0,-8.354446411E0,-2.732494831E0
1.368609037E1,4.536161423E0,-8.208353043E0,-2.866455555E0
1.370626964E1,4.716864109E0,-8.121932983E0,-2.820601702E0
1.372644964E1,4.847064018E0,-8.112799644E0,-2.618939400E0
1.374663068E1,4.839934826E0,-8.200192451E0,-2.345690012E0
1.376681297E1,4.726951599E0,-8.356159210E0,-2.000230074E0
1.378699672E1,4.526037216E0,-8.539963722E0,-1.659636140E0
1.380718203E1,4.167081356E0,-8.711289406E0,-1.708579063E0
1.382736901E1,3.808192253E0,-8.834879875E0,-1.900777817E0
1.384755766E1,3.601008177E0,-8.910047531E0,-1.952989340E0
1.386774787E1,3.608430147E0,-8.924476624E0,-1.871722102E0
1.388793953E1,3.754178524E0,-8.899404526E0,-1.696206808E0
1.390813245E1,3.931571960E0,-8.871241570E0,-1.419232011E0
1.392832641E1,4.076948643E0,-8.851555824E0,-1.094912767E0
1.394852120E1,4.198996067E0,-8.823829651E0,-8.239272237E-1
1.396871651E1,4.318654060E0,-8.780114174E0,-6.551392078E-1
1.398891203E1,4.439139366E0,-8.727056503E0,-5.503799319E-1
1.400910672E1,4.532640457E0,-8.688323975E0,-3.722863793E-1
1.402929526E1,4.572761059E0,-8.674396515E0,-1.228463128E-1
1.404947839E1,4.543934822E0,-8.689948082E0,8.850015700E-2
1.406966193E1,4.529555321E0,-8.694676399E0,2.368974239E-1
1.408984599E1,4.533662319E0,-8.684354782E0,4.452719390E-1
1.411003078E1,4.480044842E0,-8.694630623E0,7.092164159E-1
1.413021641E1,4.386011124E0,-8.718376160E0,9.608408213E-1
1.415040297E1,4.281220913E0,-8.743584633E0,1.179520011E0
1.417059047E1,4.166696072E0,-8.778716087E0,1.320289969E0
1.419077891E1,4.091359138E0,-8.808086395E0,1.359695554E0
1.421096828E1,4.072399139E0,-8.818122864E0,1.351535797E0
1.423115849E1,4.100843430E0,-8.809270859E0,1.322956920E0
1.425134943E1,4.175657272E0,-8.775303841E0,1.314647555E0
1.427154099E1,4.301362991E0,-8.713006973E0,1.323693156E0
1.429173308E1,4.471305370E0,-8.637804985E0,1.251458526E0
1.431194006E1,4.693860054E0,-8.553481102E0,9.879394174E-1
1.433211756E1,4.966497421E0,-8.437435150E0,5.603410006E-1
1.435229568E1,5.234117985E0,-8.292857170E0,5.400173366E-2
1.437247479E1,5.425500393E0,-8.156087875E0,-4.610571265E-1
1.439265521E1,5.472760677E0,-8.074111938E0,-1.013897061E0
1.441283724E1,5.303905010E0,-8.079954147E0,-1.659310222E0
1.443302110E1,4.949644566E0,-8.163227081E0,-2.243463516E0
1.445320688E1,4.647092342E0,-8.213262558E0,-2.667816639E0
1.447339464E1,4.602663994E0,-8.127270699E0,-2.988872528E0
1.449358433E1,4.747700214E0,-7.912495613E0,-3.319962263E0
1.451377578E1,5.040121078E0,-7.559168816E0,-3.691415548E0
1.453396880E1,5.299624920E0,-7.189760685E0,-4.048667908E0
1.455416318E1,5.300011158E0,-6.973399639E0,-4.410437107E0
1.457435865E1,5.142126560E0,-6.903709888E0,-4.697627544E0
1.459455485E1,4.996786118E0,-6.895135880E0,-4.864114285E0
1.461475141E1,4.908908844E0,-6.935225487E0,-4.896493435E0
1.463494724E1,4.865408897E0,-7.022779465E0,-4.814432621E0
1.465513896E1,4.848680496E0,-7.160833359E0,-4.624192715E0
1.467533282E1,4.833779812E0,-7.362635136E0,-4.312374115E0
1.469552131E1,4.820305824E0,-7.618056774E0,-3.860085011E0
1.471569922E1,4.819807529E0,-7.880518913E0,-3.292000771E0
1.473587771E1,4.813075542E0,-8.080221176E0,-2.777535915E0
1.475605714E1,4.788926601E0,-8.155413628E0,-2.593410015E0
1.477623787E1,4.869845390E0,-8.073963165E0,-2.695572615E0
1.479642016E1,5.048956871E0,-7.937481880E0,-2.770346403E0
1.481660417E1,5.233265400E0,-7.859265327E0,-2.648634434E0
1.483679000E1,5.282773018E0,-7.889057636E0,-2.454683304E0
1.485697771E1,5.164712906E0,-8.024024963E0,-2.260784864E0
1.487716724E1,4.947640419E0,-8.214903831E0,-2.050996780E0
1.489735849E1,4.719850063E0,-8.373140335E0,-1.945228696E0
1.491755131E1,4.534253597E0,-8.474889755E0,-1.946063757E0
1.493774542E1,4.388927937E0,-8.547123909E0,-1.963255763E0
1.495794052E1,4.293721199E0,-8.607701302E0,-1.908356190E0
1.497813631E1,4.252187252E0,-8.658551216E0,-1.766011953E0
1.499833245E1,4.271605492E0,-8.695502281E0,-1.520532608E0
1.501852834E1,4.365209579E0,-8.704147339E0,-1.163254023E0
1.503872032E1,4.473656654E0,-8.695239067E0,-7.413490415E-1
1.505890604E1,4.552877903E0,-8.676701546E0,-3.956296444E-1
1.507908927E1,4.600473404E0,-8.657670021E0,-2.253468633E-1
1.509927302E1,4.616080284E0,-8.650777817E0,-1.619193852E-1
1.511945745E1,4.613233089E0,-8.653508186E0,-7.265233994E-2
1.513964266E1,4.567353249E0,-8.678050995E0,3.294298798E-2
1.515982875E1,4.521280766E0,-8.701871872E0,7.632219046E-2
1.518001578E1,4.544057846E0,-8.689696312E0,1.053874940E-1
1.520020375E1,4.566254139E0,-8.675198555E0,2.462401390E-1
1.522039266E1,4.507697105E0,-8.696269989E0,4.753501415E-1
1.524058245E1,4.373269081E0,-8.745966911E0,7.436166406E-1
1.526077302E1,4.229599953E0,-8.785751343E0,1.044723630E0
1.528096427E1,4.118604660E0,-8.809962273E0,1.261772275E0
1.530118011E1,4.061353207E0,-8.822536469E0,1.355970263E0
1.532135907E1,4.065305233E0,-8.819637299E0,1.362968564E0
1.534153834E1,4.116257191E0,-8.804819107E0,1.304600358E0
1.536171834E1,4.187403202E0,-8.784712791E0,1.210314274E0
1.538189938E1,4.285014153E0,-8.746022224E0,1.147232056E0
1.540208167E1,4.439555168E0,-8.675464630E0,1.094105005E0
1.542226542E1,4.650101185E0,-8.586010933E0,9.095973969E-1
1.544245073E1,4.932152271E0,-8.458377838E0,5.478034616E-1
1.546263771E1,5.239897728E0,-8.289060593E0,7.303770632E-2
1.548282636E1,5.476535320E0,-8.122058868E0,-4.583889842E-1
1.550301657E1,5.567174911E0,-8.008213997E0,-1.022469044E0
1.552320823E1,5.433321476E0,-7.998003960E0,-1.637477636E0
1.554340115E1,5.101129055E0,-8.089390755E0,-2.170397282E0
1.556359511E1,4.771009922E0,-8.181720734E0,-2.543088675E0
1.558378979E1,4.655950546E0,-8.161657333E0,-2.807110310E0
1.560398500E1,4.772096634E0,-8.008275986E0,-3.043844938E0
1.562418042E1,5.065266609E0,-7.714177608E0,-3.317365170E0
1.564437469E1,5.387999058E0,-7.339558601E0,-3.642902136E0
1.566456323E1,5.501666546E0,-7.038198948E0,-4.045466423E0
1.568475167E1,5.424901962E0,-6.874987125E0,-4.413090706E0
1.570495094E1,5.357551098E0,-6.790880203E0,-4.620712757E0
1.572512865E1,5.304406643E0,-6.781414032E0,-4.695326805E0
1.574530677E1,5.224641323E0,-6.845680237E0,-4.691499710E0
1.576548563E1,5.122472286E0,-6.962573051E0,-4.631763935E0
1.578566563E1,5.016459942E0,-7.115565300E0,-4.513784885E0
1.580584709E1,4.925396919E0,-7.311305523E0,-4.296006203E0
1.582603021E1,4.900667191E0,-7.558732986E0,-3.875486374E0
1.584621511E1,4.914607048E0,-7.820860863E0,-3.294109106E0
1.586640188E1,4.933103085E0,-8.019099236E0,-2.743887424E0
1.588659052E1,4.940107822E0,-8.100049019E0,-2.480911493E0
1.590678094E1,5.035768032E0,-8.025700569E0,-2.529735327E0
1.592697302E1,5.239078045E0,-7.864351749E0,-2.621908426E0
1.594716657E1,5.439607143E0,-7.738217831E0,-2.588637590E0
1.596736125E1,5.536163330E0,-7.724490643E0,-2.419404507E0
1.598755677E1,5.410064697E0,-7.882832050E0,-2.182327986E0
1.600775282E1,5.101347923E0,-8.117218018E0,-2.063347340E0
1.602794906E1,4.795303345E0,-8.285091400E0,-2.129015446E0
1.604814417E1,4.605348587E0,-8.388643265E0,-2.142847776E0
1.606833261E1,4.480754375E0,-8.470544815E0,-2.084009409E0
1.608851563E1,4.356917858E0,-8.559047699E0,-1.982513070E0
1.610869906E1,4.224490166E0,-8.657658577E0,-1.835493088E0
1.612888302E1,4.165203094E0,-8.726978302E0,-1.631351590E0
1.614906771E1,4.237319469E0,-8.737199783E0,-1.369979858E0
1.616925323E1,4.384117126E0,-8.710509300E0,-1.037758946E0
1.618943969E1,4.493456841E0,-8.689173698E0,-6.910026073E-1
1.620962709E1,4.554761887E0,-8.672556877E0,-4.596644044E-1
1.622981542E1,4.612033844E0,-8.648084641E0,-3.319029212E-1
1.625000469E1,4.655197620E0,-8.628600121E0,-2.162931561E-1
1.627019479E1,4.649264812E0,-8.633703232E0,-1.179022044E-1
1.629038573E1,4.675731659E0,-8.619903564E0,-7.194080204E-2
1.631059818E1,4.732698917E0,-8.588965416E0,-4.036103189E-2
1.633077896E1,4.769628525E0,-8.568042755E0,9.839498252E-2
1.635096016E1,4.733360767E0,-8.583184242E0,3.076170683E-1
1.637114203E1,4.624731541E0,-8.636456490E0,4.403141141E-1
1.639132485E1,4.487749100E0,-8.702616692E0,5.431104302E-1
1.641150875E1,4.341799736E0,-8.765325546E0,6.987397075E-1
1.643169391E1,4.215826988E0,-8.811247826E0,8.712598085E-1
1.645188042E1,4.127097607E0,-8.841197968E0,9.852295518E-1
1.647206828E1,4.073066235E0,-8.866551399E0,9.822427034E-1
1.649225745E1,4.063059330E0,-8.883097649E0,8.674719930E-1
1.651244782E1,4.101547241E0,-8.878365517E0,7.227139473E-1
1.653263927E1,4.223381519E0,-8.826951981E0,6.468171477E-1
1.655283167E1,4.415701389E0,-8.735548973E0,6.017984748E-1
1.657302479E1,4.634981632E0,-8.629039764E0,4.764541984E-1
1.659321844E1,4.917502880E0,-8.480928421E0,2.497735918E-1
1.661341240E1,5.188284874E0,-8.320741653E0,-1.317821294E-1
1.663361188E1,5.338663101E0,-8.199321747E0,-6.634553671E-1
1.665380339E1,5.292250156E0,-8.154767036E0,-1.289284706E0
1.667398167E1,5.006697178E0,-8.195893288E0,-1.982599378E0
1.669416047E1,4.563560009E0,-8.276939392E0,-2.614685774E0
1.671434021E1,4.202320576E0,-8.311452866E0,-3.070935488E0
1.673452120E1,4.104790688E0,-8.253279686E0,-3.347305536E0
1.675470365E1,4.210399151E0,-8.111001968E0,-3.557328701E0
1.677488776E1,4.421670437E0,-7.904395103E0,-3.760286808E0
1.679507365E1,4.614513397E0,-7.692049980E0,-3.963460684E0
1.681526130E1,4.674928665E0,-7.536255360E0,-4.185724735E0
1.683545073E1,4.604402542E0,-7.457343578E0,-4.399759293E0
1.685564183E1,4.490392208E0,-7.421737194E0,-4.574338436E0
1.687583438E1,4.385478973E0,-7.403549671E0,-4.703765392E0
1.689602818E1,4.319659710E0,-7.418550014E0,-4.740890503E0
1.691622297E1,4.296377659E0,-7.508708477E0,-4.618531704E0
1.693641844E1,4.273810387E0,-7.663402081E0,-4.379179001E0
1.695661427E1,4.246144295E0,-7.856230259E0,-4.052196503E0
1.697681006E1,4.225183487E0,-8.076154709E0,-3.618555546E0
1.699700209E1,4.225545883E0,-8.296349525E0,-3.079891920E0
1.701718782E1,4.246213436E0,-8.451003075E0,-2.592413902E0
1.703737104E1,4.323675632E0,-8.462607384E0,-2.420846462E0
1.705755474E1,4.603500843E0,-8.310665131E0,-2.431255102E0
1.707773906E1,4.942326069E0,-8.114459991E0,-2.428857088E0
1.709792417E1,5.174264908E0,-7.981919289E0,-2.384604931E0
1.711811016E1,5.145388126E0,-8.009316444E0,-2.355040789E0
1.713829709E1,4.930532932E0,-8.165248871E0,-2.277924299E0
1.715848495E1,4.751734257E0,-8.330739975E0,-2.046996593E0
1.717867375E1,4.661885738E0,-8.439552307E0,-1.791974902E0
1.719886344E1,4.589171886E0,-8.514127731E0,-1.618493676E0
1.721905396E1,4.488345623E0,-8.588107109E0,-1.506506562E0
1.723924521E1,4.399708748E0,-8.652697563E0,-1.394193172E0
1.725943703E1,4.391819477E0,-8.682251930E0,-1.225078106E0
1.727962927E1,4.525008202E0,-8.644673347E0,-9.819934368E-1
1.729985047E1,4.732976913E0,-8.561326981E0,-6.877449751E-1
1.732001745E1,4.894630909E0,-8.488473892E0,-3.984724581E-1
1.734018526E1,5.006781101E0,-8.428394318E0,-2.543644309E-1
1.736035464E1,5.084363461E0,-8.380599022E0,-2.918722928E-1
1.738052630E1,5.078426838E0,-8.384198189E0,-2.918645740E-1
1.740070089E1,5.039129734E0,-8.409514427E0,-2.400779873E-1
1.742087880E1,5.051270008E0,-8.402533531E0,-2.290889472E-1
1.744106037E1,5.084442139E0,-8.382561684E0,-2.269184291E-1
1.746124568E1,5.092078209E0,-8.380995750E0,-6.811794359E-3
1.748143474E1,5.032860756E0,-8.408542633E0,3.702855110E-1
1.750162735E1,4.920449257E0,-8.460824013E0,6.115760207E-1
1.752182318E1,4.807126045E0,-8.514423370E0,7.526749969E-1
1.754202183E1,4.709879875E0,-8.550108910E0,9.397106171E-1
1.756222276E1,4.627085686E0,-8.571552277E0,1.135323882E0
1.758242537E1,4.561305523E0,-8.594749451E0,1.222768903E0
1.760262901E1,4.519817352E0,-8.620380402E0,1.196111441E0
1.762283308E1,4.501452446E0,-8.637931824E0,1.137300014E0
1.764303276E1,4.514354229E0,-8.630167961E0,1.145070076E0
1.766322130E1,4.568315983E0,-8.579737663E0,1.299610853E0
1.768340974E1,4.612844467E0,-8.520914078E0,1.511975884E0
1.770360901E1,4.683041573E0,-8.475197792E0,1.552593112E0
1.772378662E1,4.826887131E0,-8.431053162E0,1.337492943E0
1.774396464E1,5.054732800E0,-8.344869614E0,9.915722013E-1
1.776414349E1,5.312989235E0,-8.219903946E0,6.129368544E-1
1.778432349E1,5.516180038E0,-8.104767799E0,2.342580557E-1
1.780450495E1,5.615811348E0,-8.038553238E0,-1.213078946E-1
1.782468808E1,5.585630417E0,-8.047490120E0,-4.571899474E-1
1.784487297E1,5.370735168E0,-8.158555031E0,-8.738142848E-1
1.786505974E1,4.937233925E0,-8.352075577E0,-1.427217603E0
1.788524839E1,4.453871727E0,-8.506237030E0,-1.994325757E0
1.790543881E1,4.180302620E0,-8.496746063E0,-2.549664736E0
1.792563089E1,4.135793209E0,-8.331577301E0,-3.106510162E0
1.794582443E1,4.170440674E0,-8.084886551E0,-3.662297964E0
1.796601912E1,4.211685658E0,-7.861538887E0,-4.077781677E0
1.798621464E1,4.281187057E0,-7.702626228E0,-4.302484989E0
1.800641068E1,4.419958115E0,-7.556241989E0,-4.420131207E0
1.802660693E1,4.591902733E0,-7.404238224E0,-4.501340389E0
1.804680203E1,4.731125832E0,-7.276523113E0,-4.564979076E0
1.806699047E1,4.810939312E0,-7.217974663E0,-4.574505806E0
1.808717349E1,4.851807594E0,-7.277483463E0,-4.434926987E0
1.810735693E1,4.899063110E0,-7.447241306E0,-4.087562561E0
1.812754089E1,4.934377670E0,-7.679696560E0,-3.583931208E0
1.814772558E1,4.889690876E0,-7.947493076E0,-3.016400814E0
1.816791110E1,4.764929295E0,-8.185633659E0,-2.541895866E0
1.818809756E1,4.685349941E0,-8.274404526E0,-2.398355961E0
1.820828495E1,4.761294842E0,-8.194767952E0,-2.519173861E0
1.822847328E1,4.821167946E0,-8.119208336E0,-2.646731615E0
1.824866256E1,4.877116680E0,-8.089935303E0,-2.633831739E0
1.826885266E1,4.947832584E0,-8.090202332E0,-2.497589588E0
1.828904349E1,4.905845642E0,-8.205616951E0,-2.184239864E0
1.830925828E1,4.678331852E0,-8.454643250E0,-1.674101233E0
1.832943433E1,4.298273563E0,-8.724347115E0,-1.257377625E0
1.834961104E1,3.891375542E0,-8.939109802E0,-1.058248758E0
1.836978891E1,3.613317013E0,-9.072633743E0,-8.953472376E-1
1.838996828E1,3.525457859E0,-9.120136261E0,-7.514417768E-1
1.841014948E1,3.586203575E0,-9.104316711E0,-6.488103271E-1
1.843033271E1,3.700387955E0,-9.061502457E0,-6.055465937E-1
1.845051808E1,3.881320477E0,-8.985144615E0,-6.106588840E-1
1.847070563E1,4.089526176E0,-8.892020226E0,-6.149409413E-1
1.849089532E1,4.281361103E0,-8.803455353E0,-5.826710463E-1
1.851108698E1,4.462937355E0,-8.717818260E0,-5.022009015E-1
1.853128042E1,4.613979340E0,-8.651059151E0,-2.018845975E-1
1.855147537E1,4.691857815E0,-8.610208511E0,1.454837173E-1
1.857167151E1,4.682808399E0,-8.611683846E0,2.839076817E-1
1.859186849E1,4.660952091E0,-8.624476433E0,2.536500394E-1
1.861206594E1,4.653029919E0,-8.627319336E0,2.984232605E-1
1.863226318E1,4.619252682E0,-8.634957314E0,5.199890137E-1
1.865245584E1,4.529946804E0,-8.663920403E0,7.658163905E-1
1.867264969E1,4.410728931E0,-8.705012321E0,9.688269496E-1
1.869283813E1,4.300227642E0,-8.741242409E0,1.126544833E0
1.871301594E1,4.207388878E0,-8.777600288E0,1.192475677E0
1.873319438E1,4.150000095E0,-8.810172081E0,1.152720332E0
1.875337381E1,4.141477585E0,-8.829240799E0,1.031044483E0
1.877355453E1,4.182055473E0,-8.826853752E0,8.760465980E-1
1.879373683E1,4.264539242E0,-8.798014641E0,7.609494925E-1
1.881392084E1,4.407451630E0,-8.734703064E0,6.706083417E-1
1.883410667E1,4.601030827E0,-8.648482323E0,4.523928165E-1
1.885429438E1,4.859051704E0,-8.518196106E0,1.813127287E-2
1.887448391E1,5.137319565E0,-8.339267731E0,-4.847167730E-1
1.889467516E1,5.363581657E0,-8.156107903E0,-9.382358789E-1
1.891486797E1,5.476485252E0,-8.025138855E0,-1.332534552E0
1.893506209E1,5.390767097E0,-7.994095802E0,-1.790099144E0
1.895525719E1,5.133066654E0,-8.027783394E0,-2.318775415E0
1.897545297E1,4.902826786E0,-8.032255173E0,-2.759631634E0
1.899564912E1,4.838260651E0,-7.951668262E0,-3.087487936E0
1.901584479E1,4.864189148E0,-7.819523811E0,-3.371216536E0
1.903603662E1,4.892756462E0,-7.668803692E0,-3.663437366E0
1.905622511E1,4.887915611E0,-7.510038853E0,-3.984719753E0
1.907641084E1,4.834379673E0,-7.379367352E0,-4.282999992E0
1.909659406E1,4.755918980E0,-7.290921211E0,-4.515982151E0
1.911677776E1,4.709975243E0,-7.225627899E0,-4.666563988E0
1.913696209E1,4.692307472E0,-7.189317226E0,-4.739868164E0
1.915714719E1,4.664606571E0,-7.201229572E0,-4.749117851E0
1.917733318E1,4.617924690E0,-7.276181698E0,-4.679992676E0
1.919752011E1,4.574875832E0,-7.411728382E0,-4.506348610E0
1.921770797E1,4.552634239E0,-7.597312927E0,-4.210076332E0
1.923789677E1,4.568970203E0,-7.815211773E0,-3.770592451E0
1.925808646E1,4.600609303E0,-8.012969971E0,-3.285892963E0
1.927827698E1,4.586626530E0,-8.123467445E0,-3.023657799E0
1.929846823E1,4.637663364E0,-8.070665359E0,-3.086556673E0
1.931866006E1,4.750186443E0,-7.956255436E0,-3.210003138E0
1.933885229E1,4.860684395E0,-7.865733624E0,-3.267165184E0
1.935904479E1,4.916546822E0,-7.858134270E0,-3.201200485E0
1.937924282E1,4.861243725E0,-7.987121582E0,-2.957124949E0
1.939943386E1,4.752798557E0,-8.176388741E0,-2.593834639E0
1.941961266E1,4.635910988E0,-8.344299316E0,-2.247528553E0
1.943979198E1,4.519736767E0,-8.465135574E0,-2.020855188E0
1.945997219E1,4.392697811E0,-8.551785469E0,-1.934309840E0
1.948015354E1,4.284142971E0,-8.601698875E0,-1.956341624E0
1.950033630E1,4.220160484E0,-8.621939659E0,-2.005691051E0
1.952052068E1,4.180647373E0,-8.645401955E0,-1.987360716E0
1.954070672E1,4.187820911E0,-8.678257942E0,-1.822191238E0
1.956089443E1,4.252756596E0,-8.706686974E0,-1.509321690E0
1.958108381E1,4.321964264E0,-8.741851807E0,-1.034911633E0
1.960127474E1,4.362515926E0,-8.767793655E0,-5.144219995E-1
1.962146709E1,4.389662266E0,-8.764212608E0,-2.997264266E-1
1.964166063E1,4.371182919E0,-8.770915985E0,-3.662829101E-1
1.966185511E1,4.308311462E0,-8.801696777E0,-3.728014827E-1
1.968205026E1,4.257336140E0,-8.831202507E0,-2.352545559E-1
1.970224578E1,4.226367474E0,-8.848968506E0,-6.291689724E-2
1.972244115E1,4.183635712E0,-8.869150162E0,7.575988024E-2
1.974263292E1,4.089206219E0,-8.909899712E0,2.499534339E-1
1.976281865E1,3.951055288E0,-8.959103584E0,5.422343016E-1
1.978300188E1,3.805236101E0,-8.991917610E0,9.143188000E-1
1.980320422E1,3.708618641E0,-8.993441582E0,1.238762736E0
1.982338683E1,3.685910463E0,-8.983487129E0,1.371643543E0
1.984356964E1,3.709653616E0,-8.984573364E0,1.298575044E0
1.986375287E1,3.772676945E0,-8.978880882E0,1.147605896E0
1.988393672E1,3.892567158E0,-8.943044662E0,1.019935250E0
1.990412130E1,4.080936909E0,-8.870203018E0,9.142431617E-1
1.992430672E1,4.321944714E0,-8.772585869E0,7.300105095E-1
1.994449308E1,4.602659702E0,-8.650234222E0,3.991965353E-1
1.996468047E1,4.883022785E0,-8.504297256E0,-5.830189586E-2
1.998486891E1,5.091005325E0,-8.362915993E0,-5.600590110E-1
2.000505828E1,5.167250156E0,-8.267378807E0,-1.058470607E0
2.002524860E1,5.035709858E0,-8.245718956E0,-1.679322720E0
2.004543974E1,4.749219894E0,-8.262608528E0,-2.311840773E0
2.006563151E1,4.527997494E0,-8.247824669E0,-2.764239073E0
2.008582380E1,4.502126694E0,-8.150268555E0,-3.078044653E0
2.010601641E1,4.580591679E0,-7.996243477E0,-3.353900671E0
2.012620912E1,4.674407959E0,-7.789829731E0,-3.693081379E0
2.014641266E1,4.706254959E0,-7.556383610E0,-4.113711357E0
2.016659089E1,4.623847485E0,-7.379797459E0,-4.508769989E0
2.018676943E1,4.481901646E0,-7.298439503E0,-4.776579857E0
2.020694870E1,4.382908344E0,-7.260442257E0,-4.924070835E0
2.022712901E1,4.335014820E0,-7.247046471E0,-4.985815525E0
2.024731068E1,4.312439442E0,-7.273366451E0,-4.967031479E0
2.026749391E1,4.293084621E0,-7.344677925E0,-4.878065109E0
2.028767891E1,4.285762310E0,-7.453933716E0,-4.716090202E0
2.030786568E1,4.291164398E0,-7.612056732E0,-4.451166630E0
2.032805422E1,4.291681767E0,-7.817429066E0,-4.079173088E0
2.034824453E1,4.266173840E0,-8.028034210E0,-3.677066326E0
2.036843641E1,4.213767052E0,-8.171009064E0,-3.413087845E0
2.038862964E1,4.224958897E0,-8.147598267E0,-3.454957724E0
2.040882401E1,4.293695450E0,-8.046722412E0,-3.603445768E0
2.042901922E1,4.356094837E0,-8.000210762E0,-3.632003069E0
2.044921495E1,4.402313232E0,-8.032966614E0,-3.501638412E0
2.046941089E1,4.319950581E0,-8.222351074E0,-3.146641016E0
2.048960641E1,4.135678291E0,-8.448887825E0,-2.771794081E0
2.050979495E1,3.919035196E0,-8.581408501E0,-2.677868366E0
2.052998339E1,3.820604324E0,-8.629385948E0,-2.665909767E0
2.055016641E1,3.833042383E0,-8.635391235E0,-2.628346443E0
2.057034985E1,3.883852005E0,-8.628837585E0,-2.574733496E0
2.059053380E1,3.932223797E0,-8.650038719E0,-2.425866842E0
2.061071849E1,4.025409698E0,-8.698735237E0,-2.073272467E0
2.063090401E1,4.143589020E0,-8.754705429E0,-1.534986019E0
2.065109047E1,4.199831009E0,-8.810009956E0,-9.568333030E-1
2.067127787E1,4.171402931E0,-8.846640587E0,-7.118596435E-1
2.069146620E1,4.115586758E0,-8.862128258E0,-8.336724043E-1
2.071165547E1,4.075010777E0,-8.871133804E0,-9.314942956E-1
2.073184568E1,4.049303532E0,-8.891854286E0,-8.416962624E-1
2.075203662E1,4.018152714E0,-8.919594765E0,-6.823885441E-1
2.077222818E1,4.000102997E0,-8.937116623E0,-5.454552770E-1
2.079242026E1,3.981009483E0,-8.951432228E0,-4.402451217E-1
2.081262693E1,3.938917160E0,-8.973937035E0,-3.518148363E-1
2.083280594E1,3.876350164E0,-9.006501198E0,-1.650308520E-1
2.085298547E1,3.798278332E0,-9.039220810E0,1.895797998E-1
2.087316589E1,3.700807333E0,-9.060035706E0,6.246412992E-1
2.089334745E1,3.596810102E0,-9.062915802E0,1.047330141E0
2.091353037E1,3.514601707E0,-9.050900459E0,1.378103137E0
2.093371479E1,3.459252596E0,-9.044046402E0,1.552149534E0
2.095390084E1,3.376382351E0,-9.077833176E0,1.537331581E0
2.097408854E1,3.281220913E0,-9.143672943E0,1.340608835E0
2.099427787E1,3.227422476E0,-9.200214386E0,1.053653836E0
2.101446870E1,3.237535954E0,-9.219141960E0,8.343735933E-1
2.103466089E1,3.321959019E0,-9.193311691E0,7.861320376E-1
2.105485422E1,3.476908207E0,-9.131798744E0,8.317013383E-1
2.107504849E1,3.672911406E0,-9.056932449E0,8.075128198E-1
2.109524344E1,3.871563196E0,-8.989059448E0,6.149707437E-1
2.111543875E1,4.102072239E0,-8.902029991E0,3.118562400E-1
2.113563959E1,4.381461620E0,-8.773415565E0,-1.911817864E-2
2.115583162E1,4.679464340E0,-8.606249809E0,-4.532571137E-1
2.117600964E1,4.867400646E0,-8.458913803E0,-9.620663524E-1
2.119618823E1,4.948146820E0,-8.338666916E0,-1.467265368E0
2.121636776E1,4.913689613E0,-8.256735802E0,-1.962742448E0
2.123654860E1,4.745829105E0,-8.215030670E0,-2.482086658E0
2.125673099E1,4.465786934E0,-8.196698189E0,-3.006872416E0
2.127691511E1,4.136000156E0,-8.183528900E0,-3.477605581E0
2.129710104E1,3.951627970E0,-8.080308914E0,-3.906869888E0
2.131728886E1,4.015542984E0,-7.868071556E0,-4.259019852E0
2.133747849E1,4.209265232E0,-7.637022495E0,-4.486464977E0
2.135766979E1,4.358588219E0,-7.465638161E0,-4.630047798E0
2.137786256E1,4.422491550E0,-7.379694939E0,-4.706595898E0
2.139805656E1,4.507401466E0,-7.406053543E0,-4.583022594E0
2.141825157E1,4.622699261E0,-7.544698238E0,-4.228304863E0
2.143844724E1,4.710988998E0,-7.712252140E0,-3.807641745E0
2.145864328E1,4.726003647E0,-7.758889675E0,-3.692547321E0
2.147883881E1,4.534847260E0,-7.579289436E0,-4.261445045E0
2.149903047E1,4.451687813E0,-7.446888924E0,-4.571291447E0
2.151921620E1,4.483229637E0,-7.295295715E0,-4.780135632E0
2.153939943E1,4.498174667E0,-7.380402565E0,-4.633192539E0
2.155958313E1,4.532595158E0,-7.650218010E0,-4.135231018E0
2.157976745E1,4.475351334E0,-7.908064842E0,-3.688378572E0
2.159995256E1,4.198950291E0,-8.134057999E0,-3.517996311E0
2.162013854E1,3.828767776E0,-8.307636261E0,-3.534699202E0
2.164032547E1,3.651151657E0,-8.417308807E0,-3.462425947E0
2.166051334E1,3.681858063E0,-8.495425224E0,-3.231415510E0
2.168070214E1,3.846397877E0,-8.578024864E0,-2.791613102E0
2.170089188E1,3.995446444E0,-8.712970734E0,-2.071457386E0
2.172108250E1,3.931617260E0,-8.861328125E0,-1.479740620E0
2.174127386E1,3.845906258E0,-8.964452744E0,-1.008957386E0
2.176146578E1,3.824046135E0,-9.007962227E0,-6.353622079E-1
2.178165813E1,3.789290667E0,-9.031173706E0,-4.995816648E-1
2.180187396E1,3.747827291E0,-9.046154976E0,-5.396888256E-1
2.182204615E1,3.709692001E0,-9.064840317E0,-4.870833158E-1
2.184223537E1,3.630939484E0,-9.109256744E0,-9.008624405E-2
2.186245292E1,3.522177458E0,-9.147054672E0,3.099215925E-1
2.188261167E1,3.434558392E0,-9.174957275E0,4.408399165E-1
2.190277157E1,3.397353172E0,-9.187837601E0,4.604483843E-1
2.192293365E1,3.404818058E0,-9.180296898E0,5.475016236E-1
2.194309896E1,3.440464020E0,-9.163259506E0,6.068726182E-1
2.196326823E1,3.444155693E0,-9.160307884E0,6.300295591E-1
2.198344209E1,3.430252552E0,-9.162920952E0,6.668048501E-1
2.200362094E1,3.471430063E0,-9.140779495E0,7.521362901E-1
2.202380500E1,3.598759174E0,-9.079686165E0,8.823896050E-1
2.204399427E1,3.757051945E0,-9.010250092E0,9.329264164E-1
2.206418844E1,3.997512102E0,-8.916534424E0,8.280595541E-1
2.208438709E1,4.331171036E0,-8.780348778E0,5.628592968E-1
2.210458969E1,4.693075180E0,-8.608925819E0,1.784540415E-1
2.212479552E1,4.983885765E0,-8.441626549E0,-2.649691999E-1
2.214500375E1,5.139548779E0,-8.323974609E0,-6.832838058E-1
2.216521344E1,5.095176697E0,-8.299258232E0,-1.154066920E0
2.218542375E1,4.829799652E0,-8.362237930E0,-1.707744598E0
2.220562740E1,4.648770809E0,-8.342896461E0,-2.226071358E0
2.222581594E1,4.550272465E0,-8.296555519E0,-2.575380564E0
2.224600438E1,4.462698936E0,-8.274848938E0,-2.789549589E0
2.226620365E1,4.466847897E0,-8.194267273E0,-3.011915207E0
2.228638136E1,4.540228367E0,-7.998746395E0,-3.402465582E0
2.230655948E1,4.672556877E0,-7.723373413E0,-3.832376242E0
2.232673834E1,4.875212669E0,-7.437215328E0,-4.134067535E0
2.234691834E1,5.087730885E0,-7.177907467E0,-4.331632614E0
2.236709979E1,5.169748783E0,-7.017477989E0,-4.494339943E0
2.238728292E1,5.119827747E0,-6.990796566E0,-4.592005730E0
2.240746782E1,5.033179283E0,-7.072893143E0,-4.561982632E0
2.242765459E1,4.942499638E0,-7.234083176E0,-4.405691147E0
2.244784323E1,4.836789131E0,-7.447353840E0,-4.160863400E0
2.246803365E1,4.719290733E0,-7.693643093E0,-3.834910393E0
2.248822573E1,4.605458260E0,-7.963100910E0,-3.398404121E0
2.250841927E1,4.492638111E0,-8.197526932E0,-2.964312315E0
2.252861396E1,4.439636707E0,-8.286893845E0,-2.790593624E0
2.254880948E1,4.542889595E0,-8.186718941E0,-2.917218447E0
2.256900552E1,4.709186077E0,-8.046007156E0,-3.042322397E0
2.258920177E1,4.926771641E0,-7.957014084E0,-2.929715872E0
2.260939729E1,5.029317379E0,-8.019760132E0,-2.561214447E0
2.262958584E1,4.860476017E0,-8.264879227E0,-2.058625460E0
2.264976896E1,4.527278900E0,-8.509496689E0,-1.806265593E0
2.266995250E1,4.192584038E0,-8.659569740E0,-1.898546338E0
2.269013657E1,3.942041636E0,-8.762382507E0,-1.962489128E0
2.271032136E1,3.785840750E0,-8.826789856E0,-1.981307149E0
2.273050698E1,3.702154875E0,-8.861186981E0,-1.985898495E0
2.275069354E1,3.693213463E0,-8.861907005E0,-1.999291778E0
2.277088104E1,3.766236305E0,-8.847015381E0,-1.927739382E0
2.279106948E1,3.629232168E0,-8.979234695E0,-1.540257573E0
2.281125886E1,3.512660027E0,-9.115222931E0,-8.627331257E-1
2.283144906E1,3.538813353E0,-9.144247055E0,-1.730667055E-1
2.285164000E1,3.625917435E0,-9.106832504E0,2.978495657E-1
2.287183156E1,3.645425797E0,-9.103344917E0,-1.017360091E-1
2.289202365E1,3.590146780E0,-9.089789391E0,-8.105300069E-1
2.291221604E1,3.518968821E0,-9.093727112E0,-1.044687510E0
2.293240854E1,3.531035900E0,-9.129024506E0,-6.025677323E-1
2.295261188E1,3.607640028E0,-9.118943214E0,-1.356471609E-2
2.297279052E1,3.681562901E0,-9.074488640E0,5.197489858E-1
2.299296948E1,3.721980333E0,-9.032930374E0,8.505334258E-1
2.301314917E1,3.722423792E0,-9.027064323E0,9.088848233E-1
2.303332990E1,3.653555870E0,-9.056050301E0,8.999299407E-1
2.305351198E1,3.522347689E0,-9.097599030E0,9.985789061E-1
2.307369552E1,3.443117619E0,-9.108863831E0,1.159279108E0
2.309388073E1,3.465843201E0,-9.087983131E0,1.251751423E0
2.311406761E1,3.576824665E0,-9.047119141E0,1.235450506E0
2.313425615E1,3.727387428E0,-8.996284485E0,1.159240842E0
2.315444636E1,3.917017460E0,-8.927656174E0,1.060329795E0
2.317463813E1,4.145112991E0,-8.842775345E0,8.909275532E-1
2.319483125E1,4.423473358E0,-8.734284401E0,5.617329478E-1
2.321502542E1,4.736732960E0,-8.586237907E0,1.013886258E-1
2.323522042E1,5.015132427E0,-8.417634964E0,-4.028218389E-1
2.325541594E1,5.188215256E0,-8.275064468E0,-8.809781075E-1
2.327561167E1,5.147516251E0,-8.224328041E0,-1.426143169E0
2.329580677E1,4.866571903E0,-8.269703865E0,-2.024561644E0
2.331599532E1,4.581054688E0,-8.302256584E0,-2.501367807E0
2.333619896E1,4.462372303E0,-8.247363091E0,-2.870300770E0
2.335635787E1,4.505043507E0,-8.114121437E0,-3.167964697E0
2.337651849E1,4.668228149E0,-7.918352604E0,-3.417268276E0
2.339668188E1,4.898639679E0,-7.648108959E0,-3.698667765E0
2.341684891E1,5.050052643E0,-7.367291927E0,-4.048501015E0
2.343702032E1,5.025220394E0,-7.171952248E0,-4.413689137E0
2.345719662E1,4.974235058E0,-7.039556980E0,-4.676753044E0
2.347737813E1,4.961383343E0,-6.952469349E0,-4.818530083E0
2.349756490E1,4.944164276E0,-6.939503670E0,-4.854782104E0
2.351775677E1,4.903446674E0,-7.010187149E0,-4.794150352E0
2.353795344E1,4.828519344E0,-7.156022549E0,-4.652646065E0
2.355815438E1,4.729859829E0,-7.356667519E0,-4.436018944E0
2.357835891E1,4.638053417E0,-7.599784851E0,-4.111219406E0
2.359856625E1,4.557593822E0,-7.865093708E0,-3.679543734E0
2.361877552E1,4.477624416E0,-8.079621315E0,-3.292564154E0
2.363898584E1,4.464402676E0,-8.136948586E0,-3.166947365E0
2.365919297E1,4.578328133E0,-8.038484573E0,-3.254546165E0
2.367938907E1,4.713335037E0,-7.932128429E0,-3.322078228E0
2.369957490E1,4.801275730E0,-7.885949612E0,-3.306044579E0
2.371975823E1,4.804477215E0,-7.962425232E0,-3.112421513E0
2.373994203E1,4.688817978E0,-8.157815933E0,-2.763226509E0
2.376012646E1,4.507170677E0,-8.382993698E0,-2.362457991E0
2.378031167E1,4.254378319E0,-8.554279327E0,-2.212455988E0
2.380049776E1,3.963047981E0,-8.648016930E0,-2.382526398E0
2.382068479E1,3.776159286E0,-8.722355843E0,-2.414851665E0
2.384087276E1,3.732524633E0,-8.773649216E0,-2.293844223E0
2.386106167E1,3.757416725E0,-8.802882195E0,-2.135762930E0
2.388125146E1,3.788218498E0,-8.822938919E0,-1.993872523E0
2.390144203E1,3.832083941E0,-8.841949463E0,-1.818089485E0
2.392163328E1,3.960989952E0,-8.844829559E0,-1.499975204E0
2.394182511E1,4.142808437E0,-8.825934410E0,-1.053762674E0
2.396201735E1,4.303021431E0,-8.788965225E0,-6.391322613E-1
2.398220985E1,4.365643024E0,-8.769333839E0,-4.586101174E-1
2.400240787E1,4.359408379E0,-8.773191452E0,-4.439120293E-1
2.402259922E1,4.323827744E0,-8.794466019E0,-3.636982441E-1
2.404277865E1,4.295023441E0,-8.813416481E0,-2.164646238E-1
2.406295854E1,4.308054447E0,-8.809350967E0,-7.999335974E-2
2.408313922E1,4.334699154E0,-8.796311378E0,7.533254474E-2
2.410332099E1,4.299796581E0,-8.809712410E0,2.666521966E-1
2.412350412E1,4.183079243E0,-8.858223915E0,4.517862797E-1
2.414368875E1,4.040913105E0,-8.912475586E0,6.396760941E-1
2.416387500E1,3.909133434E0,-8.954091072E0,8.445806503E-1
2.418406292E1,3.841500759E0,-8.966904640E0,1.003929734E0
2.420425245E1,3.839608908E0,-8.964338303E0,1.033651829E0
2.422444349E1,3.874722719E0,-8.960341454E0,9.323017001E-1
2.424463589E1,3.954745293E0,-8.938516617E0,7.958089709E-1
2.426482943E1,4.136537552E0,-8.864653587E0,6.909164786E-1
2.428502386E1,4.407498837E0,-8.742841721E0,5.541236401E-1
2.430521891E1,4.652633667E0,-8.627106667E0,3.105056584E-1
2.432528969E1,4.881239414E0,-8.505519867E0,-5.366126541E-3
2.434524584E1,5.104795933E0,-8.363812447E0,-3.975870013E-1
2.436522584E1,5.236128807E0,-8.242169380E0,-9.055361152E-1
2.438523709E1,5.206067085E0,-8.182373047E0,-1.454654813E0
2.440528542E1,5.052896976E0,-8.182861328E0,-1.918172717E0
2.442537500E1,4.913459778E0,-8.163208008E0,-2.321711779E0
2.444550818E1,4.901912212E0,-8.053900719E0,-2.697466612E0
2.446568542E1,4.958094120E0,-7.886645317E0,-3.064069033E0
2.448590542E1,5.016268730E0,-7.698797226E0,-3.425776958E0
2.450616521E1,5.037909031E0,-7.518185139E0,-3.777136564E0
2.452646037E1,5.010715961E0,-7.376150608E0,-4.081116199E0
2.454678521E1,4.973053455E0,-7.258703232E0,-4.330166340E0
2.456713308E1,4.939657211E0,-7.153368950E0,-4.538666725E0
2.458749667E1,4.897332191E0,-7.095809460E0,-4.672901630E0
2.460786839E1,4.838300228E0,-7.109041214E0,-4.714102745E0
2.462820099E1,4.783011436E0,-7.188948154E0,-4.648893356E0
2.464844094E1,4.733726978E0,-7.316735744E0,-4.497509003E0
2.466862677E1,4.682008266E0,-7.481684208E0,-4.274761200E0
2.468881011E1,4.614805698E0,-7.680116177E0,-3.986197472E0
2.470899396E1,4.540366173E0,-7.879847527E0,-3.669260263E0
2.472917849E1,4.482292175E0,-8.030015945E0,-3.405629635E0
2.474936380E1,4.421386242E0,-8.082949638E0,-3.359709740E0
2.476955000E1,4.454473019E0,-8.046388626E0,-3.403483629E0
2.478973714E1,4.500411510E0,-8.006082535E0,-3.437924862E0
2.480992521E1,4.533000469E0,-7.996804714E0,-3.416636705E0
2.483011422E1,4.536805153E0,-8.065712929E0,-3.245312691E0
2.485030412E1,4.430773735E0,-8.231174469E0,-2.964186192E0
2.487049479E1,4.293068886E0,-8.409203529E0,-2.650517464E0
2.489068615E1,4.146536350E0,-8.556611061E0,-2.400217772E0
2.491087808E1,3.982352018E0,-8.654126167E0,-2.327522755E0
2.493109865E1,3.859218597E0,-8.721362114E0,-2.283562660E0
2.495127021E1,3.821739674E0,-8.770873070E0,-2.153250456E0
2.497144240E1,3.830392361E0,-8.805953979E0,-1.988378882E0
2.499161584E1,3.855046511E0,-8.834669113E0,-1.804888010E0
2.501179115E1,3.921912432E0,-8.848446846E0,-1.579229116E0
2.503196875E1,4.036633968E0,-8.841530800E0,-1.305103660E0
2.505214896E1,4.158123016E0,-8.823138237E0,-1.016175151E0
2.507233209E1,4.232702732E0,-8.813859940E0,-7.553047538E-1
2.509251823E1,4.254873276E0,-8.813450813E0,-6.241242886E-1
2.511270729E1,4.247438431E0,-8.821453094E0,-5.582256913E-1
2.513289917E1,4.250874996E0,-8.824784279E0,-4.728838503E-1
2.515309365E1,4.266642570E0,-8.823330879E0,-3.391058445E-1
2.517329032E1,4.259251595E0,-8.831775665E0,-1.700035930E-1
2.519348886E1,4.205736160E0,-8.859014511E0,-6.251859013E-3
2.521368875E1,4.109858036E0,-8.902271271E0,1.703004688E-1
2.523388948E1,3.986672878E0,-8.951371193E0,3.870177865E-1
2.525409052E1,3.861876726E0,-8.990687370E0,6.510163546E-1
2.527428844E1,3.764569283E0,-9.004553795E0,9.572908878E-1
2.529447709E1,3.705155134E0,-9.000020027E0,1.200778604E0
2.531467657E1,3.672672987E0,-9.006069183E0,1.254025817E0
2.533485448E1,3.678327322E0,-9.016450882E0,1.159267187E0
2.535503282E1,3.765046835E0,-8.993493080E0,1.054459691E0
2.537521188E1,3.961700439E0,-8.913310051E0,1.014016032E0
2.539539209E1,4.190000057E0,-8.815520287E0,9.491483569E-1
2.541557375E1,4.446516514E0,-8.706306458E0,7.740257382E-1
2.543575709E1,4.732550621E0,-8.575568199E0,4.826737642E-1
2.545594219E1,4.966353893E0,-8.455540657E0,9.774100780E-2
2.547612917E1,5.098937511E0,-8.370494843E0,-3.256410062E-1
2.549631802E1,5.081242561E0,-8.348372459E0,-8.099653721E-1
2.551650865E1,4.877527714E0,-8.400212288E0,-1.347796082E0
2.553670094E1,4.592233181E0,-8.479260445E0,-1.784352422E0
2.555689469E1,4.414342880E0,-8.486984253E0,-2.157558918E0
2.557708959E1,4.391340256E0,-8.379872322E0,-2.581519842E0
2.559728532E1,4.405448437E0,-8.216455460E0,-3.041756630E0
2.561748157E1,4.409714222E0,-8.045522690E0,-3.463287830E0
2.563767802E1,4.411756516E0,-7.887056351E0,-3.808036089E0
2.565788183E1,4.422479630E0,-7.743185043E0,-4.081071377E0
2.567805308E1,4.466854572E0,-7.596419811E0,-4.302559376E0
2.569822532E1,4.542758465E0,-7.452498436E0,-4.471465588E0
2.571839917E1,4.579306126E0,-7.362724781E0,-4.581552982E0
2.573857516E1,4.550455093E0,-7.365524769E0,-4.605734825E0
2.575875370E1,4.479366302E0,-7.455391884E0,-4.530210495E0
2.577893511E1,4.385992527E0,-7.609377861E0,-4.362432480E0
2.579911959E1,4.297489166E0,-7.807480812E0,-4.092092514E0
2.581930719E1,4.240355492E0,-8.017836571E0,-3.728816032E0
2.583949782E1,4.259533882E0,-8.193444252E0,-3.300642729E0
2.585969125E1,4.347223282E0,-8.256868362E0,-3.015983820E0
2.587988719E1,4.454915524E0,-8.187250137E0,-3.048452139E0
2.590008521E1,4.579091549E0,-8.098062515E0,-3.102208138E0
2.592028490E1,4.734355450E0,-8.065850258E0,-2.949290752E0
2.594048573E1,4.759819984E0,-8.180447578E0,-2.568029165E0
2.596068714E1,4.594756603E0,-8.388586044E0,-2.165691853E0
2.598088703E1,4.336424351E0,-8.549291611E0,-2.067713261E0
2.600108052E1,4.063154697E0,-8.649804115E0,-2.200465441E0
2.602126922E1,3.864623785E0,-8.707397461E0,-2.327293396E0
2.604145516E1,3.780468225E0,-8.731620789E0,-2.374288797E0
2.606163860E1,3.809596539E0,-8.734704018E0,-2.315665007E0
2.608182250E1,3.931902885E0,-8.720465660E0,-2.159633160E0
2.610200703E1,4.075231552E0,-8.710361481E0,-1.921582818E0
2.612219235E1,4.207870960E0,-8.703557014E0,-1.646905899E0
2.614237854E1,4.332712173E0,-8.682779312E0,-1.416804194E0
2.616256568E1,4.394213676E0,-8.677250862E0,-1.251632571E0
2.618275375E1,4.392094135E0,-8.699120522E0,-1.097813487E0
2.620294276E1,4.363899231E0,-8.733154297E0,-9.267048240E-1
2.622313271E1,4.324184418E0,-8.769515038E0,-7.532724142E-1
2.624332349E1,4.289494991E0,-8.798283577E0,-6.006996632E-1
2.626351495E1,4.254428387E0,-8.826007843E0,-4.144860208E-1
2.628371964E1,4.191829205E0,-8.863945961E0,-1.715194136E-1
2.630391089E1,4.089537621E0,-8.912859917E0,8.370008320E-2
2.632409953E1,3.961750031E0,-8.964449883E0,3.369918466E-1
2.634429901E1,3.825478792E0,-9.008603096E0,6.173967123E-1
2.636447693E1,3.704856396E0,-9.036276817E0,8.888807893E-1
2.638465526E1,3.626707077E0,-9.050698280E0,1.049879074E0
2.640483433E1,3.610266685E0,-9.055153847E0,1.067960382E0
2.642501453E1,3.651496649E0,-9.047250748E0,9.920743108E-1
2.644519620E1,3.754291534E0,-9.017124176E0,8.758719563E-1
2.646537953E1,3.948735714E0,-8.945662498E0,7.436497211E-1
2.648556464E1,4.212768555E0,-8.835771561E0,5.933976173E-1
2.650575162E1,4.473464966E0,-8.718626976E0,3.795328736E-1
2.652594047E1,4.759863853E0,-8.573559761E0,9.029290825E-2
2.654613110E1,5.066517353E0,-8.392459869E0,-2.596499622E-1
2.656632339E1,5.314967155E0,-8.216035843E0,-6.467363834E-1
2.658651714E1,5.419016838E0,-8.102804184E0,-1.072001696E0
2.660671203E1,5.308611870E0,-8.086189270E0,-1.613245845E0
2.662690776E1,5.070694923E0,-8.120390892E0,-2.125486612E0
2.664710401E1,4.879918575E0,-8.134710312E0,-2.486617804E0
2.666730047E1,4.818546772E0,-8.079104424E0,-2.771293640E0
2.668749620E1,4.877515316E0,-7.948880672E0,-3.032412291E0
2.670768495E1,5.057558060E0,-7.717211246E0,-3.322069168E0
2.672787360E1,5.231901646E0,-7.438481331E0,-3.669684649E0
2.674805683E1,5.260814667E0,-7.219679832E0,-4.046041489E0
2.676824047E1,5.218293190E0,-7.074120522E0,-4.347025394E0
2.678842474E1,5.159654140E0,-7.002970219E0,-4.528439999E0
2.680860974E1,5.090529442E0,-7.000503540E0,-4.609755516E0
2.682879558E1,5.000754356E0,-7.055314064E0,-4.624435425E0
2.684898235E1,4.894486904E0,-7.157265186E0,-4.581259727E0
2.686917006E1,4.772974491E0,-7.300989628E0,-4.481590271E0
2.688935870E1,4.678002834E0,-7.480140686E0,-4.281842232E0
2.690957016E1,4.654918671E0,-7.700020313E0,-3.900232077E0
2.692976073E1,4.652083874E0,-7.922811985E0,-3.428930283E0
2.694995490E1,4.640596390E0,-8.073309898E0,-3.075210333E0
2.697014360E1,4.718006611E0,-8.078342438E0,-2.941289425E0
2.699032162E1,4.902812481E0,-7.961667061E0,-2.957141161E0
2.701050026E1,5.062729836E0,-7.857752323E0,-2.965617895E0
2.703067990E1,5.156330109E0,-7.837353706E0,-2.856316328E0
2.705086084E1,5.169529438E0,-7.923232555E0,-2.582392931E0
2.707104334E1,5.082183361E0,-8.075748444E0,-2.263646126E0
2.709122756E1,4.968198299E0,-8.235082626E0,-1.915937662E0
2.711141360E1,4.797576904E0,-8.400841713E0,-1.606081247E0
2.713160151E1,4.503449917E0,-8.552413940E0,-1.656964421E0
2.715179125E1,4.155480385E0,-8.686090469E0,-1.858550191E0
2.717198271E1,3.915800571E0,-8.789023399E0,-1.894723415E0
2.719217573E1,3.893363714E0,-8.822431564E0,-1.782356262E0
2.721237006E1,3.994152784E0,-8.805959702E0,-1.634688735E0
2.723256542E1,4.134845734E0,-8.764883995E0,-1.500084639E0
2.725276151E1,4.251741409E0,-8.724163055E0,-1.407859206E0
2.727295797E1,4.226510525E0,-8.745698929E0,-1.348981023E0
2.729315417E1,4.179380894E0,-8.780938148E0,-1.264233947E0
2.731334646E1,4.293433666E0,-8.745999336E0,-1.115484118E0
2.733353516E1,4.460391045E0,-8.697055817E0,-7.978302836E-1
2.735372110E1,4.539795399E0,-8.685910225E0,-3.399992287E-1
2.737390453E1,4.527122498E0,-8.699026108E0,-4.994966835E-2
2.739408849E1,4.500737190E0,-8.712841034E0,-1.212969143E-2
2.741427313E1,4.490366936E0,-8.718172073E0,-2.176131308E-2
2.743445854E1,4.462172031E0,-8.732482910E0,5.614544824E-2
2.745464485E1,4.413129807E0,-8.755570412E0,1.861946434E-1
2.747483209E1,4.327008247E0,-8.793991089E0,3.363023698E-1
2.749502026E1,4.205173492E0,-8.840571404E0,5.755004287E-1
2.751520938E1,4.092634201E0,-8.869734764E0,8.651800156E-1
2.753539938E1,4.019276142E0,-8.883620262E0,1.047414303E0
2.755559016E1,3.984761953E0,-8.896612167E0,1.068804502E0
2.757578162E1,3.984376669E0,-8.903278351E0,1.013300896E0
2.759597365E1,4.024834633E0,-8.890852928E0,9.611581564E-1
2.761616610E1,4.124378204E0,-8.851682663E0,8.986654282E-1
2.763635880E1,4.286335945E0,-8.789471626E0,7.368310690E-1
2.765655703E1,4.519296646E0,-8.694047928E0,3.998533189E-1
2.767674839E1,4.815310955E0,-8.542962074E0,3.117067553E-2
2.769692761E1,5.127259254E0,-8.354730606E0,-2.829982936E-1
2.771710735E1,5.349587917E0,-8.196076393E0,-6.136924624E-1
2.773728797E1,5.418953419E0,-8.118177414E0,-9.489622712E-1
2.775746974E1,5.318797112E0,-8.129107475E0,-1.341044784E0
2.777765287E1,5.084413528E0,-8.175697327E0,-1.864698768E0
2.779783756E1,4.852025986E0,-8.176710129E0,-2.402009487E0
2.781802391E1,4.743420601E0,-8.105525017E0,-2.823261023E0
2.783821193E1,4.748262405E0,-7.993455887E0,-3.119141817E0
2.785840156E1,4.823922157E0,-7.852365017E0,-3.352687120E0
2.787859271E1,4.909418106E0,-7.677702904E0,-3.622276783E0
2.789880896E1,4.939419270E0,-7.515830040E0,-3.909580231E0
2.791900844E1,4.907350540E0,-7.409039974E0,-4.146615505E0
2.793919719E1,4.875339508E0,-7.351003170E0,-4.285347462E0
2.795938052E1,4.859836102E0,-7.329300880E0,-4.339785099E0
2.797956427E1,4.843015194E0,-7.342036247E0,-4.337060452E0
2.799974854E1,4.811390400E0,-7.398695946E0,-4.275535107E0
2.801993354E1,4.766921997E0,-7.508408546E0,-4.131663322E0
2.804011938E1,4.728674412E0,-7.668735027E0,-3.873051167E0
2.806030615E1,4.717295170E0,-7.867068768E0,-3.467958450E0
2.808049386E1,4.729132175E0,-8.048775673E0,-3.003817320E0
2.810068250E1,4.727262974E0,-8.159644127E0,-2.691391468E0
2.812087209E1,4.757435799E0,-8.137624741E0,-2.704858065E0
2.814106250E1,4.902559280E0,-8.012692451E0,-2.816389799E0
2.816125365E1,5.055023670E0,-7.884106636E0,-2.908260584E0
2.818144542E1,5.180207729E0,-7.820814133E0,-2.858443022E0
2.820163771E1,5.180875301E0,-7.902997017E0,-2.621365070E0
2.822183032E1,5.031502247E0,-8.106320381E0,-2.267583847E0
2.824202313E1,4.806988716E0,-8.319717407E0,-1.961007833E0
2.826222677E1,4.559012413E0,-8.435973167E0,-2.054297209E0
2.828240604E1,4.373274803E0,-8.480111122E0,-2.265519619E0
2.830258563E1,4.320708752E0,-8.501657486E0,-2.285538673E0
2.832276594E1,4.351229191E0,-8.528731346E0,-2.120832682E0
2.834294729E1,4.382407188E0,-8.565252304E0,-1.897725463E0
2.836312990E1,4.406500816E0,-8.605804443E0,-1.641123533E0
2.838331396E1,4.425268173E0,-8.645930290E0,-1.354727030E0
2.840349959E1,4.424795151E0,-8.681601524E0,-1.105154276E0
2.842368688E1,4.427867889E0,-8.696424484E0,-9.677742124E-1
2.844387584E1,4.436317444E0,-8.702309608E0,-8.713695407E-1
2.846406636E1,4.449282646E0,-8.710782051E0,-7.046585679E-1
2.848425834E1,4.470367432E0,-8.713858604E0,-5.048368573E-1
2.850445156E1,4.481472015E0,-8.715559959E0,-3.547027707E-1
2.852464584E1,4.492101192E0,-8.712904930E0,-2.769483030E-1
2.854484084E1,4.513923645E0,-8.703099251E0,-2.257184982E-1
2.856503625E1,4.521835327E0,-8.700716019E0,-1.447222531E-1
2.858523188E1,4.487932682E0,-8.719439507E0,-1.500255708E-2
2.860542636E1,4.415615559E0,-8.754921913E0,1.551659256E-1
2.862561511E1,4.323289394E0,-8.795031548E0,3.563315272E-1
2.864579844E1,4.230902195E0,-8.828198433E0,5.768542886E-1
2.866598219E1,4.162015915E0,-8.847418785E0,7.557708025E-1
2.868616646E1,4.121274948E0,-8.860576630E0,8.219795227E-1
2.870635146E1,4.108161926E0,-8.872506142E0,7.563195229E-1
2.872653729E1,4.138297081E0,-8.868660927E0,6.258969307E-1
2.874672407E1,4.225791931E0,-8.833299637E0,5.347083807E-1
2.876691177E1,4.341087818E0,-8.778753281E0,5.087649822E-1
2.878710042E1,4.494412899E0,-8.704012871E0,4.591381252E-1
2.880729000E1,4.735008717E0,-8.582767487E0,2.935654521E-1
2.882748042E1,5.010533810E0,-8.430002213E0,-7.132799365E-4
2.884767167E1,5.217615128E0,-8.293959618E0,-3.963925540E-1
2.886786354E1,5.284840107E0,-8.217069626E0,-8.488893509E-1
2.888805594E1,5.173837185E0,-8.220013618E0,-1.353950381E0
2.890826610E1,4.867456436E0,-8.289000511E0,-1.941836476E0
2.892843912E1,4.447819233E0,-8.373758316E0,-2.503490925E0
2.894861302E1,4.097062588E0,-8.406706810E0,-2.951566935E0
2.896878834E1,3.980073690E0,-8.359441757E0,-3.232514381E0
2.898896558E1,4.072739124E0,-8.239712715E0,-3.419110775E0
2.900914516E1,4.266808510E0,-8.058427811E0,-3.609221220E0
2.902932735E1,4.467758656E0,-7.857582569E0,-3.803672314E0
2.904951229E1,4.616255283E0,-7.672255039E0,-3.999635458E0
2.906970006E1,4.688701153E0,-7.523952484E0,-4.192447186E0
2.908989058E1,4.693836212E0,-7.428267002E0,-4.354208469E0
2.911008365E1,4.656202316E0,-7.398725033E0,-4.443987370E0
2.913027896E1,4.605842113E0,-7.461458206E0,-4.391270638E0
2.915047620E1,4.521657944E0,-7.609231472E0,-4.221916676E0
2.917067495E1,4.376640320E0,-7.810575485E0,-4.001287937E0
2.919087474E1,4.237482071E0,-8.034287453E0,-3.696532249E0
2.921107511E1,4.162188530E0,-8.242183685E0,-3.303479433E0
2.923127417E1,4.156450748E0,-8.407744408E0,-2.864289999E0
2.925148896E1,4.227469921E0,-8.501089096E0,-2.455679893E0
2.927165615E1,4.356023788E0,-8.510008812E0,-2.185221195E0
2.929182417E1,4.507714748E0,-8.431914330E0,-2.180301666E0
2.931199375E1,4.699822903E0,-8.315041542E0,-2.223090649E0
2.933216563E1,4.854990005E0,-8.249505997E0,-2.131928682E0
2.935236521E1,4.832795143E0,-8.299857140E0,-1.981631041E0
2.937257365E1,4.631989479E0,-8.406075478E0,-2.013196230E0
2.939278068E1,4.420114517E0,-8.487329483E0,-2.144345045E0
2.941297771E1,4.244029522E0,-8.563556671E0,-2.196387291E0
2.943317188E1,4.113575459E0,-8.633556366E0,-2.170386791E0
2.945336068E1,4.011734009E0,-8.697901726E0,-2.103063107E0
2.947353891E1,3.954104185E0,-8.749571800E0,-1.995106816E0
2.949371771E1,3.982838869E0,-8.773603439E0,-1.825172901E0
2.951389745E1,4.091238022E0,-8.769665718E0,-1.589060545E0
2.953407849E1,4.235600948E0,-8.739715576E0,-1.359202027E0
2.955426110E1,4.362564087E0,-8.704322815E0,-1.171828508E0
2.957444542E1,4.385694504E0,-8.725605965E0,-8.943574429E-1
2.959463156E1,4.337312222E0,-8.773248672E0,-6.230757236E-1
2.961481959E1,4.321175098E0,-8.788764000E0,-5.054448843E-1
2.963500943E1,4.358835220E0,-8.770653725E0,-4.965686798E-1
2.965520099E1,4.422550678E0,-8.738466263E0,-5.006268620E-1
2.967539412E1,4.491709709E0,-8.704954147E0,-4.676544070E-1
2.969558854E1,4.537130833E0,-8.686063766E0,-3.703094423E-1
2.971578396E1,4.535852909E0,-8.690932274E0,-2.532194853E-1
2.973598006E1,4.494210720E0,-8.715219498E0,-1.318930387E-1
2.975617651E1,4.432621956E0,-8.747572899E0,4.703647271E-2
2.977637256E1,4.365228176E0,-8.777341843E0,2.709950507E-1
2.979656469E1,4.294402599E0,-8.803762436E0,4.714453816E-1
2.981675073E1,4.230129719E0,-8.826473236E0,6.080857515E-1
2.983693427E1,4.174394131E0,-8.847478867E0,6.833263040E-1
2.985711834E1,4.129044533E0,-8.866738319E0,7.087518573E-1
2.987730308E1,4.106271267E0,-8.878118515E0,6.985194087E-1
2.989748860E1,4.119694710E0,-8.872943878E0,6.851122379E-1
2.991767500E1,4.169985294E0,-8.846780777E0,7.183780670E-1
2.993786235E1,4.241910458E0,-8.802245140E0,8.349078894E-1
2.995805063E1,4.340293407E0,-8.748769760E0,8.895367384E-1
2.997823985E1,4.461121559E0,-8.701894760E0,7.387833595E-1
2.999842995E1,4.612288475E0,-8.642936707E0,4.436540604E-1
3.001862084E1,4.768476009E0,-8.568735123E0,9.377230704E-2
3.003881240E1,4.895967960E0,-8.491582870E0,-3.047976196E-1
3.005900453E1,4.971897125E0,-8.411311150E0,-8.369447589E-1
3.007919709E1,4.938238621E0,-8.346280098E0,-1.457326651E0
3.009938985E1,4.843451500E0,-8.300506592E0,-1.952679157E0
3.011958808E1,4.806029797E0,-8.226508141E0,-2.323150873E0
3.013977922E1,4.825878620E0,-8.103733063E0,-2.685292006E0
3.015995802E1,4.874576569E0,-7.963738441E0,-2.997958899E0
3.018013735E1,4.940494061E0,-7.845705509E0,-3.194809914E0
3.020031756E1,4.950903416E0,-7.746517181E0,-3.413269281E0
3.022049896E1,4.916668892E0,-7.649707317E0,-3.671340227E0
3.024068183E1,4.888429165E0,-7.561767101E0,-3.885013103E0
3.026086630E1,4.860700130E0,-7.503983021E0,-4.029171944E0
3.028105282E1,4.795947075E0,-7.498509407E0,-4.116020203E0
3.030107136E1,4.698529243E0,-7.547366142E0,-4.139019012E0
3.032110521E1,4.598142624E0,-7.637008667E0,-4.087001324E0
3.034115995E1,4.509647369E0,-7.751610279E0,-3.968123436E0
3.036124011E1,4.428124905E0,-7.888235569E0,-3.786532402E0
3.038136407E1,4.346705914E0,-8.046291351E0,-3.540297747E0
3.040154646E1,4.293540478E0,-8.200395584E0,-3.238734722E0
3.042175636E1,4.287295341E0,-8.306129456E0,-2.966091633E0
3.044199177E1,4.303145409E0,-8.278748512E0,-3.019212008E0
3.046224990E1,4.401434422E0,-8.177574158E0,-3.150404692E0
3.048252698E1,4.558775425E0,-8.072876930E0,-3.196346045E0
3.050281875E1,4.705868721E0,-8.022862434E0,-3.107872486E0
3.052312052E1,4.700057030E0,-8.102538109E0,-2.903225183E0
3.054342740E1,4.546078205E0,-8.272073746E0,-2.660144329E0
3.056373438E1,4.359527588E0,-8.444087982E0,-2.421219826E0
3.058392771E1,4.205982208E0,-8.577480316E0,-2.215159416E0
3.060411646E1,4.143263817E0,-8.658629417E0,-2.007953882E0
3.062429979E1,4.126515865E0,-8.703450203E0,-1.841797709E0
3.064448354E1,4.114905357E0,-8.724198341E0,-1.768135548E0
3.066466782E1,4.097664356E0,-8.725598335E0,-1.800961375E0
3.068485282E1,4.069736481E0,-8.723069191E0,-1.875019670E0
3.070503865E1,4.085036278E0,-8.717936516E0,-1.865590572E0
3.072522542E1,4.167107105E0,-8.714848518E0,-1.690276265E0
3.074541313E1,4.274013996E0,-8.725203514E0,-1.331918120E0
3.076560188E1,4.317707539E0,-8.758969307E0,-8.990174532E-1
3.078579156E1,4.304588318E0,-8.786453247E0,-6.626855731E-1
3.080598209E1,4.268473148E0,-8.809022903E0,-5.929917097E-1
3.082617334E1,4.235409260E0,-8.832434654E0,-4.688040912E-1
3.084636521E1,4.233710289E0,-8.841857910E0,-2.600506544E-1
3.086655761E1,4.236950397E0,-8.843579292E0,-9.875770658E-2
3.088675844E1,4.210675240E0,-8.856663704E0,1.088171452E-2
3.090694839E1,4.130547047E0,-8.892570496E0,1.765045375E-1
3.092714256E1,3.996442080E0,-8.944957733E0,4.319439828E-1
3.094733136E1,3.849030495E0,-8.991422653E0,7.139045000E-1
3.096750959E1,3.743816376E0,-9.013308525E0,9.562898874E-1
3.098768839E1,3.715127230E0,-9.011449814E0,1.077960968E0
3.100786813E1,3.750854492E0,-8.998737335E0,1.060280085E0
3.102804917E1,3.819640875E0,-8.981832504E0,9.525799155E-1
3.104823177E1,3.914325476E0,-8.951379776E0,8.492622375E-1
3.106841610E1,4.051229477E0,-8.896986961E0,7.755952477E-1
3.108860224E1,4.254746914E0,-8.814036369E0,6.166554689E-1
3.110879026E1,4.533105373E0,-8.691673279E0,2.759914994E-1
3.112898011E1,4.839658260E0,-8.526685715E0,-2.091598958E-1
3.114917167E1,5.115936756E0,-8.334570885E0,-7.297262549E-1
3.116936479E1,5.288986206E0,-8.171013832E0,-1.196470141E0
3.118955922E1,5.263608456E0,-8.115607262E0,-1.612988949E0
3.120975464E1,4.967949867E0,-8.186676025E0,-2.113806009E0
3.122995073E1,4.537021637E0,-8.261089325E0,-2.709288836E0
3.125014719E1,4.226000309E0,-8.232785225E0,-3.245388508E0
3.127034334E1,4.162898540E0,-8.106514931E0,-3.622856140E0
3.129053563E1,4.302999496E0,-7.919876099E0,-3.863955259E0
3.131072443E1,4.529998779E0,-7.669684887E0,-4.101881027E0
3.133091047E1,4.666149616E0,-7.424518585E0,-4.390212059E0
3.135109401E1,4.652746201E0,-7.244293690E0,-4.694949627E0
3.137130537E1,4.554889202E0,-7.137896538E0,-4.947101593E0
3.139147964E1,4.476636410E0,-7.099898815E0,-5.071641922E0
3.141165443E1,4.457458973E0,-7.132750511E0,-5.042351723E0
3.143183026E1,4.486788273E0,-7.225399017E0,-4.881879330E0
3.145200766E1,4.539922237E0,-7.359554768E0,-4.625628948E0
3.147218703E1,4.607902050E0,-7.545245647E0,-4.243453026E0
3.149236860E1,4.668713570E0,-7.784297466E0,-3.711903572E0
3.151255256E1,4.696358681E0,-8.001667023E0,-3.176149130E0
3.153273901E1,4.716896534E0,-8.069432259E0,-2.967413187E0
3.155292797E1,4.850680828E0,-7.948476315E0,-3.076200962E0
3.157311933E1,5.025441170E0,-7.820841312E0,-3.122462273E0
3.159331287E1,5.150526524E0,-7.748596668E0,-3.098662138E0
3.161350839E1,5.192616463E0,-7.781544685E0,-2.941884279E0
3.163370547E1,5.075704098E0,-7.961893559E0,-2.648748875E0
3.165390381E1,4.846501827E0,-8.215587616E0,-2.277262449E0
3.167410287E1,4.604572773E0,-8.443336487E0,-1.917906165E0
3.169430224E1,4.371940613E0,-8.615559578E0,-1.681860924E0
3.171450047E1,4.158821106E0,-8.743354797E0,-1.558315754E0
3.173468933E1,3.989918947E0,-8.828628540E0,-1.518633008E0
3.175487808E1,3.932440758E0,-8.854933739E0,-1.515401244E0
3.177507766E1,3.980208158E0,-8.830831528E0,-1.531258941E0
3.179525578E1,4.085772991E0,-8.781800270E0,-1.535194159E0
3.181543433E1,4.186352730E0,-8.745151520E0,-1.472123981E0
3.183561360E1,4.275446892E0,-8.729249954E0,-1.300438404E0
3.185579401E1,4.360757828E0,-8.741081238E0,-8.646774292E-1
3.187597589E1,4.432246208E0,-8.739074707E0,-3.926218748E-1
3.189615943E1,4.488667965E0,-8.715356827E0,-2.545448840E-1
3.191634474E1,4.504035473E0,-8.704447746E0,-3.415156901E-1
3.193653193E1,4.539207935E0,-8.684606552E0,-3.789376616E-1
3.195672099E1,4.597030640E0,-8.658856392E0,-2.487758100E-1
3.197691183E1,4.617341995E0,-8.651473999E0,-5.023110658E-2
3.199710422E1,4.560696602E0,-8.680880547E0,1.128437668E-1
3.201729797E1,4.457208633E0,-8.730416298E0,2.889811397E-1
3.203749287E1,4.327513695E0,-8.783817291E0,5.362448692E-1
3.205768860E1,4.191380501E0,-8.834682465E0,7.423546910E-1
3.207788485E1,4.079392433E0,-8.880688667E0,8.138270378E-1
3.209808130E1,4.009077549E0,-8.914363861E0,7.948505878E-1
3.211827672E1,3.988712072E0,-8.930440903E0,7.125960588E-1
3.213846558E1,4.035230160E0,-8.917669296E0,6.020646095E-1
3.215865433E1,4.178658009E0,-8.856941223E0,5.136048794E-1
3.217883766E1,4.402558327E0,-8.752973557E0,4.163168669E-1
3.219902141E1,4.673580647E0,-8.618784904E0,2.111943662E-1
3.221920578E1,4.968386173E0,-8.453996658E0,-1.243465692E-1
3.223939089E1,5.226367474E0,-8.279779434E0,-5.483871102E-1
3.225957683E1,5.399669647E0,-8.126854897E0,-9.839654565E-1
3.227976370E1,5.454150677E0,-8.034238815E0,-1.368814468E0
3.229995151E1,5.367175102E0,-8.021042824E0,-1.739738107E0
3.232014026E1,5.203744888E0,-8.027487755E0,-2.156586409E0
3.234032995E1,5.100299358E0,-7.972740173E0,-2.567636013E0
3.236052047E1,5.089289188E0,-7.839043140E0,-2.969668388E0
3.238073578E1,5.126258850E0,-7.667337894E0,-3.332234859E0
3.240091594E1,5.156127930E0,-7.506392002E0,-3.638518572E0
3.242109656E1,5.083896637E0,-7.395241261E0,-3.954084396E0
3.244127797E1,4.980322838E0,-7.308512688E0,-4.237030029E0
3.246146042E1,4.933274746E0,-7.215076923E0,-4.447005272E0
3.248164412E1,4.934036255E0,-7.136211872E0,-4.571667194E0
3.250182922E1,4.917764664E0,-7.108987331E0,-4.631229401E0
3.252201584E1,4.870724201E0,-7.142786980E0,-4.628931522E0
3.254220401E1,4.816461086E0,-7.224122047E0,-4.558962822E0
3.256239370E1,4.763168812E0,-7.346554756E0,-4.417098045E0
3.258258479E1,4.720253468E0,-7.517956257E0,-4.167725086E0
3.260277714E1,4.687252522E0,-7.728808403E0,-3.803363085E0
3.262297052E1,4.663878918E0,-7.930058002E0,-3.395997286E0
3.264316474E1,4.645893097E0,-8.056905746E0,-3.110039234E0
3.266335953E1,4.668574810E0,-8.045474052E0,-3.105664730E0
3.268355464E1,4.785079956E0,-7.953857899E0,-3.163786173E0
3.270374959E1,4.893534660E0,-7.882131100E0,-3.177377939E0
3.272394131E1,4.986287594E0,-7.877252579E0,-3.042402029E0
3.274413547E1,4.992789745E0,-7.969757557E0,-2.779461622E0
3.276432433E1,4.912494183E0,-8.100563049E0,-2.533509970E0
3.278450266E1,4.837131977E0,-8.205103874E0,-2.334270477E0
3.280468156E1,4.730160236E0,-8.296847343E0,-2.226722956E0
3.282486141E1,4.586302757E0,-8.375018120E0,-2.235014200E0
3.284504256E1,4.466607571E0,-8.442358971E0,-2.224044800E0
3.286522526E1,4.380306721E0,-8.499682426E0,-2.176855087E0
3.288540969E1,4.305654526E0,-8.556711197E0,-2.101054192E0
3.290559594E1,4.226651669E0,-8.629371643E0,-1.959526300E0
3.292578406E1,4.209507942E0,-8.685953140E0,-1.733388186E0
3.294597401E1,4.300917149E0,-8.694547653E0,-1.441297889E0
3.296616563E1,4.448214054E0,-8.662641525E0,-1.158635497E0
3.298635870E1,4.561104298E0,-8.636322975E0,-8.835325241E-1
3.300655302E1,4.583839417E0,-8.654093742E0,-5.152302384E-1
3.302674834E1,4.526457310E0,-8.693915367E0,-3.120920062E-1
3.304694433E1,4.462782860E0,-8.728005409E0,-2.754765153E-1
3.306714068E1,4.474804401E0,-8.722606659E0,-2.502973974E-1
3.308733677E1,4.513438702E0,-8.705006599E0,-1.487497389E-1
3.310752901E1,4.516314983E0,-8.704712868E0,3.549380973E-2
3.312771506E1,4.454560280E0,-8.734426498E0,1.925091892E-1
3.314789860E1,4.353935719E0,-8.781545639E0,3.131956458E-1
3.316808266E1,4.229412556E0,-8.832787514E0,5.141311884E-1
3.318826740E1,4.100214958E0,-8.871141434E0,8.133161068E-1
3.320845292E1,3.973119259E0,-8.898911476E0,1.092744470E0
3.322863933E1,3.851443291E0,-8.939223289E0,1.194592595E0
3.324882667E1,3.770384073E0,-8.986804962E0,1.091754317E0
3.326901495E1,3.760587931E0,-9.008863449E0,9.320672750E-1
3.328920417E1,3.844132662E0,-8.980008125E0,8.674618602E-1
3.330939427E1,4.017743111E0,-8.903018951E0,8.742831945E-1
3.332958516E1,4.245733261E0,-8.801100731E0,8.274971843E-1
3.334977672E1,4.509558201E0,-8.683620453E0,6.549968123E-1
3.336996886E1,4.799765587E0,-8.546684265E0,2.946891487E-1
3.339016141E1,5.052398682E0,-8.402815819E0,-1.906686127E-1
3.341035422E1,5.184505939E0,-8.293637276E0,-7.119493484E-1
3.343055256E1,5.101228714E0,-8.271442413E0,-1.315704346E0
3.345074401E1,4.761342525E0,-8.334724426E0,-2.008080006E0
3.347092334E1,4.291733742E0,-8.423001289E0,-2.608535290E0
3.349113334E1,3.964816093E0,-8.424632072E0,-3.078343391E0
3.351130563E1,3.935555220E0,-8.296084404E0,-3.443365097E0
3.353147854E1,4.135832310E0,-8.063624382E0,-3.747433186E0
3.355165271E1,4.443640709E0,-7.760727406E0,-4.024369717E0
3.357182865E1,4.697634220E0,-7.457620621E0,-4.299594879E0
3.359200677E1,4.795517445E0,-7.217801571E0,-4.590941906E0
3.361218740E1,4.780005455E0,-7.053756237E0,-4.854528427E0
3.363237084E1,4.742619991E0,-6.943902493E0,-5.045806885E0
3.365255719E1,4.704822540E0,-6.897433281E0,-5.143970490E0
3.367274636E1,4.664288521E0,-6.954037189E0,-5.104523659E0
3.369293823E1,4.614573479E0,-7.118819714E0,-4.919197559E0
3.371313261E1,4.545805454E0,-7.361671448E0,-4.616473675E0
3.373332917E1,4.481956005E0,-7.648575783E0,-4.193059921E0
3.375352750E1,4.449977875E0,-7.934978485E0,-3.661175251E0
3.377372719E1,4.448451519E0,-8.146846771E0,-3.163945675E0
3.379392771E1,4.488869190E0,-8.210205078E0,-2.934785366E0
3.381412854E1,4.625807762E0,-8.090357780E0,-3.052605867E0
3.383432698E1,4.825050354E0,-7.937318802E0,-3.144557714E0
3.385451584E1,4.994565010E0,-7.845553875E0,-3.109982014E0
3.387470459E1,5.098122120E0,-7.850157261E0,-2.924820423E0
3.389488792E1,5.113493919E0,-7.949054718E0,-2.614400864E0
3.391507167E1,5.050156116E0,-8.083724022E0,-2.306454659E0
3.393525604E1,4.947364330E0,-8.172239304E0,-2.215505123E0
3.395544115E1,4.733189583E0,-8.256965637E0,-2.364280462E0
3.397562709E1,4.543951988E0,-8.365792274E0,-2.352956533E0
3.399581396E1,4.448688030E0,-8.466615677E0,-2.167018652E0
3.401600177E1,4.427457809E0,-8.542601585E0,-1.895245314E0
3.403619052E1,4.432115078E0,-8.593025208E0,-1.639108300E0
3.405638021E1,4.435994625E0,-8.628138542E0,-1.430927753E0
3.407657073E1,4.456117630E0,-8.647810936E0,-1.236432791E0
3.409676198E1,4.515565872E0,-8.646812439E0,-1.006324768E0
3.411695386E1,4.605365276E0,-8.624641418E0,-7.593221664E-1
3.413714625E1,4.669697285E0,-8.610266685E0,-4.770947993E-1
3.415733896E1,4.703904152E0,-8.601675987E0,-2.341926247E-1
3.417753188E1,4.709519386E0,-8.600860596E0,-1.265496016E-1
3.419773563E1,4.696240902E0,-8.608359337E0,-1.089142412E-1
3.421791479E1,4.708150864E0,-8.602257729E0,-6.970902532E-2
3.423809427E1,4.728502750E0,-8.591078758E0,7.071442902E-2
3.425827448E1,4.723169804E0,-8.589942932E0,2.737417519E-1
3.427845573E1,4.654547215E0,-8.617973328E0,4.859347641E-1
3.429863823E1,4.528367519E0,-8.666949272E0,7.404474020E-1
3.431882219E1,4.361372948E0,-8.720619202E0,1.048622966E0
3.433900782E1,4.186311245E0,-8.770250320E0,1.314496040E0
3.435919511E1,4.039027691E0,-8.816160202E0,1.460122705E0
3.437938406E1,3.947504759E0,-8.855927467E0,1.469744086E0
3.439957459E1,3.929195166E0,-8.874042511E0,1.408257008E0
3.441976656E1,3.981171608E0,-8.857110977E0,1.368300557E0
3.443995979E1,4.127398491E0,-8.789640427E0,1.370103598E0
3.446015407E1,4.370230198E0,-8.676555634E0,1.337486386E0
3.448034917E1,4.652527332E0,-8.551206589E0,1.183743954E0
3.450054479E1,4.956663609E0,-8.415724754E0,8.817269802E-1
3.452074063E1,5.277987957E0,-8.254821777E0,4.137149751E-1
3.454093604E1,5.531409740E0,-8.096939087E0,-1.160747409E-1
3.456112490E1,5.642314911E0,-8.001415253E0,-5.585993528E-1
3.458130834E1,5.569404125E0,-7.997567177E0,-1.091346979E0
3.460149219E1,5.368015289E0,-8.038995743E0,-1.652072549E0
3.462167656E1,5.208912373E0,-8.067641258E0,-1.987661004E0
3.464186167E1,5.187475681E0,-8.033020020E0,-2.175102234E0
3.466204761E1,5.238942623E0,-7.929889202E0,-2.416756868E0
3.468223448E1,5.321007252E0,-7.748301506E0,-2.796619654E0
3.470242229E1,5.432579994E0,-7.518059731E0,-3.183744431E0
3.472261104E1,5.480683327E0,-7.312551022E0,-3.557963133E0
3.474280073E1,5.451347351E0,-7.173976421E0,-3.871337652E0
3.476299125E1,5.404968262E0,-7.119330406E0,-4.033835888E0
3.478318250E1,5.346229553E0,-7.142430305E0,-4.071107864E0
3.480337438E1,5.272422314E0,-7.207750320E0,-4.052194595E0
3.482356677E1,5.182448864E0,-7.283935070E0,-4.031984806E0
3.484375948E1,5.079324245E0,-7.379108906E0,-3.989938021E0
3.486395229E1,4.986611843E0,-7.521124840E0,-3.838849545E0
3.488415594E1,4.909589291E0,-7.714601040E0,-3.542773247E0
3.490433490E1,4.808427334E0,-7.887250423E0,-3.292520046E0
3.492451417E1,4.735920429E0,-7.954526901E0,-3.235265255E0
3.494469417E1,4.801491261E0,-7.888347626E0,-3.300007105E0
3.496487521E1,4.889739513E0,-7.814079285E0,-3.346789598E0
3.498505761E1,4.942613602E0,-7.794053555E0,-3.315675497E0
3.500524157E1,4.897515774E0,-7.886592388E0,-3.160125494E0
3.502542719E1,4.745831490E0,-8.081359863E0,-2.887750387E0
3.504561448E1,4.590859890E0,-8.291511536E0,-2.518974781E0
3.506580344E1,4.454769135E0,-8.463321686E0,-2.167394876E0
3.508599406E1,4.271969795E0,-8.569406509E0,-2.118006706E0
3.510618615E1,4.071055412E0,-8.645163536E0,-2.204095840E0
3.512637948E1,3.920028210E0,-8.731142044E0,-2.137972593E0
3.514657386E1,3.842996120E0,-8.815928459E0,-1.918642163E0
3.516676907E1,3.838860512E0,-8.869363785E0,-1.663709879E0
3.518696479E1,3.889733315E0,-8.884557724E0,-1.450859547E0
3.520716073E1,3.966133356E0,-8.875021935E0,-1.293885946E0
3.522735615E1,4.049635887E0,-8.852880478E0,-1.182091236E0
3.524754490E1,4.146273613E0,-8.825348854E0,-1.044999719E0
3.526772823E1,4.249906063E0,-8.799377441E0,-8.244011998E-1
3.528791198E1,4.342271805E0,-8.771829605E0,-6.083231568E-1
3.530809636E1,4.395378590E0,-8.753504753E0,-4.766595960E-1
3.532828146E1,4.406609058E0,-8.751032829E0,-4.142502248E-1
3.534846740E1,4.411136627E0,-8.752546310E0,-3.243601322E-1
3.536865427E1,4.396394253E0,-8.764247894E0,-1.733372658E-1
3.538884209E1,4.333899021E0,-8.797027588E0,-2.231740626E-3
3.540903084E1,4.228233337E0,-8.846200943E0,1.927868724E-1
3.542922052E1,4.107239723E0,-8.893857002E0,4.475303292E-1
3.544941104E1,4.008843422E0,-8.919734001E0,7.334260941E-1
3.546960229E1,3.964556694E0,-8.918439865E0,9.560942054E-1
3.548979417E1,3.972180605E0,-8.905341148E0,1.042624950E0
3.550998657E1,3.999936104E0,-8.899391174E0,9.857634902E-1
3.553017927E1,4.027534008E0,-8.902426720E0,8.343490362E-1
3.555037219E1,4.063441753E0,-8.899124146E0,6.814766526E-1
3.557057594E1,4.133812428E0,-8.875018120E0,5.621594191E-1
3.559075479E1,4.250506401E0,-8.828522682E0,4.009546041E-1
3.561093396E1,4.415812016E0,-8.755186081E0,1.330432147E-1
3.563111386E1,4.619893551E0,-8.647146225E0,-2.320465893E-1
3.565129479E1,4.813971519E0,-8.518622398E0,-6.550816894E-1
3.567147709E1,4.906802654E0,-8.418828011E0,-1.103177547E0
3.569166094E1,4.882339954E0,-8.367980003E0,-1.519881129E0
3.571184646E1,4.806980610E0,-8.334972382E0,-1.895144463E0
3.573203375E1,4.740425110E0,-8.284465790E0,-2.250860929E0
3.575222282E1,4.753198147E0,-8.189419746E0,-2.551646233E0
3.577241354E1,4.842246532E0,-8.057941437E0,-2.791525364E0
3.579260573E1,4.908921242E0,-7.933944702E0,-3.020828009E0
3.581279917E1,4.917603016E0,-7.805585861E0,-3.325716257E0
3.583299365E1,4.943065643E0,-7.641027927E0,-3.653925896E0
3.585318896E1,4.997469902E0,-7.490388870E0,-3.884553671E0
3.587338479E1,5.036263943E0,-7.388304710E0,-4.027329922E0
3.589358084E1,5.043917179E0,-7.341647625E0,-4.102377415E0
3.591377573E1,5.008928776E0,-7.343008995E0,-4.142612457E0
3.593396459E1,4.933174610E0,-7.382147789E0,-4.163898468E0
3.595415334E1,4.829194069E0,-7.457448483E0,-4.151596546E0
3.597433667E1,4.700216293E0,-7.562979221E0,-4.108489513E0
3.599452042E1,4.566195965E0,-7.707138062E0,-3.990020275E0
3.601470479E1,4.455057621E0,-7.919471264E0,-3.688472748E0
3.603488990E1,4.354725838E0,-8.135679245E0,-3.319258690E0
3.605507584E1,4.322757721E0,-8.197082520E0,-3.208114624E0
3.607526271E1,4.444775105E0,-8.103623390E0,-3.278057337E0
3.609545052E1,4.640876293E0,-7.994840145E0,-3.273406267E0
3.611563927E1,4.840075016E0,-7.942079067E0,-3.109249830E0
3.613582896E1,4.896230221E0,-8.029484749E0,-2.779333830E0
3.615601948E1,4.766917229E0,-8.219501495E0,-2.426247358E0
3.617621073E1,4.472238064E0,-8.386876106E0,-2.414497137E0
3.619640261E1,4.169821262E0,-8.474294662E0,-2.639942408E0
3.621659500E1,4.107905865E0,-8.529640198E0,-2.557485342E0
3.623678771E1,4.148434639E0,-8.560133934E0,-2.384321690E0
3.625698052E1,4.147274494E0,-8.595090866E0,-2.257190943E0
3.627718417E1,4.115676880E0,-8.627794266E0,-2.189237833E0
3.629736302E1,4.159922600E0,-8.628052711E0,-2.102889776E0
3.631754219E1,4.285174370E0,-8.601973534E0,-1.952875376E0
3.633772209E1,4.421920776E0,-8.576803207E0,-1.747984290E0
3.635790302E1,4.508475304E0,-8.590390205E0,-1.431514740E0
3.637808532E1,4.513454437E0,-8.646288872E0,-1.020198703E0
3.639826917E1,4.478678226E0,-8.690459251E0,-7.666409016E-1
3.641845469E1,4.430258274E0,-8.721933365E0,-6.863437891E-1
3.643864198E1,4.413526058E0,-8.736413956E0,-6.051864028E-1
3.645883094E1,4.433803082E0,-8.735126495E0,-4.575309157E-1
3.647902157E1,4.461398125E0,-8.727026939E0,-3.245083988E-1
3.649921365E1,4.460834503E0,-8.730308533E0,-2.303313315E-1
3.651940709E1,4.395298958E0,-8.766127586E0,-8.206615597E-2
3.653960157E1,4.274599552E0,-8.824453354E0,1.649234593E-1
3.655979688E1,4.133256435E0,-8.883194923E0,4.188255370E-1
3.657999271E1,3.993495703E0,-8.934331894E0,6.325222254E-1
3.660018875E1,3.878998756E0,-8.973236084E0,7.776917815E-1
3.662038375E1,3.809649706E0,-9.001664162E0,7.918310761E-1
3.664057250E1,3.783527374E0,-9.021578789E0,6.829399467E-1
3.666075584E1,3.825439692E0,-9.011981964E0,5.661928654E-1
3.668093959E1,3.976323366E0,-8.947386742E0,5.509176254E-1
3.670112386E1,4.201547146E0,-8.842766762E0,5.682054162E-1
3.672130886E1,4.445693970E0,-8.728032112E0,4.771395624E-1
3.674149469E1,4.760821342E0,-8.569429398E0,2.642834485E-1
3.676168146E1,5.105905056E0,-8.372420311E0,-5.206704512E-2
3.678186917E1,5.359443665E0,-8.200451851E0,-4.464864731E-1
3.680205782E1,5.475855827E0,-8.090194702E0,-8.568239212E-1
3.682224740E1,5.407056808E0,-8.076107979E0,-1.307900310E0
3.684243792E1,5.139078140E0,-8.154233932E0,-1.807963848E0
3.686262917E1,4.804846764E0,-8.236958504E0,-2.288305759E0
3.688282104E1,4.610086441E0,-8.213650703E0,-2.730098009E0
3.690301344E1,4.643851757E0,-8.084232330E0,-3.041417837E0
3.692320615E1,4.844456196E0,-7.908617496E0,-3.186754465E0
3.694339906E1,5.118090153E0,-7.687503815E0,-3.298154354E0
3.696360282E1,5.255512238E0,-7.472114086E0,-3.566159248E0
3.698378188E1,5.166672707E0,-7.330812931E0,-3.966744423E0
3.700396125E1,5.060507774E0,-7.222943306E0,-4.288442612E0
3.702414136E1,4.980358601E0,-7.185221672E0,-4.442861557E0
3.704432250E1,4.887334824E0,-7.237834454E0,-4.460727215E0
3.706450490E1,4.777688026E0,-7.360095024E0,-4.378707886E0
3.708468875E1,4.665452480E0,-7.515520096E0,-4.233309746E0
3.710487427E1,4.586456776E0,-7.672995567E0,-4.032361984E0
3.712506146E1,4.572148800E0,-7.828950405E0,-3.738097429E0
3.714525032E1,4.609979630E0,-8.002178192E0,-3.299031973E0
3.716544084E1,4.634448051E0,-8.146139145E0,-2.886642218E0
3.718563282E1,4.677892208E0,-8.135106087E0,-2.847415447E0
3.720582604E1,4.828052044E0,-7.988203049E0,-3.008142471E0
3.722602032E1,5.046020985E0,-7.847421169E0,-3.020932674E0
3.724621542E1,5.246196270E0,-7.753435612E0,-2.920968771E0
3.726641104E1,5.302518368E0,-7.800570965E0,-2.684172630E0
3.728660688E1,5.186705112E0,-7.969113350E0,-2.400355339E0
3.730680229E1,4.984428406E0,-8.167984009E0,-2.147066832E0
3.732699104E1,4.736675739E0,-8.335293770E0,-2.063289642E0
3.734717438E1,4.510994434E0,-8.448990822E0,-2.106148720E0
3.736735813E1,4.377992630E0,-8.509666443E0,-2.142227650E0
3.738754240E1,4.358466148E0,-8.525883675E0,-2.117421150E0
3.740772740E1,4.433892727E0,-8.512350082E0,-2.012679100E0
3.742791323E1,4.513521194E0,-8.504219055E0,-1.864609122E0
3.744810000E1,4.534191608E0,-8.532671928E0,-1.674814463E0
3.746828771E1,4.504381657E0,-8.586815834E0,-1.465444684E0
3.748847636E1,4.524965763E0,-8.610632896E0,-1.245818019E0
3.750866594E1,4.583624363E0,-8.611661911E0,-1.000027776E0
3.752885636E1,4.637568474E0,-8.607464790E0,-7.582234144E-1
3.754904750E1,4.687745571E0,-8.595777512E0,-5.550125837E-1
3.756923927E1,4.720562935E0,-8.587776184E0,-3.698571920E-1
3.758943157E1,4.733888626E0,-8.586609840E0,-1.755528301E-1
3.760962417E1,4.752324581E0,-8.578214645E0,5.218387581E-3
3.762981698E1,4.771352291E0,-8.566042900E0,1.658524871E-1
3.765002063E1,4.767546177E0,-8.563316345E0,3.324074149E-1
3.767020011E1,4.713360786E0,-8.583953857E0,5.199643970E-1
3.769037990E1,4.620401382E0,-8.618284225E0,7.398955226E-1
3.771056032E1,4.520481586E0,-8.653028488E0,9.277592897E-1
3.773074167E1,4.433785439E0,-8.688416481E0,1.011615157E0
3.775092427E1,4.373117924E0,-8.718565941E0,1.016279697E0
3.777110834E1,4.351740360E0,-8.735071182E0,9.650189877E-1
3.779129396E1,4.360249519E0,-8.738818169E0,8.897631168E-1
3.781148125E1,4.424984932E0,-8.710668564E0,8.450694084E-1
3.783167021E1,4.599747181E0,-8.622154236E0,8.192558885E-1
3.785186073E1,4.873729706E0,-8.484175682E0,6.602423787E-1
3.787205271E1,5.186892986E0,-8.312718391E0,4.065070748E-1
3.789224594E1,5.529418468E0,-8.095162392E0,2.535156906E-1
3.791244021E1,5.811695099E0,-7.897125721E0,1.731486320E-1
3.793263521E1,5.942053318E0,-7.798385620E0,-2.181078643E-1
3.795283063E1,5.842438221E0,-7.823570728E0,-9.099659324E-1
3.797302625E1,5.529552937E0,-7.959623814E0,-1.496271849E0
3.799322021E1,5.085231304E0,-8.138513565E0,-2.018762589E0
3.801340896E1,4.699042320E0,-8.220795631E0,-2.551060438E0
3.803359229E1,4.536613464E0,-8.134893417E0,-3.068068743E0
3.805377604E1,4.569252491E0,-7.908040524E0,-3.571444273E0
3.807396032E1,4.670813084E0,-7.643726349E0,-3.990906239E0
3.809414532E1,4.707431793E0,-7.438986301E0,-4.321106911E0
3.811433115E1,4.647910118E0,-7.314659595E0,-4.589452744E0
3.813451792E1,4.576775551E0,-7.219547272E0,-4.806418419E0
3.815470563E1,4.551375389E0,-7.133067608E0,-4.957289219E0
3.817489427E1,4.579655647E0,-7.086458206E0,-4.997924805E0
3.819508386E1,4.606106758E0,-7.128747940E0,-4.912751675E0
3.821527427E1,4.584306717E0,-7.265596867E0,-4.729231834E0
3.823546542E1,4.563086987E0,-7.458233356E0,-4.441100597E0
3.825565719E1,4.563321590E0,-7.676864624E0,-4.051201344E0
3.827584948E1,4.577497482E0,-7.903422832E0,-3.571108818E0
3.829604209E1,4.619453430E0,-8.093291283E0,-3.054450512E0
3.831623490E1,4.758152485E0,-8.167676926E0,-2.611401796E0
3.833643854E1,4.996157169E0,-8.066688538E0,-2.477364540E0
3.835661761E1,5.219316959E0,-7.881281376E0,-2.610463858E0
3.837679698E1,5.324347973E0,-7.759516239E0,-2.758917332E0
3.839697709E1,5.316904068E0,-7.773096561E0,-2.734938622E0
3.841715823E1,5.234966278E0,-7.896528244E0,-2.531869650E0
3.843734063E1,5.035913944E0,-8.083898544E0,-2.336778164E0
3.845752448E1,4.790530682E0,-8.291996002E0,-2.112819195E0
3.847771000E1,4.604849339E0,-8.477995872E0,-1.757655621E0
3.849789719E1,4.475282192E0,-8.616359711E0,-1.378620625E0
3.851808604E1,4.396459579E0,-8.697370529E0,-1.094205022E0
3.853827646E1,4.395975113E0,-8.710362434E0,-9.876120687E-1
3.855846834E1,4.443433285E0,-8.677573204E0,-1.061139822E0
3.857866146E1,4.507314205E0,-8.627918243E0,-1.188922882E0
3.859885563E1,4.583299637E0,-8.578765869E0,-1.252408862E0
3.861905063E1,4.668357372E0,-8.546315193E0,-1.156424522E0
3.863924615E1,4.730135918E0,-8.542272568E0,-9.087300897E-1
3.865944188E1,4.768965721E0,-8.545951843E0,-6.277477741E-1
3.867963740E1,4.811125755E0,-8.536384583E0,-3.919281662E-1
3.869982615E1,4.851354599E0,-8.519911766E0,-2.141550183E-1
3.872001479E1,4.870538235E0,-8.511437416E0,-6.063465402E-2
3.874019802E1,4.856224060E0,-8.518381119E0,1.570810676E-1
3.876038167E1,4.807731152E0,-8.537557602E0,4.076797366E-1
3.878056594E1,4.733433723E0,-8.567495346E0,6.025090218E-1
3.880075094E1,4.635228634E0,-8.604822159E0,8.013003469E-1
3.882093677E1,4.508819103E0,-8.638801575E0,1.100932121E0
3.884112354E1,4.363257885E0,-8.671382904E0,1.392655611E0
3.886131125E1,4.231597424E0,-8.710304260E0,1.547441721E0
3.888149990E1,4.119671822E0,-8.751313210E0,1.616545796E0
3.890168948E1,4.022523403E0,-8.787742615E0,1.662912846E0
3.892187990E1,3.966043949E0,-8.820187569E0,1.626400113E0
3.894207104E1,3.956302643E0,-8.845388412E0,1.509028673E0
3.896226282E1,3.986034393E0,-8.851291656E0,1.391598344E0
3.898245511E1,4.055121899E0,-8.834513664E0,1.295278072E0
3.900264771E1,4.197802067E0,-8.784747124E0,1.173482180E0
3.902284052E1,4.436631680E0,-8.695914268E0,9.315389991E-1
3.904304417E1,4.733803749E0,-8.574219704E0,4.942261577E-1
3.906322313E1,5.001997471E0,-8.434639931E0,-8.523488790E-2
3.908340240E1,5.164032936E0,-8.309830666E0,-6.707258224E-1
3.910358240E1,5.180499077E0,-8.240534782E0,-1.194322824E0
3.912376344E1,4.998120308E0,-8.251807213E0,-1.759791255E0
3.914394573E1,4.692141533E0,-8.292199135E0,-2.322418928E0
3.916412948E1,4.475125313E0,-8.275854111E0,-2.766564369E0
3.918431490E1,4.465902328E0,-8.152533531E0,-3.124468088E0
3.920450198E1,4.570628643E0,-7.955811977E0,-3.461905003E0
3.922469073E1,4.717793941E0,-7.696473598E0,-3.831068993E0
3.924488115E1,4.825475693E0,-7.425917149E0,-4.211997509E0
3.926507302E1,4.785419941E0,-7.248838425E0,-4.552414894E0
3.928526625E1,4.703981876E0,-7.142356873E0,-4.798924446E0
3.930546052E1,4.664801121E0,-7.061728954E0,-4.953989029E0
3.932565563E1,4.645514011E0,-7.022891045E0,-5.026787758E0
3.934585125E1,4.603451729E0,-7.050981998E0,-5.026159763E0
3.936604709E1,4.544118404E0,-7.154357910E0,-4.933207989E0
3.938624250E1,4.496463776E0,-7.319234848E0,-4.730855465E0
3.940643115E1,4.449922085E0,-7.529220104E0,-4.436149597E0
3.942661438E1,4.389761925E0,-7.770184517E0,-4.065048695E0
3.944679802E1,4.354128838E0,-8.000189781E0,-3.634405851E0
3.946698229E1,4.310555935E0,-8.103237152E0,-3.453553915E0
3.948716729E1,4.338671684E0,-8.021711349E0,-3.605336428E0
3.950735313E1,4.435364723E0,-7.920513153E0,-3.709904909E0
3.952753990E1,4.585973740E0,-7.848566055E0,-3.679572344E0
3.954772761E1,4.697820187E0,-7.873062134E0,-3.480769396E0
3.956791625E1,4.642282486E0,-8.054963112E0,-3.120443821E0
3.958810584E1,4.455712318E0,-8.305388451E0,-2.708788157E0
3.960829625E1,4.203520775E0,-8.488958359E0,-2.537394524E0
3.962848740E1,3.964099407E0,-8.565351486E0,-2.662905931E0
3.964867917E1,3.810564518E0,-8.621693611E0,-2.704879999E0
3.966887146E1,3.730102539E0,-8.670619965E0,-2.660279512E0
3.968906407E1,3.688786507E0,-8.715182304E0,-2.570765018E0
3.970925677E1,3.737086296E0,-8.745506287E0,-2.391796589E0
3.972946032E1,3.896962643E0,-8.746228218E0,-2.118388176E0
3.974963907E1,4.111476421E0,-8.718057632E0,-1.805997133E0
3.976981813E1,4.329004288E0,-8.666085243E0,-1.526134253E0
3.978999792E1,4.503003120E0,-8.609600067E0,-1.329711437E0
3.981017875E1,4.589752674E0,-8.586397171E0,-1.174027443E0
3.983036094E1,4.583085060E0,-8.620769501E0,-9.208994508E-1
3.985054469E1,4.549316406E0,-8.665884018E0,-6.136526465E-1
3.987073011E1,4.523707390E0,-8.693316460E0,-3.642932773E-1
3.989091729E1,4.513586521E0,-8.703222275E0,-2.277026772E-1
3.991110615E1,4.496474266E0,-8.713894844E0,-1.418943256E-1
3.993129667E1,4.461874485E0,-8.732744217E0,-3.515583277E-2
3.995148865E1,4.387250423E0,-8.769957542E0,1.013746858E-1
3.997168198E1,4.263094425E0,-8.827257156E0,2.756004333E-1
3.999187636E1,4.119393826E0,-8.884413719E0,5.178506970E-1
4.001207156E1,3.979304075E0,-8.931416512E0,7.518917918E-1
4.003226729E1,3.867692947E0,-8.968347549E0,8.832320571E-1
4.005246323E1,3.791164160E0,-8.998915672E0,9.038704038E-1
4.007265813E1,3.750280380E0,-9.021109581E0,8.516883254E-1
4.009284677E1,3.786408424E0,-9.010381699E0,8.040693402E-1
4.011303000E1,3.917799234E0,-8.956147194E0,7.801647186E-1
4.013321365E1,4.100847721E0,-8.877210617E0,7.406527400E-1
4.015339782E1,4.336015224E0,-8.774647713E0,6.123017669E-1
4.017358271E1,4.599771500E0,-8.656093597E0,2.907451987E-1
4.019376844E1,4.844087601E0,-8.525126457E0,-1.655988693E-1
4.021395511E1,5.011808395E0,-8.405676842E0,-6.298826933E-1
4.023414271E1,5.053748608E0,-8.328790665E0,-1.123058915E0
4.025433125E1,4.914435387E0,-8.310205460E0,-1.720234394E0
4.027452073E1,4.710861683E0,-8.294827461E0,-2.274641752E0
4.029471115E1,4.626019955E0,-8.220246315E0,-2.682885647E0
4.031490229E1,4.659344673E0,-8.092772484E0,-2.994649172E0
4.033509406E1,4.740139008E0,-7.942603588E0,-3.258299589E0
4.035528636E1,4.792269230E0,-7.783631325E0,-3.552412271E0
4.037547896E1,4.716932774E0,-7.642580509E0,-3.938515425E0
4.039567177E1,4.590763569E0,-7.519223690E0,-4.307732582E0
4.041587542E1,4.533519745E0,-7.401086807E0,-4.565248013E0
4.043605438E1,4.552837372E0,-7.321082592E0,-4.673737049E0
4.045623365E1,4.570700169E0,-7.303189278E0,-4.684285164E0
4.047641365E1,4.547426701E0,-7.342764854E0,-4.644901276E0
4.049659469E1,4.504453659E0,-7.424128532E0,-4.556597710E0
4.051677698E1,4.474447727E0,-7.532443523E0,-4.405905247E0
4.053696073E1,4.441683292E0,-7.678219318E0,-4.181718826E0
4.055714615E1,4.406935215E0,-7.870223999E0,-3.848232746E0
4.057733323E1,4.402691364E0,-8.067505836E0,-3.420826197E0
4.059752198E1,4.436251640E0,-8.180744171E0,-3.092811584E0
4.061771240E1,4.515995502E0,-8.124644279E0,-3.125111341E0
4.063790427E1,4.620439529E0,-7.994790554E0,-3.302310467E0
4.065809740E1,4.758199215E0,-7.900217533E0,-3.334138632E0
4.067829156E1,4.873805046E0,-7.907493114E0,-3.144515753E0
4.069848656E1,4.826714516E0,-8.073787689E0,-2.772570610E0
4.071868209E1,4.667529583E0,-8.279158592E0,-2.416628599E0
4.073887782E1,4.486511230E0,-8.375503540E0,-2.427453041E0
4.075907302E1,4.337253094E0,-8.400478363E0,-2.605875969E0
4.077926167E1,4.266644955E0,-8.427456856E0,-2.635166407E0
4.079944490E1,4.245270729E0,-8.467831612E0,-2.538481474E0
4.081962854E1,4.215404987E0,-8.527762413E0,-2.382860899E0
4.083981271E1,4.195123672E0,-8.591843605E0,-2.179805040E0
4.085999761E1,4.241486073E0,-8.636603355E0,-1.894531846E0
4.088018334E1,4.345588207E0,-8.659091949E0,-1.518675923E0
4.090037000E1,4.449875832E0,-8.667274475E0,-1.116839647E0
4.092055761E1,4.469524384E0,-8.696363449E0,-7.529912591E-1
4.094074615E1,4.446680069E0,-8.718925476E0,-6.146283150E-1
4.096093563E1,4.421283722E0,-8.733443260E0,-5.912714005E-1
4.098112594E1,4.419548035E0,-8.739073753E0,-5.163180828E-1
4.100131698E1,4.472027302E0,-8.719865799E0,-3.678230345E-1
4.102150865E1,4.527402878E0,-8.697136879E0,-1.811715066E-1
4.104170084E1,4.517518044E0,-8.704156876E0,-8.486482315E-3
4.106189334E1,4.435745716E0,-8.745041847E0,1.370198727E-1
4.108208604E1,4.309509754E0,-8.803072929E0,3.231505156E-1
4.110228959E1,4.157258511E0,-8.861259460E0,6.047108173E-1
4.112246875E1,4.006541252E0,-8.904376030E0,9.111034870E-1
4.114264823E1,3.862574577E0,-8.946709633E0,1.098766565E0
4.116282844E1,3.734527826E0,-9.003283501E0,1.079152346E0
4.118300969E1,3.662149906E0,-9.052323341E0,9.024821520E-1
4.120319219E1,3.692968845E0,-9.055692673E0,7.258251309E-1
4.122337615E1,3.868093491E0,-8.988245964E0,6.478211284E-1
4.124356167E1,4.135787010E0,-8.873409271E0,5.729254484E-1
4.126374886E1,4.364859104E0,-8.774131775E0,3.647160530E-1
4.128393771E1,4.556685925E0,-8.683661461E0,-3.190551326E-2
4.130412813E1,4.720952034E0,-8.581032753E0,-4.988808632E-1
4.132432000E1,4.825013161E0,-8.488306046E0,-9.155739546E-1
4.134451313E1,4.806057453E0,-8.451638222E0,-1.281403184E0
4.136470729E1,4.578701973E0,-8.497059822E0,-1.733739972E0
4.138490219E1,4.233126640E0,-8.547908783E0,-2.276904106E0
4.140509750E1,3.989214659E0,-8.512000084E0,-2.793279409E0
4.142529302E1,3.940615654E0,-8.373396873E0,-3.244711399E0
4.144548709E1,3.976256371E0,-8.203675270E0,-3.613790989E0
4.146567573E1,3.997034311E0,-8.056938171E0,-3.908945799E0
4.148585896E1,3.956001759E0,-7.929029942E0,-4.201300621E0
4.150604261E1,3.868008137E0,-7.799647808E0,-4.513801098E0
4.152622677E1,3.809131145E0,-7.675555706E0,-4.769354820E0
4.154641167E1,3.841252327E0,-7.589285374E0,-4.880359650E0
4.156659740E1,3.903691769E0,-7.569792271E0,-4.861051559E0
4.158678406E1,3.933832407E0,-7.614278793E0,-4.766351223E0
4.160697167E1,3.930485964E0,-7.701455116E0,-4.627013206E0
4.162716021E1,3.917407990E0,-7.821623325E0,-4.432437897E0
4.164734969E1,3.928368330E0,-7.978564262E0,-4.132894039E0
