"Time (s)","Gyroscope x (rad/s)","Gyroscope y (rad/s)","Gyroscope z (rad/s)"
3.851276300E-2,2.162485123E-1,-1.278316416E-2,-1.104012609E0
5.870161700E-2,2.178464085E-1,1.677790284E-1,-1.207875848E0
7.890130500E-2,1.848232448E-1,1.896169335E-1,-1.251019001E0
9.907932600E-2,1.533979625E-1,-1.757684946E-1,-1.208408475E0
1.192577630E-1,1.384842768E-2,-4.942823350E-1,-1.048086286E0
1.394370340E-1,-2.237053663E-1,-5.970802903E-1,-8.030756116E-1
1.596174510E-1,-3.595264852E-1,-5.464802384E-1,-5.319660306E-1
1.797993260E-1,-1.848232448E-1,-5.518065691E-1,-1.921469271E-1
1.999828670E-1,-1.608548164E-1,-8.516782522E-1,2.303632535E-2
2.201681800E-1,-5.976129174E-1,-8.996151686E-1,-2.118543088E-1
2.403553670E-1,-7.888277173E-1,-1.105211020E0,-5.399554968E-1
2.605444300E-1,-4.415517747E-1,-1.335840583E0,-7.221155763E-1
2.807352630E-1,3.834949061E-2,-1.343830109E0,-7.002776861E-1
3.009277630E-1,1.800295562E-1,-1.326253176E0,-5.287702680E-1
3.211217210E-1,6.977476925E-2,-1.421594381E0,-4.552670419E-1
3.413168260E-1,-6.285055727E-2,-1.734781861E0,-4.792354703E-1
3.615127630E-1,5.326318205E-4,-2.178464174E0,-4.787028432E-1
3.817092210E-1,1.400821656E-1,-2.497510672E0,-1.841574460E-1
4.019058880E-1,1.438105851E-1,-2.559295893E0,2.291648388E-1
4.221013050E-1,5.219791830E-2,-2.292979956E0,5.359607935E-1
4.422904710E-1,3.089264594E-2,-2.195508480E0,6.659229398E-1
4.624790130E-1,7.669898123E-2,-2.196573734E0,6.105292439E-1
4.826621380E-1,1.533979625E-1,-1.831188202E0,6.179860830E-1
5.028456800E-1,2.572611570E-1,-1.254347920E0,7.021418810E-1
5.230298460E-1,5.518065691E-1,-9.954888821E-1,6.941524148E-1
5.432147420E-1,1.074318409E0,-1.187236309E0,6.526071429E-1
5.634005760E-1,1.443964839E0,-1.609613419E0,6.962829232E-1
5.835873460E-1,1.553686976E0,-1.810948133E0,8.310387731E-1
6.037751590E-1,1.490836501E0,-1.822133422E0,1.063798904E0
6.239640130E-1,1.631451249E0,-2.004826069E0,1.299222112E0
6.441539090E-1,1.620798588E0,-2.426670551E0,1.426521182E0
6.643447420E-1,1.813611388E0,-2.837862253E0,1.407879114E0
6.845364090E-1,1.884451389E0,-3.617102623E0,8.331693411E-1
7.047287010E-1,1.518000722E0,-4.460791588E0,-2.901511788E-1
7.249215130E-1,1.414670110E0,-3.528153181E0,-8.739156723E-1
7.451146380E-1,1.048219442E0,-1.668202877E0,-3.924165070E-1
7.653078670E-1,-2.039979845E-1,-2.934801280E-1,3.964112401E-1
7.855009920E-1,-9.587372541E-1,-1.859417677E0,-1.111868918E-1
8.056898460E-1,-6.604634225E-2,-2.456497908E0,-4.302333593E-1
8.258895340E-1,1.000815153E0,-1.584047079E0,-3.013364673E-1
8.460675550E-1,5.986781716E-1,-9.337036014E-1,-7.210503221E-1
8.662459920E-1,-2.199769467E-1,-1.636777639E0,-1.756486535E0
8.864252630E-1,-5.581981540E-1,-8.586025238E-1,-1.906688809E0
9.066056800E-1,-7.584677339E-1,6.018739566E-2,-8.222503662E-1
9.267875550E-1,-1.073253155E0,1.027446747E0,-3.343596160E-1
9.469710960E-1,-1.427985907E0,9.342362285E-1,-3.455449045E-1
9.671564090E-1,-1.642636538E0,5.693834424E-1,-3.775027990E-1
9.873435960E-1,-1.766739726E0,2.167811543E-1,-4.328965247E-1
1.007532659E0,-1.906289339E0,-6.391581893E-2,-4.845618010E-1
1.027723492E0,-2.004826069E0,6.338318437E-2,-4.680502117E-1
1.047915992E0,-2.027196646E0,5.592634156E-2,-3.162501454E-1
1.068109951E0,-2.018674612E0,-1.065263674E-1,1.078579482E-2
1.088305055E0,-1.884984016E0,-2.354232669E-1,4.656533599E-1
1.108500992E0,-1.574459672E0,-9.267793596E-2,7.197187543E-1
1.128697451E0,-1.289501667E0,5.539371073E-2,7.287734747E-1
1.148894117E0,-1.263935328E0,-2.412822098E-1,3.884217441E-1
1.169089430E0,-1.361939549E0,-3.627222776E-1,9.440898895E-2
1.189293857E0,-1.372592211E0,-2.364885211E-1,8.908267319E-2
1.209452190E0,-1.409876466E0,-5.486107618E-2,2.467416972E-1
1.229612346E0,-1.650093436E0,1.038632020E-1,3.026680350E-1
1.249775367E0,-2.046371460E0,1.768337637E-1,3.783017397E-1
1.269942138E0,-2.360624313E0,5.965476632E-1,5.950828791E-1
1.290113388E0,-2.632799149E0,1.090297341E0,8.193209171E-1
1.310289638E0,-2.857569695E0,1.148886800E0,8.534093499E-1
1.330471201E0,-2.813893795E0,7.313035131E-1,5.593965650E-1
1.350658180E0,-2.480998993E0,3.344927728E-1,2.424806356E-1
1.370850419E0,-2.254630566E0,5.118591785E-1,2.414153665E-1
1.391047555E0,-2.046904087E0,8.612656593E-1,2.818953991E-1
1.411249065E0,-2.033588409E0,7.531414032E-1,2.206427306E-1
1.431454274E0,-2.240249395E0,5.555350184E-1,1.482048035E-1
1.451662399E0,-2.517217875E0,9.209204316E-1,-3.342264518E-2
1.471872555E0,-2.348906279E0,1.883386135E0,-2.842922211E-1
1.492083805E0,-2.193910360E0,2.745184422E0,-2.688459158E-1
1.512292086E0,-2.122005224E0,2.553436995E0,-5.479449630E-1
1.532489013E0,-2.234390497E0,1.064731002E0,-7.966840267E-1
1.552675159E0,-2.077264071E0,3.030675054E-1,-1.063532591E0
1.572858805E0,-1.891908169E0,3.834949136E-1,-1.003345251E0
1.593042919E0,-1.862613440E0,6.705834866E-1,-6.507429481E-1
1.613227659E0,-1.841840863E0,5.001412630E-1,-5.685844645E-2
1.633413180E0,-1.251684785E0,-8.266445994E-1,2.009353489E-1
1.653599586E0,-2.796317041E-1,-2.116678953E0,-1.090563685E-1
1.673786930E0,-3.131875098E-1,-1.069524646E0,-2.214416862E-1
1.693975211E0,-9.251814485E-1,3.462106735E-2,-4.243744016E-1
1.714164430E0,-8.767119646E-1,-6.631265879E-1,-3.961449265E-1
1.734354534E0,-1.162735224E0,-1.323057413E0,1.183774248E-1
1.754545419E0,-1.200552106E0,-1.696964979E0,5.583313107E-1
1.774736982E0,-1.309741616E0,-1.829590321E0,6.190513372E-1
1.794929117E0,-1.798165083E0,-2.440519094E0,7.980156541E-1
1.815121669E0,-2.424540043E0,-2.816024542E0,1.539439082E0
1.835314482E0,-2.699378014E0,-2.323872566E0,2.497643709E0
1.855512815E0,-2.613091707E0,-1.938779831E0,3.057972431E0
1.875704378E0,-2.540121078E0,-1.174985766E0,3.046787262E0
1.895883909E0,-2.591786385E0,8.788424730E-2,2.155161619E0
1.916063961E0,-2.491118908E0,1.383244872E0,1.177782059E0
1.936244899E0,-2.331329584E0,6.348971128E-1,8.475503922E-1
1.956426982E0,-2.423474789E0,-1.169659495E0,1.461142182E0
1.976610419E0,-2.139049292E0,-2.606700182E0,1.794037104E0
1.996795367E0,-1.412006974E0,-4.245075583E-1,1.614540219E0
2.016981930E0,-1.605352283E0,1.189366817E0,1.600159168E0
2.037170159E0,-1.695367098E0,1.266065836E0,1.862213969E0
2.057360003E0,-1.218661547E0,1.753956556E0,2.792721748E0
2.077551357E0,-8.516782522E-1,3.451986790E0,3.679021120E0
2.097744065E0,-6.950845122E-1,5.065861225E0,4.369311810E0
2.117937919E0,-9.283772707E-1,3.608580589E0,4.324571133E0
2.138132659E0,-1.263935328E0,1.976596713E0,3.399389505E0
2.158327971E0,-6.929540038E-1,2.049567223E0,2.360224724E0
2.178553596E0,7.723161578E-2,1.639973402E0,1.869670868E0
2.198721305E0,3.589938581E-1,6.423539519E-1,1.583647609E0
2.218889846E0,5.166528821E-1,-3.036001325E-2,1.315201163E0
2.239059951E0,8.383625150E-1,-6.045371294E-1,1.243295789E0
2.259232346E0,8.410256505E-1,-2.993390858E-1,1.627323389E0
2.279407555E0,3.328948915E-1,-4.543349445E-1,2.088049889E0
2.299585992E0,2.828274965E-1,-6.727139950E-1,2.009752989E0
2.319767971E0,1.272990108E0,-9.065393806E-1,1.566070676E0
2.339953596E0,2.170474768E0,-1.257543683E0,2.079527855E0
2.360142867E0,2.428801060E0,-2.029327154E0,3.142128229E0
2.380335680E0,2.471944332E0,-2.492184401E0,4.284090996E0
2.400531721E0,2.143310547E0,-2.304165363E0,5.729121208E0
2.420730576E0,1.713476539E0,-1.561143875E0,6.621279240E0
2.440931721E0,1.016794205E0,-1.570731282E0,6.426336288E0
2.461134534E0,3.115896285E-1,-3.788077593E0,4.596213341E0
2.481338388E0,-9.427583218E-2,-6.232857704E0,1.473392725E0
2.501542659E0,2.764359117E-1,-6.533261776E0,-5.085302591E-1
2.521742971E0,9.353014827E-1,-6.049099445E0,-6.139913201E-1
2.541931721E0,-3.882885873E-1,-5.290631771E0,2.046637833E-1
2.562115055E0,-1.667670250E0,-3.477553129E0,1.202283144E0
2.582298805E0,-9.491499066E-1,-1.383244872E0,1.005209446E0
2.602483180E0,-4.005391300E-1,1.422126889E-1,9.187898599E-3
2.622668284E0,-8.096003532E-1,-3.861580789E-1,-8.446208835E-1
2.642854221E0,-1.594699621E0,-1.243162632E0,-1.025715709E0
2.663041096E0,-2.198171616E0,-1.270326853E0,-8.238482475E-1
2.683228909E0,-2.523077011E0,-1.050349951E0,-6.731134653E-1
2.703417659E0,-2.573677063E0,-8.101329803E-1,-6.566019058E-1
2.723607346E0,-2.587525368E0,-7.621961236E-1,-5.740439296E-1
2.743797867E0,-2.943323374E0,-6.727139950E-1,-4.962796867E-1
2.763989117E0,-3.423757315E0,-3.872233331E-1,-4.067975581E-1
2.784180992E0,-3.486075163E0,-1.587242782E-1,-4.494080842E-1
2.804373388E0,-3.382212162E0,-3.014696240E-1,-8.542082906E-1
2.824566096E0,-2.978477240E0,-1.471129060E0,-1.519998074E0
2.844759013E0,-2.321209431E0,-2.321209431E0,-1.687244415E0
2.864962763E0,-1.574459672E0,-1.655419707E0,-1.117328405E0
2.885142138E0,-6.753771305E-1,-7.472824454E-1,-5.330312848E-1
2.905321826E0,-1.118526794E-2,-2.455432713E-1,-2.395511568E-1
2.925502242E0,5.155876279E-1,-3.589938581E-1,-1.010668874E-1
2.945683596E0,9.507477880E-1,-6.093307734E-1,7.057371549E-3
2.965866201E0,1.231444716E0,-4.426170290E-1,-1.691105962E-2
2.986050263E0,1.342232227E0,-1.161137372E-1,-2.187785208E-1
3.006235888E0,1.366733193E0,-1.704421826E-2,-4.552670419E-1
3.026423180E0,1.342232227E0,-6.444845349E-2,-5.884249806E-1
3.046612138E0,1.021587849E0,-3.382211924E-1,-5.170523524E-1
3.066802659E0,1.304948032E-1,-3.973433375E-1,-3.231743574E-1
3.086994638E0,-4.000065029E-1,7.158571482E-1,-6.305029392E-1
3.107187867E0,-1.065263641E-3,1.924931407E0,-1.572728634E0
3.127382138E0,9.629983306E-1,2.226933718E0,-2.477669954E0
3.147577138E0,1.798697710E0,1.807752371E0,-3.055042982E0
3.167772659E0,1.462607026E0,8.580698371E-1,-2.696049213E0
3.187985888E0,-7.882951200E-2,-2.822948694E-1,-8.914924860E-1
3.208152763E0,-4.159854650E-1,-5.800360441E-1,5.695165992E-1
3.228320888E0,-3.249054030E-2,-1.337971091E0,7.319692969E-1
3.248491044E0,5.688507557E-1,-2.164083004E0,2.888196111E-1
3.268663909E0,1.243695259E0,-2.037849426E0,-1.665806025E-1
3.288840003E0,1.772598743E0,-7.462171912E-1,-5.601955056E-1
3.309019690E0,2.075666189E0,3.792338669E-1,-9.554083347E-1
3.329203232E0,2.120939970E0,7.499455810E-1,-1.164199948E0
3.349390680E0,1.239966869E0,-6.189181805E-1,-7.796398401E-1
3.369581930E0,1.384842768E-2,-2.043175697E0,-3.215764761E-1
3.389776774E0,-3.249054030E-2,-5.113265514E-1,-2.464753687E-1
3.409974794E0,4.378233552E-1,1.775261879E0,-4.993423447E-2
3.430175471E0,5.352949500E-1,2.310024261E0,9.920267761E-2
3.450378232E0,3.781685829E-1,1.389103770E0,2.197106183E-2
3.470582451E0,4.053328037E-1,1.182442605E-1,-7.323687430E-3
3.490787451E0,7.760445476E-1,-5.209138989E-1,5.233107507E-2
3.510990263E0,1.048219442E0,-5.651223660E-1,-4.673844203E-2
3.531184899E0,6.977477074E-1,-5.102612972E-1,-1.751027107E-1
3.551371044E0,-9.427583218E-2,-4.932170510E-1,-2.603237927E-1
3.571554690E0,-7.025413513E-1,-3.765707016E-1,-2.874880135E-1
3.591738805E0,-7.925561666E-1,-2.977411747E-1,-3.519364893E-1
3.611923544E0,-5.406212807E-1,-1.917474568E-1,-5.362271070E-1
3.632109065E0,-1.699095517E-1,-1.358211190E-1,-7.508777380E-1
3.652295471E0,1.459411234E-1,-3.621896505E-1,-8.717851043E-1
3.672482815E0,2.119874656E-1,-1.047686815E0,-9.623325467E-1
3.692671096E0,9.587372839E-2,-1.620798588E0,-9.399620295E-1
3.712860315E0,-9.853688627E-2,-1.750228167E0,-5.527386665E-1
3.733050419E0,-3.621896505E-1,-1.461541772E0,-1.261005849E-1
3.753241305E0,-8.436887860E-1,-1.459411144E0,2.414153665E-1
3.773432867E0,-1.497228026E0,-1.849830270E0,6.222470999E-1
3.793625003E0,-2.006423950E0,-1.710813403E0,5.721797347E-1
3.813817555E0,-2.444247484E0,-9.400951862E-1,2.952111959E-1
3.834010367E0,-2.506032705E0,-5.219791830E-2,-1.531316526E-2
3.854208701E0,-1.999499798E0,6.476802826E-1,-4.376901984E-1
3.874400003E0,-1.049284697E0,2.279664129E-1,-7.125282288E-1
3.894579013E0,3.249054030E-2,-1.315068007E0,-5.548691750E-1
3.914758544E0,6.338318586E-1,-2.291382074E0,-4.398207366E-1
3.934938961E0,8.591351509E-1,-2.442649603E0,-3.205111921E-1
3.955120576E0,1.011467814E0,-1.899897695E0,-2.448774725E-1
3.975303649E0,1.317731142E0,-1.161137342E0,-3.833617568E-1
3.995488336E0,1.483379602E0,-9.454214573E-1,-5.420860648E-1
4.015674742E0,1.669268131E0,-1.054610968E0,-5.687175989E-1
4.035862919E0,1.869537711E0,-1.242097378E0,-4.941491783E-1
4.056052815E0,1.996304035E0,-8.484824896E-1,-4.456796646E-1
4.076244274E0,2.127331495E0,7.456845604E-3,-4.131891429E-1
4.096437138E0,2.277001143E0,3.222422600E-1,-3.183806837E-1
4.116631201E0,1.800828218E0,-3.823231220E0,2.936132848E-1
4.136826201E0,1.934518814E0,-5.270924568E0,6.994787455E-1
4.157021878E0,1.682583928E0,-1.038632035E0,5.925529078E-2
4.177217919E0,9.267793596E-2,1.514272213E0,-6.012081504E-1
4.197413284E0,-1.404550076E0,1.415735364E0,-6.097303033E-1
4.217605003E0,-1.675659657E0,1.521196485E0,-3.551322520E-1
4.237793805E0,-1.275653243E0,1.482314348E0,-4.281028211E-1
4.257979846E0,-6.146571040E-1,1.396560669E0,-4.680502117E-1
4.278163388E0,6.444845349E-2,1.107874155E0,-1.420795321E-1
4.298347451E0,4.793686271E-1,8.607330322E-1,2.573943138E-1
4.318532190E0,4.921517968E-1,8.857667446E-1,2.408827394E-1
4.338717711E0,1.374190152E-1,7.914909124E-1,1.492700726E-1
4.358904117E0,-3.078611791E-1,8.117309213E-1,2.707101107E-1
4.379091461E0,-5.912213326E-1,1.257543683E0,3.980091214E-1
4.399279742E0,-6.849645376E-1,1.504152298E0,4.544681013E-1
4.419468961E0,-6.572676897E-1,1.253815293E0,5.034702420E-1
4.439659065E0,-5.571328998E-1,8.442214131E-1,5.359607935E-1
4.459849951E0,-3.834949136E-1,5.406212807E-1,5.056007504E-1
4.480041513E0,-1.480716467E-1,3.717769980E-1,4.304996729E-1
4.500233649E0,1.075916290E-1,2.279664129E-1,3.410175145E-1
4.520426201E0,3.664506972E-1,2.455432713E-1,1.748363972E-1
4.540619013E0,5.736444592E-1,4.804339111E-1,-1.371526904E-2
4.560817346E0,4.921517968E-1,6.285055280E-1,1.731053460E-3
4.581008649E0,-1.491369158E-1,5.645897239E-2,2.083922029E-1
4.601187659E0,-7.547392845E-1,1.816274524E-1,5.109270811E-1
4.621367190E0,-9.411604404E-1,1.319861650E0,6.046702862E-1
4.641547607E0,-1.006141543E0,2.111352444E0,5.972134471E-1
4.661729221E0,-9.331709743E-1,2.115081072E0,6.238450408E-1
4.681932711E0,-7.020087242E-1,1.896701932E0,5.226449966E-1
4.702136461E0,-4.213117659E-1,1.648495436E0,4.502070546E-1
4.722325315E0,-2.135853618E-1,1.468465924E0,3.420827985E-1
4.742508753E0,-4.367581010E-2,1.428518534E0,2.004027218E-1
4.762692607E0,8.948214352E-2,1.498825908E0,1.023984700E-1
4.782876982E0,-5.326318205E-4,1.780588150E0,-5.153212696E-2
4.803062086E0,-4.692486227E-1,2.078861952E0,-2.251701057E-1
4.823248024E0,-9.560741186E-1,2.092177868E0,-2.672480047E-1
4.843434899E0,-1.095090985E0,1.715074420E0,-1.735048145E-1
4.863622711E0,-8.751140833E-1,8.681898713E-1,3.581948951E-2
4.883811461E0,3.707117438E-1,-1.616004944E0,4.496744275E-1
4.904001149E0,1.853558719E-1,-5.848297477E-1,6.978808641E-1
4.924191669E0,4.053328037E-1,1.220792174E0,9.114661813E-1
4.944382919E0,-1.406148076E-1,4.510326385E0,4.571312666E-1
4.964574794E0,-1.384310126E0,5.667202473E0,-2.320943177E-1
4.984767190E0,-2.278599024E0,5.428583622E0,-3.466101587E-1
5.004959899E0,-1.617070198E0,3.234673023E0,-1.319595277E-1
5.025152711E0,-4.873581231E-1,-9.390298724E-1,-9.847030640E-1
5.045356357E0,-5.858949944E-2,-1.589373350E0,-1.118393660E0
5.065535003E0,-2.812296152E-1,-1.561676502E0,-3.226417303E-1
5.085713961E0,-3.739075363E-1,-1.258608937E0,3.074617088E-1
5.105893649E0,-2.801643312E-1,4.261054564E-3,5.391565561E-1
5.126074378E0,-3.051980436E-1,7.249119282E-1,6.946850419E-1
5.146256461E0,-3.952127993E-1,6.705834866E-1,6.978808641E-1
5.166440107E0,-5.044023395E-1,5.395560265E-1,6.845650673E-1
5.186625419E0,-6.455497742E-1,7.110635042E-1,7.314366698E-1
5.206812503E0,-6.519413590E-1,7.973498106E-1,7.681882381E-1
5.227001357E0,-3.834949136E-1,5.976129174E-1,6.685860753E-1
5.247191878E0,9.960214794E-2,3.637875319E-1,3.308975101E-1
5.267383961E0,5.049349666E-1,3.888212144E-2,7.629951090E-2
5.287577399E0,4.894886315E-1,-1.661811322E-1,2.435459048E-1
5.307771982E0,3.840275407E-1,1.544632316E-1,1.498026997E-1
5.327967399E0,3.909517527E-1,8.612656593E-1,-1.479384899E-1
5.348163336E0,2.849580348E-1,1.057806849E0,-9.574057162E-2
5.368359482E0,2.375537902E-1,3.270359337E-1,1.540637612E-1
5.388550211E0,2.178464085E-1,1.459411234E-1,2.541985512E-1
5.408741044E0,2.753706574E-1,4.767054915E-1,3.058638275E-1
5.428942711E0,5.613939166E-1,3.648527861E-1,3.825628161E-1
5.449121982E0,9.970867634E-1,-6.961497664E-1,1.657816470E-1
5.469301565E0,1.364602685E0,-1.381646991E0,-2.490053698E-2
5.489481878E0,1.546230197E0,-1.113733172E0,-1.564605981E-1
5.509663232E0,1.477520704E0,-1.933453530E-1,-1.751027107E-1
5.529845836E0,1.290566921E0,7.323687673E-1,-1.904158667E-2
5.550029899E0,1.039164662E0,7.515435219E-1,2.275669426E-1
5.570215524E0,7.179877162E-1,2.407495826E-1,4.134554565E-1
5.590402815E0,5.656549931E-1,2.034653574E-1,4.645881057E-1
5.610591774E0,7.414234877E-1,-2.077264152E-2,4.837628603E-1
5.630782294E0,1.038632035E0,-2.524674833E-1,4.486091435E-1
5.650974274E0,9.912278056E-1,5.805686861E-2,3.346259296E-1
5.671167503E0,4.181159735E-1,5.949497223E-1,1.093226820E-1
5.691384742E0,-1.038632020E-1,8.809730411E-1,-1.937448233E-1
5.711576201E0,-1.294295341E-1,5.976129174E-1,-3.695133328E-1
5.731762242E0,1.171789989E-1,-9.161267430E-2,-3.274354041E-1
5.751945784E0,2.130527347E-1,-8.420909047E-1,-4.211786091E-1
5.772129794E0,-3.387538493E-1,-9.645962119E-1,-7.093324065E-1
5.792314430E0,-1.284707904E0,-4.340949357E-1,-1.303749561E0
5.812499846E0,-1.890842915E0,-3.121222556E-1,-2.029194117E0
5.832686149E0,-2.245043039E0,-4.426170290E-1,-2.191646814E0
5.852873388E0,-2.482064247E0,-9.507477880E-1,-1.533846498E0
5.873061565E0,-2.601906538E0,-2.246108294E0,-2.597911656E-1
5.893250680E0,-2.429333687E0,-2.800578117E0,9.886978269E-1
5.913440680E0,-2.062350512E0,-1.905756712E0,1.534645438E0
5.933631513E0,-1.856221914E0,-5.981455445E-1,1.282710552E0
5.953823076E0,-1.849297643E0,3.296990991E-1,2.419480085E-1
5.974015211E0,-1.709215522E0,7.403582335E-2,-9.559409618E-1
5.994207763E0,-1.365667939E0,-5.853623748E-1,-1.780987620E0
6.014400576E0,-9.816404581E-1,-1.046621561E0,-2.047303677E0
6.034598909E0,-6.796382070E-1,-1.595232248E0,-1.862480283E0
6.054790263E0,-5.928192139E-1,-1.887647152E0,-1.319728494E0
6.074969378E0,-4.303665161E-1,-1.823198676E0,-7.008103132E-1
6.095149013E0,-2.024000883E-2,-1.453552246E0,-2.677806616E-1
6.115329534E0,3.579285741E-1,-8.799077868E-1,1.557948068E-2
6.135511201E0,6.508761048E-1,-3.201117218E-1,2.675143182E-1
6.155694221E0,9.358341098E-1,1.502021700E-1,4.816323221E-1
6.175878805E0,1.260206938E0,6.578003168E-1,5.572660565E-1
6.196065055E0,1.669268131E0,1.272457361E0,5.641902685E-1
6.216252971E0,1.901495576E0,1.643169165E0,6.185187101E-1
6.236442555E0,1.520131230E0,1.372592211E0,5.029376149E-1
6.256633753E0,4.053328037E-1,8.213182688E-1,-2.102564126E-1
6.276826409E0,-5.235770941E-1,6.418213248E-1,-1.081109405E0
6.297020263E0,-7.888277173E-1,1.513739586E0,-9.069388509E-1
6.317215055E0,-6.945518851E-1,2.387255907E0,-3.375554085E-1
6.337410524E0,-1.549958587E-1,2.112417698E0,3.639206886E-1
6.357606357E0,6.727139950E-1,9.843035936E-1,1.097887397E0
6.377802138E0,1.285240531E0,5.858950019E-1,1.490437031E0
6.397994326E0,1.187236309E0,7.547392845E-1,1.605485439E0
6.418180367E0,8.170571923E-1,6.823013425E-1,1.477653861E0
6.438363909E0,5.539370775E-1,5.379581451E-1,1.380714893E0
6.458547919E0,3.984085917E-1,4.761728346E-1,1.131443143E0
6.478732555E0,3.664506972E-1,3.712443709E-1,5.226449966E-1
6.498917971E0,4.159854650E-1,2.141179889E-1,-3.595264861E-3
6.519104274E0,5.065328479E-1,3.382211924E-1,-2.214416862E-1
6.539291513E0,6.593981981E-1,6.833665967E-1,-3.114564717E-1
6.559479690E0,8.516782522E-1,7.994803786E-1,-4.824312627E-1
6.579668805E0,1.644234419E0,8.218508959E-1,-4.962796867E-1
6.599858805E0,1.834383965E0,1.059937358E0,-2.688459158E-1
6.620049586E0,4.490086138E-1,1.643169165E0,1.078579482E-2
6.640241044E0,-9.432909489E-1,2.400038958E0,8.641951531E-2
6.660433076E0,-1.158474207E0,2.821350813E0,2.623211779E-2
6.680651044E0,-3.318296373E-1,2.764891863E0,1.268995255E-1
6.700825628E0,4.335623085E-1,1.805089235E0,3.351585865E-1
6.721000732E0,4.468781054E-1,8.532761931E-1,4.454133511E-1
6.741176878E0,1.304948032E-1,8.351666927E-1,2.616553903E-1
6.761354482E0,-1.784316599E-1,1.251684785E0,-1.276984811E-1
6.781533961E0,-6.801708341E-1,1.061535239E0,-4.302333593E-1
6.801715628E0,-1.015728831E0,6.109287143E-1,-5.543365479E-1
6.821899690E0,-8.745814562E-1,2.822948694E-1,-7.929556370E-1
6.842086253E0,-8.527435660E-1,-3.600591123E-1,-1.110404134E0
6.862275315E0,-1.370994329E0,-9.187898636E-1,-1.424124360E0
6.882466774E0,-1.953160882E0,-1.134505749E0,-1.695233941E0
6.902660419E0,-2.390984297E0,-1.250086904E0,-1.665939212E0
6.922855940E0,-2.592319012E0,-1.023718357E0,-1.219061136E0
6.943052919E0,-2.407495737E0,-8.143940568E-1,-3.285006881E-1
6.963251044E0,-2.409626245E0,-1.017859459E0,2.856238186E-1
6.983449899E0,-2.483662128E0,-5.139896870E-1,3.862912357E-1
7.003649065E0,-2.117211580E0,-2.434127480E-1,3.356912136E-1
7.023845419E0,-1.440236449E0,-1.070057273E0,7.590003312E-3
7.044034169E0,-8.080024719E-1,-2.405365229E0,-4.526038766E-1
7.064233753E0,-8.287751079E-1,-2.515619993E0,-6.411555409E-1
7.084411565E0,-9.459540844E-1,-1.632516503E0,-5.522060394E-1
7.104589794E0,-8.713856339E-1,-8.207856417E-1,-3.956122994E-1
7.124768857E0,-6.641919017E-1,-4.314317703E-1,-2.198437899E-1
7.144949065E0,-1.054610983E-1,-5.251749754E-1,-6.325002760E-2
7.165130732E0,6.950845122E-1,-6.380929351E-1,2.729738131E-2
7.185314065E0,1.400821686E0,-2.370211631E-1,1.125184745E-1
7.205499169E0,2.024000883E0,2.934801280E-1,2.259690464E-1
7.225686149E0,2.519881248E0,7.036066055E-1,3.713775277E-1
7.245875003E0,2.580068588E0,9.805752039E-1,3.783017397E-1
7.266065628E0,1.915344000E0,1.153680563E0,2.755038142E-1
7.286257919E0,2.348906398E-1,2.082590461E-1,-8.402267098E-2
7.306451669E0,-6.737792492E-1,-5.912213027E-2,-5.085302591E-1
7.326646565E0,-6.407560706E-1,8.777772188E-1,-3.679154217E-1
7.346842399E0,-3.691138625E-1,1.147821546E0,1.774995476E-1
7.367038753E0,2.439453751E-1,6.934866309E-1,7.506113648E-1
7.387235315E0,4.889560044E-1,8.783098459E-1,9.732515216E-1
7.407431253E0,3.137201369E-1,7.259771824E-1,9.460873008E-1
7.427620003E0,1.757684946E-1,3.137201369E-1,7.777756453E-1
7.447808649E0,1.507348120E-1,1.257011145E-1,6.419544816E-1
7.467991878E0,2.801643312E-1,1.672463864E-1,3.857586086E-1
7.488175524E0,6.460824013E-1,1.422126889E-1,9.707214683E-2
7.508359794E0,9.997498989E-1,7.563371956E-2,-1.165132076E-1
7.528544794E0,1.190432072E0,-9.267793596E-2,-4.728438854E-1
7.548730628E0,1.729455471E0,2.130527347E-1,-4.408859909E-1
7.568917399E0,2.654637098E0,1.078046799E0,-1.958753467E-1
7.589105107E0,2.382994652E0,1.051415205E0,-1.894837767E-1
7.609293753E0,7.984151244E-1,3.728422821E-1,-1.850895584E-2
7.629483336E0,-5.182507634E-1,1.126516342E0,8.375635743E-2
7.649673753E0,-6.439518929E-1,2.409093618E0,1.476721764E-1
7.669864899E0,-3.089264631E-1,2.543316841E0,1.705753356E-1
7.690078024E0,5.060002208E-2,1.751293421E0,2.483395934E-1
7.710257451E0,6.258423924E-1,1.051415205E0,4.081291258E-1
7.730437399E0,1.176583648E0,8.916256428E-1,5.695165992E-1
7.750618180E0,1.249554276E0,6.375603080E-1,6.302366257E-1
7.770800055E0,7.520761490E-1,2.253032625E-1,5.056007504E-1
7.790983284E0,-1.374190152E-1,5.619265437E-1,2.733732760E-1
7.811168024E0,-7.920235395E-1,8.117309213E-1,3.102580272E-2
7.831354378E0,-6.892255545E-1,2.881538272E-1,-2.864227593E-1
7.851542399E0,-1.512674391E-1,-4.948149621E-1,-7.311703563E-1
7.871732034E0,-5.805686861E-2,-1.012533069E0,-1.010802031E0
7.891923180E0,-6.103960872E-1,-1.344362736E0,-1.303216934E0
7.912115680E0,-1.324655294E0,-1.413604856E0,-1.620132804E0
7.932309326E0,-1.814144015E0,-1.278316379E0,-1.538107514E0
7.952503857E0,-2.033588409E0,-1.325720549E0,-9.500820041E-1
7.972699013E0,-2.075133562E0,-1.263402700E0,-7.869634777E-2
7.992894534E0,-2.192845106E0,-1.241032124E0,6.850976944E-1
8.013089586E0,-2.327600956E0,-1.149952054E0,9.104009271E-1
8.033281201E0,-2.210954666E0,-8.665919900E-1,6.275734305E-1
8.053469899E0,-1.890310287E0,-7.579351068E-1,8.855003864E-2
8.073663961E0,-1.344895363E0,-1.103080511E0,-4.057323039E-1
8.093852659E0,-9.598025680E-1,-2.065013647E0,-7.716503739E-1
8.114030784E0,-7.590003610E-1,-2.687127590E0,-8.217177391E-1
8.134209482E0,-4.106591344E-1,-2.591786385E0,-7.130608559E-1
8.154389117E0,-2.753706574E-1,-1.683116555E0,-7.056040168E-1
8.174570055E0,-1.326253265E-1,-6.812360883E-1,-5.378249884E-1
8.194752555E0,2.503369451E-1,-6.604634225E-2,-2.773680091E-1
8.214936774E0,8.016108871E-1,2.689790726E-1,-9.321057005E-4
8.235122815E0,1.355548024E0,6.024065614E-1,3.149185777E-1
8.255310732E0,1.776859760E0,8.149266839E-1,5.471460223E-1
8.275500471E0,2.033588409E0,8.804404140E-1,6.078660488E-1
8.295691930E0,1.499358535E0,3.760380745E-1,3.362238407E-1
8.315884951E0,1.571263820E-1,-7.749792933E-1,-3.205111921E-1
8.336079274E0,-5.486107618E-2,-4.378233552E-1,-6.757766008E-1
8.356274586E0,-1.134505793E-1,7.984151244E-1,-4.328965247E-1
8.376470576E0,-2.450106293E-2,1.793903947E0,9.227846563E-2
8.396666930E0,7.739140391E-1,1.862613440E0,1.172988415E0
8.416862919E0,1.109472036E0,1.734249234E0,1.810016036E0
8.437055003E0,8.000130057E-1,1.001880407E0,1.631051779E0
8.457240940E0,4.964128435E-1,2.466085255E-1,1.086702108E0
8.477424378E0,5.155876279E-1,-1.336905807E-1,6.840324402E-1
8.497608284E0,7.227813601E-1,-7.451519370E-1,3.532680571E-1
8.517792815E0,1.019457340E0,-1.244760513E0,-5.193160381E-3
8.537978128E0,1.163800478E0,-1.049817324E0,-3.966775537E-1
8.558164326E0,1.077514172E0,-2.508696020E-1,-7.167892456E-1
8.578351461E0,9.970867634E-1,7.835013866E-1,-6.720482111E-1
8.598539534E0,1.110537291E0,1.076981544E0,-5.836313367E-1
8.618728544E0,1.340634346E0,3.882885873E-1,-4.094607234E-1
8.638918492E0,1.110537291E0,3.472759426E-1,-1.431448013E-1
8.659109274E0,3.808317482E-1,1.309741616E0,8.655266836E-3
8.679330524E0,-2.476737946E-1,2.076731443E0,5.392897129E-2
8.699507815E0,-3.611243665E-1,2.138516665E0,5.978792161E-2
8.719685524E0,5.326318089E-3,1.696964979E0,1.865542978E-1
8.739864065E0,8.644614220E-1,1.115863681E0,4.704470634E-1
8.760043857E0,1.548893332E0,8.255793452E-1,7.159903049E-1
8.780225107E0,1.500956416E0,7.185203433E-1,8.299735188E-1
8.800408128E0,1.118526816E0,3.536675274E-1,7.325019240E-1
8.820593024E0,4.799012840E-1,2.061285079E-1,4.656533599E-1
8.840779899E0,-5.448823571E-1,5.166528821E-1,1.615206003E-1
8.860968753E0,-1.040229917E0,5.432844758E-1,-1.926795542E-1
8.881159482E0,-7.099981904E-1,1.363537461E-1,-8.068040609E-1
8.901351982E0,-2.348906398E-1,-4.271707237E-1,-1.376187444E0
8.921545940E0,-4.894886315E-1,-9.432909489E-1,-1.312271595E0
8.941741149E0,-1.129712105E0,-1.579253316E0,-1.466202259E0
8.961937294E0,-1.727324963E0,-2.029327154E0,-1.644101262E0
8.982134065E0,-2.147038937E0,-1.642103910E0,-1.364469528E0
9.002331044E0,-2.313752651E0,-7.302381992E-1,-6.757766008E-1
9.022526565E0,-2.478335857E0,-4.058654606E-1,2.739059031E-1
9.042715211E0,-2.735064507E0,-9.225183129E-1,1.087234735E0
9.062914690E0,-2.792588711E0,-1.117461562E0,1.079245210E0
9.083092503E0,-2.470879078E0,-1.139299512E0,4.944154918E-1
9.103270732E0,-1.624527097E0,-1.622929215E0,-2.768353820E-1
9.123449794E0,-7.771098018E-1,-2.634929657E0,-1.232376933E0
9.143630003E0,-6.173202991E-1,-3.009902477E0,-1.504551768E0
9.163811669E0,-4.564654827E-1,-2.655702353E0,-8.760461807E-1
9.183995003E0,-2.253032625E-1,-1.892973542E0,-3.961449265E-1
9.204180107E0,-1.576590240E-1,-9.246488214E-1,-3.226417303E-1
9.224367086E0,6.391582079E-3,-6.924213469E-2,-2.608564198E-1
9.244555940E0,5.038697124E-1,3.685812056E-1,-1.729721874E-1
9.264746565E0,1.091895223E0,5.512739420E-1,-2.809632942E-2
9.284938857E0,1.579785943E0,6.194508076E-1,1.876195520E-1
9.305132607E0,1.855689287E0,6.977477074E-1,4.342280924E-1
9.325327503E0,1.889245033E0,9.480846524E-1,5.247755051E-1
9.345523232E0,1.249021649E0,8.831035495E-1,4.091944098E-1
9.365719482E0,-1.800295562E-1,-4.340949357E-1,-8.934898674E-2
9.385915940E0,-3.930822909E-1,2.940127552E-1,-5.063996911E-1
9.406111044E0,-4.932170510E-1,1.431714296E0,-2.294311523E-1
9.426299690E0,-4.809665382E-1,1.816274524E0,3.026680350E-1
9.446482919E0,3.589938581E-1,1.398691177E0,1.058472633E0
9.466666565E0,1.006141543E0,1.225585818E0,1.390302181E0
9.486850732E0,1.144625783E0,9.789772630E-1,1.378051639E0
9.507035628E0,1.092960477E0,2.476737946E-1,1.065929413E0
9.527221357E0,1.051947832E0,-4.213117659E-1,7.154576778E-1
9.547408024E0,1.132375240E0,-7.563371658E-1,2.909501195E-1
9.567595628E0,1.301752210E0,-1.152082682E0,-2.118543088E-1
9.587784169E0,1.533447027E0,-1.945171356E0,-6.454166174E-1
9.607973649E0,1.682583928E0,-1.775261879E0,-6.693850160E-1
9.628163961E0,1.935584068E0,-7.126613855E-1,1.886848211E-1
9.648355003E0,1.901495576E0,3.025348783E-1,1.060070515E0
9.668546669E0,6.743118763E-1,6.093307734E-1,1.924132407E-1
9.688760576E0,-5.896234512E-1,8.191877604E-1,-6.832334399E-1
9.708932346E0,-8.367645741E-1,2.356363058E0,-7.199850678E-1
9.729105055E0,-6.210486889E-1,3.784881830E0,-3.860249221E-1
9.749279326E0,-4.878907502E-1,4.000064850E0,-2.741722167E-1
9.769455680E0,-3.936149180E-1,3.411506891E0,-2.150501013E-1
9.789634482E0,-4.048001766E-2,2.371809483E0,4.700475931E-2
9.809834221E0,1.208541632E0,1.176583648E0,4.970786572E-1
9.830054326E0,2.072470427E0,1.502021700E-1,8.273103833E-1
9.850261096E0,2.042643070E0,-4.143875539E-1,6.627271175E-1
9.870449742E0,1.537175417E0,-3.978759646E-1,2.158490419E-1
9.890649221E0,-4.900212586E-2,3.030675054E-1,-1.117195264E-1
9.910827034E0,-1.315600634E0,7.696529627E-1,-4.036017656E-1
9.931005263E0,-1.146756291E0,3.483411968E-1,-7.146587372E-1
9.951184326E0,-4.948149621E-1,-2.444780022E-1,-8.835030198E-1
9.971364534E0,-4.649875760E-1,-7.366297841E-1,-9.905620217E-1
9.991546201E0,-1.192562699E0,-1.786447167E0,-1.239301085E0
1.001172953E1,-2.097504139E0,-2.426137924E0,-1.137568355E0
1.003191464E1,-2.379266262E0,-1.732651353E0,-6.235787272E-1
1.005210162E1,-2.209889412E0,-7.819035053E-1,1.025316212E-2
1.007229047E1,-2.176333666E0,-7.675224543E-1,3.910849094E-1
1.009248110E1,-2.377135754E0,-1.183507919E0,4.443480968E-1
1.011267328E1,-2.265815735E0,-7.259771824E-1,3.969438672E-1
1.013286693E1,-2.032522917E0,-6.657897681E-2,1.934785098E-1
1.015306172E1,-1.546762824E0,-4.905539155E-1,-5.206476152E-2
1.017325735E1,-9.997498989E-1,-1.861015558E0,-6.017407775E-1
1.019346714E1,-9.571393728E-1,-2.724411726E0,-1.156210542E0
1.021365641E1,-8.958867192E-1,-2.582199097E0,-1.288835883E0
1.023384235E1,-5.406212807E-1,-1.716139674E0,-1.171656847E0
1.025402578E1,-1.129179448E-1,-7.206508517E-1,-9.090693593E-1
1.027420969E1,2.844253778E-1,-1.422126889E-1,-5.170523524E-1
1.029439422E1,7.254445553E-1,1.475390196E-1,-2.155827284E-1
1.031457953E1,1.210139513E0,4.591286182E-1,5.286370963E-2
1.033476573E1,1.623994470E0,8.474172354E-1,4.470112622E-1
1.035496047E1,1.963280916E0,1.080177307E0,7.713840604E-1
1.037517412E1,1.812546134E0,8.229161501E-1,7.996135354E-1
1.039535401E1,3.723096550E-1,-8.277098536E-1,1.018658355E-1
1.041553422E1,-1.928127259E-1,-1.058339477E0,-7.583345771E-1
1.043571506E1,-1.613874435E-1,2.695116997E-1,-6.768419147E-1
1.045589683E1,-1.214400530E-1,1.519598603E0,-2.715090811E-1
1.047607974E1,6.689855456E-1,1.929192424E0,6.574008465E-1
1.049626401E1,1.503619671E0,1.828525066E0,1.754622340E0
1.051644974E1,7.547392845E-1,8.996151686E-1,2.200435162E0
1.053663693E1,6.018739566E-2,3.249054253E-1,1.617735982E0
1.055682558E1,3.957454562E-1,9.491499066E-1,8.076030016E-1
1.057701568E1,6.860297918E-1,1.219726920E0,2.403501123E-1
1.059720714E1,8.335688114E-1,8.602004051E-1,-1.298290044E-1
1.061739974E1,9.070720077E-1,1.810948178E-2,-5.340965390E-1
1.063759328E1,9.299751520E-1,-5.528718233E-1,-8.776440620E-1
1.065778756E1,8.436887860E-1,-2.077264152E-2,-7.285071611E-1
1.067798224E1,7.323687673E-1,1.117461562E0,-2.869553864E-1
1.069817714E1,6.578003168E-1,1.586710215E0,5.179844424E-2
1.071837172E1,4.298338890E-1,1.102547869E-1,1.572595388E-1
1.073856037E1,5.640571117E-1,-4.239749312E-1,2.419480085E-1
1.075874891E1,9.864341021E-1,1.016261458E0,3.857586086E-1
1.077893203E1,8.815056682E-1,1.966476679E0,3.905522823E-1
1.079911558E1,4.308991432E-1,1.842906117E0,2.840259075E-1
1.081929974E1,1.651158631E-1,1.124385715E0,2.776343226E-1
1.083948464E1,6.546044946E-1,7.105308771E-1,3.266364634E-1
1.085967037E1,1.352352142E0,8.916256428E-1,5.348954797E-1
1.087985703E1,1.074318409E0,9.411604404E-1,6.717818975E-1
1.090004464E1,1.619200706E-1,2.407495826E-1,5.087965727E-1
1.092023318E1,-3.350254297E-1,1.981390417E-1,2.882869840E-1
1.094042266E1,-4.873581231E-1,5.581981540E-1,-8.921583183E-3
1.096061297E1,-6.247771382E-1,2.231727391E-1,-3.535343707E-1
1.098080401E1,-5.406212807E-1,-1.102547869E-1,-7.183871865E-1
1.100099568E1,-5.896234512E-1,-1.352884769E-1,-1.110936761E0
1.102118787E1,-1.235705853E0,-4.431496859E-1,-1.561543345E0
1.104138037E1,-1.965411425E0,-7.691203356E-1,-1.961017251E0
1.106157297E1,-2.370744228E0,-3.595264852E-1,-1.999366641E0
1.108177641E1,-2.361689568E0,2.668485343E-1,-1.400688529E0
1.110195506E1,-2.063948393E0,-4.346275628E-1,-1.990711391E-1
1.112213401E1,-1.817339778E0,-1.930257678E0,1.070190430E0
1.114231370E1,-1.661278605E0,-1.967541933E0,1.397759080E0
1.116249443E1,-1.640506029E0,-1.454617500E0,9.620662332E-1
1.118267651E1,-1.556882858E0,-1.194693208E0,2.004027218E-1
1.120286016E1,-1.122255206E0,-1.066328883E0,-3.210438192E-1
1.122304547E1,-6.807034612E-1,-1.087101579E0,-8.233156204E-1
1.124323256E1,-7.936214209E-1,-8.815056682E-1,-1.044890523E0
1.126342131E1,-9.353014827E-1,-7.462171912E-1,-8.595346212E-1
1.128361172E1,-8.000130057E-1,-8.394277692E-1,-5.282375813E-1
1.130380360E1,-4.074633420E-1,-5.704486966E-1,-1.213068962E-1
1.132399683E1,5.113265663E-2,-7.776424289E-2,1.950764060E-1
1.134419110E1,3.850927949E-1,3.600591123E-1,4.454133511E-1
1.136438620E1,6.380929351E-1,5.411539078E-1,5.178512931E-1
1.138458183E1,9.438235760E-1,5.725792050E-1,5.034702420E-1
1.140477766E1,1.288969040E0,9.193225503E-1,4.581965208E-1
1.142497256E1,1.733716607E0,1.845036626E0,3.665838540E-1
1.144516110E1,1.557415485E0,1.658082843E0,3.005374968E-1
1.146534422E1,3.265033066E-1,-2.561959028E-1,-2.294311523E-1
1.148552776E1,-3.318296373E-1,-1.944106072E-1,-9.724525213E-1
1.150571183E1,-4.878907502E-1,1.267131090E0,-7.130608559E-1
1.152589662E1,-2.269011587E-1,2.418681145E0,-1.745700836E-1
1.154608224E1,5.986781716E-1,1.983520865E0,5.663207769E-1
1.156626880E1,1.372059584E0,9.209204316E-1,1.256078959E0
1.158645630E1,1.045023680E0,5.976129174E-1,1.325853705E0
1.160664474E1,4.239749312E-1,3.494064808E-1,1.103746295E0
1.162683412E1,1.640505940E-1,1.262337416E-1,9.354346395E-1
1.164702443E1,9.321057051E-2,-1.012000442E-2,7.820366621E-1
1.166721547E1,2.295643091E-1,3.728422895E-2,4.656533599E-1
1.168740714E1,4.452801943E-1,4.814991653E-1,6.831002980E-2
1.170759933E1,5.411539078E-1,1.390701652E0,-2.155827284E-1
1.172779183E1,5.470128655E-1,2.017076731E0,-2.336922139E-1
1.174798453E1,5.251749754E-1,1.442366958E0,-3.956122994E-1
1.176818808E1,6.157223582E-1,-2.407495826E-1,-6.885597706E-1
1.178836693E1,9.933583736E-1,-7.914909124E-1,-5.633913279E-1
1.180848453E1,8.122635484E-1,8.559393287E-1,5.992108025E-3
1.182860776E1,-3.568633273E-2,2.214683056E0,4.139880836E-1
1.184873901E1,-6.679202914E-1,2.248771429E0,1.508679688E-1
1.186888026E1,-4.937497079E-1,2.121472597E0,8.428898454E-2
1.188903297E1,2.844253778E-1,2.053828239E0,4.406196773E-1
1.190919818E1,7.755119205E-1,1.715607047E0,8.342345953E-1
1.192937630E1,8.303729892E-1,1.410941720E0,9.375651479E-1
1.194956724E1,8.250467181E-1,9.225183129E-1,9.189230204E-1
1.196977037E1,6.199834347E-1,5.198486447E-1,6.866955757E-1
1.198998464E1,3.462106735E-2,4.564654827E-1,2.451438010E-1
1.201020860E1,-4.388886094E-1,2.908169627E-1,-1.639174372E-1
1.203044037E1,-2.775011659E-1,-5.060002208E-2,-4.344944060E-1
1.205067797E1,6.977476925E-2,-1.597895473E-1,-6.949513555E-1
1.207091922E1,-4.239749312E-1,-3.914843798E-1,-1.026780963E0
1.209116183E1,-1.568068027E0,-7.302381992E-1,-1.405482173E0
1.211138401E1,-2.360091686E0,-9.353014827E-1,-1.860349774E0
1.213157256E1,-2.725476980E0,-1.029577255E0,-1.906688809E0
1.215175568E1,-2.926811934E0,-1.439703822E0,-1.365534782E0
1.217193922E1,-3.206976175E0,-2.463422060E0,-1.868206114E-1
1.219212328E1,-3.081807613E0,-2.635462284E0,1.072853684E0
1.221230808E1,-2.482596874E0,-1.605884910E0,1.474990726E0
1.223249370E1,-2.153963089E0,-6.205160618E-1,9.338367581E-1
1.225268026E1,-1.922800899E0,-9.379646182E-1,-7.070687413E-2
1.227286776E1,-2.442116976E0,-1.540903807E0,-1.164732575E0
1.229305620E1,-3.523359537E0,-1.740640759E0,-1.719735026E0
1.231326604E1,-3.832285881E0,-1.736912370E0,-1.730387568E0
1.233345818E1,-3.159039259E0,-1.305480599E0,-1.456082225E0
1.235365214E1,-2.310556889E0,-1.128114223E0,-1.138101101E0
1.237384068E1,-2.030925035E0,-9.235835671E-1,-9.825725555E-1
1.239401860E1,-1.888712406E0,-9.795098901E-1,-9.266462326E-1
1.241419714E1,-1.521729112E0,-1.109472036E0,-8.781766891E-1
1.243437667E1,-8.058719635E-1,-7.169224024E-1,-6.805703044E-1
1.245455750E1,-4.474107176E-2,-5.693834424E-1,-3.977428079E-1
1.247473990E1,5.432844758E-1,-8.303729892E-1,-2.390185297E-1
1.249492401E1,7.728487849E-1,-1.027979374E0,-2.438122183E-1
1.251510995E1,6.695181727E-1,-5.459476113E-1,-5.287702680E-1
1.253529776E1,7.275750637E-1,-1.832253486E-1,-6.107955575E-1
1.255548740E1,2.101765156E0,-2.561959028E-1,-3.199785650E-1
1.257567875E1,1.529186010E0,-1.460476398E0,9.173251390E-1
1.259587167E1,2.347308397E0,-9.970867634E-1,1.019057870E0
1.261606589E1,4.135886192E0,1.530251265E0,4.299670458E-1
1.263626110E1,2.568883181E0,2.732401133E0,6.536723971E-1
1.265645698E1,1.736379743E0,2.325470448E0,1.019057870E0
1.267665323E1,1.649028063E0,1.500956416E0,1.543167591E0
1.269684886E1,1.918007135E0,1.163800478E0,1.863811851E0
1.271704058E1,2.403767347E0,1.798697710E0,1.638508677E0
1.273722641E1,2.457563162E0,2.645582199E0,7.612640262E-1
1.275740974E1,1.814676642E0,2.684997082E0,-4.780370742E-2
1.277759354E1,1.361406922E0,2.174735785E0,-2.443448454E-1
1.279777797E1,1.505217552E0,1.905223966E0,-1.287637353E-1
1.281796318E1,1.654887080E0,1.622396469E0,1.774995476E-1
1.283814927E1,1.398691177E0,1.563807011E0,2.600574791E-1
1.285833631E1,9.880320430E-1,1.363004804E0,9.600688517E-2
1.287852427E1,6.854971647E-1,7.195855975E-1,-2.170474641E-2
1.289871318E1,4.958802164E-1,1.315600574E-1,4.061317816E-2
1.291890297E1,4.356928170E-1,4.133222997E-1,5.819002539E-2
1.293909354E1,5.097286701E-1,9.965541363E-1,3.528685868E-2
1.295928479E1,5.470128655E-1,1.296425819E0,1.551290154E-1
1.297947662E1,6.737792492E-1,1.418931127E0,2.004027218E-1
1.299966886E1,1.018924713E0,1.217063665E0,3.037332892E-1
1.301986136E1,1.090297341E0,5.528718233E-1,4.752407372E-1
1.304005938E1,7.568697929E-1,2.588590682E-1,6.318345070E-1
1.306025063E1,4.761728346E-1,7.680550814E-1,7.080008388E-1
1.308042985E1,5.384907722E-1,1.500423789E0,6.201165915E-1
1.310060959E1,4.543349445E-1,1.667670250E0,4.992091656E-1
1.312079016E1,-2.860232890E-1,1.316133261E0,4.155859649E-1
1.314097183E1,-1.110004663E0,1.065263629E0,2.733732760E-1
1.316115485E1,-1.336905837E0,6.647245288E-1,-9.893636405E-2
1.318133938E1,-1.156343699E0,3.834949061E-2,-8.808398843E-1
1.320152552E1,-9.576719999E-1,-9.171919823E-1,-1.813478231E0
1.322171334E1,-7.781751156E-1,-1.821068168E0,-2.031324625E0
1.324190276E1,-6.253097653E-1,-2.152365208E0,-1.433711648E0
1.326209370E1,-9.315730333E-1,-2.468748569E0,-8.036082387E-1
1.328228599E1,-1.703889251E0,-3.016294003E0,-8.082687855E-2
1.330249901E1,-1.938247204E0,-2.403234720E0,7.676556110E-1
1.332269693E1,-1.974998832E0,-1.137168884E0,1.112268448E0
1.334288537E1,-2.185388327E0,1.810948178E-2,4.507396817E-1
1.336306839E1,-2.210954666E0,6.194508076E-1,-5.351617932E-1
1.338325183E1,-1.614407063E0,3.302317113E-2,-1.346360087E0
1.340343589E1,-5.225118399E-1,-1.815741897E0,-1.751692891E0
1.342362068E1,1.288969070E-1,-3.634146929E0,-1.355414867E0
1.344380630E1,2.189116776E-1,-3.998999596E0,-9.490167499E-1
1.346399287E1,-1.038632020E-1,-2.800045490E0,-9.058735967E-1
1.348418037E1,-5.177181363E-1,-1.163267851E0,-8.233156204E-1
1.350436880E1,-4.458128214E-1,-4.735096991E-1,-6.001428962E-1
1.352455818E1,1.001347825E-1,-3.712443709E-1,-4.179828167E-1
1.354474839E1,6.210486889E-1,-2.316948473E-1,-2.608564198E-1
1.356493933E1,1.111602664E0,-5.858949851E-3,-1.997369342E-3
1.358513089E1,1.590971231E0,3.041327596E-1,3.543333113E-1
1.360532297E1,2.001630306E0,6.519413590E-1,6.227797270E-1
1.362551537E1,2.384060144E0,1.373657465E0,6.499440074E-1
1.364570797E1,2.214683056E0,1.502554417E0,2.222406268E-1
1.366591141E1,5.070654750E-1,-2.364885211E-1,-6.033387184E-1
1.368609037E1,-4.985433817E-1,-3.637875319E-1,-1.160471559E0
1.370626964E1,-2.982738242E-2,6.796382070E-1,-8.355661631E-1
1.372644964E1,4.186486006E-1,1.371526957E0,-3.386206925E-1
1.374663068E1,7.499455810E-1,1.366200566E0,4.209122956E-1
1.376681297E1,1.241564751E0,1.099352121E0,8.832367063E-1
1.378699672E1,1.398158550E0,8.862993717E-1,1.210805297E0
1.380718203E1,4.660528302E-1,-1.478053331E0,1.618801236E0
1.382736901E1,-6.231792271E-2,-2.323872566E0,1.466468573E0
1.384755766E1,-2.450106293E-2,-7.376950979E-1,9.604683518E-1
1.386774787E1,8.575372398E-2,7.547392845E-1,1.173121557E-1
1.388793953E1,2.407495826E-1,1.589373350E0,-5.415533781E-1
1.390813245E1,3.936149180E-1,2.442116976E0,-6.656566262E-1
1.392832641E1,4.378233552E-1,2.862363338E0,-5.090628862E-1
1.394852120E1,3.004043400E-1,2.483662128E0,-4.787028432E-1
1.396871651E1,1.081242561E-1,1.672996521E0,-5.649892092E-1
1.398891203E1,4.703139067E-1,2.620548606E-1,-6.464818716E-1
1.400910672E1,1.302284837E0,-4.324970245E-1,-5.037365556E-1
1.402929526E1,1.082307816E0,8.410256505E-1,-1.388837546E-1
1.404947839E1,4.846949503E-2,2.345177889E0,2.568616867E-1
1.406966193E1,-5.182507634E-1,2.702041149E0,1.258342713E-1
1.408984599E1,-6.391581893E-2,2.451171637E0,-7.869634777E-2
1.411003078E1,4.351601899E-1,2.105493546E0,1.529984921E-1
1.413021641E1,4.980107546E-1,1.898299813E0,3.234406710E-1
1.415040297E1,5.992107987E-1,1.420529008E0,4.038680792E-1
1.417059047E1,4.990760088E-1,8.229161501E-1,5.860281587E-1
1.419077891E1,9.001477808E-2,4.932170510E-1,4.677838981E-1
1.421096828E1,-1.507348120E-1,3.648527861E-1,1.833585054E-1
1.423115849E1,-1.715074480E-1,6.657897681E-2,-4.886896908E-2
1.425134943E1,4.687159881E-2,-1.810948253E-1,-3.039996028E-1
1.427154099E1,1.571263820E-1,-1.123853177E-1,-6.475471258E-1
1.429173308E1,-3.121222556E-1,-2.290316857E-2,-9.703220129E-1
1.431194006E1,-1.320394278E0,-2.535327375E-1,-1.280313730E0
1.433211756E1,-2.154495716E0,-5.736444592E-1,-1.581250668E0
1.435229568E1,-2.602971792E0,-6.897581816E-1,-1.628654957E0
1.437247479E1,-2.834133863E0,-4.799012840E-1,-1.280313730E0
1.439265521E1,-3.043990850E0,-5.123918056E-1,-5.197154880E-1
1.441283724E1,-3.391266823E0,-8.617982864E-1,6.723145247E-1
1.443302110E1,-3.430148840E0,-2.737727463E-1,1.896302462E0
1.445320688E1,-3.293795109E0,1.213867903E0,2.116279364E0
1.447339464E1,-2.888462305E0,1.580318570E0,8.534093499E-1
1.449358433E1,-1.965411425E0,-2.854906619E-1,-8.787093163E-1
1.451377578E1,-1.718802929E0,-1.115863681E0,-2.285922527E0
1.453396880E1,-1.717737675E0,-1.076981544E0,-2.267813206E0
1.455416318E1,-1.314002752E0,-1.729455471E0,-1.035303116E0
1.457435865E1,-8.064045906E-1,-1.708682895E0,1.198421582E-3
1.459455485E1,-5.448823571E-1,-8.900277615E-1,3.900196552E-1
1.461475141E1,-3.190464675E-1,1.278316379E-1,6.632598042E-1
1.463494724E1,7.190529257E-2,7.195855975E-1,7.681882381E-1
1.465513896E1,6.301034689E-1,9.976193905E-1,7.564703226E-1
1.467533282E1,1.235705853E0,1.303882718E0,8.890956640E-1
1.469552131E1,1.868472457E0,1.716672301E0,1.020123124E0
1.471569922E1,2.362754822E0,2.099102020E0,9.705883265E-1
1.473587771E1,2.261022091E0,1.758217692E0,7.000113726E-1
1.475605714E1,1.160072088E0,1.507348120E-1,2.222406268E-1
1.477623787E1,-1.976063997E-1,-4.814991653E-1,-5.681849718E-1
1.479642016E1,-9.576719999E-1,1.188834190E0,-6.677871346E-1
1.481660417E1,-8.761793375E-1,2.700443268E0,-2.342248410E-1
1.483679000E1,-2.269011587E-1,2.156626225E0,3.324954212E-1
1.485697771E1,5.155876279E-1,8.649940491E-1,8.837693334E-1
1.487716724E1,8.660593629E-1,4.277033508E-1,1.302417994E0
1.489735849E1,5.028044581E-1,6.924213469E-2,1.298689485E0
1.491755131E1,1.054610983E-1,-3.020022511E-1,9.817736149E-1
1.493774542E1,-1.608548164E-1,3.142527863E-2,8.155924678E-1
1.495794052E1,-2.439453751E-1,9.470193982E-1,7.346324325E-1
1.497813631E1,1.864211448E-2,1.351286888E0,4.970786572E-1
1.499833245E1,3.360906839E-1,1.911082983E0,1.982721984E-1
1.501852834E1,2.444780022E-1,3.396060467E0,-9.414267540E-2
1.503872032E1,6.178529188E-2,4.395277977E0,-2.368880063E-1
1.505890604E1,2.343579940E-2,3.587807894E0,-2.858901322E-1
1.507908927E1,3.142527640E-1,1.211737394E0,-2.368880063E-1
1.509927302E1,1.472194314E0,-1.878592372E0,-6.058686972E-2
1.511945745E1,1.394962788E0,-1.241032124E0,1.061268896E-1
1.513964266E1,-7.350318879E-2,1.591503859E0,3.745733202E-1
1.515982875E1,-1.236238480E0,2.890060186E0,3.394196332E-1
1.518001578E1,-1.237303734E0,2.617352724E0,-9.467530251E-2
1.520020375E1,-3.360906839E-1,2.083655596E0,-1.346226931E-1
1.522039266E1,4.245075583E-1,1.625592351E0,2.760364413E-1
1.524058245E1,7.866972089E-1,1.434910178E0,6.595313549E-1
1.526077302E1,1.185638428E0,1.156343699E0,7.016092539E-1
1.528096427E1,1.168594241E0,3.595264852E-1,6.318345070E-1
1.530118011E1,6.066676378E-1,1.731053442E-1,3.964112401E-1
1.532135907E1,-1.049284711E-1,5.826992393E-1,8.655266836E-3
1.534153834E1,-5.848297477E-1,6.471476555E-1,-2.789659202E-1
1.536171834E1,-6.162550449E-1,1.736379713E-1,-3.380880356E-1
1.538189938E1,-2.625874877E-1,-1.954758763E-1,-4.499407411E-1
1.540208167E1,-1.129179448E-1,-2.780338228E-1,-8.121303916E-1
1.542226542E1,-7.094655633E-1,-5.384907722E-1,-1.166863203E0
1.544245073E1,-1.643169165E0,-7.584677339E-1,-1.606284380E0
1.546263771E1,-2.303100109E0,-8.202530146E-1,-1.842240334E0
1.548282636E1,-2.765424490E0,-6.844319105E-1,-1.537574887E0
1.550301657E1,-3.042925596E0,-6.386255622E-1,-7.817703485E-1
1.552320823E1,-3.019489765E0,-1.183507919E0,4.054659605E-1
1.554340115E1,-2.765424490E0,-8.207856417E-1,1.636378169E0
1.556359511E1,-2.491651773E0,3.600591123E-1,1.993774056E0
1.558378979E1,-2.231194735E0,1.016794205E0,1.024916768E0
1.560398500E1,-1.729455471E0,3.515369892E-1,-5.149217844E-1
1.562418042E1,-1.571796536E0,-3.030675054E-1,-1.881122470E0
1.564437469E1,-1.665007114E0,-7.819035053E-1,-2.420145750E0
1.566456323E1,-1.272457361E0,-2.109754562E0,-1.865143418E0
1.568475167E1,-6.940192580E-1,-2.496445417E0,-9.404946566E-1
1.570495094E1,-3.797664940E-1,-1.438105941E0,-4.616586268E-1
1.572512865E1,-1.874863952E-1,-4.692486227E-1,2.783001214E-2
1.574530677E1,1.384842768E-2,-1.225053146E-2,5.269060135E-1
1.576548563E1,2.391516864E-1,2.231727391E-1,8.395609260E-1
1.578566563E1,4.900212884E-1,4.468781054E-1,9.940241575E-1
1.580584709E1,9.645962119E-1,7.494129539E-1,1.053678870E0
1.582603021E1,1.737977624E0,1.604287028E0,1.033971548E0
1.584621511E1,2.280729532E0,2.322274685E0,1.003611565E0
1.586640188E1,2.155028343E0,2.206161022E0,7.495461106E-1
1.588659052E1,1.048752069E0,1.184040546E0,3.681817353E-1
1.590678094E1,-3.621896505E-1,3.233075142E-1,-3.913512230E-1
1.592697302E1,-9.219856858E-1,8.591351509E-1,-9.367662072E-1
1.594716657E1,-9.097351432E-1,1.857819796E0,-6.699176431E-1
1.596736125E1,-3.435475230E-1,1.996304035E0,-4.727107286E-2
1.598755677E1,6.711161137E-1,9.550088644E-1,9.210535884E-1
1.600775282E1,8.005456328E-1,-2.577938139E-1,1.665672898E0
1.602794906E1,1.065263618E-2,-8.165245652E-1,1.565005422E0
1.604814417E1,-1.352884769E-1,-6.285055727E-2,1.090963125E0
1.606833261E1,-7.350318879E-2,6.972150803E-1,8.869651556E-1
1.608851563E1,-1.810948178E-2,1.119592071E0,9.620662332E-1
1.610869906E1,1.422126889E-1,1.325720549E0,1.029710412E0
1.612888302E1,3.930822909E-1,1.453552246E0,5.982787013E-1
1.614906771E1,5.992107987E-1,1.634647012E0,-1.990711391E-1
1.616925323E1,7.206508517E-1,2.109754562E0,-6.699176431E-1
1.618943969E1,7.004108429E-1,2.307893753E0,-4.893554747E-1
1.620962709E1,5.912213326E-1,1.353417397E0,-2.725743353E-1
1.622981542E1,9.805752039E-1,-2.860232890E-1,-2.715090811E-1
1.625000469E1,1.039164662E0,-3.941475451E-1,-1.809616536E-1
1.627019479E1,7.137266546E-2,1.142495275E0,1.178447902E-1
1.629038573E1,-9.523456693E-1,2.318546295E0,-7.550056279E-2
1.631059818E1,-1.214400530E0,2.541718960E0,-2.965427637E-1
1.633077896E1,-6.508761048E-1,2.587525368E0,-2.278332561E-1
1.635096016E1,-6.178529188E-2,2.278599024E0,1.370195299E-1
1.637114203E1,5.858949851E-3,1.397093296E0,5.530049801E-1
1.639132485E1,1.448758543E-1,8.516782522E-1,7.388935089E-1
1.641150875E1,4.820317924E-1,8.362319469E-1,7.932219505E-1
1.643169391E1,5.922865868E-1,9.225183129E-1,6.584661007E-1
1.645188042E1,3.419496417E-1,9.060067534E-1,4.443480968E-1
1.647206828E1,-3.004043400E-1,9.097351432E-1,2.808301151E-1
1.649225745E1,-8.825709224E-1,6.588655710E-1,1.002679393E-1
1.651244782E1,-9.619330764E-1,3.201117218E-1,-1.143826842E-1
1.653263927E1,-5.022718310E-1,9.693899006E-2,-5.506081581E-1
1.655283167E1,-8.362319320E-2,-3.643201590E-1,-9.751157165E-1
1.657302479E1,-3.797664940E-1,-5.571328998E-1,-1.202549458E0
1.659321844E1,-1.080177307E0,-2.892190814E-1,-1.676591754E0
1.661341240E1,-1.919605136E0,-4.346275628E-1,-1.733050823E0
1.663361188E1,-2.607232809E0,-8.900277615E-1,-1.126383185E0
1.665380339E1,-2.950780392E0,-1.307611108E0,-8.508793265E-2
1.667398167E1,-3.217628717E0,-1.572861791E0,1.196424246E0
1.669416047E1,-3.250119448E0,-9.864341021E-1,2.204696178E0
1.671434021E1,-2.966759205E0,3.989412189E-1,2.201500416E0
1.673452120E1,-2.292979956E0,1.149419427E0,1.035569429E0
1.675470365E1,-1.721466064E0,7.872298360E-1,-2.635195851E-1
1.677488776E1,-1.595232248E0,5.624592304E-1,-1.013997793E0
1.679507365E1,-1.460476398E0,1.821600795E-1,-1.108806252E0
1.681526130E1,-1.113200545E0,-6.801708341E-1,-7.466166615E-1
1.683545073E1,-7.723161578E-1,-1.113733172E0,-1.777658761E-1
1.685564183E1,-7.094655633E-1,-7.643266916E-1,2.845585644E-1
1.687583438E1,-7.456845641E-1,-1.986716688E-1,5.652555227E-1
1.689602818E1,-5.012065172E-1,4.383559823E-1,7.085334659E-1
1.691622297E1,2.167811543E-1,1.034903646E0,7.964177132E-1
1.693641844E1,8.953540921E-1,1.171790004E0,8.454198837E-1
1.695661427E1,1.409876466E0,1.197356343E0,8.400935531E-1
1.697681006E1,1.931322932E0,1.403484821E0,8.107987642E-1
1.699700209E1,2.354232550E0,1.812546134E0,7.367629409E-1
1.701718782E1,2.088982105E0,1.874331355E0,5.093291998E-1
1.703737104E1,5.044023395E-1,1.492967010E0,2.623211779E-2
1.705755474E1,-9.459540844E-1,2.055426121E0,-9.777788520E-1
1.707773906E1,-1.372592211E0,2.751043320E0,-1.231311560E0
1.709792417E1,-1.202682614E0,2.493782282E0,-7.615303397E-1
1.711811016E1,-2.396843135E-1,5.012065172E-1,1.615206003E-1
1.713829709E1,6.695181727E-1,-5.725792050E-1,9.844367504E-1
1.715848495E1,7.568697929E-1,8.048067093E-1,1.172455788E0
1.717867375E1,3.888212144E-1,1.765141845E0,8.843019605E-1
1.719886344E1,-7.456845604E-3,1.692171335E0,7.245124578E-1
1.721905396E1,-2.332927436E-1,1.478585958E0,8.161250949E-1
1.723924521E1,-1.017326787E-1,1.235705853E0,6.941524148E-1
1.725943703E1,2.657832801E-1,1.170724750E0,1.982721984E-1
1.727962927E1,4.830970466E-1,1.588840723E0,-6.070671082E-1
1.729985047E1,4.729770422E-1,2.106026173E0,-1.090696812E0
1.732001745E1,3.392864764E-1,2.259956837E0,-8.952209353E-1
1.734018526E1,2.759032845E-1,1.120657325E0,-6.235787272E-1
1.736035464E1,3.930822909E-1,-5.965476632E-1,-4.121238589E-1
1.738052630E1,-1.012000442E-1,4.186486006E-1,1.034637317E-1
1.740070089E1,-9.182572365E-1,2.059154510E0,3.575291038E-1
1.742087880E1,-1.370461702E0,2.285523176E0,3.155843541E-2
1.744106037E1,-1.286838531E0,2.032522917E0,-1.255679578E-1
1.746124568E1,-1.763011366E-1,2.329198837E0,3.861580743E-3
1.748143474E1,9.182572365E-1,2.117211580E0,3.138532937E-1
1.750162735E1,9.235835671E-1,8.612656593E-1,6.206492186E-1
1.752182318E1,8.335688114E-1,7.084003091E-2,6.712492704E-1
1.754202183E1,9.161267281E-1,4.415517747E-1,5.391565561E-1
1.756222276E1,7.121287584E-1,9.805752039E-1,3.783017397E-1
1.758242537E1,1.358211190E-1,9.342362285E-1,2.776343226E-1
1.760262901E1,-4.889560044E-1,7.861645818E-1,1.876195520E-1
1.762283308E1,-6.258423924E-1,5.773729086E-1,1.061268896E-1
1.764303276E1,-1.235705838E-1,3.067959249E-1,-3.981423005E-2
1.766322130E1,6.141244769E-1,5.816339254E-1,-3.668501675E-1
1.768340974E1,8.479498625E-1,9.267793894E-1,-4.414186180E-1
1.770360901E1,7.989477366E-2,5.986781716E-1,-5.601955056E-1
1.772378662E1,-1.210672140E0,9.374319762E-2,-8.664588332E-1
1.774396464E1,-1.982988238E0,-7.563371956E-2,-1.334109545E0
1.776414349E1,-2.195508480E0,-1.640505940E-1,-1.562075973E0
1.778432349E1,-2.239184141E0,-1.667137593E-1,-1.290966392E0
1.780450495E1,-2.230129480E0,-3.728422802E-3,-7.135934830E-1
1.782468808E1,-2.259424210E0,2.348906398E-1,4.753739014E-2
1.784487297E1,-2.553436995E0,1.491369121E-2,1.112801075E0
1.786505974E1,-2.947584391E0,-6.423539519E-1,2.297374249E0
1.788524839E1,-3.078079224E0,-5.241097212E-1,2.608963728E0
1.790543881E1,-3.271957159E0,-1.065263641E-3,1.571397066E0
1.792563089E1,-3.089797258E0,-5.736444592E-1,1.034637317E-1
1.794582443E1,-2.663691759E0,-1.489771247E0,-7.972166538E-1
1.796601912E1,-2.086851358E0,-1.053013086E0,-7.551387548E-1
1.798621464E1,-1.478585958E0,-2.130527236E-2,-4.259723127E-1
1.800641068E1,-1.246891141E0,7.563371658E-1,-4.227765203E-1
1.802660693E1,-1.251684785E0,1.118526816E0,-4.398207366E-1
1.804680203E1,-1.184573174E0,1.135571003E0,-2.139848322E-1
1.806699047E1,-8.048067093E-1,1.078579426E0,1.599227041E-1
1.808717349E1,6.231792271E-2,1.308143735E0,5.641902685E-1
1.810735693E1,1.090829968E0,1.892973542E0,7.985482812E-1
1.812754089E1,1.748630285E0,2.458095789E0,1.014796734E0
1.814772558E1,2.001630306E0,2.655169725E0,1.402552724E0
1.816791110E1,1.724129200E0,2.156626225E0,1.544232845E0
1.818809756E1,7.259771824E-1,5.214465261E-1,7.580682635E-1
1.820828495E1,-3.621896356E-2,-9.507477880E-1,-6.422207952E-1
1.822847328E1,-2.716422379E-1,-5.182507634E-1,-5.474123359E-1
1.824866256E1,-3.813643754E-1,9.795098901E-1,-3.715106845E-2
1.826885266E1,-3.515369892E-1,1.953160882E0,1.508679688E-1
1.828904349E1,2.966759205E-1,2.393647432E0,8.155924678E-1
1.830925828E1,1.286838531E0,2.667952776E0,1.780721307E0
1.832943433E1,1.312937379E0,1.935584068E0,2.354898453E0
1.834961104E1,8.074698448E-1,5.480781198E-1,2.256894112E0
1.836978891E1,5.805686712E-1,6.620613337E-1,1.561809659E0
1.838996828E1,2.540653646E-1,1.270326853E0,5.743102431E-1
1.841014948E1,-8.149266988E-2,1.496162772E0,-2.496711612E-1
1.843033271E1,-2.556632757E-1,1.055143595E0,-5.964145064E-1
1.845051808E1,-3.595264852E-1,6.135918498E-1,-1.011867285E0
1.847070563E1,-4.186486006E-1,7.057371736E-1,-1.178048372E0
1.849089532E1,-4.058654606E-1,1.085503697E0,-1.033705235E0
1.851108698E1,-1.075916290E-1,1.138766885E0,-9.271788597E-1
1.853128042E1,1.021587849E0,1.564872265E0,-7.146587372E-1
1.855147537E1,1.041827798E0,2.044240952E0,-3.604585826E-1
1.857167151E1,-1.310274303E-1,1.856754541E0,8.855003864E-2
1.859186849E1,-9.326383471E-1,1.414670110E0,1.609879732E-1
1.861206594E1,-6.178529263E-1,1.585644960E0,4.860265180E-2
1.863226318E1,3.004043400E-1,1.790708184E0,1.290300637E-1
1.865245584E1,6.759097576E-1,1.437573314E0,3.868238628E-1
1.867264969E1,4.948149621E-1,1.398691177E0,5.018723607E-1
1.869283813E1,2.860232890E-1,1.396560669E0,4.310323000E-1
1.871301594E1,7.563371956E-2,8.692551255E-1,4.352933466E-1
1.873319438E1,-3.632549047E-1,5.725792050E-1,3.394196332E-1
1.875337381E1,-8.527435660E-1,5.363602638E-1,1.167795286E-1
1.877355453E1,-9.432909489E-1,2.173137814E-1,-9.201214463E-2
1.879373683E1,-6.167876720E-1,-2.396843210E-2,-3.226417303E-1
1.881392084E1,-3.946801722E-1,-8.628635854E-2,-7.301050425E-1
1.883410667E1,-9.571393728E-1,-3.797664940E-1,-1.065663099E0
1.885429438E1,-1.847167134E0,-1.138766885E0,-1.450755954E0
1.887448391E1,-2.295110464E0,-1.157941580E0,-1.676591754E0
1.889467516E1,-2.343047380E0,-6.881603003E-1,-1.471528530E0
1.891486797E1,-2.173670530E0,-4.474107325E-1,-8.771114349E-1
1.893506209E1,-2.004826069E0,-1.253282666E0,8.855003864E-2
1.895525719E1,-1.939845085E0,-2.036784172E0,8.960198760E-1
1.897545297E1,-1.772598743E0,-1.520663857E0,8.416914344E-1
1.899564912E1,-1.598960757E0,-7.605982423E-1,1.013332009E-1
1.901584479E1,-1.244760513E0,-1.020522594E0,-5.575323701E-1
1.903603662E1,-8.266445994E-1,-1.798697710E0,-9.388967156E-1
1.905622511E1,-7.861645818E-1,-2.112950325E0,-9.852356911E-1
1.907641084E1,-8.309056163E-1,-1.828525066E0,-6.480797529E-1
1.909659406E1,-7.105308771E-1,-1.371526957E0,-3.034669757E-1
1.911677776E1,-5.395560265E-1,-7.819035053E-1,-2.113216817E-1
1.913696209E1,-3.158506751E-1,-3.153180480E-1,-1.292963773E-1
1.915714719E1,4.793686327E-3,-1.533979625E-1,5.659212917E-2
1.917733318E1,5.107939243E-1,-1.384842694E-1,2.206427306E-1
1.919752011E1,1.072187901E0,9.108003974E-2,3.383543491E-1
1.921770797E1,1.579253316E0,5.842971206E-1,4.661859870E-1
1.923789677E1,2.146506310E0,1.163800478E0,4.768386483E-1
1.925808646E1,2.371276855E0,1.296425819E0,3.559312224E-1
1.927827698E1,1.498293281E0,5.869602561E-1,2.840259075E-1
1.929846823E1,1.171789970E-2,-4.143875539E-1,-3.902859688E-1
1.931866006E1,-5.139896870E-1,-1.555284858E-1,-7.609977126E-1
1.933885229E1,-6.247771382E-1,6.908234954E-1,-4.616586268E-1
1.935904479E1,-4.095938802E-1,1.333177447E0,1.412805915E-1
1.937924282E1,3.904191256E-1,1.559545994E0,9.114661813E-1
1.939943386E1,9.331709743E-1,1.818937659E0,1.241697907E0
1.941961266E1,8.463519812E-1,1.884451389E0,1.182575822E0
1.943979198E1,5.992107987E-1,1.178714275E0,9.135967493E-1
1.945997219E1,4.601939023E-1,-1.118526794E-2,6.973482370E-1
1.948015354E1,3.813643754E-1,-1.093493104E0,3.777691126E-1
1.950033630E1,3.174485564E-1,-1.343297482E0,6.458161026E-2
1.952052068E1,2.972085476E-1,-5.390233994E-1,8.002793044E-2
1.954070672E1,3.632549047E-1,1.014130950E0,1.476721764E-1
1.956089443E1,6.253097653E-1,2.172605276E0,1.198421582E-3
1.958108381E1,1.546230197E0,2.170474768E0,-1.085237339E-1
1.960127474E1,2.442649603E0,1.086568952E0,-1.388837546E-1
1.962146709E1,1.713476539E0,-6.503434777E-1,-1.756353378E-1
1.964166063E1,9.587372839E-2,-5.725792050E-1,9.973530471E-2
1.966185511E1,-6.705834866E-1,1.496162772E0,4.507396817E-1
1.968205026E1,-5.853623748E-1,2.843188763E0,4.283691347E-1
1.970224578E1,-3.755054474E-1,2.743053913E0,2.573943138E-1
1.972244115E1,-1.022653133E-1,1.752891302E0,2.685796022E-1
1.974263292E1,4.399538934E-1,1.032240510E0,5.327649713E-1
1.976281865E1,1.057806849E0,1.168594241E0,7.367629409E-1
1.978300188E1,1.553154349E0,1.164865732E0,7.490134835E-1
1.980320422E1,1.831720829E0,1.294295341E-1,5.908218622E-1
1.982338683E1,1.252217412E0,-7.211834788E-1,3.330280483E-1
1.984356964E1,-2.024000883E-1,2.024000883E-2,-5.725792143E-3
1.986375287E1,-1.067926764E0,7.520761490E-1,-3.247722387E-1
1.988393672E1,-9.113330245E-1,4.564654827E-1,-6.193176508E-1
1.990412130E1,-5.102612972E-1,-2.519348562E-1,-9.633978009E-1
1.992430672E1,-5.933518410E-1,-9.496825337E-1,-1.235572696E0
1.994449308E1,-1.071122646E0,-1.573927045E0,-1.477387547E0
1.996468047E1,-1.578188062E0,-1.944638729E0,-1.597229719E0
1.998486891E1,-1.955291390E0,-1.721998692E0,-1.371393800E0
2.000505828E1,-2.242379904E0,-1.179246902E0,-7.466166615E-1
2.002524860E1,-2.784066439E0,-1.453019619E0,3.016027808E-1
2.004543974E1,-3.131875038E0,-1.135571003E0,1.230512619E0
2.006563151E1,-2.671681166E0,-8.948214352E-2,1.198022127E0
2.008582380E1,-2.332927465E0,7.414234877E-1,4.278365076E-1
2.010601641E1,-1.909485102E0,1.805621833E-1,-3.231743574E-1
2.012620912E1,-1.367265940E0,-1.532381773E0,-1.137035728E0
2.014641266E1,-1.124918461E0,-2.730270624E0,-1.490703344E0
2.016659089E1,-8.831035495E-1,-2.878875017E0,-1.057140946E0
2.018676943E1,-4.394212663E-1,-2.291914701E0,-4.557996690E-1
2.020694870E1,-1.571263820E-1,-1.456215382E0,-2.885532975E-1
2.022712901E1,-7.510108501E-2,-6.285055280E-1,-1.245026886E-1
2.024731068E1,1.581916511E-1,-1.310274303E-1,4.647212476E-2
2.026749391E1,5.970802903E-1,-7.669898123E-2,6.671213359E-2
2.028767891E1,1.074318409E0,-2.982738242E-2,1.731053460E-3
2.030786568E1,1.628255486E0,2.157158852E-1,5.073318258E-2
2.032805422E1,2.125733614E0,5.571328998E-1,2.632532716E-1
2.034824453E1,2.218411446E0,7.009434700E-1,4.869586527E-1
2.036843641E1,1.518533349E0,4.830970466E-1,5.466133952E-1
2.038862964E1,7.190529257E-2,-3.680485785E-1,-8.988162130E-2
2.040882401E1,-3.153180480E-1,-9.129309654E-1,-7.466166615E-1
2.042901922E1,-5.858949851E-3,-1.448758543E-1,-4.739091694E-1
2.044921495E1,1.592569202E-1,1.040762544E0,1.162468940E-1
2.046941089E1,8.958867192E-1,1.946236730E0,1.209207416E0
2.048960641E1,9.523456693E-1,2.188051462E0,1.778590798E0
2.050979495E1,2.135853618E-1,4.724444151E-1,1.372192740E0
2.052998339E1,1.672463864E-1,-5.289034247E-1,4.262386262E-1
2.055016641E1,5.406212807E-1,-9.720530510E-1,-3.327617347E-1
2.057034985E1,7.094655633E-1,-1.070057273E0,-6.006755233E-1
2.059053380E1,8.298403621E-1,-1.203747913E-1,-3.354249001E-1
2.061071849E1,1.177648902E0,1.604819655E0,-1.447426975E-1
2.063090401E1,1.565404892E0,2.967824459E0,-1.218395308E-1
2.065109047E1,1.847699761E0,2.821350813E0,-4.127896391E-3
2.067127787E1,1.804023981E0,-8.362319469E-1,1.824264042E-2
2.069146620E1,1.427453279E0,-4.313785076E0,-1.031974182E-1
2.071165547E1,1.056208849E0,-3.062633038E0,-8.029424399E-2
2.073184568E1,5.166528821E-1,4.282359779E-1,2.179795653E-1
2.075203662E1,-2.599243224E-1,2.787262201E0,4.613923132E-1
2.077222818E1,-7.084003091E-1,3.244260311E0,3.644533157E-1
2.079242026E1,-5.699160695E-1,2.412289619E0,2.653838098E-1
2.081262693E1,-1.645832360E-1,1.298556328E0,3.165164590E-1
2.083280594E1,6.492781639E-1,7.227813601E-1,4.044007063E-1
2.085298547E1,1.510543823E0,9.491499066E-1,4.715123177E-1
2.087316589E1,1.841308236E0,1.320926905E0,5.210470557E-1
2.089334745E1,2.046904087E0,8.026761413E-1,5.487439036E-1
2.091353037E1,2.089514732E0,-3.573959470E-1,5.583313107E-1
2.093371479E1,1.334775329E0,-4.511391521E-1,4.326302111E-1
2.095390084E1,-1.880190372E-1,8.138614297E-1,3.580617309E-1
2.097408854E1,-1.504152298E0,1.445030093E0,3.687143922E-1
2.099427787E1,-1.865809321E0,8.660593629E-1,2.941459119E-1
2.101446870E1,-1.314535379E0,2.343579978E-1,5.765739456E-2
2.103466089E1,-2.087916732E-1,-2.514022291E-1,-2.981406748E-1
2.105485422E1,5.811012983E-1,-8.229161501E-1,-6.406229138E-1
2.107504849E1,3.856254518E-1,-1.032240510E0,-8.712524772E-1
2.109524344E1,-6.759097576E-1,-7.653919458E-1,-9.697893858E-1
2.111543875E1,-1.554752231E0,-3.238401413E-1,-1.271791577E0
2.113563959E1,-2.150234699E0,4.708465338E-1,-1.697364450E0
2.115583162E1,-2.240782022E0,-5.672528744E-1,-1.984452963E0
2.117600964E1,-1.683116555E0,-2.273805141E0,-1.512008548E0
2.119618823E1,-1.666072369E0,-2.182192564E0,-8.930904269E-1
2.121636776E1,-2.225868464E0,-1.246891141E0,-1.356879622E-1
2.123654860E1,-2.594982147E0,-9.704551697E-1,6.792387366E-1
2.125673099E1,-2.331329584E0,-1.682583928E0,1.101083159E0
2.127691511E1,-1.399756432E0,-2.948117018E0,8.699209094E-1
2.129710104E1,-1.258076310E0,-2.702573776E0,-3.075948730E-2
2.131728886E1,-1.665539742E0,-1.059937358E0,-8.776440620E-1
2.133747849E1,-1.451421738E0,-1.896169335E-1,-1.290966392E0
2.135766979E1,-5.219792128E-1,-9.757815003E-1,-1.495496988E0
2.137786256E1,5.033370852E-1,-1.856221914E0,-1.508812785E0
2.139805656E1,1.611211300E0,-1.327318549E0,-1.317597985E0
2.141825157E1,2.485792637E0,-1.683116555E-1,-7.972166538E-1
2.143844724E1,2.543849468E0,4.649875760E-1,-2.688459158E-1
2.145864328E1,1.047154188E0,4.900212586E-2,-1.079910994E-1
2.147883881E1,-1.977129340E0,-2.182192564E0,-1.474058628E-1
2.149903047E1,-1.373124838E0,-8.452867270E-1,-2.326269448E-1
2.151921620E1,-1.752358675E0,2.934801280E-1,-1.745700836E-1
2.153939943E1,-1.747032404E-1,1.029044628E0,5.721797347E-1
2.155958313E1,1.548360705E0,2.069274664E0,1.147954702E0
2.157976745E1,2.131059885E0,6.418213248E-1,8.390282989E-1
2.159995256E1,1.791773438E0,-1.838645101E0,9.945567846E-1
2.162013854E1,1.422659636E0,-3.538273096E0,8.257125020E-1
2.164032547E1,1.413604856E0,-2.505500078E0,5.925529078E-2
2.166051334E1,1.519065976E0,-5.416865349E-1,-3.950796425E-1
2.168070214E1,1.900430322E0,1.518533349E0,-4.882902205E-1
2.170089188E1,2.810165405E0,3.358776331E0,-1.165132076E-1
2.172108250E1,2.459693670E0,2.227998972E0,6.323671341E-1
2.174127386E1,1.448758602E0,2.684464455E0,7.383608818E-1
2.176146578E1,4.356928170E-1,3.761445999E0,3.873564899E-1
2.178165813E1,-3.089264631E-1,2.396843195E0,2.861564457E-1
2.180187396E1,-5.209138989E-1,5.656549931E-1,2.467416972E-1
2.182204615E1,5.294360518E-1,-6.348971128E-1,2.121206224E-1
2.184223537E1,2.137451410E0,2.886864543E-1,5.258407593E-1
2.186245292E1,1.536642790E0,1.922268271E0,6.914892793E-1
2.188261167E1,1.677790284E-1,1.626657605E0,5.301018357E-1
2.190277157E1,-1.731053442E-1,9.400951862E-1,2.419480085E-1
2.192293365E1,9.214530140E-2,1.274587989E0,-5.685844645E-2
2.194309896E1,-2.679138184E-1,1.854091406E0,-2.965427637E-1
2.196326823E1,-6.364950538E-1,2.194975615E0,-1.239700541E-1
2.198344209E1,-5.518065691E-1,2.020272493E0,4.540686309E-2
2.200362094E1,-1.320926845E-1,1.507880688E0,-1.591237634E-1
2.202380500E1,4.804339111E-1,5.816339254E-1,-5.436839461E-1
2.204399427E1,5.518065691E-1,-5.800360441E-1,-6.800376773E-1
2.206418844E1,-1.097221524E-1,-1.044491053E0,-1.132242084E0
2.208438709E1,-6.279729009E-1,-1.854624033E0,-1.662210703E0
2.210458969E1,-8.554067016E-1,-2.629070759E0,-1.954625607E0
2.212479552E1,-1.115331054E0,-2.631201267E0,-1.783650756E0
2.214500375E1,-1.281512141E0,-2.026664019E0,-1.189233661E0
2.216521344E1,-1.537175417E0,-2.039447308E0,-1.932121962E-1
2.218542375E1,-2.061285257E0,-2.012283087E0,1.007872581E0
2.220562740E1,-3.490869045E0,8.165245652E-1,1.119725227E0
2.222581594E1,-3.097254038E0,1.768337607E0,9.492830634E-1
2.224600438E1,-1.798165083E0,8.303729892E-1,7.399587631E-1
2.226620365E1,-9.917604327E-1,-8.767119646E-1,-2.736395895E-1
2.228638136E1,-9.502151608E-1,-2.691921234E0,-1.447560072E0
2.230655948E1,-1.348623753E0,-2.447443247E0,-1.900297165E0
2.232673834E1,-1.232510090E0,-1.339036345E0,-1.958353996E0
2.234691834E1,-8.900277615E-1,-7.552719116E-1,-1.831587672E0
2.236709979E1,-3.818970025E-1,-1.059404731E0,-1.212136865E0
2.238728292E1,1.518000662E-1,-1.114265800E0,-3.700459599E-1
2.240746782E1,5.475454926E-1,-4.660528302E-1,2.952111959E-1
2.242765459E1,9.731183648E-1,1.225053221E-1,6.797713637E-1
2.244784323E1,1.390169024E0,3.717769980E-1,9.008135796E-1
2.246803365E1,1.816807151E0,5.033370852E-1,1.009470463E0
2.248822573E1,2.317481041E0,8.037413955E-1,1.078179955E0
2.250841927E1,2.335057974E0,7.611308694E-1,1.004676819E0
2.252861396E1,1.184573174E0,0.000000000E0,3.937480748E-1
2.254880948E1,-2.178464085E-1,-8.117309213E-1,-8.451535702E-1
2.256900552E1,-6.705834866E-1,1.667137593E-1,-1.028911471E0
2.258920177E1,-6.492781639E-1,2.453302145E0,-5.420860648E-1
2.260939729E1,-2.482064217E-1,3.895669222E0,5.849629045E-1
2.262958584E1,8.729835749E-1,3.141462564E0,1.801494002E0
2.264976896E1,7.984151244E-1,1.064731002E0,2.110953093E0
2.266995250E1,-1.629853398E-1,-8.996151686E-1,1.671531796E0
2.269013657E1,-1.209074259E-1,-6.897581816E-1,1.246491671E0
2.271032136E1,2.609895915E-2,-4.452801943E-1,7.836345434E-1
2.273050698E1,2.764359117E-1,-9.209204316E-1,2.973417044E-1
2.275069354E1,7.217161059E-1,-2.166213512E0,-3.796333373E-1
2.277088104E1,1.111602664E0,-1.988847256E0,-7.396924496E-1
2.279106948E1,2.715889692E0,-1.773131371E0,6.376934648E-1
2.281125886E1,3.524424791E0,3.824296594E-1,6.872282028E-1
2.283144906E1,2.743053913E0,2.599776030E0,-7.976161689E-2
2.285164000E1,1.536642790E0,2.866624355E0,-6.448839903E-1
2.287183156E1,-1.148354173E0,-2.019739866E0,-2.779006660E-1
2.289202365E1,-2.141712666E0,-4.076231480E0,-1.265000552E-2
2.291221604E1,-7.084003091E-1,-1.293230057E0,1.956090331E-1
2.293240854E1,9.576719999E-1,3.839742899E0,2.808301151E-1
2.295261188E1,7.046719193E-1,6.401169300E0,-1.873532385E-1
2.297279052E1,1.699095517E-1,6.774544239E0,-5.878923535E-1
2.299296948E1,-2.295643091E-1,4.928442001E0,-6.081323624E-1
2.301314917E1,-3.249054253E-1,1.529718637E0,-1.495363861E-1
2.303332990E1,2.711096108E-1,-7.946866751E-1,5.146554708E-1
2.305351198E1,8.735162020E-1,-7.467498183E-1,9.119988084E-1
2.307369552E1,8.735162020E-1,2.679138184E-1,5.711144805E-1
2.309388073E1,3.462106884E-1,7.408908606E-1,-3.022685647E-2
2.311406761E1,-8.628635854E-2,2.689790726E-1,-4.739091694E-1
2.313425615E1,-2.380864173E-1,-2.865559161E-1,-6.768419147E-1
2.315444636E1,-3.243727684E-1,-4.362254739E-1,-9.255809188E-1
2.317463813E1,-7.318361402E-1,-3.989412189E-1,-1.195092678E0
2.319483125E1,-1.317731142E0,-1.087101579E0,-1.452886462E0
2.321502542E1,-1.742771268E0,-1.722531319E0,-1.729322314E0
2.323522042E1,-1.962215662E0,-1.783783913E0,-1.718669772E0
2.325541594E1,-2.001097679E0,-1.437573314E0,-1.284574747E0
2.327561167E1,-2.153963089E0,-1.780588150E0,-2.406164259E-1
2.329580677E1,-2.352634668E0,-2.057556629E0,1.040363073E0
2.331599532E1,-2.351036787E0,-9.022783041E-1,1.343963265E0
2.333619896E1,-2.348373652E0,2.434127480E-1,7.500787377E-1
2.335635787E1,-2.124135733E0,4.916191697E-1,-5.632581562E-2
2.337651849E1,-1.518000722E0,-2.189116776E-1,-1.010269403E0
2.339668188E1,-1.084971070E0,-1.314535379E0,-1.974333048E0
2.341684891E1,-8.325035572E-1,-2.386190653E0,-2.174602509E0
2.343702032E1,-5.470128655E-1,-2.900712967E0,-1.500823259E0
2.345719662E1,-4.442149401E-1,-2.018141985E0,-9.191893935E-1
2.347737813E1,-4.111917615E-1,-8.399603963E-1,-4.962796867E-1
2.349756490E1,-2.322274745E-1,-5.166528746E-2,5.073318258E-2
2.351775677E1,1.821600795E-1,2.972085476E-1,4.613923132E-1
2.353795344E1,7.084003091E-1,3.414169848E-1,7.111966610E-1
2.355815438E1,1.228781581E0,3.318296373E-1,8.438219428E-1
2.357835891E1,1.786979795E0,5.890907645E-1,9.162598848E-1
2.359856625E1,2.211487293E0,1.023718357E0,1.026514649E0
2.361877552E1,1.992043018E0,9.491499066E-1,9.402283430E-1
2.363898584E1,8.383625150E-1,1.230379492E-1,2.291648388E-1
2.365919297E1,-2.199769467E-1,-3.568633199E-1,-7.711177468E-1
2.367938907E1,-3.829622865E-1,1.768337637E-1,-7.886945605E-1
2.369957490E1,-2.450106442E-1,7.366297841E-1,-2.826943398E-1
2.371975823E1,2.300969511E-1,1.486575365E0,5.780386925E-1
2.373994203E1,1.016261458E0,1.553154349E0,1.273655891E0
2.376012646E1,1.425322771E0,1.396028042E0,1.476055980E0
2.378031167E1,9.118656516E-1,-1.241032109E-1,1.372192740E0
2.380049776E1,8.096003532E-2,-2.242379904E0,1.011068344E0
2.382068479E1,4.388886094E-1,-1.446095347E0,6.350302696E-1
2.384087276E1,7.909582257E-1,-3.691138625E-1,1.482048035E-1
2.386106167E1,8.665919900E-1,-1.390169114E-1,-1.527321786E-1
2.388125146E1,8.772445917E-1,-4.079959691E-1,-2.528669536E-1
2.390144203E1,7.536740303E-1,3.403517306E-1,-1.884185076E-1
2.392163328E1,5.901560783E-1,2.511891603E0,-3.034669757E-1
2.394182511E1,5.986781716E-1,3.993140697E0,-5.058670640E-1
2.396201735E1,7.078676820E-1,3.330014229E0,-6.443513632E-1
2.398220985E1,1.156343699E0,-1.496695429E-1,-4.051996469E-1
2.400240787E1,1.345427990E0,-2.308426380E0,-1.015995219E-1
2.402259922E1,8.383625150E-1,-4.793686271E-1,1.966743022E-1
2.404277865E1,-4.314317927E-2,2.018674612E0,2.866890728E-1
2.406295854E1,-5.704486966E-1,2.839460135E0,3.741738573E-2
2.408313922E1,-4.117243886E-1,2.616820097E0,-1.181111038E-1
2.410332099E1,1.336905807E-1,1.884984016E0,1.599227041E-1
2.412350412E1,4.356928170E-1,1.218661547E0,6.014744639E-1
2.414368875E1,5.789707899E-1,9.949562550E-1,7.452850938E-1
2.416387500E1,8.293077350E-1,7.371624112E-1,7.053377032E-1
2.418406292E1,9.267793894E-1,1.182442605E-1,4.246407151E-1
2.420425245E1,4.218443930E-1,-1.731053442E-1,1.231711060E-1
2.422444349E1,-6.018739343E-1,4.633896947E-1,-1.127847880E-1
2.424463589E1,-1.143027902E0,1.000282526E0,-3.865575492E-1
2.426482943E1,-9.491499066E-1,7.291729450E-1,-9.239830375E-1
2.428502386E1,-6.476802826E-1,-3.499391079E-1,-1.384709597E0
2.430521891E1,-5.752423406E-1,-1.581383824E0,-1.243562102E0
2.432528969E1,-6.380929351E-1,-2.107624054E0,-1.240898967E0
2.434524584E1,-1.021055222E0,-2.132125139E0,-1.390568495E0
2.436522584E1,-1.744901896E0,-2.036784172E0,-1.045955777E0
2.438523709E1,-2.267413616E0,-1.716139674E0,-2.326269448E-1
2.440528542E1,-2.168876886E0,-1.153680563E0,5.157207847E-1
2.442537500E1,-2.060752630E0,-7.462171912E-1,5.311670899E-1
2.444550818E1,-2.128396749E0,-3.914843798E-1,-1.042626798E-1
2.446568542E1,-1.916409254E0,-7.526087761E-1,-6.214481592E-1
2.448590542E1,-1.396560669E0,-1.563807011E0,-9.708546400E-1
2.450616521E1,-9.049414396E-1,-2.186986208E0,-1.102414727E0
2.452646037E1,-4.964128435E-1,-2.338786364E0,-9.713872671E-1
2.454678521E1,-1.885516644E-1,-2.267413616E0,-9.831051826E-1
2.456713308E1,-1.427453309E-1,-1.903093457E0,-9.431577921E-1
2.458749667E1,-9.640636295E-2,-1.235173225E0,-5.420860648E-1
2.460786839E1,1.938779801E-1,-7.366297841E-1,-1.239700541E-1
2.462820099E1,5.922865868E-1,-2.652506530E-1,1.657816470E-1
2.464844094E1,1.010935187E0,-2.290316857E-2,2.904174924E-1
2.466862677E1,1.398158550E0,1.299621612E-1,3.910849094E-1
2.468881011E1,1.696964979E0,3.217096329E-1,5.897566080E-1
2.470899396E1,1.803491354E0,3.840275407E-1,6.675208211E-1
2.472917849E1,1.597895503E0,2.300969511E-1,4.635228515E-1
2.474936380E1,7.084003091E-1,-4.287686050E-1,1.913479865E-1
2.476955000E1,6.072002649E-2,-3.728422821E-1,-3.402185738E-1
2.478973714E1,-6.178529188E-2,-7.084003091E-2,-3.327617347E-1
2.480992521E1,-1.571263820E-1,6.332992315E-1,4.274370521E-2
2.483011422E1,8.149266988E-2,1.574992299E0,6.131923795E-1
2.485030412E1,6.551371217E-1,1.569666028E0,1.233175874E0
2.487049479E1,9.699225426E-1,1.383244872E0,1.271525264E0
2.489068615E1,9.773793817E-1,7.792403698E-1,1.051015735E0
2.491087808E1,7.467498183E-1,-6.801708341E-1,7.149250507E-1
2.493109865E1,6.759097576E-1,-9.763141274E-1,4.070638716E-1
2.495127021E1,7.062698007E-1,-1.059937328E-1,1.780321896E-1
2.497144240E1,7.478150725E-1,1.794969290E-1,6.657897611E-4
2.499161584E1,7.824361324E-1,3.494064808E-1,-7.816372067E-2
2.501179115E1,7.020087242E-1,1.092960477E0,-2.006690353E-1
2.503196875E1,6.711161137E-1,1.775794506E0,-3.833617568E-1
2.505214896E1,9.326383471E-1,1.507348061E0,-4.888228476E-1
2.507233209E1,1.387505889E0,3.824296594E-1,-3.679154217E-1
2.509251823E1,9.054740667E-1,-1.070589945E-1,-1.186437383E-1
2.511270729E1,4.793686420E-2,8.607330322E-1,1.306279600E-1
2.513289917E1,-4.101265073E-1,1.927594543E0,1.332911104E-1
2.515309365E1,-2.812296152E-1,2.106558800E0,3.954791278E-2
2.517329032E1,1.688442826E-1,1.536110163E0,1.093226820E-1
2.519348886E1,5.768402815E-1,6.620613337E-1,3.239732981E-1
2.521368875E1,7.914909124E-1,4.010717571E-1,5.460807681E-1
2.523388948E1,8.697877526E-1,7.435539961E-1,6.829671264E-1
2.525409052E1,1.022653103E0,1.041295171E0,6.669881940E-1
2.527428844E1,1.342232227E0,9.667267799E-1,4.938828647E-1
2.529447709E1,1.318263769E0,4.149201810E-1,3.207775056E-1
2.531467657E1,3.925496638E-1,2.039979845E-1,2.339585274E-1
2.533485448E1,-6.524739861E-1,5.656549931E-1,2.516685426E-2
2.535503282E1,-8.021435142E-1,5.811012983E-1,-3.929491341E-1
2.537521188E1,-2.604569495E-1,4.154528305E-2,-9.426251650E-1
2.539539209E1,7.137266546E-2,-9.427583218E-1,-1.068858862E0
2.541557375E1,-1.368863732E-1,-1.685247064E0,-1.217995763E0
2.543575709E1,-6.295707822E-1,-1.915344000E0,-1.482181191E0
2.545594219E1,-1.205345869E0,-1.813611388E0,-1.326120019E0
2.547612917E1,-1.641571283E0,-1.446627975E0,-8.851009011E-1
2.549631802E1,-2.047969341E0,-1.353950143E0,-1.452753246E-1
2.551650865E1,-2.369146347E0,-1.420529008E0,8.289082646E-1
2.553670094E1,-2.241847277E0,-6.849645376E-1,1.403085351E0
2.555689469E1,-2.162485123E0,-9.321057051E-2,9.492830634E-1
2.557708959E1,-2.271674633E0,-4.862928391E-1,-3.129211813E-2
2.559728532E1,-1.967541933E0,-1.598428130E0,-6.390250325E-1
2.561748157E1,-1.442899585E0,-2.185388327E0,-8.787093163E-1
2.563767802E1,-1.072187901E0,-2.036251545E0,-9.048082829E-1
2.565788183E1,-8.692551255E-1,-1.635712266E0,-8.408924937E-1
2.567805308E1,-7.574024200E-1,-1.251684785E0,-9.218525290E-1
2.569822532E1,-7.440866828E-1,-6.625939608E-1,-8.696545959E-1
2.571839917E1,-5.709813237E-1,-3.099917173E-1,-4.398207366E-1
2.573857516E1,-7.030740380E-2,-2.162485123E-1,5.925529078E-2
2.575875370E1,5.534044504E-1,-1.571263820E-1,3.783017397E-1
2.577893511E1,1.103613138E0,-5.965476483E-2,5.689839721E-1
2.579911959E1,1.568600655E0,3.046653867E-1,7.197187543E-1
2.581930719E1,1.818405032E0,9.395625591E-1,8.225166798E-1
2.583949782E1,1.823731303E0,1.707085013E0,6.504766345E-1
2.585969125E1,1.117994189E0,1.454617500E0,9.014793485E-2
2.587988719E1,3.302317113E-2,-1.922800839E-1,-6.416881680E-1
2.590008521E1,-1.081242561E-1,-1.954758763E-1,-7.860314250E-1
2.592028490E1,1.278316379E-1,1.407213211E0,-4.526038766E-1
2.594048573E1,7.131940126E-1,2.469813824E0,6.009418368E-1
2.596068714E1,1.139299512E0,1.946769357E0,1.467001200E0
2.598088703E1,5.209138989E-1,2.396843210E-2,1.445695877E0
2.600108052E1,-5.326318205E-4,-1.668202877E0,1.115996838E0
2.602126922E1,2.114548385E-1,-2.119874716E0,5.668534040E-1
2.604145516E1,4.708465338E-1,-1.776859760E0,-9.986846708E-3
2.606163860E1,5.832318664E-1,-7.291729450E-1,-3.609912097E-1
2.608182250E1,5.081307292E-1,6.700508595E-1,-5.277049541E-1
2.610200703E1,3.403517306E-1,2.007489443E0,-3.817638457E-1
2.612219235E1,2.540653646E-1,2.572611809E0,-2.544648647E-1
2.614237854E1,3.632549047E-1,1.846101880E0,-4.004059732E-1
2.616256568E1,9.060067534E-1,1.299621612E-1,-3.316964805E-1
2.618275375E1,1.416267991E0,-9.917604327E-1,-1.202416345E-1
2.620294276E1,1.275120616E0,-5.203812718E-1,1.077247858E-1
2.622313271E1,7.776424289E-1,5.022718310E-1,3.016027808E-1
2.624332349E1,4.016043842E-1,1.008804679E0,3.058638275E-1
2.626351495E1,4.500738978E-1,1.278849006E0,2.856238186E-1
2.628371964E1,6.956171393E-1,1.405615330E0,4.006722867E-1
2.630391089E1,7.989477515E-1,1.323590040E0,5.759081841E-1
2.632409953E1,8.181225061E-1,1.278316379E0,6.749776602E-1
2.634429901E1,1.021587849E0,1.206943750E0,6.845650673E-1
2.636447693E1,1.303350091E0,5.683181286E-1,6.360955238E-1
2.638465526E1,1.131842613E0,-2.838927507E-1,5.322323442E-1
2.640483433E1,3.616569936E-1,-2.082590461E-1,2.382195890E-1
2.642501453E1,-4.585959911E-1,4.197138846E-1,-1.324921697E-1
2.644519620E1,-7.994803786E-1,4.964128435E-1,-4.818986356E-1
2.646537953E1,-7.414234877E-1,7.989477366E-3,-9.490167499E-1
2.648556464E1,-5.960150361E-1,-5.768402815E-1,-1.349555850E0
2.650575162E1,-7.238466144E-1,-1.013065696E0,-1.381513834E0
2.652594047E1,-1.012533069E0,-1.236771107E0,-1.591903329E0
2.654613110E1,-1.383244872E0,-1.181910038E0,-1.834783435E0
2.656632339E1,-1.739575505E0,-9.720530510E-1,-1.639840245E0
2.658651714E1,-1.970205069E0,-9.645962119E-1,-9.245156646E-1
2.660671203E1,-2.291382074E0,-1.537175417E0,1.918806136E-1
2.662690776E1,-2.325470448E0,-1.291099548E0,9.913609624E-1
2.664710401E1,-1.824263930E0,-6.940192580E-1,9.056072235E-1
2.666730047E1,-1.466335416E0,-4.926844239E-1,2.211753577E-1
2.668749620E1,-1.275653243E0,-6.924213767E-1,-5.420860648E-1
2.670768495E1,-1.087634206E0,-1.326253176E0,-1.550358057E0
2.672787360E1,-9.635309577E-1,-2.077264071E0,-2.010019302E0
2.674805683E1,-6.886929274E-1,-2.697247505E0,-1.565804362E0
2.676824047E1,-4.703139067E-1,-2.234923124E0,-1.017726302E0
2.678842474E1,-4.079959691E-1,-1.154213190E0,-3.684480488E-1
2.680860974E1,-3.845601678E-1,-2.503369451E-1,2.616553903E-1
2.682879558E1,-2.008021921E-1,1.038632020E-1,6.435524225E-1
2.684898235E1,8.522108942E-2,2.492716908E-1,8.502135277E-1
2.686917006E1,4.681833684E-1,2.439453751E-1,9.540767670E-1
2.688935870E1,9.805752039E-1,5.075981021E-1,9.242493510E-1
2.690957016E1,1.650626063E0,1.359809041E0,8.853672147E-1
2.692976073E1,1.985651374E0,1.770468116E0,8.656598926E-1
2.694995490E1,1.479651213E0,1.437573314E0,6.930871606E-1
2.697014360E1,4.841623306E-1,7.792403698E-1,-7.177213579E-2
2.699032162E1,-2.716422379E-1,5.326318145E-1,-8.733830452E-1
2.701050026E1,-3.925496638E-1,7.424887419E-1,-6.917555928E-1
2.703067990E1,8.149266988E-2,1.042893052E0,-1.713742912E-1
2.705086084E1,7.989477515E-1,1.327318549E0,4.107922912E-1
2.707104334E1,1.327851176E0,7.845667005E-1,7.916240692E-1
2.709122756E1,1.637310266E0,4.942823350E-1,7.676556110E-1
2.711141360E1,1.598960757E0,2.487390637E-1,9.226514697E-1
2.713160151E1,1.106276274E0,-2.445312738E0,1.090430498E0
2.715179125E1,7.781751156E-1,-3.632549047E0,1.114398956E0
2.717198271E1,3.515369892E-1,-1.094558358E0,1.037167311E0
2.719217573E1,-4.793686420E-2,1.444497466E0,4.012049139E-1
2.721237006E1,-3.707117438E-1,2.508163214E0,-9.733846784E-2
2.723256542E1,-4.868254960E-1,2.424007416E0,-3.785680532E-1
2.725276151E1,-4.841623306E-1,1.842373490E0,-3.785680532E-1
2.727295797E1,-1.576590240E-1,7.744466662E-1,2.872217000E-1
2.729315417E1,3.296990991E-1,1.523326933E-1,3.404848874E-1
2.731334646E1,5.811012983E-1,4.522044063E-1,-5.628587008E-1
2.733353516E1,1.395495415E0,7.973498106E-1,-8.749809265E-1
2.735372110E1,2.195508480E0,9.544762373E-1,-4.009386003E-1
2.737390453E1,1.506282806E0,5.789707899E-1,1.087900475E-1
2.739408849E1,1.384842768E-2,6.881603003E-1,1.961416751E-1
2.741427313E1,-8.426235318E-1,1.702291250E0,8.056056499E-2
2.743445854E1,-8.186551332E-1,2.475140095E0,1.641837656E-1
2.745464485E1,-4.639223218E-1,2.254630566E0,2.616553903E-1
2.747483209E1,1.059937328E-1,1.345427990E0,4.683165252E-1
2.749502026E1,9.603351951E-1,7.137266397E-1,6.824344993E-1
2.751520938E1,1.462074399E0,4.165180922E-1,6.488786936E-1
2.753539938E1,1.157941580E0,-6.551371515E-2,4.992091656E-1
2.755559016E1,3.504717350E-1,-2.300969511E-1,3.314301372E-1
2.757578162E1,-2.141179889E-1,-9.054740891E-3,1.274321675E-1
2.759597365E1,-2.322274745E-1,-4.793686327E-3,-1.207742617E-1
2.761616610E1,-2.732401192E-1,-2.982738242E-2,-4.845618010E-1
2.763635880E1,-1.000282526E0,4.079959691E-1,-9.293093681E-1
2.765655703E1,-2.247173548E0,8.181225061E-1,-1.373524308E0
2.767674839E1,-2.583264351E0,8.463519812E-1,-1.726126552E0
2.769692761E1,-2.083655596E0,3.036001325E-1,-1.871002436E0
2.771710735E1,-1.720400810E0,-5.331644416E-1,-1.469398022E0
2.773728797E1,-1.552621722E0,-8.346340656E-1,-6.539387107E-1
2.775746974E1,-1.464737535E0,-1.432246923E0,2.280995846E-1
2.777765287E1,-1.736912370E0,-2.221074581E0,8.326367140E-1
2.779783756E1,-2.109221935E0,-1.824796677E0,8.347672224E-1
2.781802391E1,-2.090047359E0,-7.824361324E-1,3.884217441E-1
2.783821193E1,-1.574992299E0,-5.352949500E-1,-1.793637723E-1
2.785840156E1,-8.777772188E-1,-1.139832139E0,-8.398272395E-1
2.787859271E1,-7.542066574E-1,-1.637310266E0,-1.204147339E0
2.789880896E1,-8.751140833E-1,-1.596830249E0,-9.602020383E-1
2.791900844E1,-8.080024719E-1,-1.203747869E0,-4.414186180E-1
2.793919719E1,-6.141244769E-1,-5.054675937E-1,-9.520793706E-2
2.795938052E1,-4.079959691E-1,4.101264849E-2,9.387636185E-2
2.797956427E1,-1.336905807E-1,2.039979845E-1,2.014679909E-1
2.799974854E1,2.348906398E-1,2.455432713E-1,3.308975101E-1
2.801993354E1,6.689855456E-1,4.197138846E-1,5.189165473E-1
2.804011938E1,1.156343699E0,8.250467181E-1,6.840324402E-1
2.806030615E1,1.706552386E0,1.441301703E0,7.708513737E-1
2.808049386E1,1.932388186E0,1.696964979E0,6.510092616E-1
2.810068250E1,1.400821686E0,1.159539461E0,4.432828426E-1
2.812087209E1,1.874863952E-1,-2.306295782E-1,-1.511342824E-1
2.814106250E1,-2.061285079E-1,-6.348971128E-1,-1.009736776E0
2.816125365E1,-2.647180259E-1,-2.178464085E-1,-1.015063047E0
2.818144542E1,-1.027979404E-1,7.856319547E-1,-5.458144546E-1
2.820163771E1,5.049349666E-1,1.402952194E0,4.059986174E-1
2.822183032E1,1.091895223E0,1.466868043E0,1.262470603E0
2.824202313E1,8.724509478E-1,1.460476398E0,1.620399117E0
2.826222677E1,-2.039979845E-1,-6.945518851E-1,1.237969518E0
2.828240604E1,-3.584612012E-1,-1.793371320E0,6.057355404E-1
2.830258563E1,3.818970025E-1,-1.079112053E0,-4.660528619E-3
2.832276594E1,7.153245211E-1,4.048001766E-1,-1.143826842E-1
2.834294729E1,6.045371294E-1,1.263935328E0,6.777740270E-2
2.836312990E1,4.990760088E-1,1.775261879E0,1.620532274E-1
2.838331396E1,4.468781054E-1,2.144908428E0,1.700427085E-1
2.840349959E1,4.245075583E-1,1.761946082E0,1.647163928E-1
2.842368688E1,4.783033729E-1,4.756402075E-1,7.057371549E-3
2.844387584E1,7.675224543E-1,-4.585959911E-1,-9.574057162E-2
2.846406636E1,1.117994189E0,-2.695116997E-1,-6.857634336E-2
2.848425834E1,9.209204316E-1,5.826992393E-1,-3.129211813E-2
2.850445156E1,2.119874656E-1,1.439171195E0,5.659212917E-2
2.852464584E1,-4.490086138E-1,1.846101880E0,4.221107066E-2
2.854484084E1,-6.562023759E-1,1.861015558E0,-5.153212696E-2
2.856503625E1,-4.564654827E-1,1.744901896E0,-3.994738800E-4
2.858523188E1,-1.475390196E-1,1.674061775E0,2.046637833E-1
2.860542636E1,8.415582776E-2,1.686844945E0,3.937480748E-1
2.862561511E1,4.000065029E-1,1.455682755E0,4.848281145E-1
2.864579844E1,8.181225061E-1,9.363667369E-1,4.906870723E-1
2.866598219E1,8.889625072E-1,4.628570378E-1,3.910849094E-1
2.868616646E1,3.014696240E-1,4.926844239E-1,2.573943138E-1
2.870635146E1,-6.274402738E-1,8.090677261E-1,1.114532053E-1
2.872653729E1,-1.065263629E0,7.584677339E-1,-1.026647836E-1
2.874672407E1,-7.419561148E-1,3.952127993E-1,-3.956122994E-1
2.876691177E1,-8.149266988E-2,-2.189116776E-1,-5.644565821E-1
2.878710042E1,-1.917474531E-2,-5.065328479E-1,-8.201198578E-1
2.880729000E1,-6.460824013E-1,-4.932170510E-1,-1.371926427E0
2.882748042E1,-1.385375381E0,-4.969455004E-1,-1.662743330E0
2.884767167E1,-2.011217833E0,-5.054675937E-1,-1.358610630E0
2.886786354E1,-2.412822247E0,-4.916191697E-1,-6.017407775E-1
2.888805594E1,-2.649843216E0,-6.317013502E-1,3.964112401E-1
2.890826610E1,-2.953443527E0,-9.443562031E-1,1.446761131E0
2.892843912E1,-3.126016140E0,-4.287686050E-1,2.206294060E0
2.894861302E1,-2.866624355E0,3.131875098E-1,2.069407701E0
2.896878834E1,-2.153430462E0,8.799077868E-1,9.791104198E-1
2.898896558E1,-1.623994470E0,9.763141274E-1,-1.532648057E-1
2.900914516E1,-1.546230197E0,6.961497664E-1,-8.520777822E-1
2.902932735E1,-1.341699600E0,1.203747913E-1,-1.157275796E0
2.904951229E1,-1.140364766E0,-2.790990770E-1,-1.065130472E0
2.906970006E1,-1.132375240E0,-2.652506530E-1,-6.060018539E-1
2.908989058E1,-1.056741476E0,-6.977476925E-2,-6.431528926E-2
2.911008365E1,-7.643266916E-1,2.636527419E-1,4.139880836E-1
2.913027896E1,-1.400821656E-1,8.346340656E-1,8.352998495E-1
2.915047620E1,6.103960872E-1,8.527435660E-1,1.050483108E0
2.917067495E1,1.160072088E0,4.340949357E-1,1.177782059E0
2.919087474E1,1.521729112E0,6.913561225E-1,1.232110500E0
2.921107511E1,1.720400810E0,1.320926905E0,1.055809379E0
2.923127417E1,1.684181809E0,1.957954526E0,7.777756453E-1
2.925148896E1,1.242630005E0,2.625874758E0,3.980091214E-1
2.927165615E1,2.103895694E-1,3.172355175E0,7.257108390E-2
2.929182417E1,-1.102547884E0,2.590188503E0,-2.294311523E-1
2.931199375E1,-1.460476398E0,2.463422060E0,-4.771049619E-1
2.933216563E1,-1.003478408E0,2.715357065E0,-2.651174963E-1
2.935236521E1,-4.367581010E-1,2.149702072E0,5.412870646E-1
2.937257365E1,-5.075981021E-1,4.671181142E-1,1.173521042E0
2.939278068E1,-6.812360883E-1,-3.217096329E-1,1.100550532E0
2.941297771E1,-2.854906619E-1,-2.913496196E-1,9.370325208E-1
2.943317188E1,6.391581893E-2,7.989477366E-3,7.644598484E-1
2.945336068E1,2.178464085E-1,2.258358896E-1,6.510092616E-1
2.947353891E1,3.190464675E-1,5.001412630E-1,4.496744275E-1
2.949371771E1,2.343579978E-1,1.426920652E0,1.327584833E-1
2.951389745E1,4.687159881E-2,2.573677063E0,-1.415469050E-1
2.953407849E1,-1.491369121E-2,2.564622164E0,-4.115912318E-1
2.955426110E1,2.024000883E-1,1.637842894E0,-5.010733604E-1
2.957444542E1,1.268728971E0,6.386255622E-1,-4.940159991E-2
2.959463156E1,1.733716607E0,-2.316948473E-1,2.898848653E-1
2.961481959E1,9.129309654E-1,-1.960085034E-1,1.370195299E-1
2.963500943E1,-3.946801722E-1,1.190964699E0,-9.893636405E-2
2.965520099E1,-1.131309986E0,2.336123228E0,-1.964079887E-1
2.967539412E1,-1.057274222E0,2.433594704E0,-2.374206334E-1
2.969558854E1,-5.139896870E-1,1.963280916E0,-1.463405937E-1
2.971578396E1,8.149266988E-2,1.000282526E0,5.446160212E-2
2.973598006E1,5.198486447E-1,2.370211631E-1,2.611227632E-1
2.975617651E1,9.278446436E-1,1.592569202E-1,3.825628161E-1
2.977637256E1,1.111602664E0,4.175833464E-1,4.113249183E-1
2.979656469E1,9.017456770E-1,6.679202914E-1,4.044007063E-1
2.981675073E1,4.575307369E-1,8.623309135E-1,3.324954212E-1
2.983693427E1,6.657897681E-2,9.203878045E-1,2.733732760E-1
2.985711834E1,-1.992042959E-1,8.213182688E-1,2.440785319E-1
2.987730308E1,-2.593916953E-1,4.154528081E-1,1.759016514E-1
2.989748860E1,1.017326787E-1,-4.974781275E-1,5.659212917E-2
2.991767500E1,8.330361843E-1,-1.494032264E0,-7.922898233E-2
2.993786235E1,1.346493244E0,-1.413072228E0,-2.241048366E-1
2.995805063E1,9.321056604E-1,-1.034903646E0,-4.344944060E-1
2.997823985E1,-2.695116997E-1,-9.028109312E-1,-5.724460483E-1
2.999842995E1,-1.203215241E0,-7.882950902E-1,-7.620629668E-1
3.001862084E1,-1.654887080E0,-6.077328920E-1,-8.568714261E-1
3.003881240E1,-1.918007135E0,-6.759097576E-1,-7.711177468E-1
3.005900453E1,-2.269544125E0,-1.409343839E0,-6.107955575E-1
3.007919709E1,-2.606167555E0,-1.831720829E0,-1.772332340E-1
3.009938985E1,-2.468748569E0,-9.534109831E-1,2.589922249E-1
3.011958808E1,-2.213085175E0,-1.315600574E-1,1.034637317E-1
3.013977922E1,-2.212019920E0,-2.130527236E-2,-1.990711391E-1
3.015995802E1,-1.905756712E0,-9.906952083E-2,-3.407512009E-1
3.018013735E1,-9.912278056E-1,-5.502086878E-1,-5.479449630E-1
3.020031756E1,-3.818970025E-1,-1.690040708E0,-6.613955498E-1
3.022049896E1,-3.089264631E-1,-2.197638988E0,-6.571345329E-1
3.024068183E1,-1.523326933E-1,-2.036251545E0,-7.178545594E-1
3.026086630E1,6.870950758E-2,-1.656484962E0,-6.512755752E-1
3.028105282E1,2.231727391E-1,-1.295360565E0,-2.981406748E-1
3.030107136E1,4.127896726E-1,-9.544762373E-1,7.843003422E-2
3.032110521E1,6.620613337E-1,-5.779055357E-1,2.936132848E-1
3.034115995E1,9.555414915E-1,-3.605917394E-1,3.378217220E-1
3.036124011E1,1.308143735E0,-3.110569715E-1,3.362238407E-1
3.038136407E1,1.631983876E0,-2.274337858E-1,4.012049139E-1
3.040154646E1,1.830122948E0,2.450106293E-2,3.564638495E-1
3.042175636E1,1.516935468E0,5.837644935E-1,2.504701018E-1
3.044199177E1,-2.183790505E-2,-1.528653353E-1,-1.314269006E-1
3.046224990E1,-5.981455445E-1,-1.853558719E-1,-6.198502779E-1
3.048252698E1,-5.661876202E-1,6.950845122E-1,-6.560692191E-1
3.050281875E1,-3.296990991E-1,1.494032264E0,-2.752375007E-1
3.052312052E1,4.426170290E-1,1.120124698E0,4.965460002E-1
3.054342740E1,1.115863681E0,2.631201148E-1,1.038765192E0
3.056373438E1,1.351819515E0,-2.167811543E-1,1.019057870E0
3.058392771E1,1.422659636E0,-6.151897311E-1,6.925545335E-1
3.060411646E1,1.773131371E0,-1.056741476E0,5.179844424E-2
3.062429979E1,1.282044768E0,-4.788360000E-1,-7.177213579E-2
3.064448354E1,3.739075363E-1,1.182442605E-1,6.085318699E-2
3.066466782E1,-1.406148076E-1,-2.668485343E-1,4.380896688E-2
3.068485282E1,-3.259706795E-1,-4.351601899E-1,5.392897129E-2
3.070503865E1,-2.870885432E-1,4.617917836E-1,-2.383527346E-2
3.072522542E1,2.183790505E-2,1.814676642E0,-1.474058628E-1
3.074541313E1,1.034903646E0,1.884451389E0,-3.087933064E-1
3.076560188E1,2.163550377E0,5.502086878E-1,-1.980058849E-1
3.078579156E1,1.951030374E0,-1.165398479E0,-3.502054140E-2
3.080598209E1,1.155278444E0,-1.398158550E0,1.263668984E-1
3.082617334E1,7.238466144E-1,1.518000662E-1,2.462090552E-1
3.084636521E1,4.916191697E-1,1.573394418E0,1.279647946E-1
3.086655761E1,9.214530140E-2,1.767272353E0,4.008054361E-2
3.088675844E1,-8.096003532E-2,1.446627975E0,1.418132186E-1
3.090694839E1,1.885516644E-1,1.503087044E0,4.028028250E-1
3.092714256E1,5.896234512E-1,1.736379743E0,6.728471518E-1
3.094733136E1,1.000282526E0,1.253282666E0,7.671229839E-1
3.096750959E1,1.335840583E0,1.699095517E-1,6.510092616E-1
3.098768839E1,1.046621561E0,-4.948149621E-1,3.553985953E-1
3.100786813E1,6.657897681E-2,2.343579940E-2,-2.543316968E-2
3.102804917E1,-7.659245729E-1,5.651223660E-1,-2.826943398E-1
3.104823177E1,-7.414234877E-1,3.605917394E-1,-4.334291518E-1
3.106841610E1,-2.338253707E-1,-4.532696903E-1,-6.358292103E-1
3.108860224E1,-2.593916953E-1,-1.296958447E0,-9.831051826E-1
3.110879026E1,-1.001880407E0,-1.781120777E0,-1.455016971E0
3.112898011E1,-1.738510251E0,-1.931855559E0,-1.759549260E0
3.114917167E1,-2.148636818E0,-1.595232248E0,-1.774995565E0
3.116936479E1,-2.295643091E0,-8.804404140E-1,-1.292963743E0
3.118955922E1,-2.295110464E0,-4.314317703E-1,-1.701758653E-1
3.120975464E1,-2.386190653E0,-1.071655273E0,1.278582692E0
3.122995073E1,-2.565154791E0,-1.748630285E0,1.901761889E0
3.125014719E1,-2.629603386E0,-1.049284697E0,1.413338542E0
3.127034334E1,-2.410158873E0,1.928127259E-1,4.870918095E-1
3.129053563E1,-1.631451249E0,1.384842768E-2,-7.187866569E-1
3.131072443E1,-1.054078341E0,-1.012000442E0,-1.829856634E0
3.133091047E1,-9.922930598E-1,-1.624527097E0,-1.741972327E0
3.135109401E1,-8.841688037E-1,-1.960085154E0,-1.083106756E0
3.137130537E1,-6.684529185E-1,-1.708150268E0,-4.540686309E-1
3.139147964E1,-3.946801722E-1,-7.472824454E-1,1.464737486E-2
3.141165443E1,6.604634225E-2,2.114548385E-1,2.671148479E-1
3.143183026E1,6.029392481E-1,7.861645818E-1,3.294327855E-1
3.145200766E1,1.097221494E0,1.006141543E0,2.948117256E-1
3.147218703E1,1.683116555E0,1.384842753E0,3.688475490E-1
3.149236860E1,2.279664278E0,1.964878798E0,6.181192398E-1
3.151255256E1,2.226401091E0,2.135853529E0,7.518098354E-1
3.153273901E1,8.080024719E-1,1.100417376E0,3.491401672E-1
3.155292797E1,-5.118591785E-1,-1.502021700E-1,-7.720498443E-1
3.157311933E1,-3.009369671E-1,2.668485343E-1,-9.643298984E-1
3.159331287E1,-1.081242561E-1,6.759097576E-1,-5.323655009E-1
3.161350839E1,2.178464085E-1,1.190432072E0,1.573926955E-1
3.163370547E1,9.432909489E-1,1.076981544E0,1.057007790E0
3.165390381E1,1.531316519E0,8.468846083E-1,1.572062850E0
3.167410287E1,1.333177447E0,1.195225835E0,1.626391292E0
3.169430224E1,8.218508959E-1,9.278446436E-1,1.447426915E0
3.171450047E1,4.649875760E-1,4.245075583E-1,1.221058488E0
3.173468933E1,2.194443047E-1,-3.728422895E-2,9.009467363E-1
3.175487808E1,1.182442605E-1,-3.515369892E-1,2.479401082E-1
3.177507766E1,1.379516423E-1,-6.849645376E-1,-4.055991173E-1
3.179525578E1,1.400821656E-1,-5.566002727E-1,-7.352982163E-1
3.181543433E1,1.432779580E-1,2.567285299E-1,-5.771065950E-1
3.183561360E1,3.925496638E-1,1.066861510E0,-3.427485824E-1
3.185579401E1,1.663941860E0,1.661811233E0,-2.351569533E-1
3.187597589E1,2.162485123E0,1.268728971E0,-2.548643351E-1
3.189615943E1,9.193225503E-1,4.527370632E-2,-2.607232630E-1
3.191634474E1,-5.315665603E-1,2.561959028E-1,-3.115896136E-2
3.193653193E1,-9.150614738E-1,1.393364787E0,-1.046621501E-1
3.195672099E1,-4.314317703E-1,2.198171616E0,-2.399506420E-1
3.197691183E1,1.166463718E-1,1.866874576E0,-1.004010960E-1
3.199710422E1,3.984085917E-1,9.725856781E-1,2.798980176E-1
3.201729797E1,5.581981540E-1,8.383625150E-1,5.211802125E-1
3.203749287E1,8.197203875E-1,1.194693208E0,6.356960535E-1
3.205768860E1,8.319709301E-1,8.474172354E-1,7.113298178E-1
3.207788485E1,3.414169848E-1,4.223770201E-1,6.543381810E-1
3.209808130E1,-2.972085476E-1,7.291729450E-1,4.359591305E-1
3.211827672E1,-7.520761490E-1,8.245140314E-1,1.776327193E-1
3.213846558E1,-7.776424289E-1,3.952127993E-1,-1.392832249E-1
3.215865433E1,-4.053328037E-1,-1.938779801E-1,-6.372939944E-1
3.217883766E1,-2.263685167E-1,-6.556697488E-1,-1.118260503E0
3.219902141E1,-5.688507557E-1,-1.125983715E0,-1.450622797E0
3.221920578E1,-1.114798427E0,-1.451954365E0,-1.686578631E0
3.223939089E1,-1.613874435E0,-1.483912230E0,-1.613608122E0
3.225957683E1,-1.851960897E0,-1.258076310E0,-1.246092200E0
3.227976370E1,-1.811480880E0,-8.905603886E-1,-6.064013243E-1
3.229995151E1,-1.737977624E0,-8.745814562E-1,1.888179779E-1
3.232014026E1,-1.870602965E0,-1.121722579E0,6.000097394E-1
3.234032995E1,-2.014946222E0,-8.847014308E-1,3.006706536E-1
3.236052047E1,-2.091112614E0,-7.174550891E-1,-2.122537792E-1
3.238073578E1,-1.807219744E0,-8.926909566E-1,-5.685844421E-1
3.240091594E1,-9.928256869E-1,-1.675127029E0,-8.801741004E-1
3.242109656E1,-3.627222776E-1,-2.637060165E0,-7.731150985E-1
3.244127797E1,-2.300969511E-1,-2.513489485E0,-6.229129434E-1
3.246146042E1,-2.998717129E-1,-1.709215522E0,-6.687192321E-1
3.248164412E1,-3.717769980E-1,-7.355645299E-1,-5.030707717E-1
3.250182922E1,-2.625874877E-1,-2.514022291E-1,-1.062600464E-1
3.252201584E1,6.870950758E-2,-1.379516423E-1,1.877527237E-1
3.254220401E1,4.452801943E-1,-1.544632297E-2,3.225085735E-1
3.256239370E1,8.239814043E-1,1.613874435E-1,4.332959950E-1
3.258258479E1,1.298023701E0,5.528718233E-1,5.925529003E-1
3.260277714E1,1.773663998E0,9.725856781E-1,7.395592928E-1
3.262297052E1,2.006956816E0,1.008272052E0,6.639255881E-1
3.264316474E1,1.643169165E0,4.372907281E-1,3.379548788E-1
3.266335953E1,4.506065249E-1,-4.527370334E-1,-2.335590571E-1
3.268355464E1,-1.688442826E-1,-1.390169114E-1,-7.273087502E-1
3.270374959E1,-1.560611278E-1,2.876211703E-1,-5.536707640E-1
3.272394131E1,2.274337858E-1,1.035436273E0,-1.749695539E-1
3.274413547E1,7.717835307E-1,1.284175277E0,4.093275666E-1
3.276432433E1,1.072187901E0,5.406212807E-1,6.506097913E-1
3.278450266E1,1.162202597E0,-1.411474347E-1,3.757717609E-1
3.280468156E1,1.081242561E0,-9.001477957E-1,3.086601496E-1
3.282486141E1,8.096003532E-1,-1.527055383E0,3.613906801E-1
3.284504256E1,3.850927949E-1,-5.842971206E-1,4.940160215E-1
3.286522526E1,5.326318205E-4,4.388886094E-1,5.888244510E-1
3.288540969E1,-9.427583218E-2,8.660593629E-1,6.181192398E-1
3.290559594E1,2.961432934E-1,7.334340215E-1,5.829655528E-1
3.292578406E1,6.247771382E-1,1.102547884E0,2.719085515E-1
3.294597401E1,6.002760530E-1,1.965944052E0,-2.298306376E-1
3.296616563E1,5.150549412E-1,2.053295612E0,-5.872265697E-1
3.298635870E1,8.048067093E-1,1.401886940E0,-5.041360259E-1
3.300655302E1,1.954226136E0,4.063980877E-1,-8.388951421E-2
3.302674834E1,1.523859620E0,-3.824296594E-1,3.379548788E-1
3.304694433E1,-4.633896798E-2,7.526087761E-1,4.428833723E-1
3.306714068E1,-1.053545713E0,2.449041128E0,6.524740160E-2
3.308733677E1,-9.757815003E-1,3.019489765E0,-1.062600464E-1
3.310752901E1,-3.344927728E-1,2.621081114E0,2.263685316E-2
3.312771506E1,6.924213842E-3,1.671931267E0,3.390201628E-1
3.314789860E1,1.565937549E-1,9.992172718E-1,5.637907982E-1
3.316808266E1,6.375603080E-1,9.757815003E-1,6.841655970E-1
3.318826740E1,1.197888970E0,1.056208849E0,6.601971388E-1
3.320845292E1,1.342764854E0,7.243793011E-1,6.367613673E-1
3.322863933E1,5.858950019E-1,3.818970025E-1,6.857634783E-1
3.324882667E1,-6.024065614E-1,3.664506972E-1,5.360939503E-1
3.326901495E1,-9.550088644E-1,2.141179889E-1,1.914811432E-1
3.328920417E1,-3.456780612E-1,-8.894951642E-2,-2.820285559E-1
3.330939427E1,3.355580568E-1,-6.945518851E-1,-7.768434882E-1
3.332958516E1,1.257011145E-1,-7.206508517E-1,-1.165664792E0
3.334977672E1,-7.435539961E-1,-3.121222556E-1,-1.477254391E0
3.336996886E1,-1.708682895E0,-5.661876202E-1,-1.691905022E0
3.339016141E1,-2.362754822E0,-8.069372177E-1,-1.569932342E0
3.341035422E1,-2.611493826E0,-8.404930234E-1,-9.813741446E-1
3.343055256E1,-2.783533812E0,-1.354482770E0,1.115863696E-1
3.345074401E1,-2.991792917E0,-1.968074560E0,1.392565846E0
3.347092334E1,-2.904441357E0,-1.270859480E0,2.238385201E0
3.349113334E1,-2.766489744E0,-3.781685978E-2,1.837846041E0
3.351130563E1,-2.478868484E0,5.890907645E-1,4.295675755E-1
3.353147854E1,-2.080459833E0,3.792338669E-1,-9.664604664E-1
3.355165271E1,-1.789642930E0,-1.704421826E-2,-1.869271398E0
3.357182865E1,-1.515870214E0,-5.992107987E-1,-1.948100924E0
3.359200677E1,-1.249554276E0,-1.237303734E0,-1.393631101E0
3.361218740E1,-1.005608916E0,-1.321992159E0,-7.475487590E-1
3.363237084E1,-8.538088202E-1,-7.797729969E-1,-2.724411786E-1
3.365255719E1,-6.013413072E-1,-1.496695429E-1,1.664474458E-1
3.367274636E1,5.326318089E-3,4.202465117E-1,5.946834087E-1
3.369293823E1,8.032087684E-1,7.627287507E-1,8.753803968E-1
3.371313261E1,1.456748009E0,9.651288390E-1,1.086302638E0
3.373332917E1,1.987249374E0,1.341699600E0,1.197622657E0
3.375352750E1,2.325470448E0,1.916941881E0,1.164599419E0
3.377372719E1,2.032522917E0,2.144375801E0,9.158604145E-1
3.379392771E1,8.293077350E-1,1.381646991E0,2.809632719E-1
3.381412854E1,-6.764423847E-1,1.752358675E-1,-7.150582075E-1
3.383432698E1,-7.190529704E-1,4.745749533E-1,-1.065529943E0
3.385451584E1,-3.115896285E-1,1.041827798E0,-7.060034871E-1
3.387470459E1,5.912213027E-2,1.789110303E0,-9.321057238E-3
3.389488792E1,4.048001766E-1,2.271674633E0,6.575340033E-1
3.391507167E1,3.531349003E-1,2.255695820E0,1.008538365E0
3.393525604E1,-5.566002727E-1,1.616537571E0,9.621993899E-1
3.395544115E1,-4.127896726E-1,-1.018924713E0,9.147951603E-1
3.397562709E1,9.193225503E-1,-1.674061775E0,5.952160358E-1
3.399581396E1,1.331579566E0,-5.177181363E-1,3.779022694E-1
3.401600177E1,1.131309986E0,8.111982346E-1,2.942790687E-1
3.403619052E1,7.643266916E-1,1.287903786E0,2.245043069E-1
3.405638021E1,4.575307369E-1,1.284175277E0,1.712411344E-1
3.407657073E1,2.189116776E-1,1.582981825E0,6.045371294E-2
3.409676198E1,6.657897681E-2,2.274337769E0,-1.265000552E-1
3.411695386E1,5.912213027E-2,2.490053654E0,-3.187801540E-1
3.413714625E1,6.450171471E-1,1.843438745E0,-2.506032586E-1
3.415733896E1,8.926909566E-1,1.066861510E0,-1.408811212E-1
3.417753188E1,9.747162461E-2,1.115331054E0,8.788425475E-3
3.419773563E1,-7.877624631E-1,1.715074420E0,1.334242672E-1
3.421791479E1,-1.022653103E0,2.290849447E0,-7.190529723E-3
3.423809427E1,-6.988129616E-1,2.706302166E0,-9.614004195E-2
3.425827448E1,-3.174485564E-1,2.659430742E0,-3.328948840E-2
3.427845573E1,-1.257011145E-1,2.441584349E0,2.479401082E-1
3.429863823E1,1.890842915E-1,2.370744228E0,5.105276108E-1
3.431882219E1,7.094655633E-1,2.079927206E0,7.139929533E-1
3.433900782E1,9.225183129E-1,1.367798567E0,8.301066756E-1
3.435919511E1,5.406212807E-1,9.523456693E-1,7.645930052E-1
3.437938406E1,-2.940127552E-1,1.109472036E0,4.641886353E-1
3.439957459E1,-7.882950902E-1,1.164333105E0,5.885581672E-2
3.441976656E1,-6.141244769E-1,9.257140756E-1,-2.894853950E-1
3.443995979E1,-1.198421568E-1,3.387538493E-1,-7.187866569E-1
3.446015407E1,7.776424289E-2,-3.808317482E-1,-1.211471081E0
3.448034917E1,-5.374255180E-1,-4.287686050E-1,-1.548627019E0
3.450054479E1,-1.544099689E0,-2.338253707E-1,-1.786180854E0
3.452074063E1,-2.334525347E0,-6.801708341E-1,-1.927860856E0
3.454093604E1,-2.877809763E0,-5.139896870E-1,-1.653022885E0
3.456112490E1,-3.364635229E0,9.278446436E-1,-8.615319729E-1
3.458130834E1,-3.878092289E0,8.617982864E-1,2.708432674E-1
3.460149219E1,-3.672496319E0,2.247706354E-1,1.062866807E0
3.462167656E1,-2.682866573E0,7.968171835E-1,1.039963603E0
3.464186167E1,-1.781120777E0,7.446193099E-1,3.054643571E-1
3.466204761E1,-1.193095326E0,-6.673876643E-1,-4.530033767E-1
3.468223448E1,-1.453019619E0,-1.447693229E0,-9.009467363E-1
3.470242229E1,-1.826927185E0,-1.051947832E0,-1.023452044E0
3.472261104E1,-1.540903807E0,-1.398691177E0,-8.711193204E-1
3.474280073E1,-1.041295171E0,-1.487107992E0,-5.350286365E-1
3.476299125E1,-6.455497742E-1,-6.242445111E-1,-5.619265884E-2
3.478318250E1,-2.945453823E-1,1.757685095E-2,3.800328076E-1
3.480337438E1,3.515370190E-2,4.846949503E-2,5.281044245E-1
3.482356677E1,2.359558940E-1,-2.237053663E-1,4.945486486E-1
3.484375948E1,4.218443930E-1,-2.620548606E-1,5.563339591E-1
3.486395229E1,9.139962196E-1,1.038632020E-1,6.772413850E-1
3.488415594E1,1.630385995E0,4.868254960E-1,7.443529963E-1
3.490433490E1,1.561143875E0,2.631201148E-1,7.480813861E-1
3.492451417E1,5.060002208E-1,5.060002208E-2,5.004075766E-1
3.494469417E1,-1.731053442E-1,-2.359558940E-1,-4.301002026E-1
3.496487521E1,-2.508696020E-1,1.837579757E-1,-5.025381446E-1
3.498505761E1,-2.135853618E-1,8.325035572E-1,-3.222422674E-2
3.500524157E1,2.450106442E-1,1.086568952E0,6.958834529E-1
3.502542719E1,9.054740667E-1,1.065796256E0,1.307344794E0
3.504561448E1,1.255945802E0,1.463139653E0,1.379250050E0
3.506580344E1,1.185638428E0,1.503619671E0,1.159273148E0
3.508599406E1,3.526022732E-1,-9.374319762E-2,9.472857118E-1
3.510618615E1,-2.822948620E-2,-9.837709665E-1,8.402267098E-1
3.512637948E1,3.802991211E-1,-1.187768951E-1,8.242477179E-1
3.514657386E1,7.376950979E-1,9.150614738E-1,6.878939867E-1
3.516676907E1,8.463519812E-1,1.103613138E0,2.932138145E-1
3.518696479E1,6.828339696E-1,9.763141274E-1,-1.227716357E-1
3.520716073E1,4.122570157E-1,9.134635925E-1,-3.486075401E-1
3.522735615E1,3.504717350E-1,5.502086878E-1,-4.354265034E-1
3.524754490E1,7.286403179E-1,1.134505793E-1,-5.344960093E-1
3.526772823E1,1.176583648E0,2.407495826E-1,-5.520728827E-1
3.528791198E1,9.044088125E-1,8.202530146E-1,-4.460791349E-1
3.530809636E1,1.203747913E-1,1.427453279E0,-1.994706094E-1
3.532828146E1,-4.255728126E-1,1.638908148E0,3.009369783E-2
3.534846740E1,-3.387538493E-1,1.685247064E0,5.352949724E-2
3.536865427E1,5.379581451E-2,1.549958587E0,1.296958476E-1
3.538884209E1,3.259706795E-1,1.230912089E0,3.619233072E-1
3.540903084E1,5.305013061E-1,1.104145765E0,5.834981799E-1
3.542922052E1,9.150614738E-1,1.033838391E0,6.607297659E-1
3.544941104E1,1.326785922E0,6.072002649E-1,5.558013320E-1
3.546960229E1,1.335840583E0,-2.663159184E-2,3.161169887E-1
3.548979417E1,7.478150725E-1,-2.135853618E-1,6.311687082E-2
3.550998657E1,-2.689790726E-1,3.073285520E-1,-1.009337306E-1
3.553017927E1,-1.105743647E0,7.925561666E-1,-1.600558609E-1
3.555037219E1,-1.192030072E0,7.760445476E-1,-2.218411565E-1
3.557057594E1,-8.665919900E-1,4.021370113E-1,-3.752391040E-1
3.559075479E1,-6.817687154E-1,-4.740423262E-1,-5.776392221E-1
3.561093396E1,-9.289098978E-1,-1.156876326E0,-8.450203538E-1
3.563111386E1,-1.350754261E0,-1.369929075E0,-1.129445791E0
3.565129479E1,-1.628788114E0,-1.455682755E0,-1.192296386E0
3.567147709E1,-1.737977624E0,-1.560078621E0,-7.672561407E-1
3.569166094E1,-1.774729252E0,-1.227183700E0,-1.531316489E-1
3.571184646E1,-1.803491354E0,-7.973498106E-1,1.765674502E-1
3.573203375E1,-1.879657745E0,-4.703139067E-1,1.760348231E-1
3.575222282E1,-2.033055544E0,3.435475230E-1,-6.258423626E-2
3.577241354E1,-2.000565052E0,7.920235395E-1,-3.310306668E-1
3.579260573E1,-1.348623753E0,-3.547327816E-1,-5.254412889E-1
3.581279917E1,-7.174550891E-1,-2.031457663E0,-8.130624890E-1
3.583299365E1,-8.143940568E-1,-2.003760815E0,-9.973530769E-1
3.585318896E1,-7.973498106E-1,-1.100950003E0,-8.556730151E-1
3.587338479E1,-5.555350184E-1,-6.098634601E-1,-5.930855274E-1
3.589358084E1,-3.909517527E-1,-1.757684946E-1,-2.037316710E-1
3.591377573E1,-2.109221965E-1,-1.438105851E-1,1.142495275E-1
3.593396459E1,1.491369121E-2,-3.227748871E-1,3.001380265E-1
3.595415334E1,2.572611570E-1,-3.685812056E-1,4.695149362E-1
3.597433667E1,5.379581451E-1,-4.852275848E-1,5.749760270E-1
3.599452042E1,1.035436273E0,-4.687159956E-1,6.207823753E-1
3.601470479E1,1.848765016E0,1.794969290E-1,8.045403361E-1
3.603488990E1,2.130527258E0,4.554001987E-1,8.578035235E-1
3.605507584E1,1.074851036E0,-4.548675716E-1,1.435442716E-1
3.607526271E1,1.757685095E-2,-6.684529185E-1,-9.009467363E-1
3.609545052E1,-1.486042738E-1,4.660528302E-1,-1.004809976E0
3.611563927E1,2.343579940E-2,1.697497606E0,-5.733781457E-1
3.613582896E1,6.013413072E-1,2.151832581E0,4.055991173E-1
3.615601948E1,1.065263629E0,1.518000722E0,1.207742691E0
3.617621073E1,4.127896726E-1,-6.503434777E-1,1.446361661E0
3.619640261E1,-7.030740380E-2,-2.501771688E0,9.574056864E-1
3.621659500E1,8.080024719E-1,-7.190529704E-1,1.296958476E-1
3.623678771E1,7.893603444E-1,3.339601457E-1,-1.419463754E-1
3.625698052E1,5.374255180E-1,2.295643091E-1,7.270424068E-2
3.627718417E1,3.366233110E-1,-9.587372839E-2,1.675127149E-1
3.629736302E1,1.427453309E-1,5.230444670E-1,-1.227716357E-1
3.631754219E1,5.060002208E-2,1.449823856E0,-4.141212404E-1
3.633772209E1,2.061285079E-1,1.747565031E0,-4.615254700E-1
3.635790302E1,1.107874155E0,1.243162632E0,-3.086601496E-1
3.637808532E1,2.336123228E0,3.568633273E-2,-5.885581672E-2
3.639826917E1,2.081525087E0,-1.095623612E0,5.832318589E-2
3.641845469E1,1.047154188E0,-9.203878045E-1,2.149169445E-1
3.643864198E1,2.487390637E-1,6.578003168E-1,1.898832470E-1
3.645883094E1,-1.012000442E-1,1.988314629E0,5.299686641E-2
3.647902157E1,-3.169159293E-1,2.127331495E0,-4.074633494E-2
3.649921365E1,-2.902843356E-1,1.573394418E0,3.435475379E-2
3.651940709E1,1.134505793E-1,1.364602685E0,3.539338410E-1
3.653960157E1,5.970802903E-1,1.547295451E0,6.388918757E-1
3.655979688E1,9.576719999E-1,9.731183648E-1,7.560708523E-1
3.657999271E1,1.202682614E0,1.129179448E-1,7.954856157E-1
3.660018875E1,9.283772707E-1,5.379581451E-2,6.900244951E-1
3.662038375E1,-2.663159184E-2,5.970802903E-1,4.274370372E-1
3.664057250E1,-8.617982864E-1,7.563371658E-1,1.973400861E-1
3.666075584E1,-8.644614220E-1,4.846949577E-1,-1.323590130E-1
3.668093959E1,-1.198421568E-1,-9.054740891E-3,-6.878939867E-1
3.670112386E1,3.733749092E-1,-6.279729009E-1,-1.109205723E0
3.672130886E1,-1.118526794E-2,-9.741836190E-1,-1.245559454E0
3.674149469E1,-6.348971128E-1,-1.041295171E0,-1.708949208E0
3.676168146E1,-1.201617360E0,-1.080177307E0,-2.032256603E0
3.678186917E1,-1.729455471E0,-1.006674170E0,-1.651425004E0
3.680205782E1,-2.102297783E0,-6.221139431E-1,-9.217193723E-1
3.682224740E1,-2.413354874E0,-5.273054838E-1,1.334242672E-1
3.684243792E1,-2.666354895E0,-6.338318586E-1,1.304681659E0
3.686262917E1,-2.534794807E0,-6.849645376E-1,1.714275479E0
3.688282104E1,-2.386190653E0,-4.836297035E-1,9.733846784E-1
3.690301344E1,-2.014413595E0,1.448758543E-1,-1.467400640E-1
3.692320615E1,-1.077514172E0,8.096003532E-2,-1.132641554E0
3.694339906E1,-3.270359337E-1,-7.824361324E-1,-1.971536636E0
3.696360282E1,-2.870885432E-1,-2.274337769E0,-1.867140889E0
3.698378188E1,-5.427518487E-1,-3.094058275E0,-9.222519994E-1
3.700396125E1,-7.488803267E-1,-2.026131392E0,-4.151864946E-1
3.702414136E1,-6.764423847E-1,-5.182507634E-1,1.829590350E-1
3.704432250E1,-3.051980436E-1,2.599243224E-1,7.368960977E-1
3.706450490E1,1.507348120E-1,5.624592304E-1,1.034104705E0
3.708468875E1,5.443497300E-1,5.986781716E-1,1.058073163E0
3.710487427E1,8.772445917E-1,6.498108506E-1,8.508793116E-1
3.712506146E1,1.287903786E0,9.885646701E-1,5.856286883E-1
3.714525032E1,1.813611388E0,1.718802929E0,5.398223400E-1
3.716544084E1,1.663941860E0,1.768870234E0,5.483444333E-1
3.718563282E1,2.977411747E-1,5.539371073E-2,-1.339569092E-1
3.720582604E1,-5.400886536E-1,-6.519413590E-1,-1.068725705E0
3.722602032E1,-5.251749754E-1,1.038099408E0,-9.739173055E-1
3.724621542E1,-5.358276367E-1,2.020272493E0,-5.227781534E-1
3.726641104E1,1.123853177E-1,2.003760815E0,3.645864725E-1
3.728660688E1,9.976193905E-1,8.809730411E-1,9.920267463E-1
3.730680229E1,1.465802789E0,-1.475390196E-1,1.113999486E0
3.732699104E1,9.709877968E-1,-9.331709743E-1,1.133174181E0
3.734717438E1,4.101265073E-1,-1.304415345E0,9.307740927E-1
3.736735813E1,2.865559161E-1,-9.853688478E-1,4.860265255E-1
3.738754240E1,2.918822467E-1,-2.924148738E-1,6.657897960E-3
3.740772740E1,3.153180480E-1,4.996086359E-1,-3.539338410E-1
3.742791323E1,3.627222776E-1,8.287751079E-1,-3.374222517E-1
3.744810000E1,3.014696240E-1,1.352352142E0,5.566002429E-2
3.746828771E1,2.759032845E-1,1.600026011E0,3.826959729E-1
3.748847636E1,6.103960872E-1,1.124918461E0,4.660528526E-2
3.750866594E1,8.862993717E-1,9.592698812E-1,-2.282327414E-1
3.752885636E1,8.761793375E-1,9.827057123E-1,-2.191779912E-1
3.754904750E1,6.306360960E-1,1.071122646E0,-1.994706094E-1
3.756923927E1,2.545980215E-1,1.588308096E0,-8.655267209E-2
3.758943157E1,-1.651158556E-2,2.148636818E0,2.743053809E-2
3.760962417E1,-1.571263820E-1,2.217878819E0,-3.861580789E-2
3.762981698E1,-1.757684946E-1,2.019207239E0,-9.347688407E-2
3.765002063E1,-6.391581893E-2,1.874331355E0,-2.530001104E-2
3.767020011E1,2.183790505E-2,1.953160882E0,1.909485012E-1
3.769037990E1,2.210422009E-1,1.968074560E0,3.518033028E-1
3.771056032E1,4.271707237E-1,1.340634346E0,4.071970284E-1
3.773074167E1,1.890842915E-1,7.787077427E-1,4.061317742E-1
3.775092427E1,-3.707117438E-1,1.033305764E0,2.735064328E-1
3.777110834E1,-8.420909047E-1,1.257011056E0,5.938844755E-2
3.779129396E1,-9.480846524E-1,1.085503697E0,-7.057371736E-2
3.781148125E1,-6.540718675E-1,7.616634965E-1,-3.304980397E-1
3.783167021E1,-1.390169114E-1,-8.362319320E-2,-8.615319729E-1
3.785186073E1,-7.084003091E-2,-1.597362876E0,-1.346759558E0
3.787205271E1,-2.982738316E-1,-2.001097679E0,-1.674328089E0
3.789224594E1,-5.629918575E-1,-4.846949577E-1,-2.090846300E0
3.791244021E1,-1.121722579E0,1.013065696E0,-1.898033500E0
3.793263521E1,-2.395777941E0,1.134505793E-1,-1.022386789E0
3.795283063E1,-3.620298386E0,-9.864341021E-1,3.347590864E-1
3.797302625E1,-3.654386997E0,-1.155811027E-1,1.720134497E0
3.799322021E1,-3.473824739E0,3.062632978E-1,2.612292767E0
3.801340896E1,-3.456780434E0,2.775011659E-1,2.305496931E0
3.803359229E1,-3.340134144E0,2.455432713E-1,1.031441569E0
3.805377604E1,-3.038131952E0,-2.918822467E-1,-3.294327855E-1
3.807396032E1,-2.260489464E0,-8.729835749E-1,-1.069790959E0
3.809414532E1,-1.465802789E0,-1.263935328E0,-9.456877708E-1
3.811433115E1,-1.088699460E0,-1.197888970E0,-3.203780353E-1
3.813451792E1,-1.180844784E0,-5.033370852E-1,1.829590350E-1
3.815470563E1,-1.284175277E0,3.707117438E-1,4.631233811E-1
3.817489427E1,-1.022653103E0,1.136636257E0,6.383592486E-1
3.819508386E1,-2.796317041E-1,1.308676362E0,7.640603185E-1
3.821527427E1,4.974781275E-1,1.167528987E0,9.494162202E-1
3.823546542E1,1.021587849E0,1.464737535E0,1.062866807E0
3.825565719E1,1.357678533E0,1.993640900E0,1.104412079E0
3.827584948E1,1.586177588E0,2.545980215E0,1.127847910E0
3.829604209E1,1.581383824E0,2.943323374E0,9.435572624E-1
3.831623490E1,1.053545713E0,3.146256208E0,2.612559199E-1
3.833643854E1,-2.625874877E-1,2.161419868E0,-7.331677079E-1
3.835661761E1,-1.204813123E0,8.580698371E-1,-1.069258332E0
3.837679698E1,-1.030109882E0,3.158506751E-1,-5.030707717E-1
3.839697709E1,-3.254380524E-1,7.824361324E-1,3.491401672E-1
3.841715823E1,3.707117438E-1,1.334242702E0,9.478183389E-1
3.843734063E1,7.190529704E-1,6.844319105E-1,1.357944846E0
3.845752448E1,9.917604327E-1,3.994738758E-1,1.498026967E0
3.847771000E1,1.275653243E0,1.213335276E0,1.291365862E0
3.849789719E1,1.183507919E0,1.748630285E0,9.851025343E-1
3.851808604E1,8.122635484E-1,1.513206959E0,5.968139768E-1
3.853827646E1,1.992042959E-1,8.372972012E-1,5.619265884E-2
3.855846834E1,-5.214465261E-1,2.551306486E-1,-2.676474750E-1
3.857866146E1,-8.474172354E-1,1.597895473E-1,-3.629885912E-1
3.859885563E1,-6.471476555E-1,3.994738758E-1,-3.981422782E-1
3.861905063E1,-7.669898123E-2,1.059404731E0,-3.661843836E-1
3.863924615E1,3.952127993E-1,1.805621862E0,-1.584579647E-1
3.865944188E1,3.882885873E-1,2.178996801E0,-3.222422674E-2
3.867963740E1,1.400821656E-1,2.170474768E0,-1.099884734E-1
3.869982615E1,-1.533979625E-1,2.088982105E0,-1.611211300E-1
3.872001479E1,-2.561959028E-1,2.012815714E0,-8.122635633E-2
3.874019802E1,1.203747913E-1,2.010152578E0,7.749792933E-2
3.876038167E1,4.564654827E-1,1.753423929E0,2.367548496E-1
3.878056594E1,2.897517085E-1,1.489771247E0,3.523359597E-1
3.880075094E1,2.439453751E-1,1.662343860E0,4.402202070E-1
3.882093677E1,7.286403179E-1,1.942508221E0,5.211802125E-1
3.884112354E1,1.000282526E0,1.457280636E0,6.319676638E-1
3.886131125E1,7.387603521E-1,5.241097212E-1,6.767086983E-1
3.888149990E1,3.206443489E-1,4.585959911E-1,5.930855274E-1
3.890168948E1,-1.635179669E-1,1.254347920E0,3.992075622E-1
3.892187990E1,-7.462171912E-1,1.464204907E0,1.600558609E-1
3.894207104E1,-9.976193905E-1,8.985498548E-1,1.571263932E-2
3.896226282E1,-7.099981904E-1,1.587242782E-1,-9.720530361E-2
3.898245511E1,-3.472759426E-1,-4.090612531E-1,-2.553969622E-1
3.900264771E1,-2.135853618E-1,-9.337036014E-1,-5.946834087E-1
3.902284052E1,-5.486107469E-1,-1.557948112E0,-1.108140469E0
3.904304417E1,-1.287371159E0,-2.201367378E0,-1.481515408E0
3.906322313E1,-1.979792476E0,-2.418681145E0,-1.502288103E0
3.908340240E1,-2.392582178E0,-1.808817625E0,-1.101748943E0
3.910358240E1,-2.579535961E0,-9.241161942E-1,-3.502054214E-1
3.912376344E1,-2.859167576E0,-8.751140833E-1,7.283740044E-1
3.914394573E1,-2.996053934E0,-6.854971647E-1,1.494831204E0
3.916412948E1,-2.866091728E0,3.121222556E-1,1.312671065E0
3.918431490E1,-2.558230639E0,5.661876202E-1,2.671148479E-1
3.920450198E1,-1.687910199E0,-9.709877968E-1,-9.574056864E-1
3.922469073E1,-9.640635848E-1,-2.482596874E0,-1.983787179E0
3.924488115E1,-7.909582257E-1,-2.824013948E0,-2.125467300E0
3.926507302E1,-5.645897388E-1,-2.738792896E0,-1.307877421E0
3.928526625E1,-4.042675495E-1,-2.019207239E0,-7.038729787E-1
3.930546052E1,-3.957454562E-1,-1.091362596E0,-4.588623047E-1
3.932565563E1,-2.711096108E-1,-4.282359779E-1,-1.829590350E-1
3.934585125E1,5.965476483E-2,-1.470063776E-1,1.531316489E-1
3.936604709E1,5.693834424E-1,5.486107618E-2,4.162517786E-1
3.938624250E1,1.162735224E0,2.982738316E-1,4.940160215E-1
3.940643115E1,1.683649182E0,4.452801943E-1,5.488771200E-1
3.942661438E1,2.069274664E0,6.151897311E-1,7.006771564E-1
3.944679802E1,2.189116716E0,1.187236309E0,7.688540220E-1
3.946698229E1,9.560741186E-1,7.637940049E-1,5.824328661E-1
3.948716729E1,-4.468781054E-1,-7.408908606E-1,-4.274370372E-1
3.950735313E1,-3.408843577E-1,-3.893538713E-1,-7.848330140E-1
3.952753990E1,-3.424822688E-1,1.060469985E0,-4.471444190E-1
3.954772761E1,-4.793686327E-3,1.949432492E0,2.133190483E-1
3.956791625E1,1.043425679E0,1.625059724E0,1.027180433E0
3.958810584E1,1.631983876E0,1.166996360E0,1.518799663E0
3.960829625E1,1.258608937E0,-5.640571117E-1,1.287637472E0
3.962848740E1,6.135918498E-1,-2.821883440E0,5.099949837E-1
3.964867917E1,9.198551774E-1,-2.601373911E0,5.352949724E-2
3.966887146E1,1.085503697E0,-1.979792476E0,-1.643169224E-1
3.968906407E1,9.544762373E-1,-1.125451088E0,-1.217063740E-1
3.970925677E1,5.555350184E-1,9.784446359E-1,-7.723161485E-3
3.972946032E1,1.555284858E-1,3.031207800E0,-1.323590130E-1
3.974963907E1,7.456845604E-3,3.646397352E0,-4.221107066E-1
3.976981813E1,7.669898123E-2,2.965693951E0,-7.123950720E-1
3.978999792E1,8.948214352E-2,1.939312458E0,-7.315698266E-1
3.981017875E1,4.846949577E-1,7.488803267E-1,-4.348938763E-1
3.983036094E1,1.499358535E0,-6.604634225E-2,1.518000662E-2
3.985054469E1,1.654354453E0,3.089264631E-1,2.346243113E-1
3.987073011E1,1.025848866E0,9.374319911E-1,2.452769578E-1
3.989091729E1,2.609896064E-1,1.136636257E0,1.483379602E-1
3.991110615E1,-8.628635854E-2,1.188834190E0,1.563274413E-1
3.993129667E1,-6.338318437E-2,1.328383803E0,2.229064107E-1
3.995148865E1,-3.994738683E-2,1.594699621E0,4.061317742E-1
3.997168198E1,1.059937328E-1,1.750228167E0,6.479465961E-1
3.999187636E1,6.780403256E-1,1.434377551E0,7.368960977E-1
4.001207156E1,1.056741476E0,6.562023759E-1,7.592666745E-1
4.003226729E1,8.191877604E-1,4.740423337E-2,6.836329699E-1
4.005246323E1,1.640505940E-1,1.624527127E-1,5.115928650E-1
4.007265813E1,-3.573959470E-1,3.137201369E-1,3.257043660E-1
4.009284677E1,-2.519348562E-1,9.587372653E-3,-4.074633494E-2
4.011303000E1,1.571263820E-1,-6.727139950E-1,-5.163865685E-1
4.013321365E1,2.620548606E-1,-1.025316238E0,-8.428898454E-1
4.015339782E1,-1.832253486E-1,-1.022653103E0,-1.200818419E0
4.017358271E1,-1.054610968E0,-1.418398499E0,-1.403218508E0
4.019376844E1,-1.799230337E0,-1.512141705E0,-1.413871169E0
4.021395511E1,-2.199236870E0,-9.470193982E-1,-1.096955180E0
4.023414271E1,-2.421876907E0,-8.522109389E-1,-4.876244366E-1
4.025433125E1,-2.679670572E0,-1.476988077E0,3.858917654E-1
4.027452073E1,-2.661028624E0,-1.177648902E0,7.928224802E-1
4.029471115E1,-2.378201008E0,-1.912148297E-1,3.917506933E-1
4.031490229E1,-1.993108273E0,7.030740380E-2,-1.840242893E-1
4.033509406E1,-1.377385855E0,-6.593981981E-1,-6.990792751E-1
4.035528636E1,-5.949497223E-1,-2.336655855E0,-1.230113149E0
4.037547896E1,-3.552654386E-1,-3.568633080E0,-1.144892097E0
4.039567177E1,-5.597960353E-1,-3.062100410E0,-7.560708523E-1
4.041587542E1,-6.870950460E-1,-1.696432352E0,-5.984118581E-1
4.043605438E1,-4.836297035E-1,-4.362254739E-1,-4.316980839E-1
4.045623365E1,-1.320926845E-1,5.432844535E-2,-1.430116445E-1
4.047641365E1,2.487390637E-1,-3.249054030E-2,8.335687965E-2
4.049659469E1,6.210486889E-1,-1.251684725E-1,1.680453420E-1
4.051677698E1,9.598025680E-1,-8.522109129E-3,1.648495495E-1
4.053696073E1,1.363004804E0,1.219726875E-1,2.596580088E-1
4.055714615E1,1.864743948E0,4.932170510E-1,4.599275887E-1
4.057733323E1,2.071937799E0,1.284175277E0,6.026729345E-1
4.059752198E1,1.316133261E0,1.663941860E0,4.604602158E-1
4.061771240E1,-1.560611278E-1,1.683116555E-1,-3.624559641E-1
4.063790427E1,-6.801708341E-1,-5.352949500E-1,-8.599340916E-1
4.065809740E1,-4.814991653E-1,6.657897830E-1,-6.048034430E-1
4.067829156E1,-1.065263674E-1,2.030925035E0,9.028109163E-2
4.069848656E1,7.275750637E-1,2.251967430E0,1.086835265E0
4.071868209E1,8.900277615E-1,1.902560830E0,1.521462798E0
4.073887782E1,-1.922800839E-1,2.237053663E-1,1.099085808E0
4.075907302E1,-5.496760607E-1,-1.048752069E0,5.387570858E-1
4.077926167E1,1.715074480E-1,-8.085350990E-1,1.568600684E-1
