"Time (s)","Acceleration x (m/s^2)","Acceleration y (m/s^2)","Acceleration z (m/s^2)"
2.223027900E-2,9.571290575E-3,-1.118644595E0,9.004191399E0
4.261179000E-2,3.284149170E-1,-1.278963685E0,1.039083195E1
6.271048800E-2,-6.388836503E-1,-1.286142230E0,9.904491425E0
8.298173800E-2,-9.720842242E-1,-1.597209096E0,7.993822098E0
1.032527790E-1,2.853440940E-1,-9.960124493E-1,6.981060028E0
1.236529880E-1,8.213363886E-1,-1.324427366E0,7.117451191E0
1.437951750E-1,-7.680960894E-1,-1.544566989E0,6.868597507E0
1.640662690E-1,-4.790431023E0,-1.611566067E0,1.670907974E1
1.843374150E-1,-2.015953064E0,-2.246262312E0,1.409432316E1
2.046084040E-1,-1.139581800E0,-3.905086517E0,7.967501163E0
2.250085080E-1,-1.130010486E0,-5.813362598E0,1.140778160E1
2.451506440E-1,-9.649057388E-1,-4.319643021E0,1.136231804E1
2.654216860E-1,-7.974081635E-1,-3.047857761E0,7.105486870E0
2.856927790E-1,-4.043870270E-1,-2.327618122E0,7.721040249E0
3.059637170E-1,4.049852192E-1,-1.051645517E0,7.505686283E0
3.262349150E-1,-4.474578202E-1,-1.092323542E0,5.233701229E0
3.465059560E-1,-1.472184181E0,-3.335594654E0,9.997811317E0
3.667769460E-1,-2.839084148E0,-3.768695593E0,1.267717457E1
3.870479360E-1,-2.626122952E0,-3.883551121E0,9.933204651E0
4.073189250E-1,-3.059821844E0,-2.916252613E0,8.657232285E0
4.275899150E-1,-2.403590441E0,-1.872383714E0,8.168498039E0
4.478609560E-1,-8.739784956E-1,4.546362907E-2,8.413164139E0
4.681319460E-1,1.929811478E0,-8.380861282E-1,1.482473278E1
4.884029360E-1,-8.404789567E-1,-3.148954630E0,8.475378036E0
5.086739770E-1,-2.322234392E0,-3.850051641E0,4.967499733E0
5.289449670E-1,-3.102892876E0,-4.738387108E0,9.116654396E0
5.492159560E-1,-1.491326690E0,-1.800599098E0,1.328495121E1
5.694869460E-1,-3.808775425E0,-3.105285645E0,9.286544800E0
5.897579360E-1,-1.932204247E0,-2.464009047E0,9.104690552E0
6.100289250E-1,-2.662015200E0,-2.858824968E0,8.712266922E0
6.302999150E-1,-3.236890793E0,-2.574079037E0,8.053643227E0
6.505709040E-1,-2.508874655E0,-1.858026743E0,9.028120041E0
6.708418940E-1,-2.727817893E-1,-2.011167526E0,9.598209381E0
6.911128830E-1,-5.359922647E-1,-4.108476639E0,9.538389206E0
7.113838730E-1,-2.784049034E0,-8.145168304E0,1.021316528E1
7.316548630E-1,-4.603790760E0,-1.089631653E1,1.222911835E1
7.519258520E-1,-6.921239376E0,-1.122173977E1,1.237508011E1
7.721968420E-1,-7.381259441E0,-1.026879883E1,1.060857964E1
7.924678310E-1,-5.796014786E0,-9.584450722E0,8.556734085E0
8.128575710E-1,-3.555136204E0,-9.835697174E0,5.329414368E0
8.330097580E-1,-1.680359721E0,-1.016829967E1,3.983451605E0
8.532807480E-1,-1.290329576E0,-9.270393372E0,5.525625706E0
8.735517380E-1,-1.687538147E0,-9.193822861E0,4.131806374E0
8.938227270E-1,-3.519243956E0,-9.124430656E0,3.437887907E0
9.142227270E-1,-3.174677372E0,-8.423334122E0,1.713859200E0
9.343646540E-1,-1.175474167E0,-7.764709473E0,1.989033818E0
9.546356440E-1,-8.374879509E-2,-7.917850018E0,1.208973646E0
9.749065810E-1,3.284149170E-1,-7.824530125E0,1.594218135E0
9.951775710E-1,6.939185411E-2,-9.052646637E0,2.535195589E0
1.015577571E0,1.674975827E-2,-7.575676441E0,1.021735311E0
1.035719498E0,-5.144568682E-1,-6.028716564E0,1.840678811E0
1.055990436E0,-5.096712112E-1,-7.846065521E0,4.067798331E-2
1.076261425E0,2.190629244E0,-9.078967094E0,-1.269392371E0
1.096532363E0,4.494318962E0,-7.456035137E0,-3.340380430E0
1.116932363E0,2.406581402E0,-7.611568928E0,-3.009572744E0
1.137074290E0,2.949153781E-1,-7.700103283E0,-4.776672363E0
1.157345227E0,-9.026923180E-1,-7.654639721E0,-3.931407690E0
1.177616165E0,-3.224926710E0,-7.604390144E0,-3.107678413E0
1.197887154E0,-3.665206194E0,-9.842875481E0,-4.202394962E0
1.218287154E0,-2.831905603E0,-7.532605648E0,-5.325226784E0
1.238586998E0,-3.136392355E0,-4.697709084E0,-4.022335052E0
1.258858040E0,-4.709074974E0,-4.788636208E0,-2.030309916E0
1.278932415E0,-6.248856544E0,-5.104488850E0,-1.293320656E0
1.299242415E0,-6.143572330E0,-6.512664795E0,-1.578066587E0
1.319499602E0,-3.610171080E0,-7.197012424E0,-1.877169371E0
1.339779290E0,-6.029912829E-1,-7.503891945E0,-1.525424480E0
1.360051113E0,6.035895348E-1,-9.938589096E0,-5.760720730E0
1.380322779E0,-4.252045631E0,-9.208179474E0,-4.241278172E-1
1.400594342E0,-5.956333637E0,-7.867600918E0,1.555334777E-1
1.420865748E0,-6.430710793E0,-5.188237667E0,-1.372283816E0
1.441137050E0,-3.830310822E0,-1.594816327E0,-3.786641955E-1
1.461408300E0,4.863412082E-1,-1.795813441E0,-3.523431420E-1
1.481679446E0,2.709871531E-1,5.168496966E-1,-1.697707653E0
1.501958561E0,-9.984052777E-1,-6.603592396E0,-1.415354609E0
1.522298821E0,-2.207378864E0,-1.935015869E1,2.440679073E-1
1.542491529E0,-4.811966419E0,-2.379123688E1,1.567897081E0
1.562762883E0,-6.401997089E0,-2.224008942E1,4.594219685E0
1.583034081E0,-5.927619934E0,-1.629273033E1,6.421139717E0
1.603305019E0,-4.094119549E0,-7.310073376E0,2.214557409E0
1.623705227E0,-1.896311998E0,-4.467998028E0,6.939185858E-1
1.643847258E0,-2.871387303E-1,-5.234299660E0,4.163511395E-1
1.664118300E0,-9.816554785E-1,-7.984848976E0,1.254437327E0
1.684389342E0,-2.475374937E0,-1.233260822E1,2.336591244E0
1.704660279E0,-3.746562004E0,-1.536850166E1,3.815953970E0
1.725060383E0,-4.364508629E0,-1.600798416E1,5.185246468E0
1.745202206E0,-4.462614059E0,-1.214596748E1,4.508078098E0
1.765473300E0,-3.466601849E0,-9.102895737E0,2.238485575E0
1.785744238E0,-2.059023857E0,-8.894720078E0,1.491326690E0
1.806015123E0,-1.189831018E0,-8.648259163E0,9.427721500E-1
1.826286269E0,-6.939185858E-1,-8.787042618E0,4.618147612E-1
1.846557206E0,-1.158724308E0,-8.514261246E0,3.804588020E-1
1.866828144E0,-1.946561217E0,-8.332406998E0,9.523434043E-1
1.887099029E0,-2.949752092E0,-8.264809608E0,1.658824325E0
1.907369967E0,-3.962514400E0,-8.535796165E0,1.989033818E0
1.927640904E0,-4.577469826E0,-8.502297401E0,2.209771633E0
1.947911790E0,-4.893322468E0,-9.026325226E0,2.382055044E0
1.968182727E0,-5.008776188E0,-9.126823425E0,2.458625317E0
1.988453613E0,-4.828716278E0,-9.114859581E0,2.362912416E0
2.008724498E0,-4.220939159E0,-9.287142754E0,1.953141451E0
2.028995383E0,-3.571886063E0,-9.284749985E0,1.378864050E0
2.049266321E0,-3.277568817E0,-9.670592308E0,1.225723386E0
2.069458717E0,-3.241676569E0,-9.962516785E0,1.240080357E0
2.089713821E0,-3.035893679E0,-9.960124016E0,1.031904817E0
2.110118561E0,-2.571087837E0,-9.799804688E0,7.944171429E-1
2.130347623E0,-2.504088879E0,-9.165108681E0,6.221339107E-1
2.150618977E0,-2.760120869E0,-8.475975990E0,4.043870270E-1
2.170890331E0,-3.071786165E0,-7.771887779E0,2.967100143E-1
2.191161529E0,-3.516851187E0,-6.797410965E0,1.890329868E-1
2.211432623E0,-4.216153622E0,-6.830910206E0,3.254238665E-1
2.231703769E0,-5.109274387E0,-7.781459332E0,7.417750359E-2
2.251974811E0,-4.701896667E0,-1.065942669E1,-1.537388563E-1
2.272245800E0,-4.005585194E0,-1.325922871E1,-2.279163599E-1
2.292516842E0,-6.488138676E0,-1.026161957E1,3.254238665E-1
2.312787779E0,-9.380462646E0,-7.826922894E0,6.053841114E-1
2.333058769E0,-9.811170578E0,-7.005586624E0,1.674975902E-1
2.353329758E0,-8.626125336E0,-6.536593437E0,-6.281159073E-2
2.373600644E0,-7.321439266E0,-6.184250355E0,-2.566302419E-1
2.393871581E0,-6.784848690E0,-5.978467464E0,-2.662015259E-1
2.414142519E0,-7.761718273E0,-6.038288116E0,2.871387079E-2
2.434413456E0,-8.599804878E0,-6.191428661E0,4.307080805E-2
2.454684342E0,-9.411569595E0,-6.266204357E0,3.349951655E-2
2.474955279E0,-9.873384476E0,-5.935396671E0,6.221338734E-2
2.495226165E0,-8.884550095E0,-5.375475883E0,-8.913264424E-2
2.515496998E0,-7.608577728E0,-4.982454777E0,-7.238288224E-2
2.535767988E0,-7.134799004E0,-5.361119270E0,-7.178467698E-3
2.556038873E0,-7.108478069E0,-6.967301369E0,3.924229145E-1
2.576309758E0,-7.079763889E0,-8.583653450E0,1.323829174E0
2.596580644E0,-6.000002861E0,-1.109492016E1,5.123033047E0
2.616851529E0,-6.009573936E0,-1.192343521E1,4.706682205E0
2.637122415E0,-5.944369793E0,-1.025683403E1,2.126022816E0
2.657393248E0,-5.415555954E0,-7.958528042E0,1.132403374E0
2.677664186E0,-5.621338367E0,-6.488736629E0,1.433898926E0
2.697935071E0,-5.855835438E0,-5.875576019E0,1.957927108E0
2.718166581E0,-6.232106686E0,-6.083751678E0,2.065604210E0
2.738476738E0,-6.660421848E0,-7.000801086E0,1.972284079E0
2.758747675E0,-6.820741177E0,-7.743174076E0,1.335793257E0
2.779018561E0,-6.631708145E0,-8.006384850E0,4.426721931E-1
2.799289446E0,-6.394818306E0,-7.637889862E0,-7.663014531E-1
2.819560331E0,-6.571887493E0,-7.781459332E0,-1.271785259E0
2.839831217E0,-6.971488953E0,-7.367500782E0,-8.548358679E-1
2.860102102E0,-6.866204739E0,-6.555736065E0,-2.350948304E-1
2.880372988E0,-7.134799004E0,-6.172286034E0,1.055832982E0
2.900643873E0,-7.508079052E0,-5.607579708E0,2.752942562E0
2.920914706E0,-7.043871880E0,-5.423332691E0,3.248854876E0
2.941185592E0,-5.798407555E0,-5.485546112E0,2.867797852E0
2.961456477E0,-5.372485161E0,-5.605186939E0,2.027318954E0
2.981727363E0,-5.547161102E0,-5.949753284E0,1.192223907E0
3.001998248E0,-5.985645771E0,-6.000002861E0,7.824530005E-1
3.022269133E0,-5.922834396E0,-6.131608009E0,7.800601721E-1
3.042540019E0,-5.824728489E0,-5.911468506E0,9.643075466E-1
3.062810904E0,-5.851049423E0,-5.593223095E0,1.216152072E0
3.083081738E0,-5.980860233E0,-5.432903767E0,1.881356835E0
3.103352623E0,-6.734599113E0,-5.447260857E0,2.973082066E0
3.123623508E0,-8.458627701E0,-5.894718647E0,3.538386583E0
3.143894394E0,-1.047218800E1,-6.278168201E0,3.244069338E0
3.164165279E0,-1.170509052E1,-7.467999458E0,4.622933388E0
3.184436113E0,-1.395075417E1,-1.255813122E1,2.645265341E0
3.204707050E0,-1.206401348E1,-1.424566936E1,1.893320918E0
3.224977883E0,-6.234499454E0,-1.004865837E1,-2.655434847E0
3.245248769E0,2.202593327E0,-7.213762283E0,-1.104287624E0
3.265519654E0,-5.817550182E0,-6.395416737E0,1.016949654E0
3.285790540E0,-3.318246841E0,-8.066205025E0,-1.968096644E-1
3.306061425E0,-3.052643538E0,-7.858029366E0,-9.960124493E-1
3.326332311E0,-4.070191383E0,-7.211369038E0,-1.080359459E0
3.346603196E0,-6.686742783E0,-6.845267296E0,-1.446461320E0
3.366874029E0,-9.674779892E0,-6.349953175E0,-1.647458434E0
3.387144915E0,-1.033819008E1,-6.574878216E0,-1.791027784E0
3.407415800E0,-1.011745262E1,-6.584449768E0,-1.587637782E0
3.427686686E0,-7.462615490E0,-8.037490845E0,-1.436890006E0
3.447957571E0,-5.355735302E0,-7.244868755E0,-1.250249863E0
3.468228404E0,-4.256831646E0,-7.067800045E0,-9.314061999E-1
3.488499290E0,-4.089334011E0,-7.213762283E0,-5.461617708E-1
3.508770175E0,-4.517649174E0,-6.838088989E0,-1.202393398E-1
3.529041061E0,-5.020740032E0,-6.515058041E0,2.392822690E-2
3.549311946E0,-5.365306377E0,-6.503093719E0,5.264209956E-2
3.569582779E0,-5.659623623E0,-6.909873486E0,-0.000000000E0
3.589853665E0,-6.078966141E0,-7.712067604E0,6.221338734E-2
3.610124550E0,-6.344569206E0,-7.812565804E0,4.211367965E-1
3.630395436E0,-6.617351055E0,-7.101299286E0,4.713860750E-1
3.650666321E0,-7.019943237E0,-6.792625427E0,2.488535494E-1
3.670937154E0,-7.529614449E0,-6.735197544E0,3.828516230E-2
3.691208040E0,-8.051250458E0,-6.577271461E0,-1.082752272E-1
3.711478925E0,-8.415556908E0,-6.527021885E0,-1.752742529E-1
3.731749811E0,-8.441878319E0,-6.254240036E0,-2.470589429E-1
3.752020644E0,-8.549555779E0,-6.009573936E0,-3.044866920E-1
3.772291529E0,-9.172286987E0,-6.728019238E0,-4.528416991E-1
3.792562415E0,-9.902098656E0,-7.934599876E0,-5.150550604E-1
3.812962415E0,-1.098903847E1,-8.887541771E0,-2.207378894E-1
3.833222571E0,-1.246182060E1,-9.543772697E0,5.358128071E0
3.853532883E0,-9.739386559E0,-9.057432175E0,8.401200294E0
3.873803873E0,-6.746563435E0,-9.381061554E0,4.455435753E0
3.893917415E0,-5.690730572E0,-1.010369396E1,9.140582681E-1
3.914317415E0,-5.161916733E0,-1.029990482E1,-5.581258535E-1
3.934459081E0,-4.994419098E0,-9.952945709E0,-1.012762189E0
3.954729811E0,-4.500899315E0,-1.016351414E1,-8.811569214E-1
3.975000592E0,-3.174677372E0,-1.025444126E1,-2.662015259E-1
3.995271373E0,-1.865205288E0,-9.007183075E0,-1.034895778E-1
4.015534811E0,-2.654836655E0,-7.072585583E0,-7.112665176E-1
4.035810383E0,-4.476971149E0,-5.547759533E0,-8.739784956E-1
4.056081790E0,-5.573482037E0,-4.448855400E0,-9.840483069E-1
4.076353040E0,-6.299105644E0,-3.510270834E0,-8.237292171E-1
4.096624238E0,-6.172286034E0,-2.834896564E0,3.349951655E-2
4.116895331E0,-5.757729530E0,-2.418545485E0,7.513462901E-1
4.137166425E0,-5.262415409E0,-2.665006161E0,1.225723386E0
4.157437467E0,-5.279164791E0,-3.986442566E0,1.165902853E0
4.177704498E0,-5.877370834E0,-5.330012321E0,1.240080357E0
4.197940904E0,-6.583851337E0,-6.438487530E0,2.173879385E0
4.218251008E0,-1.080718327E1,-8.614759445E0,6.008975983E0
4.238521790E0,-1.750888062E1,-7.764709473E0,3.995415688E0
4.258792623E0,-1.345304680E1,-6.011966705E0,7.429116249E0
4.279063456E0,-1.050568771E1,-8.243273735E0,6.780063152E0
4.299334342E0,-1.035972595E1,-1.065224838E1,5.091926575E0
4.319605175E0,-9.404391289E0,-1.187079334E1,2.416750938E-1
4.339876061E0,-8.965906143E0,-1.120499039E1,-1.929811478E0
4.360146894E0,-6.311069489E0,-1.045603657E1,-1.707278967E0
4.380417727E0,-4.063013077E0,-7.958528042E0,-1.412961721E0
4.400688613E0,-2.978466034E0,-4.848456860E0,-2.152942181E0
4.420959498E0,-2.276770830E0,-3.507878065E0,-2.921038151E0
4.441230383E0,-2.666800737E0,-4.015156269E0,-1.714457393E0
4.461501269E0,-4.319045067E0,-5.516652584E0,-9.457631707E-1
4.481772102E0,-5.307878971E0,-8.856434822E0,-1.164108157E0
4.502042988E0,-6.160321712E0,-1.051825047E1,-1.353141189E0
4.522313821E0,-5.559125423E0,-1.099681473E1,-1.329213023E0
4.542584706E0,-4.326223373E0,-1.022333431E1,-1.029511929E0
4.562855592E0,-4.601397991E0,-7.908278942E0,-1.609173268E-1
4.583126477E0,-4.584648132E0,-7.031907558E0,-4.366901144E-2
4.603397363E0,-4.498506546E0,-6.938587666E0,2.775674164E-1
4.623668248E0,-4.996811867E0,-6.550950050E0,2.871387303E-1
4.643939081E0,-5.980860233E0,-6.433701992E0,2.895315289E-1
4.664209967E0,-7.201797962E0,-6.302096844E0,1.890329868E-1
4.684480852E0,-8.216953278E0,-6.306882381E0,2.895315289E-1
4.704751738E0,-9.332606316E0,-6.347560406E0,2.368894368E-1
4.725022623E0,-9.909276962E0,-6.160321712E0,3.469592929E-1
4.745293508E0,-1.033340454E1,-5.980860233E0,3.565305769E-1
4.765564394E0,-1.044826031E1,-5.629115105E0,2.321037948E-1
4.785835279E0,-9.859027863E0,-5.267798901E0,2.129612118E-1
4.806106165E0,-9.174679756E0,-5.032704353E0,-9.870393574E-2
4.826377050E0,-9.591031075E0,-5.011168957E0,-5.006981492E-1
4.846647936E0,-1.110867882E1,-5.777470112E0,-5.318048596E-1
4.866918821E0,-1.202812099E1,-7.125227451E0,-9.152546525E-2
4.887189706E0,-1.135334492E1,-8.298309326E0,1.483550072E-1
4.907460592E0,-9.839884758E0,-8.452047348E0,8.255237937E-1
4.927731477E0,-9.016156197E0,-8.310273170E0,8.944371223E0
4.948002363E0,-7.788039684E0,-9.608379364E0,6.488138676E0
4.968273248E0,-5.219344616E0,-9.677771568E0,1.065404296E0
4.988544133E0,-5.772086620E0,-9.706484795E0,-4.743770957E-1
5.008854342E0,-6.172286034E0,-1.038604641E1,-4.600201547E-1
5.029086061E0,-5.468197823E0,-9.907482147E0,-1.082752272E-1
5.049356894E0,-4.194618225E0,-9.507881165E0,-1.369891018E-1
5.069756894E0,-2.841476917E0,-8.801400185E0,4.019941986E-1
5.090056633E0,-2.724228621E0,-7.185048103E0,8.279166222E-1
5.110170123E0,-3.449851990E0,-5.497509956E0,2.153540403E-1
5.130441008E0,-3.859024763E0,-4.298107624E0,-6.538388133E-1
5.150711738E0,-4.017549038E0,-3.579662561E0,-8.428717852E-1
5.170982571E0,-4.173082829E0,-3.249453068E0,3.134597540E-1
5.191253352E0,-4.484149456E0,-3.395415306E0,1.230509043E0
5.211524238E0,-4.886143684E0,-4.238286972E0,1.249651670E0
5.231795071E0,-5.480162144E0,-5.420939922E0,1.237687469E0
5.252065956E0,-6.667600155E0,-6.823731899E0,1.744965911E0
5.272336842E0,-9.263215065E0,-8.873184204E0,6.244070530E0
5.292607727E0,-1.554317760E1,-8.126026154E0,4.541577339E0
5.313007727E0,-1.435334682E1,-5.296513081E0,3.222533941E0
5.333307415E0,-1.192762280E1,-5.937789440E0,4.756931305E0
5.353578352E0,-1.004806042E1,-8.834898949E0,3.643670797E0
5.373849342E0,-1.032622623E1,-9.081359863E0,1.409970760E0
5.393962936E0,-8.999405861E0,-1.091067314E1,-1.360319614E0
5.414362936E0,-6.375676155E0,-1.059721375E1,-8.476574421E-1
5.434504550E0,-4.098905087E0,-9.050253868E0,-1.109073281E0
5.454775436E0,-3.067000389E0,-6.921837807E0,-1.972882271E0
5.475046165E0,-2.075773716E0,-5.660222054E0,-2.621935368E0
5.495316998E0,-2.245664120E0,-5.344369411E0,-2.051845312E0
5.515578873E0,-3.138785124E0,-6.174678802E0,-1.326820135E0
5.535855488E0,-4.651647091E0,-7.637889862E0,-1.331605792E0
5.556127050E0,-6.370890141E0,-9.040681839E0,-1.432104349E0
5.576398404E0,-7.004988194E0,-9.608379364E0,-1.635494232E0
5.596669706E0,-6.459424496E0,-9.393025398E0,-1.633101463E0
5.616940956E0,-6.028716564E0,-8.523832321E0,-1.106680512E0
5.637212102E0,-5.918048382E0,-7.288537979E0,-1.031904817E0
5.657483196E0,-6.638886452E0,-5.971288681E0,-6.538388133E-1
5.677754238E0,-7.460222721E0,-5.605186939E0,1.196411345E-2
5.698025227E0,-7.321439266E0,-5.349154949E0,3.708875179E-1
5.718296269E0,-6.725028038E0,-4.874777794E0,4.546363056E-1
5.738567258E0,-6.545566559E0,-4.774279594E0,1.579262912E-1
5.758838248E0,-7.469794273E0,-5.578866005E0,-4.480560422E-1
5.779109238E0,-9.461818695E0,-5.645864964E0,-5.724828243E-1
5.799380175E0,-1.094836044E1,-5.411368370E0,7.417750359E-2
5.819651113E0,-1.159741306E1,-5.416153908E0,4.642075896E-1
5.839922102E0,-1.090050316E1,-5.365904808E0,8.470591903E-1
5.860192988E0,-9.705886841E0,-5.296513081E0,6.843472719E-1
5.880463925E0,-1.019701385E1,-6.462415695E0,1.651047617E-1
5.900734915E0,-1.094357395E1,-7.654639721E0,-1.298106313E-1
5.921005800E0,-1.122891808E1,-9.071788788E0,-3.092723191E-1
5.941276738E0,-1.018265629E1,-9.431310654E0,4.546362907E-2
5.961547623E0,-8.772088051E0,-8.715258598E0,2.396411896E0
5.981818561E0,-7.821538925E0,-8.679366112E0,4.182653904E0
6.002247831E0,-6.727420807E0,-9.864411354E0,7.058826685E-1
6.022360436E0,-6.993024349E0,-9.795019150E0,-3.379862010E-1
6.042631321E0,-7.113263607E0,-1.015633583E1,-2.566302419E-1
6.062902206E0,-6.169893265E0,-1.115713406E1,-4.504488707E-1
6.083173144E0,-3.428316593E0,-1.142273712E1,-5.198407173E-1
6.103444029E0,-1.072582722E0,-1.016351414E1,8.853443712E-2
6.123714967E0,-1.855633974E0,-7.896314621E0,5.647061467E-1
6.143985904E0,-2.956930637E0,-6.100501537E0,2.105683982E-1
6.164256790E0,-3.545564890E0,-4.664209366E0,-4.671986103E-1
6.184527727E0,-4.223331928E0,-3.400201082E0,-1.003190875E0
6.204798613E0,-4.795216560E0,-2.868396044E0,-8.045865893E-1
6.225069550E0,-4.768895626E0,-2.937788010E0,-6.658028960E-1
6.245469550E0,-4.350151539E0,-3.428914785E0,-4.983053207E-1
6.265611373E0,-4.287938118E0,-3.905086517E0,-8.434699476E-2
6.285882311E0,-5.274379253E0,-5.279763222E0,7.537391186E-1
6.306153248E0,-7.979465485E0,-7.853243828E0,5.142175674E0
6.326424133E0,-1.844926071E1,-1.013001442E1,1.268196011E1
6.346695071E0,-1.676411629E1,-7.034300327E0,3.698705673E0
6.366965956E0,-9.650852203E0,-5.385047436E0,5.824728489E0
6.387236894E0,-8.405985832E0,-8.542975426E0,3.708276987E0
6.407507779E0,-7.426723480E0,-9.799804688E0,-9.391828626E-2
6.427778717E0,-7.831110477E0,-1.207179070E1,-1.712064624E0
6.448049654E0,-7.575078487E0,-1.273519993E1,-1.360319614E0
6.468320592E0,-5.800800323E0,-1.058046341E1,-9.936196208E-1
6.488591477E0,-3.710669756E0,-7.822137356E0,-2.260619164E0
6.508941113E0,-2.006381750E0,-5.775077343E0,-3.007179976E0
6.529133404E0,-1.335793257E0,-4.700101852E0,-2.753540754E0
6.549404342E0,-2.484946251E0,-5.166702271E0,-1.527817249E0
6.569675227E0,-3.917050600E0,-6.589235306E0,-1.111466169E0
6.589946165E0,-6.093322754E0,-8.240880966E0,-9.768698215E-1
6.610217050E0,-7.874181271E0,-9.460023880E0,-1.231107235E0
6.630487936E0,-8.058428764E0,-9.653842926E0,-1.467996716E0
6.650758873E0,-7.079763889E0,-8.571688652E0,-1.436890006E0
6.671029811E0,-6.021538258E0,-6.565307140E0,-1.511067510E0
6.691300696E0,-6.708278179E0,-5.049454212E0,-5.341976285E-1
6.711571633E0,-7.299903870E0,-4.956133842E0,1.483550072E-1
6.731842519E0,-6.957131863E0,-5.289334297E0,5.934200287E-1
6.752113456E0,-6.380461693E0,-5.274977684E0,6.508477330E-1
6.772384394E0,-6.200999737E0,-5.320441246E0,4.474578202E-1
6.792655279E0,-6.933203697E0,-6.143572330E0,2.344966233E-1
6.813055279E0,-7.984251022E0,-7.412964344E0,8.063812256E-1
6.833355071E0,-8.666803360E0,-6.914659023E0,1.127617717E0
6.853626061E0,-9.806385040E0,-5.466403484E0,1.077368379E0
6.873700383E0,-1.020419216E1,-4.724030018E0,4.091726840E-1
6.894010331E0,-9.569496155E0,-4.587639332E0,-2.590230405E-1
6.914410331E0,-1.021376324E1,-5.135595798E0,-1.046261668E0
6.934552102E0,-1.162612724E1,-6.481558323E0,-1.255035520E0
6.954822883E0,-1.246660614E1,-8.262416840E0,-1.007976532E0
6.975093769E0,-1.139880848E1,-9.160323143E0,-3.475574851E-1
6.995364602E0,-9.236893654E0,-8.283951759E0,2.518445730E0
7.015629811E0,-8.805587769E0,-8.830113411E0,4.847858906E0
7.035904394E0,-7.364510059E0,-1.030708313E1,9.403793216E-1
7.056171738E0,-7.764111042E0,-1.109252739E1,5.312066078E-1
7.076408404E0,-7.476972580E0,-1.212443256E1,9.906286001E-1
7.096718665E0,-6.447460651E0,-1.237089348E1,2.344966233E-1
7.116989654E0,-3.756133318E0,-1.143230820E1,-3.188436031E-1
7.137260644E0,-2.401197433E0,-8.940183640E0,-3.332005441E-1
7.157531581E0,-2.731407166E0,-6.055037498E0,-1.369891018E-1
7.177802519E0,-3.009572744E0,-4.161716938E0,-6.155536175E-1
7.198073508E0,-3.210569859E0,-2.988037348E0,-1.611566067E0
7.218344498E0,-3.768097401E0,-2.432902336E0,-1.987239242E0
7.238615383E0,-4.366901398E0,-2.332403898E0,-1.412961721E0
7.258886373E0,-4.606183529E0,-2.901895761E0,-3.020938635E-1
7.279157311E0,-3.950550079E0,-3.684946775E0,2.871387079E-2
7.299428144E0,-3.684348583E0,-4.374678135E0,-3.888336942E-2
7.319699133E0,-4.462614059E0,-6.181857109E0,1.962114573E-1
7.339970019E0,-6.698707104E0,-9.381061554E0,1.960319996E0
7.360240956E0,-1.541875076E1,-1.367378521E1,1.502333736E1
7.380511894E0,-1.826979828E1,-9.325428009E0,7.386045456E0
7.400782831E0,-9.708279610E0,-6.440880299E0,6.064010620E0
7.421053717E0,-6.354140759E0,-7.120441914E0,3.760919094E0
7.441324654E0,-6.306283951E0,-7.805387497E0,-5.509474277E-1
7.461724654E0,-8.291130066E0,-1.072881889E1,-3.402593851E0
7.481866425E0,-9.473783493E0,-1.251745319E1,-3.613162279E0
7.502137415E0,-8.645268440E0,-1.138205910E1,-1.491924882E0
7.522408300E0,-5.891727448E0,-7.771887779E0,-1.420140266E0
7.542679238E0,-3.710669756E0,-5.782256126E0,-2.327618122E0
7.562950123E0,-2.121237278E0,-4.055834293E0,-2.516651154E0
7.583221061E0,-1.713859200E0,-3.668197155E0,-1.975275040E0
7.603491946E0,-2.709871531E0,-5.387440205E0,-1.412961721E0
7.623762883E0,-5.183452129E0,-7.695317745E0,-7.495517135E-1
7.644033821E0,-7.491329670E0,-9.227322578E0,-6.921239495E-1
7.664304706E0,-7.888537884E0,-9.883553505E0,-1.214357495E0
7.684575644E0,-6.646064758E0,-9.119645119E0,-1.317248821E0
7.704846529E0,-5.977869034E0,-7.482356548E0,-1.099501967E0
7.725117467E0,-6.488138676E0,-5.741578102E0,-5.030909777E-1
7.745388352E0,-7.194619656E0,-5.298905849E0,3.206382394E-1
7.765659290E0,-6.976274490E0,-5.552545071E0,9.571290612E-1
7.785930175E0,-6.153143406E0,-5.471189022E0,8.853443861E-1
7.806201113E0,-5.688337803E0,-5.272584915E0,5.000999570E-1
7.826472050E0,-6.349354744E0,-5.691328526E0,1.794617027E-1
7.846742936E0,-8.231309891E0,-6.198606968E0,-7.178467698E-3
7.867013873E0,-9.844670296E0,-6.208178520E0,-4.073780477E-1
7.887284758E0,-1.084786129E1,-5.691328526E0,-4.504488707E-1
7.907555696E0,-1.013420200E1,-5.334797859E0,-5.964110494E-1
7.927826581E0,-8.891729355E0,-5.332405090E0,-9.529415965E-1
7.948097519E0,-9.717850685E0,-5.880361557E0,-1.281356573E0
7.968368456E0,-1.136770248E1,-6.364310265E0,-4.073780477E-1
7.988639342E0,-1.209751320E1,-6.617949009E0,4.522434771E-1
8.009029081E0,-1.242353535E1,-6.725626469E0,4.189832687E0
8.029181165E0,-1.014676476E1,-6.991229534E0,4.888536453E0
8.049452102E0,-6.665207386E0,-7.508677483E0,1.694716692E0
8.069852102E0,-7.000202656E0,-8.578866959E0,-2.063809484E-1
8.089993925E0,-8.482556343E0,-1.027119160E1,-4.336991012E-1
8.110264811E0,-8.638090134E0,-1.166261768E1,-3.978067636E-1
8.130535748E0,-8.255238533E0,-1.233739376E1,-9.385846853E-1
8.150806686E0,-5.851049423E0,-1.218903828E1,-7.519445419E-1
8.171077571E0,-3.950550079E0,-1.018744278E1,1.177866936E0
8.191348508E0,-4.110869408E0,-7.151548862E0,1.981855392E0
8.211619394E0,-3.957728624E0,-4.953741074E0,1.065404296E0
8.231890331E0,-3.770490170E0,-3.512663603E0,-1.082752272E-1
8.252161217E0,-3.770490170E0,-2.643470764E0,-4.384847581E-1
8.272432154E0,-3.806382656E0,-2.777468920E0,-4.313062727E-1
8.292703040E0,-3.921836376E0,-3.345165968E0,-6.849454641E-1
8.313103040E0,-3.972085476E0,-3.768695593E0,-5.318048596E-1
8.333402831E0,-4.022335052E0,-4.334000111E0,-7.238288224E-2
8.353673873E0,-4.115654945E0,-5.263013363E0,5.024927258E-1
8.373787467E0,-4.565505505E0,-7.118049145E0,1.491326690E0
8.394058248E0,-6.220142365E0,-9.957731247E0,5.556732178E0
8.414458248E0,-1.335254860E1,-1.221296692E1,1.206640625E1
8.434599915E0,-1.584706593E1,-8.475975990E0,6.504888535E0
8.454870748E0,-1.015633583E1,-5.533402443E0,6.054439545E0
8.475141633E0,-8.894122124E0,-7.432106972E0,2.817548752E0
8.495412415E0,-8.516056061E0,-8.655437469E0,1.722832322E-1
8.515677050E0,-8.714659691E0,-1.117388344E1,-2.289333105E0
8.535951998E0,-8.169096947E0,-1.184686470E1,-2.717648268E0
8.556223352E0,-6.942774773E0,-1.007737255E1,-1.661815286E0
8.576494602E0,-4.795216560E0,-7.546962738E0,-2.327618122E0
8.596765800E0,-3.193820000E0,-6.021538258E0,-2.856431961E0
8.617036894E0,-2.676372051E0,-4.980062008E0,-1.953739643E0
8.637307988E0,-2.616551638E0,-4.743172646E0,-1.012762189E0
8.657579081E0,-3.452244759E0,-5.454439163E0,-4.791627228E-1
8.677850071E0,-5.173880577E0,-6.945765972E0,-3.379862010E-1
8.698121061E0,-6.942774773E0,-8.221738815E0,-4.289134443E-1
8.718392050E0,-7.493722439E0,-8.949754715E0,-1.022333503E0
8.738663040E0,-6.930810928E0,-8.643473625E0,-1.625923038E0
8.758933977E0,-6.602993965E0,-7.798209190E0,-1.520638824E0
8.779204967E0,-6.739385128E0,-6.560521603E0,-1.066002488E0
8.799475904E0,-7.599006653E0,-5.777470112E0,-3.499503136E-1
8.819746842E0,-7.668398380E0,-5.758327484E0,2.153540403E-1
8.840017779E0,-6.942774773E0,-5.452046394E0,4.953143001E-1
8.860288717E0,-6.602993965E0,-5.147559643E0,3.637090325E-1
8.880559654E0,-7.235297680E0,-5.418546677E0,2.392822644E-3
8.900830592E0,-8.216953278E0,-6.000002861E0,-3.888336942E-2
8.921101477E0,-9.236893654E0,-5.944967747E0,1.435693540E-2
8.941372415E0,-9.775279045E0,-5.001597404E0,1.196411345E-2
8.961643352E0,-1.011505985E1,-4.908277512E0,1.986042857E-1
8.981914290E0,-9.679565430E0,-4.740779877E0,-4.785645287E-3
9.002185175E0,-9.634101868E0,-4.692923546E0,-5.964110494E-1
9.022456061E0,-1.084786129E1,-6.167500496E0,-6.969096065E-1
9.042726998E0,-1.118584728E1,-7.652246952E0,-3.690928817E-1
9.062997936E0,-1.100578785E1,-8.971290588E0,-1.441675574E-1
9.083268873E0,-1.020658493E1,-8.997611046E0,1.900499344E0
9.103539758E0,-9.447462082E0,-8.373085022E0,6.181259155E0
9.123810696E0,-7.036693096E0,-9.393025398E0,2.439482689E0
9.144081633E0,-7.072585583E0,-1.015633583E1,2.632104978E-2
9.164352519E0,-8.034500122E0,-1.086760235E1,-8.434699476E-2
9.184623456E0,-7.649255753E0,-1.171286678E1,-1.513460279E-1
9.204894394E0,-5.886941910E0,-1.173440266E1,-6.562315822E-1
9.225165331E0,-2.676372051E0,-1.061874866E1,-1.333998680E0
9.245436217E0,-1.838884234E0,-8.212167740E0,-6.969096065E-1
9.265707154E0,-3.270390272E0,-6.242276192E0,1.579262912E-1
9.285978092E0,-4.022335052E0,-4.807778835E0,2.440679073E-1
9.306248977E0,-4.747360229E0,-3.572484255E0,-3.523431420E-1
9.326519915E0,-5.930012703E0,-2.428116798E0,-1.298106313E-1
9.346790852E0,-5.662016392E0,-2.121835470E0,-2.691925503E-2
9.367061738E0,-4.151547432E0,-2.655434847E0,1.196411345E-2
9.387332675E0,-3.430709362E0,-3.438486099E0,1.674975902E-1
9.407603613E0,-3.753740549E0,-4.944169998E0,6.652047038E-1
9.427874498E0,-5.216951370E0,-7.319644451E0,2.470589399E0
9.448145383E0,-9.165108681E0,-1.044646549E1,9.219545364E0
9.468416373E0,-1.742513275E1,-1.112602711E1,1.220040417E1
9.488687258E0,-1.210229874E1,-7.242475986E0,4.127020836E0
9.509087258E0,-8.645268440E0,-8.722436905E0,5.032105923E0
9.529229133E0,-8.561519623E0,-1.003908730E1,1.575075507E0
9.549500071E0,-6.579065800E0,-9.277571678E0,-1.831705689E0
9.569770956E0,-6.435496330E0,-1.021615601E1,-1.910668850E0
9.590170956E0,-6.334998131E0,-1.035733318E1,-1.920240223E-1
9.610312727E0,-5.183452129E0,-8.353941917E0,-1.939382792E0
9.630583717E0,-4.094119549E0,-6.917052269E0,-3.170490026E0
9.650854654E0,-3.533600807E0,-5.803791523E0,-2.801397085E0
9.671125540E0,-3.784847260E0,-5.552545071E0,-1.936989903E0
9.691396477E0,-4.235296249E0,-6.414559364E0,-8.691928387E-1
9.711667363E0,-5.276772022E0,-7.113263607E0,-5.940182209E-1
9.731938300E0,-6.720242500E0,-7.377072334E0,-6.059823632E-1
9.752209186E0,-7.295117855E0,-7.781459332E0,-6.897311211E-1
9.772480123E0,-6.928418159E0,-7.688138962E0,-8.548358679E-1
9.792751061E0,-6.514459610E0,-7.295716286E0,-7.567301393E-1
9.813151061E0,-6.200999737E0,-6.321238995E0,-1.043868899E0
9.833450852E0,-7.371688366E0,-5.791827202E0,-4.671986103E-1
9.853721842E0,-8.164310455E0,-6.090929985E0,1.818545163E-1
9.873835436E0,-7.599006653E0,-6.031109333E0,5.527420044E-1
9.894106217E0,-6.942774773E0,-5.308476925E0,4.450650215E-1
9.914506217E0,-6.940382004E0,-4.896313190E0,2.225325108E-1
9.934647883E0,-7.505686283E0,-5.875576019E0,1.021735311E0
9.954919059E0,-7.670791149E0,-6.912266254E0,1.584646821E0
9.975189892E0,-8.516056061E0,-6.090929985E0,1.488933921E0
9.995460725E0,-9.808777809E0,-5.212764263E0,9.954141974E-1
1.001572536E1,-1.003131104E1,-5.061418056E0,1.842473447E-1
1.003600026E1,-9.614959717E0,-5.310869694E0,-6.179464459E-1
1.005626765E1,-1.035972595E1,-6.735197544E0,-9.337990284E-1
1.007650437E1,-1.114457130E1,-7.228118896E0,-7.016952634E-1
1.009681458E1,-1.160937691E1,-7.898707390E0,-5.509474277E-1
1.011708557E1,-1.095314598E1,-8.542975426E0,9.188438654E-1
1.013735661E1,-1.025204849E1,-8.868398666E0,3.701098442E0
1.015762755E1,-7.543971539E0,-1.004148006E1,1.034297585E0
1.017789849E1,-7.474579811E0,-1.048235798E1,-1.872383654E-1
1.019816942E1,-7.448258877E0,-1.109731293E1,-8.434699476E-2
1.021844036E1,-6.607779503E0,-1.143470097E1,-1.256231871E-2
1.023871130E1,-5.030311584E0,-1.130788136E1,-2.159522474E-1
1.025898224E1,-3.215355396E0,-1.025444126E1,-4.845465720E-2
1.027925312E1,-2.384447813E0,-7.994420528E0,-5.413761139E-1
1.029952406E1,-3.229712248E0,-6.311667919E0,-7.854440212E-1
1.031979494E1,-3.495315790E0,-5.111667156E0,-1.515853167E0
1.034006588E1,-3.859024763E0,-4.067798615E0,-2.095514536E0
1.036033677E1,-4.347758770E0,-3.321237803E0,-1.817348838E0
1.038060765E1,-5.542375565E0,-2.947359324E0,-2.685943544E-1
1.040087854E1,-5.401198864E0,-3.345165968E0,6.580262184E-1
1.042114948E1,-3.856631994E0,-3.957728624E0,2.847459018E-1
1.044142036E1,-3.715455294E0,-5.140381336E0,4.546363056E-1
1.046169125E1,-4.673182487E0,-7.268796921E0,1.024128079E0
1.048196213E1,-6.466603279E0,-1.017547798E1,4.168296814E0
1.050239140E1,-1.382872009E1,-1.271605778E1,1.574178219E1
1.052250390E1,-1.657029724E1,-7.774280548E0,5.127819061E0
1.054277479E1,-8.628518105E0,-4.759922504E0,2.200200319E0
1.056304567E1,-5.233701229E0,-5.116453171E0,1.268195957E-1
1.058331656E1,-6.303891182E0,-7.010372162E0,-1.793420553E0
1.060358744E1,-9.842277527E0,-1.106381416E1,-2.136192322E0
1.062385833E1,-1.153280735E1,-1.426481247E1,-9.649057388E-1
1.064412927E1,-9.801599503E0,-1.253420353E1,1.339980662E-1
1.066440015E1,-7.338188648E0,-8.559724808E0,-9.816554785E-1
1.068467104E1,-4.776073933E0,-6.000002861E0,-2.492722988E0
1.070494192E1,-2.164308071E0,-4.386641979E0,-3.230310678E0
1.072521281E1,-1.534397483E0,-3.814159393E0,-2.330011129E0
1.074548369E1,-2.271985054E0,-4.489533424E0,-1.168893814E0
1.076575458E1,-3.967299938E0,-6.138786316E0,-6.705885530E-1
1.078602546E1,-6.028716564E0,-7.956135273E0,-8.979067206E-1
1.080629635E1,-7.082156658E0,-9.083752632E0,-1.333998680E0
1.082656724E1,-6.141179085E0,-8.889934540E0,-1.726421595E0
1.084683812E1,-5.652445316E0,-7.542177200E0,-1.637887120E0
1.086710901E1,-6.832705021E0,-6.102894306E0,-5.174478889E-1
1.088737984E1,-7.546364307E0,-6.100501537E0,7.657032460E-2
1.090765072E1,-6.806384087E0,-6.229713917E0,2.608176768E-1
1.092792166E1,-5.915655613E0,-5.729613781E0,1.459621787E-1
1.094819255E1,-6.141179085E0,-5.490331650E0,-2.039881349E-1
1.096846343E1,-7.646862984E0,-6.153143406E0,1.244267747E-1
1.098873432E1,-8.453842163E0,-6.780661106E0,9.906286001E-1
1.100913432E1,-8.590232849E0,-6.546164513E0,5.886343718E-1
1.102927609E1,-9.366106033E0,-5.648257732E0,4.331009090E-1
1.104954692E1,-9.581459999E0,-5.497509956E0,1.507478207E-1
1.106994692E1,-9.220144272E0,-5.612365723E0,-1.369891018E-1
1.109008869E1,-9.732208252E0,-6.278168201E0,-6.562315822E-1
1.111035958E1,-1.131266689E1,-6.524629116E0,-1.041476011E0
1.113063047E1,-1.151844978E1,-6.381059647E0,-1.403390527E0
1.115090135E1,-1.208794212E1,-7.312466145E0,-1.298106313E-1
1.117117224E1,-1.221236897E1,-8.130811691E0,4.594219685E0
1.119144312E1,-8.740981102E0,-8.312665939E0,3.842274904E0
1.121171401E1,-6.483353138E0,-9.567701340E0,8.685946465E-1
1.123198484E1,-6.614958286E0,-1.021137047E1,-8.787640929E-1
1.125225573E1,-6.524031162E0,-1.077428246E1,-1.104287624E0
1.127252661E1,-5.669195175E0,-1.162911797E1,-1.369891018E-1
1.129279750E1,-3.938585997E0,-1.163629627E1,5.670989752E-1
1.131319750E1,-2.331805706E0,-1.042014408E1,6.484549642E-1
1.133349713E1,-2.913859844E0,-7.700103283E0,-1.872383654E-1
1.135376812E1,-3.870988846E0,-5.966503143E0,1.914258115E-2
1.137388166E1,-4.163511276E0,-4.688137531E0,-7.351947427E-1
1.139415239E1,-4.963312149E0,-3.613162279E0,-2.413759947E0
1.141455239E1,-6.251249313E0,-2.949752092E0,-2.720041037E0
1.143469401E1,-7.137191772E0,-2.923431158E0,-1.281356573E0
1.145496474E1,-6.332605362E0,-3.361915827E0,7.776673436E-1
1.147523557E1,-4.845465660E0,-3.570091486E0,-0.000000000E0
1.149550630E1,-4.963312149E0,-4.417748928E0,1.435693651E-1
1.151577093E1,-5.894120216E0,-6.261418819E0,5.934200287E-1
1.153604578E1,-6.598208427E0,-8.341978073E0,2.111665964E0
1.155631708E1,-8.573483467E0,-1.023290634E1,9.485747337E0
1.157658828E1,-1.566760445E1,-9.136395454E0,8.487341881E0
1.159685942E1,-1.170509052E1,-6.407381058E0,5.362913609E0
1.161713046E1,-7.347760201E0,-6.632306099E0,5.427519798E0
1.163740151E1,-8.748159409E0,-8.552546501E0,1.051047325E0
1.165767250E1,-8.719446182E0,-1.018026352E1,-2.533401012E0
1.167794343E1,-9.361320496E0,-1.237807178E1,-2.973680258E0
1.169821437E1,-8.652446747E0,-1.171525955E1,-1.264606714E0
1.171848531E1,-6.416353703E0,-8.557332039E0,-9.266205430E-1
1.173875625E1,-4.364508629E0,-6.692126751E0,-2.085345030E0
1.175902708E1,-2.386840582E0,-5.094917774E0,-3.055036306E0
1.177929797E1,-1.670788407E0,-4.456034184E0,-2.059023857E0
1.179956890E1,-2.389233351E0,-5.137988567E0,-8.907282352E-1
1.181983974E1,-3.998406649E0,-6.869195461E0,-5.820540786E-1
1.184011067E1,-5.908477306E0,-8.617152214E0,-7.710871100E-1
1.186038151E1,-6.799205780E0,-9.378668785E0,-1.298106313E0
1.188065234E1,-6.212964058E0,-9.349356651E0,-1.812563181E0
1.190092317E1,-6.078966141E0,-8.564510345E0,-1.283749342E0
1.192119411E1,-6.153143406E0,-6.689733982E0,-1.245464206E0
1.194146494E1,-7.388438225E0,-5.700900078E0,-3.906283081E-1
1.196186494E1,-7.859824181E0,-5.906682491E0,3.996013701E-1
1.198200661E1,-6.976274490E0,-6.004788399E0,6.819544435E-1
1.200227750E1,-6.311069489E0,-5.349154949E0,5.312066078E-1
1.202254833E1,-6.454638958E0,-5.082953453E0,1.220339537E-1
1.204281916E1,-7.687541008E0,-5.681757450E0,-1.974078640E-2
1.206316864E1,-9.179466248E0,-5.899504185E0,1.770688742E-1
1.208336099E1,-1.017308521E1,-5.387440205E0,1.866401732E-1
1.210363177E1,-1.086461163E1,-4.884349346E0,2.536391914E-1
1.212390260E1,-1.064207840E1,-4.853242397E0,4.067798331E-2
1.214417343E1,-1.020897770E1,-5.106881618E0,-3.116651475E-1
1.216444422E1,-1.118824005E1,-6.483951092E0,-1.513460279E-1
1.218471500E1,-1.107757282E1,-7.788637638E0,4.211367965E-1
1.220498588E1,-1.088375378E1,-8.832506180E0,2.032104731E0
1.222525672E1,-1.044826031E1,-8.973683357E0,4.338187218E0
1.224552755E1,-7.965108395E0,-8.423334122E0,3.102294445E0
1.226579838E1,-6.172286034E0,-8.397012711E0,6.436693072E-1
1.228606922E1,-6.378068924E0,-8.140382767E0,-8.452646136E-1
1.230634005E1,-6.741777897E0,-8.799007416E0,-8.189435601E-1
1.232661088E1,-6.669992924E0,-9.924231529E0,-4.887340367E-1
1.234688172E1,-6.045466423E0,-1.094178009E1,-6.227321029E-1
1.236715255E1,-4.596612453E0,-1.095613670E1,-7.208378315E-1
1.238742338E1,-4.120440483E0,-8.803792953E0,4.666004181E-1
1.240769422E1,-5.070989609E0,-6.847660065E0,2.034497499E0
1.242796505E1,-4.639683247E0,-5.602794170E0,8.279166222E-1
1.244823588E1,-4.472185612E0,-4.436891556E0,-3.810569942E-1
1.246850672E1,-4.977669239E0,-3.433700562E0,-5.844469070E-1
1.248877755E1,-5.075775146E0,-3.062214851E0,-2.949153781E-1
1.250917755E1,-4.823930264E0,-3.297309637E0,-4.606183618E-2
1.252931916E1,-4.541577339E0,-3.747160196E0,2.727817893E-1
1.254959000E1,-4.613361835E0,-4.520640373E0,6.652047038E-1
1.256986083E1,-5.185844898E0,-6.165107727E0,1.508076429E0
1.259013166E1,-6.636493683E0,-8.310273170E0,3.983451605E0
1.261040250E1,-1.028315544E1,-1.061874866E1,1.184148121E1
1.263067328E1,-1.358465195E1,-1.014915752E1,9.669994354E0
1.265094411E1,-9.605388641E0,-7.563712597E0,3.006581545E0
1.267121494E1,-7.261618614E0,-8.176275253E0,1.106082320E0
1.269148578E1,-5.872584820E0,-8.863613129E0,5.982056633E-2
1.271175661E1,-8.556734085E0,-1.122891808E1,7.010970116E-1
1.273202807E1,-1.031186962E1,-1.252941799E1,-1.752742529E-1
1.275229822E1,-8.274380684E0,-1.121934700E1,-4.193421602E-1
1.277256906E1,-6.387639999E0,-7.678567886E0,-2.114656925E0
1.279283984E1,-5.176273346E0,-5.212764263E0,-3.438486099E0
1.281323984E1,-4.101297855E0,-4.434498787E0,-2.595614433E0
1.283353942E1,-3.679563046E0,-3.912265062E0,-1.465603828E0
1.285365286E1,-3.497708559E0,-4.345963955E0,-7.806583643E-1
1.287392359E1,-4.737788677E0,-5.600401402E0,-4.121637046E-1
1.289419432E1,-7.204190731E0,-7.007979393E0,-5.413761139E-1
1.291459432E1,-9.619745255E0,-8.157132149E0,-7.447660565E-1
1.293473583E1,-1.020179939E1,-8.942576408E0,-1.041476011E0
1.295500661E1,-8.200202942E0,-8.447261810E0,-1.094716311E0
1.297527734E1,-5.870192051E0,-6.960123062E0,-1.089930773E0
1.299554812E1,-5.446662426E0,-6.002395630E0,-4.863412082E-1
1.301581453E1,-6.521637917E0,-5.966503143E0,3.349951655E-2
1.303608817E1,-6.870990276E0,-6.028716564E0,5.168496966E-1
1.305635536E1,-5.898906231E0,-6.311667919E0,2.238485575E0
1.307659182E1,-5.834300041E0,-6.730412006E0,3.284747362E0
1.309690192E1,-6.823133945E0,-6.486343861E0,2.504088879E0
1.311717276E1,-7.582256794E0,-6.553342819E0,1.144367456E0
1.313744359E1,-8.796015739E0,-6.584449768E0,-2.931207791E-2
1.315771442E1,-9.075976372E0,-6.148357868E0,-6.035895348E-1
1.317798520E1,-8.793622971E0,-5.851647854E0,-7.639086246E-1
1.319837484E1,-8.659625053E0,-5.794219971E0,-7.471588850E-1
1.321852687E1,-8.599804878E0,-6.515058041E0,-7.232306600E-1
1.323879771E1,-8.477770805E0,-7.491927624E0,-6.993024349E-1
1.325906849E1,-9.401998520E0,-8.183453560E0,-2.853440940E-1
1.327933932E1,-9.988240242E0,-7.424928665E0,5.934200287E-1
1.329961010E1,-1.179841042E1,-5.698507309E0,7.910073280E0
1.331988093E1,-1.043868923E1,-5.181059361E0,6.787241459E0
1.334015177E1,-6.674778938E0,-6.400202274E0,1.290329576E0
1.336042260E1,-6.691528320E0,-7.256833076E0,-5.078766346E-1
1.338069338E1,-6.423532486E0,-7.944170952E0,-1.264606714E0
1.340096422E1,-6.641279221E0,-8.825327873E0,-1.566102386E0
1.342123500E1,-7.357331276E0,-9.680164337E0,-3.419343472E0
1.344150583E1,-8.212167740E0,-9.914660454E0,-4.034298897E0
1.346177661E1,-8.784051895E0,-9.768698692E0,-3.366701365E0
1.348204744E1,-8.920442581E0,-8.722436905E0,-3.199203968E0
1.350231817E1,-8.274380684E0,-6.708876610E0,-1.922633052E0
1.352258896E1,-7.469794273E0,-3.945764542E0,1.594218135E0
1.354285984E1,-6.531209469E0,-1.726421595E0,2.748156786E0
1.356313062E1,-5.212165833E0,-2.464009047E0,2.512463629E-1
1.358340146E1,-4.512863636E0,-3.732803345E0,-1.051047325E0
1.360367224E1,-4.608576298E0,-5.842076302E0,-7.280163169E-1
1.362394307E1,-4.771288395E0,-7.853243828E0,-5.820540786E-1
1.364421385E1,-4.311866283E0,-8.930612564E0,-3.212364316E-1
1.366448468E1,-3.514458179E0,-9.649057388E0,7.633104324E-1
1.368475546E1,-3.686741590E0,-1.074078274E1,4.283152580E0
1.370502625E1,-8.300702095E0,-1.071206856E1,9.677172661E0
1.372529703E1,-9.746564865E0,-7.917850018E0,5.963512421E0
1.374556786E1,-8.549555779E0,-5.123631477E0,2.202593327E0
1.376583864E1,-6.930810928E0,-4.039084435E0,-2.135594189E-1
1.378610948E1,-7.283154011E0,-6.450451851E0,-2.844467878E0
1.380638026E1,-1.046261692E1,-7.989634991E0,-3.976871252E0
1.382665104E1,-1.268913841E1,-1.012283611E1,-3.376272678E0
1.384692187E1,-9.844670296E0,-1.106381416E1,-4.097708762E-1
1.386719265E1,-8.403593063E0,-9.491130829E0,5.048855543E-1
1.388746343E1,-7.687541008E0,-7.889136314E0,7.657032609E-1
1.390773427E1,-7.041478634E0,-6.890730858E0,1.890329868E-1
1.392800505E1,-3.955335855E0,-5.844469070E0,-4.785645287E-3
1.394827583E1,-2.171486616E0,-4.743172646E0,-8.913264424E-2
1.396854666E1,-2.807977438E0,-3.771088600E0,-1.012762189E0
1.398881744E1,-3.375674486E0,-3.852444410E0,-9.912267923E-1
1.400920698E1,-4.737788677E0,-5.712863922E0,-1.152144074E0
1.402935901E1,-6.830312252E0,-7.898707390E0,-1.709671736E0
1.404962984E1,-9.215357780E0,-9.672985077E0,-2.152942181E0
1.407002984E1,-9.313464165E0,-1.001515961E1,-2.327618122E0
1.409032932E1,-6.765706062E0,-8.456833839E0,-2.662613392E0
1.411044276E1,-6.134000778E0,-6.546164513E0,-1.530210137E0
1.413071349E1,-6.172286034E0,-6.687341213E0,-2.685943544E-1
1.415098416E1,-5.683551788E0,-6.629913330E0,3.134597540E-1
1.417125484E1,-5.109274387E0,-6.004788399E0,4.785645306E-1
1.419152557E1,-5.051846981E0,-5.715256691E0,3.110669553E-1
1.421179630E1,-6.052644730E0,-6.869195461E0,4.929214716E-1
1.423206708E1,-7.352545738E0,-8.087740898E0,1.130010486E0
1.425233786E1,-7.893323898E0,-7.558926582E0,1.000199914E0
1.427260864E1,-8.585447311E0,-6.594020844E0,8.255237937E-1
1.429287937E1,-9.085547447E0,-6.021538258E0,4.594219327E-1
1.431327937E1,-9.177073479E0,-5.777470112E0,-1.734796353E-2
1.433357885E1,-9.349356651E0,-6.254240036E0,-4.815555513E-1
1.435384979E1,-1.035972595E1,-6.629913330E0,-7.064808607E-1
1.437396322E1,-1.176491070E1,-6.857231617E0,-7.926225066E-1
1.439423380E1,-1.224646664E1,-7.405786037E0,-9.050851464E-1
1.441463380E1,-1.102971554E1,-7.377072334E0,-4.073780477E-1
1.443477531E1,-9.717850685E0,-6.304489613E0,3.390031576E0
1.445504599E1,-8.621339798E0,-6.371488571E0,6.234499454E0
1.447531666E1,-6.409175396E0,-7.757531166E0,3.267997503E0
1.449558734E1,-5.736194134E0,-8.930612564E0,3.852444589E-1
1.451585146E1,-6.165107727E0,-9.222537041E0,-9.792626500E-1
1.453612656E1,-6.720242500E0,-9.967302322E0,-1.185643673E0
1.455639776E1,-6.342176437E0,-1.030708313E1,-1.932204247E0
1.457666896E1,-5.889334679E0,-9.792626381E0,-1.692921996E0
1.459694000E1,-6.028716564E0,-8.720044136E0,-1.214357495E0
1.461721099E1,-6.062216282E0,-7.554141045E0,-1.085145116E0
1.463748198E1,-5.937191010E0,-5.909075737E0,-1.707278967E0
1.465775291E1,-6.035895348E0,-4.257429600E0,-2.075773716E0
1.467802375E1,-6.516852379E0,-3.175275564E0,-1.745564103E0
1.469829463E1,-6.559923172E0,-2.698505640E0,-5.802594870E-2
1.471856547E1,-5.709873199E0,-2.696112871E0,-1.974078640E-2
1.473883630E1,-4.926821709E0,-3.735196114E0,-2.877369225E-1
1.475910713E1,-4.773681164E0,-5.641079426E0,-1.010967568E-1
1.477937791E1,-5.135595798E0,-7.137191772E0,4.187439680E-1
1.479964875E1,-4.730610371E0,-8.684151649E0,1.977069736E0
1.481991953E1,-5.099703312E0,-9.732806206E0,4.297509670E0
1.484019036E1,-9.179466248E0,-1.019222832E1,9.677172661E0
1.486046109E1,-1.188933754E1,-8.684151649E0,7.618149281E0
1.488073187E1,-9.667601585E0,-6.011966705E0,3.016152859E0
1.490100271E1,-7.065407276E0,-4.477569580E0,8.494520187E-1
1.492127349E1,-5.963512421E0,-6.443273067E0,-1.788634896E0
1.494154427E1,-7.371688366E0,-7.975277901E0,-2.538186550E0
1.496181505E1,-1.133898830E1,-1.114038372E1,-3.093321562E0
1.498208583E1,-1.050568771E1,-1.364985657E1,-8.285148144E-1
1.500251489E1,-9.030512810E0,-1.217468166E1,4.713860750E-1
1.502262739E1,-7.386045456E0,-8.571688652E0,2.823530734E-1
1.504289812E1,-6.306283951E0,-6.491129398E0,-5.940182209E-1
1.506316890E1,-3.667598963E0,-4.747958183E0,-1.080359459E0
1.508343968E1,-2.035095692E0,-3.893122435E0,-1.161715388E0
1.510371041E1,-2.362912416E0,-3.665804386E0,-1.092323542E0
1.512398119E1,-3.344567776E0,-4.472783566E0,-6.586244106E-1
1.514425198E1,-5.200201988E0,-6.000002861E0,-5.437689424E-1
1.516452276E1,-7.400402069E0,-7.688138962E0,-8.309076428E-1
1.518479354E1,-9.042476654E0,-9.210572243E0,-1.377069473E0
1.520506427E1,-9.078369141E0,-9.438488960E0,-1.621137381E0
1.522533505E1,-7.668398380E0,-8.425726891E0,-1.592423439E0
1.524560583E1,-6.787241459E0,-6.632306099E0,-1.180858016E0
1.526587656E1,-6.744170666E0,-6.023931026E0,-2.925225794E-1
1.528614734E1,-6.313462734E0,-6.102894306E0,6.891329288E-1
1.530641807E1,-5.963512421E0,-5.566901684E0,1.357328653E0
1.532668885E1,-6.409175396E0,-4.944169998E0,1.096511006E0
1.534695963E1,-7.491329670E0,-5.294120312E0,8.135597110E-1
1.536723036E1,-8.171489716E0,-6.169893265E0,5.216353536E-1
1.538750114E1,-8.453842163E0,-6.828517437E0,9.810572863E-2
1.540777192E1,-8.547162056E0,-6.560521603E0,-1.537388563E-1
1.542804265E1,-8.185846329E0,-6.395416737E0,-4.241278172E-1
1.544831343E1,-8.070990562E0,-6.512664795E0,-5.126622319E-1
1.546858416E1,-7.685148239E0,-6.893123627E0,-5.653043389E-1
1.548885494E1,-7.517650604E0,-7.369893551E0,-7.950153351E-1
1.550924442E1,-8.413164139E0,-7.927421570E0,-8.955138922E-1
1.552939640E1,-9.356534958E0,-7.752745152E0,-6.705885530E-1
1.554966718E1,-9.985847473E0,-7.752745152E0,-2.805584669E-1
1.556993797E1,-1.003609657E1,-7.520641804E0,1.268195957E-1
1.559020869E1,-1.047936630E1,-6.002395630E0,4.685146809E0
1.561047948E1,-9.593423843E0,-5.667400360E0,6.669992924E0
1.563075026E1,-6.043073654E0,-7.381857872E0,2.188236237E0
1.565102099E1,-5.669195175E0,-8.320442200E0,2.871387079E-2
1.567129177E1,-6.272784710E0,-9.069396019E0,-9.050851464E-1
1.569156250E1,-6.579065800E0,-1.016112137E1,-1.271785259E0
1.571183323E1,-6.337390900E0,-1.101117134E1,-1.783849239E0
1.573210401E1,-5.343770981E0,-1.054935646E1,-1.948953986E0
1.575237479E1,-5.264808178E0,-8.813364029E0,-1.219143152E0
1.577264552E1,-5.870192051E0,-7.043871880E0,-5.294120312E-1
1.579291625E1,-6.289534092E0,-5.452046394E0,-2.087737769E-1
1.581331625E1,-6.559923172E0,-3.917050600E0,-4.480560422E-1
1.583361567E1,-6.605386734E0,-2.911466837E0,-5.389832854E-1
1.585365057E1,-6.083751678E0,-2.562114954E0,-2.614158690E-1
1.587399963E1,-5.341378212E0,-3.139383316E0,-1.250249892E-1
1.589427026E1,-4.649254322E0,-4.695316315E0,3.637090325E-1
1.591467026E1,-4.835894585E0,-6.574878216E0,6.388836503E-1
1.593481172E1,-5.169095039E0,-7.812565804E0,1.127617717E0
1.595508239E1,-4.350151539E0,-9.172286987E0,3.104687452E0
1.597535312E1,-4.072584152E0,-1.031904793E1,7.091129780E0
1.599562385E1,-9.878170013E0,-9.921838760E0,9.555138588E0
1.601589119E1,-1.343629742E1,-6.888338089E0,3.385245800E0
1.603616416E1,-1.055593681E1,-5.070989609E0,8.638089895E-1
1.605643114E1,-7.618149281E0,-4.563711166E0,1.070189953E0
1.607666750E1,-9.370891571E0,-7.408178806E0,8.614161611E-2
1.609697750E1,-1.079761219E1,-8.341978073E0,-1.903490424E0
1.611724828E1,-1.047218800E1,-9.627521515E0,-2.729612350E0
1.613751896E1,-6.971488953E0,-9.334999084E0,-8.907282352E-1
1.615778968E1,-5.408377171E0,-8.152346611E0,3.086741269E-1
1.617806041E1,-5.575874805E0,-7.501499176E0,-2.931207791E-2
1.619833119E1,-5.348556995E0,-7.259225845E0,-5.796613097E-1
1.621860192E1,-4.754538536E0,-6.711269379E0,-6.753742099E-1
1.623887265E1,-4.041477680E0,-5.875576019E0,-5.844469070E-1
1.625914338E1,-3.818346739E0,-5.621936798E0,-3.236292601E-1
1.627941411E1,-4.515256405E0,-5.973681927E0,-5.605186820E-1
1.629968484E1,-5.908477306E0,-6.775875568E0,-5.605186820E-1
1.631995562E1,-7.242475986E0,-7.800601959E0,-7.375875711E-1
1.634022635E1,-7.979465485E0,-8.717651367E0,-1.089930773E0
1.636049708E1,-7.735397339E0,-8.473583221E0,-1.211964726E0
1.638076781E1,-6.607779503E0,-6.931408882E0,-1.015154958E0
1.640103854E1,-6.071787357E0,-5.504688263E0,-7.112665176E-1
1.642130932E1,-6.313462734E0,-5.142774105E0,-2.685943544E-1
1.644158000E1,-6.325426579E0,-5.313262463E0,8.135596663E-2
1.646198000E1,-6.117250919E0,-5.504688263E0,2.464607358E-1
1.648212151E1,-5.874977589E0,-5.621936798E0,8.853443712E-2
1.650239224E1,-6.117250919E0,-6.500700951E0,-3.427718580E-1
1.652266297E1,-6.890132904E0,-7.901100159E0,-9.361918569E-1
1.654293369E1,-7.488936901E0,-8.271987915E0,-4.959124923E-1
1.656333369E1,-7.893323898E0,-7.472784996E0,1.459621787E-1
1.658347515E1,-8.578269005E0,-6.771090031E0,3.876372576E-1
1.660374588E1,-9.052047729E0,-6.002395630E0,2.632105052E-1
1.662401661E1,-9.097511292E0,-5.691328526E0,2.871387079E-2
1.664428734E1,-1.041476059E1,-6.885945320E0,-2.087737769E-1
1.666455807E1,-1.186301613E1,-7.776673794E0,-3.170489892E-2
1.668482880E1,-1.153998566E1,-8.202595711E0,1.363908947E-1
1.670509948E1,-1.084546852E1,-8.437690735E0,2.104487419E0
1.672537020E1,-1.022333431E1,-7.230511665E0,5.750551224E0
1.674564093E1,-7.400402069E0,-7.499105930E0,3.866203070E0
1.676591166E1,-6.064609051E0,-9.253643036E0,6.293123364E-1
1.678618239E1,-6.770491600E0,-9.960124016E0,-6.849454641E-1
1.680645312E1,-6.677171707E0,-1.047278690E1,-1.149751306E0
1.682672385E1,-5.362913609E0,-1.168654537E1,-1.140179992E0
1.684699458E1,-3.095714331E0,-1.236371422E1,1.938186288E-1
1.686726531E1,-2.303091764E0,-1.019701385E1,1.177866936E0
1.688753604E1,-2.817548752E0,-7.647460938E0,8.829515576E-1
1.690780672E1,-3.246462107E0,-5.930611134E0,3.637090325E-1
1.692807744E1,-4.388436794E0,-4.592424870E0,-8.931210637E-1
1.694834817E1,-6.315855503E0,-3.282952785E0,-2.224726915E0
1.696861890E1,-7.654041290E0,-3.007179976E0,-1.348355532E0
1.698888963E1,-6.863811970E0,-3.292523861E0,2.321037948E-1
1.700927906E1,-5.262415409E0,-2.763111830E0,5.168496966E-1
1.702943104E1,-4.567898273E0,-2.700898647E0,8.877372146E-1
1.704970177E1,-4.792823792E0,-4.146761417E0,1.424327731E0
1.707010177E1,-5.755336761E0,-6.292525291E0,2.669193745E0
1.709024317E1,-7.938787460E0,-8.243273735E0,7.493722439E0
1.711051390E1,-1.565564060E1,-8.736793518E0,7.960322857E0
1.713078458E1,-1.474098396E1,-6.304489613E0,1.974676847E0
1.715105531E1,-8.264809608E0,-4.618745804E0,3.748954773E0
1.717132604E1,-6.179464340E0,-4.153940201E0,4.481756687E0
1.719159677E1,-9.650852203E0,-8.995218277E0,2.535195589E0
1.721186744E1,-1.137248802E1,-1.304626751E1,8.805587292E-1
1.723213817E1,-9.557532310E0,-1.305583858E1,-7.734799385E-1
1.725240890E1,-6.110072613E0,-1.053978539E1,-1.043868899E0
1.727267958E1,-4.208974838E0,-9.067003250E0,-8.093722463E-1
1.729295031E1,-3.497708559E0,-7.621140003E0,-1.590030670E0
1.731335031E1,-3.406781197E0,-6.491129398E0,-1.676172256E0
1.733364958E1,-3.229712248E0,-5.653043270E0,-1.479960799E0
1.735376296E1,-3.200998545E0,-5.270191669E0,-9.361918569E-1
1.737403359E1,-3.955335855E0,-5.787041664E0,-4.648058116E-1
1.739430416E1,-5.267200947E0,-6.952944279E0,-4.911268353E-1
1.741470416E1,-6.722635269E0,-8.171489716E0,-7.136593461E-1
1.743484547E1,-7.369295597E0,-8.791828156E0,-1.039083242E0
1.745511614E1,-7.151548862E0,-8.614759445E0,-1.259821177E0
1.747538677E1,-6.569494724E0,-7.903493404E0,-1.310070395E0
1.749565744E1,-6.703492641E0,-6.682555676E0,-1.051047325E0
1.751592375E1,-7.555935860E0,-5.739185333E0,-6.107679605E-1
1.753619729E1,-8.034500122E0,-5.459224701E0,-0.000000000E0
1.755646828E1,-7.417151928E0,-5.298905849E0,3.014956415E-1
1.757673916E1,-6.567101955E0,-5.078167915E0,3.182454109E-1
1.759701000E1,-6.555137634E0,-5.063810825E0,1.363908947E-1
1.761728093E1,-7.572685242E0,-5.349154949E0,8.063812256E-1
1.763755177E1,-8.190631866E0,-5.933003902E0,8.183453679E-1
1.765782250E1,-8.721838951E0,-5.933003902E0,2.967100143E-1
1.767809322E1,-9.222537041E0,-5.478367329E0,1.914258115E-2
1.769849328E1,-9.382855415E0,-5.274977684E0,-3.068794906E-1
1.771863474E1,-9.174679756E0,-5.464010715E0,-6.394818425E-1
1.773890547E1,-8.836693764E0,-6.016752720E0,-8.356932998E-1
1.775917619E1,-8.858229637E0,-6.723233223E0,-9.936196208E-1
1.777944692E1,-1.005523872E1,-7.573283672E0,-8.380861282E-1
1.779971765E1,-1.081196880E1,-7.922635555E0,-5.054838061E-1
1.781998833E1,-1.146102238E1,-8.928219795E0,5.120640397E-1
1.784025906E1,-1.126002502E1,-9.004789352E0,5.662016392E0
1.786052979E1,-8.556734085E0,-8.337192535E0,5.236093998E0
1.788080046E1,-6.547959328E0,-9.634700775E0,1.596610904E0
1.790107114E1,-6.564708710E0,-1.005583763E1,-4.127619043E-2
1.792134187E1,-6.983452797E0,-1.091067314E1,-2.853440940E-1
1.794161255E1,-5.829514027E0,-1.183729362E1,-3.954139352E-1
1.796188322E1,-3.311068296E0,-1.215314579E1,-1.707278967E0
1.798215390E1,-2.338984251E0,-1.071446133E1,-5.437689424E-1
1.800242453E1,-3.571886063E0,-7.261618614E0,4.618147612E-1
1.802269531E1,-4.625326157E0,-5.212764263E0,9.164510965E-1
1.804296599E1,-5.874977589E0,-3.464807272E0,2.943171859E-1
1.806323666E1,-7.060621262E0,-2.056631088E0,-1.800599098E-1
1.808350729E1,-6.533602238E0,-1.757528186E0,-4.408775866E-1
1.810377802E1,-5.659623623E0,-1.762313843E0,-5.246263742E-1
1.812404869E1,-4.570291042E0,-2.117049932E0,-3.643072546E-1
1.814431937E1,-3.921836376E0,-3.177668571E0,-4.845465720E-2
1.816459005E1,-3.955335855E0,-4.549354076E0,7.657032460E-2
1.818486072E1,-4.783252239E0,-6.200999737E0,2.584248483E-1
1.820513140E1,-5.697908878E0,-8.188239098E0,3.052045345E0
1.822540208E1,-1.154237843E1,-1.115234852E1,1.415175152E1
1.824567276E1,-1.668993759E1,-8.145168304E0,6.803991318E0
1.826594343E1,-9.904491425E0,-6.227321148E0,4.000201225E0
1.828621411E1,-8.183453560E0,-8.732007980E0,1.199402332E0
1.830648479E1,-8.755337715E0,-1.156211948E1,3.684946895E-1
1.832675546E1,-1.096032429E1,-1.423370552E1,1.244267747E-1
1.834702614E1,-1.006241703E1,-1.314676571E1,3.110669367E-2
1.836729682E1,-7.268796921E0,-9.383454323E0,-7.088736892E-1
1.838756750E1,-4.170690060E0,-6.888338089E0,-3.093321562E0
1.840783817E1,-1.481755376E0,-5.097310543E0,-4.518247128E0
1.842810885E1,-1.158724308E0,-4.108476639E0,-3.168097258E0
1.844837948E1,-2.269592285E0,-4.396213531E0,-1.534995675E0
1.846865015E1,-3.782454491E0,-5.818148136E0,-8.356932998E-1
1.848892083E1,-5.685945034E0,-7.441678524E0,-7.782655358E-1
1.850931026E1,-7.354938507E0,-8.473583221E0,-1.255035520E0
1.852946218E1,-7.424330235E0,-8.542975426E0,-1.625923038E0
1.854973286E1,-6.617351055E0,-8.032705307E0,-1.460818172E0
1.857000349E1,-6.083751678E0,-7.005586624E0,-1.702493310E0
1.859040349E1,-7.847859859E0,-5.813362598E0,-6.083751321E-1
1.861054484E1,-8.846264839E0,-6.323632240E0,6.460621208E-2
1.863081552E1,-8.001000404E0,-6.208178520E0,4.594219327E-1
1.865108619E1,-6.641279221E0,-5.243870735E0,4.354937077E-1
1.867135682E1,-6.205785751E0,-4.233501434E0,3.014956415E-1
1.869162750E1,-7.151548862E0,-4.623531342E0,7.561319470E-1
1.871189817E1,-8.343772888E0,-5.973681927E0,1.352542996E0
1.873216885E1,-8.518448830E0,-6.318846226E0,1.029511929E0
1.875243953E1,-8.784051895E0,-5.356333256E0,3.972085714E-1
1.877271015E1,-8.714659691E0,-4.941776752E0,-5.802594870E-2
1.879298083E1,-8.293522835E0,-5.629115105E0,-3.451646566E-1
1.881338083E1,-8.068597794E0,-5.698507309E0,-8.021938205E-1
1.883368010E1,-7.974679470E0,-5.645864964E0,-8.931210637E-1
1.885379343E1,-8.484949112E0,-6.134000778E0,-9.768698215E-1
1.887406396E1,-9.732208252E0,-7.113263607E0,-7.040880919E-1
1.889433453E1,-1.032622623E1,-8.106883049E0,-4.121637046E-1
1.891473453E1,-1.060379314E1,-8.933005333E0,1.534397483E0
1.893487572E1,-1.127677536E1,-8.727222443E0,7.802396297E0
1.895514635E1,-8.494520187E0,-9.730413437E0,3.945166349E0
1.897541698E1,-6.708278179E0,-1.123609734E1,1.139581800E0
1.899568755E1,-6.141179085E0,-1.206700420E1,2.177468538E-1
1.901595385E1,-5.831906796E0,-1.319462204E1,1.866401732E-1
1.903622729E1,-5.197809219E0,-1.342194080E1,2.823530734E-1
1.905649432E1,-3.602992773E0,-1.227278709E1,-2.183450609E-1
1.907673067E1,-2.726621389E0,-9.945767403E0,-1.135394335E0
1.909704057E1,-4.704289436E0,-6.907480717E0,-1.704886109E-1
1.911731130E1,-6.911668301E0,-5.099703312E0,5.814558864E-1
1.913758198E1,-7.115656376E0,-4.166502476E0,6.987041831E-1
1.915785265E1,-6.514459610E0,-3.213560820E0,8.350951076E-1
1.917812328E1,-4.948955536E0,-2.452044964E0,6.652047038E-1
1.919839396E1,-3.390031576E0,-2.272583246E0,3.134597540E-1
1.921866463E1,-2.487339020E0,-2.877967358E0,-1.513460279E-1
1.923893531E1,-2.207378864E0,-3.950550079E0,-8.333004713E-1
1.925920599E1,-2.554338217E0,-4.908277512E0,-1.247856975E0
1.927947661E1,-4.316651821E0,-6.074180126E0,-8.524430394E-1
1.929974724E1,-7.189833641E0,-8.464012146E0,2.584248483E-1
1.932001791E1,-1.238285732E1,-1.424327660E1,8.539983749E0
1.934028859E1,-1.756152344E1,-1.251745319E1,1.219801140E1
1.936055922E1,-1.077607632E1,-6.153143406E0,6.071189404E0
1.938082989E1,-6.811169624E0,-5.830112457E0,1.977069736E0
1.940110052E1,-8.437092781E0,-5.971288681E0,1.840678811E0
1.942137114E1,-1.200897884E1,-9.021539688E0,1.529611826E0
1.944164182E1,-1.052004433E1,-1.060439205E1,-1.235892892E0
1.946191239E1,-9.013762474E0,-8.889934540E0,-2.093121529E0
1.948218307E1,-6.497709751E0,-7.781459332E0,-2.087737799E0
1.950261208E1,-4.563112736E0,-6.424130440E0,-1.927418590E0
1.952272437E1,-3.552743435E0,-5.349154949E0,-1.424925923E0
1.954299505E1,-3.423531055E0,-5.183452129E0,-1.322034478E0
1.956326567E1,-3.912265062E0,-5.897111416E0,-9.672985673E-1
1.958353630E1,-4.697110653E0,-7.168298244E0,-9.337990284E-1
1.960380698E1,-5.547161102E0,-8.614759445E0,-1.116251707E0
1.962407760E1,-6.050251961E0,-9.505488396E0,-1.262213945E0
1.964434822E1,-5.382056236E0,-9.500701904E0,-1.353141189E0
1.966461890E1,-4.804787636E0,-8.705686569E0,-1.223928809E0
1.968488953E1,-4.828716278E0,-7.683353424E0,-8.668000102E-1
1.970516015E1,-5.415555954E0,-7.003193855E0,-5.222335458E-1
1.972543083E1,-6.253642082E0,-6.646663189E0,-2.542374134E-1
1.974570146E1,-6.981060028E0,-6.292525291E0,-1.920240223E-1
1.976597208E1,-7.575078487E0,-5.988038540E0,-2.685943544E-1
1.978624276E1,-8.104490280E0,-5.736792088E0,-1.513460279E-1
1.980651338E1,-8.353343964E0,-5.767899036E0,-7.477571070E-2
1.982678401E1,-8.465806961E0,-5.770291805E0,-1.872383654E-1
1.984705463E1,-8.685946465E0,-5.452046394E0,-4.145565331E-1
1.986732531E1,-9.282357216E0,-4.869992256E0,-5.222335458E-1
1.988759593E1,-1.035254669E1,-4.867599487E0,-7.238288224E-2
1.990786656E1,-1.053679466E1,-4.783850670E0,1.483550072E-1
1.992813718E1,-9.892526627E0,-4.231108665E0,2.895315289E-1
1.994840781E1,-9.080761909E0,-3.979264021E0,5.718846321E-1
1.996867849E1,-8.669196129E0,-5.475974560E0,3.086741269E-1
1.998894911E1,-8.721838951E0,-7.508677483E0,5.982056633E-2
2.000933849E1,-9.251250267E0,-9.395418167E0,2.153540403E-2
2.002949036E1,-9.902098656E0,-1.027358437E1,9.092725813E-2
2.004976099E1,-9.457033157E0,-1.063310528E1,6.508477330E-1
2.007016099E1,-7.173084259E0,-1.035494041E1,2.142772675E0
2.009030224E1,-6.373282909E0,-9.474381447E0,3.686741590E0
2.011057286E1,-6.251249313E0,-9.672985077E0,1.615753531E0
2.013084349E1,-5.157131195E0,-8.968897820E0,-2.518445849E-1
2.015111411E1,-4.874179840E0,-8.940183640E0,-5.461617708E-1
2.017138474E1,-4.441078663E0,-9.883553505E0,6.699903309E-2
2.019165541E1,-2.858226538E0,-1.120499039E1,1.445863128E0
2.021192599E1,-1.529611826E0,-1.082213879E1,7.154539824E-1
2.023219661E1,-2.145165443E0,-8.705686569E0,1.100698411E-1
2.025246729E1,-3.924229145E0,-6.412166595E0,5.264209956E-2
2.027273791E1,-5.898906231E0,-4.747958183E0,-6.993024349E-1
2.029304781E1,-7.728219032E0,-3.613162279E0,-1.180858016E0
2.031343729E1,-7.919644833E0,-3.404986620E0,-5.892325640E-1
2.033370765E1,-7.235297680E0,-3.007179976E0,3.972085714E-1
2.035382099E1,-6.196214199E0,-2.605185747E0,5.886343718E-1
2.037409146E1,-5.532804012E0,-2.921038151E0,4.642075896E-1
2.039436198E1,-5.042275429E0,-4.079762459E0,4.761717021E-1
2.041476198E1,-5.315057278E0,-5.547759533E0,5.766702294E-1
2.043490317E1,-6.067001820E0,-6.684948444E0,1.433898926E0
2.045517375E1,-8.319844246E0,-1.008933640E1,1.091007519E1
2.047544432E1,-1.598824310E1,-9.119645119E0,8.087141991E0
2.049571489E1,-1.232064342E1,-7.989634991E0,6.748956203E0
2.051598156E1,-1.098664474E1,-9.986445427E0,6.013761520E0
2.053625479E1,-1.111107159E1,-1.064746284E1,3.653241873E0
2.055652567E1,-8.133204460E0,-1.030469036E1,-1.984846354E0
2.057679651E1,-6.794419765E0,-9.019146919E0,-1.326820135E0
2.059706729E1,-5.276772022E0,-8.507082939E0,-1.503889084E0
2.061733812E1,-3.346960783E0,-7.649854183E0,-3.033500910E0
2.063760880E1,-2.494517565E0,-6.471987247E0,-3.040679455E0
2.065787953E1,-2.408375978E0,-5.557330608E0,-2.308475733E0
2.067815020E1,-3.258426189E0,-5.703292847E0,-1.791027784E0
2.069842099E1,-4.725824833E0,-6.929016113E0,-1.130608678E0
2.071869161E1,-6.045466423E0,-8.339585304E0,-1.266999602E0
2.073896229E1,-6.662814617E0,-9.346963882E0,-1.563709617E0
2.075923297E1,-6.043073654E0,-9.385847092E0,-1.898704767E0
2.077950364E1,-5.231308460E0,-8.916254997E0,-2.087737799E0
2.079977432E1,-5.729015827E0,-8.497511864E0,-2.097907305E0
2.082004500E1,-7.175477028E0,-7.453642368E0,-9.026923180E-1
2.084031562E1,-7.740182877E0,-7.261618614E0,2.392822644E-3
2.086058630E1,-7.039085865E0,-7.120441914E0,3.445664644E-1
2.088085698E1,-6.457031727E0,-6.055037498E0,4.378865361E-1
2.090112765E1,-6.440282345E0,-4.913063049E0,4.618147612E-1
2.092139828E1,-6.720242500E0,-4.542175770E0,3.900300860E-1
2.094166896E1,-7.553543091E0,-4.585246563E0,3.948157430E-1
2.096206896E1,-8.551948547E0,-4.676173687E0,2.656033039E-1
2.098221026E1,-9.421140671E0,-4.592424870E0,1.196411345E-2
2.100248093E1,-1.011984539E1,-4.960919380E0,-1.345962733E-1
2.102275161E1,-1.038126087E1,-5.251049519E0,-2.566302419E-1
2.104302229E1,-9.739386559E0,-5.215157032E0,-3.690928817E-1
2.106342229E1,-8.700303078E0,-5.197809219E0,-4.983053207E-1
2.108356359E1,-8.370093346E0,-5.760720730E0,-3.164508045E-1
2.110383427E1,-8.626125336E0,-6.500700951E0,-4.289134443E-1
2.112410494E1,-9.289535522E0,-7.451249599E0,-2.925225794E-1
2.114437562E1,-1.000259686E1,-8.397012711E0,-1.489532143E-1
2.116464630E1,-1.049133110E1,-9.613164902E0,-1.734796353E-2
2.118491692E1,-9.746564865E0,-9.986445427E0,5.647061467E-1
2.120518765E1,-7.311867714E0,-9.888339996E0,5.537590027E0
2.122545822E1,-6.775277138E0,-9.799804688E0,4.522434711E0
2.124572896E1,-5.738586903E0,-9.527023315E0,9.164510965E-1
2.126599963E1,-5.391627789E0,-8.679366112E0,-1.657029688E-1
2.128627031E1,-5.556732178E0,-8.846863747E0,4.785645381E-2
2.130654099E1,-4.987240791E0,-9.376275063E0,-4.127619043E-2
2.132681166E1,-3.722633839E0,-9.823733330E0,-6.251249313E-1
2.134708234E1,-3.203391314E0,-9.491130829E0,-7.447660565E-1
2.136735302E1,-4.405186653E0,-7.482356548E0,2.823530734E-1
2.138762369E1,-5.338985443E0,-5.456831932E0,1.962114573E-1
2.140789437E1,-6.150750637E0,-3.952943087E0,-4.193421602E-1
2.142816505E1,-7.280761242E0,-2.880360365E0,-2.374876440E-1
2.144843573E1,-7.299903870E0,-2.736790895E0,2.871387303E-1
2.146870640E1,-6.409175396E0,-2.918645382E0,4.905286431E-1
2.148897708E1,-5.812764645E0,-3.083750248E0,3.756731451E-1
2.150936651E1,-5.322235584E0,-4.257429600E0,2.703889608E-1
2.152951849E1,-5.181059361E0,-5.296513081E0,6.699903309E-2
2.154978916E1,-5.848656654E0,-6.428916454E0,-2.255235314E-1
2.157005984E1,-6.624529362E0,-7.642675400E0,-3.409772366E-2
2.159033052E1,-7.027122021E0,-9.138788223E0,2.848655462E0
2.161060119E1,-1.219801140E1,-9.558130264E0,8.261817932E0
2.163087187E1,-1.259821129E1,-5.387440205E0,7.273582458E0
2.165114255E1,-9.653244972E0,-3.421736479E0,5.858228207E0
2.167141323E1,-1.002652550E1,-5.401797295E0,2.169093609E0
2.169168396E1,-1.061097240E1,-8.758329391E0,-2.784647465E0
2.171195463E1,-1.149930763E1,-1.169851017E1,-2.897109985E0
2.173222531E1,-1.089093208E1,-1.151665497E1,-6.059823632E-1
2.175249599E1,-7.845467091E0,-9.641879082E0,-7.447660565E-1
2.177276666E1,-5.011168957E0,-7.451249599E0,-1.266999602E0
2.179307666E1,-2.583052158E0,-5.830112457E0,-1.836491346E0
2.181346619E1,-1.031904817E0,-4.762315273E0,-2.124228239E0
2.183373661E1,-1.335793257E0,-4.992026329E0,-1.233500123E0
2.185385000E1,-3.098107100E0,-6.859624386E0,-7.758727670E-1
2.187412046E1,-5.197809219E0,-9.114859581E0,-9.337990284E-1
2.189439109E1,-6.349354744E0,-1.071685410E1,-1.568495274E0
2.191479109E1,-5.568696499E0,-1.081735325E1,-2.061416626E0
2.193493244E1,-4.931607246E0,-9.469595909E0,-1.726421595E0
2.195520307E1,-5.642873764E0,-7.860422611E0,-9.050851464E-1
2.197547369E1,-6.279963017E0,-6.972086906E0,-3.499503136E-1
2.199574437E1,-6.641279221E0,-6.515058041E0,-5.563312769E-2
2.201601114E1,-6.658029079E0,-6.074180126E0,-7.716853172E-2
2.203628432E1,-6.866204739E0,-5.521438122E0,-1.202393398E-1
2.205655135E1,-7.290332317E0,-5.344369411E0,-2.207378894E-1
2.207678765E1,-7.893323898E0,-5.277370453E0,-2.733799815E-1
2.209709755E1,-8.985049248E0,-4.968098164E0,-3.954139352E-1
2.211736833E1,-1.037408257E1,-4.585246563E0,-3.308077157E-1
2.213763906E1,-1.140598774E1,-4.781457901E0,-9.870393574E-2
2.215790974E1,-1.137488079E1,-4.685744762E0,2.392822644E-3
2.217818046E1,-1.026879883E1,-4.257429600E0,1.028913707E-1
2.219858047E1,-9.016156197E0,-4.022335052E0,1.316052526E-1
2.221872182E1,-8.405985832E0,-4.759922504E0,1.914258115E-2
2.223899250E1,-9.181859016E0,-6.582056999E0,-8.913264424E-2
2.225926317E1,-1.008395290E1,-8.861220360E0,-1.345962733E-1
2.227953390E1,-1.063729286E1,-1.051585770E1,-1.489532143E-1
2.229980458E1,-1.049133110E1,-1.099202919E1,2.919243574E-1
2.232007531E1,-8.228917122E0,-1.099920750E1,6.447460651E0
2.234034604E1,-6.672386169E0,-1.022572803E1,5.836692810E0
2.236061672E1,-5.291129112E0,-9.634700775E0,1.599003673E0
2.238088739E1,-4.627718925E0,-8.820542336E0,2.871387079E-2
2.240115807E1,-4.689932346E0,-8.464012146E0,-4.504488707E-1
2.242142880E1,-4.185046673E0,-8.542975426E0,-7.495517135E-1
2.244169942E1,-3.064607620E0,-8.877969742E0,-1.068395257E0
2.246197015E1,-2.195414782E0,-9.448060036E0,-8.434699476E-2
2.248224088E1,-3.232105255E0,-9.059824944E0,5.838487148E-1
2.250251151E1,-4.694717884E0,-7.168298244E0,6.245267391E-1
2.252278224E1,-5.865406513E0,-5.365904808E0,-3.451646566E-1
2.254305291E1,-7.393223763E0,-3.780659676E0,-5.988038778E-1
2.256332359E1,-7.019943237E0,-3.251846075E0,-6.281159073E-2
2.258359432E1,-5.429912567E0,-3.352344513E0,2.297109663E-1
2.260386500E1,-4.823930264E0,-3.438486099E0,1.435693651E-1
2.262413567E1,-5.116453171E0,-4.070191383E0,1.579262912E-1
2.264440635E1,-5.566303730E0,-5.382654667E0,3.948157430E-1
2.266467708E1,-6.337390900E0,-6.852446079E0,6.771687865E-1
2.268494776E1,-6.401997089E0,-7.523034573E0,3.217748165E0
2.270521843E1,-1.064686394E1,-8.880363464E0,8.676374435E0
2.272548911E1,-1.418285847E1,-6.644270420E0,6.164509296E0
2.274575984E1,-1.170030499E1,-8.432905197E0,5.113461971E0
2.276603052E1,-1.156152058E1,-1.212443256E1,3.270390272E0
2.278630119E1,-1.273460197E1,-1.368574905E1,1.646860242E0
2.280657192E1,-1.009352398E1,-1.178465176E1,-9.840483069E-1
2.282684260E1,-5.863013744E0,-8.305487633E0,-8.668000102E-1
2.284711328E1,-2.745764017E0,-6.763911247E0,-2.148156643E0
2.286738396E1,-8.309076428E-1,-4.652245522E0,-2.894717216E0
2.288765463E1,-3.086741269E-1,-3.498306751E0,-2.837289333E0
2.290792536E1,-1.177866936E0,-3.974478483E0,-1.905883193E0
2.292819604E1,-2.566302299E0,-6.071787357E0,-1.185643673E0
2.294846672E1,-5.475376606E0,-8.839685440E0,-9.625129104E-1
2.296873739E1,-8.810373306E0,-1.104945660E1,-1.491924882E0
2.298900807E1,-9.320642471E0,-1.166022491E1,-2.251047850E0
2.300939750E1,-6.899703979E0,-1.036211872E1,-2.743969440E0
2.302954942E1,-5.114060402E0,-9.038289070E0,-2.653042078E0
2.304982015E1,-5.441876888E0,-7.118049145E0,-1.826920033E0
2.307022015E1,-6.708278179E0,-6.153143406E0,-5.294120312E-1
2.309051942E1,-7.065407276E0,-6.464808464E0,2.081755698E-1
2.311063276E1,-6.519245148E0,-6.105287075E0,4.618147612E-1
2.313090333E1,-5.968297958E0,-5.251049519E0,3.565305769E-1
2.315117390E1,-6.019145489E0,-4.666602135E0,1.411765367E-1
2.317144453E1,-6.631708145E0,-4.719244480E0,1.914258115E-2
2.319171515E1,-7.740182877E0,-5.195415974E0,-4.127619043E-2
2.321198578E1,-9.110074043E0,-4.953741074E0,-1.106680483E-1
2.323225640E1,-1.024965572E1,-4.982454777E0,-1.585244983E-1
2.325252708E1,-1.075454140E1,-4.982454777E0,-1.082752272E-1
2.327279776E1,-1.035972595E1,-4.884349346E0,-2.207378894E-1
2.329314708E1,-1.000738239E1,-4.618745804E0,-2.446661144E-1
2.331349666E1,-9.698708534E0,-5.337191105E0,-2.213360928E-2
2.333376744E1,-9.543174744E0,-6.859624386E0,-6.999006122E-2
2.335388083E1,-9.842277527E0,-8.307880402E0,-1.274178028E-1
2.337415146E1,-1.035972595E1,-9.902696609E0,6.364908218E-1
2.339442203E1,-9.942776680E0,-1.081974602E1,4.316651821E0
2.341482203E1,-7.783253670E0,-1.017069244E1,5.307878971E0
2.343496333E1,-6.351747513E0,-1.011087227E1,2.085345030E0
2.345523396E1,-6.179464340E0,-9.469595909E0,-2.015953064E-1
2.347550458E1,-6.890132904E0,-9.538987160E0,-4.265206456E-1
2.349577526E1,-6.885347366E0,-9.940981865E0,-6.251249313E-1
2.351604260E1,-5.934798241E0,-9.847661972E0,-1.702493310E0
2.353631536E1,-4.558327198E0,-8.949754715E0,-2.509472847E0
2.355658625E1,-3.909872293E0,-8.617152214E0,-1.994417667E0
2.357685713E1,-4.445864677E0,-7.077371120E0,-2.518445849E-1
2.359712797E1,-6.629314899E0,-4.678566456E0,2.396411896E0
2.361739875E1,-6.902096748E0,-3.397808075E0,9.571290612E-1
2.363766948E1,-6.071787357E0,-2.466402054E0,2.536391914E-1
2.365794021E1,-5.078167915E0,-2.480758905E0,3.828516230E-2
2.367821099E1,-4.577469826E0,-3.144168854E0,-1.872383654E-1
2.369848172E1,-4.558327198E0,-4.252644062E0,-4.624129832E-1
2.371875239E1,-4.563112736E0,-5.404190063E0,-4.552344978E-1
2.373902307E1,-4.601397991E0,-6.778268337E0,-2.566302419E-1
2.375929369E1,-4.764110088E0,-8.169096947E0,7.226324677E-1
2.377956448E1,-5.300700188E0,-1.054217815E1,7.335795879E0
2.379983515E1,-1.352243900E1,-1.028076267E1,9.052047729E0
2.382010578E1,-1.295952702E1,-6.102894306E0,4.838287354E0
2.384037651E1,-1.088375378E1,-5.315655708E0,2.539981127E0
2.386064718E1,-1.006002426E1,-7.353144169E0,2.081755698E-1
2.388091786E1,-1.104646587E1,-9.359525681E0,-1.664208174E0
2.390118854E1,-1.053679466E1,-1.020658493E1,-2.839682341E0
2.392145922E1,-8.051250458E0,-8.990432739E0,-2.931207791E-2
2.394172989E1,-6.043073654E0,-7.927421570E0,7.896314561E-2
2.396200052E1,-4.658825874E0,-6.790232658E0,-1.310070395E0
2.398227119E1,-3.241676569E0,-5.724828243E0,-2.289333105E0
2.400270026E1,-2.231307030E0,-5.073382378E0,-2.054238319E0
2.402281255E1,-2.595016241E0,-5.710471153E0,-1.460818172E0
2.404308312E1,-4.252045631E0,-7.027122021E0,-1.135394335E0
2.406335385E1,-6.260820389E0,-8.389834404E0,-1.092323542E0
2.408362453E1,-6.806384087E0,-8.980861664E0,-1.515853167E0
2.410389520E1,-6.205785751E0,-8.815756798E0,-1.805384636E0
2.412416588E1,-5.578267574E0,-8.317451477E0,-1.743171334E0
2.414443651E1,-5.769693375E0,-7.055835724E0,-1.621137381E0
2.416470718E1,-7.395616531E0,-5.983253002E0,-9.074779749E-1
2.418497781E1,-8.465806961E0,-6.105287075E0,-1.369891018E-1
2.420524849E1,-7.845467091E0,-6.131608009E0,2.249253243E-1
2.422551916E1,-6.564708710E0,-5.562116146E0,2.919243574E-1
2.424578979E1,-5.970690727E0,-5.166702271E0,1.459621787E-1
2.426606047E1,-6.229713917E0,-5.540580750E0,4.067798331E-2
2.428633114E1,-7.448258877E0,-6.143572330E0,3.062812984E-1
2.430660177E1,-8.982656479E0,-6.160321712E0,2.703889608E-1
2.432687244E1,-9.832706451E0,-5.215157032E0,2.703889608E-1
2.434714302E1,-1.018265629E1,-5.032704353E0,1.363908947E-1
2.436741375E1,-9.777671814E0,-5.030311584E0,-3.355933726E-1
2.438768442E1,-9.839884758E0,-5.968895912E0,-9.314061999E-1
2.440795505E1,-1.115414238E1,-7.175477028E0,-9.122636318E-1
2.442822572E1,-1.138923740E1,-7.915457249E0,-7.878368497E-1
2.444849635E1,-1.066361427E1,-8.763114929E0,-7.064808607E-1
2.446876703E1,-9.995418549E0,-8.866005898E0,2.608176768E-1
2.448903765E1,-9.397212982E0,-7.659425259E0,4.993820667E0
2.450943765E1,-7.603792191E0,-7.874779224E0,4.009772778E0
2.452957896E1,-6.380461693E0,-9.469595909E0,1.323829174E0
2.454984963E1,-5.848656654E0,-9.519845009E0,3.589234129E-2
2.457012026E1,-5.372485161E0,-9.704092026E0,-3.236292601E-1
2.459039093E1,-4.443471432E0,-1.036690426E1,-7.399803996E-1
2.461066156E1,-3.411566973E0,-1.097527885E1,-8.859425783E-1
2.463093224E1,-3.208176851E0,-9.986445427E0,-3.409772366E-2
2.465120286E1,-3.912265062E0,-7.999206066E0,5.383850932E-1
2.467147354E1,-4.589433670E0,-6.452844620E0,1.052841991E-1
2.469174416E1,-5.645267010E0,-4.783850670E0,-7.519445419E-1
2.471205411E1,-6.452246189E0,-3.491128206E0,-1.365105271E0
2.473228552E1,-6.327819347E0,-2.882753134E0,-1.221535921E0
2.475255614E1,-5.446662426E0,-3.000001431E0,-7.256234884E-1
2.477282677E1,-4.680361271E0,-3.326023579E0,-7.471588850E-1
2.479321619E1,-4.685146809E0,-3.862015724E0,-2.111666054E-1
2.481352604E1,-5.073382378E0,-5.449653625E0,4.211367965E-1
2.483379672E1,-5.556732178E0,-7.374679565E0,1.553540111E0
2.485391000E1,-6.363711834E0,-8.866005898E0,6.942774773E0
2.487418052E1,-1.441316700E1,-9.972088814E0,1.138385391E1
2.489445109E1,-1.396511078E1,-7.094120979E0,3.619742393E0
2.491485109E1,-8.003393173E0,-6.263811588E0,4.465006828E0
2.493499224E1,-8.681160927E0,-8.214560509E0,8.279166222E-1
2.495526281E1,-9.234500885E0,-1.128634644E1,-2.353939295E0
2.497553338E1,-1.088853931E1,-1.400878048E1,-3.400201082E0
2.499580396E1,-9.320642471E0,-1.204307652E1,-1.470389485E0
2.501606942E1,-6.428318024E0,-8.255238533E0,-8.524430394E-1
2.503634338E1,-4.036691666E0,-6.297310829E0,-1.908276081E0
2.505655666E1,-2.293520451E0,-4.702494621E0,-2.143370867E0
2.507624067E1,-1.146760225E0,-3.529413462E0,-1.925025821E0
2.509664067E1,-1.572682738E0,-4.053441525E0,-1.066002488E0
2.511704067E1,-3.244069338E0,-6.247061729E0,-8.165507317E-1
2.513744067E1,-6.045466423E0,-8.763114929E0,-8.117650747E-1
2.515784067E1,-8.216953278E0,-1.017069244E1,-1.133001566E0
2.517820599E1,-7.706683636E0,-9.924231529E0,-1.518245935E0
2.519848265E1,-6.026323795E0,-8.588438988E0,-1.496710539E0
2.521875875E1,-5.501697540E0,-6.335596085E0,-1.384247899E0
2.523903380E1,-6.873383045E0,-5.006382942E0,-2.925225794E-1
2.525930796E1,-7.773682594E0,-5.195415974E0,4.450650215E-1
2.527958140E1,-6.949953556E0,-5.880361557E0,6.340979934E-1
2.529985427E1,-6.143572330E0,-5.507081509E0,3.780659735E-1
2.532012672E1,-5.973083496E0,-5.533402443E0,-4.606183618E-2
2.534039880E1,-6.569494724E0,-6.050251961E0,-4.983053207E-1
2.536067057E1,-8.044071198E0,-6.081358910E0,-6.849454641E-1
2.538094208E1,-9.354142189E0,-5.698507309E0,-5.724828243E-1
2.540121338E1,-9.964311600E0,-5.272584915E0,-4.289134443E-1
2.542148458E1,-9.710672379E0,-4.860421181E0,-2.231307179E-1
2.544175515E1,-9.172286987E0,-4.769493580E0,-5.198407173E-1
2.546215562E1,-1.067318535E1,-5.942574978E0,-1.262213945E0
2.548229729E1,-1.216690540E1,-7.530212879E0,-8.237292171E-1
2.550256791E1,-1.064925671E1,-8.428119659E0,-3.164508045E-1
2.552284020E1,-9.772886276E0,-8.892327309E0,2.659622431E0
2.554311078E1,-1.055354404E1,-8.545368195E0,8.604590416E0
2.556351078E1,-7.426723480E0,-8.583653450E0,4.551148891E0
2.558365198E1,-6.665207386E0,-9.412167549E0,6.556333899E-1
2.560392260E1,-7.790432453E0,-1.021376324E1,-5.270192027E-1
2.562419317E1,-7.898109436E0,-1.116670513E1,-1.250249863E0
2.564446380E1,-6.952346325E0,-1.184447193E1,-2.710469961E0
2.566473437E1,-4.646861553E0,-1.212203979E1,-8.715856671E-1
2.568500494E1,-2.913859844E0,-1.058764172E1,1.752144337E0
2.570527562E1,-3.320639610E0,-7.735995770E0,2.164308071E0
2.572554625E1,-3.885345697E0,-5.270191669E0,2.034497499E0
2.574581682E1,-3.727419376E0,-3.869194269E0,4.809573591E-1
2.576608744E1,-3.924229145E0,-3.062214851E0,-8.691928387E-1
2.578635807E1,-4.393222332E0,-2.779861689E0,-1.640279889E0
2.580662864E1,-4.716253281E0,-3.163311481E0,-9.074779749E-1
2.582689927E1,-4.393222332E0,-3.866801500E0,-9.571290575E-3
2.584716989E1,-4.010370731E0,-4.223930359E0,4.522434771E-1
2.586744046E1,-4.103690624E0,-4.831707001E0,7.896314859E-1
2.588771109E1,-5.145166874E0,-6.476772785E0,1.335793257E0
2.590798172E1,-7.493722439E0,-8.708079338E0,4.479363918E0
2.592825229E1,-1.560539150E1,-1.118824005E1,1.198505020E1
2.594852291E1,-1.667318726E1,-7.752745152E0,4.795216560E0
2.596879349E1,-9.708279610E0,-6.134000778E0,5.865406513E0
2.598906411E1,-1.038843918E1,-9.165108681E0,5.867799282E0
2.600945343E1,-1.141077328E1,-1.133420277E1,3.636492252E0
2.602960531E1,-8.126026154E0,-1.199522018E1,-1.592423439E0
2.604987588E1,-6.461817741E0,-1.073599720E1,-1.400997639E0
2.607027588E1,-4.503292084E0,-8.935398102E0,-1.130608678E0
2.609041713E1,-2.489732027E0,-7.146762848E0,-2.320439816E0
2.611068770E1,-1.390828133E0,-5.373083115E0,-2.739183664E0
2.613095828E1,-9.720842242E-1,-4.084548473E0,-2.583650351E0
2.615122890E1,-1.579861164E0,-4.501497746E0,-1.829312921E0
2.617149948E1,-3.325425386E0,-6.464808464E0,-1.424925923E0
2.619177005E1,-6.222535133E0,-8.569295883E0,-1.271785259E0
2.621208000E1,-8.654839516E0,-1.046082211E1,-1.444068432E0
2.623231135E1,-8.779266357E0,-1.058285618E1,-1.609173179E0
2.625258192E1,-7.220940590E0,-9.503094673E0,-1.657029629E0
2.627285250E1,-6.581458569E0,-7.865208149E0,-2.061416626E0
2.629325250E1,-7.761718273E0,-6.052644730E0,-1.015154958E0
2.631355161E1,-8.322237015E0,-5.882754326E0,-1.585244983E-1
2.633382229E1,-7.381259441E0,-5.832505226E0,2.225325108E-1
2.635393552E1,-6.301498413E0,-4.862813950E0,3.565305769E-1
2.637420593E1,-6.296712875E0,-4.146761417E0,7.585247755E-1
2.639447651E1,-7.342974663E0,-4.472783566E0,3.059223652E0
2.641487651E1,-7.699504852E0,-5.538187981E0,3.241676569E0
2.643501755E1,-8.255238533E0,-6.208178520E0,1.163509965E0
2.645528807E1,-8.886942863E0,-5.284548759E0,-3.409772366E-2
2.647555859E1,-9.315856934E0,-4.829314232E0,-8.548358679E-1
2.649582911E1,-9.423533440E0,-5.418546677E0,-1.410568953E0
2.651609463E1,-1.004088211E1,-6.376274109E0,-1.987239242E0
2.653636843E1,-1.104646587E1,-7.771887779E0,-1.657029629E0
2.655663937E1,-1.070668507E1,-9.256035805E0,-1.029511929E0
2.657691020E1,-1.012223816E1,-1.027119160E1,3.110669367E-2
2.659718104E1,-1.055115128E1,-1.025922680E1,7.721040249E0
2.661745177E1,-8.535198212E0,-8.842078209E0,6.418746948E0
2.663772250E1,-6.279963017E0,-9.260822296E0,2.281556368E0
2.665799317E1,-6.442675114E0,-9.644271851E0,-1.256231871E-2
2.667826369E1,-6.291927338E0,-9.157930374E0,-6.945167780E-1
2.669866380E1,-5.633302689E0,-9.244071960E0,-1.599601984E0
2.671880510E1,-4.584648132E0,-9.668199539E0,-2.267797709E0
2.673907567E1,-2.602194548E0,-1.017069244E1,2.991028428E-1
2.675947572E1,-2.494517565E0,-8.444869041E0,1.285543919E0
2.677961692E1,-4.165904045E0,-5.992824078E0,2.197807550E0
2.679988755E1,-4.833501816E0,-4.412963390E0,1.352542996E0
2.682015812E1,-5.183452129E0,-3.481556892E0,1.603191197E-1
2.684042875E1,-4.956133842E0,-3.009572744E0,-2.973082066E-1
2.686069932E1,-4.333401680E0,-3.589233875E0,4.546362907E-2
2.688096989E1,-4.283152580E0,-4.257429600E0,7.417750359E-2
2.690124052E1,-4.783252239E0,-4.936991215E0,1.172483116E-1
2.692151114E1,-5.429912567E0,-5.480760098E0,1.674975902E-1
2.694178172E1,-6.071787357E0,-6.407381058E0,8.997012973E-1
2.696205224E1,-7.668398380E0,-7.523034573E0,2.824727058E0
2.698232286E1,-1.287817192E1,-8.796614647E0,6.784848690E0
2.700259343E1,-1.554796314E1,-6.857231617E0,5.748157978E0
2.702286401E1,-1.101775169E1,-5.444868088E0,6.392425537E0
2.704313458E1,-8.623732567E0,-5.815755367E0,6.473781586E0
2.706340515E1,-1.164766216E1,-1.093699455E1,4.926821709E0
2.708367573E1,-1.011745262E1,-1.408056450E1,3.097508907E0
2.710394630E1,-7.208976269E0,-1.223210907E1,-1.357926846E0
2.712421687E1,-5.461019516E0,-9.687342644E0,-2.243869543E0
2.714448744E1,-4.192225456E0,-8.159524918E0,-2.215155602E0
2.716475797E1,-3.119642496E0,-6.744768620E0,-2.308475733E0
2.718502854E1,-2.188236237E0,-5.425725460E0,-2.263011932E0
2.720529911E1,-1.670788407E0,-5.068596363E0,-2.562114954E0
2.722556968E1,-2.532802820E0,-6.145965099E0,-1.980060697E0
2.724584026E1,-4.632504463E0,-8.190631866E0,-1.539781332E0
2.726611083E1,-7.108478069E0,-9.873982430E0,-1.503889084E0
2.728638140E1,-7.596613884E0,-1.028315544E1,-1.604387641E0
2.730665192E1,-6.196214199E0,-9.315856934E0,-1.846062660E0
2.732692250E1,-5.305486202E0,-8.293522835E0,-1.716850281E0
2.734719307E1,-5.566303730E0,-7.513463020E0,-1.178465128E0
2.736746364E1,-6.588637352E0,-6.574878216E0,-1.024726272E0
2.738773422E1,-7.613363266E0,-6.028716564E0,-7.232306600E-1
2.740800474E1,-8.090133667E0,-5.624329567E0,-2.327020019E-1
2.742827531E1,-7.862216949E0,-5.154737949E0,-1.495514158E-2
2.744854588E1,-7.685148239E0,-4.671388149E0,9.571290575E-3
2.746881646E1,-8.166703224E0,-4.475176334E0,-1.441675574E-1
2.748908703E1,-9.514460564E0,-4.439284325E0,1.100698411E-1
2.750948703E1,-1.081675434E1,-4.587639332E0,2.991028428E-1
2.752962812E1,-1.101296616E1,-4.338785648E0,5.527420044E-1
2.754989869E1,-1.017547798E1,-3.914657831E0,5.862415433E-1
2.757016927E1,-9.131608963E0,-4.374678135E0,1.555334777E-1
2.759056927E1,-8.573483467E0,-5.787041664E0,-4.265206456E-1
2.761071036E1,-8.501698494E0,-7.242475986E0,-1.135394335E0
2.763098093E1,-9.073583603E0,-8.435297966E0,-1.312463164E0
2.765125146E1,-9.646066666E0,-9.026325226E0,-9.337990284E-1
2.767152203E1,-9.911669731E0,-9.658628464E0,-2.015953064E-1
2.769179260E1,-1.039801121E1,-9.909874916E0,4.515256405E0
2.771214182E1,-9.246464729E0,-9.821340561E0,6.985845566E0
2.773233380E1,-6.473781586E0,-1.040818024E1,2.085345030E0
2.775260432E1,-6.258427620E0,-9.567701340E0,-2.590230405E-1
2.777287489E1,-6.832705021E0,-9.129216194E0,-7.686942816E-1
2.779326416E1,-5.903691769E0,-9.272786140E0,-1.537388563E0
2.781353437E1,-4.630111694E0,-9.620343208E0,-1.908276081E0
2.783384432E1,-3.550350666E0,-9.771091461E0,-1.274178028E0
2.785395760E1,-3.043072224E0,-9.239286423E0,4.259224236E-1
2.787422807E1,-4.393222332E0,-6.747161865E0,1.759322882E0
2.789449849E1,-5.032704353E0,-4.989633560E0,8.614161611E-1
2.791489849E1,-4.850251675E0,-3.744767427E0,-6.849454641E-1
2.793503948E1,-4.876572609E0,-2.777468920E0,-1.508674622E0
2.795531000E1,-5.140381336E0,-2.452044964E0,-1.121037364E0
2.797558052E1,-5.161916733E0,-2.959323406E0,-4.839483798E-1
2.799585099E1,-5.188237667E0,-3.828516245E0,1.555334777E-1
2.801611718E1,-5.221737385E0,-5.133202553E0,5.575276613E-1
2.803639057E1,-5.640480995E0,-6.926623344E0,9.379864931E-1
2.805660369E1,-6.581458569E0,-8.901898384E0,2.827120066E0
2.807628765E1,-1.203769207E1,-1.028794098E1,7.412366390E0
2.809668765E1,-1.502812290E1,-7.417750359E0,4.661218643E0
2.811708765E1,-1.144427204E1,-5.734399319E0,6.342176437E0
2.813748765E1,-1.107996559E1,-6.483951092E0,4.242474556E0
2.815788765E1,-1.001695347E1,-8.015955925E0,4.833501875E-1
2.817825250E1,-9.138788223E0,-1.048235798E1,-2.851646423E0
2.819852901E1,-8.762516975E0,-1.086281681E1,-1.936989903E0
2.821880500E1,-7.230511665E0,-9.921838760E0,-5.461617708E-1
2.823907994E1,-4.883750916E0,-8.078168869E0,-1.271785259E0
2.825935401E1,-3.000001431E0,-5.854040623E0,-1.819741607E0
2.827962729E1,-1.819143414E0,-4.680959225E0,-1.977667928E0
2.829990005E1,-1.450648785E0,-4.879563808E0,-1.841277003E0
2.832017239E1,-2.745764017E0,-6.672984123E0,-1.391426325E0
2.834044437E1,-5.312664509E0,-8.662615776E0,-1.034297585E0
2.836071609E1,-7.517650604E0,-1.016829967E1,-1.036690354E0
2.838098755E1,-7.307082176E0,-1.066421223E1,-1.661815286E0
2.840125875E1,-5.846263885E0,-9.390632629E0,-2.011167526E0
2.842152989E1,-5.616552830E0,-6.974479675E0,-1.680957913E0
2.844180088E1,-6.813562393E0,-5.880361557E0,-6.083751321E-1
2.846207182E1,-7.560721397E0,-5.684150219E0,2.153540403E-2
2.848234234E1,-7.290332317E0,-5.478367329E0,2.512463629E-1
2.850277114E1,-6.691528320E0,-4.939383984E0,1.339980662E-1
2.852288505E1,-6.794419765E0,-4.709673405E0,-8.434699476E-2
2.854315552E1,-7.522436142E0,-5.075775146E0,-3.284149170E-1
2.856342604E1,-8.709874153E0,-4.862813950E0,-2.015953064E-1
2.858369656E1,-9.655637741E0,-4.896313190E0,-2.931207791E-2
2.860396708E1,-1.017069244E1,-4.948955536E0,4.546362907E-2
2.862423755E1,-1.032622623E1,-4.759922504E0,1.962114573E-1
2.864450812E1,-9.830313683E0,-5.126024246E0,1.579262912E-1
2.866477864E1,-9.117252350E0,-5.746363640E0,-3.188436031E-1
2.868504916E1,-9.260822296E0,-6.751947403E0,-9.457631707E-1
2.870531968E1,-9.954740524E0,-7.594819069E0,-8.548358679E-1
2.872559026E1,-1.022812080E1,-8.068597794E0,-5.174478889E-1
2.874586078E1,-1.059182930E1,-8.901898384E0,2.297109663E-1
2.876613130E1,-1.056550884E1,-9.426525116E0,5.748157978E0
2.878640182E1,-7.864609718E0,-9.457631111E0,5.530411243E0
2.880667234E1,-6.138786316E0,-9.768698692E0,1.790429592E0
2.882694286E1,-6.531209469E0,-9.035896301E0,-4.432703853E-1
2.884721338E1,-6.473781586E0,-9.052646637E0,-6.921239495E-1
2.886748390E1,-6.150750637E0,-9.440881729E0,-1.216750264E0
2.888775448E1,-5.226522923E0,-1.008455086E1,-2.013560295E0
2.890802500E1,-3.583850145E0,-1.075513935E1,-1.467996716E0
2.892829552E1,-3.667598963E0,-9.519845009E0,5.120640397E-1
2.894856604E1,-4.968098164E0,-6.991229534E0,2.279163599E0
2.896883656E1,-5.614160061E0,-5.157131195E0,1.378864050E0
2.898910708E1,-6.102894306E0,-3.601198196E0,1.674975902E-1
2.900949635E1,-5.650052547E0,-2.636292458E0,-4.265206456E-1
2.902964812E1,-5.142774105E0,-2.521436930E0,-1.154536963E0
2.904991864E1,-4.649254322E0,-3.290131092E0,-8.165507317E-1
2.907031864E1,-4.144368649E0,-4.274179459E0,-1.537388563E-1
2.909045974E1,-3.827918053E0,-5.373083115E0,1.220339537E-1
2.911073026E1,-3.972085476E0,-6.653841496E0,3.206382394E-1
2.913100078E1,-4.515256405E0,-8.049455643E0,1.347757339E0
2.915127130E1,-5.288736343E0,-9.586843491E0,5.384449005E0
2.917154182E1,-1.314616776E1,-1.218425274E1,1.223390388E1
2.919181234E1,-1.545225048E1,-8.214560509E0,5.693123341E0
2.921216161E1,-1.069472122E1,-6.318846226E0,4.374079704E0
2.923235354E1,-8.896514893E0,-7.563712597E0,1.486541033E0
2.925262401E1,-9.044869423E0,-8.452047348E0,-6.490531564E-1
2.927289453E1,-9.358927727E0,-1.118584728E1,-2.181656122E0
2.929329453E1,-7.862216949E0,-1.101595688E1,-2.032702923E0
2.931359354E1,-6.433103561E0,-8.645866394E0,-1.056431174E0
2.933362817E1,-4.992026329E0,-6.704091072E0,-1.925025821E0
2.935397703E1,-3.602992773E0,-5.306084156E0,-2.346760750E0
2.937424750E1,-2.671586514E0,-4.276572227E0,-2.150549412E0
2.939451791E1,-2.614158630E0,-4.834099770E0,-1.539781332E0
2.941491791E1,-4.046263218E0,-6.467201233E0,-1.015154958E0
2.943505896E1,-6.148357868E0,-7.934599876E0,-1.043868899E0
2.945532942E1,-7.567899704E0,-9.021539688E0,-1.479960799E0
2.947560000E1,-7.055835724E0,-9.117252350E0,-1.848455548E0
2.949587052E1,-5.951548100E0,-8.334799767E0,-1.819741607E0
2.951613807E1,-5.822335720E0,-6.974479675E0,-1.657029629E0
2.953641057E1,-7.304689407E0,-6.069394588E0,-8.452646136E-1
2.955668125E1,-8.233702660E0,-6.055037498E0,-5.084748194E-2
2.957695192E1,-7.280761242E0,-5.916254044E0,3.206382394E-1
2.959722265E1,-6.067001820E0,-5.246263504E0,3.828516304E-1
2.961749328E1,-5.757729530E0,-5.212764263E0,2.608176768E-1
2.963776385E1,-6.287141323E0,-5.937789440E0,5.479564071E-1
2.965803453E1,-7.457829952E0,-6.589235306E0,8.901300430E-1
2.967830510E1,-8.549555779E0,-6.462415695E0,4.378865361E-1
2.969857572E1,-9.318249702E0,-5.306084156E0,7.657032460E-2
2.971884635E1,-9.930811882E0,-5.157131195E0,-2.015953064E-1
2.973911687E1,-9.930811882E0,-5.406582832E0,-8.955138922E-1
2.975938750E1,-1.038604641E1,-6.038288116E0,-1.695314884E0
2.977965807E1,-1.138684464E1,-6.854838848E0,-1.415354609E0
2.979992859E1,-1.132941723E1,-7.702496052E0,-9.864411354E-1
2.982019916E1,-1.059900761E1,-8.789435387E0,-2.392822644E-3
2.984046979E1,-1.067557812E1,-9.107681274E0,3.866203070E0
2.986074036E1,-9.526425362E0,-8.944969177E0,4.811966419E0
2.988101088E1,-6.973881721E0,-1.002233791E1,1.479362607E0
2.990128146E1,-6.708278179E0,-1.035254669E1,-1.322034448E-1
2.992155203E1,-6.722635269E0,-1.075035381E1,-4.839483798E-1
2.994182255E1,-5.379663467E0,-1.142991543E1,-1.391426325E0
2.996222255E1,-3.681955814E0,-1.198086262E1,-6.490531564E-1
2.998236369E1,-1.730608940E0,-1.069292641E1,7.776673436E-1
3.000263422E1,-2.721835852E0,-7.652246952E0,1.089332461E0
3.002290484E1,-3.433102369E0,-5.657829285E0,7.250252366E-1
3.004317541E1,-3.835096598E0,-4.120440483E0,-5.078766346E-1
3.006357541E1,-4.847858906E0,-3.069393158E0,-1.862812400E0
3.008371656E1,-6.337390900E0,-2.612364054E0,-2.255833626E0
3.010398713E1,-7.065407276E0,-2.674577475E0,-1.214357495E0
3.012425770E1,-5.549553871E0,-3.292523861E0,-2.949153781E-1
3.014452823E1,-4.151547432E0,-3.314059258E0,-9.571290575E-3
3.016479885E1,-4.134797573E0,-4.298107624E0,1.794617027E-1
3.018506937E1,-4.972883701E0,-6.440880299E0,8.542376757E-1
3.020533994E1,-6.174678802E0,-9.239286423E0,4.783252239E0
3.022561052E1,-1.421396446E1,-1.173440266E1,1.409910965E1
3.024588109E1,-1.567238998E1,-7.881958008E0,4.563112736E0
3.026615166E1,-7.764111042E0,-6.069394588E0,4.491328239E0
3.028642224E1,-7.601399422E0,-8.531010628E0,3.155534744E0
3.030669281E1,-9.080761909E0,-1.087478065E1,1.555932879E0
3.032696338E1,-1.033340454E1,-1.268016529E1,3.206382394E-1
3.034723396E1,-7.701898098E0,-1.206221867E1,-9.888339639E-1
3.036750453E1,-5.640480995E0,-9.390632629E0,-8.883354068E-1
3.038777510E1,-4.476971149E0,-7.213762283E0,-2.291725874E0
3.040804567E1,-3.246462107E0,-5.837290764E0,-3.414557934E0
3.042831625E1,-2.358126640E0,-4.810171604E0,-3.505485058E0
3.044858682E1,-2.654836655E0,-4.771886349E0,-2.487937450E0
3.046885739E1,-3.892524242E0,-6.019145489E0,-1.482353687E0
3.048912796E1,-5.841478348E0,-7.405786037E0,-1.166501045E0
3.050951729E1,-7.500900745E0,-8.554939270E0,-1.286142230E0
3.052966911E1,-7.895716667E0,-8.944969177E0,-1.633101463E0
3.054993968E1,-7.280761242E0,-8.492725372E0,-1.523031592E0
3.057021026E1,-6.662814617E0,-7.230511665E0,-1.558923960E0
3.059048083E1,-7.630113125E0,-5.976074696E0,-3.212364316E-1
3.061075140E1,-8.053643227E0,-5.729613781E0,5.575276613E-1
3.063102198E1,-7.158727169E0,-5.392225742E0,1.933998942E0
3.065129255E1,-6.344569206E0,-5.102096081E0,1.438684583E0
3.067156312E1,-6.275177479E0,-5.070989609E0,6.675975323E-1
3.069183369E1,-6.210571289E0,-6.340381622E0,7.944171429E-1
3.071222302E1,-6.488138676E0,-6.797410965E0,1.086939692E0
3.073237489E1,-7.563114166E0,-6.675376892E0,2.416750938E-1
3.075264546E1,-9.401998520E0,-5.301298618E0,-6.921239495E-1
3.077291604E1,-1.032383347E1,-4.779065132E0,-9.026923180E-1
3.079331604E1,-9.997811317E0,-5.073382378E0,-8.500502706E-1
3.081361510E1,-9.792028427E0,-5.464010715E0,-1.379462242E0
3.083364974E1,-1.063490009E1,-6.637091637E0,-1.319641709E0
3.085399869E1,-1.085264683E1,-7.144370079E0,-9.457631707E-1
3.087426916E1,-1.110150051E1,-7.843672752E0,-8.763712645E-1
3.089453974E1,-1.101535892E1,-8.600402832E0,5.623133183E-1
3.091493974E1,-1.108953667E1,-8.236095428E0,6.128616810E0
3.093508083E1,-7.938787460E0,-8.748757362E0,4.107878208E0
3.095535135E1,-5.997610092E0,-1.018983555E1,4.019941986E-1
3.097562192E1,-6.000002861E0,-1.043689442E1,-5.916253924E-1
3.099589250E1,-5.547161102E0,-1.106381416E1,-3.954139352E-1
3.101616031E1,-5.128417015E0,-1.174158096E1,5.240281820E-1
3.103643265E1,-3.033500910E0,-1.155494022E1,8.949156404E-1
3.105664573E1,-2.573480844E0,-8.547760963E0,8.614161611E-2
3.107632968E1,-3.284747362E0,-6.224927902E0,1.004985496E-1
3.109672968E1,-3.653241873E0,-5.154737949E0,-3.547359705E-1
3.111712968E1,-5.248058319E0,-3.725624800E0,-1.972882271E0
3.113752968E1,-7.137191772E0,-2.966501951E0,-3.440878868E0
3.115792968E1,-8.039285660E0,-3.011965513E0,-2.025524378E0
3.117827302E1,-6.464210510E0,-3.168097258E0,-1.776670814E-1
3.119869323E1,-4.548755646E0,-2.925823927E0,-4.767699242E-1
3.121884067E1,-3.919443607E0,-3.428914785E0,-4.289134443E-1
3.123911687E1,-4.225724697E0,-5.087738991E0,-4.366901144E-2
3.125939203E1,-5.118845940E0,-7.369893551E0,1.393221021E0
3.127966619E1,-7.192226887E0,-1.073360443E1,8.963513374E0
3.129993958E1,-1.708714676E1,-1.106142044E1,1.346441269E1
3.132021250E1,-1.279202938E1,-7.101299286E0,3.655634880E0
3.134048489E1,-6.200999737E0,-6.287739754E0,3.988237143E0
3.136075692E1,-7.393223763E0,-8.885149002E0,2.202593327E0
3.138102869E1,-9.701101303E0,-1.103749275E1,6.460621357E-1
3.140130021E1,-9.756135941E0,-1.268734360E1,-1.633101404E-1
3.142157156E1,-6.782455921E0,-1.120738316E1,-5.222335458E-1
3.144184271E1,-4.893322468E0,-8.856434822E0,-8.117650747E-1
3.146211375E1,-3.878167391E0,-7.432106972E0,-2.196012974E0
3.148238474E1,-3.483351469E0,-6.093322754E0,-2.942573547E0
3.150265531E1,-3.050250769E0,-5.087738991E0,-2.703291416E0
3.152292760E1,-3.200998545E0,-5.025525570E0,-2.358724833E0
3.154319812E1,-4.359723091E0,-6.371488571E0,-1.161715388E0
3.156346869E1,-6.212964058E0,-7.551748276E0,-8.955138922E-1
3.158373927E1,-7.539186001E0,-8.475975990E0,-1.082752228E0
3.160400979E1,-7.441080093E0,-8.741579056E0,-1.310070395E0
3.162428036E1,-6.660421848E0,-8.128418922E0,-1.295713425E0
3.164455093E1,-6.184250355E0,-7.139584541E0,-1.144965649E0
3.166482151E1,-6.820741177E0,-5.964110374E0,-6.418746710E-1
3.168509208E1,-7.900502205E0,-5.851647854E0,-6.041877344E-2
3.170536265E1,-7.960322857E0,-5.609972477E0,6.269195080E-1
3.172563323E1,-7.362117290E0,-5.023132801E0,1.331007600E0
3.174590380E1,-7.046264648E0,-4.960919380E0,1.302293777E0
3.176617437E1,-7.063014030E0,-5.712863922E0,1.723430514E0
3.178644494E1,-6.732206345E0,-6.617949009E0,1.687538147E0
3.180671557E1,-7.677969456E0,-6.871588230E0,3.278166950E-1
3.182698609E1,-8.724231720E0,-5.866004944E0,-4.648058116E-1
3.184725666E1,-9.256035805E0,-5.554937840E0,-7.734799385E-1
3.186752724E1,-8.958727837E0,-5.461617470E0,-7.184450030E-1
3.188779781E1,-8.429914474E0,-5.147559643E0,-1.322034478E0
3.190806838E1,-9.784850121E0,-6.172286034E0,-1.683350682E0
3.192833896E1,-1.112064362E1,-7.396214962E0,-1.092323542E0
3.194860953E1,-1.086461163E1,-7.836493969E0,-4.671986103E-1
3.196888010E1,-1.018026352E1,-8.149953842E0,2.512463629E-1
3.198915067E1,-1.074736309E1,-8.538188934E0,5.693123341E0
3.200954000E1,-9.244071960E0,-8.605188370E0,5.657230854E0
3.202969177E1,-6.555137634E0,-9.393025398E0,1.615753531E0
3.204996234E1,-7.024729252E0,-9.479166985E0,-8.913264424E-2
3.207036234E1,-7.381259441E0,-9.675378799E0,-3.714857101E-1
3.209066146E1,-6.531209469E0,-1.031665516E1,-1.142572761E0
3.211077463E1,-4.929214478E0,-1.068335533E1,-1.944168448E0
3.213104510E1,-2.992822886E0,-1.030469036E1,-1.592423439E0
3.215131557E1,-2.988037348E0,-8.430512428E0,-1.968096644E-1
3.217158609E1,-4.369294167E0,-6.479165554E0,7.345965505E-1
3.219185656E1,-4.970490932E0,-5.320441246E0,4.546363056E-1
3.221225656E1,-5.403591633E0,-4.214358807E0,-3.888336942E-2
3.223239765E1,-5.547161102E0,-3.302095175E0,-3.858426511E-1
3.225266817E1,-5.858228207E0,-2.995215654E0,-5.437689424E-1
3.227293869E1,-5.410770416E0,-3.302095175E0,-8.141579032E-1
3.229333869E1,-4.608576298E0,-3.828516245E0,-4.983053207E-1
3.231363776E1,-4.235296249E0,-4.891527653E0,1.674975827E-2
3.233371172E1,-4.534399033E0,-6.574878216E0,3.230310678E-1
3.235402140E1,-4.792823792E0,-8.779864311E0,1.752144337E0
3.237429177E1,-5.815157413E0,-1.136052418E1,8.456234932E0
3.239456229E1,-1.448495197E1,-1.084606647E1,1.119003487E1
3.241496229E1,-1.326401424E1,-6.692126751E0,4.050450325E0
3.243510333E1,-7.776075363E0,-4.889134884E0,3.545564890E0
3.245537385E1,-7.462615490E0,-6.028716564E0,6.317051649E-1
3.247564437E1,-8.248059273E0,-7.805387497E0,-1.348355532E0
3.249591489E1,-1.058943653E1,-1.147119141E1,-2.217548370E0
3.251618187E1,-1.084068298E1,-1.293859005E1,-1.925025821E0
3.253645474E1,-8.877371788E0,-1.043928719E1,-9.481559992E-1
3.255672557E1,-6.509674072E0,-7.922635555E0,-1.482353687E0
3.257699630E1,-4.517649174E0,-5.767899036E0,-1.724028707E0
3.259726703E1,-2.887538671E0,-4.156332970E0,-2.059023857E0
3.261753765E1,-1.689931035E0,-3.890729666E0,-1.867598057E0
3.263780828E1,-2.372483730E0,-5.251049519E0,-1.221535921E0
3.265807896E1,-4.417150497E0,-7.096513748E0,-8.333004713E-1
3.267834958E1,-6.571887493E0,-8.674580574E0,-1.097109199E0
3.269862015E1,-7.101299286E0,-9.711270332E0,-1.774278045E0
3.271889078E1,-6.184250355E0,-9.570094109E0,-2.224726915E0
3.273916140E1,-5.882156372E0,-7.932207108E0,-1.791027784E0
3.275943192E1,-7.103692055E0,-6.299703598E0,-4.935196638E-1
3.277970255E1,-7.685148239E0,-5.968895912E0,4.331009090E-1
3.279997312E1,-6.882954121E0,-5.880361557E0,5.240281820E-1
3.282024364E1,-5.937191010E0,-5.406582832E0,1.746760458E-1
3.284051422E1,-5.925227165E0,-5.397011280E0,-1.345962733E-1
3.286078479E1,-6.576673031E0,-5.834897995E0,-4.432703853E-1
3.288105536E1,-8.140382767E0,-5.533402443E0,-1.178465188E-1
3.290132593E1,-9.433105469E0,-5.454439163E0,1.914258115E-2
3.292159646E1,-1.017069244E1,-4.783850670E0,-4.845465720E-2
3.294186703E1,-1.008395290E1,-4.676173687E0,-1.872383654E-1
3.296213755E1,-9.066405296E0,-4.496711731E0,-5.653043389E-1
3.298240812E1,-8.659625053E0,-5.279763222E0,-1.458425403E0
3.300283698E1,-1.005523872E1,-7.688138962E0,-1.903490424E0
3.302294922E1,-1.028076267E1,-9.050253868E0,-1.716850281E0
3.304321979E1,-1.021376324E1,-9.909874916E0,-9.409775138E-1
3.306349031E1,-1.034776115E1,-9.706484795E0,1.618146300E0
3.308389031E1,-1.072821999E1,-8.791828156E0,8.315058708E0
3.310418974E1,-7.890930653E0,-8.545368195E0,4.677968502E0
3.312430297E1,-5.822335720E0,-9.464810371E0,1.096511006E0
3.314457333E1,-5.384449005E0,-9.095717430E0,-6.275177598E-1
3.316484369E1,-5.523232937E0,-9.507881165E0,-1.106680512E0
3.318511411E1,-4.421936035E0,-1.061157036E1,-1.046261668E0
3.320538458E1,-2.736192703E0,-1.149990559E1,2.249253243E-1
3.322565500E1,-2.030309916E0,-1.077906799E1,1.058225870E0
3.324592546E1,-3.059821844E0,-7.724031448E0,7.226324677E-1
3.326619588E1,-3.808775425E0,-5.887540340E0,1.866401732E-1
3.328646640E1,-5.075775146E0,-4.645066738E0,-6.083751321E-1
3.330673692E1,-6.380461693E0,-3.527020693E0,-1.714457393E0
3.332700750E1,-7.012166977E0,-2.952144861E0,-2.155334949E0
3.334727802E1,-6.619743824E0,-2.877967358E0,-9.218349457E-1
3.336754854E1,-5.348556995E0,-3.304488182E0,-1.369891018E-1
3.338781906E1,-5.080560684E0,-3.471985579E0,-1.734796353E-2
3.340808963E1,-5.609374523E0,-4.551746845E0,3.230310678E-1
3.342836015E1,-6.593422890E0,-6.670591354E0,1.543968797E0
3.344863062E1,-8.506484032E0,-9.306285858E0,7.024130821E0
3.346890114E1,-1.477209091E1,-9.763913155E0,9.847063065E0
3.348917172E1,-1.192762280E1,-6.708876610E0,4.685146809E0
3.350944224E1,-6.256034851E0,-5.243870735E0,5.216951370E0
3.352971276E1,-7.823931694E0,-5.248656273E0,5.731408596E0
3.354998333E1,-1.126241779E1,-1.096810055E1,3.035295486E0
3.357025385E1,-1.007677460E1,-1.422413445E1,-8.309076428E-1
3.359052437E1,-9.220144272E0,-1.340758324E1,-1.939382792E0
3.361079489E1,-6.562315941E0,-1.079821014E1,-1.542174220E0
3.363106536E1,-4.264009953E0,-8.480761528E0,-2.085345030E0
3.365133599E1,-2.568695068E0,-6.155536175E0,-2.239083767E0
3.367160651E1,-1.462612867E0,-4.487140656E0,-2.466402054E0
3.369187703E1,-7.902296782E-1,-4.226323128E0,-2.059023857E0
3.371226630E1,-2.051845312E0,-5.753541946E0,-1.293320656E0
3.373241807E1,-4.414757729E0,-8.059026718E0,-9.625129104E-1
3.375268864E1,-6.870990276E0,-1.011326504E1,-1.247856975E0
3.377295916E1,-7.223333359E0,-1.065464115E1,-1.745564103E0
3.379322968E1,-6.272784710E0,-9.797411919E0,-1.879562140E0
3.381362968E1,-6.215356827E0,-8.281558990E0,-1.783849239E0
3.383377072E1,-7.151548862E0,-6.883552551E0,-1.092323542E0
3.385404125E1,-7.558328629E0,-5.789434433E0,-6.442674994E-1
3.387431182E1,-7.534400463E0,-4.929812908E0,-4.241278172E-1
3.389458234E1,-7.481758118E0,-4.228715897E0,-3.954139352E-1
3.391498234E1,-7.721040249E0,-3.998406649E0,-3.619144261E-1
3.393512338E1,-8.303094864E0,-4.216751575E0,-3.667000830E-1
3.395539390E1,-9.612566948E0,-4.214358807E0,-4.600201547E-1
3.397566442E1,-1.063011456E1,-4.393820763E0,-3.738785386E-1
3.399593494E1,-1.038604641E1,-4.597210407E0,-2.829512656E-1
3.401633494E1,-9.631709099E0,-4.518247128E0,1.627119333E-1
3.403647599E1,-8.671588898E0,-4.702494621E0,3.852444589E-1
3.405674651E1,-8.041678429E0,-5.586044312E0,-8.913264424E-2
3.407701703E1,-8.130811691E0,-6.797410965E0,-7.351947427E-1
3.409728755E1,-9.270393372E0,-7.841279984E0,-9.194421172E-1
3.411768755E1,-1.062532902E1,-8.423334122E0,-1.029511929E0
3.413782859E1,-1.081675434E1,-8.839685440E0,-8.428717852E-1
3.415809911E1,-1.000020409E1,-9.210572243E0,-2.374876440E-1
3.417836963E1,-9.124430656E0,-9.558130264E0,3.736990690E0
3.419864015E1,-8.429914474E0,-9.000003815E0,7.268796921E0
3.421891067E1,-6.327819347E0,-9.169894218E0,2.717050076E0
3.423918119E1,-5.669195175E0,-9.102895737E0,3.206382394E-1
3.425945172E1,-5.855835438E0,-8.743971825E0,-4.648058116E-1
3.427972224E1,-5.283950806E0,-8.925827026E0,-1.092323542E0
3.429999276E1,-3.110071182E0,-1.028076267E1,-3.906283081E-1
3.432026328E1,-1.948953986E0,-1.117388344E1,1.524826288E0
3.434053380E1,-2.935395241E0,-9.275178909E0,1.474576950E0
3.436080432E1,-4.240081787E0,-7.204190731E0,1.182652593E0
3.438107479E1,-5.185844898E0,-5.471189022E0,-2.470589429E-1
3.440134531E1,-6.543173313E0,-3.720839262E0,-1.484746456E0
3.442161583E1,-6.952346325E0,-2.930609465E0,-1.549352646E0
3.444188635E1,-6.550352097E0,-3.120240688E0,-8.691928387E-1
3.446215687E1,-6.344569206E0,-3.110071182E0,-1.465603858E-1
3.448242734E1,-6.256034851E0,-2.839682341E0,1.986042857E-1
3.450269786E1,-5.860620975E0,-3.627519131E0,8.614161611E-1
3.452296838E1,-5.906084538E0,-5.399404526E0,1.613360643E0
3.454323890E1,-6.404389858E0,-7.247261524E0,4.187439442E0
3.456343072E1,-1.028554821E1,-9.409774780E0,1.026580715E1
3.458377974E1,-1.437727451E1,-7.932207108E0,4.431507587E0
3.460405031E1,-1.006480980E1,-5.916254044E0,3.122035265E0
3.462432083E1,-1.014915752E1,-8.540582657E0,3.232105255E0
3.464459140E1,-1.212383366E1,-1.176311588E1,3.306282759E0
3.466486187E1,-1.037408257E1,-1.281177044E1,1.409970760E0
3.468513239E1,-6.464210510E0,-1.060439205E1,-6.634100676E-1
3.470540291E1,-3.996013880E0,-8.363512993E0,7.178467698E-3
3.472567338E1,-3.382853031E0,-7.570890903E0,-1.223928809E0
3.474594390E1,-2.650051117E0,-6.632306099E0,-2.437688112E0
3.476621437E1,-2.633301258E0,-5.851647854E0,-2.377867460E0
3.478648494E1,-2.880360365E0,-5.638686657E0,-1.934597135E0
3.480675546E1,-4.132404804E0,-6.572485447E0,-1.245464206E0
3.482702593E1,-5.961119175E0,-7.915457249E0,-7.543373108E-1
3.484729646E1,-7.034300327E0,-8.973683357E0,-1.048654556E0
3.486756698E1,-6.701099873E0,-8.892327309E0,-1.721635938E0
3.488783744E1,-5.714658737E0,-8.276773453E0,-2.061416626E0
3.490810796E1,-5.702694416E0,-7.925028801E0,-1.676172256E0
3.492837843E1,-6.279963017E0,-7.580461979E0,-1.293320656E0
3.494864896E1,-7.402794838E0,-6.680162430E0,-8.691928387E-1
3.496891948E1,-8.343772888E0,-6.512664795E0,-2.614158690E-1
3.498918994E1,-8.044071198E0,-6.136393547E0,1.435693540E-2
3.500946047E1,-7.364510059E0,-5.432903767E0,1.052841991E-1
3.502973093E1,-7.194619656E0,-4.613960266E0,1.890329868E-1
3.505000146E1,-7.905287743E0,-4.055834293E0,8.255237937E-1
3.507027192E1,-8.886942863E0,-4.740779877E0,2.036890268E0
3.509054244E1,-8.834300995E0,-5.686542988E0,1.742573142E0
3.511081291E1,-9.073583603E0,-5.712863922E0,1.216152072E0
3.513108343E1,-8.989834785E0,-5.236692429E0,5.670989752E-1
3.515135390E1,-8.707481384E0,-5.128417015E0,1.914258115E-2
3.517162442E1,-8.709874153E0,-5.980860233E0,-4.408775866E-1
3.519189489E1,-8.394021988E0,-7.036693096E0,-1.226321578E0
3.521229489E1,-8.975478172E0,-7.798209190E0,-1.800599098E0
3.523243588E1,-9.483354568E0,-7.657032490E0,-1.690529227E0
3.525270640E1,-1.040518951E1,-8.248059273E0,-1.408176184E0
3.527297687E1,-1.025683403E1,-8.550153732E0,-1.043868899E0
3.529324739E1,-1.078086281E1,-7.872386456E0,6.468996048E0
3.531364739E1,-9.090332985E0,-8.332406998E0,6.256034851E0
3.533378833E1,-6.129215240E0,-8.839685440E0,8.733802438E-1
3.535405885E1,-6.291927338E0,-8.574081421E0,-4.959124923E-1
3.537432932E1,-6.859025955E0,-9.203393936E0,-1.133001566E0
3.539459979E1,-6.342176437E0,-1.001515961E1,-2.075773716E0
3.541499979E1,-4.733003139E0,-1.041057301E1,-2.815753937E0
3.543514083E1,-3.815953970E0,-1.010608673E1,-1.795813441E0
3.545541130E1,-4.529613495E0,-8.128418922E0,-1.322034448E-1
3.547568182E1,-6.468996048E0,-6.224927902E0,1.565504193E0
3.549595229E1,-6.792026997E0,-4.786243439E0,-1.633101404E-1
3.551635229E1,-6.849454880E0,-3.366701365E0,-9.361918569E-1
3.553649328E1,-6.277570248E0,-2.626721144E0,-1.264606714E0
3.555676375E1,-5.525625706E0,-2.818146944E0,-1.144965649E0
3.557703422E1,-4.888536453E0,-3.723232031E0,-7.830511928E-1
3.559730474E1,-4.771288395E0,-4.570889473E0,-5.222335458E-1
3.561757520E1,-4.802394867E0,-6.071787357E0,3.589234129E-2
3.563784567E1,-4.455435753E0,-7.893921852E0,1.132403374E0
3.565811614E1,-4.649254322E0,-9.390632629E0,4.443471432E0
3.567838666E1,-1.020419216E1,-1.058524895E1,1.232722378E1
3.569865713E1,-1.211665535E1,-8.449654579E0,5.219344616E0
3.571892760E1,-9.162715912E0,-6.462415695E0,1.443470240E0
3.573919812E1,-7.180262566E0,-6.256632805E0,-5.485545993E-1
3.575946859E1,-6.449853420E0,-7.223333359E0,-1.805384636E0
3.577973906E1,-9.476176262E0,-9.883553505E0,-1.886740685E0
3.579997015E1,-1.124088287E1,-1.269691563E1,-8.069794178E-1
3.582027989E1,-1.039083195E1,-1.219143105E1,5.216353536E-1
3.584055046E1,-8.989834785E0,-8.473583221E0,-3.170489892E-2
3.586082093E1,-7.500900745E0,-6.699305058E0,-1.017547846E0
3.588109140E1,-4.809573650E0,-4.757529736E0,-2.013560295E0
3.590136187E1,-2.676372051E0,-3.184846878E0,-2.119442701E0
3.592163234E1,-2.528017044E0,-3.078964472E0,-1.451246977E0
3.594190286E1,-3.083750248E0,-3.761517286E0,-1.029511929E0
3.596217338E1,-4.706682205E0,-5.397011280E0,-8.356932998E-1
3.598244385E1,-6.808776855E0,-7.146762848E0,-9.625129104E-1
3.600271432E1,-8.724231720E0,-8.885149002E0,-1.216750264E0
3.602298479E1,-9.399605751E0,-9.605986595E0,-1.499103427E0
3.604325526E1,-7.967501163E0,-9.263215065E0,-1.984846354E0
3.606352573E1,-6.741777897E0,-7.525427341E0,-1.171286702E0
3.608379625E1,-6.385247231E0,-6.763911247E0,-2.374876440E-1
3.610406672E1,-5.853442192E0,-6.505486488E0,2.584248483E-1
3.612433718E1,-5.451447964E0,-6.026323795E0,9.092726111E-1
3.614460765E1,-5.348556995E0,-5.791827202E0,1.345364571E0
3.616487812E1,-6.679564476E0,-6.321238995E0,1.666002750E0
3.618514859E1,-7.656434059E0,-6.869195461E0,1.448255897E0
3.620541906E1,-8.329415321E0,-7.072585583E0,6.101697683E-1
3.622568953E1,-9.023334503E0,-6.637091637E0,1.220339537E-1
3.624596005E1,-9.064012527E0,-6.409773827E0,-9.571290575E-3
3.626623052E1,-8.673981667E0,-6.572485447E0,-1.058823988E-1
3.628650099E1,-8.090133667E0,-7.156334400E0,-3.308077157E-1
3.630677146E1,-7.838288784E0,-7.889136314E0,-6.777670383E-1
3.632704192E1,-9.061619759E0,-8.298309326E0,-2.781656384E-1
3.634731239E1,-1.044108200E1,-7.992027760E0,2.344966233E-1
3.636758286E1,-1.152323532E1,-7.499105930E0,2.903690338E0
3.638785333E1,-1.079761219E1,-5.858826160E0,5.334199905E0
3.640812375E1,-7.383652687E0,-5.648257732E0,2.683550596E0
3.642839432E1,-5.819942951E0,-5.971288681E0,3.302095234E-1
3.644866474E1,-5.425127029E0,-6.292525291E0,-8.668000102E-1
3.646893526E1,-5.568696499E0,-7.015157700E0,-1.144965649E0
3.648920573E1,-6.375676155E0,-8.207381248E0,-1.520638824E0
3.650947619E1,-7.716254711E0,-9.062217712E0,-3.093321562E0
3.652974666E1,-8.807980537E0,-9.251250267E0,-3.723232031E0
3.655001713E1,-9.270393372E0,-8.674580574E0,-3.594019651E0
3.657028760E1,-8.918049812E0,-7.393822193E0,-2.732005358E0
3.659055807E1,-8.384450912E0,-5.755934715E0,-1.063609719E0
3.661082854E1,-7.555935860E0,-3.747160196E0,2.807977438E0
3.663109901E1,-5.930012703E0,-3.644268990E0,5.264210105E-1
3.665136948E1,-5.245665550E0,-4.379463673E0,-5.006981492E-1
3.667163994E1,-5.085346222E0,-5.787041664E0,-1.238285661E0
3.669191046E1,-4.867001057E0,-7.139584541E0,-1.549352646E0
3.671231046E1,-4.256831646E0,-8.564510345E0,-1.161715388E0
3.673245140E1,-3.936193228E0,-9.809376717E0,4.426721931E-1
3.675272187E1,-4.737788677E0,-1.085085201E1,6.195616245E0
3.677299234E1,-8.022536278E0,-1.036690426E1,9.995418549E0
3.679326281E1,-8.171489716E0,-8.940183640E0,7.433901787E0
3.681366281E1,-6.820741177E0,-6.395416737E0,2.427518606E0
3.683380375E1,-4.699503899E0,-3.919443607E0,-1.869990945E0
3.685407422E1,-4.113262177E0,-4.274179459E0,-2.822932482E0
3.687434468E1,-5.961119175E0,-6.119643688E0,-2.008774519E0
3.689461515E1,-9.320642471E0,-9.174679756E0,-1.867598057E0
3.691501515E1,-1.108714390E1,-1.230628681E1,-1.111466169E0
3.693515609E1,-1.166201973E1,-1.335733414E1,-8.141579032E-1
3.695542656E1,-9.591031075E0,-1.118584728E1,5.168496966E-1
3.697569703E1,-7.137191772E0,-8.142775536E0,9.930213690E-1
3.699596750E1,-5.429912567E0,-5.863611698E0,-6.562315822E-1
3.701636750E1,-4.328616142E0,-4.609174728E0,-1.142572761E0
3.703650849E1,-3.557528973E0,-3.653840065E0,-1.214357495E0
3.705677896E1,-3.430709362E0,-3.527020693E0,-8.859425783E-1
3.707704942E1,-4.218546391E0,-4.702494621E0,-4.887340367E-1
3.709731989E1,-5.729015827E0,-6.534200668E0,-4.408775866E-1
3.711771989E1,-7.627720356E0,-8.748757362E0,-5.700899959E-1
3.713786083E1,-9.025727272E0,-1.066899776E1,-6.323033571E-1
3.715813130E1,-8.039285660E0,-1.121456146E1,-7.716853172E-2
3.717840177E1,-5.839085579E0,-9.299106598E0,4.881358147E-1
3.719867224E1,-5.047060966E0,-7.353144169E0,9.954141974E-1
3.721894270E1,-5.334199905E0,-6.145965099E0,6.508477330E-1
3.723921317E1,-6.028716564E0,-5.772684574E0,7.178467698E-3
3.725948364E1,-6.514459610E0,-5.583651543E0,-2.446661144E-1
3.727975411E1,-6.894918442E0,-5.686542988E0,-2.231307179E-1
3.730002458E1,-7.443472862E0,-5.899504185E0,-2.350948304E-1
3.732029505E1,-8.233702660E0,-6.550950050E0,-3.308077157E-1
3.734056552E1,-8.791230202E0,-7.204190731E0,-2.422732860E-1
3.736083599E1,-8.559126854E0,-7.350750923E0,-1.298106313E-1
3.738110640E1,-7.972286701E0,-7.134799004E0,-7.716853172E-2
3.740137687E1,-7.113263607E0,-6.991229534E0,-1.537388563E-1
3.742164734E1,-6.433103561E0,-6.960123062E0,-2.853440940E-1
3.744191781E1,-6.935596466E0,-7.769495010E0,-2.733799815E-1
3.746218828E1,-7.965108395E0,-8.161917686E0,1.579262912E-1
3.748245875E1,-9.037691116E0,-7.652246952E0,5.742774606E-1
3.750272922E1,-1.010309505E1,-7.496713161E0,1.558325768E0
3.752299968E1,-1.134616661E1,-6.574878216E0,4.716253281E0
3.754327015E1,-1.087178993E1,-5.997610092E0,6.636493683E0
3.756354062E1,-8.056035995E0,-6.881159782E0,3.847060680E0
3.758381109E1,-6.705885410E0,-7.353144169E0,6.364908218E-1
3.760408156E1,-6.105287075E0,-7.776673794E0,-1.276570916E0
3.762435203E1,-5.738586903E0,-7.982456207E0,-2.070987940E0
3.764462244E1,-4.103690624E0,-8.082955360E0,-8.416155815E0
3.766489291E1,-6.696314335E0,-8.942576408E0,-2.696112871E0
3.768516338E1,-8.245666504E0,-9.169894218E0,-1.200000525E0
3.770543385E1,-8.760123253E0,-8.758329391E0,-1.034895778E-1
3.772570432E1,-1.002413273E1,-6.840481758E0,2.775674164E-1
3.774597479E1,-1.024008465E1,-4.374678135E0,3.541377485E-1
3.776624526E1,-7.596613884E0,-2.961716175E0,-5.174478889E-1
3.778651572E1,-5.468197823E0,-3.220739365E0,-9.481559992E-1
3.780678614E1,-4.847858906E0,-4.209573269E0,-1.331605792E0
3.782705661E1,-4.723432064E0,-5.454439163E0,-1.446461320E0
3.784732708E1,-4.567898273E0,-6.443273067E0,-1.312463164E0
3.786759755E1,-4.453042984E0,-7.362715244E0,-9.314061999E-1
3.788786802E1,-4.197010994E0,-8.394619942E0,1.339980662E-1
3.790813843E1,-3.988835335E0,-1.048235798E1,3.827918053E0
3.792840890E1,-6.863811970E0,-1.092981529E1,8.571090698E0
3.794867937E1,-9.208179474E0,-9.500701904E0,8.024929047E0
3.796894984E1,-7.907680511E0,-8.068597794E0,5.166104317E0
3.798922031E1,-5.547161102E0,-6.706483841E0,3.143570662E0
3.800949078E1,-3.952943087E0,-7.113263607E0,2.312663078E0
3.802976119E1,-4.594219685E0,-8.245666504E0,4.067798555E-1
3.805003166E1,-5.551946640E0,-7.755138397E0,-1.226321608E-1
3.807030213E1,-6.677171707E0,-9.203393936E0,3.158525825E-1
3.809057260E1,-7.333403111E0,-9.830911636E0,9.092725813E-2
3.811084307E1,-6.969096184E0,-9.550951958E0,7.896314561E-2
3.813111349E1,-7.548757076E0,-8.698508263E0,-8.739784956E-1
3.815138396E1,-8.537590981E0,-7.434499741E0,-2.633899450E0
3.817165442E1,-8.305487633E0,-6.737590313E0,-2.511865616E0
3.819192484E1,-7.096513748E0,-5.559723377E0,-1.343569875E0
3.821232484E1,-5.949155331E0,-4.573282242E0,-6.083751321E-1
3.823246578E1,-5.559125423E0,-4.235894203E0,-3.762713671E-1
3.825273625E1,-6.275177479E0,-4.999204636E0,-1.226321608E-1
3.827300666E1,-7.460222721E0,-6.620342255E0,3.828516230E-2
3.829327713E1,-7.953144073E0,-7.948956966E0,3.086741269E-1
3.831367713E1,-7.594220638E0,-8.612366676E0,3.732803464E-1
3.833381802E1,-6.519245148E0,-8.370692253E0,2.105683982E-1
3.835408849E1,-5.755336761E0,-7.098906517E0,2.632104978E-2
3.837435896E1,-5.401198864E0,-6.088537216E0,-1.322034448E-1
3.839462937E1,-5.271986485E0,-5.710471153E0,-2.614158690E-1
3.841502937E1,-5.370092392E0,-5.782256126E0,-3.427718580E-1
3.843517031E1,-5.791228771E0,-6.330810547E0,-4.313062727E-1
3.845544078E1,-6.358926296E0,-7.197012424E0,-4.791627228E-1
3.847571119E1,-6.818347931E0,-8.082955360E0,-6.705885530E-1
3.849598166E1,-7.168298244E0,-8.748757362E0,-9.146564603E-1
3.851638166E1,-6.947560310E0,-8.665008545E0,-7.782655358E-1
3.853652255E1,-6.715456963E0,-8.221738815E0,-3.284149170E-1
3.855679302E1,-7.118049145E0,-7.757531166E0,4.785645287E-3
3.857706343E1,-7.737790108E0,-7.051050186E0,-1.010967568E-1
3.859733390E1,-9.270393372E0,-7.657032490E0,-4.025924206E-1
3.861760437E1,-1.181515980E1,-8.547760963E0,8.279166222E-1
3.863787479E1,-1.402732468E1,-9.323035240E0,3.351746321E0
3.865814526E1,-1.172183990E1,-8.030312538E0,5.915655613E0
3.867841567E1,-8.039285660E0,-6.725626469E0,4.445864677E0
3.869868614E1,-5.934798241E0,-6.802196503E0,1.575075507E0
3.871895661E1,-6.055037498E0,-8.216953278E0,2.751746178E-1
3.873922703E1,-5.449055195E0,-9.474381447E0,-9.768698215E-1
3.875949750E1,-4.553541660E0,-1.005105114E1,-1.281356573E0
3.877976791E1,-4.362115860E0,-1.087238789E1,-1.465603858E-1
3.880003838E1,-4.402793884E0,-1.062114143E1,6.771687865E-1
3.882030880E1,-4.165904045E0,-8.720044136E0,9.571290575E-3
3.884057927E1,-4.486542225E0,-7.712067604E0,-2.877369225E-1
3.886084968E1,-5.678766251E0,-6.897909641E0,-8.548358679E-1
3.888112015E1,-7.247261524E0,-5.188237667E0,-2.066202402E0
3.890139062E1,-7.615756035E0,-4.300500393E0,-2.485544443E0
3.892166104E1,-6.993024349E0,-3.893122435E0,-1.281356573E0
3.894193151E1,-5.671587944E0,-3.268595695E0,-7.178467698E-3
3.896220192E1,-4.857429981E0,-3.270988464E0,-1.202393398E-1
3.898247239E1,-4.687539577E0,-4.127619267E0,-1.495514158E-2
3.900274281E1,-4.898108006E0,-5.550152302E0,4.043870270E-1
3.902301328E1,-5.152345181E0,-7.235297680E0,1.417149186E0
3.904328369E1,-5.702694416E0,-9.035896301E0,5.788836002E0
3.906368369E1,-1.181037426E1,-1.028794098E1,1.612702560E1
3.908382458E1,-1.204247856E1,-7.341179848E0,6.753741741E0
3.910409500E1,-7.582256794E0,-5.667400360E0,2.341377020E0
3.912436547E1,-4.852644444E0,-4.750350952E0,1.409970760E0
3.914463588E1,-5.501697540E0,-6.797410965E0,3.732803464E-1
3.916490635E1,-7.074978352E0,-9.181859016E0,-2.111666054E-1
3.918517677E1,-8.602197647E0,-1.166501045E1,-4.785645287E-3
3.920544724E1,-8.420342445E0,-1.399442291E1,1.082154036E0
3.922571765E1,-6.497709751E0,-1.223928738E1,6.891329288E-1
3.924598807E1,-6.375676155E0,-9.400203705E0,-3.044866920E-1
3.926625854E1,-6.059823513E0,-7.348358154E0,-6.203392744E-1
3.928652896E1,-5.133202553E0,-5.665007591E0,-1.250249863E0
3.930679942E1,-4.156332970E0,-4.688137531E0,-1.460818172E0
3.932706984E1,-3.830310822E0,-4.137190342E0,-9.314061999E-1
3.934734026E1,-4.295116425E0,-4.836492538E0,-7.040880919E-1
3.936761073E1,-5.925227165E0,-6.035895348E0,-6.777670383E-1
3.938788114E1,-7.800003529E0,-7.336394310E0,-6.849454641E-1
3.940815156E1,-8.848658562E0,-8.351549149E0,-7.950153351E-1
3.942842203E1,-8.463413239E0,-8.260024071E0,-8.835497499E-1
3.944869244E1,-7.053442955E0,-7.377072334E0,-7.998009920E-1
3.946896286E1,-5.915655613E0,-6.136393547E0,-1.039083242E0
3.948923333E1,-6.332605362E0,-5.660222054E0,-5.629115105E-1
3.950950375E1,-7.137191772E0,-5.971288681E0,8.374879509E-2
3.952977416E1,-6.832705021E0,-6.306882381E0,6.293123364E-1
3.955004463E1,-6.344569206E0,-6.328417778E0,9.499505758E-1
3.957031505E1,-6.380461693E0,-6.292525291E0,1.711466432E0
3.959058547E1,-6.823133945E0,-7.256833076E0,2.705085993E0
3.961085593E1,-7.194619656E0,-7.592426300E0,1.491326690E0
3.963112635E1,-8.078168869E0,-6.924230576E0,6.699903607E-1
3.965139677E1,-9.368498802E0,-6.421737671E0,1.196411327E-1
3.967166718E1,-9.586245537E0,-6.050251961E0,-9.152546525E-2
3.969193765E1,-8.877371788E0,-6.098108292E0,-4.049852192E-1
3.971233765E1,-7.869395256E0,-6.522236347E0,-4.169493318E-1
3.973247849E1,-7.989036560E0,-7.503891945E0,-4.480560422E-1
3.975274896E1,-9.509675026E0,-7.788637638E0,-2.183450609E-1
3.977301937E1,-1.109432220E1,-8.303094864E0,7.872386575E-1
3.979328979E1,-1.258624744E1,-8.401798248E0,4.888536453E0
3.981368979E1,-9.430712700E0,-7.324429989E0,5.238486767E0
3.983383062E1,-6.856633186E0,-8.032705307E0,2.860619545E0
3.985410109E1,-5.461019516E0,-8.492725372E0,2.392822644E-3
3.987437151E1,-5.528018475E0,-8.485547066E0,-7.998009920E-1
3.989464192E1,-5.614160061E0,-9.381061554E0,-8.596215248E-1
3.991504192E1,-5.506483078E0,-1.009412193E1,-1.606780410E0
3.993518276E1,-5.403591633E0,-1.009651470E1,-2.169692039E0
3.995545317E1,-4.977669239E0,-9.323035240E0,-2.198405743E0
3.997572364E1,-5.262415409E0,-7.470392227E0,-1.824527264E0
3.999599406E1,-6.145965099E0,-5.511867046E0,-1.302891970E0
4.001639406E1,-7.106084824E0,-4.214358807E0,-1.247856975E0
4.003653489E1,-7.543971539E0,-3.139383316E0,-3.020938635E-1
4.005680531E1,-6.658029079E0,-2.866003275E0,6.747759581E-1
4.007707572E1,-5.647659779E0,-3.067000389E0,7.106683254E-1
4.009734619E1,-5.410770416E0,-3.900300980E0,3.948157430E-1
4.011774619E1,-5.382056236E0,-5.306084156E0,3.373879790E-1
4.013788703E1,-5.350949764E0,-6.747161865E0,6.149554253E-1
4.015815744E1,-4.881358147E0,-8.418548584E0,1.866999865E0
4.017842786E1,-5.260022163E0,-1.115474129E1,8.199604988E0
4.019869828E1,-1.070429230E1,-1.105663490E1,1.143470097E1
4.021896869E1,-9.540781975E0,-7.735995770E0,4.625326157E0
4.023923911E1,-6.306283951E0,-6.792625427E0,2.024926186E0
4.025950953E1,-6.208178520E0,-7.201797962E0,-1.278963685E0
4.027977994E1,-7.331010342E0,-7.786244869E0,-1.357926846E0
4.030005036E1,-1.007677460E1,-1.053260708E1,-1.130608678E0
4.032032078E1,-9.677172661E0,-1.218664551E1,-1.274178028E-1
4.034059119E1,-8.008178711E0,-9.814162254E0,-1.680957973E-1
4.036086161E1,-7.615756035E0,-7.027122021E0,-1.133001566E0
4.038113203E1,-5.949155331E0,-6.157928944E0,-1.556531072E0
4.040140244E1,-4.242474556E0,-4.958526611E0,-1.441675663E0
4.042167286E1,-3.763311863E0,-4.305285931E0,-1.147358418E0
4.044194328E1,-3.605385542E0,-4.125226021E0,-1.058824062E0
4.046221369E1,-4.596612453E0,-5.310869694E0,-7.423732281E-1
4.048248411E1,-6.200999737E0,-6.732804775E0,-5.629115105E-1
4.050275453E1,-7.673183918E0,-8.164310455E0,-5.820540786E-1
4.052302494E1,-8.463413239E0,-9.217751503E0,-6.729813814E-1
4.054329536E1,-7.788039684E0,-9.217751503E0,-1.221535921E0
4.056356578E1,-6.404389858E0,-8.042277336E0,-1.048654556E0
4.058383619E1,-5.841478348E0,-6.783053875E0,-5.318048596E-1
4.060410661E1,-6.009573936E0,-6.198606968E0,9.332008660E-2
4.062437703E1,-5.922834396E0,-5.624329567E0,3.613162339E-1
4.064464739E1,-5.717051506E0,-5.251049519E0,3.493520916E-1
4.066491781E1,-6.107679844E0,-5.710471153E0,1.555334777E-1
4.068518823E1,-6.801598549E0,-6.857231617E0,1.818545163E-1
4.070545864E1,-7.132406235E0,-8.020741463E0,6.508477330E-1
4.072572906E1,-7.596613884E0,-7.814958572E0,7.609176040E-1
4.074599948E1,-8.477770805E0,-6.716054916E0,6.436693072E-1
4.076626979E1,-9.366106033E0,-6.165107727E0,2.368894368E-1
4.078654026E1,-9.117252350E0,-5.791827202E0,-2.805584669E-1
4.080681067E1,-8.463413239E0,-5.066203594E0,-8.213363886E-1
4.082708104E1,-8.874979019E0,-5.799005508E0,-1.046261668E0
4.084735151E1,-1.025683403E1,-7.185048103E0,-5.700899959E-1
4.086762187E1,-1.059422207E1,-7.578069210E0,-3.092723191E-1
4.088789229E1,-1.081196880E1,-8.109275818E0,6.221339107E-1
4.090816270E1,-1.057986546E1,-7.886743546E0,4.823930264E0
4.092843312E1,-8.415556908E0,-7.793423176E0,5.389235020E0
4.094870349E1,-6.634100914E0,-8.717651367E0,2.817548752E0
4.096897390E1,-5.566303730E0,-9.337391853E0,3.206382394E-1
4.098924432E1,-5.506483078E0,-9.450452805E0,-1.214357495E0
4.100951468E1,-5.714658737E0,-1.055892849E1,-1.281356573E0
4.102978510E1,-5.551946640E0,-1.127916813E1,-1.592423439E0
4.105005552E1,-4.469792843E0,-1.103509998E1,-1.089930773E0
4.107032588E1,-4.551148891E0,-8.818149567E0,-1.728814393E-1
4.109059630E1,-5.279164791E0,-7.173084259E0,3.014956415E-1
4.111086672E1,-6.330212116E0,-5.545366287E0,7.896314561E-2
