"Time (s)","Acceleration x (m/s^2)","Acceleration y (m/s^2)","Acceleration z (m/s^2)"
1.139543700E-2,-2.324627161E0,4.105485439E0,7.670791149E0
3.154033300E-2,-2.056631088E0,3.969094515E0,8.587840080E0
5.181304200E-2,-1.462612867E0,3.614956856E0,9.001798630E0
7.208517700E-2,-1.956132531E0,3.440280676E0,8.748159409E0
9.235668700E-2,-1.972882271E0,3.411566973E0,8.860622406E0
1.126277290E-1,-1.649253011E0,3.421138287E0,9.028120041E0
1.328985100E-1,-1.673181176E0,3.614956856E0,8.810373306E0
1.531689790E-1,-1.869990945E0,3.428316593E0,8.334200859E0
1.734392390E-1,-2.078166485E0,3.562314749E0,8.324629784E0
1.937093440E-1,-1.637288928E0,3.703491211E0,8.595019341E0
2.139792920E-1,-1.386042476E0,3.655634880E0,8.568697929E0
2.342490830E-1,-1.024726272E0,3.782454491E0,8.683553696E0
2.545187710E-1,-8.931210637E-1,3.732205153E0,9.219545364E0
2.747884580E-1,-7.393822074E-1,3.478565931E0,9.305686951E0
2.950580940E-1,-8.428717852E-1,3.356531858E0,8.225926399E0
3.153276250E-1,-5.383850932E-1,3.260818958E0,6.449853420E0
3.355971040E-1,-2.129612118E-1,3.524029493E0,5.417948723E0
3.558665830E-1,7.806583643E-1,2.903690338E0,5.796014786E0
3.761360620E-1,2.315055847E0,2.587837696E0,6.363711834E0
3.964054890E-1,4.951348305E0,2.183450699E0,9.071190834E0
4.166749170E-1,6.145965099E0,2.757728100E0,9.097511292E0
4.369442920E-1,5.257629395E0,2.827120066E0,8.932407379E0
4.572137190E-1,5.169095039E0,2.827120066E0,9.114261627E0
4.774830940E-1,4.800600529E0,2.999403238E0,8.329415321E0
4.977524690E-1,5.693721294E0,3.832703590E0,9.612566948E0
5.180218440E-1,6.052644730E0,3.574278831E0,1.045304585E1
5.382912190E-1,4.788636208E0,1.905285001E0,9.447462082E0
5.585605940E-1,4.295116425E0,-2.949153781E-1,7.529614449E0
5.788299170E-1,6.287141323E0,1.555334777E-1,6.887740135E0
5.990992920E-1,7.053442955E0,3.110669553E-1,8.046463966E0
6.193686140E-1,5.681757450E0,-2.542374134E-1,9.665208817E0
6.396379890E-1,4.685744762E0,-5.318048596E-1,1.001934624E1
6.600379890E-1,6.055037498E0,-2.853440940E-1,8.197212219E0
6.801766350E-1,1.006780148E1,-1.805384636E0,5.705087185E0
7.004459580E-1,9.449854851E0,-2.374876440E-1,4.534399033E0
7.207153330E-1,7.474579811E0,1.120439172E0,5.977869034E0
7.409846560E-1,6.842874527E0,1.426720500E0,7.253841877E0
7.612539790E-1,7.223333359E0,1.115653515E0,5.429912567E0
7.815233540E-1,9.358927727E0,-1.024726272E0,3.083152056E0
8.017927290E-1,9.974481583E0,-3.991228104E0,9.116654396E-1
8.220620520E-1,9.895518303E0,-2.755933523E0,-1.056431174E0
8.423313750E-1,8.925827026E0,-3.379862010E-1,-1.099501967E0
8.627313750E-1,8.648259163E0,-1.582852125E0,1.252044439E0
8.828700210E-1,8.252845764E0,-2.978466034E0,6.101697683E-1
9.031393960E-1,8.461020470E0,-4.134797573E0,-3.088535786E0
9.234087190E-1,8.614759445E0,-3.672982693E0,-3.670589924E0
9.436780420E-1,7.359724045E0,-2.554936409E0,-2.626721144E0
9.640780420E-1,6.200999737E0,-3.270988464E0,-4.043870449E0
9.842166870E-1,5.303092957E0,-3.797409534E0,-4.934598446E0
1.004486010E0,4.405186653E0,-5.901896954E0,-4.683351994E0
1.024755333E0,4.235296249E0,-6.957729816E0,-4.561318398E0
1.045024656E0,4.549354076E0,-7.432106972E0,-4.982454777E0
1.065424656E0,4.199403763E0,-6.964908600E0,-4.503890514E0
1.085563302E0,3.016751051E0,-7.657032490E0,-4.915455818E0
1.105832625E0,3.045464993E0,-8.461619377E0,-5.222335339E0
1.126101948E0,3.627519131E0,-8.935398102E0,-5.056632519E0
1.146371271E0,3.840480328E0,-9.806983948E0,-4.178466320E0
1.166771271E0,3.534198999E0,-1.022333431E1,-4.017549038E0
1.186909969E0,1.958525300E0,-1.073360443E1,-4.676173687E0
1.207179292E0,1.709671736E0,-1.019701385E1,-5.267798901E0
1.227448614E0,2.471187592E0,-1.042971611E1,-5.361119270E0
1.247717937E0,2.949752092E0,-1.022333431E1,-5.511867046E0
1.267987260E0,2.097309113E0,-1.029033375E1,-4.889134884E0
1.288256583E0,1.017547846E0,-1.086281681E1,-4.141975880E0
1.308525958E0,8.572286963E-1,-1.135573769E1,-3.665804386E0
1.328795281E0,7.639086246E-1,-1.100160027E1,-3.653840065E0
1.349064604E0,1.029511929E0,-1.016590691E1,-3.059821844E0
1.369333927E0,6.610172391E-1,-1.006062317E1,-2.207977057E0
1.389603250E0,8.189435601E-1,-1.034536839E1,-1.247856975E0
1.409872625E0,1.271187067E0,-1.069531918E1,-1.054038405E0
1.430141948E0,1.365105271E0,-1.040578747E1,-1.611566067E0
1.450411271E0,1.475175142E0,-9.854840279E0,-1.759921074E0
1.470819187E0,1.745564103E0,-9.806983948E0,-1.676172256E0
1.491098510E0,1.776670814E0,-9.881160736E0,-1.386640668E0
1.511212417E0,1.956132531E0,-1.000798035E1,-8.763712645E-1
1.531483146E0,2.214557409E0,-9.833304405E0,-1.355534077E0
1.551753562E0,1.743171334E0,-9.421739578E0,-2.315654039E0
1.572023771E0,8.333004713E-1,-9.390632629E0,-2.413759947E0
1.592293823E0,6.370890141E-1,-9.407382011E0,-2.023131609E0
1.612563771E0,1.077368379E0,-9.629914284E0,-1.728814363E0
1.632833562E0,1.475175142E0,-9.419346809E0,-1.793420553E0
1.653103250E0,9.672985673E-1,-9.145966530E0,-2.112264156E0
1.673372937E0,3.834498227E-1,-9.402596474E0,-2.205584288E0
1.693642521E0,9.361918569E-1,-9.641879082E0,-1.989632010E0
1.713912052E0,1.767099500E0,-9.390632629E0,-1.446461320E0
1.734181635E0,2.519043922E0,-8.983254433E0,-1.456032634E0
1.754451062E0,2.755933523E0,-8.834898949E0,-2.222334146E0
1.774720489E0,2.188236237E0,-8.710473061E0,-2.696112871E0
1.794989969E0,2.099701881E0,-8.844470978E0,-2.449652195E0
1.815259396E0,2.782254457E0,-8.813364029E0,-1.891526341E0
1.835528823E0,3.534198999E0,-9.105288506E0,-6.275177598E-1
1.855798250E0,3.524627686E0,-9.416953087E0,2.344966233E-1
1.876067625E0,3.864408493E0,-9.806983948E0,1.240080357E0
1.896337052E0,3.409772158E0,-9.775876999E0,1.429113269E0
1.916606427E0,5.511867046E0,-1.119541931E1,8.973084688E-1
1.936875854E0,1.453759384E1,-2.340120697E1,9.341579437E0
1.957145229E0,-9.337990284E-1,-9.649057388E0,3.339782238E0
1.977414604E0,-7.806583643E-1,-3.720839262E0,-5.073382378E0
1.997683979E0,3.523431420E-1,-3.594019651E0,-6.541378975E0
2.017953354E0,4.264009953E0,-7.932207108E0,-1.106680483E-1
2.038222781E0,2.796611547E0,-5.937789440E0,-1.178465128E0
2.058492156E0,2.063809633E0,-6.220142365E0,-2.310868502E0
2.078761531E0,4.340580463E0,-7.805387497E0,-1.101894855E0
2.099030906E0,5.441876888E0,-1.054696369E1,6.246463299E0
2.119430906E0,7.508079052E0,-1.135813046E1,7.007380962E0
2.139569708E0,5.834897995E0,-8.650651932E0,2.264806747E0
2.159839083E0,4.436891556E0,-7.367500782E0,-2.059023857E0
2.180108458E0,4.017549038E0,-6.565307140E0,-3.357130051E0
2.200377885E0,2.992822886E0,-6.998407841E0,-2.174477577E0
2.220647260E0,2.219342947E0,-7.036693096E0,1.431506157E0
2.240916635E0,2.861217737E0,-7.934599876E0,5.695516109E0
2.261186062E0,2.181057930E0,-8.669795036E0,6.622136593E0
2.281455437E0,6.921239495E-1,-8.349156380E0,3.787240028E0
2.301724812E0,1.237687469E0,-7.657032490E0,8.398807645E-1
2.321994239E0,1.994417667E0,-8.487939835E0,4.546363056E-1
2.342263614E0,2.674577475E0,-9.926624298E0,2.293520451E0
2.362663614E0,3.711267948E0,-1.197846985E1,4.275974274E0
2.382802417E0,3.241676569E0,-1.275195026E1,3.318246841E0
2.403071844E0,9.816554785E-1,-1.126481056E1,7.178468108E-1
2.423341219E0,-3.469592929E-1,-1.128873920E1,2.967100143E-1
2.443610646E0,1.515853167E0,-1.212203979E1,3.691527128E0
2.464010646E0,5.190630436E0,-1.201914787E1,3.595814228E0
2.484149448E0,6.862017155E0,-9.615557671E0,-4.086941242E0
2.504418875E0,4.390829563E0,-9.193822861E0,-2.322832584E0
2.524688302E0,9.505487680E-1,-1.018983555E1,8.614161611E-2
2.544957677E0,5.389832854E-1,-9.833304405E0,2.604587555E0
2.565357677E0,3.028715372E0,-1.024487019E1,3.141177893E0
2.585496479E0,4.791028976E0,-9.747162819E0,1.089332461E0
2.605765906E0,2.207378864E0,-9.610772133E0,-5.820540786E-1
2.626035333E0,7.950153351E-1,-8.600402832E0,5.623133183E-1
2.646304760E0,6.681957245E-1,-8.142775536E0,2.027318954E0
2.666574135E0,1.168295622E0,-7.374679565E0,2.496910334E0
2.686843562E0,1.554138303E0,-6.759125710E0,3.471387386E0
2.707112937E0,1.542174220E0,-8.624331474E0,2.764906645E0
2.727382364E0,2.871387079E-2,-7.290930748E0,-1.752742529E-1
2.747651792E0,1.604387641E0,-8.274380684E0,8.757730722E-1
2.767921167E0,1.819741607E0,-9.763913155E0,2.877369165E0
2.788190594E0,4.025924206E-1,-9.184251785E0,1.962712765E0
2.808460021E0,7.495517135E-1,-1.180857944E1,4.254438877E0
2.828729396E0,2.130808592E0,-1.243310642E1,4.658825874E0
2.848998823E0,1.043868899E0,-1.024965572E1,2.895315289E-1
2.869268250E0,7.854440212E-1,-7.261618614E0,-2.722434044E0
2.889537677E0,1.374676585E0,-8.789435387E0,-1.393819153E-1
2.909807052E0,9.984052777E-1,-9.076574326E0,2.048854351E0
2.930076479E0,1.740778446E0,-6.627520561E0,3.087937593E0
2.950345906E0,3.306282759E0,-1.082692432E1,-1.546959877E0
2.970615281E0,-1.115653515E0,-1.039801121E1,-1.606780410E0
2.990884708E0,-3.062812984E-1,-1.100399303E1,-2.380260229E0
3.011154135E0,1.580459356E0,-8.767900467E0,-3.340380430E0
3.031423562E0,5.341976285E-1,-5.255835056E0,-4.750350952E0
3.051692937E0,2.207378864E0,-1.188754272E1,3.900300860E-1
3.071962364E0,-3.567100286E0,-9.122037888E0,-1.183250785E0
3.092231792E0,3.574877024E0,-1.120738316E1,3.326023519E-1
3.112501167E0,1.843669891E0,-1.118824005E1,-7.064808607E-1
3.132770594E0,1.125224829E0,-1.214596748E1,-1.448854089E0
3.153040021E0,8.356932998E-1,-1.281655598E1,-2.087737799E0
3.173309448E0,2.925225794E-1,-1.401595879E1,-2.777468920E0
3.193578823E0,9.361918569E-1,-1.215553856E1,-3.040679455E0
3.213848250E0,1.244267747E-1,-1.035254669E1,-2.408974171E0
3.234117677E0,-6.604190469E-1,-9.531808853E0,-2.008774519E0
3.254387104E0,-1.290329576E0,-7.379465103E0,-1.298106313E0
3.274656479E0,1.244267747E-1,-9.224929810E0,-3.020938635E-1
3.294925906E0,7.758727670E-1,-1.040339470E1,-1.286142230E0
3.315195333E0,3.092723191E-1,-1.088435173E1,-2.818146944E0
3.335464760E0,6.873382926E-1,-1.053978539E1,-2.559721947E0
3.355734187E0,4.791627228E-1,-9.205786705E0,-1.958525300E0
3.376003614E0,2.225325108E-1,-9.344570160E0,-1.405783296E0
3.396272989E0,-2.153540403E-1,-9.692128181E0,-1.456032634E0
3.416542417E0,-1.938186288E-1,-8.423334122E0,-1.558923960E0
3.436811844E0,2.273181528E-1,-8.612366676E0,-1.479960799E0
3.457081271E0,3.188436031E-1,-8.554939270E0,-1.324427366E0
3.477350698E0,1.664208174E0,-9.232108116E0,-1.511067510E0
3.497620073E0,1.960918188E0,-9.421739578E0,-1.293320656E0
3.517889500E0,9.864411354E-1,-7.389036179E0,-1.544566989E0
3.538158927E0,3.260220885E-1,-4.623531342E0,-2.301297188E0
3.558428354E0,4.785645381E-2,-5.959324837E0,-2.358724833E0
3.578697729E0,-7.633104324E-1,-8.897112846E0,-2.241476536E0
3.598967156E0,-1.220937729E0,-1.159083271E1,2.488535494E-1
3.619236583E0,1.411765367E-1,-1.176311588E1,-5.552545071E0
3.639506010E0,3.714857101E-1,-9.402596474E0,-1.034895778E-1
3.659775437E0,1.242473125E0,-1.059721375E1,-1.178465128E0
3.680044812E0,6.275177598E-1,-9.311071396E0,-1.714457393E0
3.700314239E0,-6.939185858E-1,-9.653842926E0,-1.865205288E0
3.720583614E0,-1.240080357E0,-1.096092224E1,-1.051047325E0
3.740853094E0,-7.680960894E-1,-6.416952133E0,-3.038286448E0
3.761122469E0,-7.878368497E-1,-8.370692253E0,-2.231905222E0
3.781530437E0,1.733600020E0,-9.720842361E0,-3.136990547E0
3.801809917E0,-4.560719967E0,-1.610130310E1,-6.394818425E-1
3.821923875E0,-3.535993576E0,-1.029511929E1,-7.495517135E-1
3.842193146E0,1.866401732E-1,-3.438486099E0,-3.649054468E-2
3.862594604E0,-9.242277741E-1,-1.155015469E1,-4.439284325E0
3.882734552E0,-3.110071182E0,-1.252941799E1,-3.180061340E0
3.903004812E0,-4.421936035E0,-9.277571678E0,-1.226321578E0
3.923274917E0,-4.405186653E0,-1.163390350E1,-1.503889084E0
3.943544239E0,-3.301496983E0,-1.180379391E1,-2.468794823E0
3.963944864E0,-2.094916344E0,-9.869196892E0,-2.217548370E0
3.984084187E0,-1.625324726E0,-1.052303600E1,-2.082952023E0
4.004353927E0,-1.816750646E0,-9.926624298E0,-2.559721947E0
4.024623614E0,-2.676372051E0,-1.004148006E1,-2.203191519E0
4.044893042E0,-2.408375978E0,-1.027119160E1,-2.397010088E0
4.065293302E0,-2.353341103E0,-9.567701340E0,-2.152942181E0
4.085432312E0,-1.268794179E0,-9.007183075E0,-1.625923038E0
4.105701844E0,-1.956132531E0,-9.481559753E0,-1.841277003E0
4.125971323E0,-2.087737799E0,-9.515059471E0,-1.793420553E0
4.146240698E0,-2.140379906E0,-9.177073479E0,-1.726421595E0
4.166640802E0,-1.163509965E0,-9.436096191E0,-2.006381750E0
4.186779708E0,-1.756929994E0,-8.815756798E0,-2.234298229E0
4.207049187E0,-2.264806747E0,-9.095717430E0,-1.953739643E0
4.227318614E0,-1.867598057E0,-9.160323143E0,-1.824527264E0
4.247588094E0,-2.214557409E0,-8.851649284E0,-1.774278045E0
4.267857521E0,-1.086939692E0,-8.231309891E0,-1.992024899E0
4.288126896E0,-2.461018085E0,-1.029511929E1,-1.518245935E0
4.308396375E0,-1.175474167E0,-9.366703987E0,-1.941775560E0
4.328665750E0,-1.074975610E0,-1.037886810E1,-2.401795626E0
4.348935177E0,-1.201795220E0,-1.049192905E1,-2.901895761E0
4.369335177E0,-1.237687469E0,-1.044885826E1,-2.954537868E0
4.389473927E0,-3.493520916E-1,-1.087956619E1,-2.966501951E0
4.409743354E0,1.668993831E0,-1.125284672E1,-2.480758905E0
4.430012781E0,-1.674975902E-1,-8.602795601E0,-2.169692039E0
4.450282156E0,-4.951348305E0,-6.076572895E0,-1.259821177E0
4.470551531E0,-4.563112736E0,-8.238488197E0,-6.227321029E-1
4.490820958E0,-2.159522533E0,-9.684949875E0,-1.963310957E0
4.511090333E0,-9.170492887E-1,-9.850054741E0,-3.026322365E0
4.531359708E0,-9.433703423E-1,-9.613164902E0,-2.875574589E0
4.551629135E0,-1.790429592E0,-9.524630547E0,-2.308475733E0
4.571898510E0,-2.063809633E0,-9.469595909E0,-2.129014015E0
4.592167885E0,-1.872383714E0,-9.457631111E0,-2.032702923E0
4.612437260E0,-1.632503271E0,-9.503094673E0,-2.042274237E0
4.632706687E0,-1.510469317E0,-9.495916367E0,-2.174477577E0
4.652976062E0,-1.486541033E0,-9.464810371E0,-2.272583246E0
4.673245437E0,-1.532004714E0,-9.495916367E0,-2.358724833E0
4.693514812E0,-1.524826288E0,-9.536594391E0,-2.349153519E0
4.713784187E0,-1.474576950E0,-9.663414001E0,-2.399402857E0
4.734053562E0,-1.488933921E0,-9.754341125E0,-2.464009047E0
4.754322937E0,-1.457827210E0,-9.637093544E0,-2.624328136E0
4.774592364E0,-1.378864050E0,-9.637093544E0,-2.925823927E0
4.794861739E0,-1.177866936E0,-9.713663101E0,-3.242274761E0
4.815131114E0,-1.082154036E0,-9.850054741E0,-3.421736479E0
4.835400489E0,-1.017547846E0,-9.778269768E0,-3.584448338E0
4.855669864E0,-9.266205430E-1,-9.708877563E0,-3.850051641E0
4.875939239E0,-6.819544435E-1,-9.620343208E0,-4.141975880E0
4.896208614E0,-4.570291340E-1,-9.455238342E0,-4.288536549E0
4.916477989E0,-3.278166950E-1,-9.308678627E0,-4.262215137E0
4.936747364E0,-2.775674164E-1,-9.301499367E0,-3.739981890E0
4.957016739E0,-3.158525825E-1,-9.634700775E0,-3.515056372E0
4.977286062E0,-7.274180651E-1,-9.742377281E0,-3.957728624E0
4.997555489E0,-9.696913958E-1,-9.787840843E0,-3.948157310E0
5.017824864E0,-7.058826685E-1,-9.227322578E0,-3.627519131E0
5.038094239E0,-1.898704767E0,-8.600402832E0,-3.991228104E0
5.058363614E0,-1.843669891E0,-8.068597794E0,-2.588435888E0
5.078632989E0,-3.708875179E-1,-7.992027760E0,-2.219941139E0
5.098902312E0,1.172483116E-1,-8.293522835E0,-3.431307554E0
5.119171687E0,-4.402793646E-1,-8.361120224E0,-4.223930359E0
5.139441062E0,-1.151545882E0,-8.262416840E0,-4.228715897E0
5.159841062E0,-8.548358679E-1,-8.157132149E0,-4.079762459E0
5.179979812E0,-5.742774159E-2,-8.068597794E0,-4.168296814E0
5.200249187E0,5.605186820E-1,-7.920242786E0,-4.479962349E0
5.220518562E0,7.758727670E-1,-7.944170952E0,-4.898705959E0
5.240787937E0,8.979067206E-1,-7.838887215E0,-5.097310543E0
5.261057312E0,1.218544960E0,-7.590033531E0,-5.157131195E0
5.281326635E0,1.530210137E0,-7.417750359E0,-5.200201988E0
5.301596010E0,1.781456470E0,-7.348358154E0,-5.222335339E0
5.322003979E0,2.082952023E0,-7.434499741E0,-5.267798901E0
5.342299031E0,2.188236237E0,-7.283751965E0,-5.202594757E0
5.362551479E0,2.288734913E0,-7.132406235E0,-5.082953453E0
5.382665698E0,2.149951220E0,-6.572485447E0,-4.786243439E0
5.402936583E0,1.769492388E0,-6.141179085E0,-4.487140656E0
5.423207260E0,1.216152072E0,-5.715256691E0,-4.558925152E0
5.443476531E0,6.179464459E-1,-5.617151260E0,-5.149952412E0
5.463877573E0,-1.555334777E-1,-6.145965099E0,-6.371488571E0
5.484017156E0,-1.003190875E0,-8.657830238E0,-9.486345291E0
5.504287104E0,-1.350150228E0,-1.779661751E1,-1.416670609E1
5.524557000E0,8.739784956E-1,-2.506780815E1,-4.984847546E0
5.544826323E0,-2.921038151E0,-3.993621111E0,-1.597209096E0
5.565226792E0,-7.733004570E0,2.642872572E0,-1.463211060E0
5.585365854E0,-5.977869034E0,-3.390629768E0,2.807977438E0
5.605635489E0,-4.646861553E0,-1.263230896E1,-6.251249313E-1
5.625905073E0,-4.570291340E-1,-1.974497414E1,-6.251249313E-1
5.646174656E0,4.395615101E0,-1.573280907E1,-1.683350682E0
5.666444187E0,4.479962349E0,-1.025444126E1,-1.441675663E0
5.686713614E0,1.353141189E0,-9.433703423E0,-7.734799385E-1
5.706983094E0,-1.052841991E-1,-1.058524895E1,1.890329868E-1
5.727252521E0,-3.349951655E-2,-1.148315620E1,-4.959124923E-1
5.747521948E0,-7.178468257E-2,-1.067139053E1,-1.233500123E0
5.767791375E0,-5.168496966E-1,-9.704092026E0,-5.605186820E-1
5.788060802E0,-1.177866936E0,-8.873184204E0,6.364908218E-1
5.808330229E0,-1.834098577E0,-8.499904633E0,5.312066078E-1
5.828599604E0,-1.858026743E0,-8.418548584E0,-4.121637046E-1
5.848869031E0,-7.441678643E-1,-8.667402267E0,-8.715856671E-1
5.869138406E0,1.201795220E0,-9.172286987E0,2.392822644E-3
5.889407781E0,2.406581402E0,-8.961718559E0,-2.422732860E-1
5.909677156E0,2.480758905E0,-9.035896301E0,-3.403790295E-1
5.929946531E0,1.683350682E0,-9.373882294E0,-4.839483798E-1
5.950215958E0,1.110867858E0,-9.584450722E0,-6.969096065E-1
5.970485333E0,6.897311211E-1,-1.044407272E1,-1.649851203E0
5.990754708E0,1.472782373E0,-1.196889877E1,-2.686541557E0
6.011024083E0,1.862812400E0,-1.246421337E1,-3.584448338E0
6.031293458E0,2.063809633E0,-1.193300629E1,-4.207180500E0
6.051562833E0,2.013560295E0,-1.176311588E1,-4.398606300E0
6.071832208E0,1.640279889E0,-1.200957680E1,-4.101297855E0
6.092101583E0,9.672985673E-1,-1.242114258E1,-4.348356724E0
6.112371010E0,-1.058225870E0,-1.365464211E1,-5.655436516E0
6.132640385E0,-2.392822653E-1,-1.909412575E1,-4.594817638E0
6.152909760E0,2.293520451E0,-1.814597130E1,1.220339537E-1
6.173179135E0,-4.149154663E0,-1.390588856E1,-2.621935368E0
6.193448510E0,-9.789635658E0,-1.600080490E1,-4.972883701E0
6.213717885E0,-7.749754429E0,-1.595294857E1,-2.492722988E0
6.233987260E0,-3.847060680E0,-1.372642708E1,-2.470589429E-1
6.254256635E0,-2.608176768E-1,-1.120259762E1,2.815155745E0
6.274526010E0,3.763910055E0,-9.344570160E0,5.415555954E0
6.294795281E0,4.141975880E0,-8.523832321E0,7.298108935E-1
6.315064760E0,2.732005358E0,-8.813364029E0,-2.605185747E0
6.335334135E0,3.828516230E-2,-9.665806770E0,-3.397808075E0
6.355603510E0,-1.723430514E0,-9.457631111E0,-4.019941807E0
6.375872885E0,-1.749751568E0,-8.373085022E0,-2.303689957E0
6.396142260E0,-1.120439172E0,-7.053442955E0,-1.417747438E-1
6.416411687E0,-1.206580877E0,-5.949753284E0,5.264209956E-2
6.436681062E0,-1.915454507E0,-5.154737949E0,-1.161715388E0
6.456950437E0,-2.295913219E0,-3.866801500E0,-2.306082726E0
6.477219812E0,-1.838884234E0,-3.342773199E0,-2.169692039E0
6.497489187E0,-1.211366415E0,-3.517449379E0,-1.908276081E0
6.517758562E0,-8.237292171E-1,-2.803789854E0,-1.922633052E0
6.538027937E0,-6.508477330E-1,-1.654636860E0,-2.889931440E0
6.558297260E0,3.116651475E-1,-1.664208174E0,-4.685744762E0
6.578566687E0,1.465603828E0,-2.239083767E0,-6.143572330E0
6.598836062E0,2.358724833E0,-3.976871252E0,-1.084606647E1
6.619105489E0,4.747958183E0,-1.105424213E1,-1.426002693E1
6.639374864E0,-4.618147612E-1,-2.075534439E1,1.230509043E0
6.659782833E0,-2.707478762E0,-2.055195427E1,-1.398245907E1
6.680062208E0,-1.819143414E0,-8.375477791E0,-3.116651475E-1
6.700176062E0,-2.441875458E0,-2.015953064E0,-2.162513494E0
6.720446844E0,-2.303091764E0,-6.009573936E0,-3.055036306E0
6.740717312E0,-1.795215130E0,-1.368574905E1,-2.056631088E0
6.760987573E0,5.054838061E-1,-1.745384598E1,-1.972882271E0
6.781257625E0,2.559721947E0,-1.399203014E1,-3.548556089E0
6.801527625E0,2.047059774E0,-9.866804123E0,-2.085345030E0
6.821797417E0,9.409775138E-1,-8.566903114E0,-8.237292171E-1
6.842066739E0,7.657032460E-2,-8.732007980E0,-2.901297510E-1
6.862467156E0,-5.503492057E-2,-8.894720078E0,-4.001995921E-1
6.882606219E0,4.067798331E-2,-9.248857498E0,-5.629115105E-1
6.902875854E0,2.560320199E-1,-9.438488960E0,-7.351947427E-1
6.923145437E0,4.217349887E-1,-8.789435387E0,-4.911268353E-1
6.943414812E0,1.244267747E-1,-7.556533813E0,-7.830511928E-1
6.963814969E0,-1.555334777E-1,-7.592426300E0,-3.643072546E-1
6.983953771E0,3.116651475E-1,-7.642675400E0,-5.916253924E-1
7.004223250E0,8.859425783E-1,-7.968099594E0,-8.476574421E-1
7.024492729E0,9.457631707E-1,-8.212167740E0,-1.501496196E0
7.044762104E0,1.108475089E0,-8.866005898E0,-9.696913958E-1
7.065162156E0,6.921239495E-1,-9.421739578E0,-8.811569214E-1
7.085300906E0,-2.560320199E-1,-9.969695091E0,-1.166501045E0
7.105570333E0,-5.216353536E-1,-1.103509998E1,-1.676172256E0
7.125839760E0,3.188436031E-1,-1.218903828E1,-2.243869543E0
7.146109083E0,2.353939295E0,-1.286919880E1,-2.502294302E0
7.166509135E0,3.090928555E0,-1.252463150E1,-2.949752092E0
7.186647885E0,1.963310957E0,-1.241396427E1,-2.791825771E0
7.206917312E0,1.225723386E0,-1.344826126E1,-2.172084808E0
7.227186687E0,5.264209956E-2,-1.377428341E1,-2.356332064E0
7.247456062E0,-1.891526341E0,-1.564188194E1,-3.634697676E0
7.267864031E0,-2.252842426E0,-1.821775436E1,-3.893122435E0
7.288143406E0,-2.405983210E0,-1.560838223E1,-4.369892120E0
7.308257312E0,-1.721037745E0,-1.297448254E1,-4.826921463E0
7.328528094E0,-8.069794178E-1,-1.233260822E1,-4.566103935E0
7.348798562E0,-2.656033039E-1,-1.346740437E1,-2.619542599E0
7.369068771E0,-6.580262184E-1,-1.447059536E1,-6.059823632E-1
7.389338875E0,-2.248056889E0,-1.428874016E1,1.411765367E-1
7.409608771E0,-3.177070379E0,-1.298644638E1,6.771687865E-1
7.429878562E0,-2.049452543E0,-1.079103184E1,1.161117196E0
7.450148302E0,-5.431707501E-1,-9.699306488E0,1.004985452E0
7.470417989E0,-3.684946895E-1,-8.650651932E0,-1.396211982E0
7.490687625E0,7.040880919E-1,-7.853243828E0,-2.930609465E0
7.510957156E0,8.644071817E-1,-7.613961697E0,-3.589233875E0
7.531226739E0,-3.637090325E-1,-6.924230576E0,4.067798331E-2
7.551496114E0,-1.206580877E0,-5.825326920E0,9.092726111E-1
7.571765594E0,-8.213363886E-1,-5.035097122E0,-6.681957245E-1
7.592035073E0,-5.575276613E-1,-4.597210407E0,-1.623530149E0
7.612304500E0,-1.218544960E0,-4.259822369E0,-1.747956991E0
7.632573927E0,-1.311864972E0,-3.644268990E0,-1.329213023E0
7.652843354E0,-1.383649707E0,-2.502294302E0,-9.625129104E-1
7.673112677E0,-1.362114310E0,-1.019940615E0,-1.089930773E0
7.693382104E0,-2.303091764E0,2.416750938E-1,-1.805384636E0
7.713651479E0,-2.855833769E0,5.742774606E-1,-4.233501434E0
7.733920906E0,-2.468196630E0,-1.211964726E0,-1.414277840E1
7.754190281E0,2.303091764E0,-8.475975990E0,-2.096651077E1
7.774459604E0,1.582852125E0,-2.296092796E1,1.091486073E1
7.794728979E0,3.488735437E0,-2.658545685E1,-1.748973846E1
7.814998354E0,5.988038778E-1,-1.148076344E1,-2.775076151E0
7.835267677E0,-2.212164640E0,-5.581258535E-1,-2.063809633E0
7.855537104E0,-2.702693224E0,-1.939382792E0,-1.960918188E0
7.875806479E0,-2.516052961E0,-1.045603657E1,-1.834098577E0
7.896075802E0,-8.141579032E-1,-1.831107521E1,-6.897311211E-1
7.916345177E0,2.944966555E0,-1.783011818E1,-2.586043119E0
7.936614448E0,4.371686935E0,-1.129113197E1,-3.448057413E0
7.956883875E0,2.157129526E0,-8.480761528E0,-2.179263115E0
7.977153250E0,2.662015259E-1,-7.755138397E0,-8.093722463E-1
7.997422573E0,-2.416750938E-1,-7.623532772E0,-7.423732281E-1
8.017691948E0,-3.637090325E-1,-7.747959614E0,-1.087537885E0
8.037961271E0,3.349951655E-2,-8.547760963E0,-6.179464459E-1
8.058230646E0,7.896314561E-2,-9.100502968E0,-4.552344978E-1
8.078499969E0,-1.268195957E-1,-8.870791435E0,-7.830511928E-1
8.098769344E0,1.603191197E-1,-8.054241180E0,-4.049852192E-1
8.119038667E0,5.868397355E-1,-7.237690449E0,-4.049852192E-1
8.139308042E0,1.391426325E0,-7.716853142E0,-9.864411354E-1
8.159577364E0,8.620143533E-1,-8.341978073E0,-1.204786181E0
8.179846739E0,9.170492887E-1,-9.167501450E0,-1.195214868E0
8.200116062E0,2.488535494E-1,-9.059824944E0,-8.572286963E-1
8.220385385E0,-4.929214716E-1,-9.119645119E0,-8.955138922E-1
8.240654760E0,-2.847459018E-1,-1.008694363E1,-4.911268353E-1
8.260924083E0,-3.900300860E-1,-1.047757244E1,-3.308077157E-1
8.281193406E0,-6.029912829E-1,-1.081017494E1,-6.059823632E-1
8.301462781E0,-1.172483116E-1,-1.144965649E1,-6.969096065E-1
8.321732104E0,1.146760225E0,-1.228714466E1,-9.529415965E-1
8.342001427E0,1.439282775E0,-1.216511059E1,-1.195214868E0
8.362401427E0,1.726421595E0,-1.245224857E1,-5.126622319E-1
8.382540125E0,7.902296782E-1,-1.231585789E1,-7.998009920E-1
8.402809448E0,-7.902296782E-1,-1.492822266E1,-2.913859844E0
8.423078771E0,-4.307080805E-1,-1.717627907E1,-3.244667530E0
8.443348094E0,-7.806583643E-1,-1.607737541E1,-3.536591768E0
8.463748094E0,-1.187438250E0,-1.379581928E1,-3.608376503E0
8.483886792E0,-1.608574986E0,-1.252941799E1,-3.687339783E0
8.504156114E0,-1.958525300E0,-1.337169075E1,-3.936193228E0
8.524425437E0,-1.807179332E0,-1.419302750E1,-2.734398127E0
8.544694760E0,-2.925823927E0,-1.439402485E1,-8.189435601E-1
8.565094760E0,-5.152345181E0,-1.444905949E1,6.723831892E-1
8.585233406E0,-5.068596363E0,-1.296730423E1,1.009771109E0
8.605502729E0,-3.021536827E0,-1.063789082E1,1.004985496E-1
8.625772052E0,-1.256830096E0,-9.684949875E0,5.790630579E-1
8.646041375E0,-3.804588020E-1,-9.395418167E0,4.474578202E-1
8.666310698E0,-4.474578202E-1,-8.523832321E0,-2.219941139E0
8.686580021E0,1.579262912E-1,-7.891529083E0,-3.071786165E0
8.706849344E0,-9.332008660E-2,-7.007979393E0,-2.344367981E0
8.727118667E0,8.135596663E-2,-6.656234264E0,-6.346961856E-1
8.747387937E0,3.786641955E-1,-6.778268337E0,2.392822690E-2
8.767657208E0,-1.100698411E-1,-6.345167637E0,-9.242277741E-1
8.787926531E0,-6.460621208E-2,-5.842076302E0,-1.819741607E0
8.808195854E0,-6.149554253E-1,-5.133202553E0,-2.373081923E0
8.828465229E0,-1.240080357E0,-4.338785648E0,-1.982453585E0
8.848734552E0,-1.675574064E0,-3.292523861E0,-1.523031592E0
8.869134500E0,-2.279163599E0,-2.356332064E0,-1.836491346E0
8.889273094E0,-2.621337175E0,-1.233500123E0,-2.516651154E0
8.909542417E0,-2.066202402E0,-8.189435601E-1,-3.689732552E0
8.929811739E0,-2.105683982E-1,-1.810170293E0,-6.256632805E0
8.950081010E0,3.589234129E-2,-2.918645382E0,-1.059721375E1
8.970350333E0,2.001596212E0,-7.831708431E0,-2.200320053E1
8.990619656E0,4.518247128E0,-2.015235138E1,2.499303341E0
9.010888927E0,-8.069794178E-1,-2.293700027E1,-9.033503532E0
9.031158250E0,-3.661018610E-1,-1.257009602E1,-6.043073654E0
9.051427573E0,-2.116451740E0,-4.695914388E-1,-1.814955950E0
9.071696844E0,-9.625129104E-1,-4.504488707E-1,-2.837289333E0
9.091966167E0,-2.173879385E0,-9.634700775E0,-2.918645382E0
9.112235437E0,-2.273181528E-1,-1.748734665E1,2.392822644E-3
9.132504760E0,3.081357241E0,-1.741556168E1,-3.081357241E0
9.152774031E0,4.755136967E0,-1.165783215E1,-4.077369690E0
9.173043354E0,2.751147747E0,-8.538188934E0,-2.011167526E0
9.193312625E0,6.490531564E-1,-8.159524918E0,-1.190429211E0
9.213581948E0,1.435693540E-2,-8.825327873E0,-1.322034478E0
9.233851219E0,-1.483550072E-1,-9.656235695E0,-1.221535921E0
9.254120489E0,-9.409775138E-1,-9.567701340E0,-1.379462242E0
9.274389812E0,-6.053841114E-1,-9.507881165E0,-9.529415965E-1
9.294659083E0,-1.627119333E-1,-8.887541771E0,-1.010967568E-1
9.314928354E0,-9.092725813E-2,-7.994420528E0,3.349951655E-2
9.335197729E0,-1.196411345E-2,-7.494320393E0,-3.858426511E-1
9.355466948E0,6.699903309E-2,-7.659425259E0,-5.318048596E-1
9.375736219E0,9.433703423E-1,-8.231309891E0,-1.393819153E-1
9.396005489E0,1.146760225E0,-7.747959614E0,-3.954139352E-1
9.416274760E0,9.385846853E-1,-8.420941353E0,-5.748756528E-1
9.436543979E0,1.292124242E-1,-8.961718559E0,-3.379862010E-1
9.456813302E0,-8.404789567E-1,-9.579665184E0,6.939185411E-2
9.477082573E0,-1.539183140E0,-9.876375198E0,-4.366901144E-2
9.497351896E0,-1.354935765E0,-9.402596474E0,-9.152546525E-2
9.517621114E0,-8.356932998E-1,-1.042492962E1,-6.275177598E-1
9.537890437E0,-3.708875179E-1,-1.231585789E1,-1.264606714E0
9.558159708E0,6.131607890E-1,-1.250070381E1,-1.601994753E0
9.578428979E0,1.889133453E0,-1.264188004E1,-1.843669891E0
9.598698198E0,2.233700037E0,-1.331904888E1,-1.819741607E0
9.618967469E0,1.341177106E0,-1.331665611E1,-1.305284739E0
9.639236739E0,9.218349457E-1,-1.387478256E1,-7.663014531E-1
9.659636739E0,1.247258782E0,-1.540439415E1,-2.925225794E-1
9.679775281E0,-1.328614831E0,-1.661336708E1,-9.505487680E-1
9.700044552E0,-4.721039295E0,-1.550489235E1,-2.590828657E0
9.720313823E0,-3.636492252E0,-1.301755333E1,-4.417748928E0
9.740583042E0,-9.385846853E-1,-1.178704453E1,-5.166702271E0
9.760852312E0,1.244267747E-1,-1.267777252E1,-4.791028976E0
9.781121583E0,3.308077157E-1,-1.412602806E1,-4.005585194E0
9.801390854E0,3.643072546E-1,-1.420259857E1,-1.867598057E0
9.821660125E0,-1.842473447E-1,-1.336211967E1,6.939185858E-1
9.841929396E0,-1.522433400E0,-1.155972576E1,2.305484533E0
9.862329396E0,-1.846062660E0,-9.366703987E0,2.310270309E0
9.882467885E0,-5.024927258E-1,-7.836493969E0,1.297508121E0
9.902737156E0,2.440679073E-1,-6.818946362E0,-3.906283081E-1
9.923006375E0,-3.230310678E-1,-6.814160824E0,-2.519043922E0
9.943275646E0,-1.599003673E0,-6.909873486E0,-2.767897606E0
9.963675646E0,-1.074975610E0,-7.275975227E0,-2.423331022E0
9.983814135E0,-2.679961324E-1,-7.642675400E0,-2.136192322E0
1.000408335E1,1.076770201E-1,-7.843672752E0,-1.893919110E0
1.002435262E1,-2.679961324E-1,-7.249654293E0,-1.829312921E0
1.004462190E1,-5.766702294E-1,-6.921837807E0,-2.368296146E0
1.006502190E1,-4.929214716E-1,-6.462415695E0,-2.818146944E0
1.008516038E1,-1.290329576E0,-5.739185333E0,-2.552543640E0
1.010542966E1,-2.458625317E0,-4.298107624E0,-2.784647465E0
1.012569888E1,-2.372483730E0,-2.724826813E0,-3.009572744E0
1.014596815E1,-1.424327731E0,-2.097907305E0,-3.409772158E0
1.016636815E1,-6.723831892E-1,-2.075773716E0,-3.672982693E0
1.018650664E1,5.150550604E-1,-2.928216696E0,-4.915455818E0
1.020677585E1,2.257628202E0,-4.310071945E0,-6.739983082E0
1.022704512E1,1.922633052E0,-4.867599487E0,-8.732007980E0
1.024731434E1,9.314061999E-1,-8.188239098E0,-1.552164268E1
1.026758356E1,7.088736892E-1,-1.579262924E1,-6.876374245E0
1.028785283E1,9.649057388E-1,-1.534218025E1,-3.732803345E0
1.030812205E1,-3.849453449E0,-1.257488155E1,-7.048657417E0
1.032839127E1,-1.972882271E0,-6.840481758E0,-4.226323128E0
1.034866049E1,5.964110494E-1,-5.066203594E0,-1.539781332E0
1.036892971E1,3.978067636E-1,-9.464810371E0,-3.404986620E0
1.038919898E1,1.130010486E0,-1.577109432E1,-2.760719061E0
1.040946820E1,3.299104214E0,-1.657508278E1,-2.842075109E0
1.042973742E1,3.098107100E0,-1.228235817E1,-3.302095175E0
1.045000664E1,7.734799385E-1,-9.189037323E0,-1.415354609E0
1.047027585E1,-5.024927258E-1,-8.023134232E0,-2.853440940E-1
1.049054502E1,-7.250252366E-1,-7.939385414E0,8.853443712E-2
1.051081424E1,-8.261220455E-1,-8.509475708E0,-6.873382926E-1
1.053108346E1,1.914258152E-1,-9.311071396E0,-7.088736892E-1
1.055135262E1,9.242277741E-1,-9.625128746E0,-4.695914388E-1
1.057162184E1,1.295115232E0,-9.067003250E0,-2.111666054E-1
1.059189106E1,1.914258152E-1,-7.843672752E0,-8.021938205E-1
1.061216028E1,3.523431420E-1,-7.381857872E0,-1.322034448E-1
1.063242950E1,1.125224829E0,-7.508677483E0,1.651047617E-1
1.065269867E1,1.086939692E0,-8.068597794E0,-9.571290575E-3
1.067296788E1,3.212364316E-1,-8.236095428E0,-9.481559992E-1
1.069323710E1,-1.794617027E-1,-8.356334686E0,-5.964110494E-1
1.071350632E1,-7.106683254E-1,-9.026325226E0,-1.154536903E-1
1.073377554E1,-7.680960894E-1,-1.007737255E1,-8.021938205E-1
1.075404471E1,-4.666004181E-1,-1.029033375E1,-8.237292171E-1
1.077431393E1,-6.317051649E-1,-1.008694363E1,-2.135594189E-1
1.079458309E1,-9.074779749E-1,-1.061874866E1,-4.408775866E-1
1.081485231E1,-1.100698411E-1,-1.295294762E1,-1.527817249E0
1.083512153E1,1.441675663E0,-1.460758400E1,-2.397010088E0
1.085539070E1,2.851646423E0,-1.306780243E1,-2.078166485E0
1.087565992E1,4.621138573E0,-1.237567902E1,4.833501875E-1
1.089592908E1,3.110071182E0,-1.376710510E1,9.212366939E-1
1.091619830E1,-1.153938770E0,-1.682692719E1,-5.437689424E-1
1.093646747E1,-5.449055195E0,-1.860060692E1,-1.752742529E0
1.095673664E1,-6.705885410E0,-1.567298794E1,-3.596412420E0
1.097700585E1,-3.993621111E0,-1.309173107E1,-4.322035789E0
1.099727502E1,-1.326221943E0,-1.191864967E1,-3.917050600E0
1.101754416E1,1.148554832E-1,-1.247916794E1,-3.168097258E0
1.103781338E1,-1.352542996E0,-1.414038563E1,-2.188834429E0
1.105808255E1,-4.725824833E0,-1.477747440E1,-8.261220455E-1
1.107835171E1,-6.177071571E0,-1.325683594E1,3.469592929E-1
1.109862088E1,-4.448257446E0,-1.061396313E1,8.709874153E-1
1.111889010E1,-2.030309916E0,-8.899505615E0,6.077769399E-1
1.113915927E1,-5.551348329E-1,-8.271987915E0,2.392822690E-2
1.115942843E1,-4.402793646E-1,-7.697710514E0,-9.170492887E-1
1.117969760E1,-5.551348329E-1,-7.000801086E0,-2.349153519E0
1.119996677E1,-3.182454109E-1,-6.326025009E0,-2.712862730E0
1.122023593E1,5.222335458E-1,-5.935396671E0,-1.838884234E0
1.124050515E1,1.403390527E0,-6.280561447E0,-3.571287692E-1
1.126077432E1,8.787640929E-1,-7.240083218E0,-1.657029688E-1
1.128104349E1,7.304090858E-1,-7.377072334E0,-1.420140266E0
1.130131265E1,8.853443712E-2,-6.828517437E0,-2.870789051E0
1.132158182E1,-8.739784956E-1,-5.303691387E0,-3.043072224E0
1.134185098E1,-1.350150228E0,-3.069393158E0,-2.270190477E0
1.136225099E1,-1.970489502E0,-1.456032634E0,-1.312463164E0
1.138238932E1,-1.567897081E0,-7.208378315E-1,-1.652244091E0
1.140265848E1,-1.311864972E0,-4.025924206E-1,-2.598007202E0
1.142292765E1,-3.996013701E-1,-1.336391449E0,-4.295714855E0
1.144319682E1,6.460621208E-2,-2.152942181E0,-6.972086906E0
1.146359682E1,-4.689932466E-1,-4.283750534E0,-1.807179260E1
1.148373515E1,4.513461590E0,-1.660618973E1,-2.578086853E1
1.150400432E1,5.075775146E0,-3.405764389E1,7.584649563E0
1.152427348E1,-5.807978630E0,-9.730413437E0,-8.495118141E0
1.154454265E1,-2.740978241E0,-3.499503136E-1,-1.331605792E0
1.156494265E1,-2.899502754E0,2.092523336E0,-1.410568953E0
1.158508093E1,-2.583052158E0,-6.969694138E0,-2.542972326E0
1.160535010E1,-2.056631088E0,-1.911087608E1,3.254238665E-1
1.162561927E1,3.426522017E0,-2.164846420E1,-1.405783296E0
1.164587656E1,6.093322754E0,-1.334297752E1,-3.488735437E0
1.166602786E1,3.481556892E0,-7.915457249E0,-2.452044964E0
1.168642401E1,9.577272534E-1,-7.058228493E0,-9.170492887E-1
1.170669328E1,-6.077769399E-1,-7.633104324E0,1.818545163E-1
1.172696291E1,-8.955138922E-1,-8.633902550E0,-1.537388563E-1
1.174723203E1,-1.149153113E0,-9.186644554E0,-1.200000525E0
1.176763250E1,1.148554832E-1,-9.488738060E0,-4.169493318E-1
1.178777104E1,5.174478889E-1,-8.648259163E0,-1.216750264E0
1.180804052E1,-5.312066078E-1,-7.953742504E0,-1.814955950E0
1.182830984E1,-8.189435601E-1,-8.128418922E0,-5.054838061E-1
1.184857921E1,-1.052841991E-1,-8.688937187E0,-1.734796353E-2
1.186884849E1,1.463211060E0,-8.988039970E0,-6.586244106E-1
1.188911776E1,3.438486099E0,-8.918647766E0,-1.128215909E0
1.190938692E1,3.670589924E0,-8.736793518E0,-1.520638824E0
1.192965614E1,3.076571703E0,-9.443274498E0,-1.087537885E0
1.194992531E1,1.338784218E0,-9.890732765E0,-5.102694035E-1
1.197019453E1,-4.211367965E-1,-9.440881729E0,-6.370890141E-1
1.199046369E1,-1.371685624E0,-9.615557671E0,-3.092723191E-1
1.201073281E1,-2.133201361E0,-9.586843491E0,5.264209956E-2
1.203100203E1,-2.298306227E0,-9.682557106E0,1.986042857E-1
1.205127114E1,-1.788036704E0,-1.016590691E1,-1.609173268E-1
1.207154026E1,-5.910272002E-1,-1.030708313E1,1.028913707E-1
1.209180942E1,6.299105883E-1,-1.006540871E1,2.775674164E-1
1.211207859E1,9.529415965E-1,-1.068096161E1,3.349951655E-2
1.213234770E1,4.911268353E-1,-1.151426220E1,-1.968096644E-1
1.215261682E1,2.584248483E-1,-1.185404301E1,-1.154536903E-1
1.217288593E1,4.935196638E-1,-1.208854008E1,1.268195957E-1
1.219315505E1,8.644071817E-1,-1.330708504E1,3.613162339E-1
1.221342416E1,1.435693540E-2,-1.545225048E1,1.890329868E-1
1.223369333E1,-1.505683661E0,-1.632383537E1,-6.759724021E-2
1.225396244E1,-3.107678413E0,-1.638126373E1,-1.027119160E0
1.227423156E1,-3.703491211E0,-1.529671669E1,-2.253440619E0
1.229450067E1,-2.774477959E0,-1.296969700E1,-3.275774240E0
1.231476984E1,-1.603789330E0,-1.239960670E1,-4.420141697E0
1.233503895E1,-5.264210105E-1,-1.320419312E1,-5.542973518E0
1.235530807E1,1.698904037E-1,-1.445623779E1,-4.948955536E0
1.237557718E1,-1.742573142E0,-1.480379581E1,-1.920240164E0
1.239584630E1,-3.591028690E0,-1.353260803E1,1.283151150E0
1.241611541E1,-2.664407969E0,-1.125284672E1,2.583052158E0
1.243638453E1,-1.929811478E0,-9.270393372E0,2.822334290E0
1.245665364E1,-1.211366415E0,-7.491927624E0,3.260818958E0
1.247692276E1,-4.546363056E-1,-6.474380016E0,-2.392822644E-3
1.249719187E1,-4.546362907E-2,-6.701697826E0,-5.545366287E0
1.251746099E1,-7.465606928E-1,-7.451249599E0,-5.301298618E0
1.253773010E1,-2.129612118E-1,-7.606783390E0,-1.048654556E0
1.255799921E1,3.523431420E-1,-6.979265213E0,-3.284149170E-1
1.257826833E1,6.777670383E-1,-6.186643124E0,-1.142572761E0
1.259853739E1,5.030909777E-1,-6.009573936E0,-2.037488461E0
1.261880645E1,-9.810572863E-2,-5.693721294E0,-2.564507723E0
1.263907557E1,-1.302293777E0,-5.020740032E0,-2.557329178E0
1.265934468E1,-1.529611826E0,-3.816552162E0,-2.234298229E0
1.267961380E1,-1.841277003E0,-2.641077995E0,-2.097907305E0
1.269988291E1,-1.264008522E0,-9.194421172E-1,-2.090130568E0
1.272015203E1,-1.139581800E0,-2.590230405E-1,-2.547757864E0
1.274042109E1,-1.986042857E-1,-1.063609719E0,-3.979264021E0
1.276069020E1,5.629115105E-1,-2.655434847E0,-9.481559753E0
1.278095932E1,3.460021496E0,-6.716054916E0,-1.993939018E1
1.280122843E1,8.551948547E0,-1.674078560E1,-5.842076302E0
1.282149750E1,2.825325251E0,-2.100240326E1,1.536790371E0
1.284176661E1,-1.051047325E0,-1.404706573E1,-1.297687531E1
1.286216661E1,-5.137988567E0,-6.328417778E0,-3.436093330E0
1.288230479E1,-3.478565931E0,-3.035893679E0,-2.279761791E0
1.290257390E1,-1.982453585E0,-6.124429703E0,-2.581257343E0
1.292284296E1,-1.627717614E0,-1.243071365E1,-2.535793781E0
1.294311208E1,1.060618639E0,-1.590748501E1,-2.514258385E0
1.296351208E1,3.713660717E0,-1.501436424E1,-3.146561861E0
1.298365026E1,3.505485058E0,-1.205982590E1,-2.870789051E0
1.300391937E1,1.290329576E0,-9.210572243E0,-1.637887120E0
1.302418843E1,-5.982056633E-2,-7.771887779E0,-9.391828626E-2
1.304445755E1,-3.972085714E-1,-7.582854748E0,1.531406492E-1
1.306485755E1,-4.857429862E-1,-8.710473061E0,-8.668000102E-1
1.308499572E1,3.978067636E-1,-9.929018021E0,-9.385846853E-1
1.310526479E1,1.743171334E0,-9.835697174E0,-8.859425783E-1
1.312553390E1,2.092523336E0,-8.767900467E0,-1.314856052E0
1.314580302E1,6.586244106E-1,-7.460821152E0,-1.951346874E0
1.316620302E1,-3.206382394E-1,-6.969694138E0,-4.217349887E-1
1.318634119E1,-3.134597540E-1,-6.914659023E0,1.507478207E-1
1.320661026E1,1.004985496E-1,-8.404191017E0,-2.087737769E-1
1.322687937E1,-3.062812984E-1,-9.567701340E0,-1.580459356E0
1.324714843E1,-8.404789567E-1,-9.129216194E0,-1.097109199E0
1.326741755E1,-9.314061999E-1,-8.475975990E0,1.627119333E-1
1.328768661E1,-9.314061999E-1,-8.854042053E0,2.703889608E-1
1.330795573E1,-3.900300860E-1,-1.001037312E1,5.551348329E-1
1.332822479E1,-7.513462901E-1,-1.039801121E1,6.125625968E-1
1.334849385E1,-1.455434322E0,-1.095613670E1,3.517449200E-1
1.336889385E1,-1.070189953E0,-1.216989613E1,-3.068794906E-1
1.338903203E1,2.009970993E-1,-1.309890938E1,-8.548358679E-1
1.340930114E1,1.530210137E0,-1.255813122E1,-7.926225066E-1
1.342957020E1,2.710469961E0,-1.181815147E1,3.852444589E-1
1.344983927E1,2.157129526E0,-1.264905834E1,8.039883971E-1
1.347010838E1,-1.144367456E0,-1.396810246E1,-4.241278172E-1
1.349037744E1,-3.102892876E0,-1.502632809E1,-3.930211067E-1
1.351064651E1,-3.507279873E0,-1.635972786E1,-7.734799385E-1
1.353091562E1,-3.533600807E0,-1.449691582E1,-1.609173179E0
1.355118468E1,-2.968894720E0,-1.254856014E1,-3.011965513E0
1.357145375E1,-1.610967875E0,-1.201436234E1,-2.973680258E0
1.359186171E1,-5.144568682E-1,-1.189472103E1,-2.990430117E0
1.361214052E1,-1.362114310E0,-1.285484123E1,-3.371487141E0
1.363225406E1,-3.979264021E0,-1.375035572E1,-2.078166485E0
1.365252453E1,-5.927619934E0,-1.382931805E1,-7.615157962E-1
1.367279474E1,-4.316651821E0,-1.268255806E1,-7.256234884E-1
1.369306468E1,-1.858026743E0,-1.114756203E1,-1.121037364E0
1.371333442E1,-8.907282352E-1,-1.047278690E1,-1.456032634E0
1.373360411E1,-7.082754970E-1,-1.013479996E1,-9.290133715E-1
1.375387359E1,-1.118046403E0,-9.366703987E0,-6.370890141E-1
1.377414307E1,-1.646860242E0,-8.245666504E0,-1.355534077E0
1.379441239E1,-1.000798106E0,-6.522236347E0,-6.873382926E-1
1.381468171E1,7.375875711E-1,-4.956133842E0,-4.049852192E-1
1.383495104E1,1.724028707E0,-5.104488850E0,-1.939382792E0
1.385522026E1,7.878368497E-1,-6.210571289E0,-1.920240164E0
1.387548942E1,1.435693540E-2,-6.823731899E0,-2.200798512E0
1.389575854E1,-4.331009090E-1,-5.880361557E0,-2.399402857E0
1.391602770E1,3.044866920E-1,-4.257429600E0,-2.399402857E0
1.393629682E1,5.581258535E-1,-2.995215654E0,-2.018345833E0
1.395656593E1,-3.996013701E-1,-7.399803996E-1,-1.341177106E0
1.397683510E1,-2.219342947E0,3.900300860E-1,-2.035095692E0
1.399710421E1,-1.977667928E0,-2.350948304E-1,-4.434498787E0
1.401737328E1,-1.474576950E0,-1.221535921E0,-6.342774391E0
1.403764234E1,-2.520838737E0,-1.489532113E0,-7.110870838E0
1.405791145E1,-5.683551788E0,-4.453640938E0,-1.908934021E1
1.407818052E1,-5.479564071E-1,-1.691546059E1,-1.819622040E1
1.409844963E1,9.215357780E0,-2.858705139E1,9.269794464E0
1.411871869E1,-1.788036704E0,-1.211964703E1,-1.288116264E1
1.413898776E1,4.911268353E-1,-2.473580360E0,-2.330011129E0
1.415938781E1,-1.682752490E0,2.201396823E-1,-3.713660717E0
1.417952593E1,-3.495315790E0,-7.079763889E0,-3.577269793E0
1.419979500E1,-2.930609465E0,-1.680060577E1,-6.658028960E-1
1.422006401E1,2.015953064E0,-1.753998756E1,-1.783849239E0
1.424033307E1,4.264009953E0,-1.214596748E1,-3.146561861E0
1.426060213E1,3.038286448E0,-9.088538170E0,-2.509472847E0
1.428087119E1,8.668000102E-1,-8.815756798E0,-1.867598057E0
1.430114026E1,-3.278166950E-1,-9.102895737E0,-8.213363886E-1
1.432140932E1,1.914258115E-2,-9.294321060E0,-3.379862010E-1
1.434167838E1,-5.312066078E-1,-8.992825508E0,-1.075573802E0
1.436207838E1,-4.235295951E-1,-8.727222443E0,-7.256234884E-1
1.438221645E1,3.188436031E-1,-8.645866394E0,-3.332005441E-1
1.440248552E1,5.581258535E-1,-8.619544983E0,-7.238288224E-2
1.442275458E1,1.316052526E-1,-8.152346611E0,-6.538388133E-1
1.444302364E1,1.746760458E-1,-7.747959614E0,-5.820540786E-1
1.446342364E1,1.300499082E0,-7.951349735E0,-1.633101404E-1
1.448356171E1,1.377069473E0,-8.322834969E0,-1.800599098E-1
1.450383078E1,7.591229677E-1,-8.743971825E0,-1.043868899E0
1.452409984E1,9.768698215E-1,-9.567701340E0,-1.410568953E0
1.454436890E1,1.043868899E0,-1.011087227E1,-1.113858938E0
1.456476890E1,2.392822653E-1,-9.907482147E0,-1.446461320E0
1.458490698E1,6.460621208E-2,-9.787840843E0,-1.341177106E0
1.460517604E1,-2.871387303E-1,-1.050628567E1,-8.452646136E-1
1.462544505E1,-4.474578202E-1,-1.089153004E1,-1.776670814E-1
1.464571411E1,2.392822690E-2,-1.108056355E1,-2.111666054E-1
1.466611411E1,8.428717852E-1,-1.155733299E1,-1.345962733E-1
1.468625218E1,1.216152072E0,-1.142991543E1,-1.465603858E-1
1.470652125E1,9.840483069E-1,-1.155015469E1,-2.494517565E-1
1.472679026E1,6.394818425E-1,-1.263948727E1,-1.274178028E-1
1.474705932E1,-3.780659735E-1,-1.361157131E1,-5.324030295E-2
1.476745932E1,-1.481755376E0,-1.602234077E1,-4.193421602E-1
1.478759739E1,-2.267199516E0,-1.659422493E1,-1.676172256E0
1.480786640E1,-2.059023857E0,-1.553599930E1,-3.033500910E0
1.482813546E1,-1.692323804E0,-1.298405361E1,-3.756731510E0
1.484840448E1,-1.273579836E0,-1.237328625E1,-3.615555048E0
1.486867354E1,-1.051047325E0,-1.304387474E1,-3.902693748E0
1.488894255E1,-6.269195080E-1,-1.430549049E1,-3.943371773E0
1.490921161E1,-8.668000102E-1,-1.402313709E1,-2.263011932E0
1.492948062E1,-2.933002472E0,-1.366421413E1,-2.662015259E-1
1.494974968E1,-4.065405846E0,-1.284048462E1,8.853443861E-1
1.497001869E1,-2.341377020E0,-1.055892849E1,7.776673436E-1
1.499028776E1,-1.074975610E0,-8.894720078E0,1.938186288E-1
1.501055677E1,-4.211367965E-1,-8.978468895E0,2.512463629E-1
1.503082583E1,-1.409970760E0,-8.851649284E0,-1.872383714E0
1.505109484E1,-2.066202402E0,-7.310073376E0,-3.100499868E0
1.507136385E1,-6.675975323E-1,-5.968895912E0,-1.965703845E0
1.509163291E1,1.149153113E0,-5.736792088E0,-1.283749342E0
1.511190192E1,1.580459356E0,-6.311667919E0,-1.111466169E0
1.513217098E1,4.791627228E-1,-6.840481758E0,-1.759921074E0
1.515244005E1,6.699903309E-2,-6.929016113E0,-2.507079840E0
1.517270906E1,-1.555334777E-1,-6.093322754E0,-2.461616278E0
1.519297812E1,-8.787640929E-1,-4.865206718E0,-2.385046005E0
1.521324713E1,-8.237292171E-1,-3.462414265E0,-2.078166485E0
1.523351619E1,-1.587039590E0,-1.858026743E0,-2.241476536E0
1.525378520E1,-1.520040631E0,-3.738785386E-1,-2.789433002E0
1.527405427E1,-8.883354068E-1,5.742774159E-2,-3.945764542E0
1.529432333E1,7.686942816E-1,-8.955138922E-1,-6.153143406E0
1.531459234E1,1.893919110E0,-2.399402857E0,-1.101117134E1
1.533486140E1,2.173879385E0,-8.870791435E0,-2.312364006E1
1.535513046E1,3.076571703E0,-1.968036842E1,3.636492252E0
1.537539953E1,-4.764110088E0,-1.740359688E1,-7.036693096E0
1.539566859E1,-7.561319470E-1,-1.059721375E1,-4.010370731E0
1.541593760E1,-4.369294167E0,-3.349951744E0,-4.281357765E0
1.543620666E1,-4.067798555E-1,-4.692923546E0,-3.126821041E0
1.545647572E1,-3.193820000E0,-1.200718403E1,-4.987240791E0
1.547674479E1,-4.043870270E-1,-1.755195236E1,-1.889133453E0
1.549701385E1,3.393022537E0,-1.424088383E1,-2.844467878E0
1.551728291E1,3.342175007E0,-1.053499985E1,-3.134597778E0
1.553755198E1,2.018345833E0,-8.710473061E0,-1.886740685E0
1.555782099E1,5.581258535E-1,-8.705686569E0,-1.173679471E0
1.557809005E1,4.815555513E-1,-9.315856934E0,-3.379862010E-1
1.559835911E1,1.187438250E0,-9.488738060E0,-7.160521746E-1
1.561862817E1,1.659422517E0,-9.323035240E0,-1.829312921E0
1.563889729E1,1.139581800E0,-8.743971825E0,-2.061416626E0
1.565916635E1,5.748756528E-1,-8.281558990E0,-1.223928809E0
1.567943541E1,-5.168496966E-1,-8.276773453E0,-6.849454641E-1
1.569970448E1,-1.235294700E0,-8.013563156E0,2.153540403E-2
1.571997354E1,-1.326221943E0,-7.755138397E0,-7.304090858E-1
1.574024260E1,-1.076770201E-1,-8.303094864E0,-1.075573802E0
1.576051166E1,1.357926846E0,-8.983254433E0,-1.259821177E0
1.578078073E1,1.640279889E0,-9.100502968E0,-1.637887120E0
1.580104979E1,1.240080357E0,-9.236893654E0,-1.520638824E0
1.582131885E1,9.672985673E-1,-9.689735413E0,-8.644071817E-1
1.584159593E1,5.389832854E-1,-9.795019150E0,-6.203392744E-1
1.586193421E1,-2.703889608E-1,-9.594022751E0,-8.141579032E-1
1.588212494E1,-4.809573591E-1,-9.795019150E0,-9.870393574E-2
1.590239421E1,-9.864411354E-1,-9.701699257E0,4.307080805E-2
1.592266354E1,-1.235294700E0,-9.806983948E0,-1.417747438E-1
1.594293260E1,-6.652047038E-1,-1.025444126E1,-3.547359705E-1
1.596333276E1,-4.307080805E-1,-1.038126087E1,-2.063809484E-1
1.598347109E1,-7.034898400E-1,-1.014915752E1,-2.691925503E-2
1.600374020E1,-2.512463629E-1,-1.088195896E1,5.407779217E-1
1.602400937E1,9.332008660E-2,-1.131027412E1,7.992027402E-1
1.604427843E1,5.796613097E-1,-1.162911797E1,1.153938770E0
1.606467848E1,3.714857101E-1,-1.167458153E1,1.149153113E0
1.608481671E1,-1.677966833E0,-1.319462204E1,-1.752742529E-1
1.610508583E1,-3.033500910E0,-1.467936897E1,-3.403790295E-1
1.612535500E1,-1.615753531E0,-1.597209072E1,-5.084748194E-2
1.614562406E1,-1.378864050E0,-1.550249958E1,2.057827413E-1
1.616602406E1,-2.633301258E0,-1.307258797E1,-6.155536175E-1
1.618616229E1,-2.681157827E0,-1.238285732E1,-2.274976015E0
1.620643140E1,-2.228914261E0,-1.200718403E1,-3.383451223E0
1.622670052E1,-1.642074585E0,-1.239960670E1,-3.888336897E0
1.624696958E1,1.459621787E-1,-1.271605778E1,-3.400201082E0
1.626723875E1,2.255235434E0,-1.196172047E1,-2.361117840E0
1.628750781E1,2.866003275E0,-1.118106174E1,-6.251249313E-1
1.630777692E1,2.329412937E0,-1.104227829E1,6.891329288E-1
1.632804604E1,1.252044439E0,-1.088195896E1,1.811964989E0
1.634831510E1,-2.656033039E-1,-1.041296577E1,2.662015200E0
1.636858421E1,-2.362912416E0,-1.008694363E1,3.294318676E0
1.638885333E1,-3.991228104E0,-9.167501450E0,2.786442041E0
1.640912239E1,-4.307080746E0,-7.475177765E0,-5.940182209E-1
1.642939151E1,-3.713062525E0,-7.036693096E0,-3.347558975E0
1.644966062E1,-5.862415433E-1,-7.520641804E0,-7.974081635E-1
1.646992974E1,1.805384636E0,-8.130811691E0,-1.594816327E0
1.649019880E1,1.379462242E0,-7.702496052E0,-1.113858938E0
1.651046791E1,-9.571290575E-3,-7.043871880E0,-2.901297510E-1
1.653073703E1,-4.618147612E-1,-6.716054916E0,-3.044866920E-1
1.655100614E1,-3.110669553E-1,-6.601199627E0,-1.007976532E0
1.657127526E1,-3.565305769E-1,-6.558128834E0,-1.252642632E0
1.659154437E1,-8.476574421E-1,-6.335596085E0,-1.073180914E0
1.661180171E1,-1.768894196E0,-5.696114540E0,-9.553344250E-1
1.663195296E1,-2.183450699E0,-4.590032101E0,-8.285148144E-1
1.665234901E1,-2.669193745E0,-3.713660717E0,-9.074779749E-1
1.667261828E1,-3.129213810E0,-3.562912941E0,-1.140179992E0
1.669288791E1,-3.229712248E0,-4.173680782E0,-1.913061738E0
1.671315739E1,-2.702693224E0,-5.777470112E0,-4.216751575E0
1.673342682E1,-6.580262184E-1,-9.002396584E0,-9.074181557E0
1.675369625E1,5.576473236E0,-1.503111362E1,-1.296251869E1
1.677396562E1,8.772686005E0,-1.571605873E1,-1.027358437E1
1.679423494E1,5.961717606E0,-9.926624298E0,-7.700103283E0
1.681450416E1,2.461616278E0,-6.823731899E0,-5.037489891E0
1.683477343E1,-1.483550072E-1,-5.973681927E0,-3.316452265E0
1.685504255E1,-3.638885021E0,-1.435573959E1,-1.597209096E0
1.687531177E1,-7.831110477E0,-2.310449791E1,-7.566105366E0
1.689558099E1,-5.200201988E0,-2.093779564E1,-1.609891129E1
1.691585015E1,6.323033571E-1,-8.554939270E0,-2.432902336E0
1.693611932E1,-1.682752490E0,1.244267747E-1,6.061617851E0
1.695638843E1,-1.168295622E0,-2.733799815E-1,7.943572998E0
1.697665760E1,3.355933726E-1,-6.318846226E0,4.804787636E0
1.699692677E1,2.157129526E0,-1.608455467E1,-1.130608678E0
1.701719593E1,6.826124668E0,-1.820818329E1,-1.010369420E0
1.703746510E1,4.328616142E0,-1.189232826E1,-2.198405743E0
1.705773427E1,-1.387837082E-1,-7.898707390E0,-1.917847395E0
1.707800338E1,-2.353341103E0,-7.834101200E0,1.387837082E-1
1.709827255E1,-3.433102369E0,-8.432905197E0,1.120439172E0
1.711854166E1,-2.159522533E0,-9.172286987E0,1.321436286E0
1.713881083E1,-1.235294700E0,-9.028717995E0,-5.820540786E-1
1.715908000E1,-8.476574421E-1,-9.275178909E0,-2.349153519E0
1.717934916E1,2.877369225E-1,-9.742377281E0,-7.471588850E-1
1.719961828E1,1.400997639E0,-9.515059471E0,8.853443861E-1
1.721988744E1,8.356932998E-1,-8.614759445E0,2.632104978E-2
1.724015661E1,-1.268195957E-1,-8.437690735E0,-1.144965649E0
1.726042572E1,-6.029912829E-1,-9.110074043E0,-5.820540786E-1
1.728069489E1,-1.661217093E0,-8.973683357E0,1.531406492E-1
1.730096401E1,-2.221735716E0,-8.598010063E0,8.279166222E-1
1.732123322E1,-2.073380709E0,-9.014361382E0,1.024128079E0
1.734150234E1,-1.613360643E0,-1.045364380E1,-5.796613097E-1
1.736177151E1,-1.094118118E0,-1.239721394E1,-2.492722988E0
1.738204067E1,-4.570291340E-1,-1.285723400E1,-2.485544443E0
1.740230984E1,3.882354796E-1,-1.088913727E1,-2.389831543E0
1.742257901E1,2.837289333E0,-1.068335533E1,-8.524430394E-1
1.744284817E1,5.441876888E0,-1.127677536E1,3.517449200E-1
1.746324817E1,4.503890514E0,-1.109970570E1,-1.034297585E0
1.748338651E1,1.310070395E0,-1.288594818E1,-2.320439816E0
1.750365567E1,-3.613162339E-1,-1.365703487E1,-2.947359324E0
1.752392484E1,7.710871100E-1,-1.388913918E1,-2.820539713E0
1.754419401E1,7.830511928E-1,-1.477986717E1,-3.704089403E0
1.756459401E1,-8.261220455E-1,-1.377667618E1,-2.971287489E0
1.758473234E1,-1.505683661E0,-1.183968639E1,-1.508674622E0
1.760500151E1,-1.610967875E0,-1.364267826E1,6.364908218E-1
1.762527072E1,-1.125224829E0,-1.434138298E1,4.469792843E0
1.764553989E1,-3.876372576E-1,-1.234217930E1,4.886143684E0
1.766593989E1,2.757728100E-1,-9.038289070E0,7.896314859E-1
1.768607823E1,1.039083242E0,-9.217751503E0,-8.835497499E-1
1.770634744E1,2.001596212E0,-1.024487019E1,-6.729813814E-1
1.772661661E1,1.108475089E0,-1.096810055E1,-9.361918569E-1
1.774688578E1,-2.344966233E-1,-1.075992489E1,1.076770201E-1
1.776728578E1,-8.237292171E-1,-9.601201057E0,9.762716293E-1
1.778742416E1,-1.390828133E0,-8.344370842E0,8.087740541E-1
1.780769338E1,-1.613360643E0,-7.156334400E0,7.130611539E-1
1.782796255E1,-1.622931957E0,-6.119643688E0,5.479564071E-1
1.784823177E1,-1.721037745E0,-5.161916733E0,-4.313062727E-1
1.786863177E1,-2.279163599E0,-4.925027370E0,-2.066202402E0
1.788877015E1,-2.561516523E0,-4.846064091E0,-2.818146944E0
1.790903932E1,-2.432304144E0,-5.633901119E0,-3.114856958E0
1.792930854E1,-1.457827210E0,-8.092526436E0,-3.634697676E0
1.794957770E1,5.198407173E-1,-1.111406326E1,-4.570889473E0
1.796984692E1,1.185045362E0,-1.205025482E1,-6.515058041E0
1.799011609E1,2.526222467E0,-1.053739262E1,-7.917850018E0
1.801038531E1,5.413163185E0,-8.854042053E0,-5.736792088E0
1.803065453E1,7.101299286E0,-8.044670105E0,-2.863610506E0
1.805092369E1,7.256833076E0,-8.195417404E0,-3.440878868E0
1.807119291E1,6.296712875E0,-8.765507698E0,-1.460818172E0
1.809146208E1,4.208974838E0,-1.103988552E1,2.317448616E0
1.811173130E1,-8.141579032E-1,-1.865324974E1,-2.997010350E-1
1.813200052E1,-3.519243956E0,-2.085404778E1,-1.125523949E1
1.815226974E1,-1.901097536E0,-7.879564762E0,-4.752744198E0
1.817253890E1,-5.827121258E0,-2.337189436E0,7.992027402E-1
1.819280812E1,-4.046263218E0,-3.768695593E0,8.056035995E0
1.821307734E1,-3.342175007E0,-6.852446079E0,6.863811970E0
1.823334656E1,-3.399602890E0,-1.396092415E1,6.795616150E-1
1.825361572E1,1.331605792E0,-1.784447479E1,-4.422534466E0
1.827388494E1,5.212165833E0,-1.327119255E1,-3.297309637E0
1.829415416E1,1.338784218E0,-8.956933022E0,-1.843669891E0
1.831442338E1,-3.062214851E0,-8.056633949E0,8.279166222E-1
1.833469255E1,-6.067001820E0,-7.936992645E0,1.718644857E0
1.835496177E1,-4.003192425E0,-8.502297401E0,6.747759581E-1
1.837523098E1,-9.332008660E-2,-9.191430092E0,-8.913264424E-2
1.839550015E1,1.208973646E0,-9.189037323E0,-2.150549412E0
1.841576937E1,8.356932998E-1,-9.141180992E0,-1.585245013E0
1.843603859E1,-4.594219327E-1,-9.277571678E0,-2.805584669E-1
1.845630781E1,-1.378864050E0,-9.783055305E0,-5.892325640E-1
1.847657698E1,-7.902296782E-1,-1.003908730E1,-5.988038778E-1
1.849684619E1,-5.718846321E-1,-9.318249702E0,-4.845465720E-2
1.851711541E1,-1.398006678E0,-8.708079338E0,7.680960894E-1
1.853738463E1,-2.638087034E0,-9.358927727E0,8.566305041E-1
1.855765385E1,-2.961716175E0,-9.615557671E0,6.484549642E-1
1.857792307E1,-2.645265341E0,-9.062217712E0,9.762716293E-1
1.859819224E1,-1.804786444E0,-8.777471542E0,2.367697954E0
1.861846145E1,-1.266401410E0,-8.712865829E0,3.087937593E0
1.863873067E1,-1.141974568E0,-9.131608963E0,2.377269268E0
1.865913067E1,-9.744769931E-1,-1.085563850E1,1.177866936E0
1.867926911E1,-1.019940615E0,-1.189472103E1,1.627119333E-1
1.869953833E1,-5.240281820E-1,-1.261795235E1,-4.025924206E-1
1.871980724E1,-2.679961324E-1,-1.285005569E1,-6.538388133E-1
1.874007671E1,-2.703889608E-1,-1.240199947E1,-5.198407173E-1
1.876034593E1,-1.196411345E-2,-1.287637711E1,-7.399803996E-1
1.878061515E1,5.557330847E-1,-1.456929874E1,-6.759724021E-2
1.880088437E1,3.140579760E-1,-1.498086452E1,-7.956135273E-2
1.882115359E1,-2.389233351E0,-1.789472389E1,-4.003192425E0
1.884142281E1,-2.310270309E0,-1.481815243E1,-4.920241356E0
1.886169203E1,1.225723386E0,-1.157647610E1,-3.917050600E0
1.888209203E1,3.562912941E0,-1.185882950E1,-4.575675011E0
1.890223046E1,4.470390797E0,-1.454955769E1,-1.680957913E0
1.892249968E1,2.674577475E0,-1.703510284E1,1.402792215E0
1.894276890E1,-1.622931957E0,-1.765005875E1,2.896511793E0
1.896316890E1,-4.383651257E0,-1.591227055E1,4.359723091E0
1.898330734E1,-5.133202553E0,-1.370249844E1,3.583850145E0
1.900357656E1,-3.979264021E0,-1.188275719E1,1.960319996E0
1.902384578E1,-2.798406124E0,-1.004148006E1,4.091726840E-1
1.904411500E1,-2.281556368E0,-9.088538170E0,1.565504193E0
1.906451500E1,-1.034297585E0,-8.330014229E0,1.503290772E0
1.908465343E1,-4.019941986E-1,-8.609973907E0,-3.112463951E0
1.910492265E1,2.516651154E0,-1.023769188E1,-3.723232031E0
1.912519187E1,1.996810555E0,-1.037168980E1,-9.696913958E-1
1.914546109E1,-5.144568682E-1,-9.339784622E0,1.165902853E0
1.916586109E1,-1.884347796E0,-8.363512993E0,4.354937077E-1
1.918599953E1,-2.918645382E0,-6.940980434E0,-6.281159073E-2
1.920626875E1,-4.570291042E0,-5.054239750E0,-4.887340367E-1
1.922653796E1,-5.056632519E0,-2.937788010E0,-1.223928809E0
1.924680718E1,-3.631706476E0,-1.913061738E0,-2.066202402E0
1.926707640E1,-1.199402332E0,-1.867598057E0,-3.637090445E0
1.928734562E1,1.353141189E0,-2.801397085E0,-5.942574978E0
1.930761484E1,4.194618225E0,-4.745565414E0,-7.951349735E0
1.932788411E1,6.095715523E0,-4.747958183E0,-7.616354465E0
1.934815333E1,4.762315273E0,-3.321237803E0,-6.232106686E0
1.936842255E1,9.002995491E-1,-2.148156643E0,-5.157131195E0
1.938869177E1,-5.267200947E0,-8.189435601E-1,-3.917050600E0
1.940896104E1,-1.281595802E1,-2.078166485E0,-6.816553593E0
1.942923026E1,-6.684350014E0,-1.572563076E1,-3.211168051E0
1.944949948E1,-8.644071817E-1,-2.975774002E1,-4.939383984E0
1.946976869E1,1.826920033E0,-2.164607239E1,-6.900302410E0
1.949003791E1,1.441675663E0,-7.846065521E0,-2.566900492E0
1.951030713E1,-3.334996462E0,-6.658627033E0,-1.783849239E0
1.953057635E1,-5.939583778E0,-1.038843918E1,-1.166501045E0
1.955084552E1,-5.044668198E0,-1.578066540E1,-2.559721947E0
1.957111474E1,1.627119333E-1,-1.807179260E1,-4.444069862E0
1.959138401E1,2.619542599E0,-1.258923817E1,-3.574877024E0
1.961165317E1,1.590030670E0,-7.396214962E0,-2.432902336E0
1.963192234E1,1.477568030E0,-5.581258774E0,-2.082952023E0
1.965219156E1,2.303091764E0,-6.282954216E0,-1.599601984E0
1.967246078E1,3.114856958E0,-7.898707390E0,-1.408176184E0
1.969273000E1,3.212962627E0,-8.672187805E0,-1.156929731E0
1.971299921E1,2.933002472E0,-8.243273735E0,-1.231107235E0
1.973326843E1,2.233700037E0,-7.640282631E0,-1.087537885E0
1.975353765E1,1.578066587E0,-7.752745152E0,-3.595215976E-1
1.977380687E1,7.591229677E-1,-7.903493404E0,-2.398804724E-1
1.979407609E1,-9.553344250E-1,-8.106883049E0,-1.513460279E-1
1.981434526E1,-2.635694027E0,-7.936992645E0,1.986042857E-1
1.983461448E1,-3.543172121E0,-7.700103283E0,1.986042857E-1
1.985488369E1,-4.134797573E0,-8.097311974E0,8.087740541E-1
1.987515291E1,-4.204189301E0,-8.542975426E0,1.735394597E0
1.989542213E1,-3.162713289E0,-8.818149567E0,1.240080357E0
1.991569135E1,-2.044667006E0,-1.019940662E1,-5.102694035E-1
1.993596052E1,3.475574851E-1,-1.224646664E1,-2.757728100E-1
1.995622974E1,2.475973129E0,-1.371924877E1,-2.494517565E-1
1.997649895E1,2.827718258E0,-1.459322739E1,-1.869990945E0
1.999676817E1,1.417747378E0,-1.471286869E1,-2.844467878E0
2.001703739E1,2.638086975E-1,-1.464347649E1,-2.011167526E0
2.003730656E1,5.126622319E-1,-1.614198112E1,-7.399803996E-1
2.005757578E1,-9.242277741E-1,-1.592423439E1,-8.979067206E-1
2.007784500E1,-4.670789719E0,-1.733181190E1,-2.267797709E0
2.009811421E1,-8.647661209E0,-1.625922966E1,-3.469592810E0
2.011838343E1,-7.132406235E0,-1.275434303E1,-3.488735437E0
2.013865260E1,-3.071786165E0,-1.126481056E1,-2.877967358E0
2.015892182E1,-1.587039590E0,-1.301994610E1,-2.179263115E0
2.017919104E1,-1.982453585E0,-1.483968830E1,-1.704886109E-1
2.019946020E1,-2.940180779E0,-1.361157131E1,1.029511929E0
2.021986020E1,-3.148356438E0,-1.088435173E1,1.443470240E0
2.023999864E1,-1.730608940E0,-9.303893089E0,1.713859200E0
2.026026781E1,-1.156331539E0,-8.882756233E0,8.805587292E-1
2.028053703E1,-1.199402332E0,-8.648259163E0,-5.054838061E-1
2.030080625E1,-1.053440213E0,-7.860422611E0,-1.726421595E0
2.032107546E1,-3.302095234E-1,-6.931408882E0,-2.880360365E0
2.034134073E1,-5.599204898E-1,-5.830112457E0,-1.953739643E0
2.036157531E1,1.483550072E-1,-5.487938881E0,-7.280163169E-1
2.038188369E1,-2.679961324E-1,-5.267798901E0,-1.106680483E-1
2.040215270E1,-2.153540403E-1,-5.135595798E0,-1.489532143E-1
2.042242182E1,-3.828516230E-2,-4.688137531E0,-7.615157962E-1
2.044269099E1,2.057827413E-1,-4.183252335E0,-1.645065546E0
2.046309093E1,-2.799602449E-1,-3.388236761E0,-2.035095692E0
2.048322927E1,-1.409970760E0,-1.798206210E0,-1.874776483E0
2.050349838E1,-2.209771633E0,-4.456632137E-1,-2.552543640E0
2.052376760E1,-2.523231506E0,-4.001995921E-1,-4.719244480E0
2.054403677E1,-2.654836655E0,-1.070788145E0,-8.574081421E0
2.056443671E1,-3.241676569E0,-5.459224701E0,-1.745863152E1
2.058457510E1,5.626722336E0,-2.590051079E1,3.715455294E0
2.060484432E1,2.770290375E0,-3.069393158E1,-1.140120125E1
2.062511354E1,4.241278172E-1,-9.189037323E0,-3.112463951E0
2.064538270E1,-2.145165443E0,-8.261220455E-1,-1.817348838E0
2.066578265E1,-4.338187218E0,-1.271785259E0,-2.320439816E0
2.068592104E1,-4.560719967E0,-1.065703392E1,-1.365105271E0
2.070619020E1,-2.324627161E0,-1.893380737E1,-6.083751321E-1
2.072645942E1,1.913061738E0,-1.681974792E1,-8.189435601E-1
2.074672859E1,2.104487419E0,-1.066421223E1,-2.528615236E0
2.076712859E1,7.710871100E-1,-7.700103283E0,-1.214357495E0
2.078726698E1,-6.675975323E-1,-6.720840454E0,2.632104978E-2
2.080753609E1,-1.654038668E0,-6.938587666E0,-1.202393398E-1
2.082780520E1,-9.792626500E-1,-8.056633949E0,-5.802594870E-2
2.084807448E1,-3.828516230E-2,-9.004789352E0,-4.366901144E-2
2.086834364E1,7.519445419E-1,-8.897112846E0,-5.389832854E-1
2.088861281E1,3.882354796E-1,-8.044670105E0,-1.920240164E0
2.090888198E1,-1.148554832E-1,-7.946564198E0,-1.972882271E0
2.092915119E1,2.709871531E-1,-8.221738815E0,-6.610172391E-1
2.094942036E1,1.194616675E0,-8.952147484E0,6.508477330E-1
2.096968953E1,1.470389485E0,-9.184251785E0,5.647061467E-1
2.098995869E1,2.153540403E-1,-9.279964447E0,-1.561316848E-1
2.101022791E1,-1.388435364E0,-9.890732765E0,-7.088736892E-1
2.103049708E1,-1.920240164E0,-9.802198410E0,-3.930211067E-1
2.105076625E1,-1.780858278E0,-9.567701340E0,2.967100143E-1
2.107103541E1,-2.003988981E0,-1.010847950E1,4.666004181E-1
2.109130458E1,-2.228914261E0,-1.121456146E1,1.076770201E-1
2.111157375E1,-2.257628202E0,-1.214357471E1,-4.791627228E-1
2.113197375E1,-1.350150228E0,-1.267059422E1,-5.964110494E-1
2.115211213E1,1.914258115E-2,-1.294337559E1,-4.265206456E-1
2.117238130E1,1.015154958E0,-1.251506042E1,-8.524430394E-1
2.119265046E1,1.791027784E0,-1.363310719E1,-1.051047325E0
2.121291963E1,2.183450699E0,-1.475354576E1,-6.610172391E-1
2.123318880E1,2.805584669E-1,-1.607258987E1,1.914258115E-2
2.125345796E1,-4.443471432E0,-1.687957001E1,-4.097708762E-1
2.127372713E1,-6.404389858E0,-1.470808220E1,-2.499901533E0
2.129399630E1,-4.536791801E0,-1.195693493E1,-4.374678135E0
2.131426546E1,-2.650051117E0,-1.197607708E1,-5.289334297E0
2.133453463E1,-1.278365493E0,-1.373599815E1,-4.996811867E0
2.135480380E1,-5.838487148E-1,-1.449452305E1,-2.978466034E0
2.137507296E1,-1.658824325E0,-1.358046532E1,-9.631111473E-2
2.139534208E1,-2.937788010E0,-1.185404301E1,1.967498422E0
2.141561125E1,-2.921038151E0,-9.486345291E0,2.908475876E0
2.143588041E1,-2.293520451E0,-8.276773453E0,3.097508907E0
2.145614958E1,-2.068595171E0,-7.055835724E0,2.812762976E0
2.147641875E1,-1.448255897E0,-6.198606968E0,-1.101894855E0
2.149668791E1,-8.853443712E-2,-7.465606689E0,-7.228118896E0
2.151695708E1,-9.092725813E-2,-8.471190453E0,-3.620340586E0
2.153722625E1,-8.285148144E-1,-8.044670105E0,-2.901297510E-1
2.155749536E1,-1.563111424E0,-7.439285755E0,-8.117650747E-1
2.157776448E1,-2.608176768E-1,-6.799803734E0,-1.618744493E0
2.159803369E1,1.052841991E-1,-6.217749596E0,-1.915454507E0
2.161830286E1,-8.524430394E-1,-5.051846981E0,-1.843669891E0
2.163857203E1,-1.426720500E0,-3.510270834E0,-1.726421595E0
2.165884114E1,-1.486541033E0,-1.927418590E0,-1.855633974E0
2.167911031E1,-1.017547846E0,-5.629115105E-1,-2.239083767E0
2.169937948E1,-7.806583643E-1,1.292124242E-1,-3.102892876E0
2.171964864E1,2.464607358E-1,-3.499503136E-1,-5.126024246E0
2.173991776E1,1.922633052E0,-2.167299032E0,-8.030312538E0
2.176018692E1,5.294120312E-1,-4.146761417E0,-1.354696560E1
2.178045609E1,-3.232105255E0,-1.048714352E1,-1.821296883E1
2.180072526E1,1.604387641E0,-2.352563477E1,3.143570662E0
2.182099442E1,-1.742573142E0,-1.840918159E1,-8.921041489E0
2.184126354E1,-3.926621914E0,-6.828517437E0,-4.460819721E0
2.186153270E1,-3.282354355E0,-1.434497118E0,-3.409772158E0
2.188180187E1,-5.267200947E0,-5.370690346E0,-4.074976921E0
2.190207104E1,-4.610969067E0,-1.467458344E1,-5.533402562E-1
2.192234015E1,-7.830511928E-1,-1.717867279E1,-1.324427366E0
2.194260932E1,2.995215654E0,-1.400160217E1,-2.600399971E0
2.196300932E1,2.387438774E0,-1.022572803E1,-2.032702923E0
2.198314760E1,9.122636318E-1,-8.428119659E0,-7.830511928E-1
2.200341677E1,-2.129612118E-1,-8.588438988E0,-2.494517565E-1
2.202368588E1,4.307080805E-2,-9.412167549E0,-2.781656384E-1
2.204395505E1,4.743770957E-1,-1.009172916E1,-1.164108157E0
2.206435505E1,1.866401732E-1,-9.921838760E0,-1.554138303E0
2.208449333E1,-4.067798331E-2,-9.303893089E0,-1.195214868E0
2.210476250E1,-2.943171859E-1,-8.109275818E0,-7.112665176E-1
2.212503161E1,-1.297508121E0,-7.554141045E0,7.896314561E-2
2.214530078E1,-1.089332461E0,-7.242475986E0,2.081755698E-1
2.216570078E1,-3.110669553E-1,-7.398607731E0,6.699903607E-1
2.218583906E1,1.034297585E0,-8.540582657E0,5.694918036E-1
2.220610817E1,2.698505640E0,-9.050253868E0,2.129612118E-1
2.222637734E1,2.971287489E0,-8.913862228E0,1.435693651E-1
2.224664645E1,7.782655358E-1,-8.787042618E0,2.632104978E-2
2.226691562E1,-1.788036704E0,-8.870791435E0,1.124626622E-1
2.228718474E1,-3.241676569E0,-8.822935104E0,9.092725813E-2
2.230745390E1,-2.995215654E0,-9.136395454E0,2.249253243E-1
2.232772307E1,-1.711466432E0,-1.001276588E1,-9.870393574E-2
2.234799218E1,-3.469592929E-1,-1.142752266E1,-1.154536903E-1
2.236839218E1,2.829512656E-1,-1.198564816E1,2.033899277E-1
2.238853046E1,1.986042857E-1,-1.154536915E1,2.392822690E-2
2.240879963E1,-6.005984545E-1,-1.176550865E1,-4.049852192E-1
2.242906875E1,-5.575276613E-1,-1.180140114E1,-4.289134443E-1
2.244933791E1,8.333004713E-1,-1.182532978E1,-3.188436031E-1
2.246960703E1,1.338784218E0,-1.117627621E1,-2.518445849E-1
2.248987619E1,6.873382926E-1,-1.148076344E1,-1.441675574E-1
2.251014531E1,-6.077769399E-1,-1.269452190E1,1.459621787E-1
2.253041448E1,-2.868396044E0,-1.461715508E1,-6.035895348E-1
2.255068359E1,-2.873181820E0,-1.348893929E1,-1.652244091E0
2.257095270E1,3.499503136E-1,-1.265384388E1,-1.726421595E0
2.259122187E1,1.148554832E-1,-1.234935760E1,-1.771885157E0
2.261149104E1,-2.128415823E0,-1.132463169E1,-2.131406784E0
2.263176015E1,-2.544766903E0,-1.068814087E1,-1.951346874E0
2.265202927E1,-2.861217737E0,-1.154297638E1,-5.653043389E-1
2.267229843E1,-4.015156269E0,-1.337169075E1,1.649253011E0
2.269256755E1,-4.599005222E0,-1.290509033E1,3.935595036E0
2.271283671E1,-3.191427231E0,-9.881160736E0,3.342175007E0
2.273310583E1,-1.170688510E0,-8.188239098E0,1.634896040E0
2.275337500E1,5.024927482E-2,-9.337391853E0,-1.276570916E0
2.277364411E1,5.724828243E-1,-1.096570778E1,-1.869990945E0
2.279391322E1,4.169493318E-1,-1.139402294E1,-1.092323542E0
2.281418239E1,-1.539183140E0,-1.060917759E1,-1.944168359E-1
2.283445151E1,-2.693121910E0,-9.344570160E0,2.273181528E-1
2.285472067E1,-2.496910334E0,-7.482356548E0,2.727817893E-1
2.287498979E1,-1.915454507E0,-6.059823513E0,-3.649054468E-2
2.289525890E1,-1.780858278E0,-5.406582832E0,3.589234129E-2
2.291552802E1,-1.936989903E0,-4.745565414E0,5.312066078E-1
2.293579718E1,-2.484946251E0,-3.560520172E0,3.469592929E-1
2.295606630E1,-2.824727058E0,-2.830111027E0,-9.152546525E-2
2.297633541E1,-2.980858803E0,-3.213560820E0,-1.286142230E0
2.299660453E1,-3.105285645E0,-4.487140656E0,-3.038286448E0
2.301687369E1,-3.461816072E0,-7.841279984E0,-6.309275150E0
2.303714281E1,4.049852192E-1,-1.621376610E1,-1.228714466E1
2.305741192E1,9.047860146E0,-2.326003075E1,-1.551924992E1
2.307768104E1,5.384449005E0,-1.388435364E1,-1.057328510E1
2.309795020E1,2.273181528E-1,-8.035098076E0,-7.197012424E0
2.311821932E1,-2.171486616E0,-4.496711731E0,-4.137190342E0
2.313848843E1,-3.102892876E0,-4.149154663E0,-1.934597135E0
2.315888843E1,-6.287141323E0,-1.491865063E1,3.361317635E0
2.317902666E1,-8.114061356E0,-1.595773411E1,-3.378665686E0
2.319929578E1,-4.412364960E0,-9.534201622E0,-1.257488155E1
2.321956489E1,1.791027784E0,-1.291226959E1,-1.314856052E0
2.323983406E1,3.059821844E0,-6.369095802E0,8.463413239E0
2.326010312E1,-8.135596663E-2,-5.861218929E0,5.853442192E0
2.328037229E1,-3.086143017E0,-8.423334122E0,1.596610904E0
2.330064140E1,-5.503492057E-2,-1.313719463E1,8.255237937E-1
2.332091052E1,2.442473650E0,-1.353500175E1,5.335994363E-1
2.334117963E1,9.218349457E-1,-1.141795158E1,-1.398604870E0
2.336144875E1,-2.188236237E0,-8.901898384E0,-1.314856052E0
2.338183661E1,-3.184248686E0,-7.951349735E0,9.714859724E-1
2.340198698E1,-3.581457376E0,-7.965706348E0,2.367697954E0
2.342225609E1,-4.438685894E0,-7.726424217E0,1.359721422E0
2.344252520E1,-3.717848301E0,-8.260024071E0,1.962114573E-1
2.346292520E1,-1.541576028E0,-9.095717430E0,-2.566302419E-1
2.348306343E1,2.614158690E-1,-9.615557671E0,-3.649054468E-2
2.350333255E1,7.591229677E-1,-9.629914284E0,-3.667000830E-1
2.352360166E1,9.218349457E-1,-9.351749420E0,-1.066002488E0
2.354387078E1,4.169493318E-1,-9.000003815E0,-1.657029629E0
2.356427078E1,-4.689932466E-1,-8.949754715E0,-1.405783296E0
2.358440901E1,-1.046261668E0,-8.913862228E0,-6.777670383E-1
2.360467812E1,-1.204187989E0,-9.038289070E0,4.546362907E-2
2.362494724E1,-1.230509043E0,-9.862018585E0,3.565305769E-1
2.364521635E1,-1.651645780E0,-1.093699455E1,-2.566302419E-1
2.366561635E1,-2.015953064E0,-1.145922756E1,-1.281356573E0
2.368575453E1,-1.426720500E0,-1.188275719E1,-1.101894855E0
2.370602364E1,1.292124242E-1,-1.179900837E1,-1.250249892E-1
2.372629276E1,2.382653236E0,-1.136291695E1,2.392822690E-2
2.374656187E1,3.744767427E0,-1.154776192E1,-4.863412082E-1
2.376696182E1,1.884347796E0,-1.239721394E1,-2.248655081E0
2.378710000E1,4.695914388E-1,-1.397288799E1,-2.653042078E0
2.380736911E1,5.581258535E-1,-1.556471348E1,-2.779861689E0
2.382763822E1,-2.727817893E-1,-1.464108372E1,-3.361915827E0
2.384790739E1,-1.003190875E0,-1.456212044E1,-3.945764542E0
2.386817651E1,-9.170492887E-1,-1.255573845E1,-2.772683144E0
2.388844557E1,-2.422732830E0,-1.163629627E1,-1.185643673E0
2.390871463E1,-4.646861553E0,-1.761655807E1,4.235295951E-1
2.392898375E1,-4.283152580E0,-1.898645020E1,2.492124796E0
2.394925286E1,-3.035893679E0,-1.450409412E1,1.615753531E0
2.396952203E1,-2.025524378E0,-1.181097221E1,7.322037220E-1
2.398979114E1,-6.771687865E-1,-1.178943729E1,7.369893789E-1
2.401006015E1,1.507478207E-1,-1.271127224E1,1.055832982E0
2.403032927E1,-7.752745152E-1,-1.204307652E1,-7.232306600E-1
2.405059838E1,-4.666004181E-1,-1.111406326E1,-7.423732281E-1
2.407086744E1,-2.967100143E-1,-1.049192905E1,-7.064808607E-1
2.409113656E1,-3.397808075E-1,-9.783055305E0,-4.911268353E-1
2.411140567E1,-1.682752490E0,-8.782257080E0,3.445664644E-1
2.413167479E1,-3.105285645E0,-7.417750359E0,3.732803464E-1
2.415194385E1,-3.854238987E0,-5.765506268E0,-5.533402562E-1
2.417221296E1,-4.010370731E0,-4.353142738E0,-1.611566067E0
2.419248208E1,-3.626920938E0,-3.885943890E0,-2.184048891E0
2.421275114E1,-3.277568817E0,-3.517449379E0,-2.806182861E0
2.423302026E1,-2.906681299E0,-3.627519131E0,-4.022335052E0
2.425328932E1,-1.041476011E0,-4.432105541E0,-5.997610092E0
2.427355843E1,8.261220455E-1,-5.808577061E0,-6.974479675E0
2.429382755E1,2.159522533E0,-5.813362598E0,-6.766304016E0
2.431409661E1,2.075773716E0,-4.917848587E0,-6.210571289E0
2.433436572E1,8.476574421E-1,-3.249453068E0,-5.310869694E0
2.435463484E1,-3.756731451E-1,-2.061416626E0,-5.700900078E0
2.437490390E1,-1.709073544E0,-1.436890006E0,-8.200202942E0
2.439517302E1,-3.205784082E0,-6.668198586E0,-1.919701767E1
2.441544213E1,-5.252843857E0,-2.460060883E1,-8.193024635E0
2.443571119E1,-1.560718536E0,-2.119622040E1,-3.404986620E0
2.445598031E1,-1.029511929E0,-4.429712772E0,-2.944966555E0
2.447624937E1,-1.764108539E0,-6.945167780E-1,-6.035895348E-1
2.449651843E1,-3.545564890E0,-5.509474277E0,-2.100300074E0
2.451678755E1,-5.985645771E0,-1.544028664E1,-1.680957913E0
2.453705666E1,-2.425125837E0,-2.108854485E1,-2.447259426E0
2.455732573E1,1.817348838E0,-1.406142235E1,-2.186441660E0
2.457759479E1,3.954139352E-1,-9.517452240E0,-2.032702923E0
2.459786390E1,-1.982453585E0,-7.977670670E0,-8.691928387E-1
2.461813296E1,-2.731407166E0,-7.771887779E0,-3.212364316E-1
2.463840208E1,-8.524430394E-1,-8.799007416E0,-3.978067636E-1
2.465867114E1,1.084546804E0,-9.895518303E0,-1.262213945E0
2.467894020E1,1.860419631E0,-9.495916367E0,-1.269392371E0
2.469920932E1,1.771885157E0,-8.173882484E0,-1.290927768E0
2.471947838E1,1.115653515E0,-7.360322475E0,-1.764706731E0
2.473974744E1,3.044866920E-1,-7.458428383E0,-1.877169371E0
2.476001651E1,-7.441678643E-1,-8.092526436E0,-1.635494232E0
2.478028562E1,-1.520040631E0,-9.246464729E0,-2.270190477E0
2.480055468E1,-1.244866014E0,-9.275178909E0,-2.916252613E0
2.482082375E1,-1.139581800E0,-9.424132347E0,-2.815753937E0
2.484109281E1,-1.498505235E0,-9.136395454E0,-5.437689424E-1
2.486136192E1,-2.023131609E0,-8.420941353E0,1.390828133E0
2.488163098E1,-2.863610506E0,-8.566903114E0,1.002592683E0
2.490190005E1,-2.319841623E0,-1.017069244E1,2.225325108E-1
2.492216911E1,-9.481559992E-1,-1.215793228E1,-7.471588850E-1
2.494243817E1,1.412961721E0,-1.358285809E1,-1.630708575E0
2.496283817E1,3.282354355E0,-1.345783234E1,-2.741576433E0
2.498297630E1,2.935395241E0,-1.275912857E1,-3.266202927E0
2.500324536E1,6.275177598E-1,-1.333579922E1,-2.174477577E0
2.502351448E1,-9.194421172E-1,-1.592901993E1,-5.324030295E-2
2.504378354E1,-2.511267424E0,-1.823450470E1,1.292722464E0
2.506418354E1,-6.425925255E0,-1.615633774E1,-3.355933726E-1
2.508432166E1,-8.903693199E0,-1.293380451E1,-2.846860647E0
2.510459072E1,-7.670791149E0,-1.120499039E1,-4.781457901E0
2.512485979E1,-4.876572609E0,-1.235892868E1,-5.473581791E0
2.514512885E1,-2.066202402E0,-1.401595879E1,-4.501497746E0
2.516552885E1,-1.101296663E0,-1.454955769E1,-2.097907305E0
2.518566698E1,-1.429113269E0,-1.319701481E1,1.876571178E0
2.520593604E1,-1.728216171E0,-1.158126163E1,4.086342812E0
2.522620510E1,-1.161117196E0,-9.912267685E0,3.993022680E0
2.524647416E1,-3.158525825E-1,-7.824530125E0,8.350951076E-1
2.526674323E1,4.695914388E-1,-7.098906517E0,-2.070987940E0
2.528701229E1,-2.536391914E-1,-7.422535896E0,-4.295714855E0
2.530728135E1,-8.380861282E-1,-7.733603001E0,-2.863610506E0
2.532755041E1,-7.728816867E-1,-7.355536938E0,-4.049852192E-1
2.534781948E1,-5.934200287E-1,-6.596413612E0,4.737788737E-1
2.536808854E1,-8.069794178E-1,-5.937789440E0,-1.369891018E-1
2.538835760E1,-1.822134495E0,-5.552545071E0,-9.146564603E-1
2.540862666E1,-2.102094650E0,-4.654638290E0,-1.458425403E0
2.542889572E1,-1.673181176E0,-3.500699520E0,-2.181656122E0
2.544916479E1,-1.242473125E0,-2.571686029E0,-2.492722988E0
2.546943385E1,-1.539183140E0,-2.162513494E0,-2.399402857E0
2.548970291E1,-1.759322882E0,-1.893919110E0,-2.430509567E0
2.550997192E1,-1.364507079E0,-2.167299032E0,-2.693720102E0
2.553024099E1,-6.245267391E-1,-2.344367981E0,-4.003192425E0
2.555051005E1,-8.404789567E-1,-3.090928555E0,-7.307680130E0
2.557077911E1,-3.134597540E-1,-6.790232658E0,-1.102313614E1
2.559104817E1,-4.642075896E-1,-2.351845551E1,-1.101834965E1
2.561131724E1,5.672185898E0,-3.931288147E1,-4.606781960E0
2.563158630E1,-2.097309113E0,-9.179466248E0,-5.207380295E0
2.565185536E1,-2.425125837E0,6.699903607E-1,-2.389831543E0
2.567212442E1,-5.413163185E0,3.078366280E0,-2.794218540E0
2.569239343E1,-6.246463299E0,-5.039882660E0,-1.573280931E0
2.571266250E1,-5.709873199E0,-1.696810341E1,-9.457631707E-1
2.573293156E1,4.743770957E-1,-2.101915169E1,-9.768698215E-1
2.575320057E1,3.952943087E0,-1.385324669E1,-2.313261271E0
2.577346963E1,3.337389469E0,-8.655437469E0,-6.251249313E-1
2.579373864E1,7.639086246E-1,-7.048657417E0,-3.762713671E-1
2.581400776E1,-2.128415823E0,-6.632306099E0,-8.811569214E-1
2.583427677E1,-1.675574064E0,-7.475177765E0,5.096712112E-1
2.585454583E1,-8.811569214E-1,-8.202595711E0,5.024927482E-2
2.587481489E1,-9.409775138E-1,-8.586046219E0,-9.385846853E-1
2.589508390E1,-9.888339639E-1,-8.533403397E0,-8.141579032E-1
2.591535296E1,-1.381256819E0,-7.958528042E0,-7.328019142E-1
2.593562198E1,-1.287936807E0,-7.511070251E0,-5.054838061E-1
2.595589104E1,-1.048654556E0,-8.123632431E0,6.221338734E-2
2.597616005E1,-8.835497499E-1,-8.992825508E0,-9.631111473E-2
2.599642911E1,-6.915257573E-1,-9.052646637E0,3.278166950E-1
2.601669812E1,-4.929214716E-1,-9.505488396E0,-8.261220455E-1
2.603696718E1,-1.531406492E-1,-1.024965572E1,-1.276570916E0
2.605723619E1,-4.785645306E-1,-1.088674450E1,-5.174478889E-1
2.607750526E1,-1.730608940E0,-1.118824005E1,-6.442674994E-1
2.609777427E1,-2.224128723E0,-1.142034435E1,-8.141579032E-1
2.611804333E1,-1.811964989E0,-1.118345451E1,-5.006981492E-1
2.613831234E1,-1.185045362E0,-1.137248802E1,6.699903309E-2
2.615858140E1,-4.666004181E-1,-1.207179070E1,1.962114573E-1
2.617885041E1,7.417750359E-2,-1.218185997E1,6.460621208E-2
2.619911948E1,-3.972085714E-1,-1.242114258E1,-1.800599098E-1
2.621938849E1,-9.720842242E-1,-1.367857075E1,-9.870393574E-2
2.623965755E1,-1.247258782E0,-1.423609829E1,7.178468257E-2
2.625992656E1,-3.423531055E0,-1.486361599E1,9.571290761E-2
2.628019557E1,-5.896512985E0,-1.566580963E1,-8.644071817E-1
2.630046463E1,-4.859822750E0,-1.300319672E1,-3.002394199E0
2.632073364E1,-2.173879385E0,-1.063549805E1,-4.525425911E0
2.634100265E1,2.871387079E-2,-1.119781208E1,-4.922634602E0
2.636127171E1,2.279163599E0,-1.335494137E1,-3.984049797E0
2.638154072E1,2.882753134E0,-1.422652721E1,-8.021938205E-1
2.640180974E1,8.668000102E-1,-1.368335629E1,1.893320918E0
2.642207875E1,-1.716252089E0,-1.168893814E1,4.230510235E0
2.644234781E1,-2.877967358E0,-9.531808853E0,5.441876888E0
2.646274781E1,-3.282354355E0,-8.193024635E0,5.017749310E0
2.648288583E1,-3.026322365E0,-6.964908600E0,2.185843468E0
2.650315484E1,-2.662015200E0,-6.780661106E0,-1.601994753E0
2.652342385E1,-1.716252089E0,-7.946564198E0,-1.637887120E0
2.654369286E1,-4.259224236E-1,-9.224929810E0,-2.215155602E0
2.656409286E1,-1.052841991E-1,-8.703293800E0,-2.925225794E-1
2.658423093E1,-4.067798555E-1,-7.310073376E0,1.041476011E0
2.660449994E1,-7.010970116E-1,-6.471987247E0,7.369893789E-1
2.662476895E1,-7.322037220E-1,-6.157928944E0,2.823530734E-1
2.664503796E1,-9.816554785E-1,-6.023931026E0,-2.973082066E-1
2.666543796E1,-1.472184181E0,-5.715256691E0,-3.188436031E-1
2.668557604E1,-2.056631088E0,-4.850849628E0,-2.925225794E-1
2.670584500E1,-2.496910334E0,-4.043870449E0,-1.872383654E-1
2.672611401E1,-2.817548752E0,-3.416950703E0,-6.753742099E-1
2.674638307E1,-2.652443886E0,-3.684946775E0,-1.757528186E0
2.676678307E1,-2.614158630E0,-5.313262463E0,-4.176073551E0
2.678692109E1,-1.539183140E0,-9.090931892E0,-8.195417404E0
2.680719010E1,1.348355532E0,-1.300798225E1,-1.060199928E1
2.682745911E1,-4.634897232E0,-1.335015583E1,-1.036451149E1
2.684772812E1,-1.238525009E1,-2.175853539E1,-8.822935104E0
2.686812812E1,-2.415554523E0,-1.717149353E1,6.323033810E0
2.688826614E1,-3.521636724E0,-5.373083115E0,-2.877369225E-1
2.690853515E1,-3.230310678E-1,-4.255036831E0,5.518447399E0
2.692880416E1,-8.614161611E-2,-9.325428009E0,6.157330990E0
2.694907317E1,-5.575276613E-1,-1.501197147E1,1.378864050E0
2.696934218E1,1.647458434E0,-1.510050583E1,-2.751147747E0
2.698961119E1,-2.871387303E-1,-1.051107121E1,-3.160918713E0
2.700988015E1,-1.347757339E0,-8.140382767E0,4.354937077E-1
2.703014911E1,-3.818346739E0,-6.809374809E0,4.259224236E-1
2.705041812E1,-4.613361835E0,-7.065407276E0,-4.360919297E-1
2.707068713E1,-2.501696110E0,-8.569295883E0,-7.830511928E-1
2.709095614E1,-1.273579836E0,-9.639486313E0,-2.385046005E0
2.711122515E1,-9.385846853E-1,-9.742377281E0,-1.805384636E0
2.713149416E1,-4.139583111E-1,-9.436096191E0,-1.479960799E0
2.715176312E1,-8.021938205E-1,-9.565308571E0,-1.448854089E0
2.717203213E1,-1.170688510E0,-1.007019424E1,-8.404789567E-1
2.719230114E1,-8.883354068E-1,-1.035972595E1,3.206382394E-1
2.721257015E1,-1.039083242E0,-9.792626381E0,7.633104324E-1
2.723283916E1,-2.035095692E0,-9.009575844E0,4.019941986E-1
2.725310812E1,-2.750549555E0,-8.995218277E0,1.483550072E-1
2.727337713E1,-2.904288530E0,-9.589237213E0,4.809573591E-1
2.729364614E1,-2.743371248E0,-1.043450165E1,8.494520187E-1
2.731391510E1,-2.183450699E0,-1.064507008E1,2.991028428E-1
2.733418411E1,-3.876372576E-1,-1.080299568E1,-8.691928387E-1
2.735445312E1,1.208973646E0,-1.124088287E1,-1.812563181E0
2.737472203E1,9.912267923E-1,-1.305344582E1,-1.618744493E0
2.739499109E1,1.531406492E-1,-1.540200138E1,-1.968096644E-1
2.741526010E1,-7.441678643E-1,-1.687239075E1,7.441678643E-1
2.743552906E1,-4.082155228E0,-1.760459518E1,-5.413761139E-1
2.745579807E1,-5.817550182E0,-1.696331787E1,-3.134597778E0
2.747606708E1,-4.244867325E0,-1.368096352E1,-5.653043270E0
2.749633604E1,-1.759322882E0,-1.194736385E1,-5.578866005E0
2.751660505E1,-2.129612118E-1,-1.276630688E1,-5.188237667E0
2.753687406E1,-1.555334777E-1,-1.493779373E1,-3.864408493E0
2.755714302E1,-2.626122952E0,-1.657268906E1,-2.518445849E-1
2.757741203E1,-5.477769375E0,-1.584287834E1,4.151547432E0
2.759768098E1,-4.699503899E0,-1.217468166E1,5.575874805E0
2.761795000E1,-2.358126640E0,-9.260822296E0,3.937987804E0
2.763821895E1,-2.009970993E-1,-8.629117012E0,1.558325768E0
2.765861895E1,2.901297510E-1,-8.667402267E0,-1.934597135E0
2.767875698E1,-1.622931957E0,-8.660223007E0,-4.146761417E0
2.769902593E1,-2.947359324E0,-8.363512993E0,-2.526222467E0
2.771929494E1,-1.834098577E0,-7.829315662E0,-1.537388563E-1
2.773956390E1,-6.891329288E-1,-7.012764931E0,1.060618639E0
2.775983291E1,-5.982056633E-2,-6.352345943E0,9.188438654E-1
2.778010187E1,-2.249253243E-1,-5.444868088E0,3.349951655E-2
2.780037088E1,-6.293123364E-1,-4.446462631E0,-4.408775866E-1
2.782063984E1,-1.254437327E0,-3.237488985E0,-4.959124923E-1
2.784090885E1,-2.044667006E0,-2.107478619E0,-2.781656384E-1
2.786117385E1,-2.762513638E0,-1.140179992E0,-2.973082066E-1
2.788140828E1,-3.885345697E0,-7.776673418E-3,-1.322034478E0
2.790171640E1,-4.929214478E0,3.014956415E-1,-4.427320004E0
2.792198520E1,-6.055037498E0,-1.116251707E0,-1.478704548E1
2.794225421E1,-6.224927902E0,-1.342194080E1,-9.952945709E0
2.796265411E1,1.630708575E0,-3.568117142E1,3.545564890E0
2.798279203E1,8.859425783E-1,-2.042992020E1,-9.747162819E0
2.800306088E1,-2.656033039E-1,-3.684946775E0,-1.274178028E0
2.802332979E1,-2.547159672E0,1.842473447E-1,-1.925025821E0
2.804359885E1,-5.070989609E0,-4.219144344E0,-1.829312921E0
2.806399880E1,-5.042275429E0,-1.463869095E1,-2.015953064E-1
2.808413671E1,-2.157129526E0,-1.898645020E1,-2.452643216E-2
2.810440562E1,1.987239242E0,-1.277109241E1,-1.458425403E0
2.812467463E1,2.562114954E0,-8.576474190E0,-1.048654556E0
2.814494359E1,7.304090858E-1,-6.802196503E0,-1.266999602E0
2.816534354E1,-1.381256819E0,-6.701697826E0,-6.538388133E-1
2.818548145E1,-9.266205430E-1,-7.396214962E0,7.441678643E-1
2.820575046E1,-6.173482537E-1,-8.082955360E0,-5.605186820E-1
2.822601942E1,-6.077769399E-1,-8.636295319E0,-1.740778446E0
2.824628838E1,-1.017547846E0,-8.650651932E0,-1.657029629E0
2.826655734E1,-1.359721422E0,-8.327621460E0,-1.066002488E0
2.828682635E1,-6.077769399E-1,-8.035098076E0,4.546362907E-2
2.830709526E1,-1.400399446E0,-8.385048866E0,-9.391828626E-2
2.832736421E1,-1.822134495E0,-9.383454323E0,-5.844469070E-1
2.834763317E1,-1.675574064E0,-1.013719273E1,-8.045865893E-1
2.836790213E1,-1.065404296E0,-1.047996521E1,-1.290927768E0
2.838817109E1,-3.804588020E-1,-1.064985561E1,-1.377069473E0
2.840844010E1,-4.235295951E-1,-1.084367371E1,-1.101894855E0
2.842870906E1,-1.019940615E0,-1.179183006E1,-1.266999602E0
2.844897802E1,-1.118046403E0,-1.304866028E1,-1.405783296E0
2.846924698E1,-4.307080805E-1,-1.301994610E1,-1.386640668E0
2.848951593E1,-5.024927482E-2,-1.177508068E1,-1.786242127E0
2.850978489E1,-3.469592929E-1,-1.202632618E1,-2.075773716E0
2.853005385E1,-9.505487680E-1,-1.422174168E1,-1.731207132E0
2.855032281E1,-2.362912416E0,-1.605105400E1,-6.801598072E-1
2.857059177E1,-5.348556995E0,-1.529432392E1,-4.839483798E-1
2.859086073E1,-8.295916557E0,-1.361396408E1,-1.946561217E0
2.861112974E1,-8.408378601E0,-1.303190994E1,-4.889134884E0
2.863139864E1,-5.559125423E0,-1.311565876E1,-6.078966141E0
2.865166760E1,-2.137987137E0,-1.290748310E1,-5.332405090E0
2.867193656E1,-2.751746178E-1,-1.204786205E1,-4.372285366E0
2.869220552E1,-8.596215248E-1,-1.180857944E1,-1.039083242E0
2.871247453E1,-2.539981127E0,-1.123849010E1,3.068794966E0
2.873274343E1,-2.899502754E0,-9.924231529E0,4.579862595E0
2.875301239E1,-2.111665964E0,-8.159524918E0,3.327818155E0
2.877328135E1,-2.556730986E0,-7.336394310E0,1.122832060E0
2.879355031E1,-4.692325115E0,-7.235297680E0,-2.215155602E0
2.881381927E1,-5.571089268E0,-6.747161865E0,-2.172084808E0
2.883408823E1,-4.283152580E0,-6.174678802E0,-2.935395241E0
2.885435718E1,-1.543968797E0,-6.519843578E0,-2.511865616E0
2.887462609E1,-5.694918036E-1,-6.653841496E0,-1.015154958E0
2.889489505E1,-8.859425783E-1,-5.827719688E0,-1.779063582E0
2.891516401E1,-1.076770201E-1,-6.261418819E0,-2.363510609E0
2.893543296E1,-2.632104978E-2,-6.783053875E0,-2.227119684E0
2.895570192E1,-1.264008522E0,-5.363512039E0,-2.020738840E0
2.897597088E1,-2.764906645E0,-2.624328136E0,-2.037488461E0
2.899623979E1,-3.083750248E0,-4.025924206E-1,-1.814955950E0
2.901650875E1,-2.923431158E0,3.373879790E-1,-2.035095692E0
2.903677770E1,-3.078964472E0,7.106683254E-1,-4.074976921E0
2.905704666E1,-4.084548473E0,-2.135594189E-1,-9.809376717E0
2.907731562E1,-6.076572895E0,-9.114859581E0,-1.148554897E1
2.909758458E1,4.316651821E0,-3.394996643E1,-3.211168051E0
2.911785348E1,9.409176826E0,-3.133341408E1,-9.500701904E0
2.913812244E1,-8.045865893E-1,-6.577271461E0,-3.016751051E0
2.915839140E1,-1.677966833E0,2.751746178E-1,-1.410568953E0
2.917866031E1,-5.283950806E0,1.910070658E0,-2.399402857E0
2.919892927E1,-5.638088226E0,-5.822933674E0,-5.802594870E-2
2.921919823E1,-5.635695457E0,-1.581177235E1,-3.690928817E-1
2.923946713E1,-3.134597540E-1,-1.981496429E1,-2.133799553E0
2.925973609E1,3.311068296E0,-1.358285809E1,-2.049452543E0
2.928000500E1,2.082952023E0,-8.686544418E0,-1.109073281E0
2.930027395E1,-1.543968797E0,-6.474380016E0,-1.048654556E0
2.932054291E1,-3.950550079E0,-6.412166595E0,-8.500502706E-1
2.934081182E1,-2.921038151E0,-8.164310455E0,1.165902853E0
2.936108078E1,-1.086939692E0,-9.177073479E0,6.675975323E-1
2.938134968E1,3.589234129E-2,-9.011968613E0,-1.618744493E0
2.940161864E1,2.009970993E-1,-8.126026154E0,-2.179263115E0
2.942188755E1,1.651047617E-1,-7.936992645E0,-9.840483069E-1
2.944215651E1,5.264209956E-2,-8.452047348E0,-2.614158690E-1
2.946255651E1,1.579262912E-1,-8.930612564E0,-1.298106313E-1
2.948269437E1,-2.273181528E-1,-8.732007980E0,4.785645287E-3
2.950296328E1,-1.560718536E0,-8.925827026E0,-4.432703853E-1
2.952323224E1,-2.697907448E0,-9.543772697E0,-8.356932998E-1
2.954350114E1,-2.997608662E0,-9.866804123E0,-1.159322619E0
2.956390114E1,-2.992822886E0,-1.037647533E1,-1.231107235E0
2.958403901E1,-2.733799934E0,-1.092263699E1,-9.457631707E-1
2.960430796E1,-2.468196630E0,-1.075992489E1,-3.332005441E-1
2.962457687E1,-1.577468276E0,-1.118345451E1,4.067798331E-2
2.964484578E1,-3.828516230E-2,-1.182054424E1,4.857429862E-1
2.966524578E1,9.984052777E-1,-1.195214939E1,1.228116274E0
2.968538364E1,9.385846853E-1,-1.217946720E1,1.101296663E0
2.970565260E1,1.124626622E-1,-1.388913918E1,5.120640397E-1
2.972592151E1,-2.068595171E0,-1.499282837E1,3.349951655E-2
2.974619046E1,-5.848656654E0,-1.646740532E1,-5.724828243E-1
2.976659046E1,-8.267202377E0,-1.492343616E1,-2.203191519E0
2.978672828E1,-7.493722439E0,-1.264427280E1,-4.501497746E0
2.980699724E1,-5.195415974E0,-1.191864967E1,-5.006382942E0
2.982726614E1,-3.308675528E0,-1.259641647E1,-4.019941807E0
2.984753510E1,-2.918645382E0,-1.280698490E1,-3.335594654E0
2.986780401E1,-2.602194548E0,-1.208614731E1,-2.655434847E0
2.988807291E1,-1.891526341E0,-1.220578861E1,-1.305284739E0
2.990834187E1,-2.327019930E0,-1.159322548E1,1.842473447E-1
2.992861078E1,-3.059821844E0,-9.730413437E0,1.386042476E0
2.994887968E1,-3.028715372E0,-8.173882484E0,2.585444927E0
2.996914864E1,-3.191427231E0,-7.336394310E0,3.868596077E0
2.998941755E1,-3.437887907E0,-6.763911247E0,3.097508907E0
3.000968651E1,-2.362912416E0,-7.398607731E0,-4.063013077E0
3.002995541E1,-7.537391186E-1,-8.681758881E0,-6.885945320E0
3.005022432E1,5.676971674E-1,-9.570094109E0,-1.776670814E0
3.007049323E1,-6.795616150E-1,-8.772686005E0,-3.170489892E-2
3.009076213E1,-2.392822653E-1,-6.634698868E0,6.101697683E-1
3.011103109E1,-3.278166950E-1,-5.152345181E0,1.411765367E-1
3.013130000E1,-1.208973646E0,-3.419343472E0,-7.351947427E-1
3.015156895E1,-2.650051117E0,-8.644071817E-1,-8.644071817E-1
3.017183786E1,-4.591826439E0,2.482553482E0,-5.294120312E-1
3.019210677E1,-7.113263607E0,4.859822750E0,6.699903309E-2
3.021237572E1,-1.090050316E1,5.776872158E0,-8.104490280E0
3.023264463E1,4.959124923E-1,-1.359003639E1,2.305484533E0
3.025291354E1,1.271187067E0,-3.180958557E1,-9.878767967E0
3.027318244E1,3.699303865E0,-3.209911728E1,-7.939385414E0
3.029345135E1,4.600201547E-1,-8.921041489E0,-2.578864574E0
3.031372031E1,-2.897109985E0,-2.961716175E0,-1.214357495E0
3.033398921E1,-5.288736343E0,-3.878765583E0,2.512463629E-1
3.035425812E1,-6.033502102E0,-7.508677483E0,1.363908947E-1
3.037452703E1,-3.684348583E0,-1.337408352E1,8.877372146E-1
3.039479593E1,6.460621208E-2,-1.632862091E1,-1.365105271E0
3.041506484E1,1.824527264E0,-1.306780243E1,-2.184048891E0
3.043533375E1,-1.094118118E0,-8.708079338E0,-1.345962763E0
3.045573375E1,-3.193820000E0,-7.125227451E0,-1.298106313E-1
3.047587156E1,-3.325425386E0,-7.422535896E0,1.158724308E0
3.049614046E1,-3.047857761E0,-8.123632431E0,5.503492355E-1
3.051640937E1,-1.958525300E0,-8.406583786E0,-4.791627228E-1
3.053667833E1,-1.818545163E-1,-8.595617294E0,-1.417747438E-1
3.055694724E1,1.165902853E0,-8.468797684E0,1.890329868E-1
3.057721614E1,1.355534077E0,-7.843672752E0,-2.015953064E-1
3.059748505E1,-6.939185411E-2,-7.673782349E0,-9.050851464E-1
3.061775395E1,-9.457631707E-1,-7.798209190E0,-7.495517135E-1
3.063802286E1,-1.744965911E0,-8.341978073E0,-5.485545993E-1
3.065829177E1,-1.110867858E0,-9.383454323E0,-5.724828243E-1
3.067856072E1,-5.647061467E-1,-1.095852947E1,-1.637887120E0
3.069882963E1,-7.178467698E-3,-1.264427280E1,-1.960918188E0
3.071909854E1,1.986042857E-1,-1.329033470E1,-2.542972326E0
3.073936744E1,5.742774159E-2,-1.286201954E1,-3.215953588E0
3.075963635E1,-3.661018610E-1,-1.325683594E1,-3.562912941E0
3.077990531E1,-6.819544435E-1,-1.521057510E1,-2.301297188E0
3.080017421E1,-2.798406124E0,-1.803111458E1,7.178468257E-2
3.082044312E1,-6.521637917E0,-1.626401520E1,1.268195957E-1
3.084071203E1,-8.360522270E0,-1.285244846E1,-2.722434044E0
3.086098093E1,-6.921239376E0,-1.126002502E1,-4.764708042E0
3.088124984E1,-4.223331928E0,-1.104945660E1,-4.322035789E0
3.090151880E1,-2.827120066E0,-1.228475189E1,-3.426522017E0
3.092178770E1,-2.940180779E0,-1.338604832E1,-2.751147747E0
3.094205661E1,-2.892324448E0,-1.306301689E1,-1.298106313E-1
3.096245661E1,-2.899502754E0,-1.195932770E1,1.436291814E0
3.098259448E1,-2.796013355E0,-1.059721375E1,3.004188776E0
3.100286338E1,-1.601396561E0,-9.383454323E0,3.030509949E0
3.102313229E1,-5.407779217E-1,-7.558926582E0,1.283151150E0
3.104340119E1,-1.395613790E0,-7.094120979E0,-9.768698215E-1
3.106380119E1,-2.985644341E0,-7.305287361E0,-1.121037364E0
3.108393906E1,-2.453839540E0,-7.925028801E0,-1.616351724E0
3.110420796E1,-8.596215248E-1,-8.818149567E0,-3.249453068E0
3.112447692E1,-1.175474167E0,-8.291130066E0,-2.030309916E0
3.114474583E1,-2.116451740E0,-7.225726128E0,-8.691928387E-1
3.116514583E1,-1.725823283E0,-6.543771744E0,-7.375875711E-1
3.118528364E1,-1.146760225E0,-5.104488850E0,-1.140179992E0
3.120555260E1,-1.103689432E0,-3.510270834E0,-1.621137381E0
3.122582151E1,-1.965703845E0,-2.248655081E0,-1.604387641E0
3.124609046E1,-2.298306227E0,-1.743171334E0,-1.106680512E0
3.126635937E1,-2.432304144E0,-1.317248821E0,-1.128215909E0
3.128662828E1,-3.466601849E0,-2.614158690E-1,-2.571686029E0
3.130689724E1,-5.133202553E0,-1.776670814E-1,-1.006062317E1
3.132716614E1,-5.985645771E0,-9.019146919E0,-1.872024727E1
3.134743510E1,2.964108944E0,-3.307598877E1,4.730610371E0
3.136783510E1,3.112463951E0,-2.357588387E1,-1.082931709E1
3.138797296E1,-2.683550596E0,-4.300500393E0,-2.284547329E0
3.140824187E1,-2.154736757E0,1.797608018E0,-2.294118643E0
3.142851078E1,-5.283950806E0,-9.409775138E-1,-1.645065546E0
3.144877968E1,-5.817550182E0,-1.235653591E1,-1.953739643E0
3.146904864E1,-2.568695068E0,-2.167478561E1,-1.219143152E0
3.148931760E1,2.674577475E0,-1.469133282E1,-1.702493310E0
3.150958651E1,1.970489502E0,-9.241679192E0,-1.709671736E0
3.152985546E1,0.000000000E0,-7.700103283E0,-1.089930773E0
3.155012437E1,-1.481755376E0,-7.793423176E0,-4.911268353E-1
3.157039328E1,-2.592623234E0,-8.135597229E0,-3.714857101E-1
3.159066224E1,-2.161915302E0,-8.588438988E0,-1.256231871E-2
3.161093114E1,-1.192223907E0,-9.358927727E0,-6.011967063E-1
3.163120010E1,-3.684946895E-1,-9.400203705E0,-1.164108157E0
3.165146890E1,-3.493520916E-1,-8.243273735E0,-1.109073281E0
3.167173796E1,-3.972085714E-1,-7.659425259E0,-7.184450030E-1
3.169200687E1,-3.756731451E-1,-8.080561638E0,-4.049852192E-1
3.171227578E1,-3.206382394E-1,-9.157930374E0,-5.533402562E-1
3.173254474E1,-5.551348329E-1,-9.457631111E0,-1.200000525E0
3.175281364E1,-1.783251047E0,-9.488738060E0,-1.420140266E0
3.177308260E1,-2.940180779E0,-9.515059471E0,-1.312463164E0
3.179335151E1,-3.088535786E0,-9.675378799E0,-1.496710539E0
3.181362046E1,-2.403590441E0,-9.517452240E0,-1.075573802E0
3.183388937E1,-1.910668850E0,-1.002712345E1,-3.978067636E-1
3.185415833E1,-1.187438250E0,-1.060917759E1,5.024927482E-2
3.187442729E1,-2.392822653E-1,-1.057089233E1,1.842473447E-1
3.189469619E1,1.363908947E-1,-1.124566841E1,7.657032460E-2
3.191496515E1,5.772684813E-1,-1.175593758E1,-3.164508045E-1
3.193523406E1,7.112665176E-1,-1.174875927E1,-1.080359459E0
3.195550302E1,1.052841991E-1,-1.205025482E1,-1.381855130E0
3.197577192E1,-1.371685624E0,-1.332144165E1,-7.136593461E-1
3.199604088E1,-4.249652863E0,-1.637647820E1,1.722832322E-1
3.201630984E1,-7.029514790E0,-1.607258987E1,-7.160521746E-1
3.203657875E1,-7.029514790E0,-1.279502106E1,-3.175275564E0
3.205684770E1,-5.688337803E0,-1.126002502E1,-4.389034748E0
3.207711666E1,-3.890131474E0,-1.078624630E1,-4.058227062E0
3.209738557E1,-2.494517565E0,-1.120738316E1,-3.479164124E0
3.211765453E1,-2.092523336E0,-1.224168110E1,-2.887538671E0
3.213792348E1,-1.350150228E0,-1.334776306E1,-1.925025821E0
3.215832349E1,-1.333400369E0,-1.315872955E1,-1.824527234E-1
3.217846135E1,-2.971287489E0,-1.120499039E1,1.094118118E0
3.219873031E1,-3.722633839E0,-9.361918449E0,6.125625968E-1
3.221899921E1,-3.291925669E0,-8.190631866E0,-1.561316848E-1
3.223926817E1,-3.007179976E0,-7.649854183E0,-4.719842672E-1
3.225953713E1,-3.088535786E0,-7.678567886E0,-2.255235314E-1
3.227980609E1,-2.152343988E0,-7.563712597E0,-5.892325640E-1
3.230007500E1,-1.043868899E0,-7.645068169E0,-3.184846878E0
3.232034395E1,-1.996810555E0,-7.530212879E0,-3.129213810E0
3.234061291E1,-2.810370207E0,-7.369893551E0,-1.731207132E0
3.236088187E1,-2.506481647E0,-6.921837807E0,-1.432104349E0
3.238115078E1,-1.283151150E0,-6.292525291E0,-2.246262312E0
3.240141974E1,-8.404789567E-1,-5.471189022E0,-2.413759947E0
3.242168869E1,-1.589432478E0,-4.300500393E0,-2.179263115E0
3.244195760E1,-1.958525300E0,-2.461616278E0,-1.707278967E0
3.246235760E1,-2.331805706E0,-1.219143152E0,-1.178465128E0
3.248249552E1,-2.568695068E0,-6.993024349E-1,-1.295713425E0
3.250276448E1,-3.835096598E0,-3.170489892E-2,-4.302893162E0
3.252303343E1,-4.687539577E0,-1.147358418E0,-1.173200989E1
3.254330234E1,-2.657229662E0,-1.099681473E1,-1.103988552E1
3.256370234E1,2.657827854E0,-3.169712257E1,-1.652244091E0
3.258384026E1,3.780659676E0,-2.555355072E1,-9.682557106E0
3.260410921E1,-3.411566973E0,-5.106881618E0,-1.972882271E0
3.262437812E1,-2.937788010E0,3.421736360E-1,-1.611566067E0
3.264464708E1,-4.546362877E0,-2.638086975E-1,-9.385846853E-1
3.266504708E1,-5.807978630E0,-8.293522835E0,-1.164108157E0
3.268518500E1,-4.369294167E0,-1.909651947E1,-1.250249863E0
3.270545395E1,1.807777524E0,-1.732702637E1,-1.805384636E0
3.272572291E1,2.935395241E0,-1.052542877E1,-1.465603828E0
3.274599187E1,6.681957245E-1,-8.161917686E0,-1.625923038E0
3.276639187E1,-1.723430514E0,-7.525427341E0,-6.921239495E-1
3.278652979E1,-2.530410051E0,-7.305287361E0,-3.170489892E-2
3.280679869E1,-2.257628202E0,-7.925028801E0,1.172483116E-1
3.282706765E1,-5.575276613E-1,-9.117252350E0,4.402793646E-1
3.284733661E1,2.662015259E-1,-9.436096191E0,-8.165507317E-1
3.286760557E1,1.028913707E-1,-8.892327309E0,-2.219941139E0
3.288787453E1,-8.476574421E-1,-8.495118141E0,-1.965703845E0
3.290814349E1,-1.685145378E0,-9.007183075E0,-1.068395257E0
3.292841244E1,-1.161117196E0,-9.646664619E0,-7.686942816E-1
3.294868140E1,7.896314561E-2,-9.529416084E0,2.392822644E-3
3.296895036E1,2.392822690E-2,-8.885149002E0,-8.673982322E-2
3.298921932E1,-2.300698996E0,-8.288737297E0,-7.304090858E-1
3.300948828E1,-5.085346222E0,-8.554939270E0,-1.881955028E0
3.302975724E1,-5.204987526E0,-9.201001167E0,-2.152942181E0
3.305002619E1,-3.459423304E0,-9.883553505E0,-1.735992789E0
3.307029515E1,-1.481755376E0,-1.047517967E1,-9.314061999E-1
3.309056411E1,-2.081755698E-1,-1.084128094E1,-3.978067636E-1
3.311083307E1,6.227321029E-1,-1.122652531E1,2.967100143E-1
3.313110203E1,8.524430394E-1,-1.174875927E1,2.751746178E-1
3.315137098E1,6.969096065E-1,-1.193779182E1,-2.949153781E-1
3.317163994E1,4.360919297E-1,-1.266341591E1,-1.017547846E0
3.319190885E1,5.024927482E-2,-1.432463264E1,-7.567301393E-1
3.321217786E1,-1.563111424E0,-1.493779373E1,-9.870393574E-2
3.323244677E1,-5.609374523E0,-1.524646759E1,-5.802594870E-2
3.325271572E1,-8.767302513E0,-1.402313709E1,-1.822134495E0
3.327298468E1,-7.402794838E0,-1.178704453E1,-4.700101852E0
3.329325364E1,-3.751347780E0,-1.111884880E1,-5.624329567E0
3.331352260E1,-8.021938205E-1,-1.261316681E1,-5.296513081E0
3.333379156E1,1.818545163E-1,-1.408774376E1,-4.173680782E0
3.335406052E1,-1.582253933E0,-1.481575966E1,-2.191227436E0
3.337432161E1,-3.490530014E0,-1.441555977E1,9.643075466E-1
3.339452140E1,-3.564707518E0,-1.196889877E1,1.941177368E0
3.341486859E1,-2.944966555E0,-9.483952522E0,1.996212244E0
3.343513729E1,-2.456232548E0,-8.528617859E0,2.243271112E0
3.345540604E1,-3.141177893E0,-8.334799767E0,1.905285001E0
3.347567489E1,-3.859024763E0,-8.018348694E0,-5.868397355E-1
3.349594369E1,-3.912265062E0,-7.972885132E0,-5.432903767E0
3.351621255E1,-2.736192703E0,-7.738388538E0,-3.761517286E0
3.353648145E1,-1.484148264E0,-7.273582458E0,-1.231107235E0
3.355675031E1,-1.031904817E0,-7.283751965E0,-6.538388133E-1
3.357701921E1,-3.924229145E-1,-7.704888821E0,-1.542174220E0
3.359728817E1,-1.507478207E-1,-7.913064480E0,-2.334796667E0
3.361755713E1,-9.146564603E-1,-6.570092678E0,-1.908276081E0
3.363782604E1,-2.305484533E0,-4.374678135E0,-1.463211060E0
3.365809494E1,-2.935395241E0,-2.777468920E0,-1.709671736E0
3.367836385E1,-2.846262455E0,-1.774278045E0,-1.939382792E0
3.369863281E1,-2.508874655E0,-1.235892892E0,-2.119442701E0
3.371890177E1,-2.200200319E0,-7.088736892E-1,-2.006381750E0
3.373917072E1,-2.126022816E0,-6.658028960E-1,-2.578864574E0
3.375943968E1,-2.968894720E0,-8.213363886E-1,-7.024729252E0
3.377970859E1,-4.156332970E0,-5.978467464E0,-2.887658310E1
3.379997755E1,1.962114573E-1,-2.918585587E1,-3.795016766E0
3.382024651E1,-3.811168194E0,-2.274497604E1,2.616551638E0
3.384051546E1,5.820540786E-1,-6.684948444E0,-1.012044334E1
3.386078442E1,-4.364508629E0,2.439482689E0,-2.136192322E0
3.388105338E1,-3.955335855E0,-2.231307179E-1,-2.528615236E0
3.390132234E1,-5.547161102E0,-9.071788788E0,-3.873979807E0
3.392159130E1,-5.693123341E0,-2.081097603E1,-2.789433002E0
3.394186026E1,1.719243050E0,-1.527757454E1,-2.655434847E0
3.396226026E1,2.104487419E0,-8.832506180E0,-2.545365095E0
3.398239812E1,-1.866401732E-1,-7.578069210E0,-1.802991867E0
3.400266708E1,-1.800000787E0,-8.485547066E0,-1.125823021E0
3.402293604E1,-1.989632010E0,-1.025204849E1,-1.290927768E0
3.404320500E1,-5.599204898E-1,-1.040100193E1,-1.128215909E0
3.406360500E1,6.299105883E-1,-9.364311218E0,-1.262213945E0
3.408374291E1,3.882354796E-1,-8.741579056E0,-1.630708575E0
3.410401182E1,-6.508477330E-1,-8.566903114E0,-2.284547329E0
3.412428078E1,-1.127617717E0,-8.425726891E0,-2.222334146E0
3.414454974E1,-1.536790371E0,-8.456833839E0,-1.652244091E0
3.416494974E1,-1.826920033E0,-8.250452042E0,-1.812563181E0
3.418508760E1,-2.173879385E0,-7.944170952E0,-2.672184706E0
3.420535656E1,-1.792822361E0,-8.444869041E0,-2.200798512E0
3.422562552E1,-1.390828133E0,-9.160323143E0,-1.221535921E0
3.424588656E1,-1.103689432E0,-9.658628464E0,-1.920240223E-1
3.426608640E1,-1.144367456E0,-9.330213547E0,-7.256234884E-1
3.428643354E1,-5.455635786E-1,-9.577272415E0,-8.524430394E-1
3.430670224E1,-5.647061467E-1,-1.031426239E1,-6.179464459E-1
3.432697093E1,-1.271187067E0,-1.025922680E1,-2.015953064E-1
3.434723994E1,-2.169093609E0,-9.644271851E0,4.785645287E-3
3.436763979E1,-2.463410854E0,-9.224929810E0,4.259224236E-1
3.438777750E1,-2.516052961E0,-8.607581139E0,9.858429432E-1
3.440804635E1,-2.394019127E0,-8.264809608E0,1.393221021E0
3.442831526E1,-2.238485575E0,-8.454441071E0,1.285543919E0
3.444858411E1,-2.197807550E0,-8.322834969E0,1.443470240E0
3.446885296E1,-2.023131609E0,-8.696115494E0,1.400399446E0
3.448912192E1,-1.493719578E0,-9.479166985E0,1.051047325E0
3.450939088E1,-1.218544960E0,-1.048235798E1,-1.513460279E-1
3.452965974E1,-1.826920033E0,-1.114038372E1,-1.795813441E0
3.454992869E1,-2.181057930E0,-1.107099247E1,-1.989632010E0
3.457019760E1,-1.493719578E0,-1.114038372E1,-5.964110494E-1
3.459046651E1,-1.204187989E0,-1.129591751E1,2.153540403E-2
3.461073546E1,-1.807179332E0,-1.313719463E1,-4.528416991E-1
3.463100437E1,-2.535195589E0,-1.440359592E1,-1.063609719E0
3.465127328E1,-1.630110383E0,-1.357807255E1,-9.505487680E-1
3.467154218E1,-1.201795220E0,-1.332861996E1,-6.227321029E-1
3.469181114E1,-3.325425386E0,-1.277348518E1,-1.092323542E0
3.471208010E1,-5.195415974E0,-1.172722340E1,-1.515853167E0
3.473234901E1,-4.785645485E0,-9.998409271E0,-8.285148144E-1
3.475261796E1,-4.453042984E0,-9.282357216E0,-3.236292601E-1
3.477288692E1,-4.852644444E0,-1.060199928E1,6.101697683E-1
3.479315583E1,-4.713860512E0,-1.165543938E1,1.809572101E0
3.481342479E1,-3.808775425E0,-1.152622700E1,1.855035782E0
3.483369375E1,-3.102892876E0,-1.018983555E1,1.031904817E0
3.485396265E1,-2.039881229E0,-8.949754715E0,1.331007600E0
3.487423156E1,-1.848455548E0,-9.088538170E0,2.392822653E-1
3.489450052E1,-2.042274237E0,-1.065942669E1,-6.759724021E-2
3.491476942E1,-2.463410854E0,-1.236371422E1,-1.398604870E0
3.493503838E1,-2.458625317E0,-1.310848045E1,-2.389831543E0
3.495530729E1,-2.659622431E0,-1.263709450E1,-2.755933523E0
3.497557625E1,-2.911466837E0,-1.159561825E1,-2.497508526E0
3.499584520E1,-2.988037348E0,-1.070489025E1,-2.911466837E0
3.501611411E1,-3.406781197E0,-9.519845009E0,-3.201596737E0
3.503638302E1,-3.457030535E0,-8.344370842E0,-3.388236761E0
3.505665198E1,-2.700300455E0,-7.487142086E0,-3.663411379E0
3.507692093E1,-1.948953986E0,-6.771090031E0,-3.515056372E0
3.509718984E1,-9.433703423E-1,-6.402595043E0,-3.481556892E0
3.511745875E1,-5.814558864E-1,-6.443273067E0,-3.529413462E0
3.513772770E1,-8.021938205E-1,-5.921039581E0,-3.366701365E0
3.515799661E1,-9.505487680E-1,-5.135595798E0,-3.347558975E0
3.517826557E1,-1.015154958E0,-4.046263218E0,-3.409772158E0
3.519853448E1,-1.115653515E0,-3.306880951E0,-3.397808075E0
3.521880343E1,-8.093722463E-1,-2.942573547E0,-3.933800459E0
3.523907234E1,1.172483116E-1,-2.669791937E0,-4.537389755E0
3.525934130E1,1.127617717E0,-2.693720102E0,-5.037489891E0
3.527961020E1,1.771885157E0,-3.182454109E0,-4.860421181E0
3.529987911E1,2.018345833E0,-3.663411379E0,-2.913859844E0
3.532014802E1,-1.986042857E-1,-3.203989506E0,-3.218346357E0
3.534041698E1,-5.240880013E0,-6.613163471E0,-1.904387665E1
3.536068588E1,-9.375677109E0,-3.527618790E1,-1.709253120E1
3.538095484E1,1.010847950E1,-2.778725052E1,3.607778311E0
3.540122375E1,-9.457631707E-1,-2.105085611E0,-5.540580750E0
3.542149265E1,-5.144568682E-1,2.065604210E0,-2.255833626E0
3.544176156E1,-6.954739094E0,-4.145565331E-1,-3.282952785E0
3.546216156E1,-9.993025780E0,-1.075992489E1,-2.334796667E0
3.548229942E1,-6.401997089E0,-1.899362755E1,-3.955335855E0
3.550256833E1,-7.657032609E-1,-1.191864967E1,-3.122035265E0
3.552283724E1,-2.608176768E-1,-7.597211838E0,-2.638685226E0
3.554310614E1,-7.034898400E-1,-7.403393269E0,-1.398604870E0
3.556350614E1,-1.622931957E0,-8.868398666E0,-1.326820135E0
3.558364401E1,-1.283151150E0,-1.061635590E1,-4.839483798E-1
3.560391291E1,-2.464607358E-1,-1.052542877E1,-6.562315822E-1
3.562418182E1,1.627119333E-1,-9.680164337E0,-1.168893814E0
3.564458974E1,-1.339980662E-1,-9.479166985E0,-6.801598072E-1
3.566486817E1,-1.252044439E0,-8.650651932E0,-4.600201547E-1
3.568498161E1,-2.315055847E0,-8.087740898E0,3.589234129E-2
3.570525198E1,-2.736192703E0,-8.337192535E0,4.594219327E-1
3.572552192E1,-2.690729141E0,-8.559724808E0,8.135596663E-2
3.574579078E1,-1.934597135E0,-8.815756798E0,-6.945167780E-1
3.576619171E1,-1.261615753E0,-9.064610481E0,-8.548358679E-1
3.578633026E1,-1.331007600E0,-8.612366676E0,-2.829512656E-1
3.580659968E1,-1.783251047E0,-8.504690170E0,7.657032460E-2
3.582686906E1,-2.976073265E0,-8.404191017E0,5.264210105E-1
3.584713796E1,-3.086143017E0,-8.904291153E0,7.178468108E-1
3.586753833E1,-2.401197433E0,-9.584450722E0,-1.585244983E-1
3.588767640E1,-1.249651670E0,-9.931410789E0,-7.854440212E-1
3.590794557E1,-8.907282352E-1,-1.034536839E1,-8.763712645E-1
3.592821468E1,-1.929811478E0,-1.012044334E1,-6.658028960E-1
3.594848375E1,-3.327818155E0,-1.038604641E1,-3.020938635E-1
3.596876072E1,-3.559921980E0,-1.085324574E1,-3.188436031E-1
3.598909895E1,-2.650051117E0,-1.130070305E1,-4.911268353E-1
3.600928958E1,-1.407577872E0,-1.208614731E1,-7.716853172E-2
3.602955880E1,-6.819544435E-1,-1.201914787E1,2.608176768E-1
3.604982791E1,-3.254238665E-1,-1.311087322E1,7.034898400E-1
3.607009698E1,9.571290575E-3,-1.356610775E1,9.762716293E-1
3.609036604E1,-3.019144058E0,-1.492582989E1,8.590233326E-1
3.611063505E1,-6.899703979E0,-1.650808334E1,1.363908947E-1
3.613090411E1,-5.975476265E0,-1.357089329E1,-2.164906263E0
3.615117302E1,-3.102892876E0,-1.162433243E1,-3.069393158E0
3.617144203E1,-2.054238319E0,-1.155494022E1,-3.086143017E0
3.619171098E1,-1.836491346E0,-1.304148197E1,-2.674577475E0
3.621197989E1,-1.484148264E0,-1.449691582E1,-2.822932482E0
3.623224885E1,-1.407577872E0,-1.470568943E1,-2.174477577E0
3.625251776E1,-1.654038668E0,-1.345543957E1,3.565305769E-1
3.627278666E1,-1.790429592E0,-1.189950657E1,2.748156786E0
3.629305557E1,-1.474576950E0,-1.008455086E1,3.966701746E0
3.631332448E1,-1.268794179E0,-8.382656097E0,4.512863636E0
3.633359343E1,-2.044667006E0,-7.194619656E0,4.208974838E0
3.635386234E1,-2.353341103E0,-6.799803734E0,2.774477959E0
3.637413119E1,-2.583052158E0,-6.567699909E0,-2.063809633E0
3.639440010E1,-3.516851187E0,-6.476772785E0,-5.243870735E0
3.641466901E1,-1.565504193E0,-6.728019238E0,-2.207378894E-1
3.643493791E1,-1.048654556E0,-6.976872444E0,1.079761267E0
3.645520682E1,-1.915454507E0,-7.048657417E0,4.546363056E-1
3.647547567E1,-2.482553482E0,-6.988836765E0,-2.015953064E-1
3.649574458E1,-2.831905603E0,-6.570092678E0,-7.663014531E-1
3.651601348E1,-2.805584431E0,-6.294918060E0,-7.902296782E-1
3.653628239E1,-2.580659151E0,-6.007181168E0,-4.145565331E-1
3.655655130E1,-2.654836655E0,-5.703292847E0,9.571290575E-3
3.657682015E1,-2.841476917E0,-4.946562767E0,-1.633101404E-1
3.659708906E1,-3.129213810E0,-4.436891556E0,-5.892325640E-1
3.661735796E1,-3.504886866E0,-4.384249210E0,-1.221535921E0
3.663762687E1,-3.794418573E0,-4.511068821E0,-2.100300074E0
3.665802687E1,-3.806382656E0,-5.698507309E0,-3.254238844E0
3.667816463E1,-3.327818155E0,-7.965706348E0,-4.692923546E0
3.669843354E1,-2.683550596E0,-1.149033451E1,-6.452844620E0
3.671870244E1,-2.446661234E0,-1.353021526E1,-7.501499176E0
3.673897130E1,-3.308675528E0,-1.182293701E1,-7.810173035E0
3.675924020E1,-3.090928555E0,-9.498309135E0,-7.475177765E0
3.677950911E1,-2.709871531E0,-9.572486877E0,-5.882754326E0
3.679977796E1,-3.748954773E0,-1.368574905E1,-3.548556089E0
3.682004687E1,-4.728217602E0,-1.710210228E1,-3.749552965E0
3.684031578E1,-4.369294167E0,-1.552403545E1,-3.124428272E0
3.686058468E1,-1.314257860E0,-1.022333431E1,-5.796613097E-1
3.688085354E1,-1.697109461E0,-6.742375851E0,1.792822361E0
3.690112244E1,-2.037488461E0,-6.431309223E0,5.303092957E0
3.692139135E1,-1.725823283E0,-5.159523964E0,4.785645485E0
3.694166026E1,-3.583850145E0,-5.126024246E0,-3.571287692E-1
3.696206026E1,-4.213760853E0,-8.703293800E0,-2.459223509E0
3.698219802E1,-1.637288928E0,-1.270170116E1,1.028913707E-1
3.700246692E1,1.398604870E0,-1.314915848E1,1.141974568E0
3.702273578E1,1.043868899E0,-1.004865837E1,4.833501875E-1
3.704300474E1,-2.092523336E0,-8.473583221E0,9.212366939E-1
3.706340474E1,-4.737788677E0,-8.720044136E0,2.240878344E0
3.708354250E1,-5.884549141E0,-9.395418167E0,1.730608940E0
3.710381140E1,-5.238486767E0,-9.460023880E0,2.608176768E-1
3.712408031E1,-4.153940201E0,-9.327820778E0,-8.715856671E-1
3.714434921E1,-3.629313707E0,-9.546165466E0,-7.854440212E-1
3.716474921E1,-2.961716175E0,-9.687342644E0,8.877372146E-1
3.718488698E1,-2.315055847E0,-8.904291153E0,2.693121910E0
3.720515588E1,-2.274377823E0,-8.042277336E0,3.044866800E0
3.722542479E1,-2.228914261E0,-8.540582657E0,2.271985054E0
3.724569369E1,-2.128415823E0,-9.138788223E0,1.381256819E0
3.726609369E1,-2.707478762E0,-8.937790871E0,3.948157430E-1
3.728623151E1,-3.289532900E0,-8.940183640E0,-1.728814393E-1
3.730650041E1,-3.454637766E0,-9.550951958E0,-5.676971674E-1
3.732676932E1,-3.105285645E0,-1.030229759E1,-1.231107235E0
3.734703823E1,-2.315055847E0,-1.105902767E1,-2.349153519E0
3.736743822E1,-1.127617717E0,-1.152622700E1,-3.146561861E0
3.738757604E1,-4.307080805E-1,-1.091545868E1,-2.394617319E0
3.740784494E1,-6.891329288E-1,-1.151186943E1,-1.226321608E-1
3.742811385E1,-1.608574986E0,-1.389153194E1,1.065404296E0
3.744838276E1,-3.100499868E0,-1.524646759E1,1.182652593E0
3.746865171E1,-5.824728489E0,-1.487318707E1,-7.238288224E-2
3.748892067E1,-6.272784710E0,-1.339083385E1,-1.724028707E0
3.750918958E1,-4.917250633E0,-1.181815147E1,-3.045464993E0
3.752945848E1,-4.180261135E0,-1.181815147E1,-3.821337700E0
3.754972739E1,-3.356531858E0,-1.284527016E1,-4.029513359E0
3.756999630E1,-3.117249727E0,-1.435334682E1,-3.637090445E0
3.759026520E1,-4.956133842E0,-1.441077423E1,-1.578066587E0
3.761053416E1,-6.339783669E0,-1.278305721E1,9.523434043E-1
3.763080307E1,-5.298307419E0,-1.111884880E1,2.157129526E0
3.765107203E1,-2.956930637E0,-1.052782154E1,2.056032896E0
3.767134088E1,-1.120439172E0,-1.036929703E1,9.451649189E-1
3.769160984E1,-1.058225870E0,-9.835697174E0,-4.935196638E-1
3.771187875E1,-1.946561217E0,-9.452845573E0,-1.776670814E0
3.773214770E1,-2.197807550E0,-9.412167549E0,-2.715255499E0
3.775241661E1,-2.494517565E0,-8.305487633E0,-1.831705689E0
3.777268557E1,-1.218544960E0,-7.774280548E0,-2.039881349E-1
3.779295448E1,4.067798331E-2,-8.255238533E0,-6.999006122E-2
3.781322338E1,2.632104978E-2,-8.255238533E0,6.939185411E-2
3.783349234E1,-9.888339639E-1,-7.216155052E0,-6.999006122E-2
3.785376125E1,-1.752144337E0,-5.332405090E0,-8.715856671E-1
3.787403020E1,-2.532802820E0,-4.146761417E0,-1.243071318E0
3.789443020E1,-3.289532900E0,-3.285345554E0,-7.447660565E-1
3.791456807E1,-3.976871252E0,-2.423331022E0,-1.369891018E-1
3.793483703E1,-3.765704632E0,-1.496710539E0,-1.872383654E-1
3.795510593E1,-3.124428272E0,-3.906283081E-1,-1.216750264E0
3.797537489E1,-3.289532900E0,1.770688742E-1,-3.180061340E0
3.799564380E1,-3.021536827E0,-9.337990284E-1,-6.735197544E0
3.801591276E1,-4.412364960E0,-1.024965572E1,-7.204190731E0
3.803618171E1,-5.786443233E0,-3.169473076E1,-6.883552551E0
3.805645062E1,1.077368379E0,-2.864687347E1,-8.207381248E0
3.807671958E1,-3.998406649E0,-5.332405090E0,-3.235096216E0
3.809698854E1,-4.761716843E0,-2.470589429E-1,-1.527817249E0
3.811725744E1,-6.122036934E0,-1.068395257E0,-7.734799385E-1
3.813752640E1,-6.602993965E0,-7.752745152E0,-3.475574851E-1
3.815779536E1,-5.303092957E0,-1.680539131E1,-7.064808607E-1
3.817806427E1,2.536391914E-1,-1.741556168E1,-1.408176184E0
3.819833322E1,2.720041037E0,-1.199043465E1,-7.758727670E-1
3.821860218E1,1.853241086E0,-9.062217712E0,-5.437689424E-1
3.823887114E1,-7.830511928E-1,-7.232904434E0,-1.178465128E0
3.825914005E1,-2.551945448E0,-6.428916454E0,-7.112665176E-1
3.827940901E1,-1.913061738E0,-7.424928665E0,8.518448472E-1
3.829967796E1,-1.689931035E0,-8.760722160E0,6.221339107E-1
3.831994687E1,-1.297508121E0,-9.531808853E0,-8.572286963E-1
3.834021583E1,-1.225723386E0,-8.959325790E0,-1.570888042E0
3.836048479E1,-1.481755376E0,-8.325227737E0,-8.261220455E-1
3.838075375E1,-1.378864050E0,-8.344370842E0,5.479564071E-1
3.840102270E1,-9.649057388E-1,-8.437690735E0,8.757730722E-1
3.842129166E1,-1.012762189E0,-8.839685440E0,4.450650215E-1
3.844156057E1,-1.831705689E0,-9.289535522E0,-5.563312769E-2
3.846196057E1,-3.110071182E0,-9.771091461E0,-6.281159073E-2
3.848209848E1,-4.165904045E0,-1.019701385E1,-4.911268353E-1
3.850236744E1,-3.346960783E0,-1.060199928E1,-1.850848317E0
3.852263640E1,-2.228914261E0,-1.059242725E1,-1.635494232E0
3.854290536E1,-1.975275040E0,-9.553344727E0,-4.839483798E-1
3.856330536E1,-1.917847395E0,-9.390632629E0,-6.759724021E-2
3.858344328E1,-1.517647743E0,-1.042492962E1,2.033899277E-1
3.860371224E1,-1.254437327E0,-1.191147137E1,3.254238665E-1
3.862398119E1,-9.720842242E-1,-1.272562885E1,-8.673982322E-2
3.864425015E1,-1.072582722E0,-1.315155125E1,-1.005583763E0
3.866465015E1,-5.240281820E-1,-1.382213974E1,-1.077966571E0
3.868478807E1,-4.594219327E-1,-1.470808220E1,-4.432703853E-1
3.870505703E1,-3.356531858E0,-1.460040569E1,-1.495514158E-2
3.872532599E1,-7.333403111E0,-1.303190994E1,-4.815555513E-1
3.874559494E1,-7.764111042E0,-1.091067314E1,-2.763111830E0
3.876599494E1,-4.831109047E0,-1.014197922E1,-3.663411379E0
3.878613286E1,-2.827120066E0,-1.136770248E1,-2.933002472E0
3.880640182E1,-2.712264538E0,-1.335254860E1,-2.164906263E0
3.882667078E1,-3.361317635E0,-1.335254860E1,-2.042274237E0
3.884693974E1,-3.490530014E0,-1.193779182E1,-1.195214868E0
3.886720869E1,-3.478565931E0,-1.132941723E1,-6.520441920E-2
3.888747765E1,-3.497708559E0,-1.030708313E1,1.046261668E0
3.890774661E1,-2.901895761E0,-9.004789352E0,1.699502230E0
3.892801557E1,-1.901097536E0,-7.903493404E0,1.366899967E0
3.894828453E1,-1.244866014E0,-7.551748276E0,-9.218349457E-1
3.896855348E1,-1.905883193E0,-7.759923935E0,-2.674577475E0
3.898882250E1,-3.016751051E0,-7.965706348E0,-1.791027784E0
3.900909140E1,-3.196212769E0,-7.994420528E0,-1.226321578E0
3.902936041E1,-2.006381750E0,-8.416155815E0,-1.726421595E0
3.904962937E1,-1.304686546E0,-8.269595146E0,-2.105085611E0
3.906989833E1,-1.424327731E0,-7.568498135E0,-1.814955950E0
3.909016729E1,-2.200200319E0,-6.620342255E0,-1.850848317E0
3.911043625E1,-2.635694027E0,-5.863611698E0,-2.126621008E0
3.913070520E1,-2.717050076E0,-5.284548759E0,-2.308475733E0
3.915097416E1,-2.968894720E0,-4.367499352E0,-2.136192322E0
3.917124317E1,-3.143570662E0,-3.548556089E0,-2.015953064E0
3.919151213E1,-2.942573547E0,-2.772683144E0,-1.913061738E0
3.921178109E1,-2.805584431E0,-2.523829699E0,-1.958525300E0
3.923205005E1,-2.880360365E0,-2.724826813E0,-1.970489502E0
3.925231901E1,-3.445066452E0,-2.497508526E0,-3.536591768E0
3.927258796E1,-4.776073933E0,-3.656233072E0,-1.161236858E1
3.929285692E1,-7.998608112E0,-1.177508068E1,-2.595315170E1
3.931312593E1,-3.708875179E-1,-2.663809776E1,-5.653043389E-1
3.933339489E1,4.688137531E0,-1.341715431E1,1.388435364E0
3.935366385E1,-3.741776466E0,-4.704887390E0,-1.094895840E1
3.937393281E1,-5.441876888E0,-2.743969440E0,-2.681756020E0
3.939420177E1,-3.960121393E0,-4.599603176E0,-4.293322086E0
3.941447072E1,-6.014359951E0,-1.017069244E1,-3.883551121E0
3.943473968E1,-5.451447964E0,-1.566580963E1,-1.202393413E0
3.945500864E1,-3.972085714E-1,-1.365224934E1,-1.204786181E0
3.947527765E1,7.854440212E-1,-1.080778122E1,-1.085145116E0
3.949554661E1,-4.235295951E-1,-1.017308521E1,-4.648058116E-1
3.951581557E1,-9.553344250E-1,-1.040339470E1,-0.000000000E0
3.953608453E1,-6.293123364E-1,-9.728020668E0,-3.595215976E-1
3.955635343E1,-4.163511395E-1,-8.598010063E0,-8.715856671E-1
3.957662244E1,-1.072582722E0,-7.745566845E0,-1.439282775E0
3.959689140E1,-1.838884234E0,-8.037490845E0,-6.155536175E-1
3.961716041E1,-2.094916344E0,-8.363512993E0,2.943171859E-1
3.963742937E1,-2.678765059E0,-7.858029366E0,-9.744769931E-1
3.965769833E1,-2.623729944E0,-7.678567886E0,-1.410568953E0
3.967796729E1,-1.987239242E0,-8.221738815E0,-8.093722463E-1
3.969823625E1,-7.854440212E-1,-9.236893654E0,-9.816554785E-1
3.971850520E1,2.584248483E-1,-9.775876999E0,-1.128215909E0
3.973877416E1,-4.785645287E-3,-9.852447510E0,-1.010369420E0
3.975904317E1,-1.744965911E0,-9.857233047E0,-1.302891970E0
3.977931213E1,-2.868396044E0,-9.852447510E0,-1.336391449E0
3.979958109E1,-2.906681299E0,-1.004865837E1,-1.621137381E0
3.981985005E1,-2.954537868E0,-9.885947227E0,-1.101894855E0
3.984011901E1,-3.009572744E0,-9.610772133E0,-3.475574851E-1
3.986038796E1,-2.444268227E0,-9.821340561E0,-3.409772366E-2
3.988065692E1,-1.730608940E0,-1.062353420E1,2.105683982E-1
3.990092588E1,-1.326221943E0,-1.119541931E1,1.196411327E-1
3.992119484E1,-9.002995491E-1,-1.136770248E1,-3.116651475E-1
3.994146385E1,-7.010970116E-1,-1.231825066E1,-3.978067636E-1
3.996173281E1,-1.039083242E0,-1.400638771E1,-3.888336942E-2
3.998200177E1,-3.447459221E0,-1.492343616E1,1.674975902E-1
4.000227072E1,-7.046264648E0,-1.446102333E1,4.498506486E-1
4.002253968E1,-8.915657043E0,-1.262034512E1,-2.018345833E0
4.004280864E1,-7.046264648E0,-1.126959610E1,-4.858027935E0
4.006320864E1,-3.964907169E0,-1.092502975E1,-4.585246563E0
4.008334656E1,-2.700300455E0,-1.183729362E1,-3.503092289E0
4.010361552E1,-4.127619267E0,-1.305344582E1,-2.638685226E0
4.012388843E1,-5.456233978E0,-1.310369492E1,-9.696913958E-1
4.014419671E1,-5.137988567E0,-1.195932770E1,1.220339537E-1
4.016458171E1,-4.465006828E0,-1.048475075E1,2.823530734E-1
4.018469218E1,-3.488137245E0,-9.234500885E0,8.997012973E-1
4.020496104E1,-2.164308071E0,-8.502297401E0,1.692323804E0
4.022522984E1,-1.689931035E0,-7.731209755E0,1.512862086E0
4.024549880E1,-2.087737799E0,-6.981658459E0,8.183453679E-1
4.026589864E1,-3.547957659E0,-6.330810547E0,-3.020938635E-1
4.028603651E1,-4.201796532E0,-6.409773827E0,-1.012762189E0
4.030630536E1,-3.823132277E0,-7.027122021E0,-2.207977057E0
4.032657427E1,-2.281556368E0,-7.889136314E0,-2.650649309E0
4.034684328E1,-8.811569214E-1,-8.586046219E0,-2.454437733E0
4.036724322E1,-1.393221021E0,-8.149953842E0,-2.093121529E0
4.038738109E1,-2.080559254E0,-7.106084824E0,-2.365903378E0
4.040765000E1,-2.293520451E0,-6.215356827E0,-2.830111027E0
4.042791895E1,-2.573480844E0,-5.303691387E0,-3.002394199E0
4.044818786E1,-3.409173965E0,-4.091726780E0,-2.629113913E0
4.046845677E1,-3.363710403E0,-3.136990547E0,-2.332403898E0
4.048872572E1,-2.923431158E0,-2.758326292E0,-2.296511650E0
4.050899468E1,-2.702693224E0,-2.217548370E0,-2.160120726E0
4.052926364E1,-2.899502754E0,-1.776670814E0,-3.445664644E0
4.054953255E1,-3.478565931E0,-2.892324448E0,-8.252845764E0
4.056980151E1,-6.279963017E0,-9.162715912E0,-2.178485489E1
4.059007046E1,-1.673181176E0,-2.223530388E1,-7.132406235E0
4.061033942E1,6.763911247E0,-1.812204170E1,4.615755081E0
4.063060838E1,-1.579861164E0,-8.964112282E0,-1.193539906E1
4.065087734E1,-6.299105644E0,-4.822135925E0,-2.413759947E0
4.067114630E1,-6.002395630E0,-2.791825771E0,-3.969692707E0
4.069141526E1,-5.719444275E0,-5.684150219E0,-3.589233875E0
4.071168416E1,-5.303092957E0,-1.249831104E1,-2.296511650E0
4.073195312E1,-8.811569214E-1,-1.566341686E1,-1.561316729E0
4.075222208E1,2.916252613E0,-1.359482193E1,-2.018345833E0
4.077249104E1,2.889931440E0,-1.130309582E1,-1.936989903E0
4.079276000E1,1.151545882E0,-9.689735413E0,-1.192822099E0
4.081302890E1,-8.614161611E-2,-9.047860146E0,-7.830511928E-1
4.083329786E1,-1.493719578E0,-8.631509781E0,-1.379462242E0
4.085356682E1,-2.841476917E0,-8.025527000E0,-1.850848317E0
4.087383578E1,-3.440280676E0,-8.109275818E0,-8.356932998E-1
4.089410468E1,-3.758526087E0,-8.708079338E0,-6.729813814E-1
4.091437364E1,-3.143570662E0,-8.418548584E0,-6.490531564E-1
4.093464260E1,-2.023131609E0,-8.116454124E0,-9.152546525E-2
4.095491156E1,-9.816554785E-1,-8.334799767E0,4.139583111E-1
4.097518046E1,-2.368894368E-1,-8.825327873E0,5.551348329E-1
4.099544942E1,-6.699903309E-2,-9.007183075E0,-2.901297510E-1
4.101571838E1,-2.201396823E-1,-8.849256516E0,-2.518445849E-1
4.103598729E1,-1.311864972E0,-8.684151649E0,1.100698411E-1
4.105625625E1,-2.944966555E0,-8.688937187E0,1.435693651E-1
4.107652520E1,-3.991228104E0,-8.978468895E0,6.460621208E-2
