"Time (s)","Gyroscope x (rad/s)","Gyroscope y (rad/s)","Gyroscope z (rad/s)"
3.745229100E-2,2.904174924E-1,2.125200927E-1,-5.898897648E-1
5.756791600E-2,2.190448344E-1,1.640505940E-1,-7.016092539E-1
7.784057200E-2,1.604553312E-1,3.680485785E-1,-7.681882381E-1
9.811338500E-2,1.274321675E-1,7.045387626E-1,-7.479482293E-1
1.183863010E-1,-9.627319872E-2,8.648608923E-1,-5.946834087E-1
1.386590620E-1,-2.671148479E-1,8.147935271E-1,-3.262369931E-1
1.589319260E-1,-2.340916842E-1,4.687159956E-1,-4.460791498E-2
1.792047910E-1,-1.181111038E-1,5.592634156E-2,6.724476814E-2
1.994777080E-1,-4.127896391E-3,2.545980215E-1,1.274321675E-1
2.198777080E-1,-2.969422378E-2,5.916208029E-1,2.286322117E-1
2.400235930E-1,-1.191763729E-1,7.119956017E-1,4.182491302E-1
2.602964580E-1,-2.111885101E-1,9.197220206E-1,6.103960872E-1
2.805693740E-1,-2.878875136E-1,8.499472141E-1,7.233139873E-1
3.008422910E-1,-2.969422340E-1,6.459492445E-1,8.266445994E-1
3.211152600E-1,-3.507380486E-1,5.543365479E-1,9.400951862E-1
3.413881240E-1,-4.748412669E-1,7.599324584E-1,9.448888302E-1
3.616610930E-1,-5.350286365E-1,1.218927979E0,7.861645818E-1
3.819340100E-1,-5.824328661E-1,1.332911134E0,4.745749533E-1
4.022069260E-1,-7.516766787E-1,1.197090030E0,1.588574350E-1
4.224798950E-1,-8.438219428E-1,1.281778455E0,6.245107949E-2
4.427528120E-1,-7.506113648E-1,1.573660731E0,8.375635743E-2
4.630257280E-1,-7.379614115E-1,1.730121255E0,-3.448791057E-2
4.832986970E-1,-8.858999014E-1,1.510810137E0,-2.346243113E-1
5.035716140E-1,-1.000415683E0,1.328650117E0,-2.324937880E-1
5.238445830E-1,-9.796430469E-1,1.484178543E0,-5.725792143E-3
5.441174990E-1,-8.624640703E-1,1.599227071E0,2.137185186E-1
5.643904160E-1,-7.044056058E-1,1.315334320E0,3.255712092E-1
5.846633850E-1,-5.041360259E-1,7.934882641E-1,4.633896947E-1
6.049363010E-1,-1.580584943E-1,3.691138625E-1,5.768402815E-1
6.252092700E-1,5.286370963E-2,3.755054474E-1,5.358276367E-1
6.454821870E-1,-1.442100704E-1,6.363618970E-1,3.516701460E-1
6.658821870E-1,-2.559295893E-1,7.615303397E-1,3.261038363E-1
6.860280720E-1,-1.798963994E-1,4.506065249E-1,4.075964987E-1
7.063010410E-1,-1.713742912E-1,4.282359779E-1,5.033370852E-1
7.265739580E-1,-1.628521830E-1,1.715074480E-1,5.246423483E-1
7.468469260E-1,-6.804371625E-2,-2.081258893E-1,4.404865205E-1
7.671198430E-1,-1.740374416E-1,-6.325002760E-2,2.685796022E-1
7.873928120E-1,-4.066644013E-1,5.299686790E-1,6.990792602E-2
8.076657280E-1,-5.121254921E-1,8.504798412E-1,-8.029424399E-2
8.279386970E-1,-4.732433856E-1,6.097303033E-1,-2.862896025E-2
8.482116660E-1,-3.677822649E-1,3.616569936E-1,2.009353489E-1
8.684452600E-1,-3.491401672E-1,6.657897681E-2,5.081307292E-1
8.887574990E-1,-3.992075622E-1,-6.218476593E-2,6.434192657E-1
9.090304680E-1,-5.036033988E-1,8.628635854E-2,4.086617529E-1
9.293033850E-1,-6.942855716E-1,3.430148959E-1,2.174469382E-1
9.495763530E-1,-7.985482812E-1,3.478085697E-1,2.318280041E-1
9.699763530E-1,-8.044071794E-1,2.386190593E-1,2.712427676E-1
9.901222910E-1,-7.554050684E-1,3.643201590E-1,2.749711871E-1
1.010395208E0,-6.729803085E-1,-5.193160381E-3,3.133206666E-1
1.030668228E0,7.808382511E-1,-8.673909307E-1,3.580617309E-1
1.050941145E0,8.223835230E-1,1.048086286E0,2.376869470E-1
1.071341145E0,4.127896726E-1,3.994738758E-1,-1.079910994E-1
1.091487083E0,1.631184965E-1,2.098569423E-1,-7.709845901E-2
1.111760051E0,-4.567318037E-2,2.332927436E-1,2.035985142E-1
1.132033020E0,-7.550056279E-2,1.965411454E-1,3.037332892E-1
1.152305937E0,-4.660528619E-3,3.115896285E-1,1.865542978E-1
1.172705937E0,-8.242477477E-2,4.793686271E-1,-1.957421936E-2
1.192733541E0,-4.620581120E-2,7.311703563E-1,-6.085318327E-1
1.213125208E0,3.074617088E-1,1.052879930E0,-1.414137483E0
1.233397708E0,6.748445034E-1,1.487906933E0,-1.906688809E0
1.253670728E0,9.724525213E-1,1.594433308E0,-1.872067690E0
1.274070728E0,9.341030717E-1,1.314801693E0,-1.388571143E0
1.294216718E0,6.679202914E-1,6.161218882E-1,-9.141293764E-1
1.314489687E0,3.579285741E-1,3.222422600E-1,-5.733781457E-1
1.334762655E0,2.472743243E-1,3.462106735E-2,-3.821633458E-1
1.355035624E0,2.749711871E-1,2.077264152E-2,-3.001380265E-1
1.375308697E0,4.506065249E-1,5.028044581E-1,-3.954791129E-1
1.395581666E0,9.106672406E-1,7.231808305E-1,-4.466117918E-1
1.415854635E0,6.119939685E-1,5.012065172E-1,-3.097254038E-1
1.436127655E0,1.194426864E-1,5.091960430E-1,-2.239716798E-1
1.456400937E0,-4.407528415E-2,3.925496638E-1,3.688475490E-2
1.476807239E0,-1.367532164E-1,3.840275407E-1,2.834932804E-1
1.497094166E0,1.078579482E-2,9.351683259E-1,1.039963663E-1
1.517211874E0,-7.656582445E-2,1.029444098E0,-2.415485233E-1
1.537486405E0,7.843003422E-2,8.739156723E-1,-3.779022694E-1
1.557759322E0,3.095922470E-1,8.536756635E-1,-4.577970505E-1
1.578160676E0,4.873581231E-1,6.060018539E-1,-6.388918757E-1
1.598307655E0,4.846949577E-1,3.446127772E-1,-5.030707717E-1
1.618581458E0,5.992107987E-1,2.647180259E-1,-2.047969401E-1
1.638855103E0,8.282424808E-1,9.374319762E-2,-1.227716357E-1
1.659128072E0,1.089098930E0,-8.828372508E-2,-1.675127149E-1
1.679528593E0,8.213182688E-1,-1.292963773E-1,-1.233042628E-1
1.699675051E0,4.777707458E-1,-2.097237855E-1,2.889527567E-2
1.719948385E0,4.617917836E-1,-3.657849133E-1,6.617950648E-2
1.740221614E0,5.358276367E-1,-4.531365335E-1,1.198421582E-3
1.760494583E0,5.006738901E-1,-3.455449045E-1,-6.258423906E-3
1.780894791E0,4.415517747E-1,-2.299637944E-1,8.748477697E-2
1.801041041E0,3.520696461E-1,-2.530001104E-3,1.753690243E-1
1.821314218E0,4.026696682E-1,5.326318089E-3,1.833585054E-1
1.841587343E0,6.817687154E-1,-4.247738793E-2,2.904174924E-1
1.861860364E0,7.344992757E-1,-2.288985252E-1,3.021354079E-1
1.882260468E0,5.203812718E-1,-2.139848322E-1,2.765690684E-1
1.902406562E0,1.812279820E-1,-1.106542572E-1,2.952111959E-1
1.922679583E0,1.316932142E-1,-2.490053698E-2,2.936132848E-1
1.942952655E0,2.302301079E-1,-1.245026886E-1,3.154512048E-1
1.963225780E0,2.456764281E-1,8.415582776E-2,4.324970245E-1
1.983498853E0,3.744401634E-1,2.551306486E-1,6.737792492E-1
2.003771874E0,8.851009011E-1,-4.194475710E-2,1.194027424E0
2.024044947E0,1.398558021E0,-3.705785871E-1,1.765408158E0
2.044317968E0,1.408012271E0,-4.334291518E-1,1.868206143E0
2.064591041E0,8.415582776E-1,-3.263701499E-1,1.509744883E0
2.084864062E0,2.739059031E-1,-5.259739235E-2,1.237703204E0
2.105137187E0,1.194426864E-1,-9.361004084E-2,1.342631698E0
2.125410208E0,1.226384789E-1,-3.994738800E-4,1.453419089E0
2.145683228E0,1.375521719E-1,-1.997369342E-3,1.415069580E0
2.165956301E0,1.284974217E-1,-1.234374270E-1,1.290433764E0
2.186229322E0,4.221107066E-2,1.507348120E-1,1.183907390E0
2.206502395E0,2.410159074E-2,4.772381186E-1,1.095490456E0
2.226775416E0,-4.660528619E-3,2.024000883E-1,1.065663099E0
2.247048489E0,-2.575274706E-1,4.245075583E-1,9.358341098E-1
2.267321510E0,-6.239781976E-1,5.038697124E-1,6.364950538E-1
2.287594583E0,-8.677904010E-1,7.146587372E-1,2.675143182E-1
2.307867603E0,-7.953524590E-1,7.455514073E-1,4.860265180E-2
2.328140676E0,-2.676474750E-1,-3.595264861E-3,2.589922249E-1
2.348413697E0,1.460742801E-1,-3.087933064E-1,5.012065172E-1
2.368686770E0,8.695214242E-2,1.731053442E-1,3.612575233E-1
2.388959843E0,4.926844500E-3,2.498043180E-1,1.828258783E-1
2.409232864E0,-8.988162130E-2,6.155892015E-1,-1.408811212E-1
2.429505937E0,3.475422785E-2,8.749809265E-1,-5.467465520E-1
2.449779010E0,2.584595978E-1,8.286419511E-1,-7.761777043E-1
2.470052030E0,5.683181286E-1,2.588590682E-1,-6.415550113E-1
2.490325103E0,7.025413513E-1,-9.414267540E-2,-2.703106403E-1
2.510725103E0,7.307708859E-1,1.757684946E-1,-1.074584723E-1
2.530871197E0,1.046488404E0,1.805621833E-1,-4.428833723E-1
2.551144270E0,1.134905219E0,1.805621833E-1,-9.008135796E-1
2.571417343E0,9.159935713E-1,2.492716908E-1,-1.190032601E0
2.591690364E0,7.739140391E-1,4.053328037E-1,-1.425855398E0
2.611963437E0,9.143956900E-1,3.270359337E-1,-1.638375521E0
2.632236510E0,1.145557880E0,1.970737725E-1,-1.886448741E0
2.652509583E0,9.580714703E-1,4.314317703E-1,-2.343846321E0
2.672782603E0,5.683181286E-1,1.004943132E0,-2.905107021E0
2.693055676E0,4.133222997E-1,1.069924116E0,-3.243860960E0
2.713328749E0,3.589938581E-1,1.078978896E0,-3.290732622E0
2.733601822E0,6.077328920E-1,6.544713378E-1,-3.115496635E0
2.753874843E0,6.279729009E-1,6.315681934E-1,-3.015894413E0
2.774147916E0,3.483411968E-1,1.058738947E0,-3.114431381E0
2.794420989E0,1.977395564E-1,5.623260736E-1,-2.999382973E0
2.814820833E0,6.404897571E-2,3.387538493E-1,-2.879540682E0
2.835131458E0,1.721732318E-1,-2.145174593E-1,-2.779539108E0
2.855403280E0,2.691122293E-1,-8.530098796E-1,-2.396576881E0
2.875659739E0,-3.062632866E-3,-3.748396337E-1,-1.914678216E0
2.895777812E0,-3.576622605E-1,2.263685223E-3,-1.187369466E0
2.916052551E0,-1.080843091E0,2.416550636E0,-7.660577297E-1
2.936325520E0,-1.654887080E0,4.987963676E0,-4.146538675E-1
2.956605885E0,-9.338367581E-1,1.735980272E0,1.253016293E-1
2.976878905E0,-2.761695981E-1,-1.085104227E0,5.917539597E-1
2.997151822E0,-6.655234694E-1,-9.680583477E-1,1.244627357E0
3.017424895E0,-8.438219428E-1,8.522109129E-3,1.833585024E0
3.037697916E0,-6.617950201E-1,-5.419528857E-2,2.173270941E0
3.057970989E0,-5.861613154E-1,-7.874961495E-1,2.324005842E0
3.078243958E0,-8.523440957E-1,-7.448856235E-1,2.138117313E0
3.098517030E0,-1.080310464E0,-1.484711170E-1,1.747831345E0
3.118790051E0,-8.422240615E-1,1.336905807E-1,1.598694444E0
3.139063124E0,-3.715106845E-1,-2.757701278E-1,1.190298915E0
3.159336197E0,-1.691105962E-2,-2.512690723E-1,4.724444151E-1
3.179609166E0,3.085269928E-1,-1.000016257E-1,-3.528685868E-1
3.199882291E0,7.403582335E-1,-2.086585164E-1,-1.366733193E0
3.220155312E0,1.115730524E0,-5.259739235E-2,-2.375804186E0
3.240428333E0,1.435176492E0,-4.660528619E-3,-3.193793535E0
3.260701405E0,1.508147001E0,-1.090563685E-1,-4.007388592E0
3.280974478E0,1.202549458E0,-8.828372508E-2,-5.160802841E0
3.301247551E0,8.234487772E-1,-2.171806246E-1,-5.532446861E0
3.321520572E0,4.274370521E-2,-5.111933947E-1,-4.932969570E0
3.341793645E0,-5.344960093E-1,-1.736379743E0,-5.069722652E0
3.362066614E0,-1.224653721E0,-2.386590004E0,-5.819002628E0
3.382339739E0,-1.915210843E0,-1.244361043E0,-7.319026947E0
3.402739739E0,-1.667670250E0,2.263685167E-1,-6.725275517E0
3.422885833E0,-7.900261283E-1,1.319595337E0,-5.550556183E0
3.443158853E0,1.067793608E0,1.778058171E0,-3.747064829E0
3.463431926E0,2.523609638E0,4.523642063E0,-1.185771585E0
3.483831926E0,-1.137302041E0,7.349653244E0,1.657816470E-1
3.503978020E0,-2.654903412E0,6.306493759E0,-4.822981060E-1
3.524251093E0,-2.530267477E0,4.099267483E0,-6.037381887E-1
3.544524114E0,-1.530251265E0,1.125184774E0,-3.928159773E-1
3.564797187E0,2.621880174E-1,-7.448856235E-1,-4.194475710E-2
3.585070208E0,1.070989490E0,-1.786979795E0,1.471395344E-1
3.605343280E0,9.165261984E-1,-2.447842598E0,2.488722205E-1
3.625616301E0,6.913561225E-1,-2.372209072E0,2.664490640E-1
3.645889374E0,6.072002649E-1,-1.801360846E0,2.312953621E-1
3.666162395E0,5.507413149E-1,-1.037833095E0,2.286322117E-1
3.686435468E0,4.122570157E-1,-2.091911435E-1,3.442133069E-1
3.706708489E0,2.163816839E-1,5.527386665E-1,5.315665603E-1
3.726981510E0,-5.845634267E-2,1.126250029E0,6.487455368E-1
3.747254583E0,-3.890875578E-1,1.508147001E0,5.933518410E-1
3.767527603E0,-4.988096952E-1,1.794569731E0,3.878891170E-1
3.787800624E0,2.356895804E-2,2.156626225E0,1.870869249E-1
3.808073645E0,5.715139508E-1,2.157691479E0,1.396826953E-1
3.828346718E0,6.572676897E-1,1.713609695E0,1.824264042E-2
3.848619739E0,4.490086138E-1,9.042756557E-1,-9.201214463E-2
3.868892760E0,4.032022953E-1,-1.318263728E-2,-1.483379602E-1
3.889165780E0,3.818970025E-1,-7.166560888E-1,-2.751043439E-1
3.909438801E0,1.386174262E-1,-7.635276914E-1,-3.193127811E-1
3.929711822E0,-2.308958918E-1,-3.487406969E-1,-2.474074811E-1
3.949984843E0,-5.163865685E-1,3.430148959E-1,-9.147951752E-2
3.970257864E0,-4.657865167E-1,1.036900997E0,8.375635743E-2
3.990530885E0,-2.426137924E-1,1.248222709E0,1.950764060E-1
4.010803905E0,-1.010668874E-1,8.201198578E-1,2.057290375E-1
4.031076926E0,-5.526055023E-2,2.876211889E-2,1.226384789E-1
4.051349947E0,-3.235738352E-2,-6.266413331E-1,-6.325002760E-2
4.071622968E0,2.303632535E-2,-9.137299061E-1,-2.596580088E-1
4.091895989E0,-4.087949172E-2,-8.801741004E-1,-3.065296113E-1
4.112169010E0,-2.740390599E-1,-6.175866127E-1,-1.031974182E-1
4.132442030E0,-6.623276472E-1,-2.320943177E-1,1.173121557E-1
4.152715051E0,-9.423588514E-1,2.588590682E-1,2.094574571E-1
4.172988072E0,-8.406261802E-1,6.523408294E-1,1.503353268E-1
4.193261041E0,-4.119907022E-1,4.799012840E-1,4.061317816E-2
4.213534062E0,6.724476814E-2,-1.245026886E-1,-1.584579609E-2
4.233807083E0,2.605901062E-1,-3.508712053E-1,-2.165148407E-1
4.254080051E0,1.838911325E-1,-3.189133108E-1,-3.837612271E-1
4.274357030E0,-9.454214945E-3,-4.653870463E-1,-4.812328517E-1
4.294669426E0,-3.565970063E-1,-4.030691385E-1,-6.048034430E-1
4.315066353E0,-8.598009348E-1,6.604634225E-2,-6.882934570E-1
4.335321562E0,-1.087767363E0,5.585976243E-1,-5.190497041E-1
4.355437239E0,-1.037699938E0,1.032639980E0,-3.571296334E-1
4.375838958E0,-9.482178092E-1,1.533713341E0,-3.219759464E-1
4.395986145E0,-9.050745964E-1,1.677390814E0,-2.426137924E-1
4.416260103E0,-8.544746041E-1,1.345161676E0,-2.671148479E-1
4.436532968E0,-6.985466480E-1,7.689871788E-1,-3.464770019E-1
4.456810208E0,-4.061317742E-1,2.423474789E-1,-3.422159553E-1
4.477083228E0,-1.447426975E-1,-1.186437383E-1,-2.506032586E-1
4.497356145E0,-2.969422378E-2,-4.073301852E-1,-1.424790174E-1
4.517629166E0,-4.127896391E-3,-6.074665785E-1,-4.514054582E-2
4.537902083E0,1.291632187E-2,-6.506097913E-1,3.688475490E-2
4.558175051E0,5.499423668E-2,-6.181192398E-1,1.316932142E-1
4.578447968E0,1.210405827E-1,-5.170523524E-1,2.845585644E-1
4.598720937E0,2.312953621E-1,-2.810964286E-1,4.601939023E-1
4.618993905E0,5.028044581E-1,9.906952083E-2,6.396908164E-1
4.639266874E0,9.138630629E-1,7.439534664E-1,8.474172354E-1
4.659539791E0,1.082174659E0,1.935184598E0,8.495477438E-1
4.679812760E0,1.215332627E0,3.467166901E0,1.060336828E0
4.700085728E0,2.257426739E0,6.297971725E0,2.034254074E0
4.720358749E0,2.242513180E0,5.788908958E0,2.903376102E0
4.740631666E0,1.398558021E0,1.900030851E0,3.029609680E0
4.760904635E0,1.800561905E0,-1.539971709E0,2.542917490E0
4.781177603E0,2.022536278E0,-3.953726053E0,1.406547427E0
4.801450572E0,1.224920034E0,-4.314717293E0,6.332992315E-1
4.821723489E0,6.351634115E-2,-1.232110500E0,7.179877162E-1
4.841996510E0,-6.570013762E-1,3.272223473E0,1.186570525E0
4.862269478E0,-1.130910516E0,3.678621769E0,1.378317952E0
4.882542343E0,-8.667251468E-1,1.286039472E0,1.003345251E0
4.902815364E0,8.375635743E-2,-1.123453617E0,2.840259075E-1
4.923088333E0,7.877624631E-1,-2.111352444E0,-5.025381446E-1
4.943361249E0,9.197220206E-1,-2.078329325E0,-1.082440972E0
4.963634218E0,7.265098095E-1,-1.809350252E0,-1.424257517E0
4.984034218E0,3.298322558E-1,-1.543700218E0,-1.549958587E0
5.004180103E0,-3.534012139E-1,-1.221990585E0,-1.491369128E0
5.024453020E0,-1.425322771E0,-9.307740927E-1,-1.367798567E0
5.044725989E0,-2.283792019E0,-6.932203174E-1,-1.274055362E0
5.064998905E0,-2.216147900E0,-3.822965026E-1,-9.977525473E-1
5.085271874E0,-1.280047417E0,1.432779580E-1,-5.877591968E-1
5.105544791E0,-2.772348523E-1,6.528734565E-1,-3.475422561E-1
5.125817760E0,-3.779022694E-1,1.492168069E0,-3.470096290E-1
5.146090676E0,-1.864610791E0,2.348906279E0,-1.424790174E-1
5.166363593E0,-2.355697393E0,2.464487553E0,3.564638495E-1
5.186636562E0,-7.846998572E-1,1.857420325E0,3.442133069E-1
5.207036562E0,6.892255545E-1,-7.795066833E-1,-1.063932031E-1
5.227182395E0,9.602020383E-1,-3.236404181E0,-6.394245028E-1
5.247455312E0,5.390233994E-1,-3.961182833E0,-4.801675975E-1
5.267728280E0,3.111901283E-1,-2.900446653E0,2.872217000E-1
5.288001197E0,5.273054838E-1,-2.986733019E-1,9.772462249E-1
5.308274114E0,9.420925379E-1,3.702589989E0,1.434244394E0
5.328546978E0,1.110936761E0,5.430447578E0,1.119458914E0
5.348819947E0,8.250467181E-1,2.861697674E0,4.017375410E-1
5.369092864E0,4.692486227E-1,-9.169256687E-1,-2.053295672E-1
5.389365780E0,5.209138989E-1,-2.914294958E0,-7.378282547E-1
5.409638697E0,1.577921808E-1,-3.207775116E0,-1.196291089E0
5.429911666E0,-6.367613673E-1,-2.420678377E0,-1.211204767E0
5.450184530E0,-1.173521042E0,-6.314350367E-1,-8.949546218E-1
5.470457447E0,-1.032373667E0,1.367532253E0,-4.301002026E-1
5.490730364E0,-7.937545776E-1,2.532664299E0,-1.579253376E-1
5.511003280E0,-1.054211497E0,2.453302145E0,-8.349003643E-2
5.531276197E0,-1.433312178E0,1.363803744E0,4.913528636E-2
5.551549114E0,-1.082973599E0,6.661892533E-1,3.106575012E-1
5.571822030E0,-2.012016773E-1,7.588672042E-1,4.671181142E-1
5.592094843E0,2.845585644E-1,3.914843798E-1,4.910865426E-1
5.612367812E0,3.021354079E-1,-1.229047924E-1,6.199834347E-1
5.632640728E0,2.611227632E-1,6.657897611E-4,6.679202914E-1
5.652913645E0,3.170490861E-1,3.648527861E-1,6.098634601E-1
5.673186510E0,3.282343447E-1,4.133222997E-1,4.474107325E-1
5.693459426E0,2.952111959E-1,1.304948032E-1,2.115879953E-1
5.713732291E0,2.424806356E-1,-1.852227151E-1,7.203845680E-2
5.734005208E0,5.020054802E-2,-1.303616315E-1,-8.921583183E-3
5.754278124E0,-1.767006069E-1,3.376885653E-1,-7.123950869E-2
5.774686041E0,-3.342264593E-1,6.491450071E-1,-3.342264518E-2
5.794988176E0,-3.581948876E-1,5.564671159E-1,1.331579551E-4
5.815236458E0,-1.564605981E-1,5.368928909E-1,2.142511457E-1
5.835284999E0,4.202465117E-1,1.019856811E0,7.115961313E-1
5.855636249E0,1.195625305E0,1.088965774E0,1.087501049E0
5.876037603E0,1.771799803E0,6.134586930E-1,1.213202119E0
5.896184322E0,2.001763582E0,4.591286182E-1,1.337837934E0
5.916457968E0,1.984719276E0,6.123934388E-1,1.474191666E0
5.936730833E0,1.596031308E0,5.580649972E-1,1.472593784E0
5.957007135E0,1.260606408E0,3.536675274E-1,1.208408475E0
5.977279947E0,8.388951421E-1,1.004410505E0,8.697877526E-1
5.997552812E0,4.037349224E-1,1.979925632E0,8.250467181E-1
6.017825572E0,-1.617869139E-1,2.267946243E0,7.904255986E-1
6.038098489E0,-5.126581192E-1,1.824929833E0,4.161186218E-1
6.058371353E0,-2.798980176E-1,8.131956458E-1,-4.087949172E-2
6.078644218E0,8.269108832E-2,-1.676458716E-1,-5.179844499E-1
6.098917083E0,1.487374306E-1,-8.306393027E-1,-9.945567846E-1
6.119189947E0,1.039963663E-1,-1.397759080E0,-1.398691177E0
6.139462812E0,1.503353268E-1,-1.930257678E0,-1.721466064E0
6.159735676E0,2.020006180E-1,-2.411091089E0,-1.964745641E0
6.180008489E0,-8.828372508E-2,-2.674211264E0,-2.131459475E0
6.200281353E0,-1.066994667E0,-2.451038599E0,-2.086718321E0
6.220554218E0,-1.957288742E0,-2.306162596E0,-1.617070198E0
6.240827083E0,-1.816274524E0,-2.573543787E0,-7.745798230E-1
6.261099947E0,-1.180977941E0,-4.020038545E-1,-3.595264861E-3
6.281372812E0,-8.976177573E-1,2.924548149E0,2.078595608E-1
6.301645676E0,-1.405082703E0,3.669566870E0,-1.211737376E-2
6.321918541E0,-1.237436891E0,2.070472956E0,-3.645864725E-1
6.342191353E0,-2.202432603E-1,-6.570013762E-1,-3.059969842E-1
6.362464218E0,5.906887054E-1,-1.985651374E0,-3.059969842E-1
6.382737083E0,1.070456743E0,-2.087383986E0,-4.370244145E-1
6.403009947E0,1.308543205E0,-2.211354256E0,-3.422159553E-1
6.423282812E0,1.121589422E0,-2.681135416E0,1.647163928E-1
6.443555624E0,7.771098018E-1,-2.648112297E0,7.190529704E-1
6.463828489E0,7.073350549E-1,-1.501089573E0,1.254747391E0
6.484228489E0,4.138549268E-1,3.009769201E0,1.648761749E0
6.504374166E0,5.438171029E-1,4.125366688E0,1.172722101E0
6.524647030E0,2.930806577E-1,2.365950584E0,5.539370775E-1
6.544919895E0,-2.022669315E-1,-8.588688374E-1,-2.282327414E-1
6.565192708E0,-2.415485233E-1,-2.971819162E0,-7.532745600E-1
6.585465572E0,-5.488771200E-1,-3.484077930E0,-7.809714079E-1
6.605738437E0,-1.237436891E0,-2.655569077E0,-7.724493146E-1
6.626011301E0,-1.561143875E0,-4.620581120E-2,-6.888260841E-1
6.646284166E0,-1.034504175E0,2.662093878E0,-3.022685647E-1
6.666556978E0,-7.756450772E-1,2.992725134E0,2.037316747E-2
6.686829843E0,-8.640619516E-1,5.857618451E-1,6.884266436E-2
6.707102708E0,-1.564605981E-1,-5.005407333E-1,1.237037405E-1
6.727375572E0,2.962764502E-1,2.002695650E-1,2.227732539E-1
6.747648385E0,2.211753577E-1,6.400902867E-1,4.745749533E-1
6.767921249E0,6.884266436E-2,5.969471335E-1,5.422192216E-1
6.788194114E0,-1.255679578E-1,5.500755310E-1,1.854890287E-1
6.808466926E0,-1.170458421E-1,4.490086138E-1,-1.179779470E-1
6.828739791E0,4.434159771E-2,2.290316857E-2,-2.053295672E-1
6.849012655E0,2.632532716E-1,-1.836248189E-1,-2.649843395E-1
6.869285468E0,4.479433596E-1,-8.828372508E-2,-2.031990439E-1
6.889558333E0,4.639223218E-1,7.190529257E-2,-9.414267540E-2
6.909831197E0,4.170507193E-1,1.043958366E-1,2.729738131E-2
6.930111978E0,2.786996067E-1,1.416800618E-1,1.828258783E-1
6.950454062E0,1.897500902E-1,1.069391489E0,6.519413590E-1
6.970648593E0,6.924213767E-1,3.345726728E0,1.304282188E0
6.990921458E0,1.725460768E0,2.500706434E0,1.853825092E0
7.011321718E0,2.239317417E0,-5.392897129E-1,1.883119822E0
7.031467499E0,2.333593130E0,-3.961449265E-1,1.663675547E0
7.051740468E0,1.366067410E0,5.745765567E-1,1.494431734E0
7.072013489E0,5.763076544E-1,6.251766086E-1,1.207875848E0
7.092286405E0,1.242363751E-1,1.050216794E0,9.310404062E-1
7.112559322E0,-1.101216301E-1,1.611477613E0,8.383625150E-1
7.132832187E0,-2.916159332E-1,1.530517578E0,6.130592227E-1
7.153104999E0,-4.508728385E-1,9.277114868E-1,1.876195520E-1
7.173377916E0,-3.171822429E-1,2.024000883E-1,-3.187801540E-1
7.193650780E0,-1.500690132E-1,-1.964079887E-1,-7.958850861E-1
7.213923645E0,-1.463405937E-1,-5.994771123E-1,-1.082440972E0
7.234196510E0,-1.969406158E-1,-1.227849483E0,-1.377918482E0
7.254469322E0,-1.985385120E-1,-1.947301984E0,-1.818804502E0
7.274877291E0,-1.452753246E-1,-2.446244717E0,-2.234257221E0
7.295179322E0,-2.932138145E-1,-2.730536938E0,-2.464753866E0
7.315435260E0,-9.008135796E-1,-2.815225601E0,-2.294844151E0
7.335552812E0,-1.739042878E0,-2.605501652E0,-1.466868043E0
7.355825572E0,-2.177265644E0,-1.850362897E0,-3.848264813E-1
7.376227291E0,-1.660213351E0,1.020922065E0,1.902827173E-1
7.396374166E0,-1.277916908E0,2.887264013E0,9.440898895E-2
7.416647968E0,-1.244893670E0,2.157158852E0,-9.147951752E-2
7.436920728E0,-1.015861988E0,1.566736460E0,-4.301001877E-2
7.457197864E0,-3.443464637E-1,1.528653353E-1,3.356912136E-1
7.477470676E0,6.972150803E-1,-2.112417698E0,2.866890728E-1
7.497743437E0,1.099751592E0,-2.829606533E0,-1.206411049E-1
7.518016249E0,5.944170952E-1,-2.259823561E0,2.621880174E-1
7.538289010E0,4.900212884E-1,-1.241165280E0,6.929540038E-1
7.558561822E0,1.035835743E0,-6.420876384E-1,8.122635484E-1
7.578834583E0,1.303749561E0,1.295094252E0,1.093892574E0
7.599107395E0,6.540718675E-1,3.138133526E0,9.544762373E-1
7.619380208E0,3.239732981E-1,1.606151223E0,2.344911546E-1
7.639653020E0,1.162468940E-1,-5.303681493E-1,-1.707084924E-1
7.659925885E0,-7.070687413E-2,-1.887114525E0,-6.149234176E-1
7.680198645E0,-3.054643571E-1,-2.373806953E0,-7.900261283E-1
7.700471405E0,-7.506113648E-1,-2.166080475E0,-8.113313913E-1
7.720744218E0,-1.451421738E0,-4.414186180E-1,-6.941524148E-1
7.741017030E0,-1.260872722E0,1.701359153E0,-3.166496158E-1
7.761289843E0,-9.812409878E-1,2.492184401E0,-2.452769578E-1
7.781562655E0,-1.035569429E0,1.265799522E0,-2.159821987E-1
7.801835468E0,-5.121254921E-1,-1.639174372E-1,9.281109273E-2
7.822108228E0,2.557964325E-1,-4.557996690E-1,3.836280704E-1
7.842381041E0,4.010717571E-1,-3.913512230E-1,5.145223141E-1
7.862653853E0,3.170490861E-1,-1.149153188E-1,6.237118840E-1
7.882926666E0,2.083922029E-1,3.270359337E-1,5.837644935E-1
7.903326666E0,8.801741153E-2,4.234423041E-1,2.877543271E-1
7.923472187E0,2.250369452E-2,-7.922898233E-2,-1.541969180E-1
7.943744999E0,1.450090110E-1,-4.440817833E-1,-2.942790687E-1
7.964017864E0,3.946801722E-1,-1.852227151E-1,-2.639190555E-1
7.984290676E0,4.868254960E-1,-1.058605760E-1,-2.277000993E-1
8.004563437E0,3.499391079E-1,-2.986733019E-1,-1.195758432E-1
8.024963437E0,1.636511236E-1,-4.584628344E-1,4.274370521E-2
8.045109010E0,-6.258423906E-3,-2.491385341E-1,3.921501637E-1
8.065381822E0,7.629951090E-2,1.961816192E0,1.130111575E0
8.085654583E0,1.331446409E0,4.300069809E0,1.857020855E0
8.105927395E0,2.053428888E0,6.044039726E-1,2.059287786E0
8.126200155E0,2.552371740E0,-9.904288650E-1,1.964079857E0
8.146472968E0,2.000165701E0,-2.374206334E-1,1.804290295E0
8.166745780E0,1.012399912E0,1.752358675E-1,1.411873817E0
8.187018541E0,2.190448344E-1,7.562040091E-1,8.138614297E-1
8.207291301E0,-1.564605981E-1,2.000698328E0,7.850993276E-1
8.227564114E0,-2.836264372E-1,2.149302483E0,8.543414474E-1
8.247964114E0,-4.370244145E-1,1.465536475E0,5.560676455E-1
8.268109635E0,-3.464770019E-1,5.617933869E-1,-5.579318479E-2
8.288382447E0,-8.508793265E-2,-4.993423447E-2,-6.701840162E-1
8.308655208E0,2.250369452E-2,-3.854922652E-1,-1.012666225E0
8.328927968E0,-5.952160433E-2,-5.866939425E-1,-1.132508397E0
8.349200728E0,-7.763108611E-2,-1.041028857E0,-1.433312178E0
8.369473489E0,3.328948980E-3,-1.707617640E0,-1.930657148E0
8.389746301E0,9.387636185E-2,-2.320543766E0,-2.448774815E0
8.410019062E0,-3.262369931E-1,-2.647579670E0,-2.767288685E0
8.430291822E0,-1.271525264E0,-2.595381737E0,-2.536126375E0
8.450683385E0,-1.889111876E0,-2.199103594E0,-1.596830249E0
8.470837395E0,-1.839044571E0,-1.521995366E-1,-4.386222959E-1
8.491110155E0,-1.257144213E0,2.026797295E0,1.993374527E-1
8.511382916E0,-9.567399025E-1,1.541702747E0,1.929458827E-1
8.531655676E0,-5.430181623E-1,1.043958366E-1,5.605949834E-2
8.551928489E0,-7.550056279E-2,-4.877575934E-1,1.130511016E-1
8.572201249E0,3.307643533E-1,-7.443529963E-1,5.890907645E-1
8.592474010E0,8.607330322E-1,-7.390266657E-1,8.383625150E-1
8.612746770E0,1.145557880E0,-7.587340474E-1,6.173202991E-1
8.633019530E0,1.261671662E0,-1.126649499E0,4.239749312E-1
8.653292291E0,1.343696952E0,-1.417466402E0,5.566002727E-1
8.673565103E0,7.936214209E-1,-1.045289993E0,8.245140314E-1
8.693837864E0,-1.122521535E-1,5.697829127E-1,6.716487408E-1
8.714110624E0,-1.921469271E-1,1.202948928E0,2.557964325E-1
8.734391301E0,4.807002097E-2,4.452801943E-1,-5.099949613E-2
8.754749114E0,-1.740374416E-1,-7.219824195E-1,-6.728471518E-1
8.775097968E0,-9.285104275E-1,-1.600159168E0,-9.807083607E-1
8.795352968E0,-1.425855398E0,-1.297624230E0,-8.049398661E-1
8.815469635E0,-1.443432212E0,8.398272395E-1,-5.595297217E-1
8.835743385E0,-9.237167239E-1,2.306828499E0,-2.063948363E-1
8.856016041E0,-9.034767151E-1,1.178980589E0,-1.563274413E-1
8.876416874E0,-4.098601937E-1,-1.910816729E-1,-1.584579609E-2
8.896563020E0,4.111917615E-1,-1.756353378E-1,1.668469161E-1
8.916836301E0,4.261054695E-1,-2.826943398E-1,3.356912136E-1
8.937109010E0,1.407479644E-1,-1.639174372E-1,5.171855092E-1
8.957383905E0,1.055942550E-1,5.251749754E-1,5.028044581E-1
8.977656614E0,1.455416381E-1,8.020103574E-1,2.392848432E-1
8.997929374E0,1.721732318E-1,7.936213911E-2,-1.462074369E-1
9.018202083E0,3.781685829E-1,-8.189214468E-1,-3.411506712E-1
9.038474843E0,4.612591565E-1,-8.231824636E-1,-3.821633458E-1
9.058747603E0,3.893538713E-1,-4.877575934E-1,-2.527337968E-1
9.079020364E0,2.419480085E-1,-4.323638678E-1,-5.366265774E-2
9.099293124E0,6.032055244E-2,-6.804371625E-2,3.756386042E-1
9.119565885E0,2.286322117E-1,2.273805141E0,1.148753643E0
9.139838593E0,1.732917666E0,3.417099476E0,1.806420803E0
9.160111353E0,2.485792637E0,-2.757701278E-1,2.017875671E0
9.180384114E0,2.608830690E0,-9.808415174E-1,1.957688212E0
9.200656874E0,1.830921888E0,3.728422895E-2,1.866608262E0
9.220929635E0,8.760461807E-1,4.426170290E-1,1.536376476E0
9.241202395E0,2.350237966E-1,1.012399912E0,1.063532591E0
9.261475155E0,-8.934898674E-2,1.438372254E0,8.692551255E-1
9.281747864E0,-3.352917433E-1,1.299888015E0,6.780403256E-1
9.302020624E0,-6.223802567E-1,8.398272395E-1,2.728406489E-1
9.322293385E0,-8.028092980E-1,2.689790726E-1,-2.809632719E-1
9.342566145E0,-8.097335100E-1,-3.342264518E-2,-7.974829674E-1
9.362966145E0,-8.097335100E-1,-3.556649089E-1,-1.073918939E0
9.383111666E0,-7.990809083E-1,-8.434224725E-1,-1.351819515E0
9.403384374E0,-6.559360623E-1,-1.331180096E0,-1.785781384E0
9.423657135E0,-3.512706757E-1,-1.773131371E0,-2.237985849E0
9.443929843E0,-3.587275445E-1,-2.139049292E0,-2.594183207E0
9.464202603E0,-1.124518991E0,-2.169808865E0,-2.595781088E0
9.484602603E0,-1.787512422E0,-2.061285257E0,-1.770867586E0
9.504748124E0,-1.350221634E0,-4.526038766E-1,-3.363569975E-1
9.525020885E0,-6.229129434E-1,7.535408735E-1,3.298322558E-1
9.545293645E0,-6.905571818E-1,3.984085917E-1,1.025316212E-2
9.565566353E0,-4.764391780E-1,2.279664129E-1,-8.135951310E-2
9.585839114E0,6.138581783E-2,4.250401855E-1,1.625858694E-1
9.606111874E0,2.994722426E-1,-5.632581562E-2,4.218443930E-1
9.626384635E0,6.940192580E-1,-1.137834668E0,4.671181142E-1
9.646657343E0,1.274454832E0,-1.507481217E0,3.569964767E-1
9.666930103E0,1.110404134E0,-1.956356645E0,7.121287584E-1
9.687202864E0,1.067260981E0,-2.418547869E0,9.368993640E-1
9.707475572E0,1.078446269E0,-2.094308376E0,9.544762373E-1
9.727748333E0,6.423539519E-1,2.556632832E-2,7.989477515E-1
9.748021093E0,-2.873548567E-1,2.330264330E0,4.830970466E-1
9.768293853E0,-4.002728164E-1,1.541702747E0,2.009353489E-1
9.788566562E0,-5.520728827E-1,-1.708416492E-1,-4.247738719E-1
9.808839322E0,-8.464851379E-1,-1.584180236E0,-1.065929413E0
9.829112083E0,-8.997483253E-1,-2.114548445E0,-1.243162632E0
9.849384791E0,-1.117594719E0,-8.183888197E-1,-1.119725227E0
9.869657551E0,-7.012097836E-1,1.266332150E0,-5.158539414E-1
9.889930312E0,-2.022669315E-1,1.134239435E0,-1.179779470E-1
9.910203020E0,-2.719085515E-1,9.001477808E-2,-2.266348451E-1
9.930475780E0,-3.049317300E-1,4.207791388E-2,-1.776327193E-1
9.950867291E0,-6.791055668E-3,8.190546036E-1,2.488722205E-1
9.971021249E0,2.030658871E-1,6.827008128E-1,5.459476113E-1
9.991293958E0,1.567269117E-1,1.486042738E-1,4.793686271E-1
1.001156672E1,1.940111369E-1,1.278316416E-2,2.350237966E-1
1.003183943E1,2.632532716E-1,1.528653353E-1,4.394212738E-3
1.005211219E1,4.000065029E-1,1.012000442E-2,-1.360874325E-1
1.007238490E1,5.123918056E-1,-5.133239031E-1,-3.033338189E-1
1.009265766E1,4.383559823E-1,-8.551403880E-1,-3.688475490E-1
1.011293036E1,2.946785688E-1,-7.081339955E-1,-1.499358565E-1
1.013320312E1,2.866890728E-1,-1.997369342E-3,3.900196552E-1
1.015347583E1,5.970802903E-1,1.743969679E0,1.122654676E0
1.017374859E1,1.450090170E0,3.293528795E0,1.828791380E0
1.019402130E1,1.958087683E0,8.089345694E-1,2.205761433E0
1.021429406E1,2.231327772E0,-8.343677521E-1,2.134921551E0
1.023456677E1,1.716405988E0,-1.021321490E-1,1.812279820E0
1.025497474E1,5.608612895E-1,3.526022732E-1,1.531582832E0
1.027525693E1,4.167843983E-2,5.038697124E-1,1.207343221E0
1.029533969E1,-2.452769578E-1,1.147555232E0,1.111469507E0
1.031565281E1,-5.025381446E-1,1.406414270E0,8.937562108E-1
1.033592651E1,-8.193209171E-1,1.023052573E0,2.850911915E-1
1.035619917E1,-1.039830446E0,2.535327375E-1,-3.667170107E-1
1.037660000E1,-1.029177785E0,-6.154560447E-1,-6.813692451E-1
1.039674604E1,-1.085104227E0,-1.334908485E0,-1.102681041E0
1.041701927E1,-1.221990585E0,-1.701225996E0,-1.613341808E0
1.043729198E1,-1.134638906E0,-1.608681202E0,-2.090446711E0
1.045756687E1,-6.708498001E-1,-1.406281114E0,-2.518016815E0
1.047783953E1,-2.985401452E-1,-1.661811233E0,-2.859833479E0
1.049811224E1,-7.660577297E-1,-2.692187548E0,-2.879540682E0
1.051838490E1,-1.376320601E0,-3.383410454E0,-2.126665592E0
1.053865760E1,-8.672577739E-1,-1.744369268E0,-6.648576856E-1
1.055893031E1,-3.289001584E-1,-9.616667628E-1,1.504684892E-2
1.057920302E1,-2.793653905E-1,-8.785761595E-1,2.589922249E-1
1.059947578E1,-2.569948435E-1,-1.969406158E-1,5.315665603E-1
1.061974849E1,-3.283675313E-1,1.130511045E0,9.097351432E-1
1.064002120E1,-1.308942735E-1,1.495896459E0,1.215332627E0
1.066029385E1,6.828339696E-1,5.990776420E-1,1.223854780E0
1.068069385E1,1.096555710E0,-4.185154438E-1,1.048086286E0
1.070083927E1,1.176450491E0,-1.393497944E0,8.532761931E-1
1.072111198E1,8.106656075E-1,-1.947301984E0,3.522028029E-1
1.074138469E1,2.062616795E-1,-1.168194771E0,-1.291632205E-1
1.076165740E1,3.589938581E-1,-3.130543530E-1,5.765739456E-2
1.078193010E1,4.372907281E-1,-6.585992575E-1,-2.836264372E-1
1.080220276E1,-5.526055023E-2,-1.417466402E0,-1.011068344E0
1.082247547E1,-5.771065950E-1,-2.041045189E0,-1.105876803E0
1.084274818E1,-9.008135796E-1,-2.158623695E0,-8.507461548E-1
1.086302089E1,-1.112801075E0,-1.740108132E0,-6.584661007E-1
1.088329359E1,-1.146889448E0,-7.390266657E-1,-4.727107286E-1
1.090356625E1,-1.065929413E0,1.442633271E0,-2.596580088E-1
1.092383896E1,-8.811061978E-1,3.422425747E0,6.245107949E-2
1.094411167E1,-8.683230281E-1,2.379798889E0,4.434159771E-2
1.096438437E1,2.197106183E-2,-2.954775095E-1,3.861580743E-3
1.098465708E1,1.147688389E0,-9.952225685E-1,-1.085237339E-1
1.100492974E1,1.197755814E0,-6.367613673E-1,-1.723063886E-1
1.102520245E1,8.197203875E-1,-4.568649530E-1,-1.957421936E-2
1.104547516E1,6.141244769E-1,-4.568649530E-1,-7.390266657E-2
1.106574781E1,3.968107104E-1,-6.181192398E-1,-4.572644234E-1
1.108602052E1,8.961530030E-2,-1.003211975E0,-5.765739679E-1
1.110629323E1,6.032055244E-2,-1.190032601E0,-4.796349406E-1
1.112656589E1,1.130511016E-1,-1.490437031E0,-4.561991692E-1
1.114683859E1,-1.532648057E-1,-1.748097658E0,-3.416832983E-1
1.116711125E1,-2.012016773E-1,-9.792435765E-1,-1.675127149E-1
1.118738396E1,3.424822688E-1,1.015063047E0,3.340933025E-1
1.120765661E1,1.023585200E0,2.012416124E0,1.051814675E0
1.122792932E1,1.457546949E0,2.130527347E-1,1.470463276E0
1.124820203E1,1.777126074E0,-1.510144353E0,1.693502903E0
1.126847469E1,1.864477634E0,-2.246507883E0,1.842107177E0
1.128874729E1,1.658349156E0,-2.767288685E0,1.879391432E0
1.130902005E1,9.330378175E-1,-3.046387672E0,1.596563935E0
1.132929271E1,8.655266836E-3,-2.720417023E0,1.200418949E0
1.134956542E1,-7.076013684E-1,-1.676725030E0,1.184972644E0
1.136983807E1,-1.189499974E0,1.017326787E-1,1.209473729E0
1.139011073E1,-1.800828218E0,1.483113289E0,1.034770489E0
1.141038344E1,-1.950897217E0,5.490102768E-1,7.707182169E-1
1.143065609E1,-2.138516754E-1,-1.403617978E0,5.273054838E-1
1.145104755E1,9.831051826E-1,-3.754122257E0,2.456764281E-1
1.147120140E1,1.292031646E0,-4.566652298E0,-1.462074369E-1
1.149147411E1,1.058738947E0,-4.412721634E0,-3.938812315E-1
1.151187411E1,6.732466221E-1,-3.857852221E0,-5.717802644E-1
1.153201943E1,2.286322117E-1,-3.209905624E0,-7.846998572E-1
1.155229208E1,-2.596580088E-1,-2.741189718E0,-1.055276752E0
1.157256479E1,-8.166577220E-1,-2.483529091E0,-1.358743787E0
1.159283745E1,-9.993504286E-1,-1.025049925E0,-1.231444716E0
1.161311010E1,-4.737760127E-1,1.160871029E0,-3.555317521E-1
1.163338271E1,7.416898012E-2,1.597895473E-1,4.740423262E-1
1.165365542E1,5.086634159E-1,-1.539971709E0,8.452867270E-1
1.167392807E1,5.001412630E-1,-1.751826048E0,7.712509036E-1
1.169420073E1,6.647245288E-1,-1.461674929E0,1.049151540E0
1.171447339E1,1.349023223E0,-1.264601111E0,1.196690559E0
1.173488130E1,1.288303256E0,-1.314668536E0,5.597960353E-1
1.175518302E1,5.203812718E-1,-1.791240811E0,2.094574571E-1
1.177543875E1,2.025332451E-1,-1.815209270E0,1.673795432E-1
1.179555609E1,1.641837656E-1,-1.374323249E0,1.593900770E-1
1.181583036E1,-1.644500792E-1,-1.315201163E0,1.450090110E-1
1.183610427E1,-4.897549450E-1,-1.284841061E0,6.724476814E-2
1.185637682E1,-6.271739602E-1,-9.483509660E-1,-8.921583183E-3
1.187677792E1,-7.400919199E-1,-5.749760270E-1,-2.399506420E-1
1.189692396E1,-9.844367504E-1,-5.845634341E-1,-5.669865608E-1
1.191719724E1,-1.516402841E0,-1.212403178E0,-8.321040869E-1
1.193746990E1,-1.998301387E0,-1.901495576E0,-1.073386312E0
1.195774526E1,-2.073935270E0,-2.226800442E0,-1.079245210E0
1.197801786E1,-1.712411284E0,-1.669268131E0,-9.546093941E-1
1.199829047E1,-4.609928429E-1,1.139832065E-1,-6.420876384E-1
1.201856302E1,3.271690905E-1,6.667218804E-1,-3.965443969E-1
1.203883568E1,3.430148959E-1,8.841688186E-2,-3.581948876E-1
1.205910828E1,2.984069884E-1,-6.724476814E-1,-3.890875578E-1
1.207938094E1,2.483395934E-1,-1.294961095E0,-5.169191957E-1
1.209965354E1,1.205079481E-1,-1.777392387E0,-6.394245028E-1
1.211992620E1,1.664474420E-2,-2.045838833E0,-5.776392221E-1
1.214019880E1,-1.559279710E-1,-2.019739866E0,-2.719085515E-1
1.216047141E1,-4.114580750E-1,-1.580451727E0,1.189100519E-1
1.218074406E1,-4.604602158E-1,-8.700540662E-1,2.930806577E-1
1.220101661E1,-2.825611830E-1,-2.596580051E-2,2.728406489E-1
1.222128922E1,-8.615319431E-2,9.138630629E-1,1.950764060E-1
1.224156187E1,2.653838098E-1,1.746100307E0,4.086617529E-1
1.226183448E1,9.878988862E-1,2.583796978E0,8.319709301E-1
1.228210708E1,1.656218648E0,2.795118570E0,9.544762373E-1
1.230237969E1,2.134388924E0,1.470862746E0,1.514538527E0
1.232265229E1,2.214283705E0,-9.787109494E-2,2.190847874E0
1.234292490E1,2.254230976E0,-1.864743948E0,2.238252163E0
1.236319755E1,2.126399279E0,-4.032555580E0,1.644500732E0
1.238347016E1,1.561410189E0,-5.675325394E0,1.207343221E0
1.240387016E1,8.005456328E-1,-5.812744141E0,1.377252698E0
1.242401536E1,3.303648829E-1,-4.474506855E0,1.487507463E0
1.244428797E1,7.057371549E-3,-1.890842915E0,1.410808563E0
1.246456057E1,-2.218411565E-1,5.724460483E-1,1.369795918E0
1.248483318E1,-3.518033028E-1,1.559812307E0,1.426787496E0
1.250510578E1,-7.836345434E-1,1.007606268E0,1.278715849E0
1.252537839E1,-1.202283144E0,-7.475487590E-1,6.897581816E-1
1.254565099E1,-5.856286883E-1,-2.245975256E0,1.716406047E-1
1.256592359E1,2.424806356E-1,-3.196589947E0,-4.727107286E-2
1.258619620E1,2.653838098E-1,-3.450522184E0,-3.581948876E-1
1.260646880E1,-6.378266215E-2,-3.169958353E0,-6.325002909E-1
1.262674140E1,-2.266348451E-1,-2.522943735E0,-8.352998495E-1
1.264701401E1,-1.735048145E-1,-1.562342286E0,-8.534093499E-1
1.266728656E1,-1.266332120E-1,-5.175849795E-1,-6.712492704E-1
1.268755917E1,-1.372858584E-1,-5.749760270E-1,-2.958769798E-1
1.270783177E1,-8.921583183E-3,-1.354615927E0,2.834932804E-1
1.272810437E1,3.499391079E-1,-1.196956873E0,6.482129097E-1
1.274837687E1,3.818970025E-1,-5.510076284E-1,8.932235837E-1
1.276864953E1,8.535424620E-2,-8.721846342E-2,1.330913782E0
1.278892214E1,4.021370113E-1,-5.579318479E-2,1.665273428E0
1.280919469E1,8.452867270E-1,-9.819067717E-1,1.106675744E0
1.282946729E1,4.229096770E-1,-1.948899865E0,3.596596420E-1
1.284973990E1,-2.463422120E-1,-2.368480444E0,1.529984921E-1
1.287001250E1,7.523424178E-2,-1.469131708E0,6.511423737E-2
1.289028505E1,1.716406047E-1,-1.078179955E0,2.280995846E-1
1.291055766E1,5.925529078E-2,-8.391614556E-1,1.198421582E-3
1.293083021E1,4.221107066E-2,-7.502118945E-1,-5.515402555E-1
1.295123021E1,-2.681801319E-1,-1.329049587E0,-8.827040792E-1
1.297137542E1,-1.107474685E0,-2.198570967E0,-7.804387808E-1
1.299164797E1,-1.175118923E0,-1.084571600E0,-5.637907982E-1
1.301192057E1,-6.692518592E-1,5.926860571E-1,-6.149234176E-1
1.303219312E1,-4.418180883E-1,6.145239472E-1,-5.318328738E-1
1.305246573E1,-6.809697747E-1,-5.186502337E-1,-4.109254479E-1
1.307273828E1,-8.187882900E-1,-1.064464688E0,-3.129211962E-1
1.309301088E1,-6.218476295E-1,-2.624543309E-1,-1.845569313E-1
1.311328344E1,-3.416832983E-1,5.681849718E-1,1.018658355E-1
1.313355604E1,-2.532664239E-1,2.556632757E-1,4.330296814E-1
1.315382859E1,-1.464737463E-3,-3.370227814E-1,5.816339254E-1
1.317410120E1,2.131858915E-1,-5.387570858E-1,6.663224101E-1
1.319437771E1,1.950764060E-1,-2.928143442E-1,6.285055280E-1
1.321468969E1,1.748363972E-1,3.147853911E-1,4.745749533E-1
1.323508620E1,1.806953400E-1,5.310339332E-1,2.451438010E-1
1.325535667E1,6.245107949E-2,7.030740380E-2,-1.122521535E-1
1.327561219E1,-7.230477035E-2,-5.117260218E-1,-3.592601717E-1
1.329572932E1,-1.591237634E-1,-3.700459599E-1,-3.491401672E-1
1.331600344E1,-3.981423005E-2,1.118526831E-1,-2.202432603E-1
1.333627714E1,6.671213359E-2,-8.562056720E-2,-1.037300453E-1
1.335654958E1,-1.005342528E-1,-4.430165291E-1,-4.833633825E-2
1.337695057E1,-2.676474750E-1,-7.603318989E-2,1.498026997E-1
1.339709651E1,5.499423668E-2,1.133174181E0,6.727139950E-1
1.341736969E1,1.269661069E0,1.504418612E0,1.294694781E0
1.343764224E1,2.045971870E0,1.752358675E-1,1.733982921E0
1.345791729E1,2.061950922E0,-4.382228255E-1,2.070472956E0
1.347818990E1,1.684448123E0,5.752423778E-2,2.180727720E0
1.349846240E1,1.143427372E0,3.270359337E-1,1.916142941E0
1.351873500E1,3.287670016E-1,4.857602119E-1,1.639174461E0
1.353900755E1,4.487423226E-2,1.544366002E0,1.659947038E0
1.355928005E1,5.992108025E-3,2.148237228E0,1.560877562E0
1.357955266E1,-2.271674722E-1,1.805222392E0,1.137035728E0
1.359982521E1,-4.151864946E-1,3.291664720E-1,5.081307292E-1
1.362009776E1,-2.298306376E-1,-6.239781976E-1,-9.787109494E-2
1.364037031E1,-5.792371184E-2,-8.253130317E-1,-5.147886276E-1
1.366064286E1,-4.354264960E-2,-9.488835931E-1,-8.661925197E-1
1.368091542E1,-1.261005849E-1,-1.231577873E0,-1.202149987E0
1.370118797E1,-2.660495937E-1,-1.660213351E0,-1.512141705E0
1.372146052E1,-3.651190996E-1,-2.088982105E0,-1.811880350E0
1.374173307E1,-3.736412227E-1,-2.416949987E0,-2.162884712E0
1.376200562E1,-5.760413408E-1,-2.619882822E0,-2.622945309E0
1.378227823E1,-1.194293737E0,-2.415884733E0,-2.820418596E0
1.380255078E1,-1.737444997E0,-1.373257995E0,-2.130394220E0
1.382282333E1,-1.439703822E0,3.153180480E-1,-6.261087060E-1
1.384309588E1,-8.805735707E-1,9.985514879E-1,6.524739787E-3
1.386349588E1,-7.310371995E-1,1.057673693E0,-2.250369489E-1
1.388364104E1,-8.906935453E-1,1.371793270E0,-3.928159550E-2
1.390391354E1,-7.060034871E-1,1.305214286E0,2.222406268E-1
1.392418614E1,-6.165213138E-2,-1.298290044E-1,3.527354300E-1
1.394445865E1,8.665919900E-1,-1.704954505E0,3.197122514E-1
1.396473120E1,1.393764257E0,-1.473392725E0,1.727058738E-1
1.398513120E1,1.437839627E0,-2.079394579E0,5.363602638E-1
1.400527630E1,1.261139035E0,-2.634796381E0,8.468846083E-1
1.402554885E1,1.190298915E0,-1.790708184E0,1.072054744E0
1.404582141E1,2.137185186E-1,2.909101963E0,7.669898272E-1
1.406609396E1,-6.005423665E-1,4.065179348E0,5.576655269E-1
1.408636651E1,-6.532729268E-1,1.194959521E0,5.363602638E-1
1.410663906E1,-5.313002467E-1,-1.990445137E0,-2.021337748E-1
1.412691161E1,-6.894918680E-1,-3.435608387E0,-7.916240692E-1
1.414718417E1,-1.015329361E0,-2.414286852E0,-6.739124060E-1
1.416745672E1,-9.370325208E-1,9.431577921E-1,-1.376853287E-1
1.418772927E1,-5.174518228E-1,1.708283424E0,4.511391521E-1
1.420812927E1,-6.820350289E-1,3.366233110E-1,1.780321896E-1
1.422827437E1,-5.632581711E-1,-4.446144104E-1,3.209106624E-2
1.424854693E1,2.792322338E-1,2.881538272E-1,2.344911546E-1
1.426881948E1,4.532696903E-1,3.067959249E-1,2.035985142E-1
1.428909203E1,3.298322558E-1,1.171789989E-1,-1.744369231E-2
1.430936458E1,3.542001545E-1,1.821600795E-1,-1.888179779E-1
1.432963714E1,2.840259075E-1,4.511391521E-1,-3.507380486E-1
1.434990969E1,2.403501123E-1,5.910881758E-1,-4.631233811E-1
1.437018219E1,3.122554123E-1,2.940127552E-1,-4.412854612E-1
1.439045474E1,3.419496417E-1,-1.797632314E-2,-2.324937880E-1
1.441072729E1,2.861564457E-1,6.496776342E-1,4.314317703E-1
1.443099984E1,1.239833713E0,3.672230005E0,1.621597528E0
1.445139984E1,2.300037384E0,2.897383928E0,2.498176336E0
1.447154490E1,2.490586281E0,-1.218395308E-1,2.542384863E0
1.449181745E1,2.717487574E0,5.273054913E-2,2.256894112E0
1.451208995E1,1.519332290E0,1.677790284E-1,1.951296687E0
1.453236250E1,3.978759646E-1,1.310274303E-1,1.519332290E0
1.455263500E1,1.238369010E-2,7.476819158E-1,1.168993711E0
1.457290755E1,-4.141212404E-1,1.782851815E0,1.080044150E0
1.459318010E1,-8.076030016E-1,2.134388924E0,6.801708341E-1
1.461345260E1,-1.002013564E0,1.443698525E0,-9.094688296E-2
1.463372516E1,-6.841655970E-1,2.556632757E-1,-8.502135277E-1
1.465399766E1,-4.045338631E-1,-9.920267463E-1,-1.468998551E0
1.467427021E1,-6.133255363E-1,-2.054893494E0,-1.990311980E0
1.469454271E1,-1.025449395E0,-2.506964922E0,-2.453035831E0
1.471495068E1,-1.304415345E0,-1.905223966E0,-2.906704903E0
1.473522859E1,-1.638908148E0,-4.818986356E-1,-3.307244062E0
1.475526521E1,-1.694301844E0,-1.265000552E-2,-2.782734871E0
1.477567260E1,-1.690573454E0,-9.275783300E-1,-1.579253316E0
1.479589818E1,-2.339185715E0,-1.013864636E0,-1.118127346E0
1.481617214E1,-1.849697113E0,8.841688186E-2,-9.002809525E-1
1.483644583E1,-6.500771642E-1,3.366233110E-1,-5.403549671E-1
1.485671823E1,-1.431448013E-1,1.384842768E-2,1.189100519E-1
1.487711922E1,-7.123950869E-2,-1.330247968E-1,6.854971647E-1
1.489726500E1,4.569981098E-1,-4.904207587E-1,1.175917864E0
1.491753807E1,1.220659018E0,-1.062866807E0,1.153547406E0
1.493781057E1,1.306412697E0,-1.063932061E0,1.294162154E0
1.495808562E1,1.217463136E0,3.126548827E-1,1.879391432E0
1.497835812E1,2.180727720E0,3.877559602E-1,1.328783274E0
1.499863057E1,2.442782640E0,-6.431528926E-2,7.227813601E-1
1.501890307E1,1.703090191E0,-1.209740043E0,1.503353268E-1
1.503917557E1,1.668469161E-1,-2.759831667E0,-4.306328297E-1
1.505944807E1,-1.135171533E0,-2.518682718E0,-6.803039908E-1
1.507972057E1,-1.501489043E0,-1.716672301E0,-4.530033767E-1
1.510012057E1,-1.481249094E0,-6.580666304E-1,-4.844286442E-1
1.512026557E1,-1.985518217E0,2.436790466E0,-3.970770240E-1
1.514053807E1,-1.697497606E0,3.965577126E0,-2.436790615E-2
1.516081057E1,-7.102645040E-1,1.211471081E0,2.174469382E-1
1.518108307E1,2.893522382E-1,-8.045403361E-1,-2.282327414E-1
1.520135557E1,5.065328479E-1,-6.303697824E-1,-6.415550113E-1
1.522162807E1,3.197122514E-1,9.960214794E-2,-3.091927767E-1
1.524190052E1,2.942790836E-2,3.813643754E-1,7.470161468E-2
1.526217302E1,-1.761679798E-1,5.511407852E-1,5.179844424E-2
1.528244552E1,-1.569932252E-1,5.862944722E-1,1.771000773E-2
1.530271802E1,1.593900770E-1,2.700443268E-1,-5.313002318E-2
1.532299052E1,4.916191697E-1,-2.203764170E-1,-1.909485012E-1
1.534326302E1,6.210486889E-1,-4.041343927E-1,-2.106558830E-1
1.536353552E1,5.683181286E-1,-2.906838059E-1,-1.206411049E-1
1.538380802E1,3.824296594E-1,2.663159184E-2,1.561942846E-1
1.540408052E1,2.419480085E-1,1.225852132E0,7.605982423E-1
1.542435302E1,1.066195726E0,3.477286816E0,1.504418612E0
1.544462552E1,2.150367737E0,2.047037363E0,2.076332092E0
1.546489802E1,2.525740147E0,-1.873532385E-1,2.102963686E0
1.548517047E1,2.507630587E0,5.697829127E-1,1.824530244E0
1.550544297E1,1.363404274E0,8.717851043E-1,1.576323867E0
1.552571547E1,7.110635042E-1,5.900229216E-1,1.228648424E0
1.554598797E1,1.348890066E-1,1.193894267E0,1.031042099E0
1.556626042E1,-3.544664681E-1,1.658748627E0,7.909582257E-1
1.558653297E1,-7.532745600E-1,1.208275318E0,3.607248962E-1
1.560680542E1,-1.095756769E0,5.358276367E-1,-1.611211300E-1
1.562707786E1,-1.167662144E0,-2.427469492E-1,-8.566051126E-1
1.564735042E1,-1.000415683E0,-8.503466845E-1,-1.685779691E0
1.566762292E1,-8.869651556E-1,-1.266731620E0,-2.461557865E0
1.568789536E1,-8.624640703E-1,-1.772598743E0,-2.953576565E0
1.570816786E1,-1.047287345E0,-1.944638729E0,-3.069157600E0
1.572844036E1,-1.679388165E0,-1.168727398E0,-2.866757631E0
1.574871281E1,-2.239051104E0,-6.154560447E-1,-2.176200390E0
1.576898531E1,-2.100566626E0,-7.443529963E-1,-1.060070515E0
1.578925776E1,-1.352352142E0,-1.229047924E-1,-2.303632647E-1
1.580953026E1,-5.190497041E-1,-4.131891429E-1,-1.190432087E-1
1.582980276E1,-1.798963994E-1,-8.317046165E-1,-3.661843762E-2
1.585007521E1,-2.788327634E-1,-3.039996028E-1,3.745733202E-1
1.587034771E1,-2.548643351E-1,1.007073641E0,9.321056604E-1
1.589062016E1,2.312953621E-1,9.420925379E-1,1.199886322E0
1.591089266E1,1.067793608E0,-1.804290265E-1,9.198551774E-1
1.593116516E1,1.587509155E0,-1.412140131E0,1.058738947E0
1.595156516E1,1.595498562E0,-8.785761595E-1,1.371926427E0
1.597171010E1,1.965011954E0,-3.599259555E-1,8.106656075E-1
1.599198255E1,1.564073324E0,-4.904207587E-1,8.002793044E-2
1.601238255E1,5.219792128E-1,-1.810415506E0,-2.942790687E-1
1.603252750E1,-7.017423958E-2,-3.018690825E0,-2.564622164E-1
1.605280000E1,-5.025381446E-1,-2.814160109E0,-2.213085145E-1
1.607307250E1,-8.938893676E-1,-1.183641076E0,-2.953443527E-1
1.609334495E1,-1.226251602E0,1.503353357E0,-4.247738793E-2
1.611361745E1,-1.321992159E0,2.977811337E0,2.605901062E-1
1.613388990E1,-1.204413652E0,2.133323669E0,4.327633604E-2
1.615416240E1,-3.107906580E-1,3.472759426E-1,-3.001380265E-1
1.617443484E1,2.616553903E-1,-4.387554526E-1,-6.664555669E-1
1.619483401E1,2.707101107E-1,-2.107890397E-1,-6.394245028E-1
1.621514411E1,1.753690243E-1,1.161137372E-1,-2.671148479E-1
1.623539969E1,5.233107507E-2,1.491369158E-1,-5.725792143E-3
1.625551484E1,-1.282311082E-1,2.194443047E-1,1.238369010E-2
1.627591693E1,-2.639190555E-1,2.711096108E-1,4.327633604E-2
1.629606338E1,-1.468732208E-1,2.615222335E-1,1.482048035E-1
1.631633714E1,1.769669205E-1,9.640636295E-2,1.061268896E-1
1.633661057E1,5.017392039E-1,-3.087933064E-1,5.339634046E-2
1.635688302E1,5.858950019E-1,-4.888228476E-1,6.351634115E-2
1.637728391E1,4.660528302E-1,-1.490037590E-1,2.824280262E-1
1.639742937E1,5.230444670E-1,8.297072053E-1,7.313035131E-1
1.641770245E1,1.039564133E0,2.229064226E0,1.364469528E0
1.643797484E1,1.881521940E0,1.783917069E0,1.915610313E0
1.645824953E1,2.335191011E0,-8.029424399E-2,2.002961874E0
1.647852198E1,2.216946840E0,3.861580743E-3,1.807486057E0
1.649879443E1,1.273922205E0,4.021370113E-1,1.604020715E0
1.651906687E1,5.581981540E-1,5.107939243E-1,1.175385237E0
1.653933927E1,-8.402267098E-2,1.149153113E0,8.751140833E-1
1.655961172E1,-4.929507375E-1,1.632649660E0,6.849645376E-1
1.657988422E1,-7.527419329E-1,1.305746913E0,2.536658943E-1
1.660015667E1,-8.917587996E-1,5.697829127E-1,-4.705802202E-1
1.662042911E1,-8.102661371E-1,-1.420795321E-1,-1.021188378E0
1.664070156E1,-6.964160800E-1,-6.138581634E-1,-1.331579566E0
1.666097406E1,-6.809697747E-1,-1.105876803E0,-1.683649182E0
1.668124651E1,-6.229129434E-1,-1.580451727E0,-2.124535084E0
1.670151896E1,-5.771065950E-1,-1.685779691E0,-2.506831646E0
1.672179140E1,-8.906935453E-1,-1.239567399E0,-2.635195971E0
1.674206380E1,-1.282177925E0,-1.022919416E0,-2.154362440E0
1.676233625E1,-1.614407063E0,-1.266731620E0,-1.332112193E0
1.678260875E1,-1.394962788E0,-5.467465520E-1,-7.484808564E-1
1.680288120E1,-5.659213066E-1,-2.326269448E-1,-3.880222738E-1
1.682315364E1,-4.407528415E-2,-8.460856676E-1,-1.026647836E-1
1.684342609E1,-1.051947847E-2,-1.017060518E0,2.856238186E-1
1.686369854E1,-5.589970946E-1,3.914843798E-1,6.684529185E-1
1.688397099E1,-7.612640262E-1,1.756752849E0,9.900293946E-1
1.690437099E1,-3.768370301E-2,1.276984811E0,9.214530587E-1
1.692459490E1,4.649875760E-1,-7.731150985E-1,5.773729086E-1
1.694486917E1,5.688507557E-1,-2.379133224E0,6.018739343E-1
1.696505927E1,7.973498106E-1,-2.413221598E0,9.470193982E-1
1.698533208E1,1.003877878E0,1.075783134E0,1.087501049E0
1.700560474E1,9.612672925E-1,2.179529428E0,6.183855534E-1
1.702587740E1,8.723177910E-1,4.676507413E-1,1.721732318E-1
1.704615000E1,7.707182169E-1,-1.706019759E0,-1.850895584E-2
1.706642255E1,2.201101035E-1,-2.826943398E0,-6.127929091E-1
1.708669510E1,-4.247738719E-1,-2.995254993E0,-7.479482293E-1
1.710696760E1,-9.450219870E-1,-2.127331495E0,-6.026729345E-1
1.712724010E1,-1.216131568E0,-2.193111479E-1,-4.625907242E-1
1.714751260E1,-1.201750517E0,1.722664475E0,-2.292979956E-1
1.716778510E1,-1.416800618E0,2.229596853E0,-8.615319431E-2
1.718805760E1,-1.471129060E0,9.639304280E-1,6.032055244E-2
1.720833005E1,-7.889608741E-1,7.403582335E-2,1.194426864E-1
1.722860250E1,3.589938581E-1,1.470063776E-1,7.044056058E-2
1.724887495E1,6.844319105E-1,-1.713742912E-1,1.221058443E-1
1.726914734E1,4.814991653E-1,-1.852227151E-1,1.977395564E-1
1.728941979E1,1.519332230E-1,2.215748429E-1,1.561942846E-1
1.730969224E1,4.394212738E-3,6.470144987E-1,1.428784877E-1
1.732996469E1,-4.460791498E-2,6.645913720E-1,1.238369010E-2
1.735023714E1,-5.259739235E-2,2.849580348E-1,-1.941442937E-1
1.737050953E1,1.641837656E-1,5.326318368E-2,-2.788327634E-1
1.739078198E1,3.850927949E-1,9.001477808E-2,-2.575274706E-1
1.741105443E1,3.510043621E-1,2.849580348E-1,2.263685223E-3
1.743132682E1,3.872233331E-1,1.101216316E0,4.868254960E-1
1.745172682E1,9.980188608E-1,1.739708662E0,8.538088202E-1
1.747187167E1,1.883119822E0,8.605998755E-1,1.180711627E0
1.749227167E1,2.385791063E0,3.834949061E-2,1.512408018E0
1.751241656E1,2.264351130E0,1.869537681E-1,1.710547090E0
1.753281656E1,1.718003988E0,3.536675274E-1,1.599227071E0
1.755296135E1,8.813725114E-1,5.150549412E-1,1.231844187E0
1.757323380E1,2.685796022E-1,8.579366803E-1,8.751140833E-1
1.759350620E1,-7.230477035E-2,1.921868801E0,8.117309213E-1
1.761377864E1,-1.921469271E-1,2.360091686E0,7.147918940E-1
1.763405104E1,-3.432812095E-1,1.267930031E0,2.515353858E-1
1.765432349E1,-4.109254479E-1,1.645832360E-1,-2.340916842E-1
1.767459594E1,-2.548643351E-1,-1.394163817E-1,-5.723128915E-1
1.769500390E1,-2.660495937E-1,-3.167827725E-1,-8.331693411E-1
1.771528937E1,-5.025381446E-1,-6.564686894E-1,-1.087767363E0
1.773540630E1,-6.143907905E-1,-1.061268926E0,-1.508413315E0
1.775567854E1,-4.391549230E-1,-1.436108589E0,-1.977528811E0
1.777608005E1,-3.006706536E-1,-1.903626084E0,-2.331063271E0
1.779622599E1,-5.877591968E-1,-2.129462004E0,-2.393381119E0
1.781649927E1,-1.093626261E0,-1.916409254E0,-1.890709758E0
1.783677234E1,-1.208142161E0,-1.450489640E0,-9.743167758E-1
1.785704474E1,-6.245108247E-1,-3.087933064E-1,-3.214432895E-1
1.787744536E1,-2.511359155E-1,-2.091911435E-1,-2.980075181E-1
1.789759062E1,-3.086601496E-1,-5.085302591E-1,-3.102580309E-1
1.791786338E1,-4.759065211E-1,-4.637891650E-1,-5.153212696E-2
1.793813583E1,-3.571296334E-1,-3.342264518E-2,2.073269337E-1
1.795840974E1,1.034637317E-1,-2.241048366E-1,2.856238186E-1
1.797868214E1,4.575307369E-1,-9.440898895E-1,4.012049139E-1
1.799895453E1,6.348971128E-1,-1.265666366E0,5.139896870E-1
1.801922687E1,7.419561148E-1,-1.492034912E0,7.329013944E-1
1.803949932E1,2.889527567E-2,-1.206544280E0,1.342099071E0
1.805977172E1,-5.382244587E-1,5.708481669E-1,1.702024937E0
1.808004411E1,1.327584833E-1,1.988447785E0,9.470193982E-1
1.810031651E1,5.502086878E-1,1.446894288E0,-9.840372950E-2
1.812058890E1,2.483395934E-1,-1.520797014E0,-6.675208211E-1
1.814086130E1,3.277017176E-1,-3.569298983E0,-5.605949759E-1
1.816113370E1,2.516685426E-2,-2.617752314E0,-8.699209094E-1
1.818140609E1,-2.644517124E-1,-9.771130681E-1,-6.962829232E-1
1.820167849E1,-3.837612271E-1,-1.042626798E-1,-4.024033546E-1
1.822195089E1,-4.668518007E-1,-6.378266215E-2,-3.635212183E-1
1.824222323E1,-7.969503403E-1,-1.015995219E-1,-3.757717609E-1
1.826262323E1,-9.167925119E-1,8.362319320E-2,-1.898832470E-1
1.828292594E1,-8.667251468E-1,4.468781054E-1,-4.141212255E-2
1.830304104E1,-7.134603262E-1,3.994738758E-1,5.446160212E-2
1.832331328E1,-8.388951421E-3,-1.399490088E-1,1.077247858E-1
1.834358557E1,7.344992757E-1,-8.737825155E-1,-3.661843762E-2
1.836398557E1,8.712524772E-1,-1.390302181E0,-1.621863842E-1
1.838413026E1,6.567350626E-1,-1.299222112E0,-6.325002760E-2
1.840440255E1,4.191812575E-1,-9.627320170E-1,4.913528636E-2
1.842480255E1,1.450090110E-1,-5.350286365E-1,4.434159771E-2
1.844509875E1,-1.271658540E-1,-1.394163817E-1,-9.454214945E-3
1.846521724E1,-1.346226931E-1,-2.170474641E-2,-1.042626798E-1
1.848549010E1,-1.531316526E-2,-1.958753467E-1,-1.888179779E-1
1.850576281E1,2.121206224E-1,-1.500690132E-1,-5.366265774E-2
1.852603552E1,6.119939685E-1,5.134570599E-1,6.364950538E-1
1.854630812E1,1.483113289E0,1.261538506E0,1.552888036E0
1.856658062E1,2.239317417E0,3.323622644E-1,2.037982464E0
1.858685323E1,2.280862570E0,-9.313067198E-1,2.041178226E0
1.860712568E1,1.788311362E0,-1.057540536E0,1.713742852E0
1.862739812E1,8.484824896E-1,-9.387635589E-1,1.123187304E0
1.864767057E1,1.828258783E-1,-1.470729589E0,7.632613778E-1
1.866794302E1,-3.363569975E-1,-1.169792652E0,8.676572442E-1
1.868821557E1,-5.952160358E-1,5.937513113E-1,7.472824454E-1
1.870848781E1,-8.107987642E-1,9.154609442E-1,4.671181142E-1
1.872876026E1,-1.279514790E0,-5.456812978E-1,3.197122514E-1
1.874903266E1,-9.695230722E-1,-1.374323249E0,1.423458606E-1
1.876930505E1,-3.608580530E-1,-1.700160742E0,-1.957421899E-1
1.878957740E1,-8.881635964E-2,-1.849830270E0,-5.398223400E-1
1.880984984E1,6.245107949E-2,-2.180994034E0,-8.438219428E-1
1.883012219E1,2.909501195E-1,-2.757701159E0,-1.241564751E0
1.885039453E1,4.538023174E-1,-3.192861557E0,-1.698030233E0
1.887066687E1,2.307627350E-1,-3.373290539E0,-1.890177131E0
1.889093922E1,-4.737760127E-1,-3.272090435E0,-1.472726941E0
1.891121161E1,-1.056342006E0,-2.893522263E0,-7.841671705E-1
1.893154781E1,-7.564703226E-1,-1.793371320E0,-5.057339072E-1
1.895194781E1,-2.756369673E-2,-4.392880797E-1,-3.225085735E-1
1.897218677E1,3.688475490E-2,-1.174586296E0,5.499423668E-2
1.899230177E1,2.728406489E-1,-1.454750657E0,2.898848653E-1
1.901257406E1,4.671181142E-1,-5.936181545E-1,4.724444151E-1
1.903284625E1,5.001412630E-1,3.589938581E-1,6.317013502E-1
1.905311849E1,3.573959470E-1,1.171789970E-2,4.777707458E-1
1.907351849E1,4.788360000E-1,-1.327451706E0,2.829606533E-1
1.909366318E1,8.271772265E-1,-2.331728935E0,6.748445034E-1
1.911393536E1,9.884315133E-1,-1.889245033E0,1.154612660E0
1.913420776E1,1.280846357E0,-1.011201501E0,1.157808423E0
1.915448010E1,1.280846357E0,-3.162501454E-1,8.862993717E-1
1.917475240E1,6.860297918E-1,-1.026647836E-1,5.427518487E-1
1.919515240E1,-1.101216301E-1,-5.707150102E-1,2.834932804E-1
1.921529703E1,-6.607297659E-1,-1.260340095E0,1.071921512E-1
1.923556937E1,-9.657946229E-1,-1.588441253E0,-7.123950869E-2
1.925584172E1,-8.475503922E-1,-1.416401148E0,-1.739042848E-1
1.927611401E1,-7.713840604E-1,-1.061268926E0,-3.006706536E-1
1.929638635E1,-9.205209613E-1,-8.455530405E-1,-4.561991692E-1
1.931665864E1,-1.614939690E0,-1.372725368E0,-4.647212625E-1
1.933693104E1,-2.434926271E0,-2.069274664E0,-5.621928573E-1
1.935720339E1,-2.366749525E0,-1.831188202E0,-8.582029939E-1
1.937747573E1,-1.820535541E0,-6.692518592E-1,-8.917587996E-1
1.939774807E1,-7.448856235E-1,1.360607982E0,-5.568665862E-1
1.941802042E1,2.037316747E-2,1.604553342E0,-4.450138807E-1
1.943829271E1,2.648511827E-1,-2.170474641E-2,-6.664555669E-1
1.945856510E1,5.512739420E-1,-1.621331215E0,-8.177229762E-1
1.947883745E1,5.816339254E-1,-2.504301548E0,-9.205209613E-1
1.949910974E1,3.191796243E-1,-2.814692974E0,-8.603335619E-1
1.951938208E1,5.073318258E-2,-2.470213175E0,-6.245108247E-1
1.953965443E1,-5.898897350E-2,-1.847167134E0,-3.267696202E-1
1.955992677E1,-1.464737463E-3,-1.361007452E0,1.034637317E-1
1.958019906E1,-9.321057005E-4,-1.015995145E0,3.857586086E-1
1.960059906E1,1.611211337E-2,-7.305045128E-1,3.463438451E-1
1.962074370E1,8.535424620E-2,-5.309007764E-1,1.711079776E-1
1.964101604E1,1.434111148E-1,-5.414202213E-1,-2.756369673E-2
1.966128839E1,1.684448123E-1,-8.290414214E-1,-2.133190483E-1
1.968156068E1,1.854890287E-1,-1.139965296E0,-3.283675313E-1
1.970183302E1,4.522044063E-1,-1.498959064E0,-2.287653685E-1
1.972210536E1,6.450171471E-1,-1.749162912E0,9.494162351E-2
1.974237771E1,5.960150361E-1,-9.121319652E-1,6.210486889E-1
1.976265000E1,1.021987319E0,9.442230463E-1,1.106143117E0
1.978292234E1,1.974066734E0,1.980458260E0,1.534778595E0
1.980319464E1,2.497510672E0,1.371260643E0,1.756353378E0
1.982346698E1,2.258491993E0,1.539305896E-1,1.535311222E0
1.984373927E1,1.786180854E0,-1.148487329E0,1.123187304E0
1.986401161E1,1.366600037E0,-2.145441055E0,9.555414915E-1
1.988428390E1,9.612672925E-1,-2.536259651E0,9.576719999E-1
1.990463500E1,4.894886315E-1,-2.191646814E0,8.527435660E-1
1.992498625E1,-3.555317223E-2,-1.332777977E0,6.849645376E-1
1.994527375E1,-4.199801981E-1,-4.886896908E-2,6.151897311E-1
1.996537390E1,-6.122602820E-1,4.234423041E-1,6.327666044E-1
1.998564604E1,-7.166560888E-1,-3.625891209E-1,5.347623229E-1
2.000591833E1,-3.986749053E-1,-1.593234897E0,4.271707237E-1
2.002619052E1,1.450090110E-1,-2.725743294E0,2.893522382E-1
2.004646271E1,4.133222997E-1,-3.500589371E0,6.085318699E-2
2.006673500E1,4.000065029E-1,-3.756252766E0,-2.569948435E-1
2.008700724E1,3.307643533E-1,-3.493132591E0,-5.318328738E-1
2.010727948E1,2.275669426E-1,-2.913229704E0,-5.829655528E-1
2.012755177E1,-1.287637353E-1,-2.051165104E0,-4.881570637E-1
2.014782401E1,-4.434159994E-1,-9.675257206E-1,-2.932138145E-1
2.016809635E1,-1.996037811E-1,-2.794985473E-1,-3.502054140E-2
2.018836859E1,4.487423226E-2,-7.757782340E-1,2.792322338E-1
2.020864088E1,2.376869470E-1,-1.263535857E0,5.038697124E-1
2.022891318E1,6.487455368E-1,-8.546077609E-1,5.246423483E-1
2.024918552E1,5.267728567E-1,-5.245091915E-1,3.910849094E-1
2.026945781E1,1.396826953E-1,-1.029310942E0,4.996086359E-1
2.028973010E1,1.833585054E-1,-1.424923301E0,1.732385010E-1
2.031000234E1,6.801708341E-1,-1.756087065E0,-2.900180221E-1
2.033027464E1,8.282424808E-1,-2.416417360E0,-3.384875357E-1
2.035054693E1,2.888196111E-1,-3.196589947E0,-4.940159991E-2
2.037081922E1,-3.022685647E-1,-3.247056723E0,9.174583107E-2
2.039109151E1,-6.548708081E-1,-2.442516327E0,-4.660528619E-3
2.041136380E1,-8.342345953E-1,-1.356213808E0,-1.808284968E-1
2.043169995E1,-9.045419693E-1,-6.591318846E-1,-3.251717389E-1
2.045209995E1,-1.032373667E0,-4.211786091E-1,-4.045338631E-1
2.047233870E1,-1.239034772E0,-3.695133328E-1,-4.024033546E-1
2.049245364E1,-1.397625923E0,-4.494080842E-1,-3.374222517E-1
2.051272583E1,-1.532914400E0,-4.824312627E-1,-2.202432603E-1
2.053299797E1,-1.396028042E0,4.048001766E-2,-6.111950055E-2
2.055327010E1,-6.836329699E-1,9.900293946E-1,4.061317816E-2
2.057354234E1,8.695214242E-2,9.623325467E-1,-7.323687430E-3
2.059381453E1,2.877543271E-1,-3.022685647E-2,-1.403484792E-1
2.061408682E1,2.403501123E-1,-9.520793557E-1,-1.877527237E-1
2.063435906E1,2.302301079E-1,-1.280047417E0,-1.472726911E-1
2.065463130E1,1.743037701E-1,-1.164999008E0,-1.127847880E-1
2.067490354E1,3.102580272E-2,-8.764456511E-1,-7.230477035E-2
2.069517578E1,-1.644500792E-1,-5.909550190E-1,-1.850895584E-2
2.071544807E1,-3.203780353E-1,-2.954775095E-1,2.623211779E-2
2.073572031E1,-3.672496378E-1,-8.082687855E-2,1.984053478E-2
2.075599255E1,-4.119907022E-1,2.609895915E-2,-5.739107728E-2
2.077626479E1,-4.471444190E-1,2.450106293E-2,-2.394180000E-1
2.079653703E1,-4.162517786E-1,-4.247738793E-2,-4.098601937E-1
2.081680932E1,-3.496727943E-1,-9.467530251E-2,-4.753738940E-1
2.083708156E1,-7.177213579E-2,-7.603318989E-2,-2.932138145E-1
2.085735385E1,2.227732539E-1,5.012065172E-1,-6.751108170E-2
2.087762609E1,5.283707380E-1,1.848898172E0,1.838911325E-1
2.089789833E1,1.367665410E0,4.286221504E0,9.926925302E-1
2.091817062E1,2.741988659E0,4.950147152E0,2.461424828E0
2.093844286E1,2.615222216E0,2.099767685E0,3.370361090E0
2.095871510E1,2.485260010E0,-3.295659423E-1,3.115230322E0
2.097898734E1,2.318146944E0,-1.944106102E0,2.026930332E0
2.099925964E1,1.834117651E0,-2.714025497E0,1.171124220E0
2.101953187E1,1.312804222E0,-2.810431719E0,1.200418949E0
2.103980406E1,7.531414032E-1,-1.334908485E0,1.315467477E0
2.106007635E1,1.876195520E-1,7.119956017E-1,1.274454832E0
2.108034859E1,-3.661843836E-1,1.830788732E0,1.331446409E0
2.110062083E1,-6.687192321E-1,1.189633131E0,1.379383206E0
2.112089307E1,-4.812328517E-1,-3.269027770E-1,1.157808423E0
2.114116531E1,-1.261005849E-1,-1.349289536E0,6.945518851E-1
2.116143755E1,6.657897611E-4,-1.585778117E0,1.785648167E-1
2.118170979E1,-5.792371184E-2,-1.555418015E0,-2.532664239E-1
2.120198203E1,-2.085253596E-1,-1.629853368E0,-7.069355845E-1
2.122225427E1,-4.130559862E-1,-1.968607187E0,-1.213867903E0
2.124252651E1,-5.978792310E-1,-2.290183783E0,-1.669800758E0
2.126279875E1,-8.608661890E-1,-2.412156343E0,-1.863545537E0
2.128307099E1,-1.335307956E0,-2.371143818E0,-1.855556130E0
2.130334323E1,-1.583514452E0,-2.041577816E0,-1.558480740E0
2.132361547E1,-1.037167311E0,-7.539403439E-1,-9.013462067E-1
2.134388766E1,-1.852227151E-1,-4.323638678E-1,-2.724411786E-1
2.136415990E1,3.255712092E-1,-1.626124978E0,2.158490419E-1
2.138443214E1,5.171855092E-1,-2.065013647E0,5.571328998E-1
2.140483214E1,4.735096991E-1,-1.316266418E0,7.723161578E-1
2.142513448E1,1.332911104E-1,-2.912164330E-1,9.809746742E-1
2.144541052E1,1.434111148E-1,-1.442100704E-1,7.499455810E-1
2.146551797E1,2.488722205E-1,-6.612623930E-1,2.430132627E-1
2.148579073E1,1.023984700E-1,-1.383910656E0,9.494162351E-2
2.150606354E1,-1.500690132E-1,-2.022935629E0,4.426170290E-1
2.152633615E1,-4.940159991E-2,-8.482161760E-1,1.099751592E0
2.154660865E1,4.868254960E-1,1.058738947E0,1.159938931E0
2.156688109E1,8.383625150E-1,1.076848388E0,8.490151167E-1
2.158715354E1,1.253016293E-1,-2.874880135E-1,8.426235318E-1
2.160742594E1,6.085318699E-2,2.838927507E-1,4.617917836E-1
2.162769828E1,3.989412189E-1,1.004943132E0,-8.934898674E-2
2.164797057E1,5.209138989E-1,3.350254297E-1,-5.270391703E-1
2.166824281E1,1.023984700E-1,-8.093340397E-1,-1.086702108E0
2.168851516E1,-7.703187466E-1,-1.849830270E0,-1.298023701E0
2.170878740E1,-1.239034772E0,-1.970205069E0,-1.209606886E0
2.172905969E1,-1.646364927E0,-6.111950278E-1,-1.160205245E0
2.174933187E1,-1.554752231E0,1.890443444E0,-6.797713637E-1
2.176960411E1,-1.017992616E0,2.063016176E0,1.717737690E-2
2.178987635E1,-2.436790615E-1,2.577938139E-1,3.426154256E-1
2.181014859E1,3.085269928E-1,-3.838943839E-1,2.222406268E-1
2.183042078E1,2.270343155E-1,-2.587259114E-1,1.364869028E-1
2.185069297E1,-1.266332120E-1,-1.367532164E-1,1.727058738E-1
2.187096516E1,-3.097254038E-1,7.456845604E-3,2.035985142E-1
2.189123745E1,-4.024033546E-1,4.101265073E-1,2.174469382E-1
2.191150964E1,-4.514054656E-1,1.313203812E0,3.277017176E-1
2.193197354E1,-2.282327414E-1,1.617869139E0,5.960150361E-1
2.195226640E1,1.098553166E-1,6.070671082E-1,6.498108506E-1
2.197248432E1,2.563290596E-1,7.829687744E-2,4.182491302E-1
2.199259917E1,1.583248079E-1,2.396843210E-2,1.908153445E-1
2.201287120E1,2.783001214E-2,9.267793596E-2,1.344895363E-2
2.203314328E1,2.942790836E-2,1.688442826E-1,-9.254477918E-2
2.205341536E1,1.114532053E-1,1.406148076E-1,-5.526055023E-2
2.207381536E1,2.744385600E-1,1.123853177E-1,1.824264042E-2
2.209395969E1,2.850911915E-1,1.400821656E-1,2.569948509E-2
2.211423177E1,8.375635743E-2,2.050632536E-1,1.824264042E-2
2.213450391E1,-5.845634267E-2,1.901495606E-1,-2.596580051E-2
2.215477604E1,2.090579830E-2,3.877559602E-1,1.950764060E-1
2.217504818E1,9.181240797E-1,1.560877562E0,9.235835671E-1
2.219532036E1,2.026797295E0,1.494298577E0,1.473659039E0
2.221559250E1,2.298439503E0,1.613874435E-1,1.635978580E0
2.223586469E1,2.340517282E0,2.412822098E-1,1.680187106E0
2.225613687E1,1.643968105E0,8.302398324E-1,1.741439700E0
2.227640906E1,9.335704446E-1,7.716503739E-1,1.484844327E0
2.229668120E1,4.458128214E-1,1.037433624E0,1.042759895E0
2.231695338E1,6.724476814E-2,1.878725648E0,9.528783560E-1
2.233722557E1,-2.027995586E-1,2.114148855E0,8.815056682E-1
2.235749771E1,-3.938812315E-1,1.731719255E0,5.486107469E-1
2.237776990E1,-2.830938101E-1,7.823029757E-1,-1.211737394E-1
2.239804208E1,-7.550056279E-2,-2.970753908E-1,-7.452850938E-1
2.241831427E1,-8.402267098E-2,-9.190561771E-1,-1.087767363E0
2.243858641E1,-2.367548496E-1,-1.236371636E0,-1.309741616E0
2.245885859E1,-4.055991173E-1,-1.599093914E0,-1.576057553E0
2.247913078E1,-5.483444333E-1,-2.074068308E0,-1.848631859E0
2.249940297E1,-6.878939867E-1,-2.456897497E0,-2.054227829E0
2.251967510E1,-1.037167311E0,-2.382328987E0,-2.163949966E0
2.253994729E1,-1.704421878E0,-1.953160882E0,-1.907221437E0
2.256021948E1,-2.116013050E0,-1.772066116E0,-9.508809447E-1
2.258049161E1,-1.939179301E0,-4.158523083E-1,9.227846563E-2
2.260076380E1,-1.376320601E0,2.121073008E0,3.793670237E-1
2.262103599E1,-1.049417853E0,2.411224365E0,-3.715106845E-2
2.264130812E1,-8.518114686E-1,1.684314966E0,-3.368896246E-1
2.266158031E1,-6.346307993E-1,6.784397960E-1,-3.528685868E-1
2.268185250E1,-1.154479459E-1,-2.715090811E-1,-1.323590130E-1
2.270212464E1,3.600591123E-1,-1.473392725E0,-2.372874767E-1
2.272239682E1,4.628570378E-1,-2.066078901E0,-5.558013320E-1
2.274266896E1,1.881521940E-1,-1.652223945E0,-5.771065950E-1
2.276294115E1,-1.761679798E-1,-1.104811549E0,-1.611211300E-1
2.278321333E1,-2.426137924E-1,-1.178847432E0,4.980107546E-1
2.280348547E1,8.162582666E-2,-1.122388363E0,7.835013866E-1
2.282375760E1,4.442149401E-1,-7.001445293E-1,9.687241316E-1
2.284402979E1,6.444845200E-1,-1.649827063E-1,1.350088477E0
2.286442979E1,5.656549931E-1,1.185904741E0,1.134905219E0
2.288469255E1,7.286403179E-1,1.068326235E0,3.873564899E-1
2.290500417E1,1.057673693E0,-6.010749936E-1,8.695214242E-2
2.292527640E1,9.857683182E-1,-2.188451052E0,-2.724411786E-1
2.294555062E1,4.048001766E-1,-2.881804466E0,-6.048034430E-1
2.296565911E1,-6.325002760E-2,-2.712960243E0,-5.898897648E-1
2.298593198E1,-4.135886133E-1,-1.927061915E0,-5.174518228E-1
2.300620469E1,-7.155908346E-1,-6.878939867E-1,-4.833633900E-1
2.302647740E1,-9.604683518E-1,9.255809188E-1,-4.444812536E-1
2.304674990E1,-1.094691515E0,2.099767685E0,-2.548643351E-1
2.306702234E1,-1.200685263E0,2.192312479E0,3.209106624E-2
2.308729474E1,-9.679251909E-1,1.464471221E0,1.402153224E-1
2.310756708E1,-1.649827063E-1,9.191893935E-1,7.896266878E-2
2.312783943E1,2.850911915E-1,4.458128214E-1,1.238369010E-2
2.314811172E1,3.292996287E-1,9.800425172E-2,1.322258562E-1
2.316838391E1,2.552638054E-1,2.599243224E-1,2.110553533E-1
2.318865609E1,1.221058443E-1,6.837661266E-1,1.780321896E-1
2.320905614E1,8.428898454E-2,6.225134134E-1,1.780321896E-1
2.322920052E1,2.270343155E-1,3.914843798E-1,-8.388951421E-3
2.324947276E1,4.708465338E-1,1.677790284E-1,-1.392832249E-1
2.326974490E1,6.428865790E-1,8.309056610E-2,-1.600558609E-1
2.329001703E1,6.673876643E-1,6.870950758E-2,-1.579253376E-1
2.331028927E1,4.767054915E-1,-4.833633825E-2,-7.856319658E-3
2.333056146E1,6.884266436E-2,3.866907060E-1,4.916191697E-1
2.335083359E1,3.047985733E-1,3.168493509E0,1.357012749E0
2.337110578E1,1.851694465E0,4.219642639E0,2.306428909E0
2.339137797E1,2.306428909E0,-1.637842879E-2,2.440119505E0
2.341165010E1,2.899115086E0,-6.463487148E-1,1.986983061E0
2.343198620E1,2.236121655E0,4.207791388E-1,1.518799663E0
2.345238620E1,9.410272837E-1,7.881619334E-1,1.270726323E0
2.347262458E1,1.854890287E-1,1.078978896E0,1.106675744E0
2.349273937E1,-2.213085145E-1,1.636378169E0,1.127981067E0
2.351301135E1,-4.162517786E-1,2.060353041E0,9.321056604E-1
2.353328344E1,-6.692518592E-1,1.835049748E0,4.150533378E-1
2.355355547E1,-7.825692892E-1,9.751157165E-1,-3.422159553E-1
2.357382755E1,-5.584644675E-1,1.193095297E-1,-1.180445313E0
2.359409964E1,-4.024033546E-1,-4.099933505E-1,-1.774596095E0
2.361437172E1,-3.874896467E-1,-8.956204057E-1,-2.118676186E0
2.363464390E1,-4.604602158E-1,-1.216131568E0,-2.302833557E0
2.365491599E1,-5.941507816E-1,-1.236371636E0,-2.384326458E0
2.367518812E1,-8.475503922E-1,-1.151683211E0,-2.369412661E0
2.369546021E1,-1.422659636E0,-1.405748487E0,-2.262486935E0
2.371573234E1,-1.670866013E0,-2.285922527E0,-1.655952334E0
2.373600448E1,-1.390169024E0,-1.850895524E0,-8.363651037E-1
2.375627656E1,-8.379629850E-1,-2.330264263E-2,-2.506032586E-1
2.377654870E1,-7.458177209E-1,8.185219765E-1,-6.271740049E-2
2.379682083E1,-9.002809525E-1,1.373391151E0,2.516685426E-2
2.381709297E1,-9.125314951E-1,2.093376160E0,2.083922029E-1
2.383736510E1,-3.976096511E-1,1.286572218E0,3.362238407E-1
2.385763724E1,3.106575012E-1,-1.300287485E0,1.418132186E-1
2.387790943E1,6.285055280E-1,-3.094857216E0,-3.763043880E-1
2.389818156E1,5.464802384E-1,-2.878608704E0,-4.396875799E-1
2.391845370E1,4.575307369E-1,-1.729988098E0,1.743037701E-1
2.393872583E1,6.098634601E-1,-9.504814744E-1,8.916256428E-1
2.395899792E1,5.486107469E-1,2.024666786E0,1.777126074E0
2.397927010E1,8.314382434E-1,4.303265572E0,1.941709280E0
2.399954219E1,8.570045829E-1,2.659430742E0,1.042227268E0
2.401981432E1,6.775076985E-1,-7.182540298E-1,-6.325002760E-2
2.404008646E1,8.245140314E-1,-3.153446674E0,-6.271739602E-1
2.406035859E1,4.591286182E-1,-3.804589033E0,-7.713840604E-1
2.408063073E1,-3.342264593E-1,-3.487806320E0,-5.914876461E-1
2.410103073E1,-1.098420024E0,-1.330114841E0,-5.898897648E-1
2.412117500E1,-1.088832617E0,1.382445931E0,-3.821633458E-1
2.414144714E1,-8.619314432E-1,2.294045210E0,-2.000032514E-1
2.416171922E1,-1.159139991E0,1.102814198E0,-2.058621943E-1
2.418199135E1,-9.104009271E-1,-1.074584723E-1,-1.000016257E-1
2.420226349E1,-2.122537792E-1,3.259706795E-1,-1.101216301E-1
2.422253562E1,3.328948980E-3,4.138549268E-1,-6.591318548E-2
2.424280776E1,-2.756369673E-2,1.150484756E-1,1.380847991E-1
2.426307990E1,-4.727107286E-2,-6.218476593E-2,2.376869470E-1
2.428335198E1,-1.521995366E-1,2.796316985E-3,1.418132186E-1
2.430362411E1,-2.090579867E-1,2.913496196E-1,7.057371549E-3
2.432389625E1,6.085318699E-2,4.420844093E-2,1.434111148E-1
2.434416833E1,3.941475451E-1,-2.651174963E-1,1.332911104E-1
2.436444052E1,5.523391962E-1,-2.187785208E-1,4.913528636E-2
2.438484052E1,5.613939166E-1,-9.454214945E-3,1.238369010E-2
2.440514266E1,3.978759646E-1,1.352884769E-1,2.356895804E-2
2.442525750E1,1.727058738E-1,4.063980877E-1,3.138532937E-1
2.444551276E1,2.701774836E-1,1.937315106E0,9.219856858E-1
2.446579557E1,1.541170120E0,3.314834118E0,1.764875531E0
2.448606880E1,2.217479467E0,5.953491926E-1,2.140780449E0
2.450634182E1,2.560893774E0,-4.036017656E-1,1.942241907E0
2.452661464E1,2.214816332E0,4.111917615E-1,1.662610173E0
2.454688729E1,1.210538983E0,5.868270993E-1,1.510810137E0
2.456715990E1,4.239749312E-1,7.327682376E-1,1.174319983E0
2.458743234E1,-7.656582445E-2,1.380315304E0,9.644630551E-1
2.460770479E1,-1.490037590E-1,1.870736122E0,8.394277692E-1
2.462797708E1,-2.559295893E-1,1.471928000E0,4.207791388E-1
2.464824943E1,-5.265065432E-1,5.953491926E-1,-2.047969401E-1
2.466852172E1,-5.163865685E-1,-4.247738793E-2,-7.846998572E-1
2.468879390E1,-3.118559420E-1,-3.093259335E-1,-1.162335753E0
2.470906609E1,-2.340916842E-1,-6.926876903E-1,-1.518533349E0
2.472933833E1,-1.878858805E-1,-1.241165280E0,-1.966343522E0
2.474961047E1,-7.816372067E-2,-1.714009166E0,-2.450905323E0
2.476988266E1,-8.455529809E-2,-1.941442966E0,-2.785398006E0
2.479015479E1,-6.660560966E-1,-1.913213491E0,-2.911498785E0
2.481042698E1,-1.442366958E0,-2.232126713E0,-2.394979000E0
2.483069906E1,-1.785381913E0,-2.544249058E0,-1.284175277E0
2.485097125E1,-1.347558498E0,-6.058686972E-1,-3.123885691E-1
2.487124333E1,-7.591335177E-1,1.430915356E0,1.008005738E-1
2.489151547E1,-6.873613596E-1,1.114532113E0,2.169143111E-1
2.491178755E1,-4.503402114E-1,1.890842915E-1,2.920154035E-1
2.493212370E1,-9.893636405E-2,2.183790505E-2,3.591270149E-1
2.495252370E1,2.376869470E-1,-4.009386003E-1,5.081307292E-1
2.497276198E1,5.901560783E-1,-1.273123264E0,3.516701460E-1
2.499287677E1,7.275750637E-1,-1.645299673E0,-1.158474199E-2
2.501314875E1,8.367645741E-1,-1.963280916E0,1.087900475E-1
2.503342068E1,6.950845122E-1,-2.155427933E0,8.000130057E-1
2.505369271E1,5.017392039E-1,-1.577255964E0,1.434244394E0
2.507409271E1,3.989412189E-1,2.471411675E-1,1.629587054E0
2.509423687E1,1.327584833E-1,3.099251509E0,1.189766288E0
2.511450890E1,2.410159074E-2,2.555034876E0,6.194508076E-1
2.513478099E1,2.414153665E-1,7.616634667E-2,3.639206886E-1
2.515505307E1,3.984085917E-1,-1.882320881E0,-3.954791129E-1
2.517532516E1,4.167843983E-2,-2.529867887E0,-1.085104227E0
2.519559724E1,-4.407528341E-1,-2.316282511E0,-9.620662332E-1
2.521586932E1,-1.084571600E0,-5.261070728E-1,-8.315714002E-1
2.523614140E1,-1.164466262E0,1.617869139E0,-4.817654788E-1
2.525641349E1,-1.209207416E0,1.822266579E0,-2.820285559E-1
2.527668557E1,-1.253948450E0,6.677871346E-1,-2.415485233E-1
2.529695766E1,-7.081339955E-1,1.203747913E-1,-7.869634777E-2
2.531722974E1,-1.584579609E-2,-4.354264960E-2,1.311605871E-1
2.533762974E1,2.797648609E-1,-4.749744236E-1,2.595248520E-1
2.535777396E1,4.751075804E-1,-3.748396337E-1,4.086617529E-1
2.537804604E1,4.143875539E-1,-1.223721579E-1,4.415517747E-1
2.539831818E1,5.126581341E-2,1.241032109E-1,2.723080218E-1
2.541859026E1,-7.922898233E-2,3.398191035E-1,5.392897129E-2
2.543886234E1,4.807002097E-2,1.976063997E-1,-8.881635964E-2
2.545913448E1,2.382195890E-1,-6.165213138E-2,-2.186453640E-1
2.547940656E1,4.362254739E-1,-9.627319872E-2,-2.404832691E-1
2.549967865E1,4.932170510E-1,4.394212738E-3,-1.037300453E-1
2.551995078E1,4.159854650E-1,5.617933869E-1,4.644549489E-1
2.554022286E1,1.052347302E0,2.860099792E0,1.458212733E0
2.556049495E1,2.173270941E0,2.688192844E0,2.215881586E0
2.558076708E1,2.520413876E0,-4.514054582E-2,2.272340536E0
2.560103917E1,2.786729574E0,-2.596580051E-2,1.940644026E0
2.562131125E1,1.883119822E0,4.229096770E-1,1.656751275E0
2.564158333E1,7.994803786E-1,3.739075363E-1,1.371393800E0
2.566185547E1,2.265016884E-1,7.860314250E-1,1.208941102E0
2.568212755E1,-1.117195264E-1,1.745567679E0,1.294162154E0
2.570239964E1,-3.747064769E-1,2.247706175E0,9.633978009E-1
2.572267177E1,-7.484808564E-1,1.461808085E0,3.548659384E-1
2.574294385E1,-7.406245470E-1,2.013348341E-1,-1.978727281E-1
2.576321594E1,-4.306328297E-1,-3.024017215E-1,-7.948198318E-1
2.578348802E1,-3.587275445E-1,-4.472775757E-1,-1.376853228E0
2.580376010E1,-5.451486707E-1,-8.471509218E-1,-1.818271875E0
2.582403219E1,-7.257108688E-1,-1.251817942E0,-2.280463219E0
2.584430432E1,-7.033402920E-1,-1.386041164E0,-2.804572821E0
2.586469516E1,-7.155908346E-1,-1.485643268E0,-3.193793535E0
2.588500641E1,-1.079245210E0,-1.784849286E0,-3.061168194E0
2.590508187E1,-1.541969061E0,-2.316282511E0,-2.166080475E0
2.592539307E1,-1.653821826E0,-1.560211778E0,-9.769799113E-1
2.594565323E1,-9.855020046E-1,-3.146522343E-1,-1.936116666E-1
2.596593297E1,-4.807002246E-1,-8.988162130E-2,1.034637317E-1
2.598620583E1,-2.681801319E-1,-1.997369342E-3,1.908153445E-1
2.600647849E1,-3.677822649E-1,5.490102768E-1,3.340933025E-1
2.602675109E1,-3.203780353E-1,3.664506972E-1,4.809665382E-1
2.604702365E1,1.135837361E-1,-7.954856157E-1,2.217079997E-1
2.606729599E1,4.580633640E-1,-1.621863842E0,-2.639190555E-1
2.608756844E1,4.575307369E-1,-1.913213491E0,-3.523359597E-1
2.610784062E1,4.719117880E-1,-2.006956816E0,1.114532053E-1
2.612811292E1,4.490086138E-1,-1.064997315E0,7.840340137E-1
2.614838516E1,6.008086801E-1,1.282311082E0,1.389503241E0
2.616865729E1,1.044890523E0,2.305763245E0,1.355414867E0
2.618892948E1,1.199886322E0,1.111868978E0,6.780403256E-1
2.620920161E1,9.293093681E-1,-8.359656334E-1,-9.254477918E-2
2.622947380E1,5.299686790E-1,-2.736928701E0,-5.664539337E-1
2.624974589E1,-6.111950055E-2,-3.286471605E0,-7.490134835E-1
2.627001802E1,-9.524788260E-1,-2.417482615E0,-4.870918095E-1
2.629029016E1,-1.437040687E0,-8.641951084E-1,-3.304980397E-1
2.631056224E1,-1.440769076E0,9.756483436E-1,-1.696432382E-1
2.633083437E1,-1.217196822E0,1.965544581E0,1.185105834E-2
2.635110646E1,-1.082440972E0,8.057388067E-1,-6.431528926E-2
2.637137854E1,-4.263717830E-1,-6.372939944E-1,-9.680583328E-2
2.639165062E1,2.403501123E-1,-6.644582152E-1,-6.644582003E-2
2.641192271E1,2.989396155E-1,-4.110586047E-1,1.444763839E-1
2.643225880E1,1.162468940E-1,6.604634225E-2,3.580617309E-1
2.645265880E1,-7.323687430E-3,5.012065172E-1,3.916175365E-1
2.647289703E1,-6.218476593E-2,5.841639638E-1,1.892174482E-1
2.649301177E1,1.045289934E-1,1.123853177E-1,-6.484792382E-2
2.651328375E1,4.229096770E-1,-5.669865608E-1,-1.675127149E-1
2.653355568E1,5.257076025E-1,-8.322372437E-1,-2.021337748E-1
2.655382766E1,3.446127772E-1,-7.235803008E-1,-1.307611167E-1
2.657422766E1,9.547425061E-2,-3.476754129E-1,-4.354264960E-2
2.659437177E1,-1.181111038E-1,2.050632536E-1,8.002793044E-2
2.661464380E1,-1.133174226E-1,1.267930031E0,4.399538934E-1
2.663491583E1,9.948230982E-1,2.653571844E0,1.113600016E0
2.665518792E1,2.600308657E0,1.223188996E0,1.603488088E0
2.667545995E1,2.887929678E0,-6.037381887E-1,1.736646056E0
2.669573203E1,2.684997082E0,-1.980058849E-1,1.762212396E0
2.671600406E1,2.089647770E0,2.673811615E-1,1.759016633E0
2.673627614E1,1.178048372E0,-7.922898233E-2,1.448625445E0
2.675654823E1,3.536675274E-1,-3.721764982E-1,1.066728354E0
2.677682021E1,-3.438138366E-1,9.170588255E-1,1.071522117E0
2.679709229E1,-6.703171730E-1,1.980458260E0,9.464867711E-1
2.681736437E1,-9.945567846E-1,1.351020575E0,4.868254960E-1
2.683763640E1,-1.174586296E0,5.006739125E-2,-4.940159991E-2
2.685790854E1,-9.285104275E-1,-6.277065873E-1,-4.567317963E-1
2.687818062E1,-6.820350289E-1,-6.937529445E-1,-8.193209171E-1
2.689845271E1,-6.495444775E-1,-8.823046088E-1,-1.085104227E0
2.691872479E1,-6.735129356E-1,-1.456881166E0,-1.451954365E0
2.693899687E1,-5.238434076E-1,-2.246507883E0,-1.992442489E0
2.695926896E1,-2.868222296E-1,-2.873282433E0,-2.534528494E0
2.697954104E1,-5.302349925E-1,-3.175817251E0,-2.769951820E0
2.699981312E1,-1.326785922E0,-2.909501314E0,-2.171406746E0
2.702008521E1,-1.438105941E0,-1.530384421E0,-6.685860753E-1
2.704035729E1,-7.331677079E-1,-6.064013243E-1,3.926828206E-1
2.706062932E1,-3.251717389E-1,-8.263782859E-1,4.330296814E-1
2.708090146E1,-2.442116886E-1,-7.081339955E-1,2.478069514E-1
2.710117354E1,-5.387570858E-1,3.664506972E-1,3.564638495E-1
2.712144562E1,-7.490134835E-1,1.763144493E0,3.820301592E-1
2.714171771E1,-5.600623488E-1,1.257809997E0,1.956090331E-1
2.716198974E1,-1.809616536E-1,-6.671213508E-1,-4.141212255E-2
2.718226177E1,1.604553312E-1,-1.827992439E0,-7.922898233E-2
2.720253391E1,3.446127772E-1,-2.089514732E0,2.339585274E-1
2.722280599E1,4.756402075E-1,-1.394030690E0,5.459476113E-1
2.724307807E1,4.495412707E-1,1.075916290E-1,8.261119723E-1
2.726335016E1,3.957454562E-1,2.463954687E0,1.088566303E0
2.728362224E1,7.030739784E-1,1.900563478E0,3.740406930E-1
2.730389432E1,6.769750714E-1,-1.543300748E-1,-4.700475931E-1
2.732416635E1,5.640571117E-1,-2.160754204E0,-6.632598042E-1
2.734443844E1,6.884266436E-2,-3.047452927E0,-8.278430104E-1
2.736483844E1,-5.344960093E-1,-2.849846601E0,-8.496809006E-1
2.738514052E1,-1.098420024E0,-1.594832778E0,-8.720514774E-1
2.740521604E1,-1.100017905E0,-1.282311082E-1,-6.909566522E-1
2.742552714E1,-8.502135277E-1,1.253548980E0,-3.874896467E-1
2.744578724E1,-9.487504363E-1,1.905357122E0,-2.255695760E-1
2.746606693E1,-1.158607364E0,7.881619334E-1,-2.298306376E-1
2.748633984E1,-9.290430546E-1,-6.074665785E-1,-9.414267540E-2
2.750661245E1,-2.399506420E-1,-3.545996249E-1,5.819002539E-2
2.752688505E1,5.475454926E-1,8.149266988E-2,1.929458827E-1
2.754715760E1,9.122651219E-1,-5.749760270E-1,2.296974659E-1
2.756742995E1,9.479514956E-1,-1.212403178E0,8.109319210E-2
2.758770229E1,8.781766891E-1,-1.351420045E0,-8.349003643E-2
2.760797453E1,6.087981462E-1,-1.261937976E0,-1.259674281E-1
2.762824677E1,2.249037921E-1,-9.994835854E-1,-2.026664019E-1
2.764851896E1,7.590003312E-3,-7.486140132E-1,-3.299654126E-1
2.766879109E1,-1.601890177E-1,-6.351634264E-1,-3.134538233E-1
2.768906328E1,-3.890875578E-1,-1.804290265E-1,-3.731085956E-1
2.770933542E1,-1.691105962E-2,5.038697124E-1,-3.230412006E-1
2.772960750E1,1.017726302E0,4.820317924E-1,1.423458606E-1
2.774987964E1,2.028395176E0,-1.511342824E-1,7.302381992E-1
2.777015172E1,2.249437332E0,-5.739107728E-1,1.257943153E0
2.779042385E1,2.133856297E0,-7.342329621E-1,1.597096562E0
2.781069594E1,2.158357382E0,-1.227316856E0,1.687111259E0
2.783096802E1,2.174336195E0,-1.972335577E0,1.587509155E0
2.785124010E1,1.543300748E0,-2.521345854E0,1.396427512E0
2.787151219E1,2.488722205E-1,-2.433461666E0,1.268063188E0
2.789178427E1,-8.880304098E-1,-1.600691795E0,1.135970473E0
2.791205635E1,-1.549958587E0,2.290316820E-1,1.057673693E0
2.793239240E1,-1.756087065E0,2.122138262E0,1.023052573E0
2.795279240E1,-2.182592154E0,2.239184141E0,8.511456251E-1
2.797303057E1,-1.487640619E0,2.641853690E-1,6.072002649E-1
2.799314531E1,1.263668984E-1,-2.255562544E0,5.161202550E-1
2.801341724E1,7.749792933E-1,-3.577821016E0,1.961416751E-1
2.803368917E1,7.179877162E-1,-3.531482220E0,-9.094688296E-2
2.805396115E1,4.846949577E-1,-2.970221281E0,-2.548643351E-1
2.807436114E1,2.520680130E-1,-2.383394241E0,-3.741738498E-1
2.809450521E1,1.557948068E-2,-2.039447308E0,-6.474139690E-1
2.811477719E1,-2.798980176E-1,-2.113482952E0,-1.031308413E0
2.813504922E1,-3.672496378E-1,-2.012283087E0,-1.419996381E0
2.815532130E1,-1.724395454E-1,-1.081375718E0,-1.381646991E0
2.817559328E1,-4.727107286E-2,-8.205193281E-1,-1.019590497E0
2.819586536E1,1.956090331E-1,-1.381247520E0,-5.222455263E-1
2.821613734E1,6.242445111E-1,-1.862613440E0,2.206427306E-1
2.823640943E1,6.668550372E-1,-1.792838693E0,6.402234435E-1
2.825668146E1,4.878907502E-1,-1.545298100E0,8.154593110E-1
2.827695344E1,3.271690905E-1,-1.195891619E0,9.655283093E-1
2.829722552E1,1.039963663E-1,-8.823046088E-1,1.059271574E0
2.831749755E1,-7.709845901E-2,-8.279761672E-1,9.628651738E-1
2.833776964E1,-5.669865608E-1,-1.399356961E0,7.920235395E-1
2.835804172E1,-8.598009348E-1,-1.702823877E0,6.530066133E-1
2.837831375E1,-3.880222738E-1,-7.752456069E-1,3.324954212E-1
2.839858578E1,4.452801943E-1,-1.452753246E-1,-5.472791940E-2
2.841885786E1,6.615287066E-1,-6.740455627E-1,-2.926811874E-1
2.843912990E1,4.697812796E-1,-1.362605333E0,-4.428833723E-1
2.845940193E1,2.020006180E-1,-1.939845085E0,-5.323655009E-1
2.847967401E1,-8.082687855E-2,-2.666754484E0,-6.016076207E-1
2.849994604E1,-3.336938322E-1,-3.111901522E0,-7.207840085E-1
2.852021807E1,-5.344960093E-1,-2.997385502E0,-8.251798749E-1
2.854049010E1,-1.194826365E0,-2.297640562E0,-8.219840527E-1
2.856076219E1,-2.027596235E0,-4.334291518E-1,-6.490118504E-1
2.858103422E1,-1.601091266E0,1.556083918E0,-4.418180883E-1
2.860143422E1,-8.486156464E-1,2.090713024E0,-3.885549009E-1
2.862157833E1,-7.230476737E-1,7.551387548E-1,-5.110602379E-1
2.864185036E1,-4.934833944E-1,-1.230512619E0,-5.307676196E-1
2.866212240E1,-1.399490088E-1,-1.940910339E0,-4.737760127E-1
2.868239448E1,5.992108025E-3,-1.252350569E0,-4.018706977E-1
2.870266651E1,1.391500682E-1,-8.029424548E-1,-1.627190262E-1
2.872293854E1,2.355564237E-1,-9.675257206E-1,-6.964161247E-2
2.874321057E1,3.016027808E-1,-1.493100166E0,-2.809632942E-2
2.876348266E1,3.186469972E-1,-1.978194594E0,1.103879437E-1
2.878375464E1,2.238385230E-1,-2.159156322E0,2.478069514E-1
2.880402672E1,5.978792161E-2,-1.964346170E0,4.012049139E-1
2.882425937E1,-5.313002318E-2,-1.400954843E0,5.203812718E-1
2.884465937E1,-1.015995219E-1,-6.383592486E-1,4.314317703E-1
2.886500135E1,-1.841574460E-1,-2.170474641E-2,1.652490199E-1
2.888527302E1,-2.532664239E-1,1.688442826E-1,-1.488705873E-1
2.890538771E1,-1.713742912E-1,-6.644582003E-2,-2.873548567E-1
2.892565953E1,7.310371846E-2,-3.545996249E-1,-3.507380486E-1
2.894591297E1,-3.821633384E-2,2.482064217E-1,-5.307676196E-1
2.896619687E1,8.961530030E-2,2.973017693E0,-2.335590571E-1
2.898647016E1,1.630652308E0,5.012997627E0,9.767135978E-1
2.900674312E1,2.686062336E0,3.143992424E0,2.017343044E0
2.902701594E1,2.563556910E0,-5.675191879E-1,2.115746737E0
2.904728859E1,2.322407961E0,-3.576223135E0,1.439038038E0
2.906756115E1,1.895370364E0,-5.295159340E0,8.218508959E-1
2.908783359E1,1.335707426E0,-5.643899918E0,7.787077427E-1
2.910810594E1,8.946883082E-1,-4.647079468E0,1.065130472E0
2.912837823E1,7.052045465E-1,-2.800311804E0,1.221191645E0
2.914865036E1,4.133222997E-1,-4.185154438E-1,1.257943153E0
2.916892260E1,3.635212034E-2,1.313736439E0,1.318130612E0
2.918919479E1,-3.784348965E-1,1.772731900E0,1.374056935E0
2.920946687E1,-1.098952651E0,7.146587372E-1,1.342631698E0
2.922973896E1,-1.128780007E0,-9.483509660E-1,9.841704369E-1
2.925001109E1,-1.404816359E-1,-2.253432035E0,5.283707380E-1
2.927028312E1,7.014760971E-1,-3.351452589E0,2.552638054E-1
2.929055521E1,8.591351509E-1,-3.564505339E0,9.281109273E-2
2.931082729E1,5.560676455E-1,-3.191796303E0,-6.964161247E-2
2.933109932E1,1.492700726E-1,-2.519215345E0,-2.346243113E-1
2.935137141E1,-1.149153188E-1,-1.801360846E0,-3.645864725E-1
2.937164339E1,-2.271674722E-1,-1.200685263E0,-4.402202070E-1
2.939191542E1,-3.113232851E-1,-8.093340397E-1,-4.279696643E-1
2.941218745E1,-3.406180441E-1,-1.061268926E0,-2.916159332E-1
2.943245953E1,-1.852227151E-1,-1.565005422E0,-4.460791498E-2
2.945273156E1,6.245107949E-2,-1.675659657E0,3.122554123E-1
2.947313156E1,1.764342934E-1,-1.298156857E0,6.013413072E-1
2.949327557E1,3.475422785E-2,-6.729803085E-1,7.547392845E-1
2.951354755E1,-4.024033546E-1,-1.623195410E-1,1.040629387E0
2.953381958E1,-3.097254038E-1,1.928127259E-1,1.608814359E0
2.955409161E1,4.175833464E-1,-7.816372067E-2,1.552888036E0
2.957436359E1,1.071921512E-1,-1.066062570E0,7.222487330E-1
2.959463562E1,-1.601890177E-1,-1.408411741E0,8.122635074E-3
2.961490760E1,4.969455004E-1,-1.415335894E0,-1.872200817E-1
2.963517964E1,6.348971128E-1,-1.967541933E0,4.008054361E-2
2.965545161E1,4.937497079E-1,-2.028794527E0,-2.010685205E-2
2.967572364E1,3.478085697E-1,-1.489371777E0,-4.428833723E-1
2.969599557E1,1.050616279E-1,-1.193761110E0,-5.920202732E-1
2.971626766E1,-6.878939867E-1,-1.390302181E0,-4.657865167E-1
2.973653964E1,-1.219860077E0,-6.713824272E-1,-4.103928208E-1
2.975681167E1,-1.102681041E0,7.434208393E-1,-5.190497041E-1
2.977708364E1,-8.278430104E-1,1.105477333E0,-5.845634341E-1
2.979735562E1,-7.980156541E-1,2.119874656E-1,-5.334307551E-1
2.981762766E1,-5.190497041E-1,-7.230476737E-1,-3.241064548E-1
2.983789964E1,-2.543317080E-1,-9.217193723E-1,-1.984053552E-1
2.985817161E1,-3.379548788E-1,-6.697844863E-1,-4.127896391E-3
2.987844359E1,-5.131907463E-1,-1.857553422E-1,2.408827394E-1
2.989871562E1,-5.472791791E-1,3.062632978E-1,4.346275628E-1
2.991898760E1,-4.508728385E-1,2.087916732E-1,5.789707899E-1
2.993925958E1,-2.713759243E-1,-1.639174372E-1,6.711161137E-1
2.995953161E1,8.801741153E-2,2.263685223E-3,6.934866309E-1
2.997980359E1,3.298322558E-1,2.918822467E-1,6.295707822E-1
3.000007557E1,2.675143182E-1,3.414169848E-1,3.974764943E-1
3.002034755E1,1.599227041E-1,2.423474789E-1,9.867004305E-2
3.004061948E1,1.557948068E-2,8.522108942E-2,-1.122521535E-1
3.006089151E1,-2.537990510E-1,-1.410142779E-1,-1.611211300E-1
3.008116354E1,-3.134538233E-1,7.297056168E-2,-9.254477918E-2
3.010143552E1,1.025316212E-2,4.884233773E-1,-1.105211023E-2
3.012170750E1,3.266364634E-1,1.486042738E-1,-5.153212696E-2
3.014197948E1,3.095922470E-1,-2.997385561E-1,-1.685779691E-1
3.016225146E1,-3.235738352E-2,-2.262353599E-1,-1.941442937E-1
3.018252344E1,-3.459443748E-1,7.989477366E-2,-1.005342528E-1
3.020279542E1,-2.681801319E-1,6.693850160E-1,3.255712092E-1
3.022306740E1,5.699160695E-1,1.473525882E0,9.900293946E-1
3.024333937E1,1.767538667E0,9.277114868E-1,1.366067410E0
3.026361135E1,2.270210028E0,-7.070687413E-2,1.531582832E0
3.028388333E1,2.258491993E0,4.926844500E-3,1.740374446E0
3.030415531E1,1.613608122E0,4.996086359E-1,1.846900821E0
3.032442729E1,8.639287949E-1,5.225118399E-1,1.469398022E0
3.034482729E1,2.163816839E-1,9.591367245E-1,1.058206320E0
3.036512911E1,-1.623195410E-1,2.043841362E0,1.149286270E0
3.038520453E1,-3.603254259E-1,1.927727699E0,1.130644202E0
3.040551562E1,-4.364917874E-1,1.202416301E0,7.169224024E-1
3.042578750E1,-2.245043069E-1,1.986716688E-1,2.233058959E-1
3.044605000E1,-1.904158667E-2,-5.186502337E-1,-2.708432674E-1
3.046632797E1,-3.342264518E-2,-7.635276914E-1,-6.356960535E-1
3.048660057E1,-1.612542868E-1,-9.233172536E-1,-8.656598926E-1
3.050687302E1,-3.416832983E-1,-1.188434720E0,-1.188967347E0
3.052714547E1,-5.254412889E-1,-1.565005422E0,-1.649560690E0
3.054741771E1,-6.133255363E-1,-1.896701932E0,-2.111752033E0
3.056768995E1,-7.246456146E-1,-2.069807291E0,-2.469547510E0
3.058796208E1,-1.179380059E0,-1.842373490E0,-2.522810698E0
3.060823422E1,-1.652756572E0,-1.183641076E0,-1.940777183E0
3.062850630E1,-1.500956416E0,1.475390196E-1,-8.384956717E-1
3.064877839E1,-1.097354650E0,6.326334476E-1,-5.046686530E-2
3.066905042E1,-7.543398142E-1,1.821600795E-1,-1.941442937E-1
3.068932240E1,-2.980075181E-1,3.249054253E-1,-4.551338851E-1
3.070959443E1,-1.612542868E-1,6.193176508E-1,-1.488705873E-1
3.072986641E1,-3.097254038E-1,6.992124319E-1,2.680469751E-1
3.075013844E1,-2.117211521E-1,2.242379934E-1,2.105227262E-1
3.077041047E1,8.215846121E-2,-5.472791791E-1,-6.857634336E-2
3.079068240E1,1.684448123E-1,-1.058073163E0,-2.740390599E-1
3.081095437E1,3.049317189E-2,-1.540504336E0,-1.531316489E-1
3.083122635E1,2.142511457E-1,-1.951563001E0,3.079943359E-1
3.085149833E1,5.475454926E-1,-1.627190232E0,7.179877162E-1
3.087177026E1,8.452867270E-1,-2.960101366E-1,9.177246094E-1
3.089204224E1,6.828339696E-1,1.126250029E0,1.351686358E0
3.091231417E1,3.749727905E-1,1.926662445E0,1.056075692E0
3.093258615E1,3.245059252E-1,9.442230463E-1,1.029310971E-1
3.095285812E1,3.026680350E-1,-9.179909229E-1,-2.282327414E-1
3.097313005E1,2.323606312E-1,-2.162884712E0,-6.032055616E-1
3.099340203E1,-2.101232558E-1,-2.646514416E0,-8.598009348E-1
3.101367396E1,-6.820350289E-1,-2.269411087E0,-7.474156022E-1
3.103394594E1,-1.059005260E0,-5.584644675E-1,-5.984118581E-1
3.105421786E1,-8.496809006E-1,8.211851120E-1,-2.607232630E-1
3.107461786E1,-7.060034871E-1,1.182708979E0,-1.856221855E-1
3.109476177E1,-9.775125384E-1,7.301050425E-1,-1.685779691E-1
3.111503370E1,-8.827040792E-1,2.641853690E-1,9.014793485E-2
3.113530562E1,-2.905506492E-1,5.815007687E-1,2.185122073E-1
3.115557760E1,3.213101327E-1,3.893538713E-1,1.237037405E-1
3.117584953E1,5.901560783E-1,-1.250353158E-1,1.327584833E-1
3.119624953E1,5.752423406E-1,-1.926795542E-1,2.653838098E-1
3.121639339E1,4.111917615E-1,4.394212738E-3,2.707101107E-1
3.123666536E1,2.227732539E-1,-3.342264518E-2,2.856238186E-1
3.125693729E1,1.664474420E-2,-1.836248189E-1,2.350237966E-1
3.127720922E1,-1.037300453E-1,1.246358454E-1,1.620532274E-1
3.129748115E1,1.824264042E-2,4.479433596E-1,8.641951531E-2
3.131775307E1,3.318296373E-1,2.838927507E-1,-1.989379823E-1
3.133802500E1,5.139896870E-1,-1.431448013E-1,-3.246390820E-1
3.135829693E1,3.882885873E-1,-3.764375448E-1,-2.245043069E-1
3.137856885E1,9.707214683E-2,-2.251701057E-1,1.620532274E-1
3.139884078E1,3.422159329E-2,1.317997456E0,1.001747251E0
3.141911271E1,9.804420471E-1,3.687143803E0,1.817073464E0
3.143938464E1,2.075799465E0,1.592835426E0,2.132258415E0
3.145965656E1,2.624276876E0,-5.494097471E-1,2.023734570E0
3.147992849E1,2.306961536E0,1.320926845E-1,1.821867108E0
3.150020036E1,1.328783274E0,1.075783134E0,1.597629189E0
3.152047234E1,5.219792128E-1,1.413338542E0,1.152482152E0
3.154074427E1,-8.615319431E-2,2.100832939E0,9.395625591E-1
3.156101620E1,-2.814959288E-1,2.245043039E0,8.042740226E-1
3.158128812E1,-3.784348965E-1,1.402153254E0,5.070654750E-1
3.160156005E1,-4.471444190E-1,3.004043400E-1,1.611211337E-2
3.162183193E1,-4.141212404E-1,-4.190480709E-1,-4.807002246E-1
3.164210385E1,-4.386222959E-1,-5.026713014E-1,-9.407609701E-1
3.166237573E1,-5.595297217E-1,-4.323638678E-1,-1.202149987E0
3.168264771E1,-7.065361142E-1,-6.293044686E-1,-1.386440635E0
3.170291958E1,-7.628619075E-1,-1.137302041E0,-1.724661827E0
3.172319151E1,-6.862961054E-1,-1.627190232E0,-2.187918425E0
3.174346344E1,-7.230476737E-1,-1.799762964E0,-2.562757969E0
3.176373536E1,-1.014796734E0,-1.699628115E0,-2.543050528E0
3.178400729E1,-1.490836501E0,-1.445695877E0,-1.902960300E0
3.180427917E1,-1.440236449E0,-4.824312627E-1,-8.720514774E-1
3.182462979E1,-8.518114686E-1,-2.145174593E-1,-2.074600905E-1
3.184498068E1,-3.581948876E-1,-2.842922211E-1,-1.520663798E-1
3.186525271E1,-2.553969622E-1,1.209074259E-1,2.889527567E-2
3.188536724E1,-4.460791349E-1,1.074185252E0,4.081291258E-1
3.190563901E1,-6.021402478E-1,1.814809799E0,5.603286624E-1
3.192591088E1,-1.937448233E-1,1.023585200E0,3.271690905E-1
3.194617526E1,3.872233331E-1,-8.093340397E-1,-1.467400640E-1
3.196645198E1,5.267728567E-1,-2.271008968E0,-6.000097394E-1
3.198672432E1,2.888196111E-1,-2.812029600E0,-4.375570416E-1
3.200699667E1,2.467416972E-1,-2.606566906E0,3.032006621E-1
3.202726885E1,4.458128214E-1,-7.811045647E-1,9.299751520E-1
3.204754104E1,1.007073641E0,7.434208393E-1,1.270726323E0
3.206781312E1,8.978840709E-1,2.762095451E0,1.605085969E0
3.208808521E1,6.604634523E-1,2.124801397E0,1.037966251E0
3.210835719E1,5.613939166E-1,-8.029424399E-2,2.914827764E-1
3.212862927E1,6.998782158E-1,-1.731586099E0,-2.127864063E-1
3.214890114E1,4.388886094E-1,-2.418547869E0,-6.920219064E-1
3.216917318E1,-1.884185076E-1,-2.700176954E0,-7.048050761E-1
3.218944505E1,-8.193209171E-1,-2.188983679E0,-6.159886718E-1
3.220984510E1,-1.234773755E0,-4.978775978E-1,-4.689823091E-1
3.222998896E1,-1.006807327E0,1.256212115E0,-2.767022252E-1
3.225026083E1,-1.087767363E0,2.068875074E0,-2.756369710E-1
3.227053281E1,-1.323590040E0,1.086302638E0,-2.601906359E-1
3.229080469E1,-7.384940386E-1,2.146506310E-1,-1.312937438E-1
3.231107661E1,8.801741153E-2,1.539305896E-1,-8.295740932E-2
3.233134849E1,4.458128214E-1,-7.976161689E-2,6.724476814E-2
3.235162042E1,4.543349445E-1,-2.906838059E-1,2.627206445E-1
3.237189229E1,3.202448785E-1,-1.894837767E-1,2.472743243E-1
3.239216422E1,2.014679909E-1,4.101264849E-2,1.886848211E-1
3.241243614E1,8.162582666E-2,5.060002208E-2,1.135837361E-1
3.243270797E1,-2.490053698E-2,2.396843210E-2,5.499423668E-2
3.245297990E1,6.671213359E-2,1.235705838E-1,-2.596580051E-2
3.247337990E1,1.993374527E-1,1.139832065E-1,-1.659148186E-1
3.249352364E1,1.940111369E-1,-2.063948289E-2,-2.378201038E-1
3.251379557E1,5.392897129E-2,-5.739107728E-2,-1.994706094E-1
3.253406745E1,-1.282311082E-1,1.241032109E-1,-1.031974182E-1
3.255433932E1,-1.287637353E-1,7.945535183E-1,3.442133069E-1
3.257461120E1,4.868254960E-1,2.176866293E0,1.164732575E0
3.259488307E1,1.947967768E0,2.063548803E0,1.805888176E0
3.261515490E1,2.538523197E0,2.503369562E-2,2.064614058E0
3.263542682E1,2.543316841E0,-3.338269889E-1,2.099767685E0
3.265569870E1,1.940644026E0,4.665854871E-1,1.961949348E0
3.267597057E1,9.506146312E-1,8.941556811E-1,1.559279680E0
3.269624245E1,3.334275186E-1,1.180578470E0,1.204679966E0
3.271651432E1,-3.289001435E-2,2.051831007E0,1.239301085E0
3.273678620E1,-2.059953511E-1,1.945304513E0,1.070456743E0
3.275705807E1,-3.645864725E-1,9.442230463E-1,5.044023395E-1
3.277732995E1,-4.343612492E-1,-5.366265774E-2,-1.717737615E-1
3.279760182E1,-4.189149141E-1,-3.530017436E-1,-6.637924314E-1
3.281787370E1,-5.004075766E-1,-3.476754129E-1,-8.954872489E-1
3.283814557E1,-5.973466039E-1,-5.520728827E-1,-1.116529465E0
3.285841745E1,-5.952160358E-1,-1.092028379E0,-1.580318570E0
3.287868927E1,-4.561991692E-1,-1.705487132E0,-2.163949966E0
3.289896114E1,-3.379548788E-1,-2.133723021E0,-2.698046446E0
3.291923297E1,-6.633929610E-1,-2.316282511E0,-2.988730192E0
3.293950490E1,-1.155944228E0,-2.272074223E0,-2.604303360E0
3.295977677E1,-1.515870214E0,-1.685779691E0,-1.453552246E0
3.298004865E1,-1.045156837E0,-7.757782340E-1,-1.904158741E-1
3.300032047E1,-4.412854612E-1,-2.331595868E-1,8.695214242E-2
3.302059234E1,-3.123885691E-1,3.632549047E-1,-2.862896025E-2
3.304086422E1,-5.323655009E-1,1.129445791E0,8.269108832E-2
3.306113609E1,-7.006771564E-1,1.373923779E0,2.989396155E-1
3.308140792E1,-2.559295893E-1,5.017392039E-1,1.705753356E-1
3.310180792E1,2.771016955E-1,-9.781783223E-1,-2.191779912E-1
3.312195167E1,6.679202914E-1,-1.345028520E0,-3.107906580E-1
3.314222354E1,1.133307338E0,-1.317864299E0,2.456764281E-1
3.316249542E1,1.520397544E0,-2.085786104E0,8.074698448E-1
3.318276724E1,1.519332290E0,-1.341300130E0,1.137035728E0
3.320303911E1,4.639223218E-1,2.445312738E0,1.319728494E0
3.322331099E1,5.315665603E-1,2.635994911E0,9.342362285E-1
3.324358281E1,5.448823571E-1,8.286419511E-1,5.597960353E-1
3.326385469E1,2.323606312E-1,-1.464338064E0,-5.725792143E-3
3.328412656E1,-1.857553422E-1,-2.547977448E0,-5.376918316E-1
3.330439838E1,-5.099949837E-1,-2.318413258E0,-5.696497560E-1
3.332479838E1,-1.073386312E0,-1.645832300E0,-5.153213143E-1
3.334510000E1,-1.566470146E0,1.363537461E-1,-4.625907242E-1
3.336537198E1,-1.395495415E0,2.146639347E0,-3.565970063E-1
3.338548651E1,-1.270460010E0,2.199236870E0,-3.406180441E-1
3.340575823E1,-1.145824194E0,5.617933869E-1,-4.024033546E-1
3.342602995E1,-5.643234253E-1,-5.813676119E-1,-3.054643571E-1
3.344628953E1,1.029310971E-1,-4.398207366E-1,-1.105211023E-2
3.346656922E1,4.271707237E-1,-4.514054582E-2,4.319643974E-1
3.348684187E1,3.408843577E-1,3.499391079E-1,6.897581816E-1
3.350711432E1,2.206427306E-1,7.178545594E-1,7.451519370E-1
3.352738667E1,2.456764281E-1,8.952209353E-1,4.330296814E-1
3.354765901E1,4.111917615E-1,4.319643974E-1,2.796316985E-3
3.356793114E1,4.665854871E-1,-5.106607676E-1,-2.378201038E-1
3.358820328E1,3.085269928E-1,-9.142625332E-1,-3.571296334E-1
3.360847526E1,1.402153224E-1,-2.651174963E-1,-2.330264151E-1
3.362874734E1,2.137185186E-1,5.953491926E-1,-2.756369673E-2
3.364901932E1,3.605917394E-1,6.821681857E-1,4.114580899E-2
3.366929130E1,5.038697124E-1,6.938861012E-1,2.872217000E-1
3.368956318E1,1.334642172E0,1.832919240E0,9.644630551E-1
3.370983505E1,2.358626842E0,1.915477157E0,1.636511326E0
3.373010698E1,2.563556910E0,4.697812796E-1,1.817606091E0
3.375037885E1,2.552904367E0,4.213117659E-1,1.874065042E0
3.377065073E1,1.619999647E0,7.567366362E-1,1.934785128E0
3.379092260E1,8.399603963E-1,7.982819676E-1,1.553420663E0
3.381119448E1,1.854890287E-1,1.460742712E0,9.448888302E-1
3.383146630E1,-1.213068962E-1,2.183790445E0,7.765771747E-1
3.385173818E1,-3.965443969E-1,1.550224900E0,7.552719116E-1
3.387201005E1,-6.394245028E-1,8.653935790E-1,3.122554123E-1
3.389228187E1,-7.490134835E-1,3.595264852E-1,-4.689823091E-1
3.391255370E1,-7.289066315E-1,-1.862879843E-1,-1.077114701E0
3.393282557E1,-6.761760712E-1,-5.021386743E-1,-1.360341668E0
3.395309740E1,-6.889592409E-1,-7.864308953E-1,-1.389636397E0
3.397336927E1,-8.331693411E-1,-1.127182126E0,-1.499358535E0
3.399364109E1,-9.775125384E-1,-1.435043335E0,-1.865143418E0
3.401391292E1,-1.081908345E0,-1.623461843E0,-2.280463219E0
3.403418474E1,-1.349156380E0,-1.712943912E0,-2.470080137E0
3.405445661E1,-1.668202877E0,-1.831188202E0,-2.089914083E0
3.407472844E1,-1.648495436E0,-1.654887080E0,-1.142095804E0
3.409500026E1,-8.443545699E-1,5.539371073E-2,-1.403484792E-1
3.411527208E1,-5.424855351E-1,1.012000442E-1,1.913479865E-1
3.413554390E1,-4.577970505E-1,-3.620564938E-1,1.274321675E-1
3.415581573E1,-2.633864284E-1,-1.318263728E-2,2.275669426E-1
3.417608755E1,-1.154479459E-1,1.264734268E0,4.372907281E-1
3.419635943E1,-5.632581562E-2,1.349955320E0,4.697812796E-1
3.421663125E1,-8.135951310E-2,-7.816372067E-2,9.813741595E-2
3.423690307E1,-2.442116886E-1,-8.924246430E-1,-4.711128473E-1
3.425717490E1,-5.259739161E-1,-5.621928573E-1,-5.733781457E-1
3.427744672E1,-3.805654347E-1,-2.049300969E-1,-2.319611609E-1
3.429771854E1,1.806953400E-1,-6.186518669E-1,4.633896947E-1
3.431799036E1,5.608612895E-1,-9.462204576E-1,1.019324183E0
3.433826219E1,6.998782158E-1,1.012000442E-1,1.286172748E0
3.435853401E1,1.236105323E0,1.886182427E0,1.309075832E0
3.437880583E1,1.585378647E0,9.633978009E-1,7.238466144E-1
3.439907766E1,1.176450491E0,-8.716519475E-1,3.623228073E-1
3.441934948E1,7.419561148E-1,-1.975531459E0,-2.596580051E-2
3.443962130E1,3.328948915E-1,-2.236920595E0,-4.050664902E-1
3.445989312E1,-1.628521830E-1,-2.182592154E0,-5.653886795E-1
3.448016495E1,-6.378266215E-1,-1.748630285E0,-7.287734747E-1
3.450043672E1,-1.203881025E0,-9.041424990E-1,-6.840324402E-1
3.452070854E1,-1.612276554E0,8.707198501E-1,-4.956139028E-1
3.454098036E1,-1.515337586E0,2.610961199E0,-4.279696643E-1
3.456125219E1,-1.425855398E0,2.202432632E0,-4.231759906E-1
3.458152401E1,-9.902957082E-1,4.245075583E-1,-3.597927988E-1
3.460179578E1,3.528685868E-2,-2.576606572E-1,-3.230412006E-1
3.462206760E1,4.218443930E-1,-2.842922211E-1,-2.985401452E-1
3.464233943E1,3.223754168E-1,-1.729721874E-1,-3.608580679E-2
3.466261125E1,2.946785688E-1,1.544632297E-2,2.035985142E-1
3.468288307E1,2.707101107E-1,-1.265000552E-2,1.673795432E-1
3.470315490E1,1.657816470E-1,-2.779006660E-1,1.173121557E-1
3.472342672E1,1.375521719E-1,-2.874880135E-1,1.743037701E-1
3.474369849E1,2.094574571E-1,-1.997369342E-3,8.641951531E-2
3.476397026E1,2.520680130E-1,8.841688186E-2,-1.063932031E-1
3.478424214E1,2.781669796E-1,-1.676458716E-1,-2.303632647E-1
3.480455328E1,2.280995846E-1,-3.492733240E-1,-2.000032514E-1
3.482494396E1,5.020054802E-2,-8.029424399E-2,-5.099949613E-2
3.484521542E1,-2.756369673E-2,8.957535625E-1,4.091944098E-1
3.486548734E1,5.507413149E-1,2.075799465E0,1.079511523E0
3.488560182E1,1.908153534E0,1.637976050E0,1.656751275E0
3.490587349E1,2.545447588E0,-1.095889956E-1,1.997102976E0
3.492614521E1,2.617352724E0,-3.924165070E-1,2.061418295E0
3.494640562E1,2.163683653E0,1.704421826E-2,1.943839788E0
3.496668469E1,1.260606408E0,8.042740822E-2,1.585911274E0
3.498695724E1,4.474107325E-1,6.657897681E-2,1.212136865E0
3.500722958E1,-3.294327855E-1,1.392033219E0,1.165797949E0
3.502750193E1,-7.926893234E-1,2.230129480E0,1.104545236E0
3.504777417E1,-1.136769414E0,1.637443423E0,6.391581893E-1
3.506804620E1,-1.261937976E0,4.628570378E-1,-1.531316526E-2
3.508831828E1,-8.523440957E-1,-4.366249442E-1,-4.945486486E-1
3.510859026E1,-4.375570416E-1,-8.519446254E-1,-8.230493069E-1
3.512886219E1,-3.193127811E-1,-1.187369466E0,-1.119725227E0
3.514913417E1,-3.800328076E-1,-1.720933437E0,-1.527588010E0
3.516940609E1,-4.061317742E-1,-2.342381477E0,-2.041977167E0
3.518967792E1,-2.905506492E-1,-2.730536938E0,-2.570214748E0
3.520994974E1,-4.050664902E-1,-2.811496973E0,-2.937597752E0
3.523022161E1,-9.162598848E-1,-2.300836325E0,-2.724145412E0
3.525049349E1,-1.048352599E0,-1.004277349E0,-1.539305925E0
3.527076531E1,-6.490118504E-1,-1.143693686E0,-6.910897791E-2
3.529103714E1,-2.500706315E-1,-1.711878657E0,2.680469751E-1
3.531130901E1,-1.265000552E-2,-1.151150465E0,1.077247858E-1
3.533158078E1,-2.708432674E-1,8.350335360E-1,2.259690464E-1
3.535185260E1,-8.885630369E-1,2.978876591E0,5.763076544E-1
3.537212437E1,-5.824328661E-1,1.635845423E0,5.486107469E-1
3.539239625E1,1.727058738E-1,-1.581516981E0,-4.407528415E-2
3.541266802E1,3.467433155E-1,-3.331212521E0,-5.036033988E-1
3.543293984E1,1.295626909E-1,-3.530949593E0,-2.383527346E-2
3.545321161E1,3.616569936E-1,-1.624527097E0,8.064045906E-1
3.547361161E1,1.001747251E0,-9.321057005E-4,9.831051826E-1
3.549375521E1,1.161004186E0,9.639304280E-1,1.001747251E0
3.551402693E1,4.327633604E-2,1.979925632E0,8.026761413E-1
3.553429880E1,-2.484727502E-1,1.588574409E0,3.607248962E-1
3.555457057E1,-6.697845459E-2,1.944106072E-1,-7.709845901E-2
3.557496120E1,1.141163707E-1,-1.340767503E0,-4.636560082E-1
3.559511495E1,-2.580601275E-1,-2.234257221E0,-8.598009348E-1
3.561551495E1,-6.287718415E-1,-1.765674472E0,-8.129293323E-1
3.563581614E1,-8.134619594E-1,1.528653353E-1,-6.271739602E-1
3.565593062E1,-6.777740121E-1,9.671262503E-1,-2.889527678E-1
3.567620219E1,-8.198535442E-1,1.496695429E-1,-2.431464195E-1
3.569647375E1,-1.008405209E0,-6.729803085E-1,-2.079927325E-1
3.571674547E1,-7.548724413E-1,-2.049300969E-1,8.482161909E-2
3.573701714E1,-1.958753467E-1,5.235770941E-1,3.282343447E-1
3.575728880E1,2.456764281E-1,2.482064217E-1,3.111901283E-1
3.577756047E1,4.804339111E-1,-3.396859467E-1,1.721732318E-1
3.579783219E1,6.423539519E-1,-6.836329699E-1,-1.464737463E-3
3.581810396E1,5.949497223E-1,-7.352982163E-1,-7.603318989E-2
3.583837573E1,3.079943359E-1,-5.648560524E-1,-1.031974182E-1
3.585864745E1,-1.997369342E-3,-3.785680532E-1,-1.355548054E-1
3.587891922E1,-1.479384899E-1,-2.134522051E-1,-2.058621943E-1
3.589919099E1,-4.567318037E-2,-1.255679578E-1,-2.047969401E-1
3.591946271E1,1.593900770E-1,-4.579302073E-1,-1.834916621E-1
3.593973448E1,1.886848211E-1,-6.639255881E-1,-9.680583328E-2
3.596000625E1,3.250385821E-1,-1.245026886E-1,2.456764281E-1
3.598027802E1,8.127961755E-1,6.592650414E-1,7.824361324E-1
3.600054979E1,1.725460768E0,5.198486447E-1,1.163134694E0
3.602082156E1,2.277134180E0,-1.948100924E-1,1.440103292E0
3.604109333E1,2.392715216E0,-2.864227593E-1,1.616803885E0
3.606136510E1,2.002296209E0,-4.158523083E-1,1.641304970E0
3.608163687E1,1.423991203E0,-9.920267463E-1,1.211604238E0
3.610190864E1,8.080024719E-1,-1.324788451E0,7.483476996E-1
3.612218042E1,9.387636185E-2,-2.890859246E-1,6.466150284E-1
3.614245219E1,-5.605949759E-1,1.177382588E0,6.668550372E-1
3.616272396E1,-1.412006974E0,2.200302124E0,6.359623671E-1
3.618299573E1,-1.752891302E0,1.706152916E0,6.157223582E-1
3.620326750E1,-7.969503403E-1,1.661811322E-1,5.534044504E-1
3.622353927E1,6.458161026E-2,-1.419596910E0,2.073269337E-1
3.624381104E1,2.078595608E-1,-1.977129340E0,-2.516685426E-1
3.626408276E1,1.428784877E-1,-2.070872545E0,-5.808349848E-1
3.628435453E1,1.647163928E-1,-2.171939373E0,-7.463503480E-1
3.630462630E1,1.679121852E-1,-2.272074223E0,-8.544746041E-1
3.632489807E1,2.516685426E-2,-2.318945885E0,-9.897630811E-1
3.634516984E1,-1.740374416E-1,-2.219876289E0,-1.194160581E0
3.636556984E1,-3.848264813E-1,-1.975531459E0,-1.425855398E0
3.638571338E1,-6.186518669E-1,-2.097504139E0,-1.492434382E0
3.640598516E1,-5.004075766E-1,-2.787528515E0,-1.378983736E0
3.642625687E1,-1.058605760E-1,-3.134271860E0,-1.308143735E0
3.644652864E1,9.600688517E-2,-2.266747952E0,-1.034504175E0
3.646680042E1,-3.928159550E-2,-5.314334035E-1,-3.209106624E-1
3.648707219E1,-1.537974328E-1,1.555284858E-1,1.412805915E-1
3.650734396E1,-4.141212255E-2,2.338253707E-1,3.910849094E-1
3.652761573E1,2.355564237E-1,3.760380745E-1,5.890907645E-1
3.654788745E1,4.181159735E-1,-1.335574239E-1,4.612591565E-1
3.656815922E1,3.122554123E-1,-1.226784229E0,6.617950648E-2
3.658843099E1,7.257108390E-2,-1.980325103E0,-1.111868918E-1
3.660870276E1,-9.840372950E-2,-1.861548185E0,2.067943066E-1
3.662897448E1,-1.910816729E-1,-9.286435843E-1,8.420909047E-1
3.664924625E1,-1.202416345E-1,1.757685095E-2,1.203082085E0
3.666964625E1,2.472743243E-1,2.833601236E-1,9.022783041E-1
3.668978974E1,7.073350549E-1,1.113200486E-1,5.278381109E-1
3.671006151E1,1.049684167E0,-1.308942735E-1,4.065312445E-1
3.673033328E1,2.584595978E-1,-1.297091603E0,4.724444151E-1
3.675060500E1,-3.310306668E-1,-1.787512422E0,3.516701460E-1
3.677100500E1,-4.194475710E-1,-1.450489640E0,7.523424178E-2
3.679114849E1,-4.663191736E-1,-9.249151349E-1,-2.468748540E-1
3.681142026E1,-4.961465299E-1,-3.455449045E-1,-4.737760127E-1
3.683169203E1,-6.772413850E-1,-2.198437899E-1,-7.340998054E-1
3.685196375E1,-1.092028379E0,-6.090644598E-1,-9.785777926E-1
3.687236375E1,-1.524392247E0,-1.253948450E0,-8.997483253E-1
3.689250729E1,-1.569133401E0,-1.609613419E0,-8.086682558E-1
3.691277901E1,-1.563807011E0,-1.382312775E0,-9.242493510E-1
3.693305078E1,-1.494564891E0,-1.042626798E-1,-9.610009789E-1
3.695332250E1,-7.964177132E-1,1.425589085E0,-5.163865685E-1
3.697359427E1,-1.245026886E-1,1.154479504E0,-1.648495495E-1
3.699386599E1,2.046637833E-1,-6.559360623E-1,-3.150517344E-1
3.701413776E1,5.454149842E-1,-2.118809462E0,-3.560643792E-1
3.703440948E1,6.327666044E-1,-2.649177551E0,-2.974748611E-1
3.705468120E1,3.845601678E-1,-2.552238464E0,-2.644517124E-1
3.707495297E1,2.611227632E-1,-2.183124781E0,-1.824263930E-1
3.709522469E1,2.552638054E-1,-1.810415506E0,-3.595264861E-3
3.711549646E1,1.455416381E-1,-1.402552724E0,1.998700947E-1
3.713576818E1,-3.661843762E-2,-9.867004752E-1,4.102596641E-1
3.715603990E1,-1.165132076E-1,-5.803023577E-1,4.862928391E-1
3.717631167E1,-1.105211023E-2,-1.506016403E-1,3.825628161E-1
3.719658339E1,1.748363972E-1,1.528653353E-1,2.611227632E-1
3.721685510E1,3.414169848E-1,3.073285520E-1,1.897500902E-1
3.723712687E1,1.769669205E-1,3.685812056E-1,1.664474420E-2
3.725739859E1,-4.127896391E-3,2.588590682E-1,9.334372729E-2
3.727767031E1,4.894886315E-1,4.665854871E-1,4.793686271E-1
3.729794208E1,1.344762206E0,1.521462798E0,6.556697488E-1
3.731821380E1,2.115746737E0,1.757285476E0,8.335688114E-1
3.733848552E1,2.382595301E0,4.926844239E-1,8.213182688E-1
3.735875724E1,2.242513180E0,-1.548493862E0,5.363602638E-1
3.737902901E1,1.806420803E0,-3.223620892E0,2.760364413E-1
3.739930073E1,1.143427372E0,-3.926029205E0,3.085269928E-1
3.741957245E1,5.262402296E-1,-3.314168453E0,5.203812718E-1
3.743984417E1,1.514005959E-1,-1.684714437E0,6.253097653E-1
3.746011588E1,-3.595264861E-3,1.917474531E-2,6.801708341E-1
3.748038760E1,-6.484792382E-2,1.233841658E0,6.945518851E-1
3.750065937E1,-3.917506933E-1,1.612542868E0,7.211834788E-1
3.752093109E1,-9.072051644E-1,7.226482034E-1,6.934866309E-1
3.754120281E1,-6.703171730E-1,-4.904207587E-1,6.157223582E-1
3.756147453E1,2.866890728E-1,-1.552754879E0,5.193160176E-1
3.758174625E1,8.925577998E-1,-2.531465769E0,3.527354300E-1
3.760201797E1,9.559409618E-1,-2.889793873E0,1.918806136E-1
3.762228969E1,7.669898272E-1,-2.716156006E0,1.034637317E-1
3.764256140E1,4.841623306E-1,-2.099102020E0,8.908267319E-2
3.766283312E1,1.482048035E-1,-1.312005281E0,1.178447902E-1
3.768310484E1,-4.780370742E-2,-8.865656853E-1,7.470161468E-2
3.770337656E1,-3.928159550E-2,-7.981488109E-1,-5.898897350E-2
3.772364828E1,1.620532274E-1,-9.755151868E-1,-1.856221855E-1
3.774392000E1,2.925480306E-1,-1.384443283E0,-1.925463974E-1
3.776419172E1,2.185122073E-1,-1.720400810E0,-1.042626798E-1
3.778446344E1,2.371543199E-1,-1.717205048E0,-4.127896391E-3
3.780473516E1,3.611243665E-1,-1.482980132E0,1.508679688E-1
3.782513516E1,3.936149180E-1,-1.427586436E0,3.458112180E-1
3.784527859E1,2.984069884E-1,-1.500024319E0,4.548675716E-1
3.786555031E1,1.519332230E-1,-1.381247520E0,4.777707458E-1
3.788582203E1,-1.105211023E-2,-1.004809976E0,4.527370334E-1
3.790609375E1,-3.118559420E-1,-6.484792233E-1,4.038680792E-1
3.792636547E1,-7.363634706E-1,-5.664539337E-1,4.452801943E-1
3.794663719E1,-7.123950720E-1,1.001347825E-1,6.141244769E-1
3.796690885E1,2.632532716E-1,1.132641554E0,7.286403179E-1
3.798718057E1,4.303665161E-1,-1.543300748E-1,2.685796022E-1
3.800745229E1,4.016043842E-1,-9.286435843E-1,-4.348938763E-1
3.802772401E1,3.261038363E-1,-1.934518814E0,-6.367613673E-1
3.804799573E1,2.057290375E-1,-2.811496973E0,-4.950812757E-1
3.806826745E1,4.221107066E-2,-2.994189739E0,-4.205128253E-1
3.808853917E1,-2.159821987E-1,-2.644383907E0,-4.407528341E-1
3.810881083E1,-5.041360259E-1,-1.988847256E0,-2.969422340E-1
3.812908255E1,-9.865673184E-1,-1.062334180E0,-1.238368973E-1
3.814935427E1,-1.382179618E0,1.976063997E-1,-1.111868918E-1
3.816975427E1,-1.208142161E0,1.124652147E0,-2.697780132E-1
3.818989771E1,-9.668599367E-1,1.227450013E0,-5.110602379E-1
3.821016937E1,-9.700556993E-1,4.532696903E-1,-6.053360701E-1
3.823044109E1,-7.612640262E-1,-6.159886718E-1,-5.323655009E-1
3.825071281E1,-3.166496158E-1,-1.258209467E0,-4.386222959E-1
3.827111281E1,-5.046686530E-2,-1.248089552E0,-3.438138366E-1
3.829125625E1,2.942790836E-2,-1.001081467E0,-2.245043069E-1
3.831152792E1,-2.916159295E-2,-7.257108688E-1,-1.259674281E-1
3.833179964E1,-1.484711170E-1,-5.058670640E-1,-1.047953144E-1
3.835207135E1,-2.319611609E-1,-4.680502117E-1,-1.000016257E-1
3.837247135E1,-2.793653905E-1,-5.659213066E-1,-1.159805804E-1
3.839261474E1,-3.091927767E-1,-7.145255804E-1,-1.195758432E-1
3.841288646E1,-3.954791129E-1,-8.221172094E-1,-6.431528926E-2
3.843315818E1,-4.849612713E-1,-7.747129798E-1,1.824264042E-2
3.845342984E1,-4.237086177E-1,-5.424855351E-1,6.298371404E-2
3.847382984E1,-1.884185076E-1,-2.203764170E-1,3.368896246E-2
3.849397323E1,3.848264739E-2,-4.354264960E-2,6.831002980E-2
3.851424495E1,3.010701239E-1,-2.571280003E-1,2.488722205E-1
3.853451667E1,6.578003168E-1,-7.688540220E-1,4.245075583E-1
3.855478833E1,9.330378175E-1,-1.097354650E0,5.107939243E-1
3.857506005E1,7.755119205E-1,-7.683213949E-1,6.471476555E-1
3.859533177E1,6.961497664E-1,5.522060394E-1,1.079511523E0
3.861560344E1,1.138101101E0,3.379815102E0,1.659414411E0
3.863587516E1,1.719069242E0,6.035384178E0,2.254763603E0
3.865614677E1,1.189233661E0,3.845734835E0,2.336788893E0
3.867654677E1,1.335174799E0,-5.888244510E-1,1.727591276E0
3.869669026E1,2.079527855E0,-3.443065166E0,8.016108871E-1
3.871696193E1,1.951163530E0,-4.404199600E0,2.749711871E-1
3.873723364E1,1.108273625E0,-3.686477900E0,4.261054695E-1
3.875763365E1,2.195774615E-1,-1.715074420E0,6.514087319E-1
3.877777703E1,-4.151864946E-1,4.053328037E-1,6.993455887E-1
3.879804870E1,-7.038729787E-1,1.304149032E0,6.753771305E-1
3.881832042E1,-6.079992056E-1,6.880271435E-1,5.965476632E-1
3.883859214E1,-1.719069183E-1,-7.677887678E-1,3.111901283E-1
3.885886380E1,1.290300637E-1,-1.872200847E0,-1.483379602E-1
3.887913552E1,9.813741595E-2,-1.948899865E0,-4.205128253E-1
3.889940719E1,6.245107949E-2,-1.571929693E0,-4.945486486E-1
3.891967891E1,7.470161468E-2,-1.337571621E0,-5.424855351E-1
3.893995057E1,-3.768370301E-2,-1.408944368E0,-5.787044764E-1
3.896022229E1,-3.427485824E-1,-1.595365405E0,-4.902876019E-1
3.898049396E1,-4.114580750E-1,-1.184173703E0,-3.470096290E-1
3.900076568E1,-2.138516754E-1,-7.560708523E-1,-1.488705873E-1
3.902103734E1,-1.585911214E-1,-7.843003273E-1,1.274321675E-1
3.904130906E1,-9.467530251E-2,-7.736477256E-1,2.217079997E-1
3.906158073E1,5.126581341E-2,-8.492814302E-1,2.589922249E-1
3.908185245E1,-1.181111038E-1,-9.611341357E-1,6.221139431E-1
3.910212411E1,-5.984118581E-1,-8.705866933E-1,1.199353695E0
3.912239583E1,-7.458177209E-1,-7.145255804E-1,1.060336828E0
3.914266750E1,-2.969422340E-1,-1.548627019E-1,2.115879953E-1
3.916293917E1,4.207791388E-1,-5.675191879E-1,-3.331612051E-1
3.918321088E1,5.129244328E-1,-1.700693369E0,-2.426137924E-1
3.920348255E1,2.275669426E-1,-2.076731443E0,-3.107906580E-1
3.922375427E1,1.503353268E-1,-1.460076928E0,-5.424855351E-1
3.924402594E1,4.008054361E-2,-6.708498001E-1,-5.286371112E-1
3.926429760E1,-3.470096290E-1,-2.107890397E-1,-4.242412448E-1
3.928456932E1,-8.438219428E-1,-3.994738800E-4,-4.913528562E-1
3.930484099E1,-8.933567405E-1,7.030740380E-2,-3.049317300E-1
3.932511271E1,-6.511424184E-1,1.358211190E-1,-1.095889956E-1
3.934538437E1,-4.849612713E-1,-7.443529367E-2,-1.957421936E-2
3.936565604E1,-3.683148921E-1,-4.004059732E-1,1.711079776E-1
3.938592776E1,-1.575258672E-1,-3.641870022E-1,3.303648829E-1
3.940619943E1,2.569948509E-2,-1.543300748E-1,4.388886094E-1
3.942647109E1,-3.595264861E-3,-6.644582003E-2,5.028044581E-1
3.944674281E1,-1.447426975E-1,7.350318879E-2,5.502086878E-1
3.946701448E1,-1.585911214E-1,3.723096550E-1,5.688507557E-1
3.948728609E1,-8.775109053E-2,6.214481592E-1,5.550023317E-1
3.950755786E1,-5.366265774E-2,6.512755752E-1,4.958802164E-1
3.952782953E1,7.736477256E-2,7.125282288E-1,2.733732760E-1
3.954810120E1,2.265016884E-1,6.486123800E-1,8.695214242E-2
3.956837292E1,1.258342713E-1,3.131875098E-1,2.090579830E-2
3.958864458E1,-8.388951421E-3,3.089264631E-1,7.896266878E-2
3.960891625E1,-8.508793265E-2,6.576671600E-1,1.316932142E-1
3.962918797E1,-4.301001877E-2,8.888293505E-1,1.237037405E-1
3.964945964E1,2.083922029E-1,7.428882122E-1,2.889527567E-2
3.966985964E1,4.910865426E-1,4.708465338E-1,-1.360874325E-1
3.969000302E1,5.368928909E-1,3.281011879E-1,-1.531316489E-1
3.971027469E1,3.589938581E-1,4.761728346E-1,-3.768370301E-2
3.973054635E1,1.620532274E-1,7.913577557E-1,1.913479865E-1
3.975081807E1,2.707101107E-1,1.105477333E0,5.352949500E-1
3.977121807E1,9.735178351E-1,1.257809997E0,8.559393287E-1
3.979136140E1,1.847966075E0,6.917555928E-1,1.008138895E0
3.981163312E1,1.924132466E0,3.206443489E-1,9.305077791E-1
3.983190479E1,1.359143257E0,7.167892456E-1,8.980172276E-1
3.985217646E1,7.297055721E-1,1.459144831E0,7.728487849E-1
3.987257646E1,2.579269707E-1,1.967142463E0,5.225118399E-1
3.989271984E1,-2.436790615E-2,1.690173984E0,3.708449006E-1
3.991299151E1,-1.862879843E-1,1.239167929E0,2.733732760E-1
3.993326318E1,-9.574057162E-2,1.186437368E0,2.813627720E-1
3.995353490E1,1.386174262E-1,8.856335878E-1,2.723080218E-1
3.997380656E1,1.695100814E-1,3.552654386E-1,7.576687634E-2
3.999407823E1,4.434159771E-2,7.137266546E-2,-1.328916401E-1
4.001434990E1,-6.111950055E-2,3.089264594E-2,-2.884201407E-1
4.003462156E1,-1.820269227E-1,5.166528746E-2,-4.599275887E-1
4.005489328E1,-3.214432895E-1,-7.922898233E-2,-6.755102873E-1
4.007508635E1,-3.981422782E-1,-3.657849133E-1,-9.226514697E-1
4.009543651E1,-3.368896246E-1,-7.171887755E-1,-1.182575822E0
4.011570818E1,-1.676458716E-1,-1.138367414E0,-1.393897533E0
4.013597984E1,-1.213068962E-1,-1.660213351E0,-1.547828078E0
4.015625161E1,-4.482096732E-1,-1.896169305E0,-1.717205048E0
4.017652328E1,-1.095756769E0,-1.405215859E0,-1.777259231E0
4.019679495E1,-1.483912230E0,-1.224653721E0,-1.329449058E0
4.021706661E1,-1.437040687E0,-1.542634964E0,-6.458160877E-1
4.023733828E1,-1.174053669E0,-7.640603185E-1,-3.651190996E-1
4.025761000E1,-1.007339954E0,7.673892975E-1,-2.692453861E-1
4.027788172E1,-8.757798672E-1,1.051814675E0,1.344895363E-2
4.029815338E1,-4.135886133E-1,1.320926845E-1,3.500722647E-1
4.031842500E1,2.717753947E-1,-1.251817942E0,2.595248520E-1
4.033869672E1,5.992107987E-1,-2.188451052E0,-6.005423889E-2
4.035896839E1,4.836297035E-1,-2.135853529E0,-1.536642760E-1
4.037924010E1,1.759016514E-1,-1.297624230E0,-1.254348010E-1
4.039951172E1,-2.170474641E-2,-6.964160800E-1,-1.265000552E-1
4.041978344E1,-8.508793265E-2,-5.637907982E-1,7.057371549E-3
4.044005510E1,3.861580743E-3,-5.664539337E-1,3.793670237E-1
4.046032677E1,1.109205782E-1,-1.282311082E-1,8.623309135E-1
4.048059844E1,5.060002208E-1,1.171789970E-2,1.279248476E0
4.050087010E1,1.059271574E0,-9.174582958E-1,1.262736917E0
4.052114177E1,8.234487772E-1,-1.837579727E0,1.345827460E0
4.054141344E1,6.183855534E-1,-1.264068484E0,9.416930676E-1
4.056168510E1,4.948149621E-1,-4.376901984E-1,4.538023174E-1
4.058195677E1,8.074698448E-1,-4.328965247E-1,5.970802903E-1
4.060222844E1,6.066676378E-1,-6.197171211E-1,2.541985512E-1
4.062250010E1,-2.649843395E-1,-9.030772448E-1,-4.247738719E-1
4.064277177E1,-7.411571741E-1,-9.398288727E-1,-7.325019240E-1
4.066304344E1,-8.731167316E-1,-8.146603703E-1,-8.267777562E-1
4.068331510E1,-1.059005260E0,-7.193192840E-1,-9.892304540E-1
4.070358677E1,-1.758750319E0,-6.841655970E-1,-1.150085211E0
4.072385844E1,-1.965278268E0,8.025429845E-1,-7.761777043E-1
4.074413010E1,-1.047287345E0,3.179146290E0,-1.957421936E-2
4.076440177E1,-4.950812757E-1,2.364352703E0,3.351585865E-1
4.078467344E1,-1.671132296E-1,2.657832801E-1,3.308975101E-1
