"Time (s)","Acceleration x (m/s^2)","Acceleration y (m/s^2)","Acceleration z (m/s^2)"
3.538390700E-2,-1.096110463E0,1.620626330E0,9.609500885E0
5.565432400E-2,-1.097446918E0,1.608540058E0,9.611377716E0
7.576734400E-2,-1.148672223E0,1.621358752E0,9.603235245E0
9.603760500E-2,-1.188505173E0,1.623087525E0,9.598094940E0
1.164376050E-1,-1.175815821E0,1.615187526E0,9.600990295E0
1.365782300E-1,-1.121740341E0,1.608752131E0,9.608537674E0
1.568484900E-1,-1.063863277E0,1.596829057E0,9.617106438E0
1.771188030E-1,-1.035124898E0,1.565950751E0,9.625315666E0
1.973891150E-1,-1.013704777E0,1.526787639E0,9.633883476E0
2.177891150E-1,-9.860910773E-1,1.493844032E0,9.641911507E0
2.379298960E-1,-9.510694146E-1,1.469305515E0,9.649196625E0
2.582002090E-1,-9.019595385E-1,1.441817045E0,9.658054352E0
2.784705740E-1,-8.338040113E-1,1.410687089E0,9.668770790E0
2.987409380E-1,-7.479392290E-1,1.381421328E0,9.680012703E0
3.190113550E-1,-6.416763067E-1,1.342247128E0,9.693142891E0
3.392817190E-1,-5.354828835E-1,1.273917317E0,9.708799362E0
3.595520840E-1,-4.374581575E-1,1.179535270E0,9.725621223E0
3.798224490E-1,-3.160850704E-1,1.070026755E0,9.742972374E0
4.000928650E-1,-1.409719735E-1,9.521213174E-1,9.759301186E0
4.203632820E-1,8.737031370E-2,8.308528662E-1,9.770998955E0
4.406335940E-1,3.327836394E-1,7.494038343E-1,9.772310257E0
4.609040110E-1,6.022557616E-1,9.080557823E-1,9.745926857E0
4.811743760E-1,5.958712101E-1,1.088611722E0,9.727807999E0
5.014447920E-1,6.847035289E-1,1.062507391E0,9.724847794E0
5.217151570E-1,7.383153439E-1,9.620295167E-1,9.731381416E0
5.419855740E-1,7.165313959E-1,9.460185766E-1,9.734579086E0
5.622559380E-1,7.100522518E-1,8.964025378E-1,9.739747047E0
5.825263030E-1,7.909556627E-1,7.737538218E-1,9.744028091E0
6.027967190E-1,9.947808385E-1,6.235724688E-1,9.736115456E0
6.230670840E-1,1.257185102E0,4.838742912E-1,9.713688850E0
6.433374490E-1,1.503213882E0,3.735364377E-1,9.683553696E0
6.636078650E-1,1.653822660E0,3.293074369E-1,9.660580635E0
6.838782300E-1,1.789529562E0,2.961398065E-1,9.637441635E0
7.041485940E-1,1.994848847E0,2.295669913E-1,9.598868370E0
7.244189590E-1,2.331246614E0,1.573480964E-1,9.524227142E0
7.446893760E-1,2.629638433E0,9.527017176E-2,9.447026253E0
7.649597400E-1,2.834808826E0,8.183874935E-2,9.387627602E0
7.852301050E-1,2.990508318E0,1.293751299E-1,9.338656425E0
8.055004690E-1,3.088411093E0,2.370008826E-1,9.304619789E0
8.257708340E-1,3.191676140E0,3.889392912E-1,9.264573097E0
8.460411990E-1,3.265503407E0,5.618968606E-1,9.229904175E0
8.663115630E-1,3.405059814E0,7.030776739E-1,9.169604301E0
8.865819280E-1,3.451734066E0,7.948452830E-1,9.144623756E0
9.068522920E-1,3.466201067E0,8.823758364E-1,9.131114006E0
9.271226570E-1,3.623093843E0,1.012555599E0,9.056395531E0
9.473930210E-1,3.858820438E0,1.160264015E0,8.940563202E0
9.676633860E-1,4.005995274E0,1.295877218E0,8.856810570E0
9.879337510E-1,4.059873581E0,1.422055125E0,8.812808037E0
1.008204115E0,3.992766380E0,1.532434702E0,8.824955940E0
1.028474428E0,3.951687574E0,1.672922611E0,8.817928314E0
1.048744740E0,3.887330532E0,1.845375657E0,8.812129974E0
1.069015157E0,3.767972946E0,1.996682644E0,8.830969810E0
1.089285521E0,3.628992796E0,2.074317217E0,8.871190071E0
1.109555834E0,3.467370987E0,2.072094917E0,8.936114311E0
1.129826199E0,3.229960442E0,2.067847490E0,9.025615692E0
1.150096563E0,3.116215467E0,2.055691481E0,9.068281174E0
1.170366876E0,3.188322306E0,1.947545290E0,9.067087173E0
1.190637240E0,3.324192762E0,1.659272432E0,9.075623512E0
1.210907605E0,3.326128483E0,1.289581656E0,9.134781837E0
1.231177917E0,3.224508286E0,9.674528837E-1,9.210699081E0
1.251448282E0,3.202664137E0,7.538990974E-1,9.238233566E0
1.271718594E0,3.443952560E0,6.660819650E-1,9.157834053E0
1.291988959E0,3.926669359E0,6.406316757E-1,8.963327408E0
1.312259271E0,4.471142292E0,6.265042424E-1,8.705559731E0
1.332529636E0,4.914623737E0,5.535769463E-1,8.468201637E0
1.352800001E0,5.127743244E0,4.164683819E-1,8.348843575E0
1.373070313E0,5.236590862E0,2.219788283E-1,8.288498878E0
1.393340626E0,5.377534389E0,1.936392486E-2,8.200740814E0
1.413610938E0,5.503335953E0,-1.723864675E-1,8.115045547E0
1.433881303E0,5.593166828E0,-3.780309260E-1,8.046363831E0
1.454151615E0,5.684830666E0,-5.869935155E-1,7.969223022E0
1.474421928E0,5.795045376E0,-7.669393420E-1,7.873984814E0
1.494692292E0,5.903908730E0,-9.186634421E-1,7.776266098E0
1.515092292E0,5.992463112E0,-1.049829721E0,7.691464424E0
1.535232917E0,6.092299461E0,-1.159471989E0,7.596703053E0
1.555503230E0,6.220053196E0,-1.246909976E0,7.478404522E0
1.575773542E0,6.353310108E0,-1.312346935E0,7.354154110E0
1.596043855E0,6.478733063E0,-1.368079185E0,7.233586788E0
1.616443855E0,6.615524769E0,-1.425643682E0,7.097376347E0
1.636584532E0,6.827441216E0,-1.471705437E0,6.884076118E0
1.656854844E0,7.131261349E0,-1.511571646E0,6.559774876E0
1.677125157E0,7.499236107E0,-1.586745858E0,6.116705418E0
1.697395469E0,7.848264217E0,-1.712838054E0,5.625061512E0
1.717795469E0,8.152055740E0,-1.859047532E0,5.124287128E0
1.737936094E0,8.420133591E0,-1.961147904E0,4.628785610E0
1.758206407E0,8.635322571E0,-2.016898632E0,4.187326431E0
1.778476719E0,8.770098686E0,-2.051432848E0,3.879095554E0
1.798747032E0,8.875615120E0,-2.069946766E0,3.620657921E0
1.819147032E0,8.982449532E0,-2.053695202E0,3.356831074E0
1.839287657E0,9.073809624E0,-2.015280724E0,3.126501560E0
1.859557969E0,9.147283554E0,-1.989382744E0,2.922321558E0
1.879828282E0,9.217534065E0,-1.982887864E0,2.697333574E0
1.900098594E0,9.290414810E0,-1.997556925E0,2.422461987E0
1.920498594E0,9.353240013E0,-2.028168440E0,2.138645172E0
1.940639167E0,9.397073746E0,-2.056713343E0,1.906651497E0
1.960909480E0,9.443433762E0,-2.088166952E0,1.622187376E0
1.981179792E0,9.480937004E0,-2.135012627E0,1.312991023E0
2.001450105E0,9.491844177E0,-2.177123070E0,1.155597210E0
2.021720365E0,9.498932838E0,-2.192715645E0,1.064272046E0
2.041990678E0,9.515245438E0,-2.187514067E0,9.193869829E-1
2.062260990E0,9.537640572E0,-2.171710968E0,6.981925964E-1
2.082531303E0,9.552137375E0,-2.172189713E0,4.567766488E-1
2.102801563E0,9.557917595E0,-2.181102037E0,2.437062860E-1
2.123071876E0,9.564606667E0,-2.164361954E0,6.494915485E-2
2.143342188E0,9.571711540E0,-2.133079767E0,-5.189411342E-2
2.163612449E0,9.573216438E0,-2.120258570E0,-1.685989797E-1
2.183882761E0,9.567458153E0,-2.134928226E0,-2.760741413E-1
2.204153021E0,9.558464050E0,-2.159631729E0,-3.770312071E-1
2.224423334E0,9.545809746E0,-2.192595243E0,-4.903417528E-1
2.244693594E0,9.526303291E0,-2.256891489E0,-5.712993741E-1
2.264963959E0,9.506896019E0,-2.335395575E0,-5.790159106E-1
2.285234219E0,9.496058464E0,-2.355814934E0,-6.673654914E-1
2.305504480E0,9.492294312E0,-2.321454763E0,-8.231512904E-1
2.325774844E0,9.492643356E0,-2.266962290E0,-9.596781731E-1
2.346045105E0,9.494259834E0,-2.206958532E0,-1.076454878E0
2.366315417E0,9.499030113E0,-2.168001413E0,-1.112917304E0
2.386585730E0,9.503382683E0,-2.153176069E0,-1.104505420E0
2.406856042E0,9.491060257E0,-2.175805807E0,-1.164481640E0
2.427126303E0,9.472191811E0,-2.213074684E0,-1.245098352E0
2.447396563E0,9.461022377E0,-2.235626221E0,-1.288964748E0
2.467666928E0,9.458075523E0,-2.258687019E0,-1.270248771E0
2.487937240E0,9.455113411E0,-2.286052227E0,-1.243052959E0
2.508207553E0,9.452960968E0,-2.315321922E0,-1.204656601E0
2.528477865E0,9.446136475E0,-2.348417044E0,-1.194079638E0
2.548748178E0,9.427119255E0,-2.401618719E0,-1.237757087E0
2.569018490E0,9.386875153E0,-2.509133101E0,-1.327108383E0
2.589288751E0,9.320600510E0,-2.705265522E0,-1.406529427E0
2.609559115E0,9.225277901E0,-2.976337433E0,-1.485276580E0
2.629829428E0,9.093856812E0,-3.292080879E0,-1.623071909E0
2.650099740E0,8.927170753E0,-3.692030430E0,-1.686690927E0
2.670370053E0,8.728248596E0,-4.073200703E0,-1.843121171E0
2.690640365E0,8.510234833E0,-4.482223034E0,-1.912054896E0
2.710910678E0,8.248241425E0,-4.980051517E0,-1.826465845E0
2.731180990E0,7.894603729E0,-5.535384655E0,-1.790287614E0
2.751451303E0,7.463864803E0,-6.113757133E0,-1.755870938E0
2.771721615E0,6.969779491E0,-6.665241241E0,-1.779638648E0
2.791991980E0,6.464190960E0,-7.132279873E0,-1.874888301E0
2.812262344E0,5.991548538E0,-7.532439709E0,-1.879918456E0
2.832532657E0,5.602642059E0,-7.845231533E0,-1.798092604E0
2.852803021E0,5.256445408E0,-8.088879585E0,-1.763581872E0
2.873073334E0,4.957326889E0,-8.244874001E0,-1.901933193E0
2.893343646E0,4.879929066E0,-8.282881737E0,-1.936631560E0
2.913614011E0,4.884675503E0,-8.277979851E0,-1.945608497E0
2.933884324E0,4.777063847E0,-8.310679436E0,-2.069463730E0
2.954154688E0,4.599626064E0,-8.377350807E0,-2.198594093E0
2.974425053E0,4.424715996E0,-8.466379166E0,-2.216459513E0
2.994695365E0,4.191168308E0,-8.594862938E0,-2.175507784E0
3.015095365E0,3.862171173E0,-8.746993065E0,-2.178103447E0
3.035236042E0,3.559328794E0,-8.872308731E0,-2.187167645E0
3.055506407E0,3.382894278E0,-8.947056770E0,-2.162542105E0
3.075776771E0,3.363378525E0,-8.954226494E0,-2.163308859E0
3.096047136E0,3.360733747E0,-8.952853203E0,-2.173081398E0
3.116447136E0,3.336913347E0,-8.961102486E0,-2.175783873E0
3.136587813E0,3.260576487E0,-8.988551140E0,-2.178297758E0
3.156858178E0,3.108759165E0,-9.041854858E0,-2.179649353E0
3.177128542E0,2.842997313E0,-9.123918533E0,-2.200425625E0
3.197398907E0,2.380923986E0,-9.232336044E0,-2.294678688E0
3.217798907E0,1.806690812E0,-9.337478638E0,-2.391182184E0
3.237939636E0,1.171462655E0,-9.420277596E0,-2.460980892E0
3.258209949E0,5.777678490E-1,-9.458081245E0,-2.526119947E0
3.278480313E0,2.015366592E-2,-9.481388092E0,-2.504648685E0
3.298750678E0,-4.712809920E-1,-9.493579865E0,-2.412512541E0
3.319021042E0,-8.629290462E-1,-9.499435425E0,-2.277386665E0
3.339291407E0,-1.144710302E0,-9.508875847E0,-2.107437372E0
3.359561771E0,-1.377379417E0,-9.518635750E0,-1.915405273E0
3.379832136E0,-1.554667711E0,-9.525085449E0,-1.739586592E0
3.400102501E0,-1.673134565E0,-9.519746780E0,-1.656930447E0
3.420502501E0,-1.727118969E0,-9.506175041E0,-1.679303885E0
3.440643282E0,-1.732272506E0,-9.481754303E0,-1.807191610E0
3.460913646E0,-1.700315118E0,-9.437274933E0,-2.053573132E0
3.481184011E0,-1.610021949E0,-9.360269547E0,-2.442042112E0
3.501454376E0,-1.399071574E0,-9.242840767E0,-2.963591099E0
3.521724740E0,-1.076331735E0,-9.112719536E0,-3.459804535E0
3.541995157E0,-7.121334076E-1,-9.059568405E0,-3.686120510E0
3.562265521E0,-3.940361440E-1,-8.987868309E0,-3.902992010E0
3.582535886E0,-3.487071395E-1,-8.920515060E0,-4.058720112E0
3.602806199E0,-4.391636848E-1,-8.879425049E0,-4.139242649E0
3.623076615E0,-4.827154279E-1,-8.852007866E0,-4.192771912E0
3.643347032E0,-4.669888914E-1,-8.832657814E0,-4.235143661E0
3.663617396E0,-4.250398278E-1,-8.828195572E0,-4.248845577E0
3.683887761E0,-3.846197128E-1,-8.837475777E0,-4.233377934E0
3.704158178E0,-3.390185535E-1,-8.856330872E0,-4.197721958E0
3.724558178E0,-2.791914642E-1,-8.882722855E0,-4.146043301E0
3.744698907E0,-2.073491365E-1,-8.914443970E0,-4.081674099E0
3.764969324E0,-1.511392742E-1,-8.949480057E0,-4.006789207E0
3.785239688E0,-1.127166227E-1,-8.977391243E0,-3.945138931E0
3.805510053E0,-1.084005684E-1,-8.994470596E0,-3.906166077E0
3.825780417E0,-1.084724218E-1,-8.999499321E0,-3.894565582E0
3.846050834E0,-9.195798635E-2,-8.989138603E0,-3.918839931E0
3.866321199E0,-5.999319628E-2,-8.957708359E0,-3.990771294E0
3.886591563E0,-7.932919078E-3,-8.903196335E0,-4.111378193E0
3.906861980E0,9.806898981E-2,-8.848586082E0,-4.226499081E0
3.927132344E0,2.402567416E-1,-8.849324226E0,-4.219256401E0
3.947402761E0,3.284066319E-1,-8.918782234E0,-4.064215660E0
3.967673126E0,3.004966378E-1,-8.977382660E0,-3.935312510E0
3.987943490E0,2.700366676E-1,-9.017515182E0,-3.844722748E0
4.008213907E0,3.538649082E-1,-9.094570160E0,-3.651571035E0
4.028484271E0,4.093538523E-1,-9.222429276E0,-3.309020519E0
4.048754688E0,4.075341523E-1,-9.342690468E0,-2.952699900E0
4.069154688E0,3.101177514E-1,-9.429240227E0,-2.676498175E0
4.089295417E0,1.713498980E-1,-9.494515419E0,-2.448509455E0
4.109565834E0,5.537245795E-2,-9.554591179E0,-2.208420277E0
4.129836199E0,3.226910904E-2,-9.621760368E0,-1.895011306E0
4.150106615E0,1.016093343E-1,-9.680194855E0,-1.566490054E0
4.170376980E0,1.416227520E-1,-9.722416878E0,-1.274729967E0
4.190647396E0,1.033883244E-1,-9.755041122E0,-9.994287491E-1
4.210917761E0,1.534530427E-2,-9.775855064E0,-7.764101028E-1
4.231188178E0,-8.641625941E-2,-9.785123825E0,-6.436398625E-1
4.251458542E0,-1.607398987E-1,-9.789511681E0,-5.567765832E-1
4.271728855E0,-2.169726938E-1,-9.795385361E0,-4.168088436E-1
4.291999324E0,-2.395965755E-1,-9.801387787E0,-2.139756829E-1
4.312269688E0,-2.592960000E-1,-9.803217888E0,-7.770568598E-3
4.332540053E0,-3.264824450E-1,-9.799474716E0,1.846515834E-1
4.352810469E0,-4.134091437E-1,-9.791608810E0,3.519571722E-1
4.373080834E0,-4.848967791E-1,-9.783183098E0,4.739192426E-1
4.393351251E0,-5.379093885E-1,-9.777077675E0,5.383226275E-1
4.413621615E0,-5.645812750E-1,-9.774277687E0,5.613721609E-1
4.433891980E0,-5.537278056E-1,-9.774051666E0,5.759160519E-1
4.454162396E0,-5.201896429E-1,-9.775043488E0,5.901837945E-1
4.474432761E0,-4.068763554E-1,-9.782570839E0,5.533087254E-1
4.494703178E0,-2.363675386E-1,-9.793303490E0,4.535836875E-1
4.515103178E0,-3.337300196E-2,-9.802551270E0,2.815467417E-1
4.535243907E0,1.731867939E-1,-9.804887772E0,-6.755743921E-2
4.555514324E0,3.310481906E-1,-9.786931992E0,-5.260801911E-1
4.575784688E0,4.210816324E-1,-9.753172874E0,-9.320460558E-1
4.596055105E0,4.973320365E-1,-9.710741997E0,-1.274580717E0
4.616455105E0,5.823779106E-1,-9.659367561E0,-1.589917541E0
4.636595834E0,6.779000163E-1,-9.581624985E0,-1.975679398E0
4.656866251E0,7.746466994E-1,-9.463335037E0,-2.452670813E0
4.677136615E0,8.192496896E-1,-9.329938889E0,-2.907139301E0
4.697407032E0,8.064776659E-1,-9.205046654E0,-3.284373999E0
4.717807032E0,7.757062912E-1,-9.091989517E0,-3.592268467E0
4.737947761E0,7.660980225E-1,-8.977447510E0,-3.871553421E0
4.758218178E0,7.879464626E-1,-8.867341042E0,-4.113367081E0
4.778488542E0,8.349148035E-1,-8.805511475E0,-4.235123634E0
4.798758907E0,8.548461199E-1,-8.786939621E0,-4.269582748E0
4.819158907E0,8.296955228E-1,-8.810776711E0,-4.225187778E0
4.839299636E0,7.687640786E-1,-8.878912926E0,-4.091980934E0
4.859570053E0,6.658331156E-1,-8.955454826E0,-3.940417290E0
4.879840417E0,5.501565933E-1,-9.001243591E0,-3.852962255E0
4.900110834E0,4.786847532E-1,-9.011562347E0,-3.838357925E0
4.920381199E0,4.931285977E-1,-8.997643471E0,-3.869059086E0
4.940651563E0,5.079743266E-1,-8.946203232E0,-3.984695673E0
4.960921980E0,5.070155859E-1,-8.898542404E0,-4.090142250E0
4.981192344E0,4.447760284E-1,-8.852410316E0,-4.196117401E0
5.001462709E0,3.819496036E-1,-8.902735710E0,-4.094604969E0
5.021733074E0,5.005038977E-1,-9.013624191E0,-3.830726147E0
5.042003438E0,6.687170863E-1,-9.097084999E0,-3.600866795E0
5.062273855E0,7.484735250E-1,-9.156556129E0,-3.430402994E0
5.082544219E0,7.036626935E-1,-9.247532845E0,-3.187223196E0
5.102814584E0,5.771467090E-1,-9.376239777E0,-2.814855814E0
5.123084949E0,4.543492496E-1,-9.502149582E0,-2.381827354E0
5.143355313E0,4.542635083E-1,-9.575352669E0,-2.068010330E0
5.163625730E0,5.150341392E-1,-9.612772942E0,-1.870755076E0
5.183896094E0,4.985958338E-1,-9.657308578E0,-1.630390525E0
5.204166459E0,4.288054407E-1,-9.705607414E0,-1.337048292E0
5.224436824E0,3.642569780E-1,-9.739683151E0,-1.084552407E0
5.244707188E0,3.454397023E-1,-9.756698608E0,-9.262238145E-1
5.264977553E0,3.948937356E-1,-9.769592285E0,-7.546679974E-1
5.285247917E0,4.130332470E-1,-9.782637596E0,-5.475463867E-1
5.305518282E0,3.706675768E-1,-9.793453217E0,-3.482595086E-1
5.325788646E0,2.763417661E-1,-9.801424980E0,-1.615160108E-1
5.346059011E0,1.225243956E-1,-9.805834770E0,3.134955838E-2
5.366329376E0,-4.205950350E-2,-9.803902626E0,2.282863855E-1
5.386599740E0,-1.866310835E-1,-9.796902657E0,3.952924907E-1
5.406870105E0,-2.749811709E-1,-9.790807724E0,4.846252203E-1
5.427140469E0,-3.100412190E-1,-9.788075447E0,5.175154209E-1
5.447410782E0,-3.310876787E-1,-9.786108971E0,5.411443710E-1
5.467681146E0,-2.953242660E-1,-9.786734581E0,5.504562259E-1
5.487951511E0,-1.760530472E-1,-9.792261124E0,5.010222793E-1
5.508221876E0,-4.099989682E-2,-9.797754288E0,4.155793190E-1
5.528492240E0,1.106228307E-1,-9.802234650E0,2.726527452E-1
5.548762605E0,2.572698891E-1,-9.802983284E0,-7.550232112E-2
5.569032969E0,3.688823283E-1,-9.784934044E0,-5.379413366E-1
5.589303334E0,4.687981904E-1,-9.752730370E0,-9.137183428E-1
5.609573699E0,5.622989535E-1,-9.714109421E0,-1.220775723E0
5.629844011E0,6.796293259E-1,-9.664182663E0,-1.520549774E0
5.650114376E0,8.210374713E-1,-9.585016251E0,-1.903614402E0
5.670384740E0,9.152085781E-1,-9.475597382E0,-2.354962111E0
5.690655105E0,9.311522245E-1,-9.351305008E0,-2.802934170E0
5.710925469E0,8.902059197E-1,-9.224204063E0,-3.208111286E0
5.731195782E0,8.302772045E-1,-9.101490021E0,-3.555826664E0
5.751466146E0,8.056408763E-1,-8.970500946E0,-3.879618406E0
5.771736511E0,8.257989287E-1,-8.841250420E0,-4.161819458E0
5.792006824E0,8.560505509E-1,-8.757048607E0,-4.330320835E0
5.812277136E0,8.448076248E-1,-8.721725464E0,-4.403202534E0
5.832547501E0,8.105728030E-1,-8.743788719E0,-4.365720749E0
5.852817865E0,7.651982307E-1,-8.814595222E0,-4.229393005E0
5.873088230E0,6.722727418E-1,-8.885799408E0,-4.094021320E0
5.893358542E0,5.707018971E-1,-8.935725212E0,-3.999688625E0
5.913628907E0,5.133358240E-1,-8.958978653E0,-3.955196857E0
5.933899271E0,4.788925350E-1,-8.959033012E0,-3.959390640E0
5.954169584E0,4.342929125E-1,-8.941290855E0,-4.004383087E0
5.974439949E0,3.349981904E-1,-8.899617195E0,-4.105479240E0
5.994710261E0,2.076939642E-1,-8.825853348E0,-4.269842148E0
6.015110261E0,1.870308965E-1,-8.863215446E0,-4.192712307E0
6.035250938E0,2.206889242E-1,-8.971823692E0,-3.953233719E0
6.055521303E0,1.701886356E-1,-9.042737961E0,-3.790818930E0
6.075791615E0,1.413671672E-1,-9.113851547E0,-3.617749214E0
6.096061980E0,1.991887689E-1,-9.264504433E0,-3.209310055E0
6.116461980E0,1.832918972E-1,-9.449752808E0,-2.615138054E0
6.136602657E0,1.172999963E-1,-9.589507103E0,-2.048895597E0
6.156872969E0,1.071229950E-1,-9.655726433E0,-1.710513592E0
6.177143282E0,8.882966638E-2,-9.679548264E0,-1.571256995E0
6.197413646E0,-4.019038007E-2,-9.709655762E0,-1.375264049E0
6.217813646E0,-1.111010313E-1,-9.746952057E0,-1.074694395E0
6.237954271E0,-5.953523517E-2,-9.773922920E0,-7.982963920E-1
6.258224584E0,-4.300403222E-2,-9.791081429E0,-5.507048965E-1
6.278494949E0,-1.073628068E-1,-9.800730705E0,-3.233429790E-1
6.298765261E0,-1.837555617E-1,-9.803994179E0,-1.353289932E-1
6.319035574E0,-2.640849054E-1,-9.803030968E0,3.528714180E-2
6.339305886E0,-3.669151068E-1,-9.797316551E0,2.198912203E-1
6.359576199E0,-4.928589165E-1,-9.784838676E0,4.294114411E-1
6.379846511E0,-6.151701808E-1,-9.768746376E0,6.029458642E-1
6.400116824E0,-7.108513117E-1,-9.756178856E0,6.942991018E-1
6.420516824E0,-7.683964968E-1,-9.750857353E0,7.076230049E-1
6.440657501E0,-8.051831722E-1,-9.748443604E0,6.999514103E-1
6.460927813E0,-8.383331299E-1,-9.745412827E0,7.032118440E-1
6.481198126E0,-8.091907501E-1,-9.750369072E0,6.677551270E-1
6.501468438E0,-6.535540819E-1,-9.769606590E0,5.459252000E-1
6.521738751E0,-4.190253019E-1,-9.793122292E0,2.992934585E-1
6.542009063E0,-1.795133501E-1,-9.804905891E0,-4.457323253E-2
6.562279376E0,-8.304785937E-3,-9.795851707E0,-4.600227773E-1
6.582549688E0,1.205613092E-1,-9.765447617E0,-8.898802996E-1
6.602820001E0,2.393474728E-1,-9.717595100E0,-1.296706796E0
6.623090313E0,3.389013708E-1,-9.650955200E0,-1.707221746E0
6.643360574E0,4.546648264E-1,-9.553054810E0,-2.168597460E0
6.663630938E0,5.609312654E-1,-9.432724953E0,-2.622869730E0
6.683901199E0,5.879771709E-1,-9.318742752E0,-2.997616053E0
6.704171511E0,5.124900937E-1,-9.213531494E0,-3.319423437E0
6.724441824E0,3.753597438E-1,-9.120592117E0,-3.583894491E0
6.744712136E0,2.498252094E-1,-9.031083107E0,-3.814121723E0
6.764982449E0,2.293356359E-1,-8.924243927E0,-4.059024334E0
6.785252761E0,2.945684493E-1,-8.819731712E0,-4.277376175E0
6.805523021E0,2.944238186E-1,-8.810383797E0,-4.296607494E0
6.825793334E0,2.177269459E-1,-8.866173744E0,-4.184967041E0
6.846063646E0,1.193021238E-1,-8.927645683E0,-4.056265354E0
6.866333959E0,7.032596041E-3,-8.972786903E0,-3.957199574E0
6.886604219E0,-5.770019814E-2,-8.983808517E0,-3.931697130E0
6.906874532E0,-1.913277619E-2,-8.983592987E0,-3.932566166E0
6.927144844E0,-7.517659664E-2,-8.940503120E0,-4.028912067E0
6.947415105E0,-1.048187837E-1,-8.797432899E0,-4.331809521E0
6.967685417E0,-4.083762318E-2,-8.679430008E0,-4.564670563E0
6.987955730E0,5.316529889E-3,-8.738412857E0,-4.450898647E0
7.008225990E0,-5.551968887E-2,-8.846171379E0,-4.232322216E0
7.028496303E0,-2.261688560E-1,-8.972341537E0,-3.951750278E0
7.048766563E0,-2.077116072E-1,-9.162263870E0,-3.490009069E0
7.069036876E0,-1.358321160E-1,-9.354161263E0,-2.941360474E0
7.089307188E0,-1.736748070E-1,-9.505941391E0,-2.403601408E0
7.109577449E0,-2.299549431E-1,-9.599529266E0,-1.991619110E0
7.129847709E0,-1.820172668E-1,-9.648162842E0,-1.746485353E0
7.150118021E0,-1.913161725E-1,-9.683352470E0,-1.538330913E0
7.170388282E0,-2.674709260E-1,-9.722096443E0,-1.256861925E0
7.190658594E0,-3.199304044E-1,-9.755568504E0,-9.470459819E-1
7.210928855E0,-4.225491881E-1,-9.778813362E0,-6.055126190E-1
7.231199115E0,-5.793946981E-1,-9.785229683E0,-2.897721231E-1
7.251469428E0,-7.456544638E-1,-9.778192520E0,-3.655098379E-2
7.271739688E0,-8.853163123E-1,-9.765214920E0,1.649215221E-1
7.292009949E0,-9.828587770E-1,-9.750382423E0,3.666248024E-1
7.312280261E0,-1.070866227E0,-9.731072426E0,5.743348598E-1
7.332550521E0,-1.176753759E0,-9.710853577E0,6.963813305E-1
7.352820782E0,-1.270917654E0,-9.697123528E0,7.217725515E-1
7.373091042E0,-1.322561741E0,-9.691076279E0,7.101076841E-1
7.393361355E0,-1.343303084E0,-9.689851761E0,6.875191331E-1
7.413631615E0,-1.336844206E0,-9.693130493E0,6.530357003E-1
7.433901876E0,-1.235595107E0,-9.710194588E0,5.964983106E-1
7.454172136E0,-1.032612085E0,-9.739957809E0,4.871666133E-1
7.474442396E0,-7.392721772E-1,-9.774701118E0,2.812314630E-1
7.494712657E0,-4.456581175E-1,-9.795842171E0,-1.151129007E-1
7.515112657E0,-2.699494362E-1,-9.783218384E0,-6.213996410E-1
7.535253230E0,-1.133609265E-1,-9.751192093E0,-1.035275102E0
7.555523438E0,2.605731040E-2,-9.707562447E0,-1.390301347E0
7.575793751E0,1.404739618E-1,-9.637038231E0,-1.810567737E0
7.596064011E0,2.840054929E-1,-9.523221970E0,-2.323349237E0
7.616464011E0,3.825570643E-1,-9.391853333E0,-2.795912743E0
7.636604532E0,3.669285178E-1,-9.271580696E0,-3.173882246E0
7.656874792E0,2.867949605E-1,-9.157530785E0,-3.496823549E0
7.677145053E0,2.087846547E-1,-9.048056602E0,-3.776173592E0
7.697415313E0,2.097769529E-1,-8.927229881E0,-4.053509235E0
7.717815313E0,3.096118271E-1,-8.816719055E0,-4.282521248E0
7.737955834E0,3.650161326E-1,-8.775548935E0,-4.361982346E0
7.758226094E0,3.048924208E-1,-8.788671494E0,-4.340126038E0
7.778496355E0,2.045029104E-1,-8.844107628E0,-4.232059956E0
7.798766615E0,8.324136585E-2,-8.933102608E0,-4.045135498E0
7.819166615E0,-5.461145565E-2,-9.015761375E0,-3.857907057E0
7.839307136E0,-2.009219825E-1,-9.073056221E0,-3.716136694E0
7.859577396E0,-3.245226741E-1,-9.105387688E0,-3.627255201E0
7.879847605E0,-3.703459799E-1,-9.085023880E0,-3.673631907E0
7.900117865E0,-4.133749902E-1,-8.995991707E0,-3.882221222E0
7.920388126E0,-5.057991147E-1,-8.805293083E0,-4.287351608E0
7.940658386E0,-2.929328978E-1,-8.775118828E0,-4.368279934E0
7.960928594E0,1.017529666E-1,-8.954162598E0,-3.997875452E0
7.981198855E0,6.777648628E-2,-9.088591576E0,-3.682840586E0
8.001469115E0,-3.137325644E-1,-9.095261574E0,-3.653514624E0
8.021739324E0,-4.191953540E-1,-9.162182808E0,-3.471179247E0
8.042009584E0,-3.623044789E-1,-9.296731949E0,-3.099985600E0
8.062279844E0,-3.560139239E-1,-9.437119484E0,-2.642803669E0
8.082550053E0,-3.586201966E-1,-9.533397675E0,-2.270704508E0
8.102820313E0,-3.125487864E-1,-9.600210190E0,-1.977037430E0
8.123090521E0,-3.036374152E-1,-9.662207603E0,-1.649228811E0
8.143360782E0,-2.701808810E-1,-9.710103035E0,-1.345842361E0
8.163630990E0,-2.589122057E-1,-9.740783691E0,-1.104753137E0
8.183901251E0,-3.650138974E-1,-9.764868736E0,-8.273305893E-1
8.204171459E0,-4.842150509E-1,-9.778195381E0,-5.681710839E-1
8.224571459E0,-5.608320236E-1,-9.782831192E0,-3.899633884E-1
8.244711928E0,-6.317327619E-1,-9.783775330E0,-2.214634418E-1
8.264982136E0,-7.443124652E-1,-9.778283119E0,-3.938926384E-2
8.285252396E0,-9.155676365E-1,-9.763067245E0,1.209762990E-1
8.305522605E0,-1.082984447E0,-9.743963242E0,2.295825928E-1
8.325792813E0,-1.172221065E0,-9.731814384E0,2.967447340E-1
8.346063074E0,-1.206216335E0,-9.725841522E0,3.513306379E-1
8.366333282E0,-1.232221603E0,-9.720262527E0,4.104951322E-1
8.386603490E0,-1.198433518E0,-9.723557472E0,4.319554269E-1
8.406873699E0,-1.022638798E0,-9.746539116E0,3.599692583E-1
8.427143959E0,-7.801676393E-1,-9.773991585E0,1.755871475E-1
8.447414167E0,-4.978536367E-1,-9.793104172E0,-1.328950822E-1
8.467684376E0,-2.831987739E-1,-9.786573410E0,-5.596196651E-1
8.487954584E0,-1.517193168E-1,-9.755290031E0,-9.907972217E-1
8.508224792E0,-1.012450829E-2,-9.705776215E0,-1.402922153E0
8.528495053E0,1.445629895E-1,-9.642978668E0,-1.778330803E0
8.548765261E0,3.423746228E-1,-9.552008629E0,-2.193694830E0
8.569035469E0,5.476714373E-1,-9.433629036E0,-2.622418165E0
8.589305678E0,7.013953328E-1,-9.316102982E0,-2.981386662E0
8.609575886E0,7.660127282E-1,-9.204114914E0,-3.296648979E0
8.629846094E0,7.439982891E-1,-9.093167305E0,-3.595994949E0
8.650116303E0,6.829036474E-1,-8.992795944E0,-3.851449966E0
8.670386511E0,6.607235670E-1,-8.906284332E0,-4.051164627E0
8.690656771E0,6.948351860E-1,-8.876056671E0,-4.111352444E0
8.710926980E0,6.443251371E-1,-8.891240120E0,-4.086696625E0
8.731197188E0,5.437216759E-1,-8.925297737E0,-4.026638508E0
8.751467396E0,4.220352471E-1,-8.975393295E0,-3.928688049E0
8.771737605E0,2.682202756E-1,-9.040653229E0,-3.790123701E0
8.792007761E0,1.099920049E-1,-9.107808113E0,-3.634023905E0
8.812277969E0,2.808307111E-2,-9.167130470E0,-3.483291626E0
8.832548178E0,2.174938656E-2,-9.185484886E0,-3.434643745E0
8.852818386E0,8.225928061E-3,-9.146298409E0,-3.537729263E0
8.873088594E0,-1.361444313E-2,-9.069379807E0,-3.730491638E0
8.893358803E0,2.032109909E-2,-8.923318863E0,-4.067473888E0
8.913628959E0,2.626573145E-1,-8.932714462E0,-4.038318634E0
8.933899167E0,5.702233315E-1,-9.085125923E0,-3.647702217E0
8.954169376E0,6.704569459E-1,-9.200985909E0,-3.326066732E0
8.974439584E0,4.714291394E-1,-9.255495071E0,-3.206863642E0
8.994709740E0,2.064202875E-1,-9.340016365E0,-2.981925249E0
9.015109740E0,2.302251011E-2,-9.448803902E0,-2.624874115E0
9.035250157E0,-1.345959753E-1,-9.537652016E0,-2.277159929E0
9.055520313E0,-1.354163587E-1,-9.558721542E0,-2.186978340E0
9.075790469E0,-6.019015238E-2,-9.567049980E0,-2.153672457E0
9.096060678E0,-7.582414150E-2,-9.630049706E0,-1.851160049E0
9.116460678E0,-2.119491249E-2,-9.696439743E0,-1.465942979E0
9.136601042E0,1.400829107E-2,-9.738665581E0,-1.152641892E0
9.156871251E0,-4.840924218E-2,-9.768283844E0,-8.652651906E-1
9.177141407E0,-1.828884333E-1,-9.787341118E0,-5.872798562E-1
9.197411615E0,-2.890801132E-1,-9.797408104E0,-3.124228418E-1
9.217811615E0,-3.691940308E-1,-9.799667358E0,-2.451304905E-2
9.237951928E0,-4.665533006E-1,-9.792695045E0,2.363296896E-1
9.258222136E0,-6.147847772E-1,-9.778974533E0,4.050892889E-1
9.278492292E0,-7.938314676E-1,-9.761567116E0,5.020285249E-1
9.298762501E0,-9.021434188E-1,-9.747734070E0,5.815636516E-1
9.319032657E0,-9.207366109E-1,-9.743970871E0,6.145393252E-1
9.339302813E0,-8.960984945E-1,-9.746298790E0,6.140344739E-1
9.359573021E0,-8.407955766E-1,-9.751466751E0,6.101977825E-1
9.379843178E0,-6.967520118E-1,-9.766753197E0,5.435577631E-1
9.400113334E0,-5.025581121E-1,-9.786688805E0,3.722120225E-1
9.420383438E0,-2.798236609E-1,-9.801977158E0,1.154647097E-1
9.440653646E0,-7.537663728E-2,-9.802298546E0,-2.822410762E-1
9.460923855E0,4.014286026E-2,-9.780053139E0,-7.206487060E-1
9.481194011E0,1.348334253E-1,-9.742451668E0,-1.112135053E0
9.501464167E0,2.621297538E-1,-9.692894936E0,-1.466102242E0
9.521734324E0,4.033186436E-1,-9.632176399E0,-1.796915770E0
9.542004532E0,5.465987325E-1,-9.539480209E0,-2.206793308E0
9.562274688E0,6.641666889E-1,-9.414552689E0,-2.663730383E0
9.582544844E0,7.002170682E-1,-9.279677391E0,-3.093166351E0
9.602815001E0,6.506550312E-1,-9.153141022E0,-3.459342957E0
9.623085157E0,5.695465207E-1,-9.047219276E0,-3.740834236E0
9.643355313E0,5.486013293E-1,-8.967275620E0,-3.931590319E0
9.663625469E0,5.542971492E-1,-8.922767639E0,-4.030803204E0
9.683895626E0,4.964227974E-1,-8.914153099E0,-4.057317734E0
9.704165782E0,3.763020337E-1,-8.931128502E0,-4.032831669E0
9.724435938E0,2.509515584E-1,-8.975138664E0,-3.943893909E0
9.744706094E0,1.436732858E-1,-9.042659760E0,-3.792105198E0
9.764976251E0,5.608299375E-2,-9.114030838E0,-3.619625807E0
9.785246407E0,-3.677030280E-2,-9.170636177E0,-3.473970413E0
9.805516511E0,-1.352558881E-1,-9.206604004E0,-3.374985218E0
9.825786667E0,-1.811546534E-1,-9.211116791E0,-3.360490561E0
9.846056824E0,-1.400688589E-1,-9.183858871E0,-3.436206341E0
9.866326980E0,-8.557166159E-2,-9.152083397E0,-3.521709204E0
9.886597136E0,-1.217554361E-1,-9.083335876E0,-3.694396973E0
9.906867292E0,-1.658021212E-1,-9.000382423E0,-3.890502930E0
9.927137396E0,-1.722235116E-3,-9.018213272E0,-3.852561474E0
9.947407553E0,2.178230733E-1,-9.093145370E0,-3.665739536E0
9.967677709E0,1.389819533E-1,-9.132502556E0,-3.570501089E0
9.987947865E0,-9.638471901E-2,-9.174296379E0,-3.463146687E0
1.000821797E1,-2.605535984E-1,-9.286965370E0,-3.139232397E0
1.002848813E1,-3.171025813E-1,-9.445293427E0,-2.618444443E0
1.004875828E1,-3.764980137E-1,-9.561275482E0,-2.147244930E0
1.006902839E1,-4.266672432E-1,-9.610226631E0,-1.905749440E0
1.008929854E1,-3.691414595E-1,-9.634267807E0,-1.793040752E0
1.010956870E1,-3.480746448E-1,-9.668665886E0,-1.601917386E0
1.012983875E1,-4.098800421E-1,-9.699600220E0,-1.385690451E0
1.015010896E1,-4.984284043E-1,-9.715690613E0,-1.235852838E0
1.017037906E1,-6.144037247E-1,-9.727611542E0,-1.080033302E0
1.019064922E1,-7.227757573E-1,-9.738318443E0,-9.017440677E-1
1.021091932E1,-7.988324165E-1,-9.747897148E0,-7.146724463E-1
1.023118948E1,-8.366721869E-1,-9.757452965E0,-5.123338699E-1
1.025145958E1,-8.515769839E-1,-9.764447212E0,-3.174361289E-1
1.027172969E1,-8.757458925E-1,-9.766512871E0,-1.367124915E-1
1.029199984E1,-9.362730980E-1,-9.761848450E0,9.594381787E-3
1.031226995E1,-1.053791642E0,-9.749249458E0,1.096887439E-1
1.033254011E1,-1.190729618E0,-9.732451439E0,1.787320375E-1
1.035281021E1,-1.295827627E0,-9.718414307E0,2.088979483E-1
1.037308031E1,-1.359323740E0,-9.709981918E0,1.971270591E-1
1.039335047E1,-1.388646126E0,-9.706548691E0,1.579826772E-1
1.041362057E1,-1.357563257E0,-9.712007523E0,6.567618251E-2
1.043389068E1,-1.227075815E0,-9.729169846E0,-8.898129314E-2
1.045416083E1,-1.049296141E0,-9.745214462E0,-3.164964318E-1
1.047443094E1,-8.650807738E-1,-9.748372078E0,-6.255046725E-1
1.049470104E1,-7.095679045E-1,-9.725098610E0,-1.043732524E0
1.051510104E1,-5.759412646E-1,-9.677249908E0,-1.479697466E0
1.053524130E1,-4.250705540E-1,-9.628802299E0,-1.809933305E0
1.055551141E1,-2.667495608E-1,-9.571164131E0,-2.119447470E0
1.057578151E1,-6.750178337E-2,-9.487176895E0,-2.481796026E0
1.059605162E1,1.258431822E-1,-9.382916451E0,-2.848761082E0
1.061645162E1,2.222804874E-1,-9.281777382E0,-3.157464743E0
1.063659182E1,2.069854736E-1,-9.189316750E0,-3.418186426E0
1.065686198E1,1.263162643E-1,-9.107032776E0,-3.635435581E0
1.067713208E1,3.694445640E-2,-9.024479866E0,-3.837681532E0
1.069740219E1,2.241486125E-2,-8.929859161E0,-4.053084850E0
1.071780219E1,7.752843201E-2,-8.847136497E0,-4.229956627E0
1.073794240E1,8.568176627E-2,-8.827779770E0,-4.270052433E0
1.075821250E1,4.073894024E-2,-8.860993385E0,-4.201371193E0
1.077848260E1,-2.168434113E-2,-8.921217918E0,-4.072075367E0
1.079875271E1,-9.806866944E-2,-8.992058754E0,-3.911988497E0
1.081915271E1,-1.982112825E-1,-9.056829453E0,-3.755654573E0
1.083929286E1,-3.295658231E-1,-9.106058121E0,-3.625116110E0
1.085956297E1,-4.524714053E-1,-9.141798973E0,-3.520393610E0
1.087983307E1,-5.577134490E-1,-9.156165123E0,-3.467562437E0
1.090010318E1,-6.448470950E-1,-9.141607285E0,-3.490783215E0
1.092050318E1,-6.581072807E-1,-9.118282318E0,-3.548830509E0
1.094064339E1,-5.768597722E-1,-9.040215492E0,-3.756610155E0
1.096091349E1,-3.963685930E-1,-9.020058632E0,-3.827770710E0
1.098118359E1,-3.655379117E-1,-9.144021034E0,-3.524720907E0
1.100145365E1,-5.717834234E-1,-9.203454018E0,-3.337647200E0
1.102172375E1,-9.276528358E-1,-9.184029579E0,-3.311110020E0
1.104199386E1,-1.231842995E0,-9.184997559E0,-3.207610607E0
1.106226396E1,-1.329257727E0,-9.285305977E0,-2.861215591E0
1.108253401E1,-1.328065753E0,-9.429907799E0,-2.341680527E0
1.110280412E1,-1.240646482E0,-9.539561272E0,-1.904719710E0
1.112307417E1,-1.050403953E0,-9.601333618E0,-1.697478771E0
1.114334427E1,-1.002885461E0,-9.633035660E0,-1.539233088E0
1.116361438E1,-1.063519120E0,-9.663306236E0,-1.288348317E0
1.118388443E1,-1.144162774E0,-9.673661232E0,-1.132055163E0
1.120415453E1,-1.234728456E0,-9.669942856E0,-1.066787243E0
1.122442458E1,-1.330541611E0,-9.668355942E0,-9.606952667E-1
1.124469469E1,-1.395585656E0,-9.676163673E0,-7.710919380E-1
1.126496479E1,-1.405497074E0,-9.689742088E0,-5.512509346E-1
1.128523484E1,-1.382353187E0,-9.703067780E0,-3.316022754E-1
1.130550490E1,-1.357010841E0,-9.711496353E0,-1.255504787E-1
1.132577500E1,-1.368333578E0,-9.710694313E0,2.207797579E-2
1.134604505E1,-1.413372636E0,-9.703355789E0,1.327894330E-1
1.136631510E1,-1.473605394E0,-9.692317963E0,2.405254096E-1
1.138658521E1,-1.524013042E0,-9.681901932E0,3.294585645E-1
1.140685526E1,-1.566779494E0,-9.673951149E0,3.609254956E-1
1.142712536E1,-1.613890529E0,-9.668301582E0,2.994845212E-1
1.144739542E1,-1.644443274E0,-9.666874886E0,1.331447810E-1
1.146766547E1,-1.625748873E0,-9.669948578E0,-1.393494010E-1
1.148793552E1,-1.559021473E0,-9.667997360E0,-5.192886591E-1
1.150820557E1,-1.418112874E0,-9.656731606E0,-9.522995949E-1
1.152847568E1,-1.184369802E0,-9.632384300E0,-1.408837318E0
1.154874573E1,-8.391527534E-1,-9.602548599E0,-1.804792881E0
1.156901578E1,-4.961880445E-1,-9.566046715E0,-2.101175547E0
1.158928583E1,-2.807303071E-1,-9.518014908E0,-2.344984531E0
1.160955594E1,-1.543099582E-1,-9.435341835E0,-2.668501139E0
1.162982594E1,-2.281729132E-2,-9.315816879E0,-3.063564301E0
1.165009604E1,1.087363288E-1,-9.198599815E0,-3.397695303E0
1.167036609E1,1.528412402E-1,-9.108055115E0,-3.631855249E0
1.169063615E1,1.163710132E-1,-9.037899971E0,-3.804368019E0
1.171090620E1,6.176703423E-2,-8.977776527E0,-3.945389271E0
1.173117625E1,6.786865741E-2,-8.922224998E0,-4.069358826E0
1.175144630E1,1.440508515E-1,-8.875681877E0,-4.167963028E0
1.177171636E1,1.952272654E-1,-8.857661247E0,-4.204058647E0
1.179198641E1,1.685551852E-1,-8.892201424E0,-4.131672382E0
1.181225646E1,8.372968435E-2,-8.960136414E0,-3.984888792E0
1.183252646E1,-2.315043099E-2,-9.023219109E0,-3.840750933E0
1.185279656E1,-1.131946966E-1,-9.068864822E0,-3.730048180E0
1.187306662E1,-1.798862219E-1,-9.097330093E0,-3.657405138E0
1.189333667E1,-2.642855346E-1,-9.106056213E0,-3.630466461E0
1.191360672E1,-4.058180153E-1,-9.088322639E0,-3.661705971E0
1.193387677E1,-5.040341020E-1,-9.049621582E0,-3.744420290E0
1.195414682E1,-3.602360785E-1,-8.994379044E0,-3.891239882E0
1.197441688E1,1.051557884E-1,-8.958294868E0,-3.988518715E0
1.199468693E1,4.507346451E-1,-9.129691124E0,-3.551895618E0
1.201508693E1,5.479593277E-1,-9.337387085E0,-2.946750879E0
1.203522703E1,4.116654992E-1,-9.420751572E0,-2.692649841E0
1.205549703E1,3.020727076E-2,-9.427142143E0,-2.701566935E0
1.207576708E1,-3.854856789E-1,-9.445940971E0,-2.606910229E0
1.209603714E1,-6.557704210E-1,-9.493378639E0,-2.369831562E0
1.211643714E1,-6.353279948E-1,-9.554500580E0,-2.116189718E0
1.213657719E1,-4.900280237E-1,-9.589797974E0,-1.991489172E0
1.215684724E1,-4.152316749E-1,-9.628726006E0,-1.812622428E0
1.217711724E1,-3.594478071E-1,-9.679298401E0,-1.533745050E0
1.219738729E1,-3.303999901E-1,-9.714279175E0,-1.301540494E0
1.221778729E1,-3.760766983E-1,-9.734038353E0,-1.130242944E0
1.223792734E1,-4.781258404E-1,-9.749764442E0,-9.401451945E-1
1.225819740E1,-5.693481565E-1,-9.764267921E0,-7.108497620E-1
1.227846740E1,-5.952287316E-1,-9.775618553E0,-5.033566952E-1
1.229873745E1,-5.617190599E-1,-9.785940170E0,-3.003694415E-1
1.231900745E1,-5.160551071E-1,-9.792371750E0,-1.163173467E-1
1.233927750E1,-5.109666586E-1,-9.793276787E0,3.184341639E-2
1.235954750E1,-5.678842068E-1,-9.788842201E0,1.626660675E-1
1.237981755E1,-6.682180166E-1,-9.779922485E0,2.774716318E-1
1.240008755E1,-7.635475993E-1,-9.769957542E0,3.678591251E-1
1.242035761E1,-8.067136407E-1,-9.764325142E0,4.213713408E-1
1.244062761E1,-7.957253456E-1,-9.764680862E0,4.338446558E-1
1.246089766E1,-7.581677437E-1,-9.768803596E0,4.074807465E-1
1.248116766E1,-6.840935946E-1,-9.777139664E0,3.315663338E-1
1.250143766E1,-5.612460971E-1,-9.788618088E0,1.958263367E-1
1.252170771E1,-4.145233333E-1,-9.797882080E0,-7.046157960E-3
1.254197771E1,-2.721272707E-1,-9.797255516E0,-3.318495452E-1
1.256224776E1,-1.699920744E-1,-9.773610115E0,-7.861465216E-1
1.258251776E1,-6.020317972E-2,-9.728020668E0,-1.237885714E0
1.260278776E1,6.908816099E-2,-9.676924706E0,-1.588314176E0
1.262305781E1,2.139512599E-1,-9.616965294E0,-1.907504559E0
1.264332781E1,3.775676489E-1,-9.529324532E0,-2.284686327E0
1.266359781E1,5.210257173E-1,-9.411770821E0,-2.705086946E0
1.268386781E1,5.697031021E-1,-9.295485497E0,-3.072422981E0
1.270413781E1,5.025894046E-1,-9.193525314E0,-3.375926018E0
1.272453781E1,3.791359365E-1,-9.105941772E0,-3.620561838E0
1.274467787E1,2.824257016E-1,-9.026145935E0,-3.823521137E0
1.276494792E1,2.864342034E-1,-8.929801941E0,-4.043140888E0
1.278521792E1,3.649871349E-1,-8.824648857E0,-4.261777401E0
1.280548792E1,3.986454606E-1,-8.768783569E0,-4.372630119E0
1.282575792E1,3.563022912E-1,-8.789554596E0,-4.334416389E0
1.284602792E1,2.694499493E-1,-8.845730782E0,-4.225024700E0
1.286629797E1,1.574932486E-1,-8.914865494E0,-4.082985401E0
1.288656797E1,4.496418685E-2,-8.983435631E0,-3.932714939E0
1.290683797E1,-5.192547664E-2,-9.041766167E0,-3.796596289E0
1.292710797E1,-1.214381531E-1,-9.081209183E0,-3.699634314E0
1.294737797E1,-1.735292822E-1,-9.094825745E0,-3.663937092E0
1.296764797E1,-1.756763309E-1,-9.081110954E0,-3.697694302E0
1.298791792E1,-1.485499442E-1,-9.048435211E0,-3.778113365E0
1.300818797E1,-1.249761358E-1,-8.976217270E0,-3.947441339E0
1.302845797E1,2.575887740E-2,-8.992238998E0,-3.912716627E0
1.304872797E1,2.715359330E-1,-9.092514038E0,-3.663719416E0
1.306899797E1,3.974366784E-1,-9.151278496E0,-3.502360582E0
1.308926797E1,2.752577662E-1,-9.163084984E0,-3.483173609E0
1.310953797E1,6.434074789E-2,-9.217020035E0,-3.348551989E0
1.312980797E1,-1.199864000E-1,-9.348777771E0,-2.959109306E0
1.315007797E1,-2.804820538E-1,-9.509927750E0,-2.377599716E0
1.317034797E1,-3.329165280E-1,-9.597871780E0,-1.985048175E0
1.319061792E1,-2.195645422E-1,-9.616369247E0,-1.909871578E0
1.321088792E1,-1.134878471E-1,-9.614877701E0,-1.926563382E0
1.323115792E1,-1.206990853E-1,-9.632239342E0,-1.837331772E0
1.325142792E1,-1.075238734E-1,-9.665696144E0,-1.653223157E0
1.327169792E1,-1.012770459E-1,-9.699372292E0,-1.443025351E0
1.329196786E1,-1.334223449E-1,-9.732383728E0,-1.197201252E0
1.331223786E1,-2.050299197E-1,-9.754589081E0,-9.881008267E-1
1.333250786E1,-2.737723589E-1,-9.766891479E0,-8.386033773E-1
1.335277781E1,-3.108461797E-1,-9.777656555E0,-6.864442825E-1
1.337304781E1,-3.199759126E-1,-9.788432121E0,-5.045952797E-1
1.339331781E1,-3.405128121E-1,-9.795721054E0,-3.134952486E-1
1.341358781E1,-3.944818079E-1,-9.797986984E0,-1.193671077E-1
1.343385776E1,-4.755042195E-1,-9.794888496E0,6.654021889E-2
1.345412776E1,-5.663288832E-1,-9.787734985E0,2.233658880E-1
1.347439776E1,-6.606727839E-1,-9.778322220E0,3.439594805E-1
1.349466771E1,-7.446619272E-1,-9.768610001E0,4.360134900E-1
1.351506771E1,-8.007599711E-1,-9.760664940E0,5.085203052E-1
1.353520766E1,-8.282269239E-1,-9.755195618E0,5.662140250E-1
1.355547766E1,-8.203603029E-1,-9.755004883E0,5.807662010E-1
1.357574766E1,-7.342429757E-1,-9.764954567E0,5.262380838E-1
1.359601760E1,-5.794622898E-1,-9.781438828E0,3.975706995E-1
1.361641760E1,-3.643792570E-1,-9.797693253E0,2.069067359E-1
1.363655755E1,-1.713217795E-1,-9.804287910E0,-1.302197576E-1
1.365682755E1,-2.926103957E-2,-9.786289215E0,-6.309424043E-1
1.367709750E1,7.859347016E-2,-9.742246628E0,-1.119306922E0
1.369736750E1,1.927763373E-1,-9.690069199E0,-1.495252252E0
1.371776750E1,3.451617360E-1,-9.626959801E0,-1.836542130E0
1.373790745E1,5.480340123E-1,-9.531839371E0,-2.239216089E0
1.375817740E1,7.210270762E-1,-9.403933525E0,-2.686362267E0
1.377844740E1,7.545268536E-1,-9.259350777E0,-3.140936852E0
1.379871734E1,6.878154874E-1,-9.104811668E0,-3.577666998E0
1.381911734E1,5.968241692E-1,-8.940652847E0,-3.984836340E0
1.383925729E1,5.691148043E-1,-8.758736610E0,-4.373903275E0
1.385952724E1,6.272334456E-1,-8.610035896E0,-4.652338028E0
1.387979724E1,6.813951731E-1,-8.532887459E0,-4.784966946E0
1.390006714E1,6.579362750E-1,-8.490839958E0,-4.862422466E0
1.392033719E1,6.096086502E-1,-8.493528366E0,-4.864024162E0
1.394060714E1,5.581946373E-1,-8.564686775E0,-4.743937969E0
1.396087708E1,4.727341831E-1,-8.675281525E0,-4.548229694E0
1.398114708E1,3.773385584E-1,-8.774421692E0,-4.363201618E0
1.400141703E1,3.266433775E-1,-8.839336395E0,-4.234361172E0
1.402168698E1,3.072857559E-1,-8.874860764E0,-4.160867691E0
1.404195698E1,2.633003294E-1,-8.883939743E0,-4.144474983E0
1.406222693E1,2.554792762E-1,-8.866327286E0,-4.182505131E0
1.408249688E1,3.322103322E-1,-8.854047775E0,-4.203079224E0
1.410276682E1,4.002776742E-1,-8.872069359E0,-4.158912659E0
1.412303682E1,3.632334471E-1,-8.996962547E0,-3.884987116E0
1.414330677E1,4.847493470E-1,-9.149092674E0,-3.497070074E0
1.416357672E1,6.447731853E-1,-9.237470627E0,-3.228590012E0
1.418384667E1,6.252165437E-1,-9.301813126E0,-3.042328358E0
1.420411662E1,4.318566322E-1,-9.398843765E0,-2.765073538E0
1.422438656E1,1.740666777E-1,-9.520000458E0,-2.347271204E0
1.424465656E1,-5.733207613E-2,-9.609521866E0,-1.955554962E0
1.426492651E1,-2.300040424E-2,-9.639890671E0,-1.800659180E0
1.428519646E1,1.012082174E-1,-9.660569191E0,-1.683310628E0
1.430559646E1,1.362551451E-1,-9.699394226E0,-1.439994574E0
1.432573636E1,1.838272661E-1,-9.735786438E0,-1.162349463E0
1.434600636E1,1.724530607E-1,-9.759607315E0,-9.437733889E-1
1.436627630E1,7.814699411E-2,-9.777089119E0,-7.568339705E-1
1.438654625E1,-5.845859647E-3,-9.790070534E0,-5.699851513E-1
1.440681620E1,-4.173718020E-2,-9.799179077E0,-3.804509044E-1
1.442708615E1,-8.131225407E-2,-9.804327011E0,-1.973772198E-1
1.444735609E1,-1.512848735E-1,-9.805467606E0,-1.766779087E-2
1.446762604E1,-2.578557432E-1,-9.801751137E0,1.719473004E-1
1.448789599E1,-3.744744658E-1,-9.793743134E0,3.357954621E-1
1.450816594E1,-4.559304416E-1,-9.786637306E0,4.292250872E-1
1.452843589E1,-4.870285690E-1,-9.783119202E0,4.730423093E-1
1.454870589E1,-4.986939728E-1,-9.781050682E0,5.027184486E-1
1.456897578E1,-5.045971274E-1,-9.779096603E0,5.338912606E-1
1.458924578E1,-4.540213943E-1,-9.781821251E0,5.293695331E-1
1.460951573E1,-3.134386241E-1,-9.791097641E0,4.544737637E-1
1.462978568E1,-8.649869263E-2,-9.801200867E0,3.152072430E-1
1.465005563E1,1.830304116E-1,-9.804583549E0,8.386731893E-2
1.467032557E1,4.156744778E-1,-9.792546272E0,-3.219087124E-1
1.469059552E1,5.349195600E-1,-9.759095192E0,-8.026845455E-1
1.471086547E1,6.011833549E-1,-9.711259842E0,-1.224905014E0
1.473113542E1,7.128136158E-1,-9.652623177E0,-1.577702165E0
1.475140536E1,8.580083847E-1,-9.581481934E0,-1.905100703E0
1.477167531E1,1.020092607E0,-9.476002693E0,-2.309801340E0
1.479194526E1,1.156768560E0,-9.335659981E0,-2.770869970E0
1.481221521E1,1.219414949E0,-9.179092407E0,-3.229188919E0
1.483248516E1,1.219712019E0,-9.027853012E0,-3.630506039E0
1.485275511E1,1.206553340E0,-8.891463280E0,-3.956826448E0
1.487302505E1,1.250602841E0,-8.781043053E0,-4.183259010E0
1.489329500E1,1.336066604E0,-8.727392197E0,-4.268246174E0
1.491356500E1,1.361019969E0,-8.714887619E0,-4.285877228E0
1.493383490E1,1.280981541E0,-8.725549698E0,-4.288852215E0
1.495410484E1,1.158040404E0,-8.774576187E0,-4.223284721E0
1.497437479E1,1.015884042E0,-8.860852242E0,-4.077212811E0
1.499464474E1,8.632392287E-1,-8.953850746E0,-3.905610085E0
1.501504474E1,7.144907117E-1,-9.035341263E0,-3.744663477E0
1.503518469E1,6.027239561E-1,-9.096459389E0,-3.614074945E0
1.505545464E1,5.373780131E-1,-9.129918098E0,-3.539238691E0
1.507572458E1,5.343643427E-1,-9.130215645E0,-3.538928509E0
1.509599453E1,5.760744214E-1,-9.111114502E0,-3.581357956E0
1.511639453E1,5.969667435E-1,-9.085928917E0,-3.641416550E0
1.513653438E1,5.589205027E-1,-9.040581703E0,-3.758439541E0
1.515680438E1,5.046048164E-1,-9.064403534E0,-3.708417177E0
1.517707427E1,7.397235036E-1,-9.132396698E0,-3.496073246E0
1.519734422E1,1.129459500E0,-9.226862907E0,-3.124055862E0
1.521774422E1,1.336880684E0,-9.317901611E0,-2.749514103E0
1.523788412E1,1.279696703E0,-9.405771255E0,-2.462568998E0
1.525815406E1,1.029738784E0,-9.497428894E0,-2.215593576E0
1.527842401E1,7.677239776E-1,-9.573325157E0,-1.983036637E0
1.529869396E1,6.040602922E-1,-9.614781380E0,-1.833430767E0
1.531896391E1,6.319448352E-1,-9.643251419E0,-1.666955352E0
1.533923386E1,7.745327353E-1,-9.682841301E0,-1.346501112E0
1.535950380E1,9.207140207E-1,-9.715468407E0,-9.655804634E-1
1.537977375E1,1.007224083E0,-9.731319427E0,-6.762503982E-1
1.540004370E1,9.314101934E-1,-9.750467300E0,-4.808722436E-1
1.542044370E1,7.934124470E-1,-9.768191338E0,-3.511665165E-1
1.544058354E1,7.153059840E-1,-9.776830673E0,-2.689015567E-1
1.546085349E1,6.758754849E-1,-9.782552719E0,-1.234710664E-1
1.548112344E1,6.715232730E-1,-9.783471107E0,5.603141710E-2
1.550139339E1,6.523075104E-1,-9.782811165E0,2.036673129E-1
1.552166333E1,5.732231140E-1,-9.784246445E0,3.321382105E-1
1.554193328E1,4.540488422E-1,-9.784704208E0,4.730840623E-1
1.556220323E1,3.354393244E-1,-9.780562401E0,6.312360764E-1
1.558247313E1,2.170733064E-1,-9.774862289E0,7.585048676E-1
1.560274307E1,1.018634588E-1,-9.771101952E0,8.279911280E-1
1.562301302E1,7.767026313E-3,-9.768925667E0,8.593152165E-1
1.564328297E1,-5.427968875E-2,-9.767549515E0,8.731641769E-1
1.566355287E1,-9.629648179E-2,-9.766339302E0,8.830279112E-1
1.568382281E1,-9.116742760E-2,-9.769504547E0,8.478566408E-1
1.570409276E1,3.178103268E-2,-9.778306961E0,7.443693876E-1
1.572436271E1,2.228510976E-1,-9.786132812E0,5.935771465E-1
1.574463266E1,4.335052669E-1,-9.791417122E0,3.326070905E-1
1.576490255E1,6.026441455E-1,-9.787406921E0,-1.178072467E-1
1.578517250E1,6.985404491E-1,-9.762666702E0,-6.105423570E-1
1.580544245E1,7.649832368E-1,-9.725191116E0,-1.002918959E0
1.582571240E1,8.399592638E-1,-9.681429863E0,-1.317103148E0
1.584598229E1,9.486421347E-1,-9.628846169E0,-1.598682761E0
1.586625219E1,1.099948406E0,-9.540439606E0,-1.985070348E0
1.588652219E1,1.262266636E0,-9.402002335E0,-2.485844612E0
1.590679208E1,1.375857592E0,-9.237370491E0,-2.991386652E0
1.592706203E1,1.400581121E0,-9.078076363E0,-3.434718370E0
1.594733198E1,1.360503554E0,-8.930375099E0,-3.816781044E0
1.596760188E1,1.336990952E0,-8.799726486E0,-4.116752625E0
1.598787182E1,1.354799867E0,-8.714738846E0,-4.288152218E0
1.600814177E1,1.356776357E0,-8.667593002E0,-4.382052898E0
1.602841172E1,1.290275335E0,-8.644912720E0,-4.446466446E0
1.604868162E1,1.199008346E0,-8.665018082E0,-4.432858467E0
1.606895156E1,1.106310010E0,-8.734691620E0,-4.318753242E0
1.608922151E1,1.011368394E0,-8.833175659E0,-4.137936115E0
1.610949146E1,9.151622057E-1,-8.930993080E0,-3.945914507E0
1.612976136E1,8.199386597E-1,-8.999994278E0,-3.807647705E0
1.615003130E1,7.366265655E-1,-9.023288727E0,-3.769352436E0
1.617030125E1,6.969605684E-1,-9.017333031E0,-3.791085243E0
1.619057120E1,6.922690272E-1,-9.005067825E0,-3.820980787E0
1.621084109E1,6.859438419E-1,-8.997050285E0,-3.840958834E0
1.623111104E1,6.171494126E-1,-9.001452446E0,-3.842312813E0
1.625138099E1,4.905861020E-1,-9.041623116E0,-3.765469551E0
1.627165089E1,4.643051624E-1,-9.053827286E0,-3.739387512E0
1.629192078E1,5.715494752E-1,-9.077145576E0,-3.667307615E0
1.631219078E1,7.809527516E-1,-9.152537346E0,-3.433883667E0
1.633246073E1,9.299921989E-1,-9.303146362E0,-2.959216118E0
1.635273068E1,9.484198093E-1,-9.462721825E0,-2.393279076E0
1.637300057E1,8.650917411E-1,-9.566123962E0,-1.977695465E0
1.639327052E1,7.562217116E-1,-9.623361588E0,-1.728995442E0
1.641354047E1,6.552361250E-1,-9.656801224E0,-1.577096343E0
1.643381036E1,5.694841146E-1,-9.695023537E0,-1.361099482E0
1.645408031E1,5.905147195E-1,-9.732948303E0,-1.044688582E0
1.647435021E1,5.786395669E-1,-9.762868881E0,-7.224712968E-1
1.649462021E1,4.887912571E-1,-9.784642220E0,-4.384574890E-1
1.651502021E1,3.596804142E-1,-9.797587395E0,-2.197722793E-1
1.653516005E1,2.503584325E-1,-9.803187370E0,-7.228571922E-2
1.655543000E1,1.887837946E-1,-9.804684639E0,5.391529948E-2
1.657569990E1,1.732454002E-1,-9.803097725E0,1.991282552E-1
1.659596984E1,1.694394499E-1,-9.798881531E0,3.515618145E-1
1.661636984E1,1.116294339E-1,-9.792981148E0,5.054154992E-1
1.663650969E1,1.328541432E-2,-9.785004616E0,6.510707736E-1
1.665677964E1,-1.037358120E-1,-9.774713516E0,7.839614153E-1
1.667704958E1,-2.501417696E-1,-9.762686729E0,8.931770325E-1
1.669731948E1,-4.101228416E-1,-9.749537468E0,9.740108848E-1
1.671771948E1,-5.333791375E-1,-9.738382339E0,1.024603963E0
1.673785938E1,-5.894917846E-1,-9.732027054E0,1.053815365E0
1.675812932E1,-6.007796526E-1,-9.729139328E0,1.073915124E0
1.677839922E1,-5.807741284E-1,-9.734585762E0,1.034850597E0
1.679862984E1,-4.629952610E-1,-9.755117416E0,8.908993006E-1
1.681902984E1,-2.728869617E-1,-9.782619476E0,6.295136809E-1
1.683920912E1,-6.998868287E-2,-9.803458214E0,2.402191907E-1
1.685947906E1,9.413312376E-2,-9.803203583E0,-2.423420697E-1
1.687974896E1,2.471866012E-1,-9.779973030E0,-6.792860031E-1
1.690001886E1,3.992885351E-1,-9.741814613E0,-1.052625775E0
1.692028880E1,5.725988746E-1,-9.688402176E0,-1.406197071E0
1.694055875E1,7.818439603E-1,-9.603357315E0,-1.826096535E0
1.696082865E1,9.481982589E-1,-9.486866951E0,-2.295789242E0
1.698109859E1,9.875592589E-1,-9.360473633E0,-2.752568245E0
1.700136849E1,9.003614783E-1,-9.226363182E0,-3.199056149E0
1.702163844E1,7.937985659E-1,-9.090907097E0,-3.591056824E0
1.704190833E1,7.447798848E-1,-8.949477196E0,-3.939865589E0
1.706217828E1,8.189252615E-1,-8.792441368E0,-4.265292645E0
1.708244823E1,9.701110721E-1,-8.682431221E0,-4.454735279E0
1.710271818E1,1.050833941E0,-8.642618179E0,-4.513456345E0
1.712298807E1,1.042083859E0,-8.641963959E0,-4.516737461E0
1.714325802E1,9.994060993E-1,-8.695585251E0,-4.422485352E0
1.716352797E1,9.056550860E-1,-8.802561760E0,-4.226711750E0
1.718379787E1,7.702041268E-1,-8.927294731E0,-3.985045671E0
1.720406781E1,6.237288117E-1,-9.029279709E0,-3.775373697E0
1.722446781E1,4.857979417E-1,-9.091548920E0,-3.643915892E0
1.724460771E1,4.050715268E-1,-9.126186371E0,-3.566372871E0
1.726487761E1,3.662218750E-1,-9.128719330E0,-3.564091206E0
1.728514755E1,3.752883971E-1,-9.094906807E0,-3.648591518E0
1.730541750E1,4.191261828E-1,-9.024777412E0,-3.814199924E0
1.732568745E1,4.947654903E-1,-9.012296677E0,-3.834594488E0
1.734595734E1,7.141468525E-1,-9.072221756E0,-3.654473782E0
1.736622729E1,1.057491302E0,-9.180903435E0,-3.280717611E0
1.738649724E1,1.270522952E0,-9.299092293E0,-2.843067408E0
1.740676719E1,1.294488549E0,-9.406434059E0,-2.452280760E0
1.742703714E1,1.108154178E0,-9.513495445E0,-2.106129408E0
1.744730703E1,7.817316651E-1,-9.598669052E0,-1.850631118E0
1.746757698E1,4.500678480E-1,-9.644587517E0,-1.717486143E0
1.748784693E1,4.408360422E-1,-9.663882256E0,-1.607928514E0
1.750811688E1,6.543970704E-1,-9.685577393E0,-1.389873743E0
1.752838682E1,7.704235911E-1,-9.722353935E0,-1.025987029E0
1.754865677E1,8.334670067E-1,-9.748014450E0,-6.722527742E-1
1.756892667E1,7.998070121E-1,-9.764281273E0,-4.353326857E-1
1.758919667E1,7.226840854E-1,-9.774547577E0,-3.260765076E-1
1.760946656E1,7.032827139E-1,-9.776852608E0,-2.981974483E-1
1.762973651E1,7.202292681E-1,-9.778342247E0,-1.888835430E-1
1.765000646E1,7.460965514E-1,-9.778201103E0,2.269495837E-2
1.767027641E1,7.386906743E-1,-9.776641846E0,2.049608976E-1
1.769054636E1,6.302214861E-1,-9.780389786E0,3.423230648E-1
1.771081630E1,4.633135200E-1,-9.784274101E0,4.729813933E-1
1.773108625E1,2.948722243E-1,-9.783927917E0,5.984765291E-1
1.775135620E1,1.594892144E-1,-9.781388283E0,6.851341128E-1
1.777162609E1,7.635698467E-2,-9.780120850E0,7.167853117E-1
1.779189609E1,4.152882844E-2,-9.779908180E0,7.225342393E-1
1.781216604E1,4.035152495E-2,-9.778367043E0,7.431659698E-1
1.783243599E1,6.092195958E-2,-9.778648376E0,7.380476594E-1
1.785270594E1,1.255017370E-1,-9.784018517E0,6.539331675E-1
1.787297583E1,2.624953091E-1,-9.791136742E0,4.848817289E-1
1.789324578E1,4.622300565E-1,-9.793547630E0,2.077277899E-1
1.791351578E1,6.670931578E-1,-9.781878471E0,-2.005639076E-1
1.793378573E1,8.118582964E-1,-9.750525475E0,-6.622048020E-1
1.795405568E1,9.036052227E-1,-9.708131790E0,-1.051702738E0
1.797432563E1,9.932765961E-1,-9.658890724E0,-1.374632716E0
1.799459557E1,1.119874239E0,-9.598032951E0,-1.671533704E0
1.801499557E1,1.287925243E0,-9.507274628E0,-2.030604124E0
1.803513547E1,1.470401525E0,-9.372295380E0,-2.483623981E0
1.805540542E1,1.613449454E0,-9.205662727E0,-2.970345259E0
1.807567537E1,1.686970830E0,-9.031921387E0,-3.427670240E0
1.809594537E1,1.666789293E0,-8.873271942E0,-3.828478098E0
1.811634536E1,1.616473556E0,-8.737202644E0,-4.149541855E0
1.813648526E1,1.611372232E0,-8.640948296E0,-4.348319530E0
1.815675521E1,1.611527085E0,-8.582845688E0,-4.461852551E0
1.817702516E1,1.547658086E0,-8.549841881E0,-4.547014713E0
1.819729511E1,1.435184479E0,-8.561660767E0,-4.561645031E0
1.821769510E1,1.313308716E0,-8.632371902E0,-4.464053154E0
1.823783505E1,1.195221901E0,-8.740620613E0,-4.282917976E0
1.825810500E1,1.087815762E0,-8.858532906E0,-4.063671589E0
1.827837495E1,9.989305735E-1,-8.963172913E0,-3.851498127E0
1.829864490E1,8.789147139E-1,-9.027127266E0,-3.729460001E0
1.831891484E1,7.249534130E-1,-9.049561501E0,-3.708137035E0
1.833918484E1,6.802167296E-1,-9.054854393E0,-3.703687668E0
1.835945479E1,7.084412575E-1,-9.053091049E0,-3.702707767E0
1.837972474E1,7.209936380E-1,-9.031394958E0,-3.752925396E0
1.839999469E1,6.265712976E-1,-9.054477692E0,-3.714060068E0
1.842026469E1,5.476844907E-1,-9.137407303E0,-3.518269062E0
1.844053464E1,7.548972368E-1,-9.227963448E0,-3.231902122E0
1.846080458E1,1.014578581E0,-9.316865921E0,-2.887392282E0
1.848107458E1,1.143252730E0,-9.409466743E0,-2.515016317E0
1.850134453E1,1.052882552E0,-9.510475159E0,-2.147713423E0
1.852161448E1,8.033500314E-1,-9.598836899E0,-1.840475559E0
1.854188448E1,5.698655248E-1,-9.650974274E0,-1.644488096E0
1.856215443E1,5.634937882E-1,-9.673452377E0,-1.509033084E0
1.858242438E1,7.348261476E-1,-9.693065643E0,-1.294180989E0
1.860269438E1,8.644874692E-1,-9.722600937E0,-9.455619454E-1
1.862296432E1,9.255418777E-1,-9.744684219E0,-5.957239866E-1
1.864323427E1,8.669915199E-1,-9.762488365E0,-3.354620039E-1
1.866350427E1,7.392992973E-1,-9.777487755E0,-1.567315310E-1
1.868377422E1,6.319521666E-1,-9.786108971E0,-5.561818182E-2
1.870404422E1,5.501032472E-1,-9.790994644E0,6.479112059E-2
1.872431417E1,5.116804242E-1,-9.789663315E0,2.665437460E-1
1.874458412E1,4.874406755E-1,-9.782762527E0,4.799330831E-1
1.876485412E1,4.153529108E-1,-9.777096748E0,6.373761892E-1
1.878512401E1,2.770530581E-1,-9.773339272E0,7.585856318E-1
1.880539401E1,9.634885937E-2,-9.767558098E0,8.694278598E-1
1.882566401E1,-7.812601328E-2,-9.762278557E0,9.285488725E-1
1.884593396E1,-1.991120279E-1,-9.760018349E0,9.342383146E-1
1.886620391E1,-2.596053481E-1,-9.759110451E0,9.288573861E-1
1.888647391E1,-2.801733017E-1,-9.758007050E0,9.344376922E-1
1.890674386E1,-2.647584975E-1,-9.758263588E0,9.362604022E-1
1.892701380E1,-1.778233051E-1,-9.765735626E0,8.770218492E-1
1.894728380E1,-3.789182380E-2,-9.776772499E0,7.639896274E-1
1.896755375E1,1.241287515E-1,-9.788583755E0,5.819095969E-1
1.898782375E1,3.150195777E-1,-9.798892975E0,2.298969924E-1
1.900809370E1,4.870272279E-1,-9.791084290E0,-2.605399787E-1
1.902836365E1,6.324703097E-1,-9.759841919E0,-7.182281613E-1
1.904863365E1,7.636166811E-1,-9.716220856E0,-1.087350130E0
1.906890359E1,8.970884085E-1,-9.669916153E0,-1.363204122E0
1.908917354E1,1.071049452E0,-9.607112885E0,-1.651248693E0
1.910944354E1,1.274667025E0,-9.504563332E0,-2.051556826E0
1.912971349E1,1.439162135E0,-9.359258652E0,-2.550192833E0
1.914998349E1,1.524605155E0,-9.190041542E0,-3.064164400E0
1.917025344E1,1.535050154E0,-9.013283730E0,-3.546085119E0
1.919052339E1,1.487790704E0,-8.834021568E0,-3.989601851E0
1.921079339E1,1.445468187E0,-8.695250511E0,-4.298095703E0
1.923106333E1,1.418604016E0,-8.629159927E0,-4.437966347E0
1.925133333E1,1.367431402E0,-8.587115288E0,-4.534531593E0
1.927160323E1,1.312254071E0,-8.576698303E0,-4.570407391E0
1.929187323E1,1.261492014E0,-8.626073837E0,-4.491087914E0
1.931214323E1,1.193193913E0,-8.723479271E0,-4.318284512E0
1.933241318E1,1.100114942E0,-8.841170311E0,-4.098028660E0
1.935268313E1,1.015818357E0,-8.948643684E0,-3.880757570E0
1.937295313E1,9.449789524E-1,-9.007271767E0,-3.761178970E0
1.939322307E1,8.854987025E-1,-9.013490677E0,-3.760751247E0
1.941349302E1,7.703175545E-1,-9.013813972E0,-3.785253048E0
1.943376302E1,5.232683420E-1,-9.035157204E0,-3.776575327E0
1.945403297E1,3.156780601E-1,-9.051649094E0,-3.760104418E0
1.947430297E1,2.973062098E-1,-9.120239258E0,-3.592104673E0
1.949457292E1,4.506078660E-1,-9.245398521E0,-3.238817453E0
1.951497292E1,5.865155458E-1,-9.349177361E0,-2.901597023E0
1.953511287E1,6.919076443E-1,-9.421916962E0,-2.630425215E0
1.955538281E1,7.838286161E-1,-9.499384880E0,-2.306011438E0
1.957565281E1,7.745445371E-1,-9.576536179E0,-1.964798093E0
1.959592276E1,6.137555838E-1,-9.649244308E0,-1.638838172E0
1.961632276E1,3.754146993E-1,-9.700069427E0,-1.392157793E0
1.963646271E1,3.277220428E-1,-9.733161926E0,-1.152622700E0
1.965673266E1,4.484406710E-1,-9.760578156E0,-8.369016647E-1
1.967700261E1,5.423058867E-1,-9.778659821E0,-5.040993690E-1
1.969727250E1,5.762094259E-1,-9.786436081E0,-2.530368567E-1
1.971767250E1,5.101664066E-1,-9.793136597E0,-6.777079403E-2
1.973781250E1,3.843897581E-1,-9.798668861E0,9.335223585E-2
1.975808245E1,2.452013195E-1,-9.799291611E0,2.900706828E-1
1.977835245E1,1.173708066E-1,-9.792534828E0,5.127069950E-1
1.979858307E1,3.835457610E-3,-9.782427788E0,6.888282895E-1
1.981898307E1,-1.196854711E-1,-9.773237228E0,7.999426723E-1
1.983916240E1,-2.658799887E-1,-9.764712334E0,8.660865426E-1
1.985943234E1,-3.879721165E-1,-9.758124352E0,8.937950134E-1
1.987970229E1,-4.315686524E-1,-9.757973671E0,8.752602339E-1
1.989997224E1,-4.427477419E-1,-9.760789871E0,8.374679089E-1
1.992037224E1,-4.631399214E-1,-9.762219429E0,8.092988133E-1
1.994051219E1,-4.730375409E-1,-9.767562866E0,7.357669473E-1
1.996078214E1,-3.817170560E-1,-9.781901360E0,5.823200941E-1
1.998105214E1,-1.992543936E-1,-9.799337387E0,3.220147192E-1
2.000132208E1,4.827266559E-2,-9.806488991E0,-2.883692272E-2
2.002159198E1,2.921337485E-1,-9.793504715E0,-4.151214361E-1
2.004186198E1,4.516457319E-1,-9.761301994E0,-8.266706467E-1
2.006213193E1,5.812599659E-1,-9.711992264E0,-1.228714705E0
2.008240188E1,7.026181817E-1,-9.650068283E0,-1.597776413E0
2.010267188E1,7.939661741E-1,-9.557518005E0,-2.047884226E0
2.012294182E1,8.662067056E-1,-9.423871040E0,-2.571132898E0
2.014321177E1,9.163513780E-1,-9.266511917E0,-3.076108932E0
2.016348172E1,8.958148360E-1,-9.105806351E0,-3.528764248E0
2.018375172E1,8.306906819E-1,-8.953436852E0,-3.913604736E0
2.020402167E1,7.960929275E-1,-8.823340416E0,-4.205388546E0
2.022429162E1,8.101479411E-1,-8.726740837E0,-4.399776459E0
2.024456156E1,8.257231712E-1,-8.685765266E0,-4.477281570E0
2.026483156E1,7.839234471E-1,-8.696652412E0,-4.463640213E0
2.028510151E1,6.859112978E-1,-8.752961159E0,-4.368704796E0
2.030537146E1,5.955154300E-1,-8.845749855E0,-4.191474438E0
2.032564141E1,5.153791904E-1,-8.933286667E0,-4.012624264E0
2.034591136E1,4.366360605E-1,-8.985643387E0,-3.903581142E0
2.036618136E1,3.534913063E-1,-9.015679359E0,-3.842261076E0
2.038645130E1,2.927792668E-1,-9.027809143E0,-3.818814039E0
2.040672125E1,2.617615163E-1,-9.010863304E0,-3.860857964E0
2.042699120E1,1.591045856E-1,-8.926743507E0,-4.056885719E0
2.044726115E1,8.444270492E-2,-8.859519958E0,-4.203827381E0
2.046753115E1,2.578488588E-1,-8.937524796E0,-4.027971745E0
2.048780109E1,5.762878656E-1,-9.106592178E0,-3.592808485E0
2.050807104E1,6.596557498E-1,-9.249505043E0,-3.190908432E0
2.052834099E1,5.033952594E-1,-9.355532646E0,-2.896723270E0
2.054861094E1,3.552671075E-1,-9.468032837E0,-2.529924154E0
2.056888089E1,2.540866435E-1,-9.568539619E0,-2.132810116E0
2.058915089E1,1.915361881E-1,-9.637413979E0,-1.803869605E0
2.060942083E1,1.832862347E-1,-9.673504829E0,-1.600028276E0
2.062969078E1,2.204769254E-1,-9.697531700E0,-1.442100286E0
2.064996073E1,2.830445170E-1,-9.725955009E0,-1.223140836E0
2.067023068E1,3.271742463E-1,-9.756866455E0,-9.310755730E-1
2.069050063E1,3.221314847E-1,-9.783676147E0,-5.884618163E-1
2.071077057E1,2.146805972E-1,-9.801363945E0,-2.399565130E-1
2.073104052E1,5.152747780E-2,-9.806508064E0,1.135263685E-2
2.075131047E1,-1.008568034E-1,-9.804423332E0,1.830037236E-1
2.077158042E1,-2.148850262E-1,-9.796770096E0,3.840562105E-1
2.079185031E1,-3.111593723E-1,-9.782316208E0,6.163204312E-1
2.081212031E1,-4.393825829E-1,-9.764283180E0,7.975691557E-1
2.083239031E1,-6.160649061E-1,-9.747173309E0,8.851374984E-1
2.085266026E1,-7.682644725E-1,-9.734815598E0,9.019545913E-1
2.087293021E1,-8.312616348E-1,-9.731163979E0,8.853393197E-1
2.089320011E1,-8.428741097E-1,-9.733534813E0,8.475073576E-1
2.091347011E1,-8.436052203E-1,-9.737385750E0,8.012664914E-1
2.093374005E1,-7.836878300E-1,-9.748866081E0,7.182216048E-1
2.095401000E1,-6.412301064E-1,-9.769060135E0,5.698120594E-1
2.097427995E1,-4.341460764E-1,-9.791464806E0,3.303463161E-1
2.099454990E1,-1.888182312E-1,-9.804691315E0,-5.258897692E-2
2.101494990E1,2.416761778E-2,-9.793902397E0,-4.992769063E-1
2.103508974E1,1.970488280E-1,-9.762766838E0,-9.055069089E-1
2.105535969E1,3.345167339E-1,-9.718035698E0,-1.272104621E0
2.107562964E1,4.564588368E-1,-9.650238991E0,-1.683720231E0
2.109589958E1,5.656914115E-1,-9.547149658E0,-2.168481588E0
2.111629958E1,6.548921466E-1,-9.412794113E0,-2.672232628E0
2.113643948E1,6.592969894E-1,-9.273056984E0,-3.121880770E0
2.115670943E1,5.638435483E-1,-9.136570930E0,-3.517889023E0
2.117697938E1,4.148361385E-1,-9.005871773E0,-3.859089613E0
2.119724932E1,3.104279041E-1,-8.878987312E0,-4.151820183E0
2.121764932E1,3.098445535E-1,-8.760617256E0,-4.396131039E0
2.123778922E1,3.455711305E-1,-8.691838264E0,-4.528013706E0
2.125805917E1,3.220255971E-1,-8.681446075E0,-4.549634457E0
2.127832906E1,2.531144917E-1,-8.726827621E0,-4.466408253E0
2.129859901E1,1.907706410E-1,-8.814858437E0,-4.293281555E0
2.131886896E1,1.277436316E-1,-8.906643867E0,-4.101921082E0
2.133913891E1,6.811135262E-2,-8.970799446E0,-3.961123943E0
2.135940886E1,2.449892648E-2,-9.010351181E0,-3.870834112E0
2.137967880E1,-3.311102837E-2,-9.037928581E0,-3.805933714E0
2.139994875E1,-8.091278374E-2,-9.048334122E0,-3.780409098E0
2.142021865E1,-1.168885976E-1,-9.005610466E0,-3.880167723E0
2.144048859E1,-1.211789250E-1,-8.924126625E0,-4.063948154E0
2.146075854E1,-7.980798930E-2,-8.945845604E0,-4.016947746E0
2.148102844E1,4.548535123E-2,-9.057446480E0,-3.759121180E0
2.150129839E1,1.082138717E-1,-9.162364960E0,-3.494245768E0
2.152156833E1,1.152662858E-1,-9.253685951E0,-3.244442225E0
2.154183828E1,1.697295606E-1,-9.386206627E0,-2.835612535E0
2.156210818E1,1.348947138E-1,-9.518659592E0,-2.355274439E0
2.158237813E1,-1.695446856E-2,-9.606566429E0,-1.970782518E0
2.160264802E1,-1.637225300E-1,-9.644609451E0,-1.767789960E0
2.162291797E1,-2.305472940E-1,-9.668239594E0,-1.625540733E0
2.164318792E1,-2.348110676E-1,-9.705363274E0,-1.386059642E0
2.166345781E1,-1.619116962E-1,-9.742743492E0,-1.105946779E0
2.168372776E1,-1.033084840E-1,-9.767950058E0,-8.642099500E-1
2.170399766E1,-1.705777049E-1,-9.785632133E0,-6.186295748E-1
2.172439766E1,-3.184531331E-1,-9.794316292E0,-3.746099472E-1
2.174453755E1,-4.652059674E-1,-9.794260979E0,-1.625377387E-1
2.176480745E1,-5.822677612E-1,-9.789298058E0,3.163171932E-2
2.178507740E1,-6.671497226E-1,-9.780735016E0,2.500291765E-1
2.180534724E1,-7.506496906E-1,-9.767191887E0,4.570355713E-1
2.182561724E1,-8.707917333E-1,-9.751004219E0,5.744896531E-1
2.184588714E1,-9.957252741E-1,-9.737648010E0,5.975977778E-1
2.186615703E1,-1.056412220E0,-9.732218742E0,5.816358328E-1
2.188642698E1,-1.049756408E0,-9.733807564E0,5.669131279E-1
2.190669688E1,-1.028092861E0,-9.735842705E0,5.716633201E-1
2.192696682E1,-9.689497352E-1,-9.742619514E0,5.593546033E-1
2.194723672E1,-8.159916997E-1,-9.760734558E0,4.822810590E-1
2.196750662E1,-6.001651883E-1,-9.782705307E0,3.299311996E-1
2.198777656E1,-3.305368721E-1,-9.800662041E0,9.025073051E-2
2.200804646E1,-8.382470161E-2,-9.802160263E0,-2.846360207E-1
2.202831641E1,6.177026778E-2,-9.780012131E0,-7.196769118E-1
2.204858630E1,1.602084488E-1,-9.739460945E0,-1.134725928E0
2.206885625E1,2.864288986E-1,-9.686347008E0,-1.504335165E0
2.208912615E1,4.068424404E-1,-9.610544205E0,-1.908483028E0
2.210939604E1,5.194106102E-1,-9.501937866E0,-2.369344234E0
2.212966599E1,6.035115123E-1,-9.366868973E0,-2.840409279E0
2.214993589E1,6.163088083E-1,-9.223863602E0,-3.272749662E0
2.217020578E1,5.499921441E-1,-9.082360268E0,-3.657678843E0
2.219047568E1,4.923709035E-1,-8.941213608E0,-3.997833490E0
2.221074563E1,5.167504549E-1,-8.802687645E0,-4.291391850E0
2.223101552E1,5.738863945E-1,-8.706682205E0,-4.476016998E0
2.225128542E1,5.912889838E-1,-8.672816277E0,-4.539056301E0
2.227155536E1,5.408585668E-1,-8.693206787E0,-4.506217957E0
2.229182526E1,4.658331573E-1,-8.771222115E0,-4.361081123E0
2.231209516E1,3.784250617E-1,-8.877918243E0,-4.148463249E0
2.233236510E1,2.803098857E-1,-8.964261055E0,-3.966587782E0
2.235263495E1,1.666009426E-1,-9.018493652E0,-3.848298073E0
2.237290490E1,8.183673024E-2,-9.054971695E0,-3.764462709E0
2.239317479E1,2.939300053E-2,-9.065081596E0,-3.740829945E0
2.241344469E1,-4.525908269E-3,-9.022689819E0,-3.842061043E0
2.243371464E1,-5.961461365E-2,-8.916384697E0,-4.082267761E0
2.245398453E1,-5.164982285E-3,-8.912191391E0,-4.091845512E0
2.247425443E1,2.255917042E-1,-9.037659645E0,-3.800028086E0
2.249452432E1,3.863119185E-1,-9.188934326E0,-3.403621197E0
2.251492432E1,2.923675179E-1,-9.296008110E0,-3.109524488E0
2.253506412E1,2.262485027E-1,-9.399024963E0,-2.788821697E0
2.255533401E1,2.481914312E-1,-9.510487556E0,-2.378948450E0
2.257560396E1,2.195439190E-1,-9.590750694E0,-2.034624577E0
2.259587386E1,1.635535061E-1,-9.626281738E0,-1.865030408E0
2.261627386E1,1.065690666E-1,-9.649806023E0,-1.743638515E0
2.263641365E1,1.219568923E-1,-9.692542076E0,-1.486658096E0
2.265668354E1,2.559253275E-1,-9.734193802E0,-1.162041545E0
2.267695344E1,3.451631665E-1,-9.763821602E0,-8.479658961E-1
2.269722333E1,2.851805389E-1,-9.786561012E0,-5.588304996E-1
2.271762333E1,1.276426762E-1,-9.800384521E0,-3.264321685E-1
2.273776313E1,-2.170265466E-2,-9.805768967E0,-1.296976656E-1
2.275803302E1,-1.343382895E-1,-9.805262566E0,9.560880065E-2
2.277830292E1,-2.210035026E-1,-9.797998428E0,3.475015461E-1
2.279849422E1,-3.366411924E-1,-9.784170151E0,5.719125867E-1
2.281889422E1,-5.200191140E-1,-9.767762184E0,7.005518675E-1
2.283911276E1,-6.993770599E-1,-9.753774643E0,7.383387089E-1
2.285938260E1,-7.865753174E-1,-9.746791840E0,7.427955866E-1
2.287965250E1,-7.989152074E-1,-9.745594978E0,7.453165054E-1
2.289992240E1,-7.868947983E-1,-9.746662140E0,7.441523671E-1
2.292019229E1,-7.456811070E-1,-9.754687309E0,6.785473228E-1
2.294046214E1,-6.083365083E-1,-9.773732185E0,5.239129066E-1
2.296073198E1,-3.986481726E-1,-9.795125008E0,2.588333488E-1
2.298100193E1,-1.354902387E-1,-9.804891586E0,-1.270740479E-1
2.300127177E1,8.458347619E-2,-9.787614822E0,-6.048430800E-1
2.302154167E1,2.380544841E-1,-9.747819901E0,-1.045814037E0
2.304181156E1,3.456828296E-1,-9.696575165E0,-1.423843026E0
2.306208141E1,4.453869760E-1,-9.628024101E0,-1.809189916E0
2.308235130E1,5.758830905E-1,-9.515953064E0,-2.298995972E0
2.310262120E1,7.042568922E-1,-9.370330811E0,-2.805586100E0
2.312289109E1,7.605562806E-1,-9.229537964E0,-3.226075411E0
2.314316099E1,7.092311978E-1,-9.097993851E0,-3.590806723E0
2.316343083E1,6.038257480E-1,-8.975090027E0,-3.905578136E0
2.318370073E1,5.241776109E-1,-8.857350349E0,-4.176477909E0
2.320397063E1,5.369251370E-1,-8.736883163E0,-4.421422482E0
2.322424052E1,6.199218631E-1,-8.654767990E0,-4.569579601E0
2.324451042E1,6.436702013E-1,-8.648664474E0,-4.577844143E0
2.326478026E1,5.786486864E-1,-8.694999695E0,-4.498058796E0
2.328505016E1,4.874509573E-1,-8.777116776E0,-4.346837044E0
2.330532005E1,3.603390753E-1,-8.871540070E0,-4.163689613E0
2.332558995E1,2.198335379E-1,-8.934690475E0,-4.036504269E0
2.334585979E1,1.376482099E-1,-8.968867302E0,-3.963691473E0
2.336612969E1,3.672719374E-2,-8.979484558E0,-3.941813946E0
2.338639958E1,-2.741704509E-2,-8.961589813E0,-3.982403755E0
2.340666943E1,-1.002353430E-1,-8.857217789E0,-4.208328724E0
2.342693932E1,-6.669031829E-2,-8.780150414E0,-4.367481709E0
2.344720917E1,1.171877459E-1,-8.877503395E0,-4.164923668E0
2.346747906E1,3.131965399E-1,-9.032610893E0,-3.805814028E0
2.348774896E1,2.100929320E-1,-9.146747589E0,-3.530335426E0
2.350801880E1,1.953577437E-2,-9.255033493E0,-3.242586136E0
2.352828870E1,-2.135811932E-2,-9.390459061E0,-2.826516390E0
2.354855854E1,-2.223537862E-2,-9.509570122E0,-2.395405531E0
2.356882844E1,-1.388749108E-2,-9.583610535E0,-2.079568863E0
2.358909828E1,-2.137851343E-2,-9.624011040E0,-1.883707285E0
2.360936818E1,-2.401068807E-2,-9.665927887E0,-1.655186892E0
2.362963802E1,5.492340773E-2,-9.712223053E0,-1.356497765E0
2.364990792E1,1.128382161E-1,-9.748524666E0,-1.060152531E0
2.367017776E1,5.322319269E-2,-9.777326584E0,-7.559421659E-1
2.369044761E1,-8.579520136E-2,-9.794936180E0,-4.714258015E-1
2.371071750E1,-2.600789964E-1,-9.800463676E0,-2.316327542E-1
2.373098740E1,-4.151013494E-1,-9.797849655E0,-1.405663136E-2
2.375125724E1,-5.376400352E-1,-9.789669991E0,2.090670168E-1
2.377152714E1,-6.603223681E-1,-9.775093079E0,4.265225232E-1
2.379179698E1,-8.167282939E-1,-9.757104874E0,5.497635007E-1
2.381206682E1,-9.784221053E-1,-9.740764618E0,5.749502778E-1
2.383233672E1,-1.059941053E0,-9.732455254E0,5.711570978E-1
2.385260656E1,-1.073104143E0,-9.730766296E0,5.753450394E-1
2.387287646E1,-1.055270076E0,-9.732692719E0,5.757483244E-1
2.389314630E1,-9.789890051E-1,-9.744123459E0,5.138445497E-1
2.391341615E1,-7.980324030E-1,-9.767395020E0,3.626481295E-1
2.393368604E1,-5.637641549E-1,-9.790011406E0,9.065759182E-2
2.395395589E1,-2.808699012E-1,-9.798305511E0,-2.910556793E-1
2.397422573E1,-6.048956141E-2,-9.779530525E0,-7.262967825E-1
2.399449563E1,9.840770811E-2,-9.738850594E0,-1.146951079E0
2.401489563E1,2.527646720E-1,-9.683304787E0,-1.529740572E0
2.403503531E1,4.144802392E-1,-9.602667809E0,-1.946114659E0
2.405530521E1,5.678450465E-1,-9.479043007E0,-2.448606014E0
2.407557505E1,6.685143709E-1,-9.337672234E0,-2.920848608E0
2.409584490E1,6.906951070E-1,-9.202157021E0,-3.318681240E0
2.411624490E1,6.381235719E-1,-9.068302155E0,-3.678189039E0
2.413638458E1,5.469000340E-1,-8.937369347E0,-3.999340057E0
2.415665448E1,4.835146368E-1,-8.803142548E0,-4.294332027E0
2.417692432E1,4.854815900E-1,-8.683102608E0,-4.531934261E0
2.419719417E1,5.061032772E-1,-8.637290955E0,-4.616431713E0
2.421759417E1,4.767899215E-1,-8.664778709E0,-4.567786217E0
2.423773386E1,4.088996947E-1,-8.733075142E0,-4.442588806E0
2.425800375E1,3.375680149E-1,-8.828758240E0,-4.255521774E0
2.427827359E1,2.512285411E-1,-8.916134834E0,-4.075514793E0
2.429854344E1,1.487370729E-1,-8.977437973E0,-3.943840265E0
2.431881328E1,5.219744891E-2,-9.035528183E0,-3.811414480E0
2.433908313E1,-7.057270408E-2,-9.051138878E0,-3.773896933E0
2.435935297E1,-1.192626357E-1,-9.019581795E0,-3.847507477E0
2.437962286E1,-1.105415076E-1,-8.949461937E0,-4.008152962E0
2.439989271E1,-3.490828443E-3,-8.912395477E0,-4.091401577E0
2.442029271E1,1.982016861E-1,-9.048818588E0,-3.774915695E0
2.444043240E1,3.331916928E-1,-9.234998703E0,-3.282405615E0
2.446070224E1,3.145201504E-1,-9.317206383E0,-3.043213129E0
2.448097208E1,2.873300612E-1,-9.348399162E0,-2.948771954E0
2.450124193E1,2.684978843E-1,-9.420255661E0,-2.712393045E0
2.452151177E1,1.817527711E-1,-9.514642715E0,-2.368317842E0
2.454178162E1,3.873389214E-2,-9.582729340E0,-2.083305597E0
2.456205146E1,-8.082286268E-2,-9.603215218E0,-1.985473990E0
2.458232136E1,-1.428183615E-1,-9.632223129E0,-1.835828900E0
2.460259115E1,-1.240708455E-1,-9.686755180E0,-1.523734093E0
2.462286104E1,-3.546387702E-2,-9.738427162E0,-1.154190063E0
2.464313089E1,-1.560598984E-2,-9.772684097E0,-8.153331280E-1
2.466340073E1,-1.092685238E-1,-9.790892601E0,-5.448572636E-1
2.468367057E1,-2.304747105E-1,-9.798596382E0,-3.237012625E-1
2.470394042E1,-3.251876831E-1,-9.800903320E0,-8.319855481E-2
2.472421026E1,-4.139952958E-1,-9.796554565E0,1.628205329E-1
2.474448010E1,-5.480216742E-1,-9.783439636E0,3.928917050E-1
2.476474995E1,-7.149300575E-1,-9.763511658E0,5.771648288E-1
2.478501979E1,-8.653295040E-1,-9.743478775E0,6.972880960E-1
2.480528958E1,-9.372919798E-1,-9.731946945E0,7.622827888E-1
2.482555943E1,-9.334859252E-1,-9.730191231E0,7.889115810E-1
2.484582927E1,-9.033793211E-1,-9.730297089E0,8.219566941E-1
2.486609906E1,-8.382596374E-1,-9.734697342E0,8.386682868E-1
2.488636896E1,-6.935411692E-1,-9.750019073E0,7.915180326E-1
2.490663880E1,-5.058777332E-1,-9.771599770E0,6.559924483E-1
2.492690859E1,-2.813541591E-1,-9.793684006E0,4.183005393E-1
2.494717844E1,-7.382781804E-2,-9.806364059E0,1.257875841E-2
2.496744828E1,4.261239618E-2,-9.796450615E0,-4.450888336E-1
2.498771813E1,1.261196584E-1,-9.766749382E0,-8.746924996E-1
2.500798797E1,2.271424085E-1,-9.722151756E0,-1.264341950E0
2.502825781E1,3.476067185E-1,-9.658307076E0,-1.663334608E0
2.504852760E1,4.817106128E-1,-9.557459831E0,-2.143197775E0
2.506879745E1,5.999002457E-1,-9.427042961E0,-2.634646416E0
2.508906729E1,6.265020967E-1,-9.282758713E0,-3.099719763E0
2.510933708E1,5.565199256E-1,-9.139278412E0,-3.512016535E0
2.512960693E1,4.626235664E-1,-9.000353813E0,-3.866523981E0
2.514987677E1,4.520340860E-1,-8.864305496E0,-4.170147419E0
2.517014656E1,5.216539502E-1,-8.784598351E0,-4.327713966E0
2.519041641E1,5.214688182E-1,-8.771337509E0,-4.354550362E0
2.521068625E1,4.417456388E-1,-8.800948143E0,-4.303320408E0
2.523095604E1,3.534130454E-1,-8.870101929E0,-4.167346001E0
2.525122589E1,2.634617090E-1,-8.960803032E0,-3.975549936E0
2.527149573E1,1.822160482E-1,-9.034589767E0,-3.809642315E0
2.529176552E1,1.182586625E-1,-9.080007553E0,-3.702685356E0
2.531203536E1,3.358189762E-2,-9.103263855E0,-3.646893263E0
2.533230516E1,-3.955231979E-2,-9.097294807E0,-3.661698580E0
2.535257500E1,-7.535806298E-2,-9.030440331E0,-3.823068380E0
2.537284484E1,-5.619461462E-2,-8.941753387E0,-4.026446819E0
2.539311464E1,6.399069726E-2,-8.976690292E0,-3.947826147E0
2.541338443E1,1.966971159E-1,-9.083425522E0,-3.690945864E0
2.543365427E1,1.856202483E-1,-9.184933662E0,-3.431170225E0
2.545392412E1,1.568110883E-1,-9.298192978E0,-3.112780094E0
2.547419391E1,1.842645258E-1,-9.438063622E0,-2.656951189E0
2.549446375E1,1.137735993E-1,-9.565509796E0,-2.158348560E0
2.551486375E1,-4.716400430E-2,-9.645137787E0,-1.771858454E0
2.553500339E1,-2.006023675E-1,-9.678642273E0,-1.566538215E0
2.555527323E1,-2.771140337E-1,-9.700629234E0,-1.411162376E0
2.557554302E1,-2.606858015E-1,-9.734169960E0,-1.161198020E0
2.559581281E1,-2.188442647E-1,-9.765537262E0,-8.699207306E-1
2.561621281E1,-2.361008823E-1,-9.785118103E0,-6.050658226E-1
2.563635245E1,-3.499239981E-1,-9.793827057E0,-3.590238094E-1
2.565662229E1,-5.036599040E-1,-9.792364120E0,-1.623018831E-1
2.567689208E1,-6.210486889E-1,-9.786947250E0,-1.838983968E-2
2.569716188E1,-6.918372512E-1,-9.781466484E0,1.210097820E-1
2.571756188E1,-7.350265980E-1,-9.774186134E0,3.088855743E-1
2.573770151E1,-7.999361753E-1,-9.761775017E0,4.880977571E-1
2.575797130E1,-9.125071764E-1,-9.746273994E0,5.898031592E-1
2.577824115E1,-1.024958849E0,-9.733353615E0,6.177943945E-1
2.579864115E1,-1.086509228E0,-9.725771904E0,6.318525672E-1
2.581893870E1,-1.101717949E0,-9.722329140E0,6.579713821E-1
2.583905120E1,-1.096710205E0,-9.721790314E0,6.740942597E-1
2.585932089E1,-1.023220181E0,-9.731715202E0,6.458594203E-1
2.587959057E1,-8.605312705E-1,-9.753192902E0,5.523548722E-1
2.589986031E1,-6.248990297E-1,-9.779069901E0,3.868869841E-1
2.592013005E1,-3.472069502E-1,-9.799929619E0,1.058480591E-1
2.594039979E1,-1.407628357E-1,-9.800308228E0,-3.233304024E-1
2.596066953E1,-5.736331269E-2,-9.775856972E0,-7.744139433E-1
2.598093932E1,4.627345875E-2,-9.736103058E0,-1.173265576E0
2.600120912E1,1.745171547E-1,-9.680447578E0,-1.558485746E0
2.602147891E1,3.111954927E-1,-9.593267441E0,-2.010663509E0
2.604174870E1,4.426820576E-1,-9.471759796E0,-2.502037764E0
2.606201844E1,5.314260721E-1,-9.333933830E0,-2.960685492E0
2.608228828E1,5.157355666E-1,-9.201322556E0,-3.352620602E0
2.610255807E1,4.248417318E-1,-9.084940910E0,-3.667934895E0
2.612282786E1,3.559593260E-1,-8.973386765E0,-3.939799547E0
2.614309766E1,3.795692027E-1,-8.879737854E0,-4.144464493E0
2.616336745E1,4.274039865E-1,-8.825925827E0,-4.253320694E0
2.618363729E1,4.124960005E-1,-8.812773705E0,-4.281966686E0
2.620390703E1,3.410876691E-1,-8.840330124E0,-4.231146812E0
2.622430703E1,2.636986971E-1,-8.910840988E0,-4.086290359E0
2.624444662E1,1.909048408E-1,-8.999648094E0,-3.891051292E0
2.626471641E1,1.311824769E-1,-9.072192192E0,-3.721360922E0
2.628498620E1,7.491822541E-2,-9.120071411E0,-3.604036331E0
2.630525599E1,1.911915652E-2,-9.148488045E0,-3.532022715E0
2.632552578E1,-2.512133121E-2,-9.144030571E0,-3.543510199E0
2.634579557E1,-3.163312376E-2,-9.109020233E0,-3.632509470E0
2.636606536E1,-3.064201958E-2,-9.026528358E0,-3.832913876E0
2.638633516E1,4.489393905E-2,-9.013899803E0,-3.862378836E0
2.640660495E1,1.891345233E-1,-9.115910530E0,-3.610371828E0
2.642687474E1,2.644470632E-1,-9.234587669E0,-3.289808512E0
2.644714453E1,1.947963238E-1,-9.336091042E0,-2.994969130E0
2.646741432E1,1.436306685E-1,-9.454811096E0,-2.599285364E0
2.648768406E1,9.452055395E-2,-9.572335243E0,-2.128815889E0
2.650795391E1,-3.082294576E-2,-9.650396347E0,-1.743353128E0
2.652822370E1,-1.649888456E-1,-9.683112144E0,-1.542891264E0
2.654849349E1,-2.115511596E-1,-9.691225052E0,-1.485185981E0
2.656876328E1,-2.201453447E-1,-9.714520454E0,-1.322887540E0
2.658903302E1,-1.949929297E-1,-9.748340607E0,-1.049871325E0
2.660930281E1,-1.761678159E-1,-9.773670197E0,-7.840558887E-1
2.662957260E1,-2.369571924E-1,-9.789219856E0,-5.342538953E-1
2.664984240E1,-3.649968207E-1,-9.794440269E0,-3.257507086E-1
2.667011219E1,-4.905962348E-1,-9.792984009E0,-1.648994535E-1
2.669038198E1,-5.826110840E-1,-9.789329529E0,-9.290241287E-4
2.671065172E1,-6.318084002E-1,-9.783915520E0,2.149624825E-1
2.673092151E1,-6.888985634E-1,-9.772280693E0,4.453609884E-1
2.675119130E1,-7.947441936E-1,-9.754732132E0,6.196570396E-1
2.677146109E1,-9.310942292E-1,-9.736006737E0,7.166805863E-1
2.679173089E1,-1.043497443E0,-9.721309662E0,7.600314021E-1
2.681200068E1,-1.087479591E0,-9.714811325E0,7.811622620E-1
2.683227042E1,-1.084298968E0,-9.714810371E0,7.855840921E-1
2.685254021E1,-1.059769869E0,-9.717921257E0,7.805666327E-1
2.687281000E1,-9.459068775E-1,-9.732453346E0,7.449741960E-1
2.689307979E1,-7.527992129E-1,-9.756714821E0,6.404554248E-1
2.691334958E1,-5.158951283E-1,-9.781425476E0,4.774533510E-1
2.693361932E1,-2.533755302E-1,-9.801552773E0,1.890614927E-1
2.695388912E1,-5.243718624E-2,-9.803186417E0,-2.552747428E-1
2.697415891E1,6.791442633E-2,-9.781505585E0,-6.985200644E-1
2.699442865E1,1.753600687E-1,-9.745093346E0,-1.082957625E0
2.701482865E1,3.058965206E-1,-9.692969322E0,-1.457104683E0
2.703496823E1,4.511719942E-1,-9.615958214E0,-1.870875478E0
2.705523802E1,5.930076241E-1,-9.506493568E0,-2.333518028E0
2.707550776E1,6.631568670E-1,-9.374762535E0,-2.800791025E0
2.709577755E1,6.250708699E-1,-9.239030838E0,-3.228001595E0
2.711617755E1,5.244441628E-1,-9.108137131E0,-3.596829176E0
2.713631708E1,4.628616273E-1,-8.981229782E0,-3.910710573E0
2.715658688E1,4.836776257E-1,-8.871265411E0,-4.151758671E0
2.717685667E1,5.385268927E-1,-8.807858467E0,-4.278084755E0
2.719712641E1,5.326231122E-1,-8.786872864E0,-4.321753502E0
2.721752641E1,4.775057733E-1,-8.816255569E0,-4.268019676E0
2.723762651E1,4.153965712E-1,-8.895048141E0,-4.108034611E0
2.725793557E1,3.305304945E-1,-8.986855507E0,-3.911208868E0
2.727820542E1,2.407162488E-1,-9.056291580E0,-3.754466772E0
2.729847516E1,1.854943782E-1,-9.101723671E0,-3.646176577E0
2.731874500E1,1.409495473E-1,-9.126262665E0,-3.586342335E0
2.733901479E1,7.858040184E-2,-9.119645119E0,-3.605036974E0
2.735928453E1,3.399837017E-2,-9.064649582E0,-3.741839409E0
2.737955432E1,7.382756472E-2,-9.015264511E0,-3.858746052E0
2.739982417E1,1.721618921E-1,-9.079376221E0,-3.702116966E0
2.742009391E1,2.242432088E-1,-9.179380417E0,-3.443699598E0
2.744036365E1,1.787866056E-1,-9.259284973E0,-3.225531340E0
2.746063344E1,1.684480458E-1,-9.346527100E0,-2.963857412E0
2.748090323E1,1.965187490E-1,-9.467741966E0,-2.548259497E0
2.750117297E1,1.281491369E-1,-9.580805779E0,-2.088567734E0
2.752144276E1,-2.917885222E-2,-9.642616272E0,-1.785916328E0
2.754171250E1,-1.526960433E-1,-9.656925201E0,-1.700254798E0
2.756198229E1,-1.689969599E-1,-9.663443565E0,-1.661233902E0
2.758225203E1,-1.271181852E-1,-9.695537567E0,-1.466554523E0
2.760252177E1,-3.580980375E-2,-9.736898422E0,-1.167013764E0
2.762279156E1,9.120889008E-3,-9.765557289E0,-8.967741728E-1
2.764306130E1,-4.408052936E-2,-9.781983376E0,-6.937065721E-1
2.766333109E1,-1.874873936E-1,-9.790130615E0,-5.371975303E-1
2.768360083E1,-3.343778551E-1,-9.793989182E0,-3.692796230E-1
2.770387063E1,-4.446551502E-1,-9.794979095E0,-1.762255579E-1
2.772414036E1,-5.153165460E-1,-9.793098450E0,6.955690216E-3
2.774441010E1,-5.849408507E-1,-9.787089348E0,2.027362883E-1
2.776467990E1,-6.681285501E-1,-9.776912689E0,3.687526286E-1
2.778494964E1,-7.582562566E-1,-9.766283035E0,4.638338685E-1
2.780521938E1,-8.378767967E-1,-9.757533073E0,5.088065267E-1
2.782548917E1,-8.768444657E-1,-9.752812386E0,5.330892801E-1
2.784575891E1,-8.877003193E-1,-9.751250267E0,5.435897708E-1
2.786602865E1,-8.828465939E-1,-9.751951218E0,5.389019847E-1
2.788629844E1,-8.084062338E-1,-9.760810852E0,4.933816493E-1
2.790656818E1,-6.336034536E-1,-9.778812408E0,3.791478574E-1
2.792683792E1,-3.925885260E-1,-9.796659470E0,2.042191923E-1
2.794710766E1,-1.453919709E-1,-9.805353165E0,-6.565678120E-2
2.796737745E1,2.930147946E-2,-9.794935226E0,-4.783067703E-1
2.798764719E1,9.916264564E-2,-9.762785912E0,-9.211745858E-1
2.800791698E1,1.699423194E-1,-9.717751503E0,-1.306453228E0
2.802818672E1,2.883224785E-1,-9.661452293E0,-1.656379580E0
2.804845646E1,4.247976840E-1,-9.583230972E0,-2.037551880E0
2.806872620E1,5.718171000E-1,-9.472149849E0,-2.474226475E0
2.808899599E1,6.543682814E-1,-9.343558311E0,-2.905190229E0
2.810926573E1,6.367406845E-1,-9.216011047E0,-3.290907860E0
2.812953547E1,5.517355204E-1,-9.098572731E0,-3.616896391E0
2.814980521E1,4.951403737E-1,-8.985705376E0,-3.896450758E0
2.817007495E1,5.193469524E-1,-8.888318062E0,-4.110774517E0
2.819034469E1,5.695834756E-1,-8.838792801E0,-4.209715843E0
2.821061448E1,5.457600951E-1,-8.832497597E0,-4.226053238E0
2.823088422E1,4.540292025E-1,-8.862309456E0,-4.174170971E0
2.825115396E1,3.435013890E-1,-8.930307388E0,-4.037576199E0
2.827142370E1,2.236134857E-1,-9.015684128E0,-3.851988077E0
2.829169349E1,1.162197441E-1,-9.084520340E0,-3.691662312E0
2.831196323E1,5.867616832E-2,-9.130754471E0,-3.577186108E0
2.833223297E1,4.183255881E-2,-9.158217430E0,-3.506520271E0
2.835250271E1,1.497280505E-2,-9.151364326E0,-3.524584770E0
2.837277245E1,2.402200177E-2,-9.114486694E0,-3.618833065E0
2.839304219E1,3.110040538E-2,-9.039884567E0,-3.801304340E0
2.841331193E1,4.005483165E-2,-8.983614922E0,-3.932358027E0
2.843358167E1,1.231082752E-1,-9.026400566E0,-3.831361532E0
2.845385141E1,2.471832484E-1,-9.100040436E0,-3.646716833E0
2.847412120E1,2.137090564E-1,-9.144880295E0,-3.534952402E0
2.849439094E1,1.120300144E-1,-9.217327118E0,-3.346449852E0
2.851479094E1,8.715783805E-2,-9.361952782E0,-2.918326855E0
2.853493042E1,1.132932827E-1,-9.523737907E0,-2.335803986E0
2.855520016E1,1.081971377E-1,-9.635924339E0,-1.818694472E0
2.857546990E1,6.628248096E-2,-9.682460785E0,-1.554333568E0
2.859573964E1,-4.155485332E-2,-9.692896843E0,-1.488767624E0
2.861613964E1,-1.507628262E-1,-9.698027611E0,-1.447731256E0
2.863627912E1,-1.297011971E-1,-9.721396446E0,-1.283750772E0
2.865654886E1,-9.068946540E-2,-9.749518394E0,-1.053113699E0
2.867681859E1,-8.867684752E-2,-9.774378777E0,-7.899692655E-1
2.869708833E1,-1.353014261E-1,-9.789673805E0,-5.606813431E-1
2.871748833E1,-2.227488011E-1,-9.795200348E0,-4.181132913E-1
2.873762781E1,-3.168235123E-1,-9.796717644E0,-3.071488440E-1
2.875789755E1,-3.891146779E-1,-9.797570229E0,-1.631288379E-1
2.877816729E1,-4.178949296E-1,-9.797725677E0,1.758015528E-2
2.879856729E1,-4.509893954E-1,-9.793841362E0,2.183363140E-1
2.881886469E1,-5.150833130E-1,-9.785298347E0,3.911783397E-1
2.883897708E1,-6.066420078E-1,-9.775145531E0,4.988936782E-1
2.885924672E1,-6.940487623E-1,-9.765506744E0,5.688241720E-1
2.887951636E1,-7.460578084E-1,-9.757522583E0,6.360234618E-1
2.889978599E1,-7.706072927E-1,-9.752520561E0,6.818265319E-1
2.892018599E1,-7.796434164E-1,-9.751214981E0,6.901968718E-1
2.894032542E1,-7.327650189E-1,-9.757621765E0,6.498207450E-1
2.896059505E1,-5.829935670E-1,-9.773875237E0,5.494171381E-1
2.898086474E1,-3.721337318E-1,-9.792206764E0,3.802565038E-1
2.900113443E1,-1.514156908E-1,-9.804713249E0,1.227882355E-1
2.902140417E1,-1.787583344E-2,-9.801696777E0,-3.111426532E-1
2.904167391E1,7.085905876E-3,-9.773896217E0,-8.008084297E-1
2.906194359E1,1.389891841E-2,-9.729735374E0,-1.225748777E0
2.908221328E1,6.174795330E-2,-9.674033165E0,-1.606130481E0
2.910248302E1,1.663500965E-1,-9.606993675E0,-1.961730480E0
2.912275271E1,2.801709771E-1,-9.504624367E0,-2.398753166E0
2.914302245E1,3.187216222E-1,-9.378419876E0,-2.848516464E0
2.916329219E1,2.278282642E-1,-9.252985954E0,-3.240481377E0
2.918356193E1,9.182342142E-2,-9.143035889E0,-3.544977427E0
2.920383162E1,-2.566576749E-2,-9.045526505E0,-3.787898540E0
2.922410136E1,-7.903765142E-2,-8.957211494E0,-3.991551638E0
2.924437109E1,-5.707776919E-2,-8.889706612E0,-4.140080452E0
2.926464078E1,-3.845345601E-2,-8.863309860E0,-4.196504593E0
2.928491047E1,-7.024411112E-2,-8.881855011E0,-4.156693459E0
2.930518021E1,-1.256359667E-1,-8.939229012E0,-4.030480385E0
2.932544995E1,-1.857449412E-1,-9.020643234E0,-3.842380762E0
2.934571964E1,-2.322615534E-1,-9.094705582E0,-3.660977840E0
2.936598938E1,-2.539581060E-1,-9.145185471E0,-3.531498194E0
2.938625912E1,-2.577421963E-1,-9.172563553E0,-3.459482908E0
2.940652880E1,-2.885454595E-1,-9.177619934E0,-3.443605661E0
2.942679854E1,-3.356315494E-1,-9.139143944E0,-3.540306807E0
2.944706828E1,-4.019641578E-1,-9.050985336E0,-3.753461599E0
2.946733797E1,-4.273229539E-1,-8.942296982E0,-4.002887249E0
2.948773797E1,-1.925630569E-1,-8.933897972E0,-4.039650440E0
2.950787740E1,1.327465028E-1,-9.049117088E0,-3.777070284E0
2.952814714E1,1.717921495E-1,-9.170755386E0,-3.469600201E0
2.954841677E1,-1.012487113E-1,-9.257734299E0,-3.233339310E0
2.956868656E1,-3.850993812E-1,-9.350181580E0,-2.931925535E0
2.958895630E1,-5.443891883E-1,-9.455770493E0,-2.542133331E0
2.960922599E1,-6.452392936E-1,-9.541270256E0,-2.172147512E0
2.962949573E1,-6.816394329E-1,-9.592391968E0,-1.921399832E0
2.964976542E1,-5.436688066E-1,-9.622621536E0,-1.811066270E0
2.967003516E1,-3.622466326E-1,-9.653677940E0,-1.686910391E0
2.969030484E1,-3.376109004E-1,-9.686903954E0,-1.490072846E0
2.971057458E1,-3.737212121E-1,-9.704998016E0,-1.357844353E0
2.973084422E1,-4.846409261E-1,-9.716979027E0,-1.231192589E0
2.975111401E1,-6.137228012E-1,-9.731536865E0,-1.044480562E0
2.977138370E1,-7.230756879E-1,-9.741618156E0,-8.651183248E-1
2.979165344E1,-8.082345724E-1,-9.748506546E0,-6.955270171E-1
2.981192313E1,-8.365444541E-1,-9.758690834E0,-4.884123206E-1
2.983219287E1,-8.247907162E-1,-9.768577576E0,-2.549685836E-1
2.985246255E1,-8.240546584E-1,-9.771873474E0,-4.261935875E-2
2.987273229E1,-8.719803691E-1,-9.766963959E0,1.282985061E-1
2.989300198E1,-9.594773650E-1,-9.756221771E0,2.567607760E-1
2.991327172E1,-1.058588266E0,-9.742690086E0,3.602333665E-1
2.993354146E1,-1.131430149E0,-9.731446266E0,4.349651039E-1
2.995381115E1,-1.171346784E0,-9.725640297E0,4.585391879E-1
2.997408083E1,-1.194169044E0,-9.724402428E0,4.246891439E-1
2.999435057E1,-1.168665648E0,-9.730944633E0,3.366226852E-1
3.001475057E1,-1.034027576E0,-9.750105858E0,1.913073957E-1
3.003489000E1,-8.323639035E-1,-9.771251678E0,-1.370625384E-2
3.005515969E1,-6.107441187E-1,-9.784050941E0,-2.640801966E-1
3.007542943E1,-4.271802604E-1,-9.777647018E0,-6.209002733E-1
3.009569917E1,-3.329813778E-1,-9.740882874E0,-1.083845615E0
3.011609917E1,-2.432814538E-1,-9.690759659E0,-1.483373642E0
3.013623859E1,-1.685001552E-1,-9.640742302E0,-1.788317204E0
3.015650828E1,-7.431951165E-2,-9.572490692E0,-2.128918886E0
3.017677802E1,7.152277976E-2,-9.476288795E0,-2.522938490E0
3.019704771E1,2.130816430E-1,-9.370499611E0,-2.884219646E0
3.021744771E1,2.529886365E-1,-9.278196335E0,-3.165669441E0
3.023758714E1,2.223064750E-1,-9.205703735E0,-3.372830153E0
3.025785688E1,1.443421394E-1,-9.146662712E0,-3.533854246E0
3.027812662E1,7.995206863E-2,-9.086309433E0,-3.688221931E0
3.029839630E1,8.460582048E-2,-9.019511223E0,-3.848590851E0
3.031862672E1,1.230768636E-1,-8.976655960E0,-3.946505308E0
3.033893568E1,1.188831702E-1,-8.983454704E0,-3.931130171E0
3.035920542E1,1.088003665E-1,-9.016659737E0,-3.854660988E0
3.037947521E1,1.056490317E-1,-9.054705620E0,-3.764509916E0
3.039974490E1,7.095809281E-2,-9.099054337E0,-3.656851768E0
3.042014490E1,-9.027899243E-3,-9.150458336E0,-3.526956797E0
3.044028432E1,-9.898828715E-2,-9.196377754E0,-3.404001951E0
3.046055406E1,-1.762892306E-1,-9.228090286E0,-3.313860416E0
3.048082380E1,-2.563634813E-1,-9.238306999E0,-3.279994249E0
3.050109349E1,-2.940668166E-1,-9.237586975E0,-3.278856039E0
3.052136323E1,-2.921197116E-1,-9.219338417E0,-3.329993248E0
3.054163292E1,-2.505509555E-1,-9.144759178E0,-3.532846212E0
3.056190266E1,-3.732240573E-2,-9.099981308E0,-3.655043602E0
3.058217240E1,2.375670075E-1,-9.169845581E0,-3.468122005E0
3.060244208E1,3.062463403E-1,-9.241049767E0,-3.267966270E0
3.062271182E1,9.538893402E-2,-9.255793571E0,-3.239067078E0
3.064298151E1,-2.488748282E-1,-9.278720856E0,-3.164457798E0
3.066325125E1,-5.133919120E-1,-9.360806465E0,-2.877867460E0
3.068352099E1,-6.699660420E-1,-9.477606773E0,-2.428268194E0
3.070379068E1,-7.225341201E-1,-9.569972038E0,-2.015928984E0
3.072419068E1,-6.722733378E-1,-9.611568451E0,-1.826520681E0
3.074433011E1,-5.517834425E-1,-9.622799873E0,-1.807667494E0
3.076459984E1,-4.607460499E-1,-9.636824608E0,-1.757757545E0
3.078486958E1,-3.924646974E-1,-9.675666809E0,-1.548495531E0
3.080513927E1,-3.388042748E-1,-9.704640388E0,-1.369511485E0
3.082540901E1,-3.475412428E-1,-9.721587181E0,-1.241106868E0
3.084567870E1,-4.026364088E-1,-9.737737656E0,-1.088456035E0
3.086594844E1,-4.864164293E-1,-9.749491692E0,-9.387241602E-1
3.088621813E1,-5.510658622E-1,-9.757416725E0,-8.121148944E-1
3.090648787E1,-5.591732860E-1,-9.768642426E0,-6.567561030E-1
3.092675755E1,-5.284447074E-1,-9.781173706E0,-4.687916934E-1
3.094702729E1,-5.097861290E-1,-9.789466858E0,-2.772206366E-1
3.096729703E1,-5.268420577E-1,-9.791973114E0,-1.004429907E-1
3.098756672E1,-5.798790455E-1,-9.789292336E0,6.235243008E-2
3.100783646E1,-6.589848399E-1,-9.782161713E0,2.131976336E-1
3.102810615E1,-7.552306056E-1,-9.771830559E0,3.336669505E-1
3.104837589E1,-8.517117500E-1,-9.760681152E0,4.172164798E-1
3.106864557E1,-9.423574209E-1,-9.750350952E0,4.615090191E-1
3.108891531E1,-1.019489646E0,-9.742660522E0,4.599793851E-1
3.110918505E1,-1.051358819E0,-9.741936684E0,3.996245563E-1
3.112945474E1,-9.710836411E-1,-9.754294395E0,2.848255634E-1
3.114972448E1,-7.846974134E-1,-9.774353027E0,1.291617900E-1
3.116999417E1,-5.927492380E-1,-9.788649559E0,-3.697842732E-2
3.119026391E1,-4.098193347E-1,-9.794651031E0,-2.592897713E-1
3.121053359E1,-2.985689640E-1,-9.780761719E0,-6.464805007E-1
3.123080333E1,-2.563851476E-1,-9.736554146E0,-1.142004371E0
3.125107307E1,-2.048968226E-1,-9.679975510E0,-1.557715416E0
3.127134276E1,-1.218352765E-1,-9.623246193E0,-1.883792043E0
3.129161250E1,3.364282101E-2,-9.551823616E0,-2.220793486E0
3.131188224E1,2.297687531E-1,-9.454685211E0,-2.593553543E0
3.133215193E1,3.558442593E-1,-9.346471786E0,-2.947410583E0
3.135242167E1,3.675023019E-1,-9.248800278E0,-3.239603996E0
3.137269136E1,3.184466958E-1,-9.159741402E0,-3.488282204E0
3.139296109E1,2.376985252E-1,-9.070228577E0,-3.720865726E0
3.141323083E1,1.664981693E-1,-8.976771355E0,-3.944647789E0
3.143350052E1,1.498321742E-1,-8.883380890E0,-4.151322842E0
3.145377026E1,1.716231555E-1,-8.814218521E0,-4.295403481E0
3.147403995E1,1.943764091E-1,-8.791153908E0,-4.341452599E0
3.149430969E1,2.074695975E-1,-8.802909851E0,-4.316958904E0
3.151470969E1,1.977846920E-1,-8.826326370E0,-4.269337177E0
3.153484912E1,1.489482969E-1,-8.853479385E0,-4.214748859E0
3.155511886E1,7.190396637E-2,-8.883540154E0,-4.153064728E0
3.157538854E1,-1.230511721E-2,-8.915882111E0,-4.083782673E0
3.159565828E1,-1.206739619E-1,-8.930651665E0,-4.049605846E0
3.161605828E1,-2.758132815E-1,-8.919425964E0,-4.066712856E0
3.163619771E1,-3.767114580E-1,-8.901672363E0,-4.097402096E0
3.165646745E1,-3.242624104E-1,-8.924961090E0,-4.050963402E0
3.167673719E1,-1.621175110E-1,-8.973135948E0,-3.953092813E0
3.169700688E1,-1.921332181E-1,-9.039536476E0,-3.797401428E0
3.171740688E1,-4.972642064E-1,-9.113705635E0,-3.586569548E0
3.173770427E1,-6.224258542E-1,-9.117275238E0,-3.557844400E0
3.175781667E1,-6.055493355E-1,-9.122610092E0,-3.547067165E0
3.177808630E1,-6.265117526E-1,-9.194515228E0,-3.352427244E0
3.179848630E1,-7.193350792E-1,-9.320007324E0,-2.964862823E0
3.181878349E1,-8.409689665E-1,-9.426035881E0,-2.571573496E0
3.183889589E1,-9.646832347E-1,-9.482403755E0,-2.307332993E0
3.185916537E1,-1.004899979E0,-9.498617172E0,-2.221902132E0
3.187943495E1,-9.648203850E-1,-9.518741608E0,-2.152451992E0
3.189970464E1,-9.350335002E-1,-9.571632385E0,-1.918322921E0
3.191997422E1,-8.947882056E-1,-9.619491577E0,-1.683784366E0
3.194024386E1,-8.885907531E-1,-9.646807671E0,-1.523121715E0
3.196051349E1,-9.446354508E-1,-9.666954994E0,-1.352046967E0
3.198078318E1,-1.039291739E0,-9.684474945E0,-1.140704632E0
3.200105287E1,-1.106598496E0,-9.697688103E0,-9.490449429E-1
3.202132250E1,-1.125529289E0,-9.710925102E0,-7.755711675E-1
3.204159224E1,-1.123565555E0,-9.723802567E0,-5.963563919E-1
3.206186193E1,-1.128129840E0,-9.732481003E0,-4.201465845E-1
3.208213162E1,-1.150906563E0,-9.735333443E0,-2.628319860E-1
3.210240136E1,-1.186591387E0,-9.733776093E0,-1.264354736E-1
3.212267104E1,-1.239162207E0,-9.728044510E0,-2.248786390E-3
3.214294078E1,-1.305805922E0,-9.718848228E0,9.619089216E-2
3.216321047E1,-1.370786428E0,-9.709081650E0,1.583108306E-1
3.218348021E1,-1.423536897E0,-9.700949669E0,1.884322017E-1
3.220374995E1,-1.453954816E0,-9.696645737E0,1.773469150E-1
3.222401958E1,-1.420066595E0,-9.702475548E0,1.255731881E-1
3.224428938E1,-1.309964061E0,-9.718665123E0,4.393287376E-2
3.226455906E1,-1.143348694E0,-9.739523888E0,-6.943766028E-2
3.228482875E1,-9.368681312E-1,-9.758509636E0,-2.532750666E-1
3.230509849E1,-7.465282679E-1,-9.761117935E0,-5.776342154E-1
3.232536818E1,-5.947682858E-1,-9.734802246E0,-1.024818659E0
3.234563792E1,-4.657221138E-1,-9.690499306E0,-1.430984497E0
3.236590766E1,-3.405387104E-1,-9.641929626E0,-1.757160664E0
3.238617734E1,-2.073962986E-1,-9.578112602E0,-2.094546080E0
3.240644708E1,-7.308138907E-2,-9.492850304E0,-2.459846258E0
3.242671682E1,3.937700763E-2,-9.390777588E0,-2.825266600E0
3.244698656E1,1.024110690E-1,-9.286935806E0,-3.148446560E0
3.246725625E1,1.216094494E-1,-9.186471939E0,-3.429915667E0
3.248752594E1,1.177790388E-1,-9.083134651E0,-3.695020437E0
3.250779573E1,1.174027100E-1,-8.968293190E0,-3.965644598E0
3.252806547E1,1.342321485E-1,-8.842585564E0,-4.238048553E0
3.254833521E1,1.365242302E-1,-8.730190277E0,-4.464921474E0
3.256860490E1,1.297548562E-1,-8.694590569E0,-4.534054756E0
3.258887464E1,1.246405095E-1,-8.721135139E0,-4.482928276E0
3.260914438E1,1.055456698E-1,-8.767862320E0,-4.391337395E0
3.262941412E1,3.728951514E-2,-8.822227478E0,-4.282207489E0
3.264968386E1,-4.757833108E-2,-8.876139641E0,-4.169204712E0
3.266995354E1,-9.979765117E-2,-8.922713280E0,-4.067629814E0
3.269022328E1,-1.442029625E-1,-8.946976662E0,-4.012630463E0
3.271049302E1,-2.137718946E-1,-8.941591263E0,-4.021521568E0
3.273076271E1,-2.672536969E-1,-8.918625832E0,-4.069038868E0
3.275103250E1,-2.388400882E-1,-8.853510857E0,-4.210545540E0
3.277130224E1,3.748065978E-2,-8.858247757E0,-4.207187176E0
3.279157250E1,3.322536349E-1,-9.027873039E0,-3.815430403E0
3.281184167E1,3.924860358E-1,-9.188660622E0,-3.403654337E0
3.283211141E1,2.141095996E-1,-9.241385460E0,-3.274345398E0
3.285238115E1,-2.129438892E-2,-9.274737358E0,-3.185778856E0
3.287265089E1,-2.079334855E-1,-9.359041214E0,-2.921559095E0
3.289292063E1,-3.321031034E-1,-9.471044540E0,-2.521788359E0
3.291319037E1,-4.373116791E-1,-9.561051369E0,-2.136687756E0
3.293346010E1,-4.272528589E-1,-9.607273102E0,-1.920456409E0
3.295372984E1,-3.658462167E-1,-9.634282112E0,-1.793642282E0
3.297399958E1,-3.791334629E-1,-9.671540260E0,-1.577327132E0
3.299426932E1,-4.057279229E-1,-9.708980560E0,-1.319652677E0
3.301466932E1,-4.411179423E-1,-9.737293243E0,-1.077459455E0
3.303480880E1,-5.091143847E-1,-9.758265495E0,-8.291170001E-1
3.305507849E1,-5.758730173E-1,-9.771074295E0,-6.040320396E-1
3.307534823E1,-6.166560650E-1,-9.778323174E0,-4.177701473E-1
3.309561797E1,-6.463701129E-1,-9.782516479E0,-2.344823033E-1
3.311601797E1,-6.909953356E-1,-9.782261848E0,-1.660506614E-2
3.313615745E1,-7.664212584E-1,-9.774256706E0,2.165793180E-1
3.315642719E1,-8.660893440E-1,-9.759812355E0,4.078336358E-1
3.317669693E1,-9.567292929E-1,-9.745540619E0,5.286774039E-1
3.319696667E1,-1.011149883E0,-9.736976624E0,5.824568272E-1
3.321736667E1,-1.017645121E0,-9.734942436E0,6.047230363E-1
3.323750615E1,-9.936720133E-1,-9.736907005E0,6.128958464E-1
3.325777589E1,-9.523869157E-1,-9.740944862E0,6.142950654E-1
3.327804563E1,-8.518252373E-1,-9.751853943E0,5.883315206E-1
3.329831536E1,-6.721764207E-1,-9.771014214E0,4.958247244E-1
3.331858511E1,-4.197167158E-1,-9.792191505E0,3.274361193E-1
3.333885484E1,-1.408315450E-1,-9.805549622E0,4.186731949E-2
3.335912458E1,6.243453920E-2,-9.798211098E0,-4.019280672E-1
3.337939432E1,1.736791432E-1,-9.767162323E0,-8.618286848E-1
3.339966406E1,2.726986110E-1,-9.720588684E0,-1.267355442E0
3.342006406E1,4.176846147E-1,-9.655820847E0,-1.661636114E0
3.344020349E1,5.811156631E-1,-9.560697556E0,-2.103747129E0
3.346047323E1,7.393668890E-1,-9.431141853E0,-2.584043980E0
3.348074297E1,8.565351367E-1,-9.288269997E0,-3.027336597E0
3.350101271E1,8.851928711E-1,-9.144551277E0,-3.429870129E0
3.352128245E1,8.455790877E-1,-9.002384186E0,-3.796375036E0
3.354155219E1,8.047183156E-1,-8.852498055E0,-4.141992569E0
3.356182193E1,8.079735041E-1,-8.698080063E0,-4.456563950E0
3.358209167E1,8.085495830E-1,-8.605491638E0,-4.632724285E0
3.360236141E1,7.564069033E-1,-8.587021828E0,-4.675605297E0
3.362263115E1,6.601874828E-1,-8.607511520E0,-4.652449131E0
3.364290089E1,5.537858605E-1,-8.663205147E0,-4.562080860E0
3.366317063E1,4.422714412E-1,-8.754551888E0,-4.396886826E0
3.368344036E1,3.570844233E-1,-8.841826439E0,-4.226699352E0
3.370371010E1,3.045829833E-1,-8.886992455E0,-4.135090351E0
3.372397984E1,2.154217660E-1,-8.890785217E0,-4.132544518E0
3.374424958E1,1.412445605E-1,-8.875794411E0,-4.167817593E0
3.376451932E1,1.631649137E-1,-8.786425591E0,-4.352296352E0
3.378478906E1,2.014668286E-1,-8.699522018E0,-4.521959782E0
3.380505880E1,2.356618196E-1,-8.720122337E0,-4.480436802E0
3.382532854E1,3.504434228E-1,-8.835422516E0,-4.240622520E0
3.384559828E1,5.006484389E-1,-8.983278275E0,-3.901340008E0
3.386586797E1,5.891719460E-1,-9.144184113E0,-3.493874311E0
3.388613776E1,5.990855098E-1,-9.314832687E0,-3.007551908E0
3.390640750E1,5.471819639E-1,-9.451367378E0,-2.557858229E0
3.392667724E1,4.833785892E-1,-9.540927887E0,-2.215273380E0
3.394694698E1,4.331101179E-1,-9.588830948E0,-2.009258986E0
3.396721672E1,4.663996696E-1,-9.611910820E0,-1.887862325E0
3.398761672E1,5.431423187E-1,-9.641645432E0,-1.707064033E0
3.400775620E1,5.637842417E-1,-9.692282677E0,-1.382818460E0
3.402802594E1,5.355514288E-1,-9.743618965E0,-9.723486304E-1
3.404829568E1,4.569463730E-1,-9.775669098E0,-6.307803392E-1
3.406856542E1,3.592650890E-1,-9.789044380E0,-4.646890461E-1
3.408883516E1,2.289043665E-1,-9.796682358E0,-3.781573772E-1
3.410910490E1,7.867536694E-2,-9.803740501E0,-2.255616486E-1
3.412937464E1,-5.386425555E-2,-9.806475639E0,-2.310835011E-2
3.414964438E1,-1.869289577E-1,-9.803333282E0,1.734264195E-1
3.416991412E1,-3.541283309E-1,-9.794250488E0,3.429645300E-1
3.419018386E1,-5.255052447E-1,-9.781861305E0,4.576210976E-1
3.421045354E1,-6.603680849E-1,-9.770958900E0,5.124963522E-1
3.423072328E1,-7.582002878E-1,-9.762764931E0,5.328604579E-1
3.425099302E1,-8.274465203E-1,-9.756136894E0,5.509090424E-1
3.427126276E1,-8.595352173E-1,-9.752997398E0,5.573307872E-1
3.429153250E1,-8.490724564E-1,-9.755597115E0,5.270637870E-1
3.431180224E1,-7.598634958E-1,-9.767312050E0,4.388626814E-1
3.433207198E1,-6.197003126E-1,-9.782019615E0,3.137618601E-1
3.435234172E1,-4.300402701E-1,-9.796463966E0,1.214846596E-1
3.437261146E1,-1.648035496E-1,-9.802025795E0,-2.520132065E-1
3.439288120E1,1.065799519E-1,-9.777319908E0,-7.503571510E-1
3.441315094E1,3.534209430E-1,-9.736725807E0,-1.114296317E0
3.443342068E1,5.744082928E-1,-9.698413849E0,-1.334616661E0
3.445369036E1,8.039603829E-1,-9.651226997E0,-1.542030334E0
3.447396010E1,1.039754629E0,-9.576160431E0,-1.840231657E0
3.449422984E1,1.229106903E0,-9.465012550E0,-2.252385855E0
3.451462984E1,1.377043366E0,-9.338607788E0,-2.657922029E0
3.453476932E1,1.525087595E0,-9.210761070E0,-3.001060486E0
3.455503906E1,1.643483996E0,-9.083663940E0,-3.310044765E0
3.457530880E1,1.726968765E0,-8.945966721E0,-3.627346754E0
3.459557849E1,1.791414261E0,-8.797624588E0,-3.944999933E0
3.461597849E1,1.793395042E0,-8.716436386E0,-4.120419025E0
3.463611797E1,1.711693883E0,-8.708784103E0,-4.171039104E0
3.465638771E1,1.575036764E0,-8.742581367E0,-4.154146194E0
3.467665745E1,1.424525976E0,-8.829159737E0,-4.023314953E0
3.469692719E1,1.250407219E0,-8.950663567E0,-3.806899309E0
3.471732719E1,1.074633718E0,-9.061229706E0,-3.593002319E0
3.473746667E1,9.154182673E-1,-9.133867264E0,-3.450343370E0
3.475773636E1,7.552868724E-1,-9.166917801E0,-3.401111364E0
3.477813636E1,6.491058469E-1,-9.154288292E0,-3.456597090E0
3.479843380E1,6.205472946E-1,-9.100673676E0,-3.600423336E0
3.481870365E1,6.213513017E-1,-9.000539780E0,-3.843771696E0
3.483881599E1,8.256941438E-1,-8.970736504E0,-3.874853134E0
3.485908552E1,1.155224562E0,-9.103435516E0,-3.458800793E0
3.487935521E1,1.324451685E0,-9.245226860E0,-2.990320206E0
3.489962484E1,1.099605322E0,-9.296820641E0,-2.920682669E0
3.491989453E1,7.058967352E-1,-9.338710785E0,-2.908709049E0
3.494016417E1,4.135077596E-1,-9.447931290E0,-2.595381498E0
3.496043380E1,2.601744831E-1,-9.595828056E0,-2.005682945E0
3.498070349E1,2.000420988E-1,-9.690876961E0,-1.489053607E0
3.500097323E1,3.356190920E-1,-9.715415001E0,-1.291685939E0
3.502124297E1,3.977838159E-1,-9.725337982E0,-1.195807576E0
3.504151271E1,3.419452310E-1,-9.750160217E0,-9.938998818E-1
3.506178240E1,2.964111567E-1,-9.773392677E0,-7.505502105E-1
3.508205208E1,2.144729346E-1,-9.790853500E0,-5.134044886E-1
3.510232182E1,1.043666825E-1,-9.801869392E0,-2.878225148E-1
3.512259151E1,-2.756660338E-3,-9.806093216E0,-1.045170724E-1
3.514286125E1,-6.771622598E-2,-9.806323051E0,4.290921614E-2
3.516313099E1,-1.292684972E-1,-9.803548813E0,2.099937797E-1
3.518340073E1,-2.273455858E-1,-9.796263695E0,3.897750080E-1
3.520367047E1,-3.835752010E-1,-9.784367561E0,5.379804969E-1
3.522407047E1,-5.311273932E-1,-9.771423340E0,6.384122372E-1
3.524420990E1,-5.722379684E-1,-9.765705109E0,6.884259582E-1
3.526447958E1,-5.287647843E-1,-9.765513420E0,7.249359488E-1
3.528474927E1,-4.975167513E-1,-9.762615204E0,7.837207913E-1
3.530501901E1,-4.678671360E-1,-9.762235641E0,8.063735366E-1
3.532528875E1,-3.721910119E-1,-9.769844055E0,7.628888488E-1
3.534555844E1,-2.194205821E-1,-9.782001495E0,6.593132019E-1
3.536582818E1,-7.856066339E-3,-9.794772148E0,4.824752808E-1
3.538609792E1,2.207167298E-1,-9.802993774E0,1.515937001E-1
3.540636766E1,3.937316537E-1,-9.794267654E0,-2.960773706E-1
3.542663734E1,4.993498623E-1,-9.765359879E0,-7.475193143E-1
3.544690708E1,5.816337466E-1,-9.721251488E0,-1.152972817E0
3.546717682E1,6.601473689E-1,-9.664226532E0,-1.528833866E0
3.548744651E1,7.674304843E-1,-9.580108643E0,-1.950117707E0
3.550771625E1,9.073142409E-1,-9.460227013E0,-2.418934822E0
3.552798594E1,1.035366654E0,-9.316096306E0,-2.882493973E0
3.554825568E1,1.102934241E0,-9.165448189E0,-3.308849573E0
3.556852542E1,1.112575889E0,-9.022659302E0,-3.677525043E0
3.558879510E1,1.125352383E0,-8.886862755E0,-3.990945101E0
3.560906484E1,1.175024986E0,-8.772303581E0,-4.223315716E0
3.562933458E1,1.208857298E0,-8.716789246E0,-4.327427387E0
3.564960427E1,1.157022953E0,-8.715407372E0,-4.344348907E0
3.566987401E1,1.047958374E0,-8.755199432E0,-4.291695595E0
3.569014370E1,9.471168518E-1,-8.838339806E0,-4.142113209E0
3.571041344E1,8.388442397E-1,-8.937312126E0,-3.948566198E0
3.573068318E1,7.102885246E-1,-9.019268036E0,-3.784003973E0
3.575095286E1,5.908476114E-1,-9.074907303E0,-3.669787884E0
3.577122261E1,5.277430415E-1,-9.102204323E0,-3.611335993E0
3.579149229E1,5.132136345E-1,-9.086383820E0,-3.653028727E0
3.581176203E1,5.065990686E-1,-9.048903465E0,-3.745809555E0
3.583203172E1,4.416274726E-1,-8.989780426E0,-3.893481016E0
3.585230146E1,4.207847118E-1,-8.988756180E0,-3.898151159E0
3.587257120E1,5.478307009E-1,-9.090986252E0,-3.636517525E0
3.589284089E1,6.936178207E-1,-9.211526871E0,-3.291967392E0
3.591311057E1,6.944699883E-1,-9.301888466E0,-3.027038813E0
3.593338031E1,6.672154665E-1,-9.402154922E0,-2.706416368E0
3.595365000E1,6.574383974E-1,-9.519976616E0,-2.260134220E0
3.597391974E1,5.748130679E-1,-9.610928535E0,-1.862796426E0
3.599418943E1,4.852644205E-1,-9.655589104E0,-1.644531131E0
3.601458943E1,3.802658021E-1,-9.674092293E0,-1.561323285E0
3.603472886E1,2.817881107E-1,-9.706390381E0,-1.370026350E0
3.605499859E1,2.637538314E-1,-9.746305466E0,-1.053736091E0
3.607526833E1,2.832810283E-1,-9.773872375E0,-7.493755221E-1
3.609553802E1,2.389693111E-1,-9.791313171E0,-4.934145212E-1
3.611593802E1,1.195511147E-1,-9.801868439E0,-2.819030285E-1
3.613607745E1,2.557634003E-2,-9.806051254E0,-1.053523049E-1
3.615634714E1,-3.592709824E-2,-9.806404114E0,5.940677226E-2
3.617661688E1,-8.030516654E-2,-9.803954124E0,2.154753506E-1
3.619688656E1,-1.318581551E-1,-9.798525810E0,3.766784072E-1
3.621728656E1,-2.345368713E-1,-9.790435791E0,5.125853419E-1
3.623758396E1,-3.787009716E-1,-9.781090736E0,5.976920724E-1
3.625769630E1,-4.899625182E-1,-9.773537636E0,6.389747262E-1
3.627796594E1,-5.263651609E-1,-9.770722389E0,6.529282928E-1
3.629823552E1,-5.265307426E-1,-9.770340919E0,6.584791541E-1
3.631863552E1,-5.178993344E-1,-9.770351410E0,6.651223898E-1
3.633877479E1,-4.739172459E-1,-9.775866508E0,6.149949431E-1
3.635904448E1,-3.517349660E-1,-9.787998199E0,4.916953146E-1
3.637931412E1,-1.583928913E-1,-9.800687790E0,3.029976487E-1
3.639958380E1,4.390583560E-2,-9.806544304E0,1.145793870E-2
3.641998380E1,1.783754528E-1,-9.795936584E0,-4.221357703E-1
3.644012318E1,2.362082154E-1,-9.764590263E0,-8.759940863E-1
3.646039286E1,2.861178219E-1,-9.716765404E0,-1.293441176E0
3.648066255E1,3.512965441E-1,-9.657172203E0,-1.669133425E0
3.650093229E1,4.606729448E-1,-9.572421074E0,-2.080127954E0
3.652120193E1,5.929825902E-1,-9.453670502E0,-2.539067268E0
3.654147162E1,6.481480598E-1,-9.315154076E0,-2.996364594E0
3.656174136E1,5.720970631E-1,-9.167847633E0,-3.434191227E0
3.658201104E1,4.397580326E-1,-9.036591530E0,-3.783782244E0
3.660228073E1,3.530023992E-1,-8.926965714E0,-4.044139385E0
3.662255042E1,3.650394678E-1,-8.839413643E0,-4.231063366E0
3.664282016E1,4.256820083E-1,-8.783911705E0,-4.339592934E0
3.666308984E1,4.446561337E-1,-8.773452759E0,-4.358808041E0
3.668335953E1,3.785648346E-1,-8.806468964E0,-4.298043251E0
3.670362917E1,2.781321704E-1,-8.879439354E0,-4.153141022E0
3.672389891E1,1.652668118E-1,-8.971602440E0,-3.956441402E0
3.674416859E1,6.349521875E-2,-9.042232513E0,-3.795313835E0
3.676443828E1,-2.925726119E-3,-9.076208115E0,-3.713868380E0
3.678470797E1,-2.803697623E-2,-9.087127686E0,-3.686964035E0
3.680497766E1,-7.288383693E-2,-9.071185112E0,-3.725409031E0
3.682524740E1,-1.382558197E-1,-9.004092216E0,-3.882987976E0
3.684551703E1,-1.534724832E-1,-8.916649818E0,-4.079237461E0
3.686578677E1,1.389398240E-3,-8.948831558E0,-4.011084557E0
3.688605651E1,1.961820871E-1,-9.065376282E0,-3.735083342E0
3.690632620E1,1.296447963E-1,-9.155401230E0,-3.511727333E0
3.692659589E1,-1.221458614E-1,-9.218708038E0,-3.342288971E0
3.694686557E1,-2.240312248E-1,-9.336760521E0,-2.990836620E0
3.696713526E1,-1.972610950E-1,-9.493680000E0,-2.449794531E0
3.698740495E1,-2.159724683E-1,-9.611218452E0,-1.936033726E0
3.700767469E1,-2.604798973E-1,-9.665431976E0,-1.637667656E0
3.702794438E1,-3.233785927E-1,-9.684494019E0,-1.508774757E0
3.704821406E1,-3.750766218E-1,-9.698396683E0,-1.403857231E0
3.706848375E1,-4.138865471E-1,-9.722562790E0,-1.212783575E0
3.708875344E1,-4.592831135E-1,-9.748907089E0,-9.582573771E-1
3.710902313E1,-5.283743143E-1,-9.769125938E0,-6.748231649E-1
3.712929281E1,-6.178503633E-1,-9.776881218E0,-4.486080706E-1
3.714956255E1,-7.189085484E-1,-9.775494576E0,-3.054219484E-1
3.716983224E1,-7.926936746E-1,-9.773202896E0,-1.628721654E-1
3.719010188E1,-8.228305578E-1,-9.772068977E0,-2.241216134E-3
3.721037162E1,-8.388807774E-1,-9.768793106E0,1.932719350E-1
3.723064130E1,-8.864096403E-1,-9.759419441E0,3.719973564E-1
3.725091099E1,-9.852566719E-1,-9.743031502E0,5.224971175E-1
3.727118068E1,-1.097715139E0,-9.724431992E0,6.331106424E-1
3.729145036E1,-1.183491826E0,-9.707114220E0,7.359817624E-1
3.731172005E1,-1.237795115E0,-9.692121506E0,8.372807503E-1
3.733198974E1,-1.267796159E0,-9.680500984E0,9.224840999E-1
3.735225943E1,-1.287834287E0,-9.676660538E0,9.349357486E-1
3.737252917E1,-1.156637430E0,-9.702815056E0,8.294409513E-1
3.739279886E1,-8.649494052E-1,-9.750864029E0,5.855740905E-1
3.741306854E1,-6.220794320E-1,-9.782105446E0,3.062919080E-1
3.743333823E1,-4.831550419E-1,-9.794545174E0,-6.187082082E-2
3.745360792E1,-4.877331555E-1,-9.780911446E0,-5.160133839E-1
3.747387761E1,-4.796434641E-1,-9.752022743E0,-9.156382680E-1
3.749414729E1,-3.485146761E-1,-9.713809013E0,-1.300324082E0
3.751454729E1,-7.943198830E-2,-9.644323349E0,-1.775136948E0
3.753468667E1,2.374494970E-1,-9.515758514E0,-2.358886480E0
3.755495636E1,4.432236254E-1,-9.346304893E0,-2.936074734E0
3.757522604E1,4.537295699E-1,-9.203452110E0,-3.355737686E0
3.759549573E1,3.653021157E-1,-9.093544960E0,-3.652994871E0
3.761589573E1,2.811762094E-1,-8.992249489E0,-3.902662754E0
3.763603511E1,2.562187612E-1,-8.896048546E0,-4.118866444E0
3.765630479E1,2.682808936E-1,-8.823823929E0,-4.270659924E0
3.767657448E1,2.654976845E-1,-8.798040390E0,-4.323699951E0
3.769684417E1,1.947930455E-1,-8.814105988E0,-4.294645786E0
3.771724417E1,9.907102585E-2,-8.871630669E0,-4.177887440E0
3.773738354E1,8.056832477E-3,-8.959567070E0,-3.987038374E0
3.775765323E1,-9.177323431E-2,-9.034658432E0,-3.812731266E0
3.777792292E1,-2.161037177E-1,-9.080080986E0,-3.698084354E0
3.779832292E1,-3.239890933E-1,-9.113101959E0,-3.607879639E0
3.781862026E1,-4.015997350E-1,-9.118460655E0,-3.586471081E0
3.783873261E1,-4.090334177E-1,-9.077598572E0,-3.687858105E0
3.785900219E1,-3.861210942E-1,-8.997365952E0,-3.881842852E0
3.787927177E1,-4.358626008E-1,-8.879915237E0,-4.138539791E0
3.789954130E1,-1.924574673E-1,-8.902747154E0,-4.107851505E0
3.791994130E1,1.813155264E-1,-9.033705711E0,-3.811780930E0
3.794008063E1,1.614838392E-1,-9.107821465E0,-3.632064104E0
3.796035026E1,-1.228674725E-1,-9.163045883E0,-3.491971970E0
3.798061990E1,-2.814708948E-1,-9.288719177E0,-3.132229090E0
3.800088953E1,-3.344799578E-1,-9.444534302E0,-2.619021654E0
3.802115922E1,-4.048767984E-1,-9.553095818E0,-2.178263426E0
3.804142891E1,-4.469189346E-1,-9.598563194E0,-1.959141254E0
3.806169859E1,-5.286103487E-1,-9.612748146E0,-1.867096186E0
3.808196823E1,-5.940786600E-1,-9.651616096E0,-1.632105231E0
3.810223792E1,-5.831857324E-1,-9.698869705E0,-1.327484369E0
3.812250760E1,-6.278783083E-1,-9.724539757E0,-1.099756956E0
3.814277729E1,-7.036559582E-1,-9.739513397E0,-9.039425850E-1
3.816304693E1,-7.916978598E-1,-9.748008728E0,-7.210593224E-1
3.818331662E1,-8.662606478E-1,-9.752360344E0,-5.580752492E-1
3.820358630E1,-8.753433228E-1,-9.759461403E0,-3.963427246E-1
3.822385599E1,-8.272889853E-1,-9.769358635E0,-2.135668993E-1
3.824412563E1,-7.805211544E-1,-9.775526047E0,1.644819602E-2
3.826439537E1,-7.937362194E-1,-9.771911621E0,2.238795906E-1
3.828466500E1,-8.819652796E-1,-9.760692596E0,3.484542966E-1
3.830493464E1,-9.901799560E-1,-9.747177124E0,4.271507561E-1
3.832520432E1,-1.070583701E0,-9.735554695E0,4.931753576E-1
3.834547401E1,-1.109277487E0,-9.728639603E0,5.417079329E-1
3.836574370E1,-1.110222697E0,-9.727272987E0,5.638737679E-1
3.838601339E1,-1.077952027E0,-9.731111526E0,5.602329373E-1
3.840628307E1,-1.000688314E0,-9.741356850E0,5.243979692E-1
3.842655271E1,-8.606889248E-1,-9.759328842E0,4.302441180E-1
3.844682240E1,-6.652765274E-1,-9.780890465E0,2.489306778E-1
3.846709208E1,-4.955739975E-1,-9.793928146E0,-6.149886921E-2
3.848749208E1,-3.888416886E-1,-9.784510612E0,-5.315436125E-1
3.850763146E1,-3.242558837E-1,-9.747056961E0,-1.029625654E0
3.852790109E1,-2.527139783E-1,-9.696013451E0,-1.447016716E0
3.854817078E1,-1.246796325E-1,-9.636349678E0,-1.815379024E0
3.856844047E1,1.098845750E-1,-9.552950859E0,-2.213463545E0
3.858871016E1,3.342471421E-1,-9.442846298E0,-2.625129461E0
3.860897984E1,4.214434624E-1,-9.317037582E0,-3.030772448E0
3.862924953E1,3.521092832E-1,-9.191427231E0,-3.400599480E0
3.864951917E1,2.370966971E-1,-9.072689056E0,-3.714901686E0
3.866978886E1,1.903183162E-1,-8.950594902E0,-4.002626896E0
3.869005854E1,2.238066494E-1,-8.834814072E0,-4.250453949E0
3.871032823E1,2.663123608E-1,-8.752161026E0,-4.415785789E0
3.873059786E1,2.740794122E-1,-8.717217445E0,-4.483903885E0
3.875086760E1,2.693867683E-1,-8.732940674E0,-4.453488827E0
3.877113724E1,2.689879239E-1,-8.806525230E0,-4.306175709E0
3.879140693E1,2.370336056E-1,-8.910195351E0,-4.089330673E0
3.881167662E1,1.550222635E-1,-8.997849464E0,-3.896801949E0
3.883194625E1,3.493338451E-2,-9.050961494E0,-3.774819136E0
3.885221594E1,-7.812703401E-2,-9.086169243E0,-3.688607693E0
3.887248563E1,-1.759705693E-1,-9.093393326E0,-3.667372227E0
3.889275531E1,-2.371877432E-1,-9.060939789E0,-3.743462086E0
3.891302500E1,-2.904581428E-1,-8.942418098E0,-4.014870167E0
3.893329464E1,-2.031485140E-1,-8.875020027E0,-4.166910172E0
3.895356432E1,5.585450307E-2,-8.952336311E0,-4.002867699E0
3.897383401E1,7.815460861E-2,-9.031339645E0,-3.820888281E0
3.899410365E1,-2.122970819E-1,-9.071198463E0,-3.720036268E0
3.901449214E1,-3.946232498E-1,-9.180523872E0,-3.425295115E0
3.903464302E1,-3.589023650E-1,-9.354370117E0,-2.921873093E0
3.905491271E1,-3.635888994E-1,-9.516844749E0,-2.338345289E0
3.907518234E1,-4.658219516E-1,-9.606802940E0,-1.913828135E0
3.909545203E1,-5.746061802E-1,-9.633820534E0,-1.740609646E0
3.911585203E1,-6.670766473E-1,-9.643961906E0,-1.649065375E0
3.913599136E1,-6.928836703E-1,-9.686971664E0,-1.361206532E0
3.915626104E1,-6.960889697E-1,-9.721411705E0,-1.086286783E0
3.917653073E1,-7.476160526E-1,-9.734199524E0,-9.256460667E-1
3.919680036E1,-8.127172589E-1,-9.743729591E0,-7.547090054E-1
3.921720037E1,-8.667171597E-1,-9.751710892E0,-5.686065555E-1
3.923733974E1,-8.991712332E-1,-9.756638527E0,-4.121753573E-1
3.925760938E1,-8.845152259E-1,-9.763455391E0,-2.509021461E-1
3.927787906E1,-8.531829715E-1,-9.769105911E0,-8.378286660E-2
3.929814870E1,-8.538051248E-1,-9.768855095E0,1.043301076E-1
3.931854870E1,-9.060765505E-1,-9.761127472E0,2.642002702E-1
3.933868807E1,-9.949823618E-1,-9.748356819E0,3.872158527E-1
3.935895771E1,-1.096261859E0,-9.733097076E0,4.851952195E-1
3.937922740E1,-1.192545176E0,-9.717855453E0,5.581399798E-1
3.939949708E1,-1.263134360E0,-9.705693245E0,6.118888855E-1
3.941989708E1,-1.274241805E0,-9.702910423E0,6.326278448E-1
3.944003641E1,-1.202651858E0,-9.715063095E0,5.844391584E-1
3.946030604E1,-1.050017476E0,-9.738348007E0,4.821161926E-1
3.948057573E1,-8.354269862E-1,-9.766118050E0,3.088406026E-1
3.950084536E1,-5.908756852E-1,-9.788720131E0,4.703279212E-2
3.952111505E1,-4.076077938E-1,-9.791793823E0,-3.535627723E-1
3.954138469E1,-3.162629306E-1,-9.762961388E0,-8.688722849E-1
3.956165438E1,-2.577858567E-1,-9.714075089E0,-1.319355249E0
3.958192401E1,-1.811700612E-1,-9.657118797E0,-1.696353316E0
3.960219370E1,-9.402114898E-3,-9.578429222E0,-2.103331804E0
3.962246333E1,2.263303250E-1,-9.469876289E0,-2.537838459E0
3.964273302E1,3.943924010E-1,-9.346993446E0,-2.940845490E0
3.966300266E1,4.264523387E-1,-9.222403526E0,-3.306930780E0
3.968327234E1,3.780713081E-1,-9.107403755E0,-3.616996765E0
3.970354198E1,3.379682600E-1,-8.992746353E0,-3.897007465E0
3.972394198E1,3.567404151E-1,-8.873911858E0,-4.158945084E0
3.974408130E1,4.231824279E-1,-8.782897949E0,-4.341887474E0
3.976435099E1,4.633927047E-1,-8.750311852E0,-4.403145313E0
3.978462063E1,4.322806895E-1,-8.765789032E0,-4.375439167E0
3.980489031E1,3.755660355E-1,-8.823290825E0,-4.263667583E0
3.982515995E1,2.891356349E-1,-8.909049034E0,-4.088476658E0
3.984542964E1,1.776177585E-1,-8.985506058E0,-3.924220800E0
3.986569927E1,7.584537566E-2,-9.043357849E0,-3.792402744E0
3.988596891E1,-1.236502174E-2,-9.081671715E0,-3.700468302E0
3.990623859E1,-8.764193207E-2,-9.072531700E0,-3.721812010E0
3.992650823E1,-1.475825757E-1,-9.025989532E0,-3.831463814E0
3.994677792E1,-1.654341519E-1,-8.953611374E0,-3.996981382E0
3.996704755E1,8.775328845E-2,-8.890950203E0,-4.136868477E0
3.998731719E1,6.152897477E-1,-9.031099319E0,-3.772407055E0
4.000758688E1,8.461293578E-1,-9.272843361E0,-3.077149391E0
4.002785651E1,6.212236881E-1,-9.369194984E0,-2.828897238E0
4.004812620E1,1.976985186E-1,-9.365020752E0,-2.903049946E0
4.006839583E1,-6.908270717E-2,-9.382124901E0,-2.853302240E0
4.008866547E1,-2.121568471E-1,-9.463286400E0,-2.563509226E0
4.010893516E1,-3.038270175E-1,-9.569906235E0,-2.120131254E0
4.012920469E1,-3.452624679E-1,-9.637408257E0,-1.780882359E0
4.014947443E1,-2.844543159E-1,-9.667126656E0,-1.623619676E0
4.016974412E1,-2.146924287E-1,-9.689904213E0,-1.493338466E0
4.019001375E1,-2.100448459E-1,-9.719789505E0,-1.285282969E0
4.021028339E1,-2.215906680E-1,-9.746655464E0,-1.060183287E0
4.023055307E1,-2.630369067E-1,-9.768737793E0,-8.203421235E-1
4.025082271E1,-3.311019540E-1,-9.783372879E0,-5.885369182E-1
4.027109234E1,-3.994578123E-1,-9.791307449E0,-3.756613731E-1
4.029136198E1,-4.349218011E-1,-9.795475006E0,-1.729092002E-1
4.031163167E1,-4.600605071E-1,-9.795770645E0,4.003908858E-2
4.033190130E1,-5.257844925E-1,-9.788866997E0,2.683484852E-1
4.035217094E1,-6.568850875E-1,-9.773049355E0,4.758110642E-1
4.037244057E1,-8.069295287E-1,-9.752972603E0,6.314793229E-1
4.039271026E1,-9.134228230E-1,-9.737132072E0,7.240934968E-1
4.041297990E1,-9.377690554E-1,-9.730616570E0,7.785170674E-1
4.043337990E1,-9.133791924E-1,-9.728719711E0,8.295472860E-1
4.045351922E1,-8.790840507E-1,-9.728168488E0,8.719764352E-1
4.047378886E1,-8.121913671E-1,-9.733310699E0,8.794326782E-1
4.049405849E1,-6.817292571E-1,-9.747506142E0,8.317189813E-1
4.051445849E1,-4.885795712E-1,-9.768640518E0,7.108668685E-1
4.053459776E1,-2.634024322E-1,-9.790971756E0,4.877299964E-1
4.055486745E1,-6.603444368E-2,-9.806046486E0,8.646185696E-2
4.057513708E1,2.840483375E-2,-9.797852516E0,-4.143436849E-1
4.059540672E1,7.520278543E-2,-9.766929626E0,-8.785331845E-1
4.061580672E1,1.553924829E-1,-9.719664574E0,-1.293964744E0
4.063594599E1,2.947141528E-1,-9.656134605E0,-1.685999274E0
4.065621568E1,4.700953662E-1,-9.558997154E0,-2.138915539E0
4.067648531E1,6.470023990E-1,-9.431590080E0,-2.607083559E0
4.069675495E1,7.084473968E-1,-9.288084984E0,-3.065935135E0
4.071715495E1,6.458482146E-1,-9.147858620E0,-3.474184275E0
4.073745219E1,5.683438182E-1,-9.012204170E0,-3.824596882E0
4.075756453E1,5.607833862E-1,-8.884235382E0,-4.114155769E0
4.077783406E1,6.242396235E-1,-8.780587196E0,-4.322267056E0
4.079810359E1,6.844527721E-1,-8.716450691E0,-4.441328526E0
4.081850359E1,6.912778020E-1,-8.696061134E0,-4.480072975E0
4.083864276E1,6.737427711E-1,-8.727180481E0,-4.421853065E0
4.085891234E1,6.446173191E-1,-8.809249878E0,-4.260513306E0
4.087918193E1,5.747792721E-1,-8.908616066E0,-4.059135914E0
4.089945156E1,4.892221689E-1,-8.983507156E0,-3.902261972E0
4.091972115E1,4.235331416E-1,-9.015917778E0,-3.834611654E0
4.093999078E1,3.977585733E-1,-9.018793106E0,-3.830606937E0
