"Time (s)","Acceleration x (m/s^2)","Acceleration y (m/s^2)","Acceleration z (m/s^2)"
6.656418700E-2,-1.793417931E0,2.914840698E0,9.190089226E0
8.683481200E-2,-1.767666459E0,2.833309889E0,9.220525742E0
1.071055420E-1,-1.727371931E0,2.748895645E0,9.253656387E0
1.273762190E-1,-1.673619032E0,2.637596607E0,9.295831680E0
1.476469480E-1,-1.595831156E0,2.485103369E0,9.351361275E0
1.679176770E-1,-1.483141065E0,2.304565907E0,9.415925980E0
1.881884060E-1,-1.341498137E0,2.113112688E0,9.481852531E0
2.084591350E-1,-1.115294695E0,1.892485261E0,9.557457924E0
2.287299170E-1,-8.100385666E-1,1.649381399E0,9.632952690E0
2.490006980E-1,-4.884489179E-1,1.463510275E0,9.684520721E0
2.692714270E-1,-2.081753910E-1,1.395638108E0,9.704599380E0
2.895422080E-1,6.591433287E-2,1.398503304E0,9.706194878E0
3.098129900E-1,3.827165365E-1,1.396626115E0,9.699142456E0
3.300837190E-1,6.879433990E-1,1.358369231E0,9.687722206E0
3.503545000E-1,9.134731889E-1,1.280692339E0,9.679657936E0
3.706252810E-1,1.133427739E0,1.142650962E0,9.673680305E0
3.908960100E-1,1.354348540E0,9.026638269E-1,9.670642853E0
4.111667920E-1,1.465674400E0,5.836746693E-1,9.678920746E0
4.314375730E-1,1.470657349E0,2.339631468E-1,9.692926407E0
4.518375730E-1,1.298886657E0,-3.873322532E-2,9.720174789E0
4.719791350E-1,1.120337605E0,-1.316432506E-1,9.741554260E0
4.922498650E-1,1.112646341E0,-5.155276135E-2,9.743189812E0
5.125206460E-1,1.119817376E0,1.667917818E-1,9.741076469E0
5.327914270E-1,1.133849144E0,4.436375797E-1,9.730773926E0
5.530621560E-1,1.235611677E0,6.718042493E-1,9.705272675E0
5.733329370E-1,1.310250759E0,8.281953335E-1,9.683374405E0
5.936036670E-1,1.301741600E0,9.225150347E-1,9.675992012E0
6.138744480E-1,1.214198112E0,9.896416664E-1,9.680739403E0
6.341451770E-1,1.117008209E0,1.057016611E0,9.685318947E0
6.544159580E-1,1.068526149E0,1.125203609E0,9.683106422E0
6.746866870E-1,1.022954226E0,1.196018577E0,9.679539680E0
6.949574690E-1,9.495599866E-1,1.281573057E0,9.676067352E0
7.152281980E-1,8.654084206E-1,1.400182486E0,9.667520523E0
7.354989270E-1,7.574918866E-1,1.593474627E0,9.646628380E0
7.558989270E-1,6.995128989E-1,1.902386785E0,9.594894409E0
7.760404370E-1,7.558528185E-1,2.332495451E0,9.495184898E0
7.963111670E-1,9.445062876E-1,2.818714142E0,9.345220566E0
8.165818960E-1,1.149273872E0,3.262147188E0,9.176489830E0
8.368526250E-1,1.083301067E0,3.678822994E0,9.025691986E0
8.572526250E-1,8.410270810E-1,4.033189297E0,8.899238586E0
8.773941350E-1,7.411179543E-1,4.253240108E0,8.805172920E0
8.976648650E-1,7.359491587E-1,4.358422279E0,8.754022598E0
9.179355940E-1,7.200549841E-1,4.368227959E0,8.750456810E0
9.383355940E-1,6.883430481E-1,4.308227062E0,8.782695770E0
9.586349690E-1,7.958056331E-1,4.188087940E0,8.831591606E0
9.787483540E-1,9.907998443E-1,4.025901318E0,8.887115479E0
9.990189790E-1,1.111268163E0,3.862280369E0,8.945292473E0
1.019289604E0,9.670318961E-1,3.676354408E0,9.039892197E0
1.039560229E0,6.940755248E-1,3.483344793E0,9.140839577E0
1.059830854E0,4.553157091E-1,3.370399714E0,9.198015213E0
1.080101531E0,3.149695098E-1,3.250444651E0,9.246933937E0
1.100372208E0,3.206036687E-1,3.069134474E0,9.308491707E0
1.120642885E0,4.411542416E-1,2.903391600E0,9.356606483E0
1.140913615E0,6.851112247E-1,2.769555092E0,9.382460594E0
1.161184292E0,9.740074873E-1,2.686885118E0,9.380956650E0
1.181455021E0,1.080026746E0,2.744461775E0,9.352639198E0
1.201725698E0,1.065141201E0,2.811641693E0,9.334372520E0
1.221996427E0,1.080921769E0,2.875613689E0,9.313047409E0
1.242267052E0,1.052585363E0,2.913604975E0,9.304480553E0
1.262537781E0,1.071704865E0,2.949721336E0,9.290908813E0
1.282808458E0,1.196716547E0,2.955353737E0,9.273840904E0
1.303079187E0,1.337795019E0,2.944407463E0,9.258031845E0
1.323349865E0,1.360319853E0,2.926039696E0,9.260574341E0
1.343620542E0,1.461544394E0,2.870418549E0,9.262557983E0
1.363891271E0,1.587240696E0,2.843832254E0,9.250062943E0
1.384161948E0,1.710783005E0,2.863087416E0,9.222057343E0
1.404432625E0,1.838554382E0,2.926628351E0,9.177414894E0
1.424703354E0,2.069488764E0,3.065637827E0,9.082371712E0
1.444974031E0,2.322859764E0,3.230120182E0,8.963315964E0
1.465244708E0,2.544562101E0,3.423474550E0,8.830368042E0
1.485515385E0,2.552590132E0,3.647627592E0,8.737818718E0
1.505786062E0,2.286036730E0,3.925754070E0,8.690965652E0
1.526056740E0,1.883896470E0,4.171219826E0,8.673076630E0
1.546327417E0,2.064867020E0,4.262648106E0,8.586998940E0
1.566598094E0,2.191483259E0,4.317316532E0,8.528103828E0
1.586868823E0,2.150625944E0,4.280287266E0,8.557122231E0
1.607139448E0,1.994249344E0,4.139942646E0,8.663384438E0
1.627410125E0,1.911913753E0,3.925538063E0,8.780952454E0
1.647680802E0,1.687302828E0,3.724422693E0,8.913588524E0
1.667951479E0,1.543839574E0,3.570038319E0,9.002320290E0
1.688222156E0,1.427983761E0,3.508655071E0,9.045473099E0
1.708492833E0,1.176998973E0,3.429244280E0,9.111824989E0
1.728763458E0,1.153615355E0,3.246820450E0,9.181378365E0
1.749034135E0,1.585086465E0,3.051167011E0,9.184131622E0
1.769304812E0,2.081528425E0,2.892412424E0,9.136278152E0
1.789575437E0,2.665833950E0,2.945480108E0,8.965929031E0
1.809846115E0,3.164942265E0,3.184803009E0,8.718403816E0
1.830116792E0,3.618962288E0,3.450479507E0,8.436094284E0
1.850387417E0,4.081295490E0,3.627723455E0,8.145736694E0
1.870658094E0,4.642955780E0,3.757287741E0,7.777926922E0
1.890928719E0,5.220142841E0,3.884968758E0,7.336723328E0
1.911199396E0,5.655016899E0,3.975702524E0,6.955929279E0
1.931470021E0,6.037370682E0,3.963743925E0,6.633948803E0
1.951740646E0,6.425721169E0,3.871790648E0,6.315832615E0
1.972011323E0,6.795913696E0,3.769017935E0,5.981677055E0
1.992281948E0,7.162685394E0,3.674690962E0,5.600265980E0
2.012552573E0,7.508786201E0,3.565087318E0,5.203716755E0
2.032823250E0,7.830192089E0,3.427411079E0,4.807423592E0
2.053093875E0,8.162580490E0,3.264947414E0,4.345431805E0
2.073364500E0,8.498373985E0,3.079471827E0,3.803272486E0
2.093635125E0,8.774122238E0,2.882654190E0,3.297797441E0
2.113905750E0,8.960925102E0,2.690760612E0,2.938026190E0
2.134176427E0,9.101100922E0,2.492896795E0,2.669421673E0
2.154447052E0,9.233071327E0,2.293469191E0,2.379241228E0
2.174717677E0,9.354555130E0,2.099317312E0,2.062900066E0
2.194988302E0,9.461802483E0,1.898803949E0,1.743338943E0
2.215258927E0,9.550779343E0,1.716096044E0,1.417046070E0
2.235529552E0,9.614591599E0,1.620975494E0,1.049983144E0
2.255929552E0,9.656006813E0,1.611995578E0,5.773926973E-1
2.276070802E0,9.673489571E0,1.610382199E0,-2.552563883E-2
2.296341427E0,9.650818825E0,1.591472864E0,-7.066112757E-1
2.316612052E0,9.590517998E0,1.588566303E0,-1.291819811E0
2.336882677E0,9.522962570E0,1.589415789E0,-1.719685555E0
2.357282677E0,9.434554100E0,1.568376660E0,-2.167895079E0
2.377423927E0,9.281457901E0,1.560311079E0,-2.755058050E0
2.397694500E0,9.076091766E0,1.582368135E0,-3.360218525E0
2.417965125E0,8.882822037E0,1.621989250E0,-3.825574636E0
2.438235750E0,8.707671165E0,1.670818448E0,-4.189895153E0
2.458635750E0,8.528348923E0,1.712420344E0,-4.528273106E0
2.478777000E0,8.362788200E0,1.705652237E0,-4.829584599E0
2.499047573E0,8.259592056E0,1.632466197E0,-5.028378010E0
2.519318198E0,8.198521614E0,1.519588470E0,-5.161926746E0
2.539588823E0,8.130931854E0,1.402332783E0,-5.300168514E0
2.559988823E0,8.063574791E0,1.301238656E0,-5.427331924E0
2.580130021E0,8.021658897E0,1.228319287E0,-5.505871773E0
2.600400646E0,7.988814354E0,1.191732168E0,-5.561385155E0
2.620671271E0,7.949466228E0,1.180187583E0,-5.619923115E0
2.640941896E0,7.922452450E0,1.158363700E0,-5.662448883E0
2.661212469E0,7.900626659E0,1.120701313E0,-5.700396538E0
2.681483094E0,7.840476513E0,1.085860372E0,-5.789492607E0
2.701753719E0,7.752963543E0,1.074811935E0,-5.908191204E0
2.722024292E0,7.719574451E0,1.123938680E0,-5.942669392E0
2.742294917E0,7.752304077E0,1.229461908E0,-5.878826141E0
2.762565542E0,7.790587425E0,1.355920315E0,-5.799880505E0
2.782836167E0,7.772601128E0,1.485659599E0,-5.792224884E0
2.803106792E0,7.717149734E0,1.585706592E0,-5.839651585E0
2.823377365E0,7.646300793E0,1.683799982E0,-5.905022144E0
2.843647990E0,7.578615665E0,1.804843307E0,-5.956300735E0
2.863918615E0,7.527850151E0,1.903506875E0,-5.989868164E0
2.884189240E0,7.480698109E0,1.936609507E0,-6.038135529E0
2.904459865E0,7.426687717E0,1.933869481E0,-6.105313301E0
2.924730490E0,7.378239632E0,1.959469795E0,-6.155683041E0
2.945001115E0,7.374371529E0,1.961785316E0,-6.159579277E0
2.965271740E0,7.402617931E0,1.922292233E0,-6.138112545E0
2.985542365E0,7.411968231E0,1.904708862E0,-6.132308483E0
3.005812990E0,7.375406265E0,1.931412578E0,-6.167933941E0
3.026083615E0,7.310303211E0,1.927771926E0,-6.246083260E0
3.046354240E0,7.251478195E0,1.849868894E0,-6.337542534E0
3.066624865E0,7.238508701E0,1.678833246E0,-6.399679661E0
3.086895490E0,7.248580933E0,1.546602607E0,-6.421564579E0
3.107166167E0,7.231750488E0,1.417171359E0,-6.470223427E0
3.127436792E0,7.194748878E0,1.245923162E0,-6.546269894E0
3.147707417E0,7.169945717E0,1.032407999E0,-6.610324860E0
3.167978042E0,7.256865501E0,8.179601431E-1,-6.545169353E0
3.188248667E0,7.330541134E0,6.456505656E-1,-6.482028484E0
3.208519292E0,7.411847115E0,4.608710706E-1,-6.404881001E0
3.228789917E0,7.480457306E0,2.372950017E-1,-6.336942196E0
3.249060594E0,7.555051804E0,2.673066966E-2,-6.252269268E0
3.269331219E0,7.625257492E0,-1.280155331E-1,-6.165179253E0
3.289601844E0,7.630191803E0,-2.410928160E-1,-6.155683994E0
3.309872469E0,7.601029396E0,-3.304210603E-1,-6.187532902E0
3.330143146E0,7.527935982E0,-4.312771857E-1,-6.270133495E0
3.350413771E0,7.289343834E0,-5.547313690E-1,-6.536676407E0
3.370684396E0,7.196421623E0,-6.079436541E-1,-6.634177208E0
3.390955073E0,7.206366062E0,-5.779584050E-1,-6.626058102E0
3.411225698E0,7.233877659E0,-5.069645047E-1,-6.601846695E0
3.431496375E0,7.240923405E0,-4.375413656E-1,-6.599089146E0
3.451767000E0,7.189741135E0,-3.887538314E-1,-6.657842159E0
3.472037625E0,7.092233181E0,-3.727220297E-1,-6.762520790E0
3.492308302E0,7.044056416E0,-3.500914276E-1,-6.813889980E0
3.512578927E0,7.020938396E0,-3.023348451E-1,-6.839985847E0
3.532849604E0,6.734960556E0,-2.505211532E-1,-7.123757362E0
3.553120229E0,6.356327534E0,-2.810617387E-1,-7.462472439E0
3.573390906E0,5.934844971E0,-4.863262177E-1,-7.791757584E0
3.593661531E0,5.469056606E0,-7.496483326E-1,-8.105420113E0
3.613932208E0,5.116278648E0,-9.222428203E-1,-8.315259933E0
3.634202833E0,4.855871677E0,-1.037307262E0,-8.456647873E0
3.654473510E0,4.658231735E0,-1.155670047E0,-8.551940918E0
3.674744135E0,4.606646538E0,-1.156281829E0,-8.579755783E0
3.695014812E0,4.533848286E0,-1.127034903E0,-8.622319221E0
3.715285437E0,4.405190468E0,-1.113139987E0,-8.690546989E0
3.735556115E0,4.305693626E0,-1.125275493E0,-8.738715172E0
3.755956115E0,4.164665222E0,-1.150371075E0,-8.803555489E0
3.776097417E0,4.096601486E0,-1.149460077E0,-8.835553169E0
3.796368094E0,4.115951538E0,-1.117835999E0,-8.830615997E0
3.816638719E0,4.039056301E0,-1.145906091E0,-8.862466812E0
3.836909396E0,3.881223202E0,-1.267624617E0,-8.916255951E0
3.857309396E0,3.720111847E0,-1.406578779E0,-8.963966370E0
3.877450698E0,3.552476883E0,-1.512669086E0,-9.014550209E0
3.897721323E0,3.421257257E0,-1.595226526E0,-9.051002502E0
3.917992000E0,3.301769018E0,-1.628201008E0,-9.089426994E0
3.938392000E0,3.006756067E0,-1.681722760E0,-9.181591034E0
3.958691271E0,2.670415878E0,-1.732313156E0,-9.275685310E0
3.978804552E0,2.480103731E0,-1.757799625E0,-9.323605537E0
3.999075125E0,2.385738373E0,-1.776983976E0,-9.344569206E0
4.019345646E0,2.271587610E0,-1.807634354E0,-9.367110252E0
4.039616219E0,2.149688721E0,-1.852434397E0,-9.387104034E0
4.059886844E0,2.086211920E0,-1.877167225E0,-9.396507263E0
4.080157417E0,2.102203608E0,-1.869180083E0,-9.394536018E0
4.100428042E0,2.177742481E0,-1.824704289E0,-9.386068344E0
4.120698719E0,2.165785074E0,-1.802678466E0,-9.393088341E0
4.140969344E0,2.042268515E0,-1.826071620E0,-9.416208267E0
4.161200646E0,1.913897157E0,-1.865981817E0,-9.435332298E0
4.181510542E0,1.806250334E0,-1.913708091E0,-9.446987152E0
4.201781219E0,1.792740583E0,-1.950968027E0,-9.441937447E0
4.222051896E0,1.779137731E0,-2.014437675E0,-9.431177139E0
4.242322521E0,1.751461267E0,-2.072174311E0,-9.423844337E0
4.262593198E0,1.751265526E0,-2.132461548E0,-9.410423279E0
4.282863823E0,1.766032100E0,-2.229966640E0,-9.385028839E0
4.303134500E0,1.721699953E0,-2.373929977E0,-9.357915878E0
4.323405177E0,1.667326093E0,-2.528834581E0,-9.327133179E0
4.343675802E0,1.641732812E0,-2.664440155E0,-9.293861389E0
4.363946427E0,1.649685740E0,-2.811118603E0,-9.249137878E0
4.384217104E0,1.602783442E0,-2.934205294E0,-9.219105721E0
4.404487781E0,1.570883274E0,-3.028419971E0,-9.194095612E0
4.424758458E0,1.611397028E0,-3.115334272E0,-9.157973289E0
4.445158458E0,1.656171441E0,-3.207397699E0,-9.118119240E0
4.465299760E0,1.642005801E0,-3.276926756E0,-9.095931053E0
4.485570385E0,1.726322651E0,-3.325248957E0,-9.062722206E0
4.505841062E0,1.822504044E0,-3.305367947E0,-9.051155090E0
4.526111687E0,1.842553020E0,-3.224813700E0,-9.076120377E0
4.546382365E0,1.846418023E0,-3.117435932E0,-9.112777710E0
4.566652990E0,1.851776123E0,-2.982155561E0,-9.156859398E0
4.586923667E0,1.939864039E0,-2.842294455E0,-9.183064461E0
4.607194292E0,2.177845240E0,-2.728475809E0,-9.164213181E0
4.627464969E0,2.525537252E0,-2.665600300E0,-9.093217850E0
4.647735594E0,2.876082182E0,-2.646143436E0,-8.994246483E0
4.668006271E0,3.084998846E0,-2.589943409E0,-8.941216469E0
4.688276948E0,3.198737383E0,-2.566401005E0,-8.907976151E0
4.708547573E0,3.256397724E0,-2.599121571E0,-8.877546310E0
4.728818250E0,3.270135880E0,-2.593833685E0,-8.874042511E0
4.749088875E0,3.271071672E0,-2.584947348E0,-8.876290321E0
4.769359500E0,3.269663811E0,-2.582932472E0,-8.877395630E0
4.789630177E0,3.262291670E0,-2.582576036E0,-8.880209923E0
4.809900802E0,3.295430422E0,-2.579668283E0,-8.868812561E0
4.830171479E0,3.359369516E0,-2.561633110E0,-8.850031853E0
4.850442104E0,3.407513380E0,-2.559880257E0,-8.832114220E0
4.870712729E0,3.434468031E0,-2.577795267E0,-8.816449165E0
4.890983406E0,3.418837547E0,-2.597672939E0,-8.816690445E0
4.911254031E0,3.314790487E0,-2.606339693E0,-8.853787422E0
4.931524656E0,3.148994684E0,-2.602379799E0,-8.915259361E0
4.951924656E0,2.936230421E0,-2.617451429E0,-8.983200073E0
4.972065958E0,2.679471254E0,-2.637518883E0,-9.057279587E0
4.992336583E0,2.466914654E0,-2.661503553E0,-9.110494614E0
5.012607260E0,2.284418344E0,-2.719150066E0,-9.141008377E0
5.032877885E0,2.110254526E0,-2.772576332E0,-9.166790009E0
5.053148510E0,1.887207985E0,-2.856055260E0,-9.189765930E0
5.073419135E0,1.641034961E0,-2.945260286E0,-9.208845139E0
5.093689812E0,1.531393647E0,-3.037546396E0,-9.197746277E0
5.113960437E0,1.551386952E0,-3.149461031E0,-9.156661987E0
5.134231062E0,1.508199096E0,-3.155296803E0,-9.161868095E0
5.154501687E0,1.482517362E0,-3.086116791E0,-9.189581871E0
5.174772365E0,1.487630844E0,-3.021587849E0,-9.210176468E0
5.195042990E0,1.579200029E0,-2.992468119E0,-9.204436302E0
5.215313615E0,1.733763456E0,-2.960004807E0,-9.187100410E0
5.235584240E0,1.935456872E0,-2.889610291E0,-9.169217110E0
5.255984240E0,2.163492918E0,-2.797849417E0,-9.146677971E0
5.276125490E0,2.324332476E0,-2.734166384E0,-9.126456261E0
5.296396115E0,2.387062311E0,-2.702524424E0,-9.119686127E0
5.316666740E0,2.395506859E0,-2.700124025E0,-9.118183136E0
5.336937365E0,2.380083323E0,-2.728757143E0,-9.113697052E0
5.357337365E0,2.334948301E0,-2.757210970E0,-9.116807938E0
5.377478905E0,2.282867193E0,-2.756907940E0,-9.130080223E0
5.397749009E0,2.231010675E0,-2.768830299E0,-9.139286041E0
5.418019634E0,2.443552494E0,-2.756413698E0,-9.088542938E0
5.438290259E0,2.834660769E0,-2.726483822E0,-8.983393669E0
5.458690259E0,2.858058691E0,-2.760388613E0,-8.965608597E0
5.478831456E0,2.793696642E0,-2.739777327E0,-8.992177010E0
5.499102081E0,2.792531729E0,-2.678555250E0,-9.010965347E0
5.519372706E0,2.786947966E0,-2.667201757E0,-9.016060829E0
5.539643331E0,2.788645506E0,-2.681062460E0,-9.011423111E0
5.560043331E0,2.826822519E0,-2.657186508E0,-9.006599426E0
5.580184581E0,2.856962204E0,-2.639323950E0,-9.002340317E0
5.600455154E0,2.877347708E0,-2.667706490E0,-8.987468719E0
5.620725779E0,2.991098404E0,-2.559273720E0,-8.981862068E0
5.640996404E0,2.965495586E0,-2.517136574E0,-9.002235413E0
5.661267029E0,2.954727650E0,-2.548476934E0,-8.996956825E0
5.681537602E0,2.973497868E0,-2.538902044E0,-8.993480682E0
5.701808227E0,2.999745131E0,-2.533736467E0,-8.986217499E0
5.722078800E0,3.009267807E0,-2.531013489E0,-8.983800888E0
5.742349425E0,3.017035007E0,-2.529616117E0,-8.981587410E0
5.762619998E0,3.027961969E0,-2.525910139E0,-8.978953362E0
5.782890623E0,3.041402340E0,-2.523061991E0,-8.975211143E0
5.803161248E0,3.047024012E0,-2.521132231E0,-8.973846436E0
5.823431821E0,3.053256512E0,-2.523012877E0,-8.971199989E0
5.843702446E0,3.059252501E0,-2.523744822E0,-8.968951225E0
5.863973019E0,3.076380253E0,-2.526108027E0,-8.962424278E0
5.884243644E0,3.080641270E0,-2.524301529E0,-8.961469650E0
5.904514217E0,3.078074932E0,-2.522089481E0,-8.962974548E0
5.924784790E0,3.086181879E0,-2.519325018E0,-8.960964203E0
5.945055415E0,3.093662500E0,-2.514895439E0,-8.959627151E0
5.965325988E0,3.105334997E0,-2.513348818E0,-8.956024170E0
5.985596561E0,3.115218639E0,-2.513012886E0,-8.952684402E0
6.005867186E0,3.121054411E0,-2.513633728E0,-8.950477600E0
6.026137759E0,3.125063181E0,-2.515671730E0,-8.948506355E0
6.046408331E0,3.126502991E0,-2.518639326E0,-8.947168350E0
6.066678904E0,3.125881195E0,-2.522516251E0,-8.946292877E0
6.086949529E0,3.126649857E0,-2.525947571E0,-8.945056915E0
6.107220102E0,3.128596783E0,-2.527675390E0,-8.943886757E0
6.127490675E0,3.132852554E0,-2.534325838E0,-8.940515518E0
6.147761248E0,3.133044243E0,-2.541927099E0,-8.938289642E0
6.168031821E0,3.121197224E0,-2.543900251E0,-8.941872597E0
6.188302394E0,3.100479126E0,-2.543140173E0,-8.949293137E0
6.208572967E0,3.071785450E0,-2.534396410E0,-8.961660385E0
6.228843540E0,3.058674335E0,-2.517330885E0,-8.970949173E0
6.249114113E0,3.066372871E0,-2.493874550E0,-8.974872589E0
6.269384686E0,3.085578203E0,-2.470265150E0,-8.974819183E0
6.289655259E0,3.107718706E0,-2.444864988E0,-8.974135399E0
6.309925831E0,3.131340027E0,-2.415703773E0,-8.973821640E0
6.330196404E0,3.159170628E0,-2.373352766E0,-8.975368500E0
6.350466977E0,3.193976879E0,-2.320159435E0,-8.976957321E0
6.370737550E0,3.221905470E0,-2.258111715E0,-8.982796669E0
6.391008123E0,3.244625092E0,-2.191241741E0,-8.991175652E0
6.411278644E0,3.258429766E0,-2.127637625E0,-9.001454353E0
6.431549217E0,3.260084867E0,-2.065432072E0,-9.015333176E0
6.451819790E0,3.266937733E0,-2.007842302E0,-9.025856018E0
6.472090311E0,3.274779320E0,-1.955849886E0,-9.034426689E0
6.492360884E0,3.272650480E0,-1.907740593E0,-9.045477867E0
6.512631456E0,3.253432274E0,-1.870078802E0,-9.060263634E0
6.532902029E0,3.221832752E0,-1.850647807E0,-9.075531960E0
6.553172550E0,3.211429834E0,-1.839255095E0,-9.081533432E0
6.573443123E0,3.219734430E0,-1.823643088E0,-9.081741333E0
6.593713644E0,3.221004963E0,-1.820376396E0,-9.081946373E0
6.613984217E0,3.222010374E0,-1.819629192E0,-9.081739426E0
6.634254738E0,3.220526457E0,-1.820488334E0,-9.082093239E0
6.654485884E0,3.221454620E0,-1.821832180E0,-9.081495285E0
6.674795779E0,3.223674774E0,-1.824042439E0,-9.080264091E0
6.695066352E0,3.233431339E0,-1.825964928E0,-9.076406479E0
6.715336873E0,3.257247448E0,-1.836719990E0,-9.065715790E0
6.735607394E0,3.263432503E0,-1.861204982E0,-9.058493614E0
6.756007394E0,3.260231018E0,-1.899825335E0,-9.051627159E0
6.776148488E0,3.262167692E0,-1.937411904E0,-9.042957306E0
6.796419009E0,3.262419939E0,-1.957448244E0,-9.038551331E0
6.816689529E0,3.258314133E0,-1.962547779E0,-9.038926125E0
6.836960102E0,3.251935244E0,-1.962941289E0,-9.041136742E0
6.857360102E0,3.243209600E0,-1.964935780E0,-9.043837547E0
6.877501196E0,3.231587648E0,-1.967338204E0,-9.047474861E0
6.897771665E0,3.220308781E0,-1.970818043E0,-9.050738335E0
6.918042238E0,3.210340023E0,-1.977829337E0,-9.052750587E0
6.938442238E0,3.198484421E0,-1.987080336E0,-9.054921150E0
6.958741248E0,3.183401346E0,-1.996267438E0,-9.058215141E0
6.978854425E0,3.171173811E0,-2.004248857E0,-9.060740471E0
6.999124842E0,3.163145542E0,-2.008280516E0,-9.062654495E0
7.019395259E0,3.157553434E0,-2.008355379E0,-9.064587593E0
7.039665675E0,3.153513908E0,-2.007319927E0,-9.066224098E0
7.059936092E0,3.153808594E0,-2.007860661E0,-9.066000938E0
7.080206561E0,3.157955647E0,-2.009583473E0,-9.064174652E0
7.100477029E0,3.165440083E0,-2.010412455E0,-9.061380386E0
7.120747550E0,3.175263405E0,-2.008668661E0,-9.058329582E0
7.141018071E0,3.186691761E0,-2.004942656E0,-9.055141449E0
7.161288592E0,3.197354555E0,-2.002851009E0,-9.051845551E0
7.181559061E0,3.206591606E0,-2.003130913E0,-9.048515320E0
7.201829477E0,3.211822271E0,-2.004880667E0,-9.046272278E0
7.222100050E0,3.214572191E0,-2.004997015E0,-9.045269966E0
7.242370519E0,3.213344574E0,-2.001459599E0,-9.046489716E0
7.262640988E0,3.208916664E0,-1.998518467E0,-9.048710823E0
7.282911509E0,3.205697536E0,-1.997561574E0,-9.050063133E0
7.303181977E0,3.202477217E0,-1.998158336E0,-9.051071167E0
7.323452498E0,3.198642254E0,-2.001257420E0,-9.051742554E0
7.343723019E0,3.194645643E0,-2.007339001E0,-9.051807404E0
7.363993488E0,3.187459469E0,-2.015629292E0,-9.052497864E0
7.384264009E0,3.179503918E0,-2.023381472E0,-9.053566933E0
7.404534477E0,3.169646978E0,-2.028321743E0,-9.055916786E0
7.424804998E0,3.159163475E0,-2.031177759E0,-9.058939934E0
7.445075467E0,3.153835773E0,-2.031711102E0,-9.060676575E0
7.465345988E0,3.152303934E0,-2.029685974E0,-9.061663628E0
7.485616456E0,3.150689840E0,-2.028228998E0,-9.062551498E0
7.505886977E0,3.149836063E0,-2.031385183E0,-9.062141418E0
7.526157446E0,3.148828268E0,-2.036824942E0,-9.061269760E0
7.546427915E0,3.147019863E0,-2.040338755E0,-9.061107635E0
7.566698436E0,3.144595146E0,-2.042612791E0,-9.061436653E0
7.586968904E0,3.141915321E0,-2.048004866E0,-9.061149597E0
7.607239373E0,3.137720346E0,-2.053317547E0,-9.061400414E0
7.627509894E0,3.128634214E0,-2.058362007E0,-9.063398361E0
7.647780363E0,3.115499973E0,-2.063907862E0,-9.066660881E0
7.668050831E0,3.097836256E0,-2.067900181E0,-9.071802139E0
7.688321300E0,3.077504635E0,-2.071045160E0,-9.078001976E0
7.708591821E0,3.055932522E0,-2.075204849E0,-9.084338188E0
7.728862290E0,3.034782648E0,-2.079117537E0,-9.090530396E0
7.749132759E0,3.014154911E0,-2.078955412E0,-9.097428322E0
7.769403227E0,2.983057499E0,-2.073341370E0,-9.108952522E0
7.789673696E0,2.930719376E0,-2.050322056E0,-9.131125450E0
7.809944165E0,2.854624033E0,-2.018130302E0,-9.162350655E0
7.830214634E0,2.752978802E0,-1.981878161E0,-9.201285362E0
7.850485102E0,2.669494152E0,-1.947471857E0,-9.233175278E0
7.870755571E0,2.621603251E0,-1.920398474E0,-9.252548218E0
7.891026040E0,2.580540419E0,-1.896342874E0,-9.269039154E0
7.911296509E0,2.535093784E0,-1.873528719E0,-9.286203384E0
7.931566977E0,2.501232862E0,-1.856831551E0,-9.298730850E0
7.951837446E0,2.487550735E0,-1.847137332E0,-9.304330826E0
7.972107915E0,2.493276358E0,-1.844277740E0,-9.303364754E0
7.992378384E0,2.508440495E0,-1.845014095E0,-9.299141884E0
8.012648852E0,2.525604248E0,-1.849060059E0,-9.293691635E0
8.032919321E0,2.536288500E0,-1.852001190E0,-9.290195465E0
8.053189790E0,2.538810253E0,-1.852693796E0,-9.289367676E0
8.073460206E0,2.540566444E0,-1.852718592E0,-9.288883209E0
8.093730675E0,2.545933962E0,-1.854719639E0,-9.287014008E0
8.114001144E0,2.554351807E0,-1.856459022E0,-9.284355164E0
8.134271561E0,2.564477682E0,-1.854828119E0,-9.281888008E0
8.154542081E0,2.570903063E0,-1.850023746E0,-9.281068802E0
8.174812550E0,2.576143980E0,-1.845226169E0,-9.280570984E0
8.195083019E0,2.580177307E0,-1.840727091E0,-9.280344963E0
8.215353436E0,2.580813169E0,-1.835748911E0,-9.281154633E0
8.235623904E0,2.578022003E0,-1.830259085E0,-9.283013344E0
8.256023904E0,2.575466156E0,-1.827443361E0,-9.284276962E0
8.276164842E0,2.573323250E0,-1.826467633E0,-9.285063744E0
8.296435311E0,2.569366455E0,-1.825348854E0,-9.286379814E0
8.316705779E0,2.564237833E0,-1.824237823E0,-9.288015366E0
8.336976248E0,2.559561729E0,-1.823629141E0,-9.289423943E0
8.357376248E0,2.553536654E0,-1.824301004E0,-9.290950775E0
8.377517134E0,2.551489115E0,-1.826945662E0,-9.290993690E0
8.397787602E0,2.551697016E0,-1.828814030E0,-9.290569305E0
8.418058071E0,2.552610159E0,-1.828906178E0,-9.290299416E0
8.438328540E0,2.556255102E0,-1.828391433E0,-9.289399147E0
8.458728540E0,2.560150623E0,-1.829156280E0,-9.288174629E0
8.478869425E0,2.564769030E0,-1.829773545E0,-9.286780357E0
8.499139894E0,2.567526340E0,-1.829603314E0,-9.286050797E0
8.519410363E0,2.570347786E0,-1.829960108E0,-9.285201073E0
8.539680779E0,2.573554277E0,-1.831176400E0,-9.284071922E0
8.560080779E0,2.575670719E0,-1.832806826E0,-9.283164024E0
8.580221717E0,2.576025486E0,-1.833189249E0,-9.282989502E0
8.600492186E0,2.576614380E0,-1.832645416E0,-9.282934189E0
8.620762602E0,2.576420069E0,-1.830721021E0,-9.283366203E0
8.641033071E0,2.576094627E0,-1.829801440E0,-9.283639908E0
8.661303540E0,2.574291468E0,-1.829360962E0,-9.284226418E0
8.681573956E0,2.573893547E0,-1.830016971E0,-9.284206390E0
8.701844425E0,2.573759079E0,-1.831373453E0,-9.283976555E0
8.722114894E0,2.573881388E0,-1.833371401E0,-9.283549309E0
8.742385363E0,2.574505568E0,-1.836495757E0,-9.282757759E0
8.762655779E0,2.576180458E0,-1.839757085E0,-9.281647682E0
8.782926248E0,2.578267336E0,-1.841994524E0,-9.280623436E0
8.803196665E0,2.579937935E0,-1.843397856E0,-9.279880524E0
8.823467134E0,2.581967354E0,-1.843825579E0,-9.279231071E0
8.843737550E0,2.583298206E0,-1.844180465E0,-9.278790474E0
8.864007967E0,2.582089663E0,-1.843468070E0,-9.279269218E0
8.884278488E0,2.582023144E0,-1.843455315E0,-9.279289246E0
8.904548956E0,2.582370520E0,-1.843351603E0,-9.279213905E0
8.924819373E0,2.581677914E0,-1.842665195E0,-9.279541969E0
8.945089842E0,2.581027985E0,-1.842418432E0,-9.279772758E0
8.965360206E0,2.582715034E0,-1.843268037E0,-9.279134750E0
8.985630727E0,2.585446119E0,-1.845049500E0,-9.278019905E0
9.005901144E0,2.588957310E0,-1.846871376E0,-9.276678085E0
9.026171561E0,2.592561960E0,-1.847845554E0,-9.275477409E0
9.046442029E0,2.596850634E0,-1.848870516E0,-9.274072647E0
9.066712498E0,2.600356340E0,-1.849661112E0,-9.272933006E0
9.086982915E0,2.602403402E0,-1.849405646E0,-9.272409439E0
9.107253384E0,2.604745626E0,-1.850189090E0,-9.271595955E0
9.127523800E0,2.607174158E0,-1.850908518E0,-9.270770073E0
9.147794217E0,2.609247208E0,-1.851444244E0,-9.270079613E0
9.168064686E0,2.609527588E0,-1.851544380E0,-9.269979477E0
9.188335102E0,2.609084368E0,-1.852577209E0,-9.269898415E0
9.208605571E0,2.607686043E0,-1.852933168E0,-9.270220757E0
9.228875988E0,2.606819868E0,-1.853114367E0,-9.270428658E0
9.249146404E0,2.606132746E0,-1.853844404E0,-9.270475388E0
9.269416873E0,2.605385303E0,-1.854540467E0,-9.270546913E0
9.289687290E0,2.604786634E0,-1.855321527E0,-9.270558357E0
9.309957706E0,2.604848385E0,-1.856434226E0,-9.270318031E0
9.330228175E0,2.604908705E0,-1.856650949E0,-9.270257950E0
9.350498592E0,2.606044531E0,-1.857327580E0,-9.269803047E0
9.370769009E0,2.606616259E0,-1.857443571E0,-9.269619942E0
9.391039477E0,2.607768774E0,-1.857775450E0,-9.269228935E0
9.411309894E0,2.609386444E0,-1.857641220E0,-9.268800735E0
9.431580311E0,2.610798359E0,-1.858610749E0,-9.268209457E0
9.451980311E0,2.612526894E0,-1.859366536E0,-9.267570496E0
9.472121196E0,2.614812374E0,-1.860090733E0,-9.266779900E0
9.492391613E0,2.617385864E0,-1.860532045E0,-9.265964508E0
9.512662029E0,2.619148016E0,-1.861029625E0,-9.265366554E0
9.532932498E0,2.620623827E0,-1.861495614E0,-9.264856339E0
9.553202915E0,2.622172117E0,-1.861869454E0,-9.264342308E0
9.573473331E0,2.623126745E0,-1.862086892E0,-9.264029503E0
9.593743748E0,2.622787237E0,-1.862924099E0,-9.263957024E0
9.649470727E0,2.628331423E0,-1.868010879E0,-9.261360168E0
9.669689269E0,2.629378796E0,-1.869473577E0,-9.260767937E0
9.689950415E0,2.629428148E0,-1.870890856E0,-9.260467529E0
9.710231404E0,2.631023169E0,-1.872649431E0,-9.259658813E0
9.730501613E0,2.634070396E0,-1.875176072E0,-9.258282661E0
9.750771977E0,2.637362242E0,-1.878060102E0,-9.256759644E0
9.771042394E0,2.640697479E0,-1.880710006E0,-9.255270958E0
9.791312811E0,2.645565271E0,-1.883143425E0,-9.253385544E0
9.811583227E0,2.649043798E0,-1.884903908E0,-9.252032280E0
9.831853644E0,2.652617931E0,-1.887298703E0,-9.250519753E0
9.852124061E0,2.656369925E0,-1.889791846E0,-9.248933792E0
9.872394477E0,2.660100698E0,-1.892489552E0,-9.247309685E0
9.892664894E0,2.664246798E0,-1.896003604E0,-9.245395660E0
9.912935311E0,2.668985367E0,-1.899443269E0,-9.243322372E0
9.933205727E0,2.672675133E0,-1.902811885E0,-9.241563797E0
9.953476144E0,2.675943136E0,-1.906635880E0,-9.239830017E0
9.973746561E0,2.679492712E0,-1.909866214E0,-9.238133430E0
9.994016977E0,2.683096170E0,-1.913750529E0,-9.236283302E0
1.001428739E1,2.687409639E0,-1.918394685E0,-9.234066010E0
1.003455781E1,2.691667318E0,-1.923741937E0,-9.231713295E0
1.005482823E1,2.696556091E0,-1.928412199E0,-9.229311943E0
1.007509864E1,2.701472521E0,-1.931546926E0,-9.227217674E0
1.009536901E1,2.705227375E0,-1.935036421E0,-9.225386620E0
1.011563943E1,2.708413124E0,-1.938208938E0,-9.223786354E0
1.013590984E1,2.712135553E0,-1.941462636E0,-9.222007751E0
1.015618026E1,2.716343641E0,-1.945452690E0,-9.219928741E0
1.017645068E1,2.720893860E0,-1.949677825E0,-9.217694283E0
1.019672104E1,2.725237608E0,-1.954371095E0,-9.215416908E0
1.021699146E1,2.728685141E0,-1.958222508E0,-9.213578224E0
1.023726187E1,2.731731892E0,-1.961374640E0,-9.212004662E0
1.025753229E1,2.733280182E0,-1.965544224E0,-9.210656166E0
1.027780265E1,2.738522053E0,-1.975220799E0,-9.207029343E0
1.029807307E1,2.752389669E0,-1.993723750E0,-9.198902130E0
1.033361375E1,2.776450872E0,-2.035737276E0,-9.182455063E0
1.035388427E1,2.798910141E0,-2.060410500E0,-9.170125008E0
1.037415469E1,2.834055901E0,-2.088985682E0,-9.152849197E0
1.039442505E1,2.890266895E0,-2.122451305E0,-9.127537727E0
1.041469547E1,2.957582235E0,-2.167296648E0,-9.095378876E0
1.043496583E1,3.030609608E0,-2.210261583E0,-9.060934067E0
1.045536583E1,3.092615366E0,-2.241418362E0,-9.032283783E0
1.047550667E1,3.126379490E0,-2.260264158E0,-9.015949249E0
1.049577703E1,3.139104366E0,-2.273427486E0,-9.008214951E0
1.051604745E1,3.144277334E0,-2.287349939E0,-9.002883911E0
1.053631781E1,3.150696754E0,-2.302598476E0,-8.996750832E0
1.055671781E1,3.150411129E0,-2.311698437E0,-8.994517326E0
1.057685859E1,3.144009352E0,-2.313190699E0,-8.996374130E0
1.059712901E1,3.141318798E0,-2.312146664E0,-8.997581482E0
1.061739937E1,3.135691166E0,-2.306827545E0,-9.000909805E0
1.063766979E1,3.130861521E0,-2.303278685E0,-9.003499985E0
1.065806979E1,3.136935234E0,-2.304099798E0,-9.001174927E0
1.067821057E1,3.152615070E0,-2.305221319E0,-8.995408058E0
1.069848094E1,3.179862976E0,-2.308569193E0,-8.984951973E0
1.071875130E1,3.208109617E0,-2.310282707E0,-8.974464417E0
1.073902172E1,3.230321646E0,-2.308202982E0,-8.967028618E0
1.075942172E1,3.247266769E0,-2.303857565E0,-8.962024689E0
1.077956245E1,3.259373426E0,-2.299903154E0,-8.958644867E0
1.079983286E1,3.267803669E0,-2.296396494E0,-8.956474304E0
1.082010323E1,3.272308111E0,-2.294085979E0,-8.955420494E0
1.084037359E1,3.277920246E0,-2.293088198E0,-8.953623772E0
1.086064401E1,3.282989264E0,-2.292747974E0,-8.951853752E0
1.088091437E1,3.288437605E0,-2.292899847E0,-8.949813843E0
1.090118474E1,3.293406248E0,-2.293289423E0,-8.947887421E0
1.092145510E1,3.293609381E0,-2.294188738E0,-8.947582245E0
1.094172547E1,3.283111095E0,-2.291603088E0,-8.952101707E0
1.096199583E1,3.272632122E0,-2.289696217E0,-8.956424713E0
1.098226625E1,3.264020681E0,-2.287591457E0,-8.960104942E0
1.100253661E1,3.254083157E0,-2.286052942E0,-8.964110374E0
1.102280698E1,3.244976997E0,-2.285018206E0,-8.967676163E0
1.104307734E1,3.238662243E0,-2.285577059E0,-8.969815254E0
1.106334771E1,3.234251022E0,-2.286231279E0,-8.971240997E0
1.108361807E1,3.231858492E0,-2.286696196E0,-8.971983910E0
1.110388844E1,3.230027199E0,-2.286343336E0,-8.972733498E0
1.112415880E1,3.230704546E0,-2.286054850E0,-8.972562790E0
1.114442916E1,3.232576132E0,-2.285476208E0,-8.972037315E0
1.116469953E1,3.240148306E0,-2.284241199E0,-8.969619751E0
1.118496984E1,3.258510113E0,-2.285703659E0,-8.962591171E0
1.120524026E1,3.268315077E0,-2.284223318E0,-8.959398270E0
1.122551062E1,3.274984598E0,-2.279390097E0,-8.958194733E0
1.124578099E1,3.281413794E0,-2.274782419E0,-8.957013130E0
1.126605130E1,3.286795378E0,-2.271557331E0,-8.955858231E0
1.128632167E1,3.286162376E0,-2.268908501E0,-8.956762314E0
1.130659203E1,3.284087896E0,-2.269224882E0,-8.957442284E0
1.132686239E1,3.284310341E0,-2.271541834E0,-8.956773758E0
1.134713276E1,3.282260895E0,-2.272654295E0,-8.957242966E0
1.136740307E1,3.276198864E0,-2.271270514E0,-8.959812164E0
1.138767344E1,3.271294117E0,-2.272160530E0,-8.961379051E0
1.140794380E1,3.274093390E0,-2.274802923E0,-8.959686279E0
1.142821411E1,3.277618885E0,-2.274801731E0,-8.958396912E0
1.144848448E1,3.279216051E0,-2.271107435E0,-8.958749771E0
1.146875479E1,3.270411730E0,-2.270312548E0,-8.962169647E0
1.148902515E1,3.272731304E0,-2.269735336E0,-8.961467743E0
1.150929552E1,3.279096127E0,-2.269562006E0,-8.959185600E0
1.152956583E1,3.283757687E0,-2.268394947E0,-8.957774162E0
1.154983620E1,3.290353298E0,-2.262193441E0,-8.956920624E0
1.157010651E1,3.309223413E0,-2.247733831E0,-8.953610420E0
1.159037687E1,3.321561813E0,-2.236696959E0,-8.951805115E0
1.161064724E1,3.334972858E0,-2.231601715E0,-8.948089600E0
1.163091755E1,3.348578215E0,-2.225768566E0,-8.944459915E0
1.165118792E1,3.351076365E0,-2.228224993E0,-8.942913055E0
1.167145823E1,3.322890520E0,-2.246612310E0,-8.948827744E0
1.169172854E1,3.330921412E0,-2.256875515E0,-8.943257332E0
1.171199890E1,3.321477890E0,-2.260265589E0,-8.945914268E0
1.173226922E1,3.304526567E0,-2.262320995E0,-8.951669693E0
1.175253953E1,3.282586575E0,-2.260935068E0,-8.960087776E0
1.177280989E1,3.272498608E0,-2.264451981E0,-8.962889671E0
1.179308021E1,3.268570662E0,-2.262016535E0,-8.964938164E0
1.181335052E1,3.274811745E0,-2.261070728E0,-8.962898254E0
1.183362083E1,3.267081499E0,-2.266046762E0,-8.964463234E0
1.185389120E1,3.262018919E0,-2.263917208E0,-8.966844559E0
1.187416151E1,3.269534588E0,-2.259948492E0,-8.965107918E0
1.189443182E1,3.284655333E0,-2.246433735E0,-8.962977409E0
1.191470213E1,3.303815842E0,-2.210834503E0,-8.964786530E0
1.193497245E1,3.303307295E0,-2.164829254E0,-8.976193428E0
1.195537245E1,3.278923512E0,-2.159698725E0,-8.986365318E0
1.197551307E1,3.265854359E0,-2.176446199E0,-8.987083435E0
1.199578338E1,3.255885363E0,-2.197923183E0,-8.985473633E0
1.201605375E1,3.242047787E0,-2.215017796E0,-8.986278534E0
1.203632406E1,3.222239494E0,-2.230281830E0,-8.989627838E0
1.205672406E1,3.192400455E0,-2.248911619E0,-8.995630264E0
1.207686469E1,3.154081106E0,-2.298554659E0,-8.996600151E0
1.209713500E1,3.134787560E0,-2.358610868E0,-8.987794876E0
1.211740526E1,3.115559578E0,-2.376988888E0,-8.989638329E0
1.213767562E1,3.085421324E0,-2.387993097E0,-8.997113228E0
1.215807562E1,3.064785004E0,-2.407778740E0,-8.998892784E0
1.217821620E1,3.067028999E0,-2.439565182E0,-8.989562988E0
1.219848651E1,3.065976143E0,-2.472489595E0,-8.980922699E0
1.221875682E1,3.058838367E0,-2.499822378E0,-8.975789070E0
1.223902713E1,3.052001238E0,-2.521869659E0,-8.971947670E0
1.225929739E1,3.047952414E0,-2.520516872E0,-8.973704338E0
1.227956771E1,3.046177864E0,-2.511697054E0,-8.976778984E0
1.229983802E1,3.043697357E0,-2.499319315E0,-8.981074333E0
1.232010833E1,3.043619156E0,-2.483852148E0,-8.985390663E0
1.234037859E1,3.042168617E0,-2.463651657E0,-8.991440773E0
1.236064890E1,3.036592722E0,-2.445092678E0,-8.998390198E0
1.238091922E1,3.026161671E0,-2.428973913E0,-9.006265640E0
1.240118948E1,3.012346506E0,-2.418239594E0,-9.013782501E0
1.242145979E1,3.012390852E0,-2.404368877E0,-9.017477989E0
1.244173005E1,3.025788546E0,-2.354230881E0,-9.026216507E0
1.246200036E1,3.022539139E0,-2.335879087E0,-9.032072067E0
1.248227062E1,3.022953987E0,-2.344821930E0,-9.029614449E0
1.250254094E1,3.029556274E0,-2.359202862E0,-9.023653984E0
1.252281125E1,3.050264359E0,-2.362276793E0,-9.015870094E0
1.254308151E1,3.065248013E0,-2.348394156E0,-9.014415741E0
1.256335177E1,3.061235189E0,-2.343225956E0,-9.017123222E0
1.258362208E1,3.061383247E0,-2.343502283E0,-9.017002106E0
1.260389234E1,3.062615871E0,-2.341624260E0,-9.017070770E0
1.262416260E1,3.060358524E0,-2.340961218E0,-9.018009186E0
1.264443292E1,3.057818174E0,-2.340973854E0,-9.018868446E0
1.266470318E1,3.053111315E0,-2.340387583E0,-9.020614624E0
1.268497349E1,3.049622774E0,-2.340184689E0,-9.021846771E0
1.270524375E1,3.047594070E0,-2.340636969E0,-9.022415161E0
1.272551401E1,3.046190262E0,-2.341488361E0,-9.022668839E0
1.274578427E1,3.045298338E0,-2.342421770E0,-9.022727013E0
1.276605458E1,3.045946836E0,-2.343217373E0,-9.022301674E0
1.278632484E1,3.046876431E0,-2.343970060E0,-9.021792412E0
1.280659510E1,3.048853397E0,-2.343438148E0,-9.021263123E0
1.282686536E1,3.051137924E0,-2.343434572E0,-9.020491600E0
1.284713562E1,3.052841902E0,-2.342919588E0,-9.020047188E0
1.286740588E1,3.052834988E0,-2.342493057E0,-9.020160675E0
1.288767614E1,3.053116322E0,-2.342941999E0,-9.019949913E0
1.290794646E1,3.053684950E0,-2.343503237E0,-9.019611359E0
1.292821672E1,3.055417538E0,-2.344340563E0,-9.018807411E0
1.294848698E1,3.057041407E0,-2.345054150E0,-9.018071175E0
1.296875724E1,3.057830572E0,-2.345596790E0,-9.017663002E0
1.298902745E1,3.055402517E0,-2.345316887E0,-9.018558502E0
1.300929771E1,3.053086281E0,-2.345759630E0,-9.019227028E0
1.302956797E1,3.052958965E0,-2.347128153E0,-9.018915176E0
1.304983823E1,3.053507090E0,-2.346918821E0,-9.018783569E0
1.307010849E1,3.053316116E0,-2.346257448E0,-9.019020081E0
1.309037875E1,3.052587509E0,-2.346317291E0,-9.019250870E0
1.311064901E1,3.052718878E0,-2.347581625E0,-9.018877983E0
1.313091927E1,3.054123163E0,-2.347836494E0,-9.018335342E0
1.315118948E1,3.056286097E0,-2.346245766E0,-9.018016815E0
1.317145974E1,3.059273720E0,-2.346247196E0,-9.017004013E0
1.319173000E1,3.055964708E0,-2.348005056E0,-9.017667770E0
1.321200026E1,3.056113243E0,-2.347471952E0,-9.017757416E0
1.323227047E1,3.059453964E0,-2.348624706E0,-9.016324043E0
1.325254073E1,3.058762312E0,-2.349133730E0,-9.016426086E0
1.327281099E1,3.053566694E0,-2.349889517E0,-9.017989159E0
1.329308120E1,3.046135187E0,-2.352353573E0,-9.019861221E0
1.331335146E1,3.042963743E0,-2.351970196E0,-9.021030426E0
1.333362172E1,3.045365810E0,-2.352596760E0,-9.020056725E0
1.335389193E1,3.046249151E0,-2.354600191E0,-9.019235611E0
1.337416219E1,3.044224501E0,-2.354533672E0,-9.019936562E0
1.339443239E1,3.046317339E0,-2.354601860E0,-9.019212723E0
1.341470265E1,3.051794767E0,-2.355141401E0,-9.017220497E0
1.343497286E1,3.053936958E0,-2.354320049E0,-9.016708374E0
1.345537286E1,3.057394743E0,-2.351716280E0,-9.016216278E0
1.347551333E1,3.061556339E0,-2.351185560E0,-9.014942169E0
1.349578359E1,3.063680887E0,-2.349912643E0,-9.014552116E0
1.351605380E1,3.062222481E0,-2.348259926E0,-9.015479088E0
1.353632401E1,3.059695721E0,-2.346527576E0,-9.016787529E0
1.355672401E1,3.058074713E0,-2.344722271E0,-9.017807961E0
1.357686448E1,3.056090832E0,-2.343208551E0,-9.018872261E0
1.359713469E1,3.053933859E0,-2.342144251E0,-9.019879341E0
1.361740495E1,3.050980568E0,-2.341801882E0,-9.020967484E0
1.363767515E1,3.048853874E0,-2.341843128E0,-9.021676064E0
1.365807515E1,3.047079086E0,-2.341581345E0,-9.022344589E0
1.367821557E1,3.045326948E0,-2.341194630E0,-9.023036003E0
1.369848583E1,3.043189049E0,-2.340172052E0,-9.024023056E0
1.371875604E1,3.043148994E0,-2.339440346E0,-9.024226189E0
1.373902625E1,3.044646740E0,-2.339348555E0,-9.023744583E0
1.375942625E1,3.046406269E0,-2.339132786E0,-9.023206711E0
1.377956666E1,3.048465967E0,-2.339351654E0,-9.022453308E0
1.379983687E1,3.050524473E0,-2.339168787E0,-9.021805763E0
1.382010708E1,3.051853180E0,-2.338909864E0,-9.021423340E0
1.384037729E1,3.052250862E0,-2.339828968E0,-9.021050453E0
1.386064750E1,3.053408861E0,-2.340876818E0,-9.020386696E0
1.388091771E1,3.053425789E0,-2.341617823E0,-9.020188332E0
1.390118792E1,3.053214550E0,-2.342486620E0,-9.020034790E0
1.392145812E1,3.053137541E0,-2.343054533E0,-9.019913673E0
1.394172833E1,3.052509069E0,-2.343099594E0,-9.020113945E0
1.396199854E1,3.051724672E0,-2.343145847E0,-9.020367622E0
1.398226875E1,3.051251411E0,-2.343850136E0,-9.020344734E0
1.400253896E1,3.051071167E0,-2.344138622E0,-9.020330429E0
1.402280917E1,3.051065445E0,-2.344846249E0,-9.020149231E0
1.404307932E1,3.050143480E0,-2.345363617E0,-9.020326614E0
1.406334953E1,3.050445318E0,-2.346290827E0,-9.019983292E0
1.408361974E1,3.050665617E0,-2.346384287E0,-9.019884109E0
1.410388995E1,3.051781893E0,-2.347358227E0,-9.019252777E0
1.412416015E1,3.052010298E0,-2.347557783E0,-9.019124031E0
1.414443031E1,3.052712202E0,-2.347476959E0,-9.018907547E0
1.416470052E1,3.052918196E0,-2.348670244E0,-9.018527031E0
1.418497068E1,3.052552462E0,-2.349529743E0,-9.018426895E0
1.423061229E1,3.053593159E0,-2.351197958E0,-9.017639160E0
1.425078187E1,3.053972721E0,-2.351633549E0,-9.017397881E0
1.427103302E1,3.054193974E0,-2.351869822E0,-9.017260551E0
1.429132224E1,3.054220438E0,-2.352098703E0,-9.017192841E0
1.431159192E1,3.053493261E0,-2.352131844E0,-9.017429352E0
1.433186203E1,3.052839041E0,-2.351723433E0,-9.017757416E0
1.435213219E1,3.052395582E0,-2.351329327E0,-9.018011093E0
1.437240234E1,3.052239180E0,-2.350822687E0,-9.018195152E0
1.439267255E1,3.052737474E0,-2.349845648E0,-9.018281937E0
1.441294271E1,3.053538799E0,-2.349145412E0,-9.018193245E0
1.443321292E1,3.053399324E0,-2.348887682E0,-9.018307686E0
1.445348307E1,3.051985025E0,-2.348854780E0,-9.018795013E0
1.447375323E1,3.051068068E0,-2.348047018E0,-9.019314766E0
1.449402344E1,3.050405025E0,-2.347328186E0,-9.019726753E0
1.451429359E1,3.050281763E0,-2.346196413E0,-9.020062447E0
1.453456370E1,3.050060272E0,-2.345181942E0,-9.020401955E0
1.455483396E1,3.050672054E0,-2.344356298E0,-9.020408630E0
1.457510411E1,3.051004410E0,-2.343693733E0,-9.020469666E0
1.459537427E1,3.051182985E0,-2.342390776E0,-9.020747185E0
1.461564443E1,3.051441431E0,-2.341422558E0,-9.020910263E0
1.463591463E1,3.052020073E0,-2.341316938E0,-9.020742416E0
1.465618479E1,3.052381754E0,-2.340710163E0,-9.020777702E0
1.467645495E1,3.053036690E0,-2.339984179E0,-9.020744324E0
1.469685495E1,3.053393126E0,-2.339187145E0,-9.020830154E0
1.471699526E1,3.053300619E0,-2.338578224E0,-9.021018982E0
1.473726542E1,3.053118706E0,-2.338293076E0,-9.021155357E0
1.475753557E1,3.052834272E0,-2.338143826E0,-9.021288872E0
1.477780573E1,3.052322626E0,-2.337469578E0,-9.021638870E0
1.479807594E1,3.052185774E0,-2.337406158E0,-9.021699905E0
1.481834609E1,3.052492857E0,-2.337639332E0,-9.021535873E0
1.483861625E1,3.052490950E0,-2.337000608E0,-9.021702766E0
1.485888640E1,3.052211523E0,-2.336320877E0,-9.021972656E0
1.487915651E1,3.051530838E0,-2.335398912E0,-9.022441864E0
1.489942667E1,3.052009106E0,-2.334518909E0,-9.022507668E0
1.491969682E1,3.052306652E0,-2.334991693E0,-9.022285461E0
1.493996698E1,3.052627802E0,-2.334793806E0,-9.022226334E0
1.496036698E1,3.053306341E0,-2.334835529E0,-9.021986961E0
1.498050729E1,3.053695679E0,-2.334479570E0,-9.021947861E0
1.500077745E1,3.054064989E0,-2.334325075E0,-9.021862984E0
1.502104760E1,3.054897070E0,-2.334115982E0,-9.021634102E0
1.504131771E1,3.054187536E0,-2.333216667E0,-9.022107124E0
1.506171771E1,3.053704977E0,-2.332793951E0,-9.022380829E0
1.508185802E1,3.054251909E0,-2.332992792E0,-9.022143364E0
1.510212812E1,3.054755211E0,-2.332977533E0,-9.021977425E0
1.512239828E1,3.054746151E0,-2.332841396E0,-9.022015572E0
1.514266844E1,3.054590940E0,-2.331935644E0,-9.022302628E0
1.516306844E1,3.053983927E0,-2.331934452E0,-9.022508621E0
1.518320870E1,3.053360939E0,-2.332314730E0,-9.022620201E0
1.520347885E1,3.052792072E0,-2.332587957E0,-9.022742271E0
1.522374896E1,3.051511765E0,-2.332635403E0,-9.023163795E0
1.524401911E1,3.050834894E0,-2.332045078E0,-9.023544312E0
1.526428922E1,3.051128149E0,-2.331662178E0,-9.023543358E0
1.528455937E1,3.051295519E0,-2.331956387E0,-9.023411751E0
1.530482948E1,3.050925255E0,-2.331823111E0,-9.023571968E0
1.532509963E1,3.051305532E0,-2.331516743E0,-9.023521423E0
1.534536974E1,3.051676989E0,-2.331310511E0,-9.023449898E0
1.536563989E1,3.052352905E0,-2.331411362E0,-9.023195267E0
1.538591000E1,3.052434206E0,-2.331679106E0,-9.023097992E0
1.540618010E1,3.052233219E0,-2.331892252E0,-9.023110390E0
1.542645026E1,3.051912546E0,-2.331862688E0,-9.023227692E0
1.544672036E1,3.051868916E0,-2.331840754E0,-9.023247719E0
1.546699052E1,3.051707268E0,-2.331744194E0,-9.023327827E0
1.548726062E1,3.051174879E0,-2.331628084E0,-9.023537636E0
1.550753073E1,3.051302910E0,-2.331585646E0,-9.023505211E0
1.552780083E1,3.051876307E0,-2.332007170E0,-9.023201942E0
1.554807099E1,3.052237034E0,-2.332279682E0,-9.023010254E0
1.556834109E1,3.051966190E0,-2.332192183E0,-9.023124695E0
1.558861120E1,3.051517725E0,-2.332659960E0,-9.023155212E0
1.560901120E1,3.051546335E0,-2.332773924E0,-9.023116112E0
1.562915146E1,3.051602602E0,-2.331727028E0,-9.023367882E0
1.564942156E1,3.051526546E0,-2.331833363E0,-9.023365021E0
1.566969166E1,3.051218748E0,-2.331729889E0,-9.023496628E0
1.568996177E1,3.051534176E0,-2.332339764E0,-9.023232460E0
1.571023187E1,3.051284790E0,-2.333092690E0,-9.023121834E0
1.573050198E1,3.050832033E0,-2.332938910E0,-9.023314476E0
1.575077208E1,3.051092148E0,-2.332215071E0,-9.023413658E0
1.577104224E1,3.051548243E0,-2.331813812E0,-9.023363113E0
1.579131234E1,3.051854610E0,-2.331552029E0,-9.023327827E0
1.581158245E1,3.052572727E0,-2.331706762E0,-9.023043633E0
1.583185255E1,3.052762747E0,-2.331617355E0,-9.023002625E0
1.585212265E1,3.052414179E0,-2.332323313E0,-9.022938728E0
1.587239276E1,3.052080870E0,-2.333452940E0,-9.022759438E0
1.589266281E1,3.052098036E0,-2.333894014E0,-9.022639275E0
1.591293292E1,3.051712275E0,-2.335295200E0,-9.022407532E0
1.593320302E1,3.051324129E0,-2.335847378E0,-9.022396088E0
1.595347312E1,3.051295280E0,-2.335693121E0,-9.022445679E0
1.597374323E1,3.050933123E0,-2.335819483E0,-9.022535324E0
1.599401333E1,3.050521135E0,-2.335947037E0,-9.022640228E0
1.601428344E1,3.050132990E0,-2.336740255E0,-9.022567749E0
1.603455354E1,3.050017595E0,-2.337629795E0,-9.022376060E0
1.605482359E1,3.049441338E0,-2.338228226E0,-9.022416115E0
1.607509370E1,3.049072027E0,-2.338829517E0,-9.022384644E0
1.609536380E1,3.048600435E0,-2.339873791E0,-9.022273064E0
1.611563390E1,3.049042225E0,-2.340776920E0,-9.021889687E0
1.613590401E1,3.049774647E0,-2.341322899E0,-9.021499634E0
1.615617406E1,3.050042629E0,-2.342034817E0,-9.021224976E0
1.617644416E1,3.050350428E0,-2.342870712E0,-9.020903587E0
1.619671422E1,3.050749779E0,-2.343622446E0,-9.020573616E0
1.621698432E1,3.051551104E0,-2.343803406E0,-9.020256042E0
1.623725442E1,3.051455975E0,-2.344236612E0,-9.020175934E0
1.625752448E1,3.050956964E0,-2.344669819E0,-9.020231247E0
1.627779458E1,3.050738811E0,-2.344732285E0,-9.020288467E0
1.629806469E1,3.050230265E0,-2.344799995E0,-9.020443916E0
1.631833474E1,3.049430609E0,-2.345684052E0,-9.020483017E0
1.633860484E1,3.049119234E0,-2.344967365E0,-9.020774841E0
1.635887484E1,3.048361063E0,-2.343996763E0,-9.021284103E0
1.637914495E1,3.048058510E0,-2.343528032E0,-9.021508217E0
1.639941505E1,3.049200296E0,-2.343161583E0,-9.021216393E0
1.641968510E1,3.050243139E0,-2.342402697E0,-9.021060944E0
1.643995521E1,3.049616814E0,-2.342159033E0,-9.021335602E0
1.646035521E1,3.048542976E0,-2.340783834E0,-9.022056580E0
1.648049536E1,3.048713446E0,-2.339953899E0,-9.022213936E0
1.650076547E1,3.048360825E0,-2.340712309E0,-9.022137642E0
1.652103552E1,3.048346758E0,-2.340504885E0,-9.022193909E0
1.654130557E1,3.048861980E0,-2.339277267E0,-9.022339821E0
1.656170557E1,3.049241543E0,-2.337821722E0,-9.022587776E0
1.658184573E1,3.049880505E0,-2.336966753E0,-9.022594452E0
1.660211578E1,3.050860167E0,-2.336349726E0,-9.022422791E0
1.662238588E1,3.050989389E0,-2.335381746E0,-9.022629738E0
1.664265594E1,3.050174952E0,-2.334991217E0,-9.023005486E0
1.666305594E1,3.050454855E0,-2.335511446E0,-9.022776604E0
1.668319604E1,3.051008224E0,-2.335095644E0,-9.022697449E0
1.670346614E1,3.051794052E0,-2.334733725E0,-9.022525787E0
1.672373620E1,3.052051783E0,-2.334573984E0,-9.022480011E0
1.674400625E1,3.051976681E0,-2.333938599E0,-9.022668839E0
1.676440625E1,3.052051783E0,-2.333633423E0,-9.022722244E0
1.678454635E1,3.052236080E0,-2.333885908E0,-9.022594452E0
1.680481646E1,3.052052736E0,-2.334083557E0,-9.022605896E0
1.682508651E1,3.051842451E0,-2.334091187E0,-9.022675514E0
1.684535656E1,3.051832914E0,-2.333941698E0,-9.022717476E0
1.686562661E1,3.052334547E0,-2.333670378E0,-9.022617340E0
1.688589666E1,3.052534342E0,-2.333724260E0,-9.022536278E0
1.690616672E1,3.052622795E0,-2.334133148E0,-9.022400856E0
1.692643677E1,3.052464485E0,-2.334223270E0,-9.022430420E0
1.694670682E1,3.051943541E0,-2.334509611E0,-9.022532463E0
1.696697687E1,3.052046776E0,-2.334164858E0,-9.022586823E0
1.698724692E1,3.052302837E0,-2.334284544E0,-9.022468567E0
1.700751698E1,3.052449465E0,-2.334334135E0,-9.022406578E0
1.702778698E1,3.052018642E0,-2.335270643E0,-9.022309303E0
1.704805708E1,3.052181721E0,-2.335974693E0,-9.022072792E0
1.706832713E1,3.052821159E0,-2.336664915E0,-9.021677971E0
1.708859719E1,3.053436756E0,-2.337139130E0,-9.021347046E0
1.710886724E1,3.053447008E0,-2.337774038E0,-9.021179199E0
1.712913729E1,3.053772211E0,-2.338076591E0,-9.020989418E0
1.714940734E1,3.054942846E0,-2.338405609E0,-9.020507812E0
1.716967734E1,3.056131363E0,-2.338547707E0,-9.020069122E0
1.718994739E1,3.056640148E0,-2.338946342E0,-9.019792557E0
1.721021745E1,3.057794094E0,-2.339244604E0,-9.019325256E0
1.723048750E1,3.059603691E0,-2.339021206E0,-9.018770218E0
1.725075750E1,3.060691118E0,-2.338730335E0,-9.018475533E0
1.727102755E1,3.060502052E0,-2.338861465E0,-9.018505096E0
1.729129760E1,3.060212851E0,-2.338402987E0,-9.018722534E0
1.731156760E1,3.060295105E0,-2.338443518E0,-9.018683434E0
1.733183765E1,3.061441660E0,-2.338504553E0,-9.018278122E0
1.735210771E1,3.063097954E0,-2.340171814E0,-9.017284393E0
1.737237771E1,3.063418388E0,-2.341527224E0,-9.016823769E0
1.739264776E1,3.064283609E0,-2.342074156E0,-9.016386032E0
1.741291776E1,3.065334320E0,-2.342159033E0,-9.016007423E0
1.743318781E1,3.065928221E0,-2.342041731E0,-9.015836716E0
1.745345781E1,3.066656113E0,-2.342172861E0,-9.015555382E0
1.747372786E1,3.068326235E0,-2.341948271E0,-9.015045166E0
1.749399786E1,3.069555283E0,-2.342111111E0,-9.014584541E0
1.751426792E1,3.070648193E0,-2.342001200E0,-9.014240265E0
1.753453797E1,3.071507931E0,-2.342026949E0,-9.013940811E0
1.755480797E1,3.072435379E0,-2.342087030E0,-9.013609886E0
1.757507797E1,3.072808027E0,-2.342464209E0,-9.013384819E0
1.759534802E1,3.072294235E0,-2.342514038E0,-9.013545990E0
1.761561802E1,3.071789026E0,-2.342800379E0,-9.013644218E0
1.763588807E1,3.071810722E0,-2.343431473E0,-9.013473511E0
1.765615807E1,3.072082758E0,-2.343200922E0,-9.013440132E0
1.767642807E1,3.072834730E0,-2.343486309E0,-9.013110161E0
1.769669812E1,3.072962999E0,-2.343802214E0,-9.012983322E0
1.771696812E1,3.072779417E0,-2.342959404E0,-9.013265610E0
1.773723818E1,3.073178530E0,-2.342655182E0,-9.013207436E0
1.775750818E1,3.074125290E0,-2.342716694E0,-9.012869835E0
1.777777818E1,3.075192451E0,-2.342233419E0,-9.012631416E0
1.779804823E1,3.075647593E0,-2.341681004E0,-9.012619019E0
1.781831823E1,3.075654268E0,-2.341284513E0,-9.012720108E0
1.783858823E1,3.075726271E0,-2.340924740E0,-9.012789726E0
1.785885823E1,3.075922012E0,-2.340009928E0,-9.012959480E0
1.787912828E1,3.075490236E0,-2.339656830E0,-9.013198853E0
1.789939828E1,3.074510813E0,-2.339041710E0,-9.013693810E0
1.791966828E1,3.072780132E0,-2.338245630E0,-9.014489174E0
1.793993828E1,3.070579529E0,-2.337822199E0,-9.015348434E0
1.796033828E1,3.069089890E0,-2.337463617E0,-9.015949249E0
1.798047833E1,3.068413973E0,-2.336538792E0,-9.016418457E0
1.800074833E1,3.067204952E0,-2.335829973E0,-9.017013550E0
1.802101833E1,3.066022158E0,-2.335583925E0,-9.017480850E0
1.804128838E1,3.064770222E0,-2.335330486E0,-9.017971039E0
1.806168838E1,3.063639641E0,-2.335652590E0,-9.018272400E0
1.808182838E1,3.062384129E0,-2.336715221E0,-9.018424034E0
1.810209838E1,3.061256647E0,-2.337184191E0,-9.018684387E0
1.812236844E1,3.060546160E0,-2.337396383E0,-9.018869400E0
1.814263844E1,3.060086012E0,-2.336239815E0,-9.019326210E0
1.816303844E1,3.059068441E0,-2.335771799E0,-9.019792557E0
1.818317844E1,3.057602644E0,-2.335524321E0,-9.020354271E0
1.820344844E1,3.057092190E0,-2.335132122E0,-9.020628929E0
1.822371849E1,3.056790352E0,-2.336191654E0,-9.020456314E0
1.824398849E1,3.056357145E0,-2.336484671E0,-9.020526886E0
1.826425854E1,3.056130171E0,-2.336810827E0,-9.020518303E0
1.828452854E1,3.056295872E0,-2.337206125E0,-9.020360947E0
1.830479854E1,3.056225300E0,-2.337535858E0,-9.020298958E0
1.832506859E1,3.056459904E0,-2.337333679E0,-9.020272255E0
1.834533859E1,3.056752205E0,-2.337103367E0,-9.020233154E0
1.836560859E1,3.055869818E0,-2.337411880E0,-9.020452499E0
1.838587864E1,3.055738688E0,-2.338149071E0,-9.020305634E0
1.840614864E1,3.056543112E0,-2.338100910E0,-9.020044327E0
1.842641864E1,3.056469440E0,-2.338025093E0,-9.020089149E0
1.844668870E1,3.055876732E0,-2.338663101E0,-9.020125389E0
1.846695870E1,3.054839373E0,-2.339610577E0,-9.020230293E0
1.848722875E1,3.054034710E0,-2.339787245E0,-9.020458221E0
1.850749875E1,3.053060293E0,-2.339985371E0,-9.020736694E0
1.852776880E1,3.051953554E0,-2.340718746E0,-9.020919800E0
1.854803880E1,3.051530361E0,-2.341382504E0,-9.020891190E0
1.856830880E1,3.050628185E0,-2.341630459E0,-9.021131516E0
1.858857885E1,3.050651073E0,-2.340848446E0,-9.021327019E0
1.860884885E1,3.051055908E0,-2.341289759E0,-9.021076202E0
1.862911890E1,3.051482916E0,-2.341816902E0,-9.020793915E0
1.864938890E1,3.052182198E0,-2.342180252E0,-9.020462990E0
1.866965896E1,3.051733255E0,-2.342826366E0,-9.020447731E0
1.868992896E1,3.051615953E0,-2.343020439E0,-9.020437241E0
1.871019896E1,3.051915646E0,-2.343585491E0,-9.020188332E0
1.873046901E1,3.052300215E0,-2.343595505E0,-9.020055771E0
1.875073906E1,3.052514315E0,-2.343782902E0,-9.019935608E0
1.877100911E1,3.051504850E0,-2.344316006E0,-9.020137787E0
1.879127911E1,3.050880432E0,-2.344247103E0,-9.020366669E0
1.881154917E1,3.050749063E0,-2.344195127E0,-9.020424843E0
1.883181922E1,3.051167727E0,-2.344245195E0,-9.020270348E0
1.885208922E1,3.050561666E0,-2.343897343E0,-9.020565033E0
1.887235927E1,3.049926519E0,-2.343351364E0,-9.020922661E0
1.889262927E1,3.050555706E0,-2.342916250E0,-9.020821571E0
1.891289932E1,3.050565958E0,-2.342345238E0,-9.020967484E0
1.893316937E1,3.050148726E0,-2.342348814E0,-9.021106720E0
1.895343937E1,3.049978018E0,-2.340854883E0,-9.021553993E0
1.897370943E1,3.050502539E0,-2.340357780E0,-9.021504402E0
1.899397948E1,3.049872398E0,-2.341089249E0,-9.021528244E0
1.901424948E1,3.049848080E0,-2.340983391E0,-9.021563530E0
1.903451953E1,3.050105333E0,-2.340296745E0,-9.021655083E0
1.905478958E1,3.050099373E0,-2.339219809E0,-9.021935463E0
1.907505958E1,3.050990105E0,-2.338385105E0,-9.021851540E0
1.909532963E1,3.051076412E0,-2.337895155E0,-9.021949768E0
1.911559963E1,3.050848961E0,-2.337805033E0,-9.022048950E0
1.913586969E1,3.050436020E0,-2.336887598E0,-9.022426605E0
1.915613974E1,3.050256252E0,-2.337289095E0,-9.022382736E0
1.917640979E1,3.050760746E0,-2.336798429E0,-9.022339821E0
1.919667979E1,3.051470757E0,-2.337190151E0,-9.021998405E0
1.921694984E1,3.051723242E0,-2.336250544E0,-9.022156715E0
1.923721989E1,3.051383257E0,-2.335762501E0,-9.022397995E0
1.925748989E1,3.051098824E0,-2.335530281E0,-9.022554398E0
1.927775995E1,3.050972939E0,-2.335604191E0,-9.022578239E0
1.929803000E1,3.050537348E0,-2.336053610E0,-9.022608757E0
1.931830005E1,3.049896002E0,-2.335650921E0,-9.022929192E0
1.933857005E1,3.049813032E0,-2.334856510E0,-9.023163795E0
1.935884010E1,3.049238205E0,-2.334603548E0,-9.023422241E0
1.937911015E1,3.050116539E0,-2.334123850E0,-9.023249626E0
1.939938015E1,3.050348520E0,-2.334383965E0,-9.023104668E0
1.941965021E1,3.050613403E0,-2.333764553E0,-9.023175240E0
1.943992026E1,3.050616503E0,-2.333496809E0,-9.023242950E0
1.946032026E1,3.050332069E0,-2.333005905E0,-9.023466110E0
1.948046036E1,3.050433874E0,-2.332520485E0,-9.023557663E0
1.950073036E1,3.050592422E0,-2.332086086E0,-9.023616791E0
1.952100042E1,3.050872803E0,-2.332002401E0,-9.023542404E0
1.954127047E1,3.050639629E0,-2.331282139E0,-9.023808479E0
1.956167047E1,3.050360680E0,-2.331245422E0,-9.023911476E0
1.958181057E1,3.050332785E0,-2.330543756E0,-9.024102211E0
1.960208057E1,3.049885750E0,-2.329581499E0,-9.024501801E0
1.962235062E1,3.049390554E0,-2.329647779E0,-9.024652481E0
1.964262068E1,3.048768282E0,-2.329150915E0,-9.024991035E0
1.966302068E1,3.048615217E0,-2.328955889E0,-9.025093079E0
1.968316078E1,3.048446178E0,-2.329094648E0,-9.025114059E0
1.970343083E1,3.048813105E0,-2.328597069E0,-9.025117874E0
1.972370083E1,3.049270868E0,-2.327990770E0,-9.025120735E0
1.974397088E1,3.049541712E0,-2.327387333E0,-9.025183678E0
1.976437088E1,3.050477266E0,-2.327025175E0,-9.024960518E0
1.978451099E1,3.051376104E0,-2.327247381E0,-9.024600029E0
1.980478104E1,3.052013874E0,-2.326747656E0,-9.024513245E0
1.982505104E1,3.051694870E0,-2.327618837E0,-9.024396896E0
1.984532109E1,3.052038193E0,-2.327662945E0,-9.024269104E0
1.986559114E1,3.052366018E0,-2.327716827E0,-9.024145126E0
1.988586120E1,3.052131414E0,-2.327047348E0,-9.024395943E0
1.990613125E1,3.052052021E0,-2.326968431E0,-9.024443626E0
1.992640125E1,3.052133083E0,-2.326714277E0,-9.024481773E0
1.994667130E1,3.052290201E0,-2.326687098E0,-9.024435997E0
1.996694135E1,3.052312851E0,-2.327243805E0,-9.024284363E0
1.998721140E1,3.052318335E0,-2.327965498E0,-9.024096489E0
2.000748140E1,3.052483320E0,-2.327584743E0,-9.024138451E0
2.002775146E1,3.052674055E0,-2.326867342E0,-9.024258614E0
2.004802151E1,3.053016186E0,-2.326587439E0,-9.024215698E0
2.006829156E1,3.052814484E0,-2.326248169E0,-9.024371147E0
2.008856161E1,3.052833557E0,-2.325946093E0,-9.024443626E0
2.010883161E1,3.053455591E0,-2.326157331E0,-9.024178505E0
2.012910166E1,3.054107904E0,-2.327100039E0,-9.023714066E0
2.014937172E1,3.054582596E0,-2.327512264E0,-9.023447037E0
2.016964172E1,3.054643393E0,-2.327555418E0,-9.023415565E0
2.018991177E1,3.054382563E0,-2.326917648E0,-9.023668289E0
2.021018182E1,3.054230452E0,-2.326364756E0,-9.023861885E0
2.023045187E1,3.055621147E0,-2.326736450E0,-9.023295403E0
2.025072187E1,3.056402922E0,-2.327175140E0,-9.022916794E0
2.027099192E1,3.056068420E0,-2.327278376E0,-9.023003578E0
2.029126198E1,3.056673765E0,-2.327979088E0,-9.022618294E0
2.031153198E1,3.057516336E0,-2.328370571E0,-9.022233009E0
2.033180203E1,3.057142258E0,-2.328310490E0,-9.022374153E0
2.035207208E1,3.056948900E0,-2.327773094E0,-9.022578239E0
2.037234208E1,3.057131529E0,-2.328223467E0,-9.022399902E0
2.039261213E1,3.057535648E0,-2.328796148E0,-9.022115707E0
2.041288219E1,3.057807446E0,-2.328884602E0,-9.022000313E0
2.043315219E1,3.058529377E0,-2.328855753E0,-9.021762848E0
2.045342224E1,3.058690786E0,-2.329058647E0,-9.021656990E0
2.047369224E1,3.059379816E0,-2.329063654E0,-9.021421432E0
2.049396229E1,3.060442448E0,-2.328787327E0,-9.021132469E0
2.051423234E1,3.061212540E0,-2.329053164E0,-9.020802498E0
2.053450234E1,3.062025070E0,-2.328186035E0,-9.020750046E0
2.055477234E1,3.062239170E0,-2.328460932E0,-9.020606995E0
2.057504239E1,3.062682152E0,-2.328789473E0,-9.020371437E0
2.059531245E1,3.063114643E0,-2.329411745E0,-9.020064354E0
2.061558245E1,3.062798500E0,-2.329914570E0,-9.020042419E0
2.063585250E1,3.063517094E0,-2.329769373E0,-9.019835472E0
2.065612255E1,3.064099312E0,-2.329922676E0,-9.019598007E0
2.067639255E1,3.064380407E0,-2.330054998E0,-9.019467354E0
2.069666260E1,3.064169884E0,-2.330091000E0,-9.019530296E0
2.071693260E1,3.064033031E0,-2.329879284E0,-9.019630432E0
2.073720265E1,3.064195395E0,-2.330273151E0,-9.019474030E0
2.075747271E1,3.064646006E0,-2.330310345E0,-9.019311905E0
2.077774271E1,3.065163851E0,-2.330654144E0,-9.019046783E0
2.079801276E1,3.065303564E0,-2.330752134E0,-9.018974304E0
2.081828276E1,3.065338612E0,-2.330601931E0,-9.019001007E0
2.083855281E1,3.065640688E0,-2.330089569E0,-9.019030571E0
2.085895281E1,3.065422058E0,-2.329593897E0,-9.019232750E0
2.087909286E1,3.065559149E0,-2.329594135E0,-9.019186974E0
2.089936286E1,3.065227270E0,-2.329396725E0,-9.019351006E0
2.091963292E1,3.064680576E0,-2.328871489E0,-9.019672394E0
2.093990292E1,3.064535379E0,-2.328966379E0,-9.019696236E0
2.096030292E1,3.064130783E0,-2.328973055E0,-9.019831657E0
2.098044292E1,3.063530922E0,-2.329350948E0,-9.019938469E0
2.100071302E1,3.062886477E0,-2.328881264E0,-9.020278931E0
2.102098302E1,3.062555790E0,-2.328984022E0,-9.020364761E0
2.104125302E1,3.061979771E0,-2.329512596E0,-9.020423889E0
2.106165302E1,3.061183214E0,-2.329352140E0,-9.020734787E0
2.108179307E1,3.060693979E0,-2.329403639E0,-9.020887375E0
2.110206312E1,3.059464455E0,-2.329573631E0,-9.021261215E0
2.112233312E1,3.058891773E0,-2.329936266E0,-9.021361351E0
2.114260312E1,3.058963299E0,-2.330051184E0,-9.021306992E0
2.116300312E1,3.058167458E0,-2.329807758E0,-9.021639824E0
2.118314318E1,3.056951761E0,-2.329962492E0,-9.022012711E0
2.120341323E1,3.056477547E0,-2.329973459E0,-9.022171021E0
2.122368323E1,3.056527615E0,-2.330704689E0,-9.021964073E0
2.124395323E1,3.055510283E0,-2.331660748E0,-9.022062302E0
2.126422328E1,3.055021286E0,-2.332604408E0,-9.021984100E0
2.128449328E1,3.055908918E0,-2.333029270E0,-9.021573067E0
2.130476328E1,3.056779146E0,-2.332998514E0,-9.021286964E0
2.132503333E1,3.057372570E0,-2.332573652E0,-9.021195412E0
2.134530333E1,3.057779551E0,-2.333083153E0,-9.020925522E0
2.136557333E1,3.057737112E0,-2.333531618E0,-9.020824432E0
2.138584338E1,3.056406260E0,-2.334150076E0,-9.021114349E0
2.140611338E1,3.055707216E0,-2.334518671E0,-9.021256447E0
2.142638338E1,3.055177450E0,-2.334845781E0,-9.021350861E0
2.144665338E1,3.054742813E0,-2.335422516E0,-9.021348953E0
2.146692338E1,3.054205418E0,-2.335524559E0,-9.021504402E0
2.148719344E1,3.053678751E0,-2.335550308E0,-9.021676064E0
2.150746344E1,3.052954674E0,-2.336137056E0,-9.021768570E0
2.152773344E1,3.052487135E0,-2.336778164E0,-9.021761894E0
2.154800344E1,3.052972078E0,-2.337358952E0,-9.021446228E0
2.156827344E1,3.053498030E0,-2.337406874E0,-9.021256447E0
2.158854349E1,3.053930998E0,-2.337260962E0,-9.021147728E0
2.160881349E1,3.054059029E0,-2.337553024E0,-9.021028519E0
2.162908349E1,3.054436207E0,-2.338560104E0,-9.020639420E0
2.164935349E1,3.055485725E0,-2.339092731E0,-9.020146370E0
2.166962349E1,3.056024790E0,-2.339969873E0,-9.019736290E0
2.168989349E1,3.055506945E0,-2.340230942E0,-9.019844055E0
2.171016349E1,3.055323124E0,-2.340821028E0,-9.019752502E0
2.173043349E1,3.055384398E0,-2.341616631E0,-9.019525528E0
2.175070354E1,3.055668592E0,-2.342282772E0,-9.019256592E0
2.177097349E1,3.055927992E0,-2.342312574E0,-9.019160271E0
2.179124349E1,3.055711746E0,-2.342945337E0,-9.019069672E0
2.181151354E1,3.055250883E0,-2.343599319E0,-9.019056320E0
2.183178354E1,3.055335999E0,-2.344223976E0,-9.018865585E0
2.185205354E1,3.055322409E0,-2.344795465E0,-9.018720627E0
2.187232354E1,3.055223227E0,-2.343959093E0,-9.018971443E0
2.189259354E1,3.054656029E0,-2.343984604E0,-9.019157410E0
2.191286354E1,3.054854870E0,-2.344003916E0,-9.019085884E0
2.193313354E1,3.054789066E0,-2.343009472E0,-9.019365311E0
2.195340349E1,3.053590298E0,-2.342522621E0,-9.019898415E0
2.197367349E1,3.052783251E0,-2.340986490E0,-9.020570755E0
2.199394349E1,3.052926064E0,-2.340636253E0,-9.020612717E0
2.201421349E1,3.052314520E0,-2.341744900E0,-9.020531654E0
2.203448349E1,3.051224232E0,-2.341363668E0,-9.020999908E0
2.205475349E1,3.051221848E0,-2.339860916E0,-9.021389961E0
2.207502349E1,3.052291393E0,-2.339056253E0,-9.021236420E0
2.209529349E1,3.052860260E0,-2.338438988E0,-9.021203995E0
2.211556349E1,3.052590609E0,-2.337617636E0,-9.021509171E0
2.213583349E1,3.052171946E0,-2.336917400E0,-9.021832466E0
2.215610349E1,3.051862717E0,-2.336659670E0,-9.022003174E0
2.217637349E1,3.052247286E0,-2.337523222E0,-9.021650314E0
2.219664344E1,3.052753687E0,-2.337294817E0,-9.021537781E0
2.221691344E1,3.053080797E0,-2.336208820E0,-9.021707535E0
2.223718344E1,3.052963495E0,-2.335592747E0,-9.021907806E0
2.225745344E1,3.053159714E0,-2.334717751E0,-9.022068024E0
2.227772344E1,3.053384781E0,-2.334262371E0,-9.022109032E0
2.229799338E1,3.052756548E0,-2.334354639E0,-9.022296906E0
2.231826338E1,3.052382708E0,-2.334290028E0,-9.022439957E0
2.233853338E1,3.051793337E0,-2.334136963E0,-9.022679329E0
2.235880333E1,3.051965714E0,-2.333740950E0,-9.022724152E0
2.237907333E1,3.052590609E0,-2.333501101E0,-9.022573471E0
2.239934333E1,3.053308725E0,-2.333365679E0,-9.022366524E0
2.241961333E1,3.053845167E0,-2.333494186E0,-9.022151947E0
2.243988328E1,3.054459810E0,-2.333123446E0,-9.022040367E0
2.246028328E1,3.054779768E0,-2.332785130E0,-9.022018433E0
2.248042323E1,3.054916859E0,-2.332867146E0,-9.021950722E0
2.250069323E1,3.054758310E0,-2.332389355E0,-9.022128105E0
2.252096323E1,3.055242777E0,-2.331675768E0,-9.022148132E0
2.254123318E1,3.055425406E0,-2.331009388E0,-9.022259712E0
2.256163318E1,3.055170298E0,-2.330538034E0,-9.022467613E0
2.258177312E1,3.055419445E0,-2.331051111E0,-9.022250175E0
2.260204312E1,3.055989742E0,-2.330876589E0,-9.022102356E0
2.262231312E1,3.056457043E0,-2.330945253E0,-9.021926880E0
2.264258307E1,3.057502985E0,-2.331781626E0,-9.021355629E0
2.266298307E1,3.058333874E0,-2.331525803E0,-9.021139145E0
2.268312302E1,3.058552027E0,-2.331093788E0,-9.021178246E0
2.270339302E1,3.058720112E0,-2.329890490E0,-9.021431923E0
2.272366292E1,3.058982372E0,-2.330028772E0,-9.021306992E0
2.274393297E1,3.058745384E0,-2.330661297E0,-9.021224022E0
2.276433297E1,3.058425188E0,-2.331193209E0,-9.021195412E0
2.278447292E1,3.059189558E0,-2.331613541E0,-9.020827293E0
2.280474286E1,3.060082912E0,-2.332187414E0,-9.020376205E0
2.282501281E1,3.061579227E0,-2.332274199E0,-9.019845963E0
2.284528281E1,3.062877655E0,-2.332108498E0,-9.019447327E0
2.286555276E1,3.063388824E0,-2.332850456E0,-9.019082069E0
2.288582276E1,3.062644958E0,-2.333401680E0,-9.019191742E0
2.290609271E1,3.062168360E0,-2.334025621E0,-9.019192696E0
2.292636265E1,3.062433004E0,-2.334397793E0,-9.019006729E0
2.294663265E1,3.062721968E0,-2.334349632E0,-9.018920898E0
2.296690255E1,3.063567400E0,-2.334012985E0,-9.018721581E0
2.298717255E1,3.063928127E0,-2.333459139E0,-9.018741608E0
2.300744250E1,3.063752890E0,-2.333700895E0,-9.018737793E0
2.302771250E1,3.063603878E0,-2.334649563E0,-9.018543243E0
2.304798239E1,3.063496590E0,-2.335651875E0,-9.018320084E0
2.306825239E1,3.063307285E0,-2.335799217E0,-9.018346786E0
2.308852239E1,3.063674927E0,-2.336767197E0,-9.017971039E0
2.310879234E1,3.064117908E0,-2.336716890E0,-9.017833710E0
2.312906229E1,3.064538002E0,-2.336228371E0,-9.017816544E0
2.314933224E1,3.065110445E0,-2.335786819E0,-9.017737389E0
2.316960224E1,3.065788031E0,-2.334773779E0,-9.017768860E0
2.318987219E1,3.065702677E0,-2.334249973E0,-9.017932892E0
2.321014213E1,3.066346645E0,-2.334351301E0,-9.017688751E0
2.323041208E1,3.066844702E0,-2.334938526E0,-9.017367363E0
2.325068203E1,3.066536903E0,-2.335270643E0,-9.017386436E0
2.327095198E1,3.066128492E0,-2.335557222E0,-9.017451286E0
2.329122193E1,3.065938950E0,-2.335462809E0,-9.017539978E0
2.331149187E1,3.065879345E0,-2.334799290E0,-9.017731667E0
2.333176187E1,3.065588474E0,-2.334123611E0,-9.018006325E0
2.335203182E1,3.064865589E0,-2.333098888E0,-9.018515587E0
2.337230177E1,3.064605474E0,-2.332555532E0,-9.018745422E0
2.339257172E1,3.064726591E0,-2.332278967E0,-9.018775940E0
2.341284167E1,3.064645767E0,-2.332179546E0,-9.018829346E0
2.343311161E1,3.063890457E0,-2.331846714E0,-9.019171715E0
2.345338156E1,3.063746929E0,-2.331783772E0,-9.019236565E0
2.347365151E1,3.064859152E0,-2.332060337E0,-9.018786430E0
2.349392146E1,3.064722061E0,-2.332260370E0,-9.018782616E0
2.351419140E1,3.063294172E0,-2.331472397E0,-9.019470215E0
2.353446135E1,3.062364101E0,-2.330878735E0,-9.019939423E0
2.355473130E1,3.061608076E0,-2.331681252E0,-9.019989967E0
2.357500135E1,3.060116053E0,-2.332295895E0,-9.020336151E0
2.359527114E1,3.059028387E0,-2.332641125E0,-9.020616531E0
2.361554114E1,3.058976412E0,-2.332275152E0,-9.020729065E0
2.363581104E1,3.059139013E0,-2.332282543E0,-9.020671844E0
2.365608099E1,3.059556723E0,-2.332458258E0,-9.020484924E0
2.367635094E1,3.059641361E0,-2.332844257E0,-9.020355225E0
2.369662088E1,3.058726549E0,-2.333415747E0,-9.020518303E0
2.371689083E1,3.057441235E0,-2.333687782E0,-9.020884514E0
2.373716078E1,3.057793140E0,-2.334508181E0,-9.020552635E0
2.375743068E1,3.058393717E0,-2.335315943E0,-9.020138741E0
2.377770068E1,3.057710648E0,-2.336142063E0,-9.020156860E0
2.379797057E1,3.056811810E0,-2.336750984E0,-9.020303726E0
2.381824052E1,3.056697607E0,-2.337005615E0,-9.020277023E0
2.383851047E1,3.055953741E0,-2.337999821E0,-9.020271301E0
2.385878042E1,3.054820776E0,-2.338309526E0,-9.020574570E0
2.387905031E1,3.053857088E0,-2.338296413E0,-9.020904541E0
2.389932026E1,3.053974152E0,-2.338683844E0,-9.020764351E0
2.391959021E1,3.054110050E0,-2.339245319E0,-9.020571709E0
2.393986010E1,3.054453611E0,-2.339889288E0,-9.020289421E0
2.396026010E1,3.054683447E0,-2.340619564E0,-9.020021439E0
2.398040000E1,3.055602312E0,-2.341293573E0,-9.019536018E0
2.400066995E1,3.055792809E0,-2.341676474E0,-9.019371986E0
2.402093984E1,3.055837393E0,-2.341983080E0,-9.019277573E0
2.404120979E1,3.056112528E0,-2.342294693E0,-9.019103050E0
2.406160979E1,3.056596756E0,-2.342858076E0,-9.018792152E0
2.408174963E1,3.056266069E0,-2.343562841E0,-9.018720627E0
2.410201958E1,3.055931330E0,-2.343741655E0,-9.018788338E0
2.412228953E1,3.055402279E0,-2.344450474E0,-9.018784523E0
2.414255942E1,3.055384636E0,-2.344911814E0,-9.018670082E0
2.416295942E1,3.055402517E0,-2.346009493E0,-9.018378258E0
2.418309927E1,3.054944992E0,-2.347292900E0,-9.018198967E0
2.420336922E1,3.054488897E0,-2.347676992E0,-9.018254280E0
2.422363916E1,3.054360867E0,-2.347769737E0,-9.018272400E0
2.424390906E1,3.054546595E0,-2.348484993E0,-9.018023491E0
2.426417901E1,3.055900812E0,-2.349728346E0,-9.017241478E0
2.428444890E1,3.057252645E0,-2.350244522E0,-9.016648293E0
2.430471885E1,3.057747126E0,-2.351302624E0,-9.016204834E0
2.432498875E1,3.057474613E0,-2.350309372E0,-9.016555786E0
2.434525870E1,3.057576418E0,-2.350380659E0,-9.016503334E0
2.436552859E1,3.057020903E0,-2.350992918E0,-9.016531944E0
2.438579854E1,3.055897236E0,-2.350540400E0,-9.017030716E0
2.440606844E1,3.055231810E0,-2.349421024E0,-9.017547607E0
2.442633838E1,3.055173159E0,-2.348703861E0,-9.017754555E0
2.444660828E1,3.055747509E0,-2.348259211E0,-9.017676353E0
2.446687818E1,3.055667400E0,-2.347348690E0,-9.017939568E0
2.448714812E1,3.055396557E0,-2.346501827E0,-9.018252373E0
2.450753682E1,3.054780960E0,-2.346138716E0,-9.018554688E0
2.452768797E1,3.054641485E0,-2.345921040E0,-9.018658638E0
2.454795786E1,3.054827929E0,-2.345045805E0,-9.018823624E0
2.456822781E1,3.055424690E0,-2.344489336E0,-9.018765450E0
2.458849771E1,3.055210590E0,-2.343989134E0,-9.018968582E0
2.460876760E1,3.055425882E0,-2.342797995E0,-9.019205093E0
2.462903755E1,3.055359602E0,-2.342359304E0,-9.019341469E0
2.464930745E1,3.055393219E0,-2.341747284E0,-9.019489288E0
2.466957734E1,3.054975986E0,-2.341916084E0,-9.019586563E0
2.468984724E1,3.054276228E0,-2.342417479E0,-9.019693375E0
2.471011719E1,3.054297209E0,-2.342009068E0,-9.019792557E0
2.473038708E1,3.054258585E0,-2.341788054E0,-9.019863129E0
2.475065698E1,3.054266214E0,-2.341632128E0,-9.019900322E0
2.477092692E1,3.054913759E0,-2.341742277E0,-9.019652367E0
2.479119682E1,3.054795027E0,-2.341917753E0,-9.019646645E0
2.481146672E1,3.055478573E0,-2.341283083E0,-9.019579887E0
2.483173661E1,3.056072712E0,-2.340999126E0,-9.019454002E0
2.485200651E1,3.056615829E0,-2.341137886E0,-9.019232750E0
2.487227646E1,3.056437492E0,-2.341162682E0,-9.019287109E0
2.489254635E1,3.056350708E0,-2.341688395E0,-9.019180298E0
2.491281625E1,3.056899548E0,-2.341933012E0,-9.018929482E0
2.493321625E1,3.057039499E0,-2.341570377E0,-9.018977165E0
2.495335609E1,3.056786299E0,-2.341615438E0,-9.019051552E0
2.497362599E1,3.057367802E0,-2.341753483E0,-9.018817902E0
2.499389588E1,3.056897163E0,-2.341785669E0,-9.018969536E0
2.501416578E1,3.055814743E0,-2.341897011E0,-9.019307137E0
2.503443568E1,3.055189610E0,-2.341325760E0,-9.019667625E0
2.505470557E1,3.054993153E0,-2.341669321E0,-9.019644737E0
2.507497547E1,3.055500269E0,-2.342148066E0,-9.019348145E0
2.509524536E1,3.056285143E0,-2.341004372E0,-9.019379616E0
2.511551526E1,3.056657553E0,-2.341282845E0,-9.019181252E0
2.513578521E1,3.056175470E0,-2.342049837E0,-9.019145012E0
2.515605505E1,3.056253195E0,-2.340978384E0,-9.019396782E0
2.517632500E1,3.057415724E0,-2.340974331E0,-9.019004822E0
2.519659489E1,3.058102608E0,-2.341363192E0,-9.018670082E0
2.521686479E1,3.057142973E0,-2.340842724E0,-9.019130707E0
2.523713469E1,3.056412697E0,-2.340275049E0,-9.019526482E0
2.525740458E1,3.057047129E0,-2.340061188E0,-9.019365311E0
2.527767442E1,3.057425499E0,-2.340616465E0,-9.019094467E0
2.529794437E1,3.057246685E0,-2.340684175E0,-9.019137383E0
2.531821422E1,3.056757927E0,-2.340548754E0,-9.019336700E0
2.533848411E1,3.056231976E0,-2.341107130E0,-9.019370079E0
2.535875401E1,3.055685759E0,-2.341923714E0,-9.019344330E0
2.537902390E1,3.055065155E0,-2.342195272E0,-9.019483566E0
2.539929380E1,3.054221869E0,-2.341730118E0,-9.019890785E0
2.541956370E1,3.054248095E0,-2.341457367E0,-9.019952774E0
2.543983359E1,3.054718256E0,-2.341626406E0,-9.019748688E0
2.546023359E1,3.055738926E0,-2.341185808E0,-9.019516945E0
2.548037338E1,3.056698084E0,-2.341431141E0,-9.019127846E0
2.550064328E1,3.057452917E0,-2.342242479E0,-9.018661499E0
2.552091318E1,3.057799339E0,-2.342555523E0,-9.018463135E0
2.554118307E1,3.058183670E0,-2.342560291E0,-9.018332481E0
2.556158307E1,3.058119059E0,-2.342115879E0,-9.018468857E0
2.558172281E1,3.057881832E0,-2.341059923E0,-9.018823624E0
2.560199271E1,3.057736874E0,-2.340598822E0,-9.018993378E0
2.562226260E1,3.058157682E0,-2.340929985E0,-9.018764496E0
2.564253250E1,3.059794426E0,-2.341487408E0,-9.018065453E0
2.566293250E1,3.060868979E0,-2.341963768E0,-9.017576218E0
2.568307224E1,3.060888290E0,-2.342855930E0,-9.017336845E0
2.570334213E1,3.061040878E0,-2.344443560E0,-9.016873360E0
2.572361203E1,3.060797453E0,-2.344266653E0,-9.017002106E0
2.574388192E1,3.059827566E0,-2.343466520E0,-9.017538071E0
2.576428193E1,3.059146643E0,-2.342511415E0,-9.018018723E0
2.578442161E1,3.059744835E0,-2.342570782E0,-9.017799377E0
2.580469156E1,3.060801029E0,-2.343656301E0,-9.017159462E0
2.582496146E1,3.061650038E0,-2.343886852E0,-9.016810417E0
2.584523135E1,3.062647343E0,-2.342825651E0,-9.016747475E0
2.586550120E1,3.063416481E0,-2.342658520E0,-9.016530037E0
2.588577109E1,3.064485073E0,-2.343959570E0,-9.015829086E0
2.590604099E1,3.065572739E0,-2.345323324E0,-9.015105247E0
2.592631088E1,3.065736532E0,-2.346383095E0,-9.014772415E0
2.594658073E1,3.065480471E0,-2.347075462E0,-9.014679909E0
2.596685062E1,3.064978838E0,-2.348013401E0,-9.014606476E0
2.598712042E1,3.064634562E0,-2.348984718E0,-9.014469147E0
2.600739036E1,3.063854218E0,-2.350181341E0,-9.014423370E0
2.602766026E1,3.062330961E0,-2.350483656E0,-9.014863014E0
2.604793010E1,3.060622931E0,-2.349765778E0,-9.015629768E0
2.606819995E1,3.059346199E0,-2.349152803E0,-9.016222000E0
2.608846989E1,3.058888912E0,-2.349087477E0,-9.016395569E0
2.610885854E1,3.059693575E0,-2.348828793E0,-9.016188622E0
2.612900963E1,3.061225176E0,-2.348220110E0,-9.015828133E0
2.614927953E1,3.062717915E0,-2.347962618E0,-9.015387535E0
2.616954937E1,3.063621998E0,-2.347948074E0,-9.015084267E0
2.618981922E1,3.064215899E0,-2.348197699E0,-9.014818192E0
2.621008911E1,3.065069437E0,-2.348765612E0,-9.014379501E0
2.623035901E1,3.065725088E0,-2.349005699E0,-9.014094353E0
2.625062885E1,3.065757751E0,-2.348412037E0,-9.014237404E0
2.627089870E1,3.066082478E0,-2.347553492E0,-9.014350891E0
2.629116859E1,3.066198349E0,-2.346747637E0,-9.014520645E0
2.631143844E1,3.064992905E0,-2.346091270E0,-9.015101433E0
2.633170833E1,3.064222336E0,-2.345745802E0,-9.015454292E0
2.635197818E1,3.063065052E0,-2.344988585E0,-9.016044617E0
2.637224807E1,3.061969042E0,-2.344016552E0,-9.016669273E0
2.639251792E1,3.061706543E0,-2.342588186E0,-9.017128944E0
2.641278776E1,3.062259912E0,-2.341367483E0,-9.017258644E0
2.643305765E1,3.062280178E0,-2.340092182E0,-9.017582893E0
2.645332750E1,3.062009811E0,-2.339658499E0,-9.017786026E0
2.647359739E1,3.061165571E0,-2.339412212E0,-9.018136978E0
2.649386724E1,3.060414314E0,-2.339792013E0,-9.018294334E0
2.651413708E1,3.060021162E0,-2.340491533E0,-9.018245697E0
2.653440698E1,3.059070349E0,-2.340579271E0,-9.018546104E0
2.655467682E1,3.057069540E0,-2.340187073E0,-9.019326210E0
2.657494667E1,3.055790663E0,-2.339170218E0,-9.020022392E0
2.659521656E1,3.055100203E0,-2.339794159E0,-9.020094872E0
2.661548640E1,3.054415226E0,-2.341001987E0,-9.020013809E0
2.663575625E1,3.053996801E0,-2.341801405E0,-9.019948006E0
2.665602614E1,3.053648472E0,-2.341401100E0,-9.020169258E0
2.667629599E1,3.053145170E0,-2.341347218E0,-9.020354271E0
2.669656583E1,3.052932024E0,-2.341654062E0,-9.020346642E0
2.671683573E1,3.053022385E0,-2.342278242E0,-9.020153046E0
2.673710557E1,3.053539515E0,-2.342865467E0,-9.019826889E0
2.675737542E1,3.053279877E0,-2.343103647E0,-9.019851685E0
2.677764531E1,3.052726030E0,-2.344093561E0,-9.019783020E0
2.679791515E1,3.052281141E0,-2.344903946E0,-9.019721985E0
2.681818500E1,3.051876307E0,-2.346086979E0,-9.019552231E0
2.683845484E1,3.051433802E0,-2.347208261E0,-9.019410133E0
2.685872474E1,3.050703287E0,-2.347657442E0,-9.019539833E0
2.687899458E1,3.049277306E0,-2.347551346E0,-9.020049095E0
2.689926443E1,3.048055172E0,-2.347878695E0,-9.020378113E0
2.691953427E1,3.047511578E0,-2.347998381E0,-9.020529747E0
2.693980411E1,3.047669649E0,-2.348404408E0,-9.020371437E0
2.696020411E1,3.048860073E0,-2.348906279E0,-9.019838333E0
2.698034385E1,3.049902201E0,-2.349506140E0,-9.019329071E0
2.700061370E1,3.050729275E0,-2.350095510E0,-9.018897057E0
2.702088354E1,3.051869154E0,-2.351180792E0,-9.018227577E0
2.704115338E1,3.052547932E0,-2.351559401E0,-9.017899513E0
2.706155338E1,3.052475214E0,-2.352093458E0,-9.017784119E0
2.708169307E1,3.052215815E0,-2.352252960E0,-9.017830849E0
2.710196297E1,3.052379131E0,-2.352713108E0,-9.017654419E0
2.712223281E1,3.052019119E0,-2.353100777E0,-9.017676353E0
2.714250265E1,3.051455021E0,-2.354037046E0,-9.017622948E0
2.716290265E1,3.051066637E0,-2.354334116E0,-9.017677307E0
2.718304234E1,3.051270723E0,-2.355041742E0,-9.017422676E0
2.720331219E1,3.051344633E0,-2.356089592E0,-9.017123222E0
2.722358203E1,3.051638126E0,-2.356317282E0,-9.016965866E0
2.724385187E1,3.051366806E0,-2.355954170E0,-9.017152786E0
2.726408234E1,3.051743984E0,-2.356582403E0,-9.016860962E0
2.728439151E1,3.052873850E0,-2.356984615E0,-9.016372681E0
2.730466135E1,3.053222179E0,-2.357192516E0,-9.016201019E0
2.732493125E1,3.052837133E0,-2.357407093E0,-9.016274452E0
2.734520109E1,3.052418232E0,-2.356590509E0,-9.016629219E0
2.736560109E1,3.052372694E0,-2.356990814E0,-9.016540527E0
2.738574078E1,3.052167416E0,-2.357362270E0,-9.016512871E0
2.740601068E1,3.052044153E0,-2.356964827E0,-9.016658783E0
2.742628047E1,3.051974058E0,-2.355758667E0,-9.016996384E0
2.744655031E1,3.051944971E0,-2.355121136E0,-9.017174721E0
2.746682015E1,3.052066803E0,-2.354465485E0,-9.017304420E0
2.748709000E1,3.051879406E0,-2.353461266E0,-9.017629623E0
2.750735984E1,3.051439285E0,-2.352814674E0,-9.017947197E0
2.752762974E1,3.051241159E0,-2.353604555E0,-9.017808914E0
2.754789953E1,3.051154375E0,-2.353554249E0,-9.017850876E0
2.756816937E1,3.050407887E0,-2.353839636E0,-9.018029213E0
2.758843922E1,3.049655914E0,-2.353690624E0,-9.018321991E0
2.760870906E1,3.048920155E0,-2.352919817E0,-9.018771172E0
2.762897890E1,3.048472404E0,-2.352468729E0,-9.019041061E0
2.764924875E1,3.048241854E0,-2.352199554E0,-9.019188881E0
2.766951859E1,3.047402382E0,-2.351763248E0,-9.019585609E0
2.768978844E1,3.046536446E0,-2.351888895E0,-9.019845963E0
2.771005823E1,3.046085119E0,-2.351263285E0,-9.020161629E0
2.773032807E1,3.046291351E0,-2.350900173E0,-9.020186424E0
2.775059792E1,3.046072006E0,-2.351357937E0,-9.020141602E0
2.777086776E1,3.046932936E0,-2.351276636E0,-9.019871712E0
2.779113760E1,3.047430277E0,-2.351038933E0,-9.019765854E0
2.781140745E1,3.046990156E0,-2.350428820E0,-9.020072937E0
2.783167724E1,3.046429873E0,-2.349799871E0,-9.020426750E0
2.785194703E1,3.045324564E0,-2.349319220E0,-9.020924568E0
2.787221692E1,3.045062542E0,-2.349643707E0,-9.020928383E0
2.789248677E1,3.045483828E0,-2.349761724E0,-9.020756721E0
2.791275656E1,3.045686245E0,-2.348836660E0,-9.020927429E0
2.793302640E1,3.044997215E0,-2.348833561E0,-9.021162033E0
2.795329625E1,3.045753002E0,-2.348660707E0,-9.020952225E0
2.797356609E1,3.045733452E0,-2.348089695E0,-9.021106720E0
2.799383594E1,3.044991493E0,-2.348262310E0,-9.021311760E0
2.801410573E1,3.043833733E0,-2.347586632E0,-9.021879196E0
2.803437557E1,3.042974472E0,-2.346840143E0,-9.022362709E0
2.805464542E1,3.042328119E0,-2.346768618E0,-9.022599220E0
2.807491521E1,3.041647196E0,-2.345975161E0,-9.023035049E0
2.809518505E1,3.041289330E0,-2.344270229E0,-9.023599625E0
2.811545489E1,3.041342020E0,-2.343185663E0,-9.023862839E0
2.813572474E1,3.042903185E0,-2.342962980E0,-9.023394585E0
2.815599453E1,3.044183493E0,-2.342868328E0,-9.022987366E0
2.817626437E1,3.043927908E0,-2.342592955E0,-9.023145676E0
2.819653422E1,3.043373346E0,-2.342908382E0,-9.023250580E0
2.821680406E1,3.043224812E0,-2.342921734E0,-9.023297310E0
2.823707385E1,3.043682575E0,-2.342010498E0,-9.023379326E0
2.825734370E1,3.043810844E0,-2.341929913E0,-9.023357391E0
2.827761354E1,3.043395281E0,-2.341932297E0,-9.023495674E0
2.829788338E1,3.042789221E0,-2.341311932E0,-9.023860931E0
2.831815318E1,3.042022228E0,-2.341253757E0,-9.024135590E0
2.833842302E1,3.041111469E0,-2.341120720E0,-9.024477005E0
2.835869286E1,3.040156126E0,-2.340422392E0,-9.024979591E0
2.837896271E1,3.039346457E0,-2.339552879E0,-9.025477409E0
2.839923250E1,3.039305687E0,-2.339137793E0,-9.025599480E0
2.841950234E1,3.039679527E0,-2.338679790E0,-9.025592804E0
2.843977219E1,3.039994717E0,-2.338436604E0,-9.025547981E0
2.846017219E1,3.040588379E0,-2.338160515E0,-9.025420189E0
2.848031187E1,3.041540384E0,-2.337401867E0,-9.025297165E0
2.850058167E1,3.041706324E0,-2.336995125E0,-9.025345802E0
2.852085151E1,3.042385578E0,-2.336966515E0,-9.025124550E0
2.854112135E1,3.042248011E0,-2.337141514E0,-9.025125504E0
2.856152135E1,3.041018009E0,-2.337443352E0,-9.025463104E0
2.858166104E1,3.040411472E0,-2.337212086E0,-9.025726318E0
2.860193088E1,3.040331364E0,-2.336539030E0,-9.025927544E0
2.862220073E1,3.039918184E0,-2.336225271E0,-9.026146889E0
2.864247057E1,3.040566444E0,-2.336738110E0,-9.025795937E0
2.866287057E1,3.040935278E0,-2.336443901E0,-9.025747299E0
2.868301021E1,3.040941000E0,-2.336549759E0,-9.025718689E0
2.870328005E1,3.040665865E0,-2.336519241E0,-9.025818825E0
2.872354989E1,3.041219950E0,-2.336967230E0,-9.025517464E0
2.874381974E1,3.041854858E0,-2.337698698E0,-9.025114059E0
2.876421974E1,3.042345285E0,-2.337986946E0,-9.024872780E0
2.878435942E1,3.042595625E0,-2.337469578E0,-9.024923325E0
2.880462927E1,3.042945385E0,-2.336731434E0,-9.024996758E0
2.882489911E1,3.043150902E0,-2.336676836E0,-9.024940491E0
2.884516896E1,3.043595791E0,-2.336863756E0,-9.024743080E0
2.886543880E1,3.043839931E0,-2.337618589E0,-9.024465561E0
2.888570864E1,3.043523312E0,-2.338068247E0,-9.024455070E0
2.890597849E1,3.043695211E0,-2.338257790E0,-9.024347305E0
2.892624833E1,3.043764114E0,-2.338464737E0,-9.024270058E0
2.894651818E1,3.044068575E0,-2.338031769E0,-9.024280548E0
2.896678802E1,3.044708967E0,-2.337377787E0,-9.024234772E0
2.898705786E1,3.045101881E0,-2.337251902E0,-9.024134636E0
2.900732771E1,3.044894934E0,-2.337212801E0,-9.024213791E0
2.902759755E1,3.044636726E0,-2.337481976E0,-9.024230957E0
2.904786745E1,3.044823170E0,-2.337779999E0,-9.024090767E0
2.906813729E1,3.044933081E0,-2.337671757E0,-9.024082184E0
2.908840713E1,3.045363665E0,-2.337483168E0,-9.023985863E0
2.910867698E1,3.045504808E0,-2.337197542E0,-9.024012566E0
2.912894682E1,3.045562267E0,-2.337752819E0,-9.023848534E0
2.914921666E1,3.046069622E0,-2.337767839E0,-9.023673058E0
2.916948651E1,3.046943426E0,-2.337735891E0,-9.023386955E0
2.918975635E1,3.046756744E0,-2.338239193E0,-9.023319244E0
2.921002614E1,3.046816587E0,-2.338456392E0,-9.023242950E0
2.923029609E1,3.047435522E0,-2.338707209E0,-9.022969246E0
2.925056594E1,3.048424959E0,-2.338770628E0,-9.022618294E0
2.927083578E1,3.048709393E0,-2.338431597E0,-9.022610664E0
2.929110562E1,3.048927546E0,-2.338325739E0,-9.022564888E0
2.931137547E1,3.048937321E0,-2.338388443E0,-9.022543907E0
2.933164531E1,3.048805237E0,-2.338502407E0,-9.022559166E0
2.935191521E1,3.048704147E0,-2.338701010E0,-9.022541046E0
2.937218505E1,3.049440145E0,-2.339309692E0,-9.022135735E0
2.939245489E1,3.050099611E0,-2.339094639E0,-9.021968842E0
2.941272474E1,3.049708843E0,-2.339826107E0,-9.021910667E0
2.943299463E1,3.049601078E0,-2.340380430E0,-9.021803856E0
2.945326448E1,3.050187588E0,-2.339761972E0,-9.021764755E0
2.947353432E1,3.050398588E0,-2.339071751E0,-9.021873474E0
2.949380416E1,3.050215960E0,-2.338384867E0,-9.022113800E0
2.951407406E1,3.050892353E0,-2.338375568E0,-9.021886826E0
2.953434390E1,3.050832748E0,-2.339019537E0,-9.021740913E0
2.955461375E1,3.050413847E0,-2.339394569E0,-9.021784782E0
2.957488359E1,3.050736427E0,-2.339253187E0,-9.021711349E0
2.959515349E1,3.051300287E0,-2.338744402E0,-9.021653175E0
2.961542333E1,3.052500486E0,-2.338156700E0,-9.021400452E0
2.963569323E1,3.053041697E0,-2.337684870E0,-9.021338463E0
2.965596307E1,3.052726984E0,-2.337162018E0,-9.021581650E0
2.967623297E1,3.052573681E0,-2.336701155E0,-9.021752357E0
2.969650281E1,3.052182436E0,-2.336554289E0,-9.021922112E0
2.971677265E1,3.052424192E0,-2.336194754E0,-9.021933556E0
2.973704255E1,3.052806616E0,-2.335930824E0,-9.021871567E0
2.975731239E1,3.052630663E0,-2.336061001E0,-9.021898270E0
2.977758229E1,3.052000761E0,-2.336080313E0,-9.022107124E0
2.979785213E1,3.051374435E0,-2.336217403E0,-9.022283554E0
2.981812203E1,3.050649643E0,-2.336634874E0,-9.022418976E0
2.983839193E1,3.050008059E0,-2.337052822E0,-9.022528648E0
2.985866177E1,3.049662352E0,-2.337371349E0,-9.022563934E0
2.987893167E1,3.049629927E0,-2.337450266E0,-9.022553444E0
2.989920151E1,3.049670935E0,-2.337541580E0,-9.022516251E0
2.991947140E1,3.050289154E0,-2.338312387E0,-9.022107124E0
2.993974130E1,3.050203800E0,-2.338621378E0,-9.022055626E0
2.996014130E1,3.049779415E0,-2.339090109E0,-9.022077560E0
2.998028104E1,3.049345493E0,-2.339737415E0,-9.022057533E0
3.000055094E1,3.048933506E0,-2.341058969E0,-9.021853447E0
3.002082083E1,3.048293591E0,-2.341570139E0,-9.021937370E0
3.004109068E1,3.047999382E0,-2.341307163E0,-9.022104263E0
3.006149068E1,3.047602415E0,-2.341543913E0,-9.022176743E0
3.008163047E1,3.047723055E0,-2.342000723E0,-9.022018433E0
3.010190031E1,3.047704935E0,-2.342430353E0,-9.021911621E0
3.012217021E1,3.047249317E0,-2.342587948E0,-9.022025108E0
3.014244010E1,3.046857357E0,-2.343349457E0,-9.021959305E0
3.016284010E1,3.046291113E0,-2.344110250E0,-9.021953583E0
3.018297989E1,3.046487331E0,-2.344977856E0,-9.021662712E0
3.020324979E1,3.047068834E0,-2.345197678E0,-9.021408081E0
3.022351969E1,3.047105551E0,-2.344999313E0,-9.021447182E0
3.024378958E1,3.047509432E0,-2.346043348E0,-9.021039963E0
3.026394166E1,3.048594713E0,-2.346446514E0,-9.020567894E0
3.028433015E1,3.049422503E0,-2.347520351E0,-9.020008087E0
3.030459948E1,3.049430847E0,-2.348932505E0,-9.019639015E0
3.032486932E1,3.048919916E0,-2.348689318E0,-9.019874573E0
3.034513917E1,3.049168348E0,-2.349638224E0,-9.019542694E0
3.036553916E1,3.049196720E0,-2.350822687E0,-9.019225121E0
3.038567896E1,3.049640417E0,-2.351732254E0,-9.018838882E0
3.040594885E1,3.050465107E0,-2.352434397E0,-9.018376350E0
3.042621875E1,3.051289082E0,-2.352739573E0,-9.018016815E0
3.044648864E1,3.051865339E0,-2.352917433E0,-9.017775536E0
3.046675849E1,3.053139210E0,-2.352989435E0,-9.017326355E0
3.048702838E1,3.053166628E0,-2.353345633E0,-9.017223358E0
3.050729828E1,3.052829266E0,-2.354746580E0,-9.016971588E0
3.052756818E1,3.053875923E0,-2.356013536E0,-9.016286850E0
3.054783807E1,3.054721832E0,-2.357061863E0,-9.015726089E0
3.056810797E1,3.054839611E0,-2.357894421E0,-9.015468597E0
3.058837792E1,3.054981232E0,-2.357738972E0,-9.015461922E0
3.060864781E1,3.054421186E0,-2.357090235E0,-9.015820503E0
3.062891765E1,3.054064274E0,-2.356625795E0,-9.016063690E0
3.064918755E1,3.053891897E0,-2.355608463E0,-9.016387939E0
3.066945745E1,3.052547932E0,-2.355354548E0,-9.016909599E0
3.068972734E1,3.050664186E0,-2.354849100E0,-9.017678261E0
3.070999729E1,3.049229622E0,-2.354460478E0,-9.018264771E0
3.073026719E1,3.049009085E0,-2.355270386E0,-9.018128395E0
3.075053708E1,3.049274445E0,-2.356862545E0,-9.017621994E0
3.077080698E1,3.050632477E0,-2.358173847E0,-9.016819954E0
3.079107693E1,3.053067923E0,-2.359236002E0,-9.015718460E0
3.081134682E1,3.056044340E0,-2.358157396E0,-9.014992714E0
3.083161672E1,3.057592630E0,-2.355847597E0,-9.015070915E0
3.085188661E1,3.058291197E0,-2.354909182E0,-9.015079498E0
3.087215656E1,3.057692289E0,-2.355687141E0,-9.015078545E0
3.089242646E1,3.055509567E0,-2.356041193E0,-9.015726089E0
3.091269635E1,3.053895712E0,-2.355418444E0,-9.016434669E0
3.093296625E1,3.053295135E0,-2.356294394E0,-9.016409874E0
3.095323620E1,3.051710129E0,-2.358070850E0,-9.016482353E0
3.097350609E1,3.050859928E0,-2.358072042E0,-9.016769409E0
3.099377599E1,3.050692797E0,-2.359246731E0,-9.016519547E0
3.101404594E1,3.048784018E0,-2.361148596E0,-9.016667366E0
3.103431578E1,3.044517994E0,-2.361727476E0,-9.017956734E0
3.105458573E1,3.039061308E0,-2.363639593E0,-9.019295692E0
3.107485568E1,3.033884048E0,-2.366447687E0,-9.020301819E0
3.109512557E1,3.032292366E0,-2.367320299E0,-9.020608902E0
3.111539547E1,3.034707069E0,-2.365553379E0,-9.020260811E0
3.113566531E1,3.040910721E0,-2.362506151E0,-9.018969536E0
3.115593531E1,3.047966480E0,-2.358963966E0,-9.017514229E0
3.117620521E1,3.053149700E0,-2.354620934E0,-9.016896248E0
3.119647510E1,3.054624319E0,-2.351200819E0,-9.017290115E0
3.121674505E1,3.052273035E0,-2.351108789E0,-9.018109322E0
3.123701495E1,3.047122717E0,-2.353131294E0,-9.019324303E0
3.125728484E1,3.042939425E0,-2.355494261E0,-9.020119667E0
3.127755479E1,3.039206505E0,-2.358031273E0,-9.020715714E0
3.129782469E1,3.035960197E0,-2.359397888E0,-9.021450996E0
3.131809458E1,3.032870293E0,-2.359531641E0,-9.022455215E0
3.133836453E1,3.030745268E0,-2.358529091E0,-9.023431778E0
3.135867375E1,3.029715776E0,-2.356582403E0,-9.024285316E0
3.137890437E1,3.030463696E0,-2.354281664E0,-9.024635315E0
3.139917432E1,3.032468081E0,-2.352306604E0,-9.024476051E0
3.141944422E1,3.036671638E0,-2.352066517E0,-9.023125648E0
3.143971411E1,3.041177273E0,-2.352267981E0,-9.021555901E0
3.146011411E1,3.045675993E0,-2.352144718E0,-9.020070076E0
3.148025396E1,3.049137354E0,-2.352028847E0,-9.018930435E0
3.150052385E1,3.051987171E0,-2.352991819E0,-9.017716408E0
3.152079375E1,3.053924561E0,-2.354193926E0,-9.016745567E0
3.154106370E1,3.054754972E0,-2.354626417E0,-9.016351700E0
3.156146370E1,3.054278612E0,-2.354193687E0,-9.016625404E0
3.158160344E1,3.052263021E0,-2.353721142E0,-9.017432213E0
3.160187338E1,3.049741268E0,-2.353698015E0,-9.018290520E0
3.162214328E1,3.047125816E0,-2.354070187E0,-9.019078255E0
3.164241318E1,3.044918299E0,-2.354164362E0,-9.019799232E0
3.166281318E1,3.043262482E0,-2.354186296E0,-9.020351410E0
3.168295302E1,3.043311119E0,-2.354478598E0,-9.020259857E0
3.170322292E1,3.044956446E0,-2.353994608E0,-9.019829750E0
3.172349281E1,3.047111750E0,-2.353076220E0,-9.019341469E0
3.174376276E1,3.049157858E0,-2.352337599E0,-9.018843651E0
3.176416276E1,3.051913977E0,-2.352024317E0,-9.017992020E0
3.178430255E1,3.054231405E0,-2.352749825E0,-9.017018318E0
3.180457250E1,3.055680037E0,-2.354137421E0,-9.016164780E0
3.182484239E1,3.056128740E0,-2.355053186E0,-9.015775681E0
3.184511229E1,3.055474281E0,-2.355532169E0,-9.015872002E0
3.186538219E1,3.054432392E0,-2.355741739E0,-9.016169548E0
3.188565213E1,3.053641558E0,-2.355426311E0,-9.016519547E0
3.190592203E1,3.053142786E0,-2.355143309E0,-9.016762733E0
3.192619187E1,3.052312374E0,-2.354281664E0,-9.017268181E0
3.194646182E1,3.051651478E0,-2.354192019E0,-9.017516136E0
3.196673172E1,3.052179813E0,-2.354368448E0,-9.017292023E0
3.198700166E1,3.054035902E0,-2.354894161E0,-9.016525269E0
3.200727156E1,3.056006908E0,-2.354877234E0,-9.015861511E0
3.202754146E1,3.058165073E0,-2.354595184E0,-9.015203476E0
3.204781135E1,3.059620857E0,-2.355160713E0,-9.014561653E0
3.206808125E1,3.060042620E0,-2.355603695E0,-9.014304161E0
3.208835120E1,3.059882641E0,-2.356003284E0,-9.014252663E0
3.210862109E1,3.060001373E0,-2.355879068E0,-9.014245033E0
3.212889099E1,3.059739828E0,-2.355924129E0,-9.014322281E0
3.214916088E1,3.059180021E0,-2.355681658E0,-9.014575958E0
3.216943078E1,3.058906794E0,-2.354928017E0,-9.014864922E0
3.218970073E1,3.058905840E0,-2.354659081E0,-9.014935493E0
3.220997062E1,3.059150696E0,-2.354732513E0,-9.014833450E0
3.223024052E1,3.058966398E0,-2.354557753E0,-9.014942169E0
3.225051042E1,3.058903217E0,-2.354773283E0,-9.014906883E0
3.227078031E1,3.059352875E0,-2.354878426E0,-9.014726639E0
3.229105021E1,3.060088634E0,-2.354731560E0,-9.014514923E0
3.231132015E1,3.060350180E0,-2.354292393E0,-9.014541626E0
3.233159000E1,3.060595751E0,-2.354172230E0,-9.014488220E0
3.235185989E1,3.061109781E0,-2.353680849E0,-9.014442444E0
3.237212979E1,3.060622215E0,-2.353903055E0,-9.014550209E0
3.239239969E1,3.060278177E0,-2.353954792E0,-9.014654160E0
3.241266963E1,3.059935331E0,-2.354173660E0,-9.014713287E0
3.243293953E1,3.059012890E0,-2.354425669E0,-9.014960289E0
3.245320943E1,3.057729483E0,-2.353584290E0,-9.015615463E0
3.247347932E1,3.057407856E0,-2.352948904E0,-9.015890121E0
3.249374922E1,3.057490349E0,-2.353018045E0,-9.015843391E0
3.251401906E1,3.057419777E0,-2.352577209E0,-9.015982628E0
3.253428896E1,3.057450771E0,-2.352300882E0,-9.016045570E0
3.255455885E1,3.056705236E0,-2.352901459E0,-9.016141891E0
3.257482880E1,3.056572199E0,-2.353537321E0,-9.016020775E0
3.259509864E1,3.055734873E0,-2.354074240E0,-9.016162872E0
3.261536854E1,3.055589199E0,-2.354531765E0,-9.016093254E0
3.263563844E1,3.055793285E0,-2.354610443E0,-9.016003609E0
3.265590833E1,3.055826187E0,-2.354365587E0,-9.016056061E0
3.267617823E1,3.055277824E0,-2.354541540E0,-9.016196251E0
3.269644812E1,3.054896593E0,-2.355257273E0,-9.016139030E0
3.271671802E1,3.054047823E0,-2.355449677E0,-9.016375542E0
3.273698792E1,3.052178621E0,-2.355617046E0,-9.016964912E0
3.275725781E1,3.052055359E0,-2.356136084E0,-9.016872406E0
3.277752771E1,3.052543163E0,-2.356567860E0,-9.016592979E0
3.279779755E1,3.052204370E0,-2.356628656E0,-9.016691208E0
3.281806745E1,3.051397800E0,-2.356107712E0,-9.017101288E0
3.283833734E1,3.050790310E0,-2.356421947E0,-9.017224312E0
3.285860724E1,3.050193071E0,-2.357213259E0,-9.017220497E0
3.287887713E1,3.049926996E0,-2.357806444E0,-9.017154694E0
3.289914703E1,3.050044537E0,-2.358229160E0,-9.017004967E0
3.291941692E1,3.049649000E0,-2.358896971E0,-9.016963005E0
3.293968677E1,3.049202681E0,-2.359396696E0,-9.016983986E0
3.296008677E1,3.048757553E0,-2.359483957E0,-9.017111778E0
3.298022651E1,3.048764944E0,-2.359830379E0,-9.017018318E0
3.300049646E1,3.049442053E0,-2.360795736E0,-9.016536713E0
3.302076630E1,3.050387383E0,-2.361360788E0,-9.016069412E0
3.304103620E1,3.050595284E0,-2.361892700E0,-9.015859604E0
3.306143620E1,3.049898624E0,-2.361631393E0,-9.016162872E0
3.308157599E1,3.049524307E0,-2.361598969E0,-9.016298294E0
3.310184583E1,3.049460888E0,-2.361720085E0,-9.016287804E0
3.312211573E1,3.049880743E0,-2.362902880E0,-9.015836716E0
3.314238562E1,3.050150871E0,-2.363560200E0,-9.015573502E0
3.316278562E1,3.050319910E0,-2.363426447E0,-9.015549660E0
3.318292536E1,3.049951077E0,-2.363059759E0,-9.015771866E0
3.320319521E1,3.049726963E0,-2.363690376E0,-9.015681267E0
3.322346510E1,3.050086737E0,-2.364362240E0,-9.015383720E0
3.324373500E1,3.050670624E0,-2.364312649E0,-9.015199661E0
3.326413500E1,3.050731897E0,-2.364491224E0,-9.015131950E0
3.328427474E1,3.051412582E0,-2.365279436E0,-9.014695168E0
3.330454458E1,3.052272558E0,-2.366224766E0,-9.014155388E0
3.332481448E1,3.052225828E0,-2.367635250E0,-9.013800621E0
3.334508437E1,3.051619291E0,-2.367870569E0,-9.013944626E0
3.336548437E1,3.051495075E0,-2.367693424E0,-9.014032364E0
3.338562411E1,3.051048279E0,-2.368986130E0,-9.013844490E0
3.340589396E1,3.050650358E0,-2.370239735E0,-9.013648987E0
3.342616385E1,3.050417185E0,-2.369854689E0,-9.013829231E0
3.344643375E1,3.050346851E0,-2.369154692E0,-9.014038086E0
3.346670359E1,3.050397396E0,-2.369185686E0,-9.014012337E0
3.348697349E1,3.051075697E0,-2.368786335E0,-9.013887405E0
3.350724333E1,3.051314831E0,-2.368310213E0,-9.013932228E0
3.352751323E1,3.050851107E0,-2.367690086E0,-9.014250755E0
3.354778307E1,3.050745487E0,-2.367474794E0,-9.014344215E0
3.356805297E1,3.051274538E0,-2.366683483E0,-9.014372826E0
3.358832281E1,3.051988602E0,-2.365820885E0,-9.014357567E0
3.360859271E1,3.051784515E0,-2.365376711E0,-9.014543533E0
3.362886255E1,3.051327229E0,-2.364613056E0,-9.014898300E0
3.364913245E1,3.050539970E0,-2.364196062E0,-9.015274048E0
3.366940224E1,3.050155640E0,-2.364451647E0,-9.015336990E0
3.368967219E1,3.049640417E0,-2.364455462E0,-9.015510559E0
3.370994203E1,3.049330473E0,-2.364505529E0,-9.015602112E0
3.373021187E1,3.049475670E0,-2.363467693E0,-9.015825272E0
3.375048177E1,3.048965931E0,-2.362504244E0,-9.016250610E0
3.377075161E1,3.049520969E0,-2.361506462E0,-9.016324043E0
3.379102146E1,3.050529480E0,-2.361027718E0,-9.016108513E0
3.381129135E1,3.051418304E0,-2.360607624E0,-9.015918732E0
3.383156120E1,3.051528454E0,-2.360055923E0,-9.016023636E0
3.385183104E1,3.051222324E0,-2.359434843E0,-9.016290665E0
3.387210094E1,3.051282883E0,-2.359080076E0,-9.016363144E0
3.389237078E1,3.051382780E0,-2.358723164E0,-9.016422272E0
3.391264062E1,3.051382303E0,-2.358778954E0,-9.016408920E0
3.393291047E1,3.051440716E0,-2.358087778E0,-9.016569138E0
3.395318036E1,3.051039457E0,-2.357912064E0,-9.016751289E0
3.397345021E1,3.051227331E0,-2.357979536E0,-9.016670227E0
3.399372005E1,3.051701784E0,-2.357288837E0,-9.016689301E0
3.401398984E1,3.051064491E0,-2.357285976E0,-9.016905785E0
3.403425979E1,3.050184011E0,-2.356923103E0,-9.017298698E0
3.405452963E1,3.050224304E0,-2.356893539E0,-9.017292976E0
3.407479948E1,3.050263882E0,-2.357688904E0,-9.017070770E0
3.409506932E1,3.049967766E0,-2.357639551E0,-9.017185211E0
3.411533911E1,3.049384117E0,-2.356983662E0,-9.017553329E0
3.413560906E1,3.049029827E0,-2.356112719E0,-9.017901421E0
3.415587890E1,3.049135447E0,-2.355628967E0,-9.017992020E0
3.417614875E1,3.049427509E0,-2.355947971E0,-9.017808914E0
3.419641859E1,3.049820900E0,-2.355575323E0,-9.017774582E0
3.421668844E1,3.049480915E0,-2.355432749E0,-9.017925262E0
3.423695828E1,3.049126863E0,-2.355489254E0,-9.018031120E0
3.425722812E1,3.048442602E0,-2.354961157E0,-9.018399239E0
3.427749802E1,3.048505545E0,-2.355062008E0,-9.018352509E0
3.429776786E1,3.048961401E0,-2.354563951E0,-9.018329620E0
3.431803765E1,3.048828840E0,-2.353516340E0,-9.018647194E0
3.433830755E1,3.048553228E0,-2.353476048E0,-9.018750191E0
3.435857739E1,3.047738552E0,-2.353982210E0,-9.018894196E0
3.437884719E1,3.047252178E0,-2.354200125E0,-9.019000053E0
3.439911708E1,3.047514915E0,-2.354557753E0,-9.018818855E0
3.441938693E1,3.047680378E0,-2.354772806E0,-9.018707275E0
3.443965677E1,3.047503948E0,-2.354389191E0,-9.018866539E0
3.446005677E1,3.048045874E0,-2.353449106E0,-9.018928528E0
3.448019640E1,3.048387051E0,-2.352892160E0,-9.018959045E0
3.450046635E1,3.048181534E0,-2.352730513E0,-9.019070625E0
3.452073609E1,3.048464298E0,-2.352499962E0,-9.019035339E0
3.454100594E1,3.049008131E0,-2.352420568E0,-9.018871307E0
3.456140594E1,3.049267054E0,-2.352717400E0,-9.018706322E0
3.458154562E1,3.048792362E0,-2.352727890E0,-9.018865585E0
3.460181547E1,3.048460960E0,-2.352299452E0,-9.019088745E0
3.462208526E1,3.048453569E0,-2.352116108E0,-9.019139290E0
3.464235510E1,3.048965693E0,-2.351804495E0,-9.019046783E0
3.466275510E1,3.049597025E0,-2.351037264E0,-9.019033432E0
3.468289479E1,3.049246550E0,-2.351217747E0,-9.019104958E0
3.470316463E1,3.048902273E0,-2.350983381E0,-9.019282341E0
3.472343442E1,3.048265457E0,-2.350988150E0,-9.019495964E0
3.474370427E1,3.048273087E0,-2.350806236E0,-9.019540787E0
3.476410427E1,3.048339844E0,-2.350659847E0,-9.019556999E0
3.478424396E1,3.047366142E0,-2.350918531E0,-9.019819260E0
3.480451375E1,3.047306299E0,-2.351190805E0,-9.019767761E0
3.482478359E1,3.047913074E0,-2.350753307E0,-9.019676208E0
3.484505344E1,3.048007250E0,-2.349814892E0,-9.019888878E0
3.486532323E1,3.048161507E0,-2.349374294E0,-9.019951820E0
3.488559307E1,3.049086809E0,-2.348827124E0,-9.019783020E0
3.490586292E1,3.049420834E0,-2.348341465E0,-9.019795418E0
3.492613271E1,3.049400091E0,-2.348136663E0,-9.019855499E0
3.494640255E1,3.049198389E0,-2.348495960E0,-9.019831657E0
3.496667234E1,3.048970461E0,-2.348367214E0,-9.019941330E0
3.498694219E1,3.049016953E0,-2.348056793E0,-9.020006180E0
3.500721198E1,3.049148083E0,-2.347671509E0,-9.020063400E0
3.502748182E1,3.048609495E0,-2.347339869E0,-9.020331383E0
3.504775161E1,3.048428774E0,-2.346999407E0,-9.020480156E0
3.506802146E1,3.048042059E0,-2.347344637E0,-9.020520210E0
3.508829125E1,3.047798634E0,-2.347585440E0,-9.020540237E0
3.510856104E1,3.047725439E0,-2.347306728E0,-9.020637512E0
3.512883088E1,3.047721148E0,-2.346834421E0,-9.020762444E0
3.514910068E1,3.048292637E0,-2.346462965E0,-9.020666122E0
3.516937052E1,3.048647404E0,-2.346843481E0,-9.020447731E0
3.518964031E1,3.049053907E0,-2.346923113E0,-9.020289421E0
3.520991010E1,3.049526453E0,-2.346648693E0,-9.020199776E0
3.523017995E1,3.049670458E0,-2.346699953E0,-9.020138741E0
3.525044974E1,3.050275326E0,-2.346668720E0,-9.019941330E0
3.527071953E1,3.050267220E0,-2.346541405E0,-9.019978523E0
3.529098937E1,3.050439835E0,-2.346557140E0,-9.019914627E0
3.531125916E1,3.050886154E0,-2.346665621E0,-9.019736290E0
3.533152896E1,3.050759792E0,-2.346419334E0,-9.019843102E0
3.535179880E1,3.050257444E0,-2.346421957E0,-9.020011902E0
3.537206859E1,3.050316095E0,-2.346397877E0,-9.019998550E0
3.539233838E1,3.050642252E0,-2.346069336E0,-9.019973755E0
3.541260823E1,3.051021576E0,-2.345710039E0,-9.019939423E0
3.543287802E1,3.050796032E0,-2.345712423E0,-9.020014763E0
3.545314781E1,3.050509930E0,-2.345767260E0,-9.020095825E0
3.547341760E1,3.050545454E0,-2.346096754E0,-9.019999504E0
3.549368745E1,3.050926924E0,-2.346221685E0,-9.019838333E0
3.551395724E1,3.050709248E0,-2.345986128E0,-9.019971848E0
3.553422703E1,3.050971270E0,-2.346030951E0,-9.019871712E0
3.555449687E1,3.051410437E0,-2.346739769E0,-9.019539833E0
3.557476667E1,3.051229477E0,-2.346547842E0,-9.019650459E0
3.559503646E1,3.050828695E0,-2.346453428E0,-9.019810677E0
3.561530625E1,3.050629854E0,-2.346089840E0,-9.019972801E0
3.563557609E1,3.050988436E0,-2.346495390E0,-9.019745827E0
3.565584583E1,3.051022530E0,-2.346951962E0,-9.019615173E0
3.567611562E1,3.050479889E0,-2.347097397E0,-9.019761086E0
3.569638547E1,3.050246239E0,-2.347239256E0,-9.019804001E0
3.571665531E1,3.050364494E0,-2.346607924E0,-9.019927979E0
3.573692510E1,3.051471233E0,-2.345984936E0,-9.019715309E0
3.575719489E1,3.052191019E0,-2.346058846E0,-9.019452095E0
3.577746469E1,3.051538706E0,-2.346345425E0,-9.019598007E0
3.579773448E1,3.051062346E0,-2.347046614E0,-9.019577980E0
3.581800427E1,3.050680399E0,-2.347920179E0,-9.019480705E0
3.583827406E1,3.050846815E0,-2.348131418E0,-9.019368172E0
3.585854390E1,3.050875425E0,-2.348236561E0,-9.019330978E0
3.587881370E1,3.050371885E0,-2.348099232E0,-9.019536972E0
3.589908349E1,3.050033569E0,-2.347876072E0,-9.019709587E0
3.591935328E1,3.049956322E0,-2.347701550E0,-9.019781113E0
3.593962307E1,3.049420595E0,-2.348231792E0,-9.019824982E0
3.596002307E1,3.048553705E0,-2.348734617E0,-9.019986153E0
3.598016265E1,3.048134804E0,-2.349445105E0,-9.019943237E0
3.600043245E1,3.047994852E0,-2.349596024E0,-9.019951820E0
3.602070224E1,3.047773600E0,-2.349804401E0,-9.019970894E0
3.604097203E1,3.048157454E0,-2.350281954E0,-9.019718170E0
3.606137203E1,3.048789501E0,-2.350983858E0,-9.019320488E0
3.608151166E1,3.048500776E0,-2.351560354E0,-9.019268036E0
3.610178140E1,3.048257828E0,-2.351593971E0,-9.019341469E0
3.612205125E1,3.048309565E0,-2.351645470E0,-9.019310951E0
3.614232104E1,3.048041821E0,-2.352148056E0,-9.019269943E0
3.616272104E1,3.047659397E0,-2.353193760E0,-9.019125938E0
3.618286062E1,3.047280550E0,-2.353690863E0,-9.019124985E0
3.620313042E1,3.046853781E0,-2.353652239E0,-9.019279480E0
3.622340021E1,3.046358585E0,-2.353537321E0,-9.019475937E0
3.624367000E1,3.046093225E0,-2.353510618E0,-9.019572258E0
3.626386120E1,3.046257257E0,-2.353540897E0,-9.019509315E0
3.628420948E1,3.046524048E0,-2.354386091E0,-9.019198418E0
3.630447932E1,3.046864033E0,-2.355132580E0,-9.018889427E0
3.632474911E1,3.046583176E0,-2.355772734E0,-9.018815994E0
3.634501890E1,3.047253370E0,-2.356527328E0,-9.018393517E0
3.636541890E1,3.048427820E0,-2.357149839E0,-9.017832756E0
3.638555849E1,3.049025536E0,-2.357050419E0,-9.017657280E0
3.640582833E1,3.049125433E0,-2.358494043E0,-9.017246246E0
3.642609812E1,3.050230026E0,-2.359309673E0,-9.016657829E0
3.644636792E1,3.051379204E0,-2.359895468E0,-9.016117096E0
3.646663771E1,3.051520109E0,-2.361197948E0,-9.015727997E0
3.648690750E1,3.051167965E0,-2.361173153E0,-9.015853882E0
3.650717729E1,3.051238775E0,-2.361893415E0,-9.015641212E0
3.652744708E1,3.051299095E0,-2.363043785E0,-9.015318871E0
3.654771687E1,3.051350594E0,-2.363919258E0,-9.015071869E0
3.656798666E1,3.052334785E0,-2.364254951E0,-9.014651299E0
3.658825646E1,3.053628445E0,-2.364418507E0,-9.014169693E0
3.660852625E1,3.054132223E0,-2.364310503E0,-9.014028549E0
3.662879604E1,3.054198503E0,-2.363924980E0,-9.014106750E0
3.664906583E1,3.053389311E0,-2.363662958E0,-9.014449120E0
3.666933562E1,3.052101612E0,-2.363781214E0,-9.014854431E0
3.668960542E1,3.051538706E0,-2.363548756E0,-9.015106201E0
3.670987521E1,3.051221132E0,-2.363189220E0,-9.015308380E0
3.673014500E1,3.050595045E0,-2.362727642E0,-9.015640259E0
3.675041474E1,3.049798727E0,-2.361547470E0,-9.016219139E0
3.677068453E1,3.049612522E0,-2.360230207E0,-9.016627312E0
3.679095432E1,3.049506903E0,-2.359462500E0,-9.016863823E0
3.681122411E1,3.049093723E0,-2.359290361E0,-9.017048836E0
3.683149390E1,3.048452377E0,-2.358985424E0,-9.017345428E0
3.685176370E1,3.047800064E0,-2.358215332E0,-9.017765999E0
3.687203349E1,3.047691584E0,-2.356770992E0,-9.018180847E0
3.689230328E1,3.048605204E0,-2.355897188E0,-9.018100739E0
3.691257307E1,3.049307108E0,-2.355124235E0,-9.018066406E0
3.693284281E1,3.049396038E0,-2.353908062E0,-9.018352509E0
3.695311260E1,3.049029350E0,-2.353065729E0,-9.018696785E0
3.697338239E1,3.049170256E0,-2.352584124E0,-9.018774033E0
3.699365219E1,3.049183607E0,-2.352119207E0,-9.018892288E0
3.701392198E1,3.048719406E0,-2.351664782E0,-9.019165993E0
3.703419172E1,3.048540354E0,-2.351383686E0,-9.019300461E0
3.705446151E1,3.048488140E0,-2.350790739E0,-9.019473076E0
3.707473130E1,3.048536301E0,-2.350024700E0,-9.019657135E0
3.709500109E1,3.049247742E0,-2.349373817E0,-9.019585609E0
3.711527088E1,3.049525499E0,-2.349375963E0,-9.019490242E0
3.713554062E1,3.049895048E0,-2.349256516E0,-9.019397736E0
3.715581042E1,3.049722910E0,-2.348751545E0,-9.019587517E0
3.717608021E1,3.049814939E0,-2.348613262E0,-9.019592285E0
3.719635000E1,3.050081015E0,-2.347931862E0,-9.019679070E0
3.721661974E1,3.049862623E0,-2.347950935E0,-9.019747734E0
3.723688953E1,3.049579859E0,-2.347476482E0,-9.019967079E0
3.725715932E1,3.049529314E0,-2.346585989E0,-9.020215988E0
3.727742911E1,3.048988581E0,-2.346814632E0,-9.020339012E0
3.729769885E1,3.048611164E0,-2.346987247E0,-9.020421982E0
3.731796864E1,3.048371553E0,-2.346476316E0,-9.020634651E0
3.733823844E1,3.048904896E0,-2.346156836E0,-9.020538330E0
3.735850818E1,3.049280882E0,-2.345949173E0,-9.020464897E0
3.737877797E1,3.049077272E0,-2.345697403E0,-9.020599365E0
3.739904776E1,3.048996210E0,-2.345462084E0,-9.020689011E0
3.741931750E1,3.049594402E0,-2.345090389E0,-9.020583153E0
3.743958729E1,3.049629688E0,-2.345229149E0,-9.020534515E0
3.745998729E1,3.049754381E0,-2.344901800E0,-9.020577431E0
3.748012682E1,3.050112963E0,-2.344708920E0,-9.020505905E0
3.750039661E1,3.050091267E0,-2.344284773E0,-9.020624161E0
3.752066635E1,3.050701618E0,-2.344264746E0,-9.020422935E0
3.754093614E1,3.050300360E0,-2.344465733E0,-9.020506859E0
3.756133614E1,3.050069571E0,-2.344672680E0,-9.020530701E0
3.758147568E1,3.049957752E0,-2.345160723E0,-9.020441055E0
3.760174547E1,3.049912453E0,-2.345514536E0,-9.020364761E0
3.762201521E1,3.049491405E0,-2.345196962E0,-9.020589828E0
3.764228500E1,3.050235987E0,-2.344706774E0,-9.020465851E0
3.766268500E1,3.050463200E0,-2.344892502E0,-9.020340919E0
3.768282453E1,3.050774813E0,-2.345039845E0,-9.020196915E0
3.770309427E1,3.051152706E0,-2.344850302E0,-9.020117760E0
3.772336406E1,3.051518202E0,-2.344456196E0,-9.020097733E0
3.774363380E1,3.051458120E0,-2.343755007E0,-9.020299911E0
3.776403380E1,3.050745249E0,-2.343771458E0,-9.020535469E0
3.778417333E1,3.050623655E0,-2.344486713E0,-9.020392418E0
3.780444312E1,3.051347017E0,-2.344808817E0,-9.020062447E0
3.782471286E1,3.051772833E0,-2.344783545E0,-9.019926071E0
3.784498265E1,3.051398993E0,-2.344483137E0,-9.020130157E0
3.786525239E1,3.051887274E0,-2.344296455E0,-9.020014763E0
3.788552219E1,3.052170515E0,-2.344707966E0,-9.019810677E0
3.790579192E1,3.051890373E0,-2.345244646E0,-9.019765854E0
3.792606172E1,3.052274942E0,-2.345479488E0,-9.019575119E0
3.794633146E1,3.052978754E0,-2.345572233E0,-9.019312859E0
3.796660125E1,3.053366184E0,-2.345443010E0,-9.019215584E0
3.798687099E1,3.054180861E0,-2.345762491E0,-9.018856049E0
3.800714073E1,3.054236412E0,-2.345487595E0,-9.018908501E0
3.802741047E1,3.053620338E0,-2.344644308E0,-9.019336700E0
3.804768026E1,3.053998947E0,-2.343939781E0,-9.019392014E0
3.806795005E1,3.054866552E0,-2.344478607E0,-9.018958092E0
3.808821979E1,3.054185390E0,-2.345319986E0,-9.018970490E0
3.810848953E1,3.053458214E0,-2.345535278E0,-9.019159317E0
3.812875932E1,3.053441286E0,-2.345022202E0,-9.019298553E0
3.814902906E1,3.053802013E0,-2.344426632E0,-9.019331932E0
3.816929885E1,3.054663420E0,-2.343304873E0,-9.019331932E0
3.818956859E1,3.054454565E0,-2.342649937E0,-9.019572258E0
3.820983833E1,3.054502487E0,-2.342486143E0,-9.019598961E0
3.823010812E1,3.055119753E0,-2.342092752E0,-9.019491196E0
3.825037786E1,3.055189610E0,-2.341939926E0,-9.019508362E0
3.827064760E1,3.054877281E0,-2.342010498E0,-9.019595146E0
3.829091739E1,3.054565668E0,-2.341893673E0,-9.019730568E0
3.831118708E1,3.053898811E0,-2.341466427E0,-9.020067215E0
3.833145687E1,3.053272486E0,-2.340320587E0,-9.020576477E0
3.835172666E1,3.052853584E0,-2.339902163E0,-9.020828247E0
3.837199640E1,3.052372456E0,-2.340088129E0,-9.020941734E0
3.839226614E1,3.051983595E0,-2.340076685E0,-9.021077156E0
3.841253594E1,3.051639080E0,-2.340264797E0,-9.021143913E0
3.843280568E1,3.051210880E0,-2.341002941E0,-9.021097183E0
3.845307542E1,3.050338030E0,-2.340921164E0,-9.021413803E0
3.847334521E1,3.049771786E0,-2.340892553E0,-9.021613121E0
3.849361489E1,3.049840927E0,-2.341017723E0,-9.021557808E0
3.851388469E1,3.050136328E0,-2.341310501E0,-9.021381378E0
3.853415443E1,3.049822092E0,-2.342018127E0,-9.021304131E0
3.855442422E1,3.049350500E0,-2.342375040E0,-9.021370888E0
3.857469396E1,3.048763752E0,-2.342748165E0,-9.021471977E0
3.859496370E1,3.048569441E0,-2.343207121E0,-9.021418571E0
3.861523349E1,3.048595905E0,-2.344002962E0,-9.021203041E0
3.863550323E1,3.047885895E0,-2.344708920E0,-9.021259308E0
3.865577297E1,3.046644688E0,-2.344583035E0,-9.021711349E0
3.867604271E1,3.046309233E0,-2.344251633E0,-9.021909714E0
3.869631250E1,3.046007872E0,-2.344329596E0,-9.021991730E0
3.871658224E1,3.045822620E0,-2.344392538E0,-9.022038460E0
3.873685198E1,3.046184063E0,-2.345009089E0,-9.021756172E0
3.875712172E1,3.046229601E0,-2.345385313E0,-9.021643639E0
3.877739146E1,3.046419382E0,-2.346100807E0,-9.021392822E0
3.879766125E1,3.046488762E0,-2.346262455E0,-9.021327972E0
3.881793099E1,3.045411587E0,-2.346503019E0,-9.021628380E0
3.883820073E1,3.044698238E0,-2.347392797E0,-9.021637917E0
3.885847047E1,3.045958042E0,-2.347563505E0,-9.021168709E0
3.887874021E1,3.047176361E0,-2.348147154E0,-9.020604134E0
3.889900995E1,3.046633482E0,-2.350150347E0,-9.020265579E0
3.891927974E1,3.045660973E0,-2.350643873E0,-9.020465851E0
3.893954948E1,3.046299219E0,-2.351398706E0,-9.020053864E0
3.895993802E1,3.046406984E0,-2.352874279E0,-9.019632339E0
3.898008896E1,3.046030045E0,-2.354048252E0,-9.019453049E0
3.900035870E1,3.046258450E0,-2.354396582E0,-9.019286156E0
3.902062844E1,3.046977043E0,-2.354608297E0,-9.018987656E0
3.904089818E1,3.047959328E0,-2.354963541E0,-9.018563271E0
3.906129818E1,3.049166203E0,-2.355251551E0,-9.018079758E0
3.908143765E1,3.049914837E0,-2.355480671E0,-9.017766953E0
3.910170739E1,3.049724579E0,-2.355958223E0,-9.017706871E0
3.912197713E1,3.049633980E0,-2.356912851E0,-9.017487526E0
3.914224687E1,3.049869299E0,-2.357908010E0,-9.017148018E0
3.916264687E1,3.050462246E0,-2.358886480E0,-9.016691208E0
3.918278635E1,3.050953627E0,-2.359477997E0,-9.016370773E0
3.920305609E1,3.051142931E0,-2.360038757E0,-9.016160011E0
3.922332583E1,3.050791979E0,-2.360382795E0,-9.016188622E0
3.924359557E1,3.049771547E0,-2.360157013E0,-9.016592026E0
3.926399557E1,3.048258781E0,-2.359479666E0,-9.017281532E0
3.928413505E1,3.047890186E0,-2.358682394E0,-9.017614365E0
3.930440479E1,3.047983170E0,-2.357087374E0,-9.017999649E0
3.932467453E1,3.048019886E0,-2.355815172E0,-9.018320084E0
3.934494427E1,3.047997952E0,-2.354779959E0,-9.018597603E0
3.936534427E1,3.047801256E0,-2.354164124E0,-9.018825531E0
3.938548375E1,3.047554493E0,-2.353764057E0,-9.019013405E0
3.940575349E1,3.047102690E0,-2.353248358E0,-9.019300461E0
3.942602323E1,3.047037363E0,-2.352536917E0,-9.019507408E0
3.944629297E1,3.047198534E0,-2.351402044E0,-9.019749641E0
3.946656265E1,3.046845675E0,-2.350270987E0,-9.020162582E0
3.948683239E1,3.046685219E0,-2.349205732E0,-9.020495415E0
3.950710213E1,3.046420574E0,-2.348559380E0,-9.020752907E0
3.952737187E1,3.046498775E0,-2.347928047E0,-9.020890236E0
3.954764161E1,3.046864271E0,-2.347808361E0,-9.020798683E0
3.956791135E1,3.046008587E0,-2.346979856E0,-9.021302223E0
3.958818104E1,3.046122551E0,-2.346968889E0,-9.021267891E0
3.960845078E1,3.047105789E0,-2.346529007E0,-9.021049500E0
3.962872052E1,3.047139168E0,-2.345633030E0,-9.021271706E0
3.964899026E1,3.046411276E0,-2.345429420E0,-9.021570206E0
3.966926000E1,3.046782970E0,-2.344096422E0,-9.021791458E0
3.968952974E1,3.047606707E0,-2.343799829E0,-9.021590233E0
3.970979948E1,3.046608448E0,-2.344317913E0,-9.021792412E0
3.973006916E1,3.046250820E0,-2.344009638E0,-9.021993637E0
3.975033890E1,3.046467304E0,-2.343959808E0,-9.021933556E0
3.977060864E1,3.046341658E0,-2.343622208E0,-9.022063255E0
3.979087838E1,3.046537876E0,-2.342866182E0,-9.022193909E0
3.981114812E1,3.046891928E0,-2.342621088E0,-9.022137642E0
3.983141781E1,3.047328711E0,-2.341763020E0,-9.022212029E0
3.985168755E1,3.047278643E0,-2.341301441E0,-9.022349358E0
3.987195729E1,3.047654390E0,-2.341526747E0,-9.022164345E0
3.989222703E1,3.048124790E0,-2.341265678E0,-9.022072792E0
3.991249672E1,3.049041986E0,-2.341161966E0,-9.021789551E0
3.993276646E1,3.049838305E0,-2.340727091E0,-9.021634102E0
3.995303614E1,3.049906492E0,-2.339600325E0,-9.021903038E0
3.997330588E1,3.050069094E0,-2.339372158E0,-9.021906853E0
3.999357562E1,3.050419569E0,-2.339690208E0,-9.021706581E0
4.001384531E1,3.050131559E0,-2.339550495E0,-9.021840096E0
4.003411505E1,3.050080538E0,-2.338681698E0,-9.022082329E0
4.005438479E1,3.050141573E0,-2.339040041E0,-9.021968842E0
4.007465448E1,3.050497055E0,-2.339337587E0,-9.021771431E0
4.009492422E1,3.050985098E0,-2.339112520E0,-9.021664619E0
4.011519390E1,3.051590919E0,-2.338420391E0,-9.021638870E0
4.013546364E1,3.051904440E0,-2.338638783E0,-9.021476746E0
4.015573338E1,3.052191973E0,-2.339308500E0,-9.021205902E0
4.017600307E1,3.052579403E0,-2.340137005E0,-9.020859718E0
4.019627281E1,3.053509712E0,-2.341092110E0,-9.020297050E0
4.021654250E1,3.055043221E0,-2.342377424E0,-9.019442558E0
4.023681224E1,3.055433989E0,-2.343341351E0,-9.019061089E0
4.025708192E1,3.053989410E0,-2.344718695E0,-9.019192696E0
4.027735167E1,3.052763224E0,-2.345537663E0,-9.019393921E0
4.029762135E1,3.052327633E0,-2.345582962E0,-9.019530296E0
4.031789109E1,3.052330971E0,-2.346043110E0,-9.019409180E0
4.033816078E1,3.052915573E0,-2.347088099E0,-9.018939972E0
4.035843052E1,3.053872585E0,-2.348084450E0,-9.018356323E0
4.037870021E1,3.054320812E0,-2.349652767E0,-9.017796516E0
4.039896995E1,3.055050850E0,-2.351082087E0,-9.017176628E0
4.041923963E1,3.054784536E0,-2.351784468E0,-9.017083168E0
4.043950937E1,3.053876162E0,-2.352107525E0,-9.017306328E0
4.045990937E1,3.053949356E0,-2.352317572E0,-9.017228127E0
4.048004875E1,3.054832697E0,-2.352890491E0,-9.016777039E0
4.050031849E1,3.055586338E0,-2.353164196E0,-9.016451836E0
4.052058818E1,3.056580544E0,-2.353539944E0,-9.016016960E0
4.054085786E1,3.057274580E0,-2.354070663E0,-9.015642166E0
4.056125786E1,3.057396173E0,-2.354524851E0,-9.015482903E0
4.058139729E1,3.057720423E0,-2.354750156E0,-9.015315056E0
4.060166703E1,3.058286428E0,-2.355512857E0,-9.014922142E0
4.062193672E1,3.058915615E0,-2.355716228E0,-9.014656067E0
4.064220640E1,3.059975624E0,-2.355413914E0,-9.014375687E0
4.066260640E1,3.061382532E0,-2.355147123E0,-9.013966560E0
4.068274583E1,3.061946630E0,-2.354832649E0,-9.013857841E0
4.070301552E1,3.061193943E0,-2.354915142E0,-9.014091492E0
4.072328521E1,3.060596943E0,-2.355132341E0,-9.014238358E0
4.074355495E1,3.059551716E0,-2.355856895E0,-9.014402390E0
4.076395495E1,3.058867931E0,-2.356686831E0,-9.014417648E0
4.078409432E1,3.058901548E0,-2.356599331E0,-9.014430046E0
4.080436401E1,3.059244633E0,-2.356190920E0,-9.014419556E0
4.082463370E1,3.060070276E0,-2.355574131E0,-9.014302254E0
4.084490344E1,3.061008215E0,-2.355150700E0,-9.014093399E0
4.086517312E1,3.061942339E0,-2.354520082E0,-9.013940811E0
4.088544281E1,3.061815739E0,-2.355105639E0,-9.013830185E0
4.090571250E1,3.060937166E0,-2.355727434E0,-9.013967514E0
4.092598224E1,3.059895754E0,-2.355753183E0,-9.014313698E0
4.094625193E1,3.059424400E0,-2.355584145E0,-9.014517784E0
4.096652161E1,3.059473276E0,-2.355618715E0,-9.014492035E0
4.098679130E1,3.059351683E0,-2.354440451E0,-9.014842033E0
4.100706099E1,3.057273865E0,-2.353047848E0,-9.015909195E0
4.102733068E1,3.053651094E0,-2.352511406E0,-9.017277718E0
4.104760036E1,3.051063776E0,-2.354102373E0,-9.017737389E0
4.106787005E1,3.049577951E0,-2.355428457E0,-9.017893791E0
4.108813979E1,3.048893690E0,-2.356017113E0,-9.017971992E0
4.110840948E1,3.048810720E0,-2.356511354E0,-9.017870903E0
4.112867916E1,3.049070597E0,-2.356955528E0,-9.017667770E0
4.114894885E1,3.049150229E0,-2.357254744E0,-9.017561913E0
4.116921854E1,3.050826073E0,-2.359448433E0,-9.016421318E0
4.118948823E1,3.052535057E0,-2.360155344E0,-9.015658379E0
4.120975792E1,3.054055214E0,-2.360895395E0,-9.014948845E0
4.123002760E1,3.054827452E0,-2.362609863E0,-9.014238358E0
4.125029729E1,3.054657221E0,-2.363752365E0,-9.013996124E0
4.127056698E1,3.053973675E0,-2.364484787E0,-9.014035225E0
4.129083666E1,3.053200245E0,-2.364578962E0,-9.014273643E0
4.131110630E1,3.053115845E0,-2.365515232E0,-9.014056206E0
4.133137604E1,3.052029371E0,-2.366746664E0,-9.014101028E0
4.135164573E1,3.051083803E0,-2.367914915E0,-9.014114380E0
4.137191542E1,3.051179647E0,-2.369184971E0,-9.013748169E0
4.139218510E1,3.051513195E0,-2.369833231E0,-9.013464928E0
4.141245479E1,3.052465677E0,-2.369885921E0,-9.013128281E0
4.143272448E1,3.053558588E0,-2.370254278E0,-9.012660980E0
4.145299416E1,3.054969311E0,-2.370280266E0,-9.012176514E0
4.147326385E1,3.056996346E0,-2.369629383E0,-9.011660576E0
4.149353354E1,3.059264898E0,-2.369291067E0,-9.010979652E0
4.151380323E1,3.061193705E0,-2.369719982E0,-9.010210991E0
4.153407286E1,3.062715292E0,-2.370341778E0,-9.009531021E0
4.155434255E1,3.062898874E0,-2.370332479E0,-9.009470940E0
4.157461224E1,3.062331915E0,-2.370227098E0,-9.009690285E0
4.159488192E1,3.061361313E0,-2.370147943E0,-9.010042191E0
4.161515161E1,3.059780121E0,-2.370211840E0,-9.010561943E0
4.163542130E1,3.058096886E0,-2.370764256E0,-9.010988235E0
4.165569094E1,3.056265354E0,-2.371499300E0,-9.011415482E0
4.167596062E1,3.054770708E0,-2.372275352E0,-9.011718750E0
4.169623031E1,3.054625034E0,-2.372051477E0,-9.011827469E0
4.171650000E1,3.055298805E0,-2.373148680E0,-9.011309624E0
4.173676969E1,3.055961847E0,-2.373640299E0,-9.010955811E0
4.175703932E1,3.056582689E0,-2.373554707E0,-9.010766983E0
4.177730901E1,3.057640791E0,-2.373719454E0,-9.010364532E0
4.179757870E1,3.059096575E0,-2.374377012E0,-9.009696960E0
4.181784838E1,3.060936213E0,-2.374695301E0,-9.008988380E0
4.183811797E1,3.061539412E0,-2.374389887E0,-9.008864403E0
4.185838771E1,3.061215401E0,-2.374584675E0,-9.008922577E0
4.187865739E1,3.060909033E0,-2.374867439E0,-9.008952141E0
4.189892703E1,3.060895681E0,-2.375746965E0,-9.008725166E0
4.191919672E1,3.060955048E0,-2.376087427E0,-9.008615494E0
4.193946640E1,3.060450554E0,-2.375904322E0,-9.008834839E0
4.195977547E1,3.059318781E0,-2.376801252E0,-9.008982658E0
4.198000583E1,3.058792114E0,-2.377478361E0,-9.008983612E0
4.200027547E1,3.057805538E0,-2.377941132E0,-9.009196281E0
4.202054515E1,3.056744337E0,-2.377562761E0,-9.009655952E0
4.204081474E1,3.055752039E0,-2.376620531E0,-9.010240555E0
4.206121474E1,3.056065798E0,-2.376438856E0,-9.010182381E0
