"Time (s)","Gyroscope x (rad/s)","Gyroscope y (rad/s)","Gyroscope z (rad/s)"
4.629361500E-2,-2.711096108E-1,-1.744369268E-1,-2.227732539E-1
6.656418700E-2,-3.781685829E-1,-2.495380044E-1,-3.676491082E-1
8.683481200E-2,-3.440801501E-1,-3.028011918E-1,-5.482112765E-1
1.071055420E-1,-3.344927728E-1,-4.215780795E-1,-7.147918940E-1
1.273762190E-1,-4.403533638E-1,-5.508744717E-1,-9.448888302E-1
1.476469480E-1,-6.177197695E-1,-7.346324325E-1,-1.175385237E0
1.679176770E-1,-7.503450513E-1,-9.098683000E-1,-1.275520086E0
1.881884060E-1,-8.153261542E-1,-1.037566781E0,-1.320261121E0
2.084591350E-1,-9.749825597E-1,-1.470596433E0,-1.442766428E0
2.287299170E-1,-1.107607841E0,-1.876861334E0,-1.605219126E0
2.490006980E-1,-8.435556293E-1,-1.913080335E0,-1.688709140E0
2.692714270E-1,-2.812296152E-1,-1.687244415E0,-1.808018684E0
2.895422080E-1,2.130527236E-2,-1.671798110E0,-1.934785128E0
3.098129900E-1,-7.243792713E-2,-1.909351945E0,-2.083389282E0
3.300837190E-1,-3.382211924E-1,-1.862480283E0,-2.242513180E0
3.503545000E-1,-6.113281846E-1,-1.467400670E0,-2.414020538E0
3.706252810E-1,-9.819067717E-1,-1.423192263E0,-2.445978403E0
3.908960100E-1,-1.557548642E0,-1.359809041E0,-2.351702690E0
4.111667920E-1,-1.997502446E0,-7.330345511E-1,-2.437988997E0
4.314375730E-1,-2.183257818E0,-1.083905771E-1,-2.628138542E0
4.518375730E-1,-1.784982443E0,8.500803709E-1,-2.876744509E0
4.719791350E-1,-8.153261542E-1,9.102677703E-1,-2.747847557E0
4.922498650E-1,1.569932252E-1,3.755054250E-2,-2.194043636E0
5.125206460E-1,9.227846265E-1,-5.033370852E-2,-1.767538667E0
5.327914270E-1,1.240632653E0,-1.430116445E-1,-1.621730685E0
5.530621560E-1,9.925593734E-1,-6.105292439E-1,-1.485909581E0
5.733329370E-1,6.235787272E-1,-4.917523265E-1,-1.503486514E0
5.936036670E-1,3.141196072E-1,-8.335687965E-2,-1.458745360E0
6.138744480E-1,1.862879843E-1,3.101248741E-1,-1.362871647E0
6.341451770E-1,2.123869359E-1,3.532680571E-1,-1.276052713E0
6.544159580E-1,2.507364154E-1,1.151816323E-1,-1.078579426E0
6.746866870E-1,2.992059290E-1,1.279647946E-1,-7.414234877E-1
6.949574690E-1,4.036017656E-1,3.063964546E-1,-4.054659605E-1
7.152281980E-1,5.953491926E-1,3.969438672E-1,-2.089248300E-1
7.354989270E-1,9.803088903E-1,5.189165473E-1,-2.392848432E-1
7.558989270E-1,1.555950761E0,1.998700947E-1,-5.322323442E-1
7.760404370E-1,2.198171616E0,-4.954807460E-1,-9.454214573E-1
7.963111670E-1,2.462223768E0,-1.332644820E0,-1.341566443E0
8.165818960E-1,2.202965260E0,-1.574326515E0,-1.639840245E0
8.368526250E-1,2.031990290E0,-3.198454082E-1,-1.951296687E0
8.572526250E-1,1.720001340E0,4.613923132E-1,-2.090313673E0
8.773941350E-1,1.063399434E0,-3.075948656E-1,-1.884185076E0
8.976648650E-1,4.446144104E-1,-7.484808564E-1,-1.589240193E0
9.179355940E-1,-6.231792271E-2,-5.290365815E-1,-1.226517916E0
9.383355940E-1,-4.142543972E-1,-2.436790615E-1,-8.298403621E-1
9.586349690E-1,-7.162566185E-1,-8.134619594E-1,-4.150533378E-1
9.787483540E-1,-9.250482917E-1,-1.139832139E0,-9.281109273E-2
9.990189790E-1,-9.202546477E-1,-6.520745158E-1,-2.476738021E-2
1.019289604E0,-1.144359469E0,5.961481929E-1,-5.652555227E-1
1.039560229E0,-1.125184774E0,1.123853087E0,-8.538088202E-1
1.059830854E0,-6.363618970E-1,1.016794205E0,-6.695181727E-1
1.080101531E0,-6.688523889E-1,5.237102509E-1,-5.609944463E-1
1.100372208E0,-1.003744721E0,-2.735064328E-1,-6.471476555E-1
1.120642885E0,-9.005472660E-1,-8.310387731E-1,-5.476786494E-1
1.140913615E0,-7.194524407E-1,-1.468465924E0,-5.588639379E-1
1.161184292E0,-4.398207366E-1,-1.754888654E0,-9.022783041E-1
1.181455021E0,1.713742912E-1,-1.046088934E0,-1.608414888E0
1.201725698E0,1.980058849E-1,-3.880222738E-1,-1.416134834E0
1.221996427E0,1.751027107E-1,-5.364934206E-1,-1.374589562E0
1.242267052E0,6.711161137E-2,-3.070622385E-1,-1.330913782E0
1.262537781E0,8.681898564E-2,-5.641902685E-1,-1.304282188E0
1.282808458E0,-7.084003091E-2,-1.087634206E0,-1.189766288E0
1.303079187E0,-1.715074480E-1,-1.087101579E0,-1.011467814E0
1.323349865E0,-2.311622053E-1,-4.189149141E-1,-9.006804228E-1
1.343620542E0,-4.531365335E-1,-9.045419693E-1,-1.029044628E0
1.363891271E0,-3.270359337E-1,-1.056208849E0,-1.194560051E0
1.384161948E0,-1.075916290E-1,-9.986846447E-1,-1.157808423E0
1.404432625E0,8.255793154E-2,-1.100950003E0,-1.322924256E0
1.424703354E0,4.020038545E-1,-1.820402384E0,-1.698296547E0
1.444974031E0,3.700459599E-1,-2.161686182E0,-2.147305250E0
1.465244708E0,4.691154659E-1,-2.064747334E0,-2.307494164E0
1.485515385E0,6.400902867E-1,-8.592683077E-1,-2.267014265E0
1.505786062E0,9.105340838E-1,5.157207847E-1,-2.455033302E0
1.526056740E0,7.827024460E-1,1.175385237E0,-2.465153217E0
1.546327417E0,1.097221524E-1,-1.765008688E0,-1.598827600E0
1.566598094E0,-1.810948178E-2,-1.229846835E0,-1.025848866E0
1.586868823E0,-4.739091694E-1,-2.149169445E-1,-8.042740226E-1
1.607139448E0,-9.419593811E-1,7.014760971E-1,-3.756386042E-1
1.627410125E0,-1.249820590E0,4.001396596E-1,-1.023984700E-1
1.647680802E0,-1.223188996E0,9.837709665E-1,-5.455481410E-1
1.667951479E0,-9.989509583E-1,4.310323000E-1,-8.223835230E-1
1.688222156E0,-5.309007764E-1,3.255712092E-1,-7.467498183E-1
1.708492833E0,-6.869618893E-1,1.123320460E0,-5.173186660E-1
1.728763458E0,-1.011734128E0,1.604553312E-1,3.169159219E-2
1.749034135E0,-9.346356988E-1,-2.036118269E0,7.820366621E-1
1.769304812E0,-7.199850678E-1,-2.346509457E0,4.620580971E-1
1.789575437E0,1.756353378E-1,-3.240531921E0,-6.402234435E-1
1.809846115E0,1.034637332E0,-3.036667109E0,-1.023185730E0
1.830116792E0,1.164066792E0,-2.892323971E0,-9.262467623E-1
1.850387417E0,6.086649895E-1,-3.113898754E0,-9.337036014E-1
1.870658094E0,3.130543530E-1,-3.889144421E0,-9.001477957E-1
1.890928719E0,3.130543530E-1,-4.177298069E0,-7.733814120E-1
1.911199396E0,2.933469713E-1,-3.282077312E0,-3.948133290E-1
1.931470021E0,-1.597895520E-3,-2.793787003E0,1.179779470E-1
1.951740646E0,-1.555284858E-1,-2.698446035E0,5.524723530E-1
1.972011323E0,-1.597895473E-2,-2.577139139E0,7.090660930E-1
1.992281948E0,7.989477366E-3,-2.755437613E0,6.233124137E-1
2.012552573E0,-1.672463864E-1,-2.816157579E0,5.641902685E-1
2.032823250E0,-2.652506530E-1,-2.755437613E0,6.520745158E-1
2.053093875E0,-1.315600574E-1,-2.999382973E0,8.598009348E-1
2.073364500E0,-4.314317927E-2,-3.312969923E0,9.972199202E-1
2.093635125E0,-3.036001325E-2,-2.973816633E0,1.031308413E0
2.113905750E0,-7.403582335E-2,-2.095107317E0,9.652619958E-1
2.134176427E0,-1.246358454E-1,-1.571130753E0,9.823062420E-1
2.154447052E0,-6.924213469E-2,-1.632383347E0,1.011068344E0
2.174717677E0,5.326318205E-4,-1.708549738E0,9.918935895E-1
2.194988302E0,4.687159881E-2,-1.692038178E0,1.028645158E0
2.215258927E0,3.285006881E-1,-1.681918144E0,9.732515216E-1
2.235529552E0,1.068725705E0,-1.752225518E0,5.956155062E-1
2.255929552E0,1.729056001E0,-2.139315605E0,1.707084924E-1
2.276070802E0,2.194442987E0,-2.736795425E0,7.590003312E-2
2.296341427E0,2.488855362E0,-3.064896584E0,9.853689000E-3
2.316612052E0,2.697647095E0,-2.519614935E0,-2.547311783E-1
2.336882677E0,2.536259651E0,-1.727724433E0,-3.814975321E-1
2.357282677E0,2.425472260E0,-1.861415029E0,-3.671164811E-1
2.377423927E0,2.445179462E0,-2.645715475E0,-5.885581374E-1
2.397694500E0,2.239184141E0,-2.796982765E0,-8.591351509E-1
2.417965125E0,1.820002913E0,-2.167545080E0,-9.443562031E-1
2.438235750E0,1.525058031E0,-1.727191806E0,-9.677920341E-1
2.458635750E0,1.565005422E0,-1.591903329E0,-1.020522594E0
2.478777000E0,1.592702270E0,-1.398158550E0,-8.245140314E-1
2.499047573E0,1.405215859E0,-8.400935531E-1,-3.814975321E-1
2.519318198E0,1.173654199E0,-5.407544374E-1,-3.595264629E-2
2.539588823E0,1.043691993E0,-6.350302696E-1,4.767054692E-2
2.559988823E0,9.488835931E-1,-6.115944982E-1,-1.198421605E-2
2.580130021E0,8.498140574E-1,-3.683148921E-1,-1.300953180E-1
2.600400646E0,8.343677521E-1,-2.495380044E-1,-3.591270149E-1
2.620671271E0,9.424920082E-1,-2.623211741E-1,-5.842971206E-1
2.640941896E0,1.131043673E0,-1.259674281E-1,-6.508761048E-1
2.661212469E0,1.225186348E0,-7.643266767E-2,-6.327666044E-1
2.681483094E0,1.259807467E0,-3.912180662E-1,-6.838992834E-1
2.701753719E0,1.085237384E0,-5.503418446E-1,-7.158571482E-1
2.722024292E0,4.733765423E-1,-5.885581672E-2,-6.439518929E-1
2.742294917E0,-2.711096108E-1,4.304996729E-1,-4.368912578E-1
2.762565542E0,-4.589954615E-1,4.310323000E-1,-4.395544231E-1
2.782836167E0,-3.142527640E-1,-2.476738021E-2,-5.439502597E-1
2.803106792E0,-5.858949944E-2,-3.432812095E-1,-5.380913019E-1
2.823377365E0,9.640636295E-2,-4.274370372E-1,-6.530066133E-1
2.843647990E0,5.645897239E-2,-3.267696202E-1,-7.621961236E-1
2.863918615E0,2.663159184E-2,-2.031990439E-1,-5.795034170E-1
2.884189240E0,9.853688627E-2,-2.841590643E-1,-2.291648388E-1
2.904459865E0,1.585911214E-1,-3.832286000E-1,-9.121319652E-2
2.924730490E0,-6.285055727E-2,-3.001380265E-1,-8.588688076E-2
2.945001115E0,-2.721748650E-1,-5.672528967E-2,2.665822208E-1
2.965271740E0,-2.769685388E-1,3.169159219E-2,5.253081322E-1
2.985542365E0,-1.597895473E-2,-3.701791167E-2,1.478053331E-1
3.005812990E0,8.522108942E-2,-2.181127369E-1,-2.131858915E-1
3.026083615E0,1.597895473E-2,-4.949481189E-1,6.737792492E-2
3.046354240E0,-1.491369121E-2,-6.222470999E-1,6.131923795E-1
3.066624865E0,8.202529699E-2,-4.645881057E-1,1.098819494E0
3.086895490E0,9.906952083E-2,-1.440769136E-1,8.416914344E-1
3.107166167E0,2.343579940E-2,-2.841590643E-1,8.635293245E-1
3.127436792E0,-2.609895915E-2,-5.024049878E-1,1.210139513E0
3.147707417E0,5.326318089E-3,-4.306328297E-1,1.407745957E0
3.167978042E0,-3.036001325E-2,4.805670679E-1,1.430116415E0
3.188248667E0,-3.627222776E-1,4.496744275E-1,1.394430161E0
3.208519292E0,-5.117260218E-1,5.247755051E-1,1.663276076E0
3.228789917E0,-6.097303033E-1,3.916175365E-1,1.953027725E0
3.249060594E0,-4.739091694E-1,5.332975984E-1,1.707484484E0
3.269331219E0,-5.996102691E-1,5.833650231E-1,1.455682755E0
3.289601844E0,-6.331660748E-1,5.139897019E-2,1.238901615E0
3.309872469E0,-4.515386224E-1,-2.442116886E-1,9.562072754E-1
3.330143146E0,-1.597895473E-2,-5.807018280E-1,7.026745081E-1
3.350413771E0,2.794985473E-1,-1.784716129E0,5.498092175E-1
3.370684396E0,-2.034653574E-1,-6.169208288E-1,5.189165473E-1
3.390955073E0,-9.250482917E-1,1.322258562E-1,5.711144805E-1
3.411225698E0,-1.277517438E0,2.398174703E-1,6.206492186E-1
3.431496375E0,-1.249287963E0,6.897582114E-2,5.892239809E-1
3.451767000E0,-8.371640444E-1,-3.816306889E-1,3.560643792E-1
3.472037625E0,-2.514022291E-1,-7.351650596E-1,6.258423626E-2
3.492308302E0,7.669898123E-2,-3.981422782E-1,-2.989396155E-1
3.512578927E0,3.498059511E-1,-2.639190555E-1,-7.078676820E-1
3.532849604E0,4.723112583E-1,-2.093509436E0,-8.154593110E-1
3.553120229E0,7.672561407E-1,-2.511092663E0,-5.396891832E-1
3.573390906E0,1.084172130E0,-2.649443865E0,3.289001584E-1
3.593661531E0,1.235839009E0,-2.830538750E0,5.311670899E-1
3.613932208E0,7.619298100E-1,-2.067943096E0,3.949464858E-1
3.634202833E0,3.636543751E-1,-1.472194314E0,4.561991692E-1
3.654473510E0,3.977428079E-1,-1.076981544E0,4.439486265E-1
3.674744135E0,-1.017326787E-1,-2.649843395E-1,1.637842804E-1
3.695014812E0,-2.221074700E-1,-3.965443969E-1,2.074600905E-1
3.715285437E0,-2.130527236E-2,-7.532745600E-1,9.933583438E-2
3.735556115E0,-4.793686420E-2,-5.679186583E-1,2.133190483E-1
3.755956115E0,6.498108059E-2,-8.134619594E-1,1.089232042E-1
3.776097417E0,2.396843210E-2,-3.960117698E-1,-1.322258562E-1
3.796368094E0,-1.241032109E-1,1.364869028E-1,-1.071921512E-1
3.816638719E0,8.575372398E-2,-3.976096511E-1,1.786979735E-1
3.836909396E0,4.861596823E-1,-8.305061460E-1,3.880222738E-1
3.857309396E0,5.351617932E-1,-8.081356287E-1,4.604602158E-1
3.877450698E0,3.870901763E-1,-8.384956717E-1,4.727107286E-1
3.897721323E0,3.492733240E-1,-6.643250585E-1,3.203780353E-1
3.917992000E0,1.958753467E-1,-6.057355404E-1,2.037316710E-1
3.938392000E0,1.331579592E-2,-1.437040687E0,8.619314432E-1
3.958691271E0,-2.822948620E-2,-1.632383347E0,1.035968900E0
3.978804552E0,-1.448758543E-1,-8.230493069E-1,1.062067866E0
3.999075125E0,-1.763011366E-1,-2.756369710E-1,1.020655751E0
4.019345646E0,-1.416800618E-1,-3.438138366E-1,1.137168884E0
4.039616219E0,-7.243792713E-2,-3.720433414E-1,1.257543683E0
4.059886844E0,-1.581916511E-1,-8.388951421E-2,1.342232227E0
4.080157417E0,-2.993390858E-1,2.680469751E-1,1.181377411E0
4.100428042E0,-4.691154659E-1,5.508744717E-1,9.620662332E-1
4.120698719E0,-3.222422600E-1,9.187898785E-2,8.342345953E-1
4.140969344E0,-5.858949944E-2,-4.842954874E-1,8.086682558E-1
4.161200646E0,3.142527863E-2,-4.954807460E-1,8.555398583E-1
4.181510542E0,7.084003091E-2,-3.795001805E-1,8.326367140E-1
4.201781219E0,-0.000000000E0,1.066595241E-1,9.237167239E-1
4.222051896E0,1.868206114E-1,4.394212365E-2,6.755102873E-1
4.242322521E0,1.974732429E-1,-5.885581672E-2,5.050681233E-1
4.262593198E0,2.070606202E-1,9.920267761E-2,5.498092175E-1
4.282863823E0,3.940143883E-1,1.993374527E-1,5.998765826E-1
4.303134500E0,6.587324142E-1,-8.388951421E-2,5.828323960E-1
4.323405177E0,7.001445293E-1,-9.294424951E-2,7.133271694E-1
4.343675802E0,5.367597342E-1,1.370195299E-1,1.021188378E0
4.363946427E0,6.001428962E-1,3.468764722E-1,1.049284697E0
4.384217104E0,4.941491783E-1,6.578002870E-2,9.743167758E-1
4.404487781E0,3.918838501E-1,6.737792492E-2,6.845650673E-1
4.424758458E0,3.684480488E-1,4.209122956E-1,6.163882017E-1
4.445158458E0,3.439469934E-1,5.199818015E-1,8.384956717E-1
4.465299760E0,1.820269227E-1,2.291648388E-1,9.322388172E-1
4.485570385E0,9.640636295E-2,7.169224024E-1,7.554050684E-1
4.505841062E0,-2.668485343E-1,7.456845641E-1,6.099966168E-1
4.526111687E0,-6.086649895E-1,3.303648829E-1,6.435524225E-1
4.546382365E0,-7.141261101E-1,2.217079997E-1,5.423523784E-1
4.566652990E0,-8.174566627E-1,1.663142890E-1,3.523359597E-1
4.586923667E0,-7.727156281E-1,4.858933687E-1,-2.530001104E-2
4.607194292E0,-5.889576077E-1,1.168061614E0,-3.916175365E-1
4.627464969E0,-2.066611499E-1,1.677657127E0,-6.945518851E-1
4.647735594E0,2.416816950E-1,1.617469668E0,-1.111070037E0
4.668006271E0,1.474058628E-1,8.138614297E-1,-1.240366340E0
4.688276948E0,1.500690132E-1,4.320975542E-1,-6.093307734E-1
4.708547573E0,2.155827284E-1,2.739059031E-1,-1.677790284E-2
4.728818250E0,-3.355580568E-2,6.205160543E-2,2.663159103E-4
4.749088875E0,-8.468846232E-2,2.103895694E-2,7.803056389E-2
4.769359500E0,-3.195790946E-2,1.145158429E-2,3.861580789E-2
4.789630177E0,-0.000000000E0,-3.701791167E-2,-2.423474751E-2
4.809900802E0,1.118526794E-2,1.663142890E-1,-6.298371404E-2
4.830171479E0,-9.374319762E-2,3.538006842E-1,6.311687082E-2
4.850442104E0,-1.038632020E-1,3.458112180E-1,3.448790908E-1
4.870712729E0,-7.616634667E-2,2.685796022E-1,4.242412448E-1
4.890983406E0,-3.994738683E-2,7.190529723E-3,3.672496378E-1
4.911254031E0,-1.022653133E-1,-5.008070469E-1,3.219759464E-1
4.931524656E0,-1.629853398E-1,-8.411588073E-1,3.422159553E-1
4.951924656E0,-5.326318089E-3,-1.097221494E0,2.937464416E-1
4.972065958E0,4.154528305E-2,-1.339568973E0,2.623211741E-1
4.992336583E0,1.970737800E-2,-1.024250984E0,4.087949097E-1
5.012607260E0,1.383511126E-1,-7.692534924E-1,6.882934570E-1
5.032877885E0,9.054741263E-2,-6.845650673E-1,8.161250949E-1
5.053148510E0,2.273006290E-1,-8.816388249E-1,1.043958426E0
5.073419135E0,1.964079887E-1,-8.741819859E-1,1.524392247E0
5.093689812E0,3.487406969E-1,-2.617885470E-1,9.279778004E-1
5.113960437E0,4.840291739E-1,3.250385821E-1,5.098618269E-1
5.134231062E0,-6.338318437E-2,-1.142495275E-1,3.097254038E-1
5.154501687E0,-4.206459820E-1,-1.035968885E-1,1.137168929E-1
5.174772365E0,-3.605917394E-1,3.595264629E-2,5.992107838E-2
5.195042990E0,-1.560611278E-1,5.040028691E-1,6.791055948E-2
5.215313615E0,-1.880190372E-1,8.623309135E-1,7.376950979E-2
5.235584240E0,-4.281028211E-1,1.133973122E0,1.035968885E-1
5.255984240E0,-5.223786831E-1,1.245692611E0,3.648528084E-2
5.276125490E0,-3.776359558E-1,8.825709224E-1,9.321057238E-3
5.296396115E0,-1.922800839E-1,3.250385821E-1,-5.499423668E-2
5.316666740E0,-1.278316416E-2,1.464737486E-2,-1.284974217E-1
5.336937365E0,2.235722095E-1,-1.573926955E-1,-3.149185777E-1
5.357337365E0,2.470080107E-1,-3.518033028E-1,-4.225101769E-1
5.377478905E0,1.516669095E-1,-4.518049359E-1,-6.082655191E-1
5.397749009E0,2.422143221E-1,-4.725775719E-1,-6.231792569E-1
5.418019634E0,8.149266988E-2,9.922930598E-1,-4.699144363E-1
5.438290259E0,-8.362319320E-2,2.049833536E0,-1.673795432E-1
5.458690259E0,2.081258893E-1,1.082574204E-1,-6.404897571E-2
5.478831456E0,-1.608548164E-1,-3.795001805E-1,-2.210422046E-2
5.499102081E0,-2.263685167E-1,-1.099884734E-1,-3.111901283E-1
5.519372706E0,6.444845349E-2,-8.388951421E-2,-2.339585274E-1
5.539643331E0,1.129179448E-1,1.198421605E-2,-5.073318258E-2
5.560043331E0,-1.486042738E-1,2.035985142E-1,-6.657897960E-3
5.580184581E0,-6.870950758E-2,1.327584833E-1,-9.494162351E-2
5.600455154E0,1.617869139E-1,8.016108721E-2,-7.257108390E-2
5.620725779E0,-6.241113544E-1,5.961481929E-1,3.462106921E-3
5.640996404E0,-1.890842915E-1,-1.270326823E-1,-4.913528636E-2
5.661267029E0,1.431448013E-1,-5.033370852E-2,4.820318148E-2
5.681537602E0,-4.261054471E-2,8.442214131E-2,-4.021370411E-2
5.701808227E0,-1.118526794E-2,1.396826953E-1,-3.648528084E-2
5.722078800E0,-1.864211448E-2,6.205160543E-2,1.198421605E-2
5.742349425E0,-2.130527236E-2,5.406212807E-2,2.743053809E-2
5.762619998E0,-3.621896356E-2,6.098634377E-2,1.784316637E-2
5.782890623E0,-2.609895915E-2,6.950845569E-2,8.788425475E-3
5.803161248E0,-1.651158556E-2,3.275685757E-2,1.837579720E-2
5.823431821E0,1.065263641E-3,3.701791167E-2,2.423474751E-2
5.843702446E0,-4.793686327E-3,3.435475379E-2,1.837579720E-2
5.863973019E0,5.326318089E-3,9.400951862E-2,7.723161485E-3
5.884243644E0,-1.597895473E-2,2.103895694E-2,7.989477599E-4
5.904514217E0,-1.384842768E-2,-1.518000662E-2,-7.989477599E-4
5.924784790E0,-1.597895473E-2,4.500738904E-2,-1.864211401E-3
5.945055415E0,-2.716422267E-2,4.234423116E-2,8.255792782E-3
5.965325988E0,-1.810948178E-2,7.004108280E-2,2.743053809E-2
5.985596561E0,-1.704421826E-2,5.885581672E-2,3.861580789E-2
6.005867186E0,-1.118526794E-2,3.382211924E-2,3.328948840E-2
6.026137759E0,-5.326318205E-4,2.530001104E-2,2.743053809E-2
6.046408331E0,5.858949851E-3,1.464737486E-2,3.169159219E-2
6.066678904E0,6.924213842E-3,7.723161485E-3,4.554001987E-2
6.086949529E0,-0.000000000E0,1.677790284E-2,5.672528967E-2
6.107220102E0,-1.917474531E-2,2.796317078E-2,7.590003312E-2
6.127490675E0,-3.142527863E-2,2.636527456E-2,9.134636074E-2
6.147761248E0,-4.474107176E-2,2.050632425E-2,8.442214131E-2
6.168031821E0,-5.379581451E-2,-1.251684781E-2,5.992107838E-2
6.188302394E0,-6.498108059E-2,-3.914843872E-2,3.755054250E-2
6.208572967E0,-8.042740822E-2,-6.578002870E-2,1.624527015E-2
6.228843540E0,-1.283642650E-1,-3.009369783E-2,1.038632076E-2
6.249114113E0,-1.624527127E-1,1.837579720E-2,-1.198421605E-2
6.269384686E0,-1.842906028E-1,5.566002429E-2,-3.542001545E-2
6.289655259E0,-2.034653574E-1,6.418213248E-2,-6.990792602E-2
6.309925831E0,-2.050632536E-1,6.737792492E-2,-1.119858399E-1
6.330196404E0,-2.141179889E-1,8.868319541E-2,-1.545963883E-1
6.350466977E0,-2.327601016E-1,1.050616279E-1,-1.727058738E-1
6.370737550E0,-2.561959028E-1,7.856319100E-2,-1.604553312E-1
6.391008123E0,-2.854906619E-1,8.868319541E-2,-1.396826953E-1
6.411278644E0,-2.956106663E-1,7.376950979E-2,-1.066595241E-1
6.431549217E0,-2.956106663E-1,2.902843431E-2,-8.641951531E-2
6.451819790E0,-2.801643312E-1,4.660528526E-2,-6.191844866E-2
6.472090311E0,-2.466085255E-1,6.258423626E-2,-1.944106072E-2
6.492360884E0,-2.141179889E-1,4.127896577E-2,5.512739345E-2
6.512631456E0,-1.912148297E-1,-1.997369342E-2,1.451421678E-1
6.532902029E0,-1.864211410E-1,-8.442214131E-2,2.106558830E-1
6.553172550E0,-1.571263820E-1,-5.246423557E-2,2.229064107E-1
6.573443123E0,-1.033305749E-1,8.255792782E-3,1.877527237E-1
6.593713644E0,-7.137266546E-2,3.861580789E-2,1.818937659E-1
6.613984217E0,-7.456845790E-2,5.033370852E-2,2.069274634E-1
6.634254738E0,-7.829687744E-2,4.181159660E-2,2.250369489E-1
6.654485884E0,-6.870950758E-2,4.021370411E-2,2.016011477E-1
6.674795779E0,-3.834949061E-2,2.210422046E-2,1.366200596E-1
6.695066352E0,-1.118526794E-2,4.607265070E-2,5.885581672E-2
6.715336873E0,2.609895915E-2,6.844318658E-2,3.275685757E-2
6.735607394E0,7.190529257E-2,-2.396843163E-3,3.542001545E-2
6.756007394E0,1.219726875E-1,-3.861580789E-2,2.743053809E-2
6.776148488E0,1.272990108E-1,-1.464737486E-2,-7.190529723E-3
6.796419009E0,9.161267430E-2,-3.115896136E-2,-4.807002097E-2
6.816689529E0,5.219791830E-2,-6.524740160E-2,-6.404897571E-2
6.836960102E0,3.834949061E-2,-7.004108280E-2,-6.511423737E-2
6.857360102E0,4.580633715E-2,-4.820318148E-2,-5.339634046E-2
6.877501196E0,4.633896798E-2,-4.500738904E-2,-3.595264629E-2
6.897771665E0,4.527370632E-2,-4.181159660E-2,-1.304947957E-2
6.918042238E0,4.580633715E-2,-3.861580789E-2,9.853689000E-3
6.938442238E0,3.515370190E-2,-4.767054692E-2,2.743053809E-2
6.958741248E0,1.810948178E-2,-4.873581231E-2,4.394212365E-2
6.978854425E0,-1.597895520E-3,-2.530001104E-2,5.299686641E-2
6.999124842E0,-1.970737800E-2,-2.929474926E-3,4.873581231E-2
7.019395259E0,-2.663159184E-2,4.527370445E-3,3.115896136E-2
7.039665675E0,-1.384842768E-2,1.411474310E-2,1.145158429E-2
7.059936092E0,6.924213842E-3,3.062633052E-2,-7.989477599E-4
7.080206561E0,1.065263618E-2,3.595264629E-2,-6.125265732E-3
7.100477029E0,5.326318205E-4,3.382211924E-2,-1.145158429E-2
7.120747550E0,-7.989477366E-3,3.488738462E-2,-2.316948399E-2
7.141018071E0,-5.326318089E-3,3.914843872E-2,-2.583264373E-2
7.161288592E0,-5.326318205E-4,3.115896136E-2,-1.997369342E-2
7.181559061E0,5.326318205E-4,2.423474751E-2,-7.190529723E-3
7.201829477E0,-7.456845604E-3,9.853689000E-3,4.527370445E-3
7.222100050E0,-1.438105945E-2,2.929474926E-3,1.944106072E-2
7.242370519E0,-1.970737800E-2,-5.060002208E-3,3.169159219E-2
7.262640988E0,-1.597895473E-2,-2.210422046E-2,4.500738904E-2
7.282911509E0,-1.171789970E-2,-1.997369342E-2,5.459476262E-2
7.303181977E0,-7.456845604E-3,-1.784316637E-2,6.418213248E-2
7.323452498E0,-6.924213842E-3,-2.157158963E-2,7.483477145E-2
7.343723019E0,-3.195791040E-3,-2.210422046E-2,8.335687965E-2
7.363993488E0,1.065263641E-3,-3.115896136E-2,8.868319541E-2
7.384264009E0,-5.326318089E-3,-3.914843872E-2,8.921582997E-2
7.404534477E0,-1.864211448E-2,-4.607265070E-2,8.175898343E-2
7.424804998E0,-1.384842768E-2,-3.488738462E-2,7.217161357E-2
7.445075467E0,-1.438105945E-2,-1.864211401E-3,6.631266326E-2
7.465345988E0,-1.491369121E-2,8.788425475E-3,5.139897019E-2
7.485616456E0,-1.597895520E-3,3.462106921E-3,4.074633494E-2
7.505886977E0,1.065263618E-2,1.571263932E-2,4.021370411E-2
7.526157446E0,6.924213842E-3,7.723161485E-3,4.873581231E-2
7.546427915E0,-0.000000000E0,-1.571263932E-2,5.512739345E-2
7.566698436E0,-7.456845604E-3,-3.115896136E-2,6.151897460E-2
7.586968904E0,-9.587372653E-3,-3.808317333E-2,6.897582114E-2
7.607239373E0,-1.171789970E-2,-4.287686199E-2,7.749792933E-2
7.627509894E0,-1.331579592E-2,-5.779055133E-2,8.282424510E-2
7.647780363E0,-1.970737800E-2,-7.163897902E-2,9.028109163E-2
7.668050831E0,-2.929474972E-2,-8.655267209E-2,9.454214573E-2
7.688321300E0,-2.396843210E-2,-9.933583438E-2,9.241162241E-2
7.708591821E0,-2.450106293E-2,-1.067926809E-1,8.442214131E-2
7.728862290E0,-2.982738242E-2,-9.400951862E-2,6.098634377E-2
7.749132759E0,-3.568633273E-2,-8.388951421E-2,4.181159660E-2
7.769403227E0,-6.072002649E-2,-1.259674281E-1,3.542001545E-2
7.789673696E0,-1.262337416E-1,-2.340916842E-1,4.607265070E-2
7.809944165E0,-2.093243003E-1,-3.874896467E-1,7.110634446E-2
7.830214634E0,-2.593916953E-1,-5.514070988E-1,1.099884734E-1
7.850485102E0,-2.055958807E-1,-4.423507154E-1,1.238368973E-1
7.870755571E0,-1.299621612E-1,-2.287653685E-1,4.447475821E-2
7.891026040E0,-9.374319762E-2,-1.691105962E-1,-2.476738021E-2
7.911296509E0,-6.817687303E-2,-1.685779691E-1,-5.446160212E-2
7.931566977E0,-2.982738242E-2,-1.078579426E-1,-5.446160212E-2
7.951837446E0,1.597895520E-3,-2.902843431E-2,-3.542001545E-2
7.972107915E0,2.024000883E-2,4.181159660E-2,-6.657897960E-3
7.992378384E0,1.331579592E-2,6.205160543E-2,1.198421605E-2
8.012648852E0,7.456845604E-3,6.045371294E-2,1.944106072E-2
8.032919321E0,-4.261054564E-3,3.808317333E-2,1.624527015E-2
8.053189790E0,-1.225053146E-2,1.358211134E-2,1.731053367E-2
8.073460206E0,-2.024000883E-2,1.038632076E-2,1.624527015E-2
8.093730675E0,-1.597895473E-2,2.636527456E-2,1.038632076E-2
8.114001144E0,-1.917474531E-2,3.275685757E-2,-2.396843163E-3
8.134271561E0,-2.503369562E-2,3.115896136E-2,-1.304947957E-2
8.154542081E0,-2.503369562E-2,8.788425475E-3,-1.518000662E-2
8.174812550E0,-2.077264152E-2,-2.396843163E-3,-9.321057238E-3
8.195083019E0,-1.757685095E-2,-7.723161485E-3,-8.788425475E-3
8.215353436E0,-1.544632297E-2,-1.784316637E-2,-1.251684781E-2
8.235623904E0,-1.118526794E-2,-2.583264373E-2,-1.358211134E-2
8.256023904E0,-0.000000000E0,-1.677790284E-2,-6.657897960E-3
8.276164842E0,3.195791040E-3,-1.358211134E-2,-7.989477599E-4
8.296435311E0,-3.728422802E-3,-2.050632425E-2,2.396843163E-3
8.316705779E0,-6.391582079E-3,-2.902843431E-2,3.994738683E-3
8.336976248E0,-1.065263618E-2,-2.316948399E-2,4.527370445E-3
8.357376248E0,-2.663159044E-3,-1.571263932E-2,7.989477599E-4
8.377517134E0,1.065263641E-3,-1.331579522E-3,2.396843163E-3
8.397787602E0,-1.065263641E-3,7.723161485E-3,-1.331579522E-3
8.418058071E0,-1.065263641E-3,9.321057238E-3,-6.657897960E-3
8.438328540E0,1.597895520E-3,2.157158963E-2,-8.788425475E-3
8.458728540E0,9.587372653E-3,2.263685316E-2,-4.527370445E-3
8.478869425E0,1.012000442E-2,1.944106072E-2,-1.331579522E-3
8.499139894E0,5.326318089E-3,1.411474310E-2,-7.989477599E-4
8.519410363E0,5.326318089E-3,1.411474310E-2,1.331579522E-3
8.539680779E0,6.924213842E-3,1.677790284E-2,2.929474926E-3
8.560080779E0,2.663159044E-3,8.255792782E-3,3.994738683E-3
8.580221717E0,-4.261054564E-3,-5.592633970E-3,3.462106921E-3
8.600492186E0,-6.391582079E-3,-6.657897960E-3,2.929474926E-3
8.620762602E0,-4.793686327E-3,-6.657897960E-3,7.989477599E-4
8.641033071E0,1.065263641E-3,-6.657897960E-3,-1.331579522E-3
8.661303540E0,5.326318089E-3,-2.929474926E-3,-2.929474926E-3
8.681573956E0,7.456845604E-3,2.663159103E-4,-1.864211401E-3
8.701844425E0,8.522109129E-3,7.989477599E-4,-7.989477599E-4
8.722114894E0,9.587372653E-3,5.060002208E-3,-1.864211401E-3
8.742385363E0,1.331579592E-2,9.853689000E-3,-2.929474926E-3
8.762655779E0,1.331579592E-2,1.251684781E-2,-4.527370445E-3
8.782926248E0,1.012000442E-2,1.251684781E-2,-5.592633970E-3
8.803196665E0,5.858949851E-3,8.788425475E-3,-7.989477599E-4
8.823467134E0,3.195791040E-3,9.321057238E-3,1.331579522E-3
8.843737550E0,1.065263641E-3,3.462106921E-3,4.527370445E-3
8.864007967E0,-4.261054564E-3,-7.190529723E-3,7.723161485E-3
8.884278488E0,-1.065263641E-3,-2.396843163E-3,9.321057238E-3
8.904548956E0,-3.195791040E-3,-2.663159103E-4,2.929474926E-3
8.924819373E0,-1.597895520E-3,-1.331579522E-3,-1.331579522E-3
8.945089842E0,1.065263641E-3,-1.331579522E-3,-2.396843163E-3
8.965360206E0,5.858949851E-3,9.853689000E-3,-8.255792782E-3
8.985630727E0,8.522109129E-3,1.784316637E-2,-1.038632076E-2
9.005901144E0,7.989477366E-3,1.731053367E-2,-9.321057238E-3
9.026171561E0,6.924213842E-3,1.784316637E-2,-8.255792782E-3
9.046442029E0,6.391582079E-3,1.837579720E-2,-7.190529723E-3
9.066712498E0,6.391582079E-3,1.411474310E-2,-3.994738683E-3
9.086982915E0,4.261054564E-3,1.038632076E-2,-3.994738683E-3
9.107253384E0,5.326318089E-3,9.853689000E-3,2.663159103E-4
9.127523800E0,3.195791040E-3,8.255792782E-3,2.929474926E-3
9.147794217E0,1.065263641E-3,2.929474926E-3,3.994738683E-3
9.168064686E0,1.597895520E-3,-1.864211401E-3,1.864211401E-3
9.188335102E0,3.728422802E-3,-5.592633970E-3,1.864211401E-3
9.208605571E0,2.130527282E-3,-7.723161485E-3,2.396843163E-3
9.228875988E0,2.130527282E-3,-4.527370445E-3,-1.331579522E-3
9.249146404E0,3.195791040E-3,-1.331579522E-3,-1.864211401E-3
9.269416873E0,5.858949851E-3,2.663159103E-4,-2.663159103E-4
9.289687290E0,5.858949851E-3,2.663159103E-4,-1.331579522E-3
9.309957706E0,4.793686327E-3,1.864211401E-3,-2.396843163E-3
9.330228175E0,2.130527282E-3,5.592633970E-3,-2.663159103E-4
9.350498592E0,2.663159044E-3,7.723161485E-3,-1.864211401E-3
9.370769009E0,5.326318205E-4,7.723161485E-3,-2.663159103E-4
9.391039477E0,2.130527282E-3,8.255792782E-3,1.331579522E-3
9.411309894E0,5.326318205E-4,7.723161485E-3,7.989477599E-4
9.431580311E0,2.663159044E-3,7.190529723E-3,1.331579522E-3
9.451980311E0,2.130527282E-3,7.190529723E-3,2.663159103E-4
9.472121196E0,1.597895520E-3,7.723161485E-3,-1.864211401E-3
9.492391613E0,2.663159044E-3,8.788425475E-3,-1.331579522E-3
9.512662029E0,3.195791040E-3,8.788425475E-3,-7.989477599E-4
9.532932498E0,3.195791040E-3,5.592633970E-3,-1.331579522E-3
9.553202915E0,3.728422802E-3,4.527370445E-3,-7.989477599E-4
9.573473331E0,3.728422802E-3,4.527370445E-3,-1.864211401E-3
9.593743748E0,4.261054564E-3,2.663159103E-4,-2.663159103E-4
9.649470727E0,8.522109129E-3,1.304947957E-2,5.592633970E-3
9.669689269E0,7.456845604E-3,9.853689000E-3,4.527370445E-3
9.689950415E0,7.456845604E-3,4.527370445E-3,4.527370445E-3
9.710231404E0,9.587372653E-3,1.304947957E-2,4.527370445E-3
9.730501613E0,1.384842768E-2,2.157158963E-2,5.592633970E-3
9.750771977E0,1.597895473E-2,2.370211668E-2,6.657897960E-3
9.771042394E0,1.491369121E-2,2.476738021E-2,7.723161485E-3
9.791312811E0,1.171789970E-2,2.370211668E-2,6.657897960E-3
9.811583227E0,1.171789970E-2,1.837579720E-2,6.657897960E-3
9.831853644E0,1.278316416E-2,1.731053367E-2,5.592633970E-3
9.852124061E0,1.278316416E-2,1.944106072E-2,6.657897960E-3
9.872394477E0,1.491369121E-2,2.050632425E-2,8.788425475E-3
9.892664894E0,1.597895473E-2,2.263685316E-2,9.853689000E-3
9.912935311E0,1.597895473E-2,2.263685316E-2,1.091895252E-2
9.933205727E0,1.491369121E-2,1.944106072E-2,9.853689000E-3
9.953476144E0,1.704421826E-2,1.731053367E-2,8.788425475E-3
9.973746561E0,1.704421826E-2,2.050632425E-2,7.723161485E-3
9.994016977E0,1.917474531E-2,2.370211668E-2,9.853689000E-3
1.001428739E1,2.024000883E-2,2.583264373E-2,1.091895252E-2
1.003455781E1,2.130527236E-2,2.476738021E-2,1.304947957E-2
1.005482823E1,2.237053588E-2,2.689790726E-2,1.304947957E-2
1.007509864E1,2.130527236E-2,2.902843431E-2,1.091895252E-2
1.009536901E1,1.810948178E-2,2.370211668E-2,1.091895252E-2
1.011563943E1,1.491369121E-2,1.837579720E-2,9.853689000E-3
1.013590984E1,1.704421826E-2,2.050632425E-2,9.853689000E-3
1.015618026E1,2.024000883E-2,2.370211668E-2,1.091895252E-2
1.017645068E1,2.237053588E-2,2.476738021E-2,1.091895252E-2
1.019672104E1,2.450106293E-2,2.370211668E-2,1.304947957E-2
1.021699146E1,2.237053588E-2,1.731053367E-2,1.304947957E-2
1.023726187E1,2.237053588E-2,1.091895252E-2,1.198421605E-2
1.025753229E1,3.728422895E-2,8.788425475E-3,8.788425475E-3
1.027780265E1,6.285055727E-2,2.689790726E-2,1.091895252E-2
1.029807307E1,9.480846673E-2,5.566002429E-2,1.304947957E-2
1.033361375E1,1.404816359E-1,5.832318589E-2,-2.583264373E-2
1.035388427E1,1.612542868E-1,9.547425061E-2,-5.499423668E-2
1.037415469E1,1.921469271E-1,1.673795432E-1,-6.831002980E-2
1.039442505E1,2.267680019E-1,2.909501195E-1,-7.203845680E-2
1.041469547E1,2.443448454E-1,3.644533157E-1,-8.482161909E-2
1.043496583E1,2.491385341E-1,3.756386042E-1,-9.227846563E-2
1.045536583E1,2.107890397E-1,2.882869840E-1,-9.014793485E-2
1.047550667E1,1.490037590E-1,1.508679688E-1,-5.233107507E-2
1.049577703E1,9.214530140E-2,6.364950538E-2,-1.358211134E-2
1.051604745E1,7.243792713E-2,5.139897019E-2,-1.944106072E-2
1.053631781E1,6.444845349E-2,7.590003312E-2,-3.382211924E-2
1.055671781E1,3.142527863E-2,2.636527456E-2,-3.222422674E-2
1.057685859E1,1.171789970E-2,2.929474926E-3,-1.571263932E-2
1.059712901E1,5.326318205E-4,4.074633494E-2,5.592633970E-3
1.061739937E1,-1.438105945E-2,2.210422046E-2,1.464737486E-2
1.063766979E1,-2.237053588E-2,3.968106955E-2,2.316948399E-2
1.065806979E1,-1.384842768E-2,8.708529919E-2,2.956106514E-2
1.067821057E1,-3.195791040E-3,1.253016293E-1,2.636527456E-2
1.069848094E1,6.924213842E-3,1.711079776E-1,3.328948840E-2
1.071875130E1,3.728422802E-3,1.450090110E-1,3.648528084E-2
1.073902172E1,-1.171789970E-2,1.008005738E-1,3.914843872E-2
1.075942172E1,-3.089264594E-2,6.045371294E-2,4.394212365E-2
1.077956245E1,-3.834949061E-2,3.062633052E-2,3.861580789E-2
1.079983286E1,-3.249054030E-2,1.038632076E-2,2.849580161E-2
1.082010323E1,-2.929474972E-2,-9.853689000E-3,2.157158963E-2
1.084037359E1,-2.343579940E-2,1.864211401E-3,1.358211134E-2
1.086064401E1,-2.130527236E-2,-1.091895252E-2,-2.663159103E-4
1.088091437E1,-1.118526794E-2,-1.837579720E-2,-9.853689000E-3
1.090118474E1,-0.000000000E0,-2.849580161E-2,-2.157158963E-2
1.092145510E1,2.663159044E-3,-4.287686199E-2,-2.956106514E-2
1.094172547E1,5.326318205E-4,-8.069372177E-2,-3.169159219E-2
1.096199583E1,6.391582079E-3,-6.950845569E-2,-3.488738462E-2
1.098226625E1,1.118526794E-2,-3.755054250E-2,-3.914843872E-2
1.100253661E1,6.391582079E-3,-3.648528084E-2,-4.114580899E-2
1.102280698E1,8.522109129E-3,-3.328948840E-2,-4.021370411E-2
1.104307734E1,1.065263618E-2,-2.583264373E-2,-3.435475379E-2
1.106334771E1,9.054740891E-3,-1.837579720E-2,-2.902843431E-2
1.108361807E1,5.858949851E-3,-1.571263932E-2,-3.328948840E-2
1.110388844E1,1.597895520E-3,-1.091895252E-2,-3.755054250E-2
1.112415880E1,4.793686327E-3,2.929474926E-3,-3.861580789E-2
1.114442916E1,4.261054564E-3,2.396843163E-3,-4.167843983E-2
1.116469953E1,-4.793686327E-3,2.530001104E-2,-4.487423226E-2
1.118496984E1,-5.326318089E-3,7.323687524E-2,-4.021370411E-2
1.120524026E1,-0.000000000E0,3.062633052E-2,-4.061317816E-2
1.122551062E1,2.663159044E-3,6.657897960E-3,-4.061317816E-2
1.124578099E1,-4.793686327E-3,1.251684781E-2,-1.784316637E-2
1.126605130E1,-3.195791040E-3,1.304947957E-2,-2.316948399E-2
1.128632167E1,4.793686327E-3,-1.251684781E-2,-1.624527015E-2
1.130659203E1,3.728422802E-3,-2.423474751E-2,-2.663159103E-4
1.132686239E1,3.195791040E-3,-1.464737486E-2,7.723161485E-3
1.134713276E1,9.587372653E-3,-7.190529723E-3,-1.411474310E-2
1.136740307E1,7.456845604E-3,-2.263685316E-2,-8.255792782E-3
1.138767344E1,5.858949851E-3,-2.263685316E-2,-5.592633970E-3
1.140794380E1,5.858949851E-3,1.837579720E-2,-1.038632076E-2
1.142821411E1,8.522109129E-3,2.370211668E-2,-2.796317078E-2
1.144848448E1,1.597895520E-3,1.518000662E-2,-3.222422674E-2
1.146875479E1,1.012000442E-2,-3.328948840E-2,-3.542001545E-2
1.148902515E1,4.793686327E-3,5.592633970E-3,-2.157158963E-2
1.150929552E1,1.065263641E-3,4.021370411E-2,-1.677790284E-2
1.152956583E1,1.065263641E-3,2.743053809E-2,-8.788425475E-3
1.154983620E1,-2.077264152E-2,3.648528084E-2,2.396843163E-3
1.157010651E1,-7.137266546E-2,9.707214683E-2,2.956106514E-2
1.159037687E1,-6.977476925E-2,6.364950538E-2,5.193160102E-2
1.161064724E1,-3.675159439E-2,8.175898343E-2,5.512739345E-2
1.163091755E1,-4.953476042E-2,7.803056389E-2,8.442214131E-2
1.165118792E1,-2.556632832E-2,2.530001104E-2,9.667267650E-2
1.167145823E1,-1.597895520E-3,-1.089232042E-1,1.483379602E-1
1.169172854E1,-7.297056168E-2,1.198421605E-2,1.126516312E-1
1.171199890E1,-2.237053588E-2,-8.255792782E-3,4.873581231E-2
1.173226922E1,6.924213842E-3,-5.406212807E-2,3.861580789E-2
1.175253953E1,4.953476042E-2,-1.025316268E-1,-3.701791167E-2
1.177280989E1,4.474107176E-2,-5.086633936E-2,-4.221107066E-2
1.179308021E1,2.769685537E-2,-1.464737486E-2,-4.021370411E-2
1.181335052E1,-0.000000000E0,6.657897960E-3,-6.657897960E-3
1.183362083E1,2.024000883E-2,-4.074633494E-2,-2.583264373E-2
1.185389120E1,4.261054564E-3,-2.743053809E-2,-1.304947957E-2
1.187416151E1,-2.716422267E-2,2.423474751E-2,1.038632076E-2
1.189443182E1,-5.486107618E-2,8.442214131E-2,3.808317333E-2
1.191470213E1,-1.294295341E-1,1.002679393E-1,1.387505829E-1
1.193497245E1,-1.736379713E-1,9.321057238E-3,2.793653905E-1
1.195537245E1,-9.800425172E-2,-7.536740601E-2,2.868222296E-1
1.197551307E1,-4.474107176E-2,-1.731053367E-2,2.362222075E-1
1.199578338E1,7.989477366E-3,-3.009369783E-2,2.154495716E-1
1.201605375E1,2.556632832E-2,-3.914843872E-2,2.644517124E-1
1.203632406E1,1.171789970E-2,-3.595264629E-2,3.661843836E-1
1.205672406E1,2.982738242E-2,-8.122635633E-2,5.109270811E-1
1.207686469E1,4.207791388E-2,-5.672528967E-2,5.732449889E-1
1.209713500E1,-2.024000883E-2,5.566002429E-2,4.535360038E-1
1.211740526E1,-6.285055727E-2,-1.837579720E-2,3.459443748E-1
1.213767562E1,-3.036001325E-2,-5.512739345E-2,2.964096069E-1
1.215807562E1,6.338318437E-2,-2.210422046E-2,2.767022252E-1
1.217821620E1,8.415582776E-2,1.237037405E-1,2.026664019E-1
1.219848651E1,2.396843210E-2,8.974846452E-2,1.771000773E-1
1.221875682E1,-3.728422802E-3,5.592633970E-3,1.600558609E-1
1.223902713E1,-2.450106293E-2,2.157158963E-2,1.115863696E-1
1.225929739E1,-3.728422895E-2,-4.527370445E-3,4.607265070E-2
1.227956771E1,-5.166528746E-2,-8.255792782E-3,-1.944106072E-2
1.229983802E1,-5.539371073E-2,-2.210422046E-2,-4.487423226E-2
1.232010833E1,-6.817687303E-2,-1.198421605E-2,-5.819002539E-2
1.234037859E1,-9.054741263E-2,-2.316948399E-2,-6.351634115E-2
1.236064890E1,-7.882951200E-2,-4.820318148E-2,-7.683213800E-2
1.238091922E1,-6.072002649E-2,-8.282424510E-2,-1.114532053E-1
1.240118948E1,-1.970737800E-2,-1.131842583E-1,-1.572595388E-1
1.242145979E1,-1.970737800E-2,-4.394212365E-2,-2.121206224E-1
1.244173005E1,-5.166528746E-2,-1.038632076E-2,-1.695100814E-1
1.246200036E1,1.864211448E-2,-3.595264629E-2,-7.629951090E-2
1.248227062E1,4.420844093E-2,-3.275685757E-2,-9.440898895E-2
1.250254094E1,5.273054913E-2,-1.464737486E-2,-1.812279820E-1
1.252281125E1,4.633896798E-2,3.648528084E-2,-2.595248520E-1
1.254308151E1,5.486107618E-2,-7.989477599E-4,-2.238385230E-1
1.256335177E1,9.267793596E-2,-7.483477145E-2,-9.920267761E-2
1.258362208E1,6.285055727E-2,-3.755054250E-2,-5.233107507E-2
1.260389234E1,1.491369121E-2,-3.062633052E-2,-2.370211668E-2
1.262416260E1,2.130527282E-3,-3.009369783E-2,-1.411474310E-2
1.264443292E1,9.587372653E-3,-8.788425475E-3,-1.304947957E-2
1.266470318E1,3.728422802E-3,-1.145158429E-2,-1.038632076E-2
1.268497349E1,-0.000000000E0,-8.788425475E-3,-8.255792782E-3
1.270524375E1,3.728422802E-3,-7.989477599E-4,-7.190529723E-3
1.272551401E1,3.728422802E-3,5.060002208E-3,-6.125265732E-3
1.274578427E1,2.130527282E-3,7.190529723E-3,-5.592633970E-3
1.276605458E1,1.597895520E-3,9.853689000E-3,-6.657897960E-3
1.278632484E1,1.065263641E-3,1.091895252E-2,-6.125265732E-3
1.280659510E1,-6.391582079E-3,9.321057238E-3,-1.864211401E-3
1.282686536E1,-8.522109129E-3,5.592633970E-3,1.864211401E-3
1.284713562E1,-9.054740891E-3,1.331579522E-3,3.462106921E-3
1.286740588E1,-8.522109129E-3,-3.994738683E-3,2.396843163E-3
1.288767614E1,-4.793686327E-3,-5.592633970E-3,2.396843163E-3
1.290794646E1,-1.597895520E-3,-7.989477599E-4,-2.929474926E-3
1.292821672E1,1.065263641E-3,3.994738683E-3,-6.657897960E-3
1.294848698E1,2.130527282E-3,5.592633970E-3,-8.788425475E-3
1.296875724E1,-1.065263641E-3,7.989477599E-4,-8.255792782E-3
1.298902745E1,-1.065263641E-3,-1.091895252E-2,-6.125265732E-3
1.300929771E1,1.065263641E-3,-9.853689000E-3,-7.723161485E-3
1.302956797E1,3.195791040E-3,3.994738683E-3,-1.038632076E-2
1.304983823E1,2.130527282E-3,1.038632076E-2,-1.038632076E-2
1.307010849E1,-0.000000000E0,2.396843163E-3,-3.994738683E-3
1.309037875E1,-5.326318205E-4,-3.462106921E-3,-2.663159103E-4
1.311064901E1,1.065263641E-3,1.331579522E-3,-2.929474926E-3
1.313091927E1,-2.663159044E-3,7.190529723E-3,-1.864211401E-3
1.315118948E1,-5.326318089E-3,7.190529723E-3,6.657897960E-3
1.317145974E1,3.195791040E-3,1.251684781E-2,1.358211134E-2
1.319173000E1,-3.728422802E-3,-2.157158963E-2,8.255792782E-3
1.321200026E1,-9.587372653E-3,-1.571263932E-2,-5.060002208E-3
1.323227047E1,9.587372653E-3,1.677790284E-2,-6.125265732E-3
1.325254073E1,5.326318089E-3,1.091895252E-2,7.989477599E-4
1.327281099E1,-1.597895520E-3,-2.103895694E-2,1.864211401E-3
1.329308120E1,5.326318205E-4,-4.181159660E-2,-6.657897960E-3
1.331335146E1,9.054740891E-3,-1.624527015E-2,-1.837579720E-2
1.333362172E1,1.970737800E-2,3.968106955E-2,-1.518000662E-2
1.335389193E1,1.864211448E-2,3.595264629E-2,-1.251684781E-2
1.337416219E1,5.326318089E-3,8.788425475E-3,-7.723161485E-3
1.339443239E1,1.597895520E-3,6.125265732E-3,-8.255792782E-3
1.341470265E1,-0.000000000E0,1.571263932E-2,-8.255792782E-3
1.343497286E1,-1.012000442E-2,3.462106921E-3,-7.723161485E-3
1.345537286E1,-1.757685095E-2,-1.331579522E-3,-2.663159103E-4
1.347551333E1,-1.171789970E-2,1.864211401E-3,-2.929474926E-3
1.349578359E1,-1.225053146E-2,-7.190529723E-3,-1.331579522E-3
1.351605380E1,-1.118526794E-2,-2.210422046E-2,-1.864211401E-3
1.353632401E1,-7.989477366E-3,-2.636527456E-2,-5.060002208E-3
1.355672401E1,-1.597895520E-3,-1.677790284E-2,-7.190529723E-3
1.357686448E1,2.130527282E-3,-1.198421605E-2,-8.255792782E-3
1.359713469E1,5.326318205E-4,-1.251684781E-2,-5.060002208E-3
1.361740495E1,-1.597895520E-3,-1.038632076E-2,-6.125265732E-3
1.363767515E1,-0.000000000E0,-5.060002208E-3,-3.462106921E-3
1.365807515E1,-1.597895520E-3,-7.989477599E-4,-3.462106921E-3
1.367821557E1,-3.195791040E-3,-7.989477599E-4,-3.994738683E-3
1.369848583E1,-4.261054564E-3,-1.864211401E-3,-5.060002208E-3
1.371875604E1,-3.728422802E-3,1.331579522E-3,-1.864211401E-3
1.373902625E1,-2.130527282E-3,5.592633970E-3,-7.989477599E-4
1.375942625E1,-1.597895520E-3,7.723161485E-3,-2.663159103E-4
1.377956666E1,5.326318205E-4,7.190529723E-3,-7.989477599E-4
1.379983687E1,5.326318205E-4,2.929474926E-3,-1.864211401E-3
1.382010708E1,1.597895520E-3,-2.663159103E-4,-7.989477599E-4
1.384037729E1,2.130527282E-3,-1.864211401E-3,-2.663159103E-4
1.386064750E1,2.663159044E-3,-1.331579522E-3,-7.989477599E-4
1.388091771E1,2.130527282E-3,-1.331579522E-3,-1.864211401E-3
1.390118792E1,2.130527282E-3,-2.663159103E-4,-2.396843163E-3
1.392145812E1,3.195791040E-3,1.331579522E-3,-3.994738683E-3
1.394172833E1,2.663159044E-3,-2.663159103E-4,-2.396843163E-3
1.396199854E1,1.597895520E-3,-2.663159103E-4,2.663159103E-4
1.398226875E1,2.130527282E-3,1.331579522E-3,-2.663159103E-4
1.400253896E1,2.663159044E-3,3.462106921E-3,7.989477599E-4
1.402280917E1,2.130527282E-3,3.462106921E-3,-1.331579522E-3
1.404307932E1,2.663159044E-3,-2.663159103E-4,1.331579522E-3
1.406334953E1,1.597895520E-3,1.331579522E-3,-1.864211401E-3
1.408361974E1,1.065263641E-3,-1.864211401E-3,1.331579522E-3
1.410388995E1,4.793686327E-3,2.663159103E-4,1.864211401E-3
1.412416015E1,1.065263641E-3,2.663159103E-4,-1.331579522E-3
1.414443031E1,3.195791040E-3,2.929474926E-3,1.331579522E-3
1.416470052E1,4.793686327E-3,1.331579522E-3,2.396843163E-3
1.418497068E1,3.728422802E-3,-1.864211401E-3,2.663159103E-4
1.423061229E1,4.261054564E-3,2.396843163E-3,-1.864211401E-3
1.425078187E1,2.130527282E-3,2.396843163E-3,-1.864211401E-3
1.427103302E1,-0.000000000E0,2.396843163E-3,1.331579522E-3
1.429132224E1,-0.000000000E0,1.331579522E-3,1.331579522E-3
1.431159192E1,-1.065263641E-3,-2.929474926E-3,1.331579522E-3
1.433186203E1,-3.195791040E-3,-2.929474926E-3,2.663159103E-4
1.435213219E1,-3.195791040E-3,-1.864211401E-3,2.663159103E-4
1.437240234E1,-3.195791040E-3,-2.929474926E-3,2.663159103E-4
1.439267255E1,-3.195791040E-3,-7.989477599E-4,-7.989477599E-4
1.441294271E1,-2.130527282E-3,2.663159103E-4,-2.929474926E-3
1.443321292E1,-1.065263641E-3,-1.864211401E-3,-2.929474926E-3
1.445348307E1,-0.000000000E0,-2.929474926E-3,-1.864211401E-3
1.447375323E1,-2.130527282E-3,-2.929474926E-3,-2.929474926E-3
1.449402344E1,-3.195791040E-3,-1.864211401E-3,-1.864211401E-3
1.451429359E1,-2.130527282E-3,2.663159103E-4,-2.929474926E-3
1.453456370E1,-2.130527282E-3,2.663159103E-4,-2.929474926E-3
1.455483396E1,-3.195791040E-3,2.663159103E-4,-2.929474926E-3
1.457510411E1,-4.261054564E-3,2.663159103E-4,-2.929474926E-3
1.459537427E1,-4.261054564E-3,-7.989477599E-4,-3.994738683E-3
1.461564443E1,-3.195791040E-3,-7.989477599E-4,-3.994738683E-3
1.463591463E1,-2.130527282E-3,-7.989477599E-4,-3.994738683E-3
1.465618479E1,-2.130527282E-3,-7.989477599E-4,-3.994738683E-3
1.467645495E1,-1.065263641E-3,2.663159103E-4,-5.060002208E-3
1.469685495E1,-1.065263641E-3,2.663159103E-4,-5.060002208E-3
1.471699526E1,-1.065263641E-3,-2.929474926E-3,-6.125265732E-3
1.473726542E1,1.065263641E-3,-2.929474926E-3,-6.125265732E-3
1.475753557E1,1.065263641E-3,2.663159103E-4,-6.125265732E-3
1.477780573E1,1.065263641E-3,1.331579522E-3,-5.060002208E-3
1.479807594E1,2.130527282E-3,-2.929474926E-3,-2.929474926E-3
1.481834609E1,1.065263641E-3,-7.989477599E-4,-7.989477599E-4
1.483861625E1,-1.065263641E-3,1.331579522E-3,-1.864211401E-3
1.485888640E1,-1.065263641E-3,-7.989477599E-4,-2.929474926E-3
1.487915651E1,-1.065263641E-3,-2.929474926E-3,-5.060002208E-3
1.489942667E1,-1.065263641E-3,1.331579522E-3,-2.929474926E-3
1.491969682E1,1.065263641E-3,2.663159103E-4,-1.864211401E-3
1.493996698E1,-0.000000000E0,-1.864211401E-3,-2.929474926E-3
1.496036698E1,1.065263641E-3,1.331579522E-3,-5.060002208E-3
1.498050729E1,-0.000000000E0,1.331579522E-3,-3.994738683E-3
1.500077745E1,-0.000000000E0,2.396843163E-3,-2.929474926E-3
1.502104760E1,-0.000000000E0,1.331579522E-3,-2.929474926E-3
1.504131771E1,-1.065263641E-3,-2.929474926E-3,-1.864211401E-3
1.506171771E1,-1.065263641E-3,-1.864211401E-3,2.663159103E-4
1.508185802E1,-0.000000000E0,2.663159103E-4,1.331579522E-3
1.510212812E1,1.065263641E-3,2.663159103E-4,-1.864211401E-3
1.512239828E1,2.130527282E-3,-7.989477599E-4,-1.864211401E-3
1.514266844E1,1.065263641E-3,-7.989477599E-4,-1.864211401E-3
1.516306844E1,-0.000000000E0,-7.989477599E-4,-7.989477599E-4
1.518320870E1,-1.065263641E-3,-1.864211401E-3,2.663159103E-4
1.520347885E1,1.065263641E-3,-7.989477599E-4,2.663159103E-4
1.522374896E1,-1.065263641E-3,-7.989477599E-4,-1.864211401E-3
1.524401911E1,-2.130527282E-3,-7.989477599E-4,2.663159103E-4
1.526428922E1,-1.065263641E-3,-7.989477599E-4,2.663159103E-4
1.528455937E1,1.065263641E-3,2.663159103E-4,2.663159103E-4
1.530482948E1,1.065263641E-3,2.663159103E-4,1.331579522E-3
1.532509963E1,-1.065263641E-3,-7.989477599E-4,2.663159103E-4
1.534536974E1,-0.000000000E0,-7.989477599E-4,-7.989477599E-4
1.536563989E1,-0.000000000E0,2.663159103E-4,1.331579522E-3
1.538591000E1,1.065263641E-3,2.663159103E-4,2.663159103E-4
1.540618010E1,1.065263641E-3,-1.864211401E-3,2.663159103E-4
1.542645026E1,1.065263641E-3,-1.864211401E-3,-7.989477599E-4
1.544672036E1,-0.000000000E0,2.663159103E-4,-7.989477599E-4
1.546699052E1,1.065263641E-3,-7.989477599E-4,-7.989477599E-4
1.548726062E1,1.065263641E-3,-1.864211401E-3,-7.989477599E-4
1.550753073E1,-0.000000000E0,2.663159103E-4,2.663159103E-4
1.552780083E1,1.065263641E-3,1.331579522E-3,2.663159103E-4
1.554807099E1,-0.000000000E0,2.396843163E-3,-7.989477599E-4
1.556834109E1,1.065263641E-3,2.663159103E-4,-7.989477599E-4
1.558861120E1,-0.000000000E0,-2.929474926E-3,2.396843163E-3
1.560901120E1,1.065263641E-3,-7.989477599E-4,2.396843163E-3
1.562915146E1,1.065263641E-3,1.331579522E-3,-7.989477599E-4
1.564942156E1,1.065263641E-3,-2.929474926E-3,-1.864211401E-3
1.566969166E1,-1.065263641E-3,-2.929474926E-3,1.331579522E-3
1.568996177E1,-0.000000000E0,2.396843163E-3,2.663159103E-4
1.571023187E1,2.130527282E-3,-7.989477599E-4,-7.989477599E-4
1.573050198E1,-1.065263641E-3,-1.864211401E-3,2.663159103E-4
1.575077208E1,-1.065263641E-3,1.331579522E-3,-1.864211401E-3
1.577104224E1,1.065263641E-3,1.331579522E-3,2.663159103E-4
1.579131234E1,2.130527282E-3,2.396843163E-3,1.331579522E-3
1.581158245E1,3.195791040E-3,3.462106921E-3,5.592633970E-3
1.583185255E1,2.130527282E-3,2.663159103E-4,8.788425475E-3
1.585212265E1,2.130527282E-3,-1.864211401E-3,8.788425475E-3
1.587239276E1,2.130527282E-3,1.331579522E-3,6.657897960E-3
1.589266281E1,3.195791040E-3,2.396843163E-3,4.527370445E-3
1.591293292E1,3.195791040E-3,-1.864211401E-3,4.527370445E-3
1.593320302E1,1.065263641E-3,-2.929474926E-3,4.527370445E-3
1.595347312E1,2.130527282E-3,1.331579522E-3,3.462106921E-3
1.597374323E1,3.195791040E-3,1.331579522E-3,4.527370445E-3
1.599401333E1,2.130527282E-3,-7.989477599E-4,4.527370445E-3
1.601428344E1,3.195791040E-3,-7.989477599E-4,4.527370445E-3
1.603455354E1,2.130527282E-3,1.331579522E-3,4.527370445E-3
1.605482359E1,1.065263641E-3,2.396843163E-3,5.592633970E-3
1.607509370E1,1.065263641E-3,2.396843163E-3,5.592633970E-3
1.609536380E1,2.130527282E-3,2.663159103E-4,5.592633970E-3
1.611563390E1,2.130527282E-3,1.331579522E-3,3.462106921E-3
1.613590401E1,2.130527282E-3,2.396843163E-3,2.396843163E-3
1.615617406E1,2.130527282E-3,2.396843163E-3,2.396843163E-3
1.617644416E1,3.195791040E-3,1.331579522E-3,1.331579522E-3
1.619671422E1,3.195791040E-3,2.663159103E-4,1.331579522E-3
1.621698432E1,3.195791040E-3,2.396843163E-3,2.663159103E-4
1.623725442E1,3.195791040E-3,1.331579522E-3,1.331579522E-3
1.625752448E1,1.065263641E-3,2.663159103E-4,1.331579522E-3
1.627779458E1,1.065263641E-3,2.663159103E-4,1.331579522E-3
1.629806469E1,-0.000000000E0,-7.989477599E-4,1.331579522E-3
1.631833474E1,-0.000000000E0,-2.929474926E-3,-1.864211401E-3
1.633860484E1,-2.130527282E-3,-5.060002208E-3,-6.125265732E-3
1.635887484E1,-3.195791040E-3,-1.864211401E-3,-1.864211401E-3
1.637914495E1,-0.000000000E0,-2.929474926E-3,-1.864211401E-3
1.639941505E1,-2.130527282E-3,-2.929474926E-3,-7.989477599E-4
1.641968510E1,-2.130527282E-3,2.663159103E-4,2.663159103E-4
1.643995521E1,-1.065263641E-3,-7.989477599E-4,-1.864211401E-3
1.646035521E1,-3.195791040E-3,-3.994738683E-3,-3.994738683E-3
1.648049536E1,-2.130527282E-3,-7.989477599E-4,-2.929474926E-3
1.650076547E1,-0.000000000E0,2.663159103E-4,-1.864211401E-3
1.652103552E1,-2.130527282E-3,-7.989477599E-4,-1.864211401E-3
1.654130557E1,-3.195791040E-3,1.331579522E-3,-3.994738683E-3
1.656170557E1,-3.195791040E-3,2.663159103E-4,-3.994738683E-3
1.658184573E1,-1.065263641E-3,1.331579522E-3,-2.929474926E-3
1.660211578E1,-1.065263641E-3,1.331579522E-3,-3.994738683E-3
1.662238588E1,-1.065263641E-3,2.663159103E-4,-2.929474926E-3
1.664265594E1,-1.065263641E-3,-1.864211401E-3,-1.864211401E-3
1.666305594E1,-1.065263641E-3,-1.864211401E-3,-7.989477599E-4
1.668319604E1,1.065263641E-3,2.663159103E-4,-2.929474926E-3
1.670346614E1,2.130527282E-3,1.331579522E-3,-2.929474926E-3
1.672373620E1,1.065263641E-3,-7.989477599E-4,-2.929474926E-3
1.674400625E1,-1.065263641E-3,-1.864211401E-3,-2.929474926E-3
1.676440625E1,1.065263641E-3,-7.989477599E-4,-2.929474926E-3
1.678454635E1,2.130527282E-3,-1.864211401E-3,-3.994738683E-3
1.680481646E1,3.195791040E-3,-7.989477599E-4,-2.929474926E-3
1.682508651E1,3.195791040E-3,-7.989477599E-4,-2.929474926E-3
1.684535656E1,2.130527282E-3,2.663159103E-4,-1.864211401E-3
1.686562661E1,1.065263641E-3,1.331579522E-3,-2.929474926E-3
1.688589666E1,2.130527282E-3,2.663159103E-4,-7.989477599E-4
1.690616672E1,-0.000000000E0,-7.989477599E-4,-7.989477599E-4
1.692643677E1,1.065263641E-3,-2.929474926E-3,-7.989477599E-4
1.694670682E1,3.195791040E-3,-2.929474926E-3,-1.864211401E-3
1.696697687E1,3.195791040E-3,-7.989477599E-4,-3.994738683E-3
1.698724692E1,3.195791040E-3,-7.989477599E-4,-2.929474926E-3
1.700751698E1,2.130527282E-3,2.663159103E-4,-1.864211401E-3
1.702778698E1,3.195791040E-3,-7.989477599E-4,-1.864211401E-3
1.704805708E1,3.195791040E-3,2.663159103E-4,-2.929474926E-3
1.706832713E1,4.261054564E-3,2.396843163E-3,-3.994738683E-3
1.708859719E1,3.195791040E-3,3.462106921E-3,-5.060002208E-3
1.710886724E1,3.195791040E-3,1.331579522E-3,-6.125265732E-3
1.712913729E1,5.326318089E-3,2.396843163E-3,-1.145158429E-2
1.714940734E1,6.391582079E-3,2.396843163E-3,-1.358211134E-2
1.716967734E1,5.326318089E-3,2.663159103E-4,-1.145158429E-2
1.718994739E1,4.261054564E-3,1.331579522E-3,-7.190529723E-3
1.721021745E1,3.195791040E-3,4.527370445E-3,-6.125265732E-3
1.723048750E1,3.195791040E-3,5.592633970E-3,-9.321057238E-3
1.725075750E1,2.130527282E-3,-7.989477599E-4,-7.190529723E-3
1.727102755E1,3.195791040E-3,-3.994738683E-3,-3.994738683E-3
1.729129760E1,3.195791040E-3,-7.989477599E-4,-6.125265732E-3
1.731156760E1,5.326318089E-3,2.663159103E-4,-9.321057238E-3
1.733183765E1,7.456845604E-3,4.527370445E-3,-9.321057238E-3
1.735210771E1,1.171789970E-2,8.788425475E-3,-8.255792782E-3
1.737237771E1,9.587372653E-3,3.462106921E-3,-7.190529723E-3
1.739264776E1,4.261054564E-3,4.527370445E-3,-6.125265732E-3
1.741291776E1,3.195791040E-3,6.657897960E-3,-5.060002208E-3
1.743318781E1,2.130527282E-3,3.462106921E-3,-5.060002208E-3
1.745345781E1,1.065263641E-3,1.331579522E-3,-5.060002208E-3
1.747372786E1,1.065263641E-3,4.527370445E-3,-6.125265732E-3
1.749399786E1,2.130527282E-3,3.462106921E-3,-5.060002208E-3
1.751426792E1,4.261054564E-3,2.396843163E-3,-7.190529723E-3
1.753453797E1,4.261054564E-3,1.331579522E-3,-6.125265732E-3
1.755480797E1,4.261054564E-3,1.331579522E-3,-3.994738683E-3
1.757507797E1,2.130527282E-3,1.331579522E-3,-2.929474926E-3
1.759534802E1,2.130527282E-3,-7.989477599E-4,-3.994738683E-3
1.761561802E1,3.195791040E-3,-7.989477599E-4,-5.060002208E-3
1.763588807E1,4.261054564E-3,-7.989477599E-4,-3.994738683E-3
1.765615807E1,1.065263641E-3,2.396843163E-3,-3.994738683E-3
1.767642807E1,1.065263641E-3,3.462106921E-3,-3.994738683E-3
1.769669812E1,2.130527282E-3,2.396843163E-3,-1.864211401E-3
1.771696812E1,1.065263641E-3,2.663159103E-4,-2.929474926E-3
1.773723818E1,1.065263641E-3,1.331579522E-3,-1.864211401E-3
1.775750818E1,2.130527282E-3,1.331579522E-3,-7.989477599E-4
1.777777818E1,-0.000000000E0,2.396843163E-3,-1.864211401E-3
1.779804823E1,-1.065263641E-3,1.331579522E-3,-1.864211401E-3
1.781831823E1,-1.065263641E-3,-1.864211401E-3,-1.864211401E-3
1.783858823E1,-0.000000000E0,-1.864211401E-3,-7.989477599E-4
1.785885823E1,-1.065263641E-3,-1.864211401E-3,1.331579522E-3
1.787912828E1,-3.195791040E-3,-1.864211401E-3,4.527370445E-3
1.789939828E1,-4.261054564E-3,-1.864211401E-3,5.592633970E-3
1.791966828E1,-4.261054564E-3,-6.125265732E-3,6.657897960E-3
1.793993828E1,-3.195791040E-3,-5.060002208E-3,7.723161485E-3
1.796033828E1,-4.261054564E-3,-2.929474926E-3,7.723161485E-3
1.798047833E1,-4.261054564E-3,-3.994738683E-3,6.657897960E-3
1.800074833E1,-2.130527282E-3,-6.125265732E-3,7.723161485E-3
1.802101833E1,-4.261054564E-3,-3.994738683E-3,9.853689000E-3
1.804128838E1,-5.326318089E-3,-2.929474926E-3,9.853689000E-3
1.806168838E1,-3.195791040E-3,-3.994738683E-3,1.091895252E-2
1.808182838E1,-1.065263641E-3,-3.994738683E-3,8.788425475E-3
1.810209838E1,-0.000000000E0,-2.929474926E-3,6.657897960E-3
1.812236844E1,-1.065263641E-3,-2.929474926E-3,5.592633970E-3
1.814263844E1,-2.130527282E-3,-5.060002208E-3,3.462106921E-3
1.816303844E1,-2.130527282E-3,-6.125265732E-3,4.527370445E-3
1.818317844E1,1.065263641E-3,-1.864211401E-3,3.462106921E-3
1.820344844E1,1.065263641E-3,1.331579522E-3,4.527370445E-3
1.822371849E1,2.130527282E-3,1.331579522E-3,6.657897960E-3
1.824398849E1,-2.130527282E-3,-2.929474926E-3,6.657897960E-3
1.826425854E1,-1.065263641E-3,2.663159103E-4,5.592633970E-3
1.828452854E1,-0.000000000E0,1.331579522E-3,4.527370445E-3
1.830479854E1,-0.000000000E0,2.663159103E-4,5.592633970E-3
1.832506859E1,-1.065263641E-3,2.396843163E-3,3.462106921E-3
1.834533859E1,-0.000000000E0,1.331579522E-3,2.396843163E-3
1.836560859E1,1.065263641E-3,-3.994738683E-3,2.663159103E-4
1.838587864E1,1.065263641E-3,-3.994738683E-3,1.331579522E-3
1.840614864E1,2.130527282E-3,1.331579522E-3,3.462106921E-3
1.842641864E1,2.130527282E-3,1.331579522E-3,4.527370445E-3
1.844668870E1,2.130527282E-3,-3.994738683E-3,4.527370445E-3
1.846695870E1,1.065263641E-3,-1.864211401E-3,4.527370445E-3
1.848722875E1,1.065263641E-3,-1.864211401E-3,3.462106921E-3
1.850749875E1,1.065263641E-3,-1.864211401E-3,2.396843163E-3
1.852776880E1,2.130527282E-3,-3.994738683E-3,4.527370445E-3
1.854803880E1,1.065263641E-3,-1.864211401E-3,3.462106921E-3
1.856830880E1,1.065263641E-3,2.663159103E-4,2.396843163E-3
1.858857885E1,2.130527282E-3,2.396843163E-3,1.331579522E-3
1.860884885E1,2.130527282E-3,1.331579522E-3,2.396843163E-3
1.862911890E1,2.130527282E-3,1.331579522E-3,2.396843163E-3
1.864938890E1,1.065263641E-3,1.331579522E-3,3.462106921E-3
1.866965896E1,-0.000000000E0,2.663159103E-4,3.462106921E-3
1.868992896E1,-0.000000000E0,-7.989477599E-4,2.396843163E-3
1.871019896E1,1.065263641E-3,2.663159103E-4,3.462106921E-3
1.873046901E1,2.130527282E-3,2.663159103E-4,1.331579522E-3
1.875073906E1,2.130527282E-3,2.663159103E-4,2.663159103E-4
1.877100911E1,1.065263641E-3,-2.929474926E-3,2.396843163E-3
1.879127911E1,-0.000000000E0,-7.989477599E-4,-7.989477599E-4
1.881154917E1,-0.000000000E0,-7.989477599E-4,2.663159103E-4
1.883181922E1,-1.065263641E-3,1.331579522E-3,2.663159103E-4
1.885208922E1,-1.065263641E-3,-1.864211401E-3,-7.989477599E-4
1.887235927E1,1.065263641E-3,-3.994738683E-3,-7.989477599E-4
1.889262927E1,-1.065263641E-3,-7.989477599E-4,1.331579522E-3
1.891289932E1,-1.065263641E-3,1.331579522E-3,2.396843163E-3
1.893316937E1,-1.065263641E-3,-1.864211401E-3,-7.989477599E-4
1.895343937E1,-2.130527282E-3,-2.929474926E-3,-5.060002208E-3
1.897370943E1,-2.130527282E-3,2.663159103E-4,-1.864211401E-3
1.899397948E1,1.065263641E-3,-7.989477599E-4,-7.989477599E-4
1.901424948E1,-2.130527282E-3,-2.929474926E-3,-1.864211401E-3
1.903451953E1,-2.130527282E-3,-7.989477599E-4,-1.864211401E-3
1.905478958E1,-2.130527282E-3,2.663159103E-4,-1.864211401E-3
1.907505958E1,-1.065263641E-3,2.396843163E-3,-2.929474926E-3
1.909532963E1,-1.065263641E-3,2.663159103E-4,-1.864211401E-3
1.911559963E1,-1.065263641E-3,-1.864211401E-3,-7.989477599E-4
1.913586969E1,-2.130527282E-3,-7.989477599E-4,-2.929474926E-3
1.915613974E1,-0.000000000E0,2.663159103E-4,2.663159103E-4
1.917640979E1,-0.000000000E0,1.331579522E-3,-7.989477599E-4
1.919667979E1,-0.000000000E0,-7.989477599E-4,2.663159103E-4
1.921694984E1,-1.065263641E-3,-2.929474926E-3,-7.989477599E-4
1.923721989E1,-0.000000000E0,-7.989477599E-4,-7.989477599E-4
1.925748989E1,1.065263641E-3,-7.989477599E-4,2.663159103E-4
1.927775995E1,-0.000000000E0,-7.989477599E-4,-7.989477599E-4
1.929803000E1,-0.000000000E0,-1.864211401E-3,-7.989477599E-4
1.931830005E1,-0.000000000E0,-1.864211401E-3,-7.989477599E-4
1.933857005E1,-1.065263641E-3,1.331579522E-3,-7.989477599E-4
1.935884010E1,-0.000000000E0,-7.989477599E-4,2.663159103E-4
1.937911015E1,-0.000000000E0,2.396843163E-3,-7.989477599E-4
1.939938015E1,-0.000000000E0,2.396843163E-3,1.331579522E-3
1.941965021E1,-2.130527282E-3,-7.989477599E-4,1.331579522E-3
1.943992026E1,-1.065263641E-3,-7.989477599E-4,2.663159103E-4
1.946032026E1,-2.130527282E-3,-7.989477599E-4,-7.989477599E-4
1.948046036E1,-2.130527282E-3,1.331579522E-3,-1.864211401E-3
1.950073036E1,-1.065263641E-3,-7.989477599E-4,-1.864211401E-3
1.952100042E1,-1.065263641E-3,1.331579522E-3,2.663159103E-4
1.954127047E1,-0.000000000E0,-1.864211401E-3,2.663159103E-4
1.956167047E1,-0.000000000E0,-3.994738683E-3,1.331579522E-3
1.958181057E1,-0.000000000E0,2.663159103E-4,1.331579522E-3
1.960208057E1,-1.065263641E-3,2.663159103E-4,2.663159103E-4
1.962235062E1,-0.000000000E0,-1.864211401E-3,-7.989477599E-4
1.964262068E1,-0.000000000E0,-7.989477599E-4,-7.989477599E-4
1.966302068E1,-0.000000000E0,1.331579522E-3,-7.989477599E-4
1.968316078E1,-0.000000000E0,-7.989477599E-4,2.663159103E-4
1.970343083E1,-2.130527282E-3,-1.864211401E-3,-1.864211401E-3
1.972370083E1,-2.130527282E-3,2.663159103E-4,-1.864211401E-3
1.974397088E1,-1.065263641E-3,2.663159103E-4,-1.864211401E-3
1.976437088E1,1.065263641E-3,2.396843163E-3,-2.929474926E-3
1.978451099E1,1.065263641E-3,1.331579522E-3,-2.929474926E-3
1.980478104E1,-0.000000000E0,1.331579522E-3,-7.989477599E-4
1.982505104E1,1.065263641E-3,-1.864211401E-3,2.663159103E-4
1.984532109E1,-0.000000000E0,1.331579522E-3,-1.864211401E-3
1.986559114E1,-0.000000000E0,2.396843163E-3,-1.864211401E-3
1.988586120E1,-0.000000000E0,2.663159103E-4,2.663159103E-4
1.990613125E1,-0.000000000E0,2.663159103E-4,-7.989477599E-4
1.992640125E1,-0.000000000E0,2.663159103E-4,2.663159103E-4
1.994667130E1,-0.000000000E0,2.663159103E-4,2.663159103E-4
1.996694135E1,1.065263641E-3,2.663159103E-4,-7.989477599E-4
1.998721140E1,1.065263641E-3,2.663159103E-4,-7.989477599E-4
2.000748140E1,-0.000000000E0,2.663159103E-4,-1.864211401E-3
2.002775146E1,-0.000000000E0,2.663159103E-4,-7.989477599E-4
2.004802151E1,-0.000000000E0,1.331579522E-3,-7.989477599E-4
2.006829156E1,-1.065263641E-3,-1.864211401E-3,-1.864211401E-3
2.008856161E1,1.065263641E-3,-2.929474926E-3,-2.929474926E-3
2.010883161E1,3.195791040E-3,1.331579522E-3,-2.929474926E-3
2.012910166E1,4.261054564E-3,1.331579522E-3,-2.929474926E-3
2.014937172E1,4.261054564E-3,3.462106921E-3,-3.994738683E-3
2.016964172E1,4.261054564E-3,2.396843163E-3,-3.994738683E-3
2.018991177E1,1.065263641E-3,2.663159103E-4,-3.994738683E-3
2.021018182E1,1.065263641E-3,-1.864211401E-3,-7.989477599E-4
2.023045187E1,1.065263641E-3,2.396843163E-3,-7.989477599E-4
2.025072187E1,2.130527282E-3,3.462106921E-3,-1.864211401E-3
2.027099192E1,3.195791040E-3,-7.989477599E-4,-7.989477599E-4
2.029126198E1,2.130527282E-3,2.663159103E-4,-7.989477599E-4
2.031153198E1,2.130527282E-3,2.396843163E-3,-7.989477599E-4
2.033180203E1,3.195791040E-3,-1.864211401E-3,-3.994738683E-3
2.035207208E1,2.130527282E-3,2.663159103E-4,-2.929474926E-3
2.037234208E1,3.195791040E-3,4.527370445E-3,-7.989477599E-4
2.039261213E1,3.195791040E-3,2.396843163E-3,-7.989477599E-4
2.041288219E1,2.130527282E-3,-1.864211401E-3,-7.989477599E-4
2.043315219E1,1.065263641E-3,2.396843163E-3,-1.864211401E-3
2.045342224E1,1.065263641E-3,2.396843163E-3,-1.864211401E-3
2.047369224E1,1.065263641E-3,1.331579522E-3,-2.929474926E-3
2.049396229E1,1.065263641E-3,3.462106921E-3,-3.994738683E-3
2.051423234E1,2.130527282E-3,2.396843163E-3,-1.864211401E-3
2.053450234E1,1.065263641E-3,1.331579522E-3,-2.929474926E-3
2.055477234E1,3.195791040E-3,2.396843163E-3,-7.989477599E-4
2.057504239E1,3.195791040E-3,1.331579522E-3,2.663159103E-4
2.059531245E1,2.130527282E-3,2.396843163E-3,-1.864211401E-3
2.061558245E1,3.195791040E-3,-7.989477599E-4,-1.864211401E-3
2.063585250E1,2.130527282E-3,1.331579522E-3,-2.929474926E-3
2.065612255E1,2.130527282E-3,1.331579522E-3,-1.864211401E-3
2.067639255E1,2.130527282E-3,2.396843163E-3,-7.989477599E-4
2.069666260E1,1.065263641E-3,2.663159103E-4,-1.864211401E-3
2.071693260E1,1.065263641E-3,2.663159103E-4,-7.989477599E-4
2.073720265E1,1.065263641E-3,1.331579522E-3,1.331579522E-3
2.075747271E1,-0.000000000E0,1.331579522E-3,2.663159103E-4
2.077774271E1,1.065263641E-3,1.331579522E-3,-7.989477599E-4
2.079801276E1,1.065263641E-3,2.396843163E-3,2.663159103E-4
2.081828276E1,-1.065263641E-3,-7.989477599E-4,1.331579522E-3
2.083855281E1,-1.065263641E-3,-1.864211401E-3,1.331579522E-3
2.085895281E1,-0.000000000E0,-7.989477599E-4,2.663159103E-4
2.087909286E1,1.065263641E-3,2.396843163E-3,-7.989477599E-4
2.089936286E1,-0.000000000E0,1.331579522E-3,1.331579522E-3
2.091963292E1,-2.130527282E-3,-1.864211401E-3,4.527370445E-3
2.093990292E1,-2.130527282E-3,-7.989477599E-4,5.592633970E-3
2.096030292E1,-1.065263641E-3,-7.989477599E-4,5.592633970E-3
2.098044292E1,-1.065263641E-3,-7.989477599E-4,6.657897960E-3
2.100071302E1,-3.195791040E-3,-1.864211401E-3,6.657897960E-3
2.102098302E1,-3.195791040E-3,-1.864211401E-3,7.723161485E-3
2.104125302E1,-2.130527282E-3,-1.864211401E-3,7.723161485E-3
2.106165302E1,-2.130527282E-3,-1.864211401E-3,6.657897960E-3
2.108179307E1,-2.130527282E-3,-1.864211401E-3,6.657897960E-3
2.110206312E1,-1.065263641E-3,-2.929474926E-3,6.657897960E-3
2.112233312E1,-0.000000000E0,-3.994738683E-3,6.657897960E-3
2.114260312E1,-0.000000000E0,2.663159103E-4,5.592633970E-3
2.116300312E1,1.065263641E-3,-1.864211401E-3,4.527370445E-3
2.118314318E1,1.065263641E-3,-3.994738683E-3,3.462106921E-3
2.120341323E1,-0.000000000E0,2.663159103E-4,3.462106921E-3
2.122368323E1,3.195791040E-3,4.527370445E-3,4.527370445E-3
2.124395323E1,2.130527282E-3,2.663159103E-4,6.657897960E-3
2.126422328E1,1.065263641E-3,-7.989477599E-4,5.592633970E-3
2.128449328E1,1.065263641E-3,2.396843163E-3,4.527370445E-3
2.130476328E1,-0.000000000E0,3.462106921E-3,2.396843163E-3
2.132503333E1,-0.000000000E0,1.331579522E-3,3.462106921E-3
2.134530333E1,3.195791040E-3,-7.989477599E-4,3.462106921E-3
2.136557333E1,2.130527282E-3,2.663159103E-4,4.527370445E-3
2.138584338E1,2.130527282E-3,-1.864211401E-3,4.527370445E-3
2.140611338E1,2.130527282E-3,-1.864211401E-3,4.527370445E-3
2.142638338E1,2.130527282E-3,-1.864211401E-3,5.592633970E-3
2.144665338E1,3.195791040E-3,-1.864211401E-3,2.396843163E-3
2.146692338E1,2.130527282E-3,2.663159103E-4,3.462106921E-3
2.148719344E1,1.065263641E-3,2.663159103E-4,3.462106921E-3
2.150746344E1,2.130527282E-3,2.663159103E-4,4.527370445E-3
2.152773344E1,2.130527282E-3,2.663159103E-4,5.592633970E-3
2.154800344E1,2.130527282E-3,1.331579522E-3,3.462106921E-3
2.156827344E1,-0.000000000E0,2.396843163E-3,3.462106921E-3
2.158854349E1,-0.000000000E0,3.462106921E-3,3.462106921E-3
2.160881349E1,2.130527282E-3,3.462106921E-3,3.462106921E-3
2.162908349E1,4.261054564E-3,2.396843163E-3,2.396843163E-3
2.164935349E1,3.195791040E-3,1.331579522E-3,2.396843163E-3
2.166962349E1,2.130527282E-3,1.331579522E-3,2.663159103E-4
2.168989349E1,3.195791040E-3,-1.864211401E-3,-5.060002208E-3
2.171016349E1,3.195791040E-3,-1.864211401E-3,2.663159103E-4
2.173043349E1,4.261054564E-3,1.331579522E-3,2.396843163E-3
2.175070354E1,3.195791040E-3,2.396843163E-3,1.331579522E-3
2.177097349E1,2.130527282E-3,1.331579522E-3,1.331579522E-3
2.179124349E1,2.130527282E-3,2.663159103E-4,2.396843163E-3
2.181151354E1,1.065263641E-3,-7.989477599E-4,2.396843163E-3
2.183178354E1,2.130527282E-3,-7.989477599E-4,2.663159103E-4
2.185205354E1,-1.065263641E-3,1.331579522E-3,-7.989477599E-4
2.187232354E1,-1.065263641E-3,2.663159103E-4,-2.929474926E-3
2.189259354E1,-0.000000000E0,-5.060002208E-3,-1.864211401E-3
2.191286354E1,-1.065263641E-3,-3.994738683E-3,2.663159103E-4
2.193313354E1,-1.065263641E-3,2.663159103E-4,-7.989477599E-4
2.195340349E1,-2.130527282E-3,-2.929474926E-3,-1.864211401E-3
2.197367349E1,-3.195791040E-3,-3.994738683E-3,-2.929474926E-3
2.199394349E1,-2.130527282E-3,-1.864211401E-3,-1.864211401E-3
2.201421349E1,-0.000000000E0,-1.864211401E-3,-7.989477599E-4
2.203448349E1,-2.130527282E-3,-1.864211401E-3,-3.994738683E-3
2.205475349E1,-4.261054564E-3,2.663159103E-4,-3.994738683E-3
2.207502349E1,-2.130527282E-3,2.396843163E-3,-2.929474926E-3
2.209529349E1,-1.065263641E-3,1.331579522E-3,-1.864211401E-3
2.211556349E1,-0.000000000E0,-7.989477599E-4,-1.864211401E-3
2.213583349E1,-1.065263641E-3,-1.864211401E-3,-7.989477599E-4
2.215610349E1,-2.130527282E-3,-2.929474926E-3,-7.989477599E-4
2.217637349E1,-1.065263641E-3,-7.989477599E-4,-1.864211401E-3
2.219664344E1,-0.000000000E0,1.331579522E-3,-3.994738683E-3
2.221691344E1,1.065263641E-3,-7.989477599E-4,-5.060002208E-3
2.223718344E1,-1.065263641E-3,-2.929474926E-3,-3.994738683E-3
2.225745344E1,-1.065263641E-3,-1.864211401E-3,-2.929474926E-3
2.227772344E1,-0.000000000E0,2.663159103E-4,-1.864211401E-3
2.229799338E1,-0.000000000E0,-1.864211401E-3,-7.989477599E-4
2.231826338E1,-1.065263641E-3,-7.989477599E-4,-7.989477599E-4
2.233853338E1,-1.065263641E-3,-7.989477599E-4,-7.989477599E-4
2.235880333E1,-0.000000000E0,1.331579522E-3,-7.989477599E-4
2.237907333E1,-0.000000000E0,2.396843163E-3,-1.864211401E-3
2.239934333E1,-1.065263641E-3,2.663159103E-4,-3.994738683E-3
2.241961333E1,-1.065263641E-3,2.663159103E-4,-2.929474926E-3
2.243988328E1,-0.000000000E0,1.331579522E-3,-3.994738683E-3
2.246028328E1,1.065263641E-3,2.663159103E-4,-5.060002208E-3
2.248042323E1,1.065263641E-3,2.663159103E-4,-3.994738683E-3
2.250069323E1,1.065263641E-3,2.663159103E-4,-5.060002208E-3
2.252096323E1,1.065263641E-3,1.331579522E-3,-5.060002208E-3
2.254123318E1,1.065263641E-3,1.331579522E-3,-5.060002208E-3
2.256163318E1,1.065263641E-3,2.663159103E-4,-2.929474926E-3
2.258177312E1,1.065263641E-3,-7.989477599E-4,-1.864211401E-3
2.260204312E1,1.065263641E-3,2.396843163E-3,-2.929474926E-3
2.262231312E1,3.195791040E-3,2.663159103E-4,-2.929474926E-3
2.264258307E1,2.130527282E-3,1.331579522E-3,2.663159103E-4
2.266298307E1,-0.000000000E0,1.331579522E-3,2.663159103E-4
2.268312302E1,1.065263641E-3,-7.989477599E-4,-7.989477599E-4
2.270339302E1,1.065263641E-3,2.663159103E-4,-3.994738683E-3
2.272366292E1,2.130527282E-3,3.462106921E-3,-3.994738683E-3
2.274393297E1,3.195791040E-3,1.331579522E-3,-1.864211401E-3
2.276433297E1,3.195791040E-3,-1.864211401E-3,-1.864211401E-3
2.278447292E1,6.391582079E-3,2.396843163E-3,-5.060002208E-3
2.280474286E1,7.456845604E-3,4.527370445E-3,-3.994738683E-3
2.282501281E1,5.326318089E-3,3.462106921E-3,-1.864211401E-3
2.284528281E1,3.195791040E-3,3.462106921E-3,2.663159103E-4
2.286555276E1,2.130527282E-3,2.663159103E-4,2.663159103E-4
2.288582276E1,1.065263641E-3,-1.864211401E-3,-1.864211401E-3
2.290609271E1,2.130527282E-3,-7.989477599E-4,-2.929474926E-3
2.292636265E1,2.130527282E-3,2.663159103E-4,-2.929474926E-3
2.294663265E1,2.130527282E-3,-7.989477599E-4,-1.864211401E-3
2.296690255E1,4.261054564E-3,2.663159103E-4,-3.994738683E-3
2.298717255E1,4.261054564E-3,2.396843163E-3,-3.994738683E-3
2.300744250E1,4.261054564E-3,2.396843163E-3,-7.989477599E-4
2.302771250E1,2.130527282E-3,2.663159103E-4,1.331579522E-3
2.304798239E1,2.130527282E-3,2.663159103E-4,2.663159103E-4
2.306825239E1,2.130527282E-3,1.331579522E-3,-7.989477599E-4
2.308852239E1,2.130527282E-3,2.396843163E-3,-7.989477599E-4
2.310879234E1,-0.000000000E0,2.396843163E-3,-2.929474926E-3
2.312906229E1,-0.000000000E0,3.462106921E-3,-1.864211401E-3
2.314933224E1,2.130527282E-3,1.331579522E-3,-3.994738683E-3
2.316960224E1,1.065263641E-3,-7.989477599E-4,-2.929474926E-3
2.318987219E1,1.065263641E-3,-7.989477599E-4,-1.864211401E-3
2.321014213E1,2.130527282E-3,2.396843163E-3,-7.989477599E-4
2.323041208E1,2.130527282E-3,2.663159103E-4,2.663159103E-4
2.325068203E1,2.130527282E-3,-7.989477599E-4,-7.989477599E-4
2.327095198E1,1.065263641E-3,-1.864211401E-3,-1.864211401E-3
2.329122193E1,-0.000000000E0,-7.989477599E-4,-1.864211401E-3
2.331149187E1,-1.065263641E-3,2.663159103E-4,-7.989477599E-4
2.333176187E1,-1.065263641E-3,-7.989477599E-4,-7.989477599E-4
2.335203182E1,-1.065263641E-3,2.663159103E-4,2.663159103E-4
2.337230177E1,-1.065263641E-3,2.663159103E-4,2.663159103E-4
2.339257172E1,-1.065263641E-3,-7.989477599E-4,3.462106921E-3
2.341284167E1,-1.065263641E-3,2.663159103E-4,4.527370445E-3
2.343311161E1,-0.000000000E0,-1.864211401E-3,4.527370445E-3
2.345338156E1,-1.065263641E-3,-3.994738683E-3,6.657897960E-3
2.347365151E1,-1.065263641E-3,-7.989477599E-4,7.723161485E-3
2.349392146E1,-0.000000000E0,-7.989477599E-4,4.527370445E-3
2.351419140E1,-0.000000000E0,-5.060002208E-3,3.462106921E-3
2.353446135E1,-1.065263641E-3,-3.994738683E-3,5.592633970E-3
2.355473130E1,-0.000000000E0,-1.864211401E-3,6.657897960E-3
2.357500135E1,-1.065263641E-3,-5.060002208E-3,5.592633970E-3
2.359527114E1,-0.000000000E0,-1.864211401E-3,3.462106921E-3
2.361554114E1,-0.000000000E0,1.331579522E-3,3.462106921E-3
2.363581104E1,-0.000000000E0,2.663159103E-4,4.527370445E-3
2.365608099E1,-1.065263641E-3,2.663159103E-4,4.527370445E-3
2.367635094E1,1.065263641E-3,2.663159103E-4,4.527370445E-3
2.369662088E1,2.130527282E-3,-3.994738683E-3,4.527370445E-3
2.371689083E1,2.130527282E-3,-3.994738683E-3,5.592633970E-3
2.373716078E1,1.065263641E-3,2.396843163E-3,5.592633970E-3
2.375743068E1,3.195791040E-3,3.462106921E-3,4.527370445E-3
2.377770068E1,4.261054564E-3,-1.864211401E-3,3.462106921E-3
2.379797057E1,3.195791040E-3,-2.929474926E-3,3.462106921E-3
2.381824052E1,1.065263641E-3,2.396843163E-3,4.527370445E-3
2.383851047E1,-0.000000000E0,2.663159103E-4,5.592633970E-3
2.385878042E1,1.065263641E-3,-2.929474926E-3,3.462106921E-3
2.387905031E1,2.130527282E-3,-1.864211401E-3,4.527370445E-3
2.389932026E1,2.130527282E-3,1.331579522E-3,2.396843163E-3
2.391959021E1,1.065263641E-3,2.396843163E-3,3.462106921E-3
2.393986010E1,3.195791040E-3,2.396843163E-3,3.462106921E-3
2.396026010E1,3.195791040E-3,1.331579522E-3,3.462106921E-3
2.398040000E1,2.130527282E-3,2.396843163E-3,4.527370445E-3
2.400066995E1,1.065263641E-3,1.331579522E-3,5.592633970E-3
2.402093984E1,1.065263641E-3,2.663159103E-4,4.527370445E-3
2.404120979E1,1.065263641E-3,-7.989477599E-4,3.462106921E-3
2.406160979E1,1.065263641E-3,1.331579522E-3,4.527370445E-3
2.408174963E1,2.130527282E-3,2.663159103E-4,4.527370445E-3
2.410201958E1,2.130527282E-3,-7.989477599E-4,2.396843163E-3
2.412228953E1,4.261054564E-3,-7.989477599E-4,2.396843163E-3
2.414255942E1,4.261054564E-3,2.663159103E-4,3.462106921E-3
2.416295942E1,3.195791040E-3,2.396843163E-3,4.527370445E-3
2.418309927E1,4.261054564E-3,2.663159103E-4,4.527370445E-3
2.420336922E1,2.130527282E-3,1.331579522E-3,3.462106921E-3
2.422363916E1,3.195791040E-3,3.462106921E-3,2.396843163E-3
2.424390906E1,5.326318089E-3,2.396843163E-3,2.396843163E-3
2.426417901E1,4.261054564E-3,4.527370445E-3,3.462106921E-3
2.428444890E1,3.195791040E-3,4.527370445E-3,4.527370445E-3
2.430471885E1,2.130527282E-3,2.663159103E-4,2.396843163E-3
2.432498875E1,-1.065263641E-3,-1.864211401E-3,-2.929474926E-3
2.434525870E1,-0.000000000E0,2.663159103E-4,2.663159103E-4
2.436552859E1,-0.000000000E0,-2.929474926E-3,1.331579522E-3
2.438579854E1,-3.195791040E-3,-6.125265732E-3,-1.864211401E-3
2.440606844E1,-3.195791040E-3,-2.929474926E-3,-5.060002208E-3
2.442633838E1,-0.000000000E0,2.663159103E-4,-3.994738683E-3
2.444660828E1,-1.065263641E-3,2.663159103E-4,-3.994738683E-3
2.446687818E1,-2.130527282E-3,-1.864211401E-3,-2.929474926E-3
2.448714812E1,-2.130527282E-3,-2.929474926E-3,-2.929474926E-3
2.450753682E1,-1.065263641E-3,-2.929474926E-3,-1.864211401E-3
2.452768797E1,-2.130527282E-3,-7.989477599E-4,-7.989477599E-4
2.454795786E1,-3.195791040E-3,2.396843163E-3,2.663159103E-4
2.456822781E1,-2.130527282E-3,-7.989477599E-4,-1.864211401E-3
2.458849771E1,-1.065263641E-3,-5.060002208E-3,-1.864211401E-3
2.460876760E1,-1.065263641E-3,-7.989477599E-4,-2.929474926E-3
2.462903755E1,-0.000000000E0,1.331579522E-3,-1.864211401E-3
2.464930745E1,-1.065263641E-3,-7.989477599E-4,-1.864211401E-3
2.466957734E1,1.065263641E-3,-3.994738683E-3,-7.989477599E-4
2.468984724E1,2.130527282E-3,-2.929474926E-3,-7.989477599E-4
2.471011719E1,-0.000000000E0,1.331579522E-3,-7.989477599E-4
2.473038708E1,-0.000000000E0,2.396843163E-3,-7.989477599E-4
2.475065698E1,-0.000000000E0,1.331579522E-3,-7.989477599E-4
2.477092692E1,-0.000000000E0,2.663159103E-4,-7.989477599E-4
2.479119682E1,1.065263641E-3,-7.989477599E-4,2.663159103E-4
2.481146672E1,-0.000000000E0,1.331579522E-3,-7.989477599E-4
2.483173661E1,-0.000000000E0,1.331579522E-3,2.663159103E-4
2.485200651E1,-0.000000000E0,1.331579522E-3,2.663159103E-4
2.487227646E1,-0.000000000E0,-7.989477599E-4,-7.989477599E-4
2.489254635E1,2.130527282E-3,-1.864211401E-3,-7.989477599E-4
2.491281625E1,2.130527282E-3,1.331579522E-3,-7.989477599E-4
2.493321625E1,1.065263641E-3,1.331579522E-3,-7.989477599E-4
2.495335609E1,2.130527282E-3,-2.929474926E-3,2.663159103E-4
2.497362599E1,1.065263641E-3,-7.989477599E-4,1.331579522E-3
2.499389588E1,1.065263641E-3,-7.989477599E-4,1.331579522E-3
2.501416578E1,1.065263641E-3,-7.989477599E-4,-7.989477599E-4
2.503443568E1,-0.000000000E0,2.663159103E-4,-7.989477599E-4
2.505470557E1,-0.000000000E0,2.396843163E-3,1.331579522E-3
2.507497547E1,-0.000000000E0,1.331579522E-3,1.331579522E-3
2.509524536E1,-0.000000000E0,2.663159103E-4,-3.994738683E-3
2.511551526E1,3.195791040E-3,2.396843163E-3,-1.864211401E-3
2.513578521E1,3.195791040E-3,2.663159103E-4,-7.989477599E-4
2.515605505E1,-2.130527282E-3,-7.989477599E-4,-7.989477599E-4
2.517632500E1,-0.000000000E0,1.331579522E-3,-7.989477599E-4
2.519659489E1,2.130527282E-3,4.527370445E-3,-1.864211401E-3
2.521686479E1,-1.065263641E-3,-1.864211401E-3,-1.864211401E-3
2.523713469E1,-1.065263641E-3,-3.994738683E-3,-7.989477599E-4
2.525740458E1,2.130527282E-3,2.663159103E-4,-7.989477599E-4
2.527767442E1,3.195791040E-3,2.663159103E-4,-7.989477599E-4
2.529794437E1,2.130527282E-3,-2.929474926E-3,-1.864211401E-3
2.531821422E1,2.130527282E-3,-1.864211401E-3,-7.989477599E-4
2.533848411E1,2.130527282E-3,-7.989477599E-4,-7.989477599E-4
2.535875401E1,1.065263641E-3,-7.989477599E-4,-1.864211401E-3
2.537902390E1,2.130527282E-3,2.663159103E-4,-2.929474926E-3
2.539929380E1,1.065263641E-3,2.663159103E-4,-2.929474926E-3
2.541956370E1,1.065263641E-3,2.663159103E-4,-1.864211401E-3
2.543983359E1,1.065263641E-3,2.396843163E-3,-7.989477599E-4
2.546023359E1,1.065263641E-3,1.331579522E-3,-1.864211401E-3
2.548037338E1,3.195791040E-3,1.331579522E-3,-1.864211401E-3
2.550064328E1,4.261054564E-3,2.663159103E-4,-2.929474926E-3
2.552091318E1,1.065263641E-3,-7.989477599E-4,-2.929474926E-3
2.554118307E1,-0.000000000E0,1.331579522E-3,-3.994738683E-3
2.556158307E1,-0.000000000E0,1.331579522E-3,-3.994738683E-3
2.558172281E1,1.065263641E-3,-1.864211401E-3,-3.994738683E-3
2.560199271E1,3.195791040E-3,-1.864211401E-3,-1.864211401E-3
2.562226260E1,4.261054564E-3,2.663159103E-4,-2.929474926E-3
2.564253250E1,5.326318089E-3,4.527370445E-3,-2.929474926E-3
2.566293250E1,5.326318089E-3,4.527370445E-3,-2.929474926E-3
2.568307224E1,5.326318089E-3,-7.989477599E-4,2.663159103E-4
2.570334213E1,2.130527282E-3,-7.989477599E-4,2.663159103E-4
2.572361203E1,-1.065263641E-3,2.663159103E-4,-1.864211401E-3
2.574388192E1,1.065263641E-3,-1.864211401E-3,-5.060002208E-3
2.576428193E1,1.065263641E-3,-7.989477599E-4,-2.929474926E-3
2.578442161E1,2.130527282E-3,3.462106921E-3,-1.864211401E-3
2.580469156E1,4.261054564E-3,5.592633970E-3,-7.989477599E-4
2.582496146E1,4.261054564E-3,5.592633970E-3,-1.864211401E-3
2.584523135E1,3.195791040E-3,6.657897960E-3,-2.929474926E-3
2.586550120E1,3.195791040E-3,2.663159103E-4,1.331579522E-3
2.588577109E1,4.261054564E-3,-2.929474926E-3,2.396843163E-3
2.590604099E1,6.391582079E-3,1.331579522E-3,-7.989477599E-4
2.592631088E1,5.326318089E-3,2.396843163E-3,2.663159103E-4
2.594658073E1,3.195791040E-3,-1.864211401E-3,1.331579522E-3
2.596685062E1,3.195791040E-3,-3.994738683E-3,2.396843163E-3
2.598712042E1,4.261054564E-3,-1.864211401E-3,1.331579522E-3
2.600739036E1,4.261054564E-3,-2.929474926E-3,2.663159103E-4
2.602766026E1,2.130527282E-3,-1.864211401E-3,-1.864211401E-3
2.604793010E1,-0.000000000E0,2.663159103E-4,-2.929474926E-3
2.606819995E1,-0.000000000E0,2.396843163E-3,-7.989477599E-4
2.608846989E1,1.065263641E-3,2.396843163E-3,1.331579522E-3
2.610885854E1,1.065263641E-3,3.462106921E-3,1.331579522E-3
2.612900963E1,-1.065263641E-3,4.527370445E-3,2.396843163E-3
2.614927953E1,-2.130527282E-3,6.657897960E-3,2.396843163E-3
2.616954937E1,-2.130527282E-3,3.462106921E-3,1.331579522E-3
2.618981922E1,-0.000000000E0,1.331579522E-3,2.663159103E-4
2.621008911E1,2.130527282E-3,2.663159103E-4,-1.864211401E-3
2.623035901E1,2.130527282E-3,1.331579522E-3,-3.994738683E-3
2.625062885E1,2.130527282E-3,2.663159103E-4,-6.125265732E-3
2.627089870E1,1.065263641E-3,1.331579522E-3,-5.060002208E-3
2.629116859E1,-0.000000000E0,2.663159103E-4,-1.864211401E-3
2.631143844E1,-3.195791040E-3,-2.929474926E-3,1.331579522E-3
2.633170833E1,-4.261054564E-3,-2.929474926E-3,2.396843163E-3
2.635197818E1,-5.326318089E-3,-1.864211401E-3,1.331579522E-3
2.637224807E1,-5.326318089E-3,-7.989477599E-4,3.462106921E-3
2.639251792E1,-5.326318089E-3,-7.989477599E-4,4.527370445E-3
2.641278776E1,-4.261054564E-3,2.663159103E-4,3.462106921E-3
2.643305765E1,-1.065263641E-3,-7.989477599E-4,4.527370445E-3
2.645332750E1,-1.065263641E-3,-2.929474926E-3,5.592633970E-3
2.647359739E1,-1.065263641E-3,-1.864211401E-3,5.592633970E-3
2.649386724E1,-0.000000000E0,-3.994738683E-3,6.657897960E-3
2.651413708E1,-1.065263641E-3,-2.929474926E-3,5.592633970E-3
2.653440698E1,-0.000000000E0,-7.989477599E-4,2.396843163E-3
2.655467682E1,1.065263641E-3,-3.994738683E-3,2.396843163E-3
2.657494667E1,-3.195791040E-3,-2.929474926E-3,2.396843163E-3
2.659521656E1,-0.000000000E0,2.663159103E-4,5.592633970E-3
2.661548640E1,2.130527282E-3,-1.864211401E-3,5.592633970E-3
2.663575625E1,1.065263641E-3,-7.989477599E-4,4.527370445E-3
2.665602614E1,-1.065263641E-3,2.396843163E-3,3.462106921E-3
2.667629599E1,-1.065263641E-3,1.331579522E-3,3.462106921E-3
2.669656583E1,-0.000000000E0,-7.989477599E-4,3.462106921E-3
2.671683573E1,3.195791040E-3,-7.989477599E-4,2.396843163E-3
2.673710557E1,3.195791040E-3,1.331579522E-3,3.462106921E-3
2.675737542E1,1.065263641E-3,2.663159103E-4,3.462106921E-3
2.677764531E1,-0.000000000E0,-1.864211401E-3,4.527370445E-3
2.679791515E1,2.130527282E-3,-2.929474926E-3,5.592633970E-3
2.681818500E1,3.195791040E-3,-1.864211401E-3,4.527370445E-3
2.683845484E1,3.195791040E-3,-7.989477599E-4,2.396843163E-3
2.685872474E1,2.130527282E-3,2.663159103E-4,2.663159103E-4
2.687899458E1,1.065263641E-3,-7.989477599E-4,2.396843163E-3
2.689926443E1,1.065263641E-3,2.663159103E-4,3.462106921E-3
2.691953427E1,2.130527282E-3,1.331579522E-3,3.462106921E-3
2.693980411E1,2.130527282E-3,1.331579522E-3,2.396843163E-3
2.696020411E1,2.130527282E-3,3.462106921E-3,2.396843163E-3
2.698034385E1,2.130527282E-3,4.527370445E-3,3.462106921E-3
2.700061370E1,2.130527282E-3,2.396843163E-3,4.527370445E-3
2.702088354E1,2.130527282E-3,1.331579522E-3,4.527370445E-3
2.704115338E1,2.130527282E-3,2.663159103E-4,3.462106921E-3
2.706155338E1,2.130527282E-3,-7.989477599E-4,2.396843163E-3
2.708169307E1,3.195791040E-3,-7.989477599E-4,2.396843163E-3
2.710196297E1,4.261054564E-3,-7.989477599E-4,2.396843163E-3
2.712223281E1,4.261054564E-3,2.663159103E-4,2.396843163E-3
2.714250265E1,5.326318089E-3,2.663159103E-4,3.462106921E-3
2.716290265E1,3.195791040E-3,-7.989477599E-4,2.396843163E-3
2.718304234E1,3.195791040E-3,2.663159103E-4,1.331579522E-3
2.720331219E1,3.195791040E-3,3.462106921E-3,1.331579522E-3
2.722358203E1,1.065263641E-3,3.462106921E-3,2.396843163E-3
2.724385187E1,2.130527282E-3,1.331579522E-3,2.396843163E-3
2.726408234E1,2.130527282E-3,-7.989477599E-4,3.462106921E-3
2.728439151E1,2.130527282E-3,2.396843163E-3,1.331579522E-3
2.730466135E1,2.130527282E-3,3.462106921E-3,1.331579522E-3
2.732493125E1,1.065263641E-3,-7.989477599E-4,2.663159103E-4
2.734520109E1,-1.065263641E-3,-7.989477599E-4,-7.989477599E-4
2.736560109E1,1.065263641E-3,1.331579522E-3,-7.989477599E-4
2.738574078E1,-0.000000000E0,-7.989477599E-4,-1.864211401E-3
2.740601068E1,-2.130527282E-3,-7.989477599E-4,-1.864211401E-3
2.742628047E1,-3.195791040E-3,2.663159103E-4,-2.929474926E-3
2.744655031E1,-1.065263641E-3,2.663159103E-4,-2.929474926E-3
2.746682015E1,-1.065263641E-3,-7.989477599E-4,-1.864211401E-3
2.748709000E1,-1.065263641E-3,-1.864211401E-3,-1.864211401E-3
2.750735984E1,-1.065263641E-3,-1.864211401E-3,-1.864211401E-3
2.752762974E1,-1.065263641E-3,-1.864211401E-3,1.331579522E-3
2.754789953E1,-1.065263641E-3,-7.989477599E-4,-7.989477599E-4
2.756816937E1,1.065263641E-3,-2.929474926E-3,-1.864211401E-3
2.758843922E1,-0.000000000E0,-5.060002208E-3,-2.929474926E-3
2.760870906E1,-1.065263641E-3,-3.994738683E-3,-1.864211401E-3
2.762897890E1,-1.065263641E-3,-1.864211401E-3,-7.989477599E-4
2.764924875E1,1.065263641E-3,-1.864211401E-3,-7.989477599E-4
2.766951859E1,-0.000000000E0,-1.864211401E-3,-7.989477599E-4
2.768978844E1,-1.065263641E-3,-2.929474926E-3,-7.989477599E-4
2.771005823E1,-1.065263641E-3,-7.989477599E-4,-7.989477599E-4
2.773032807E1,-1.065263641E-3,1.331579522E-3,-7.989477599E-4
2.775059792E1,-0.000000000E0,2.663159103E-4,1.331579522E-3
2.777086776E1,-0.000000000E0,2.663159103E-4,-1.864211401E-3
2.779113760E1,-1.065263641E-3,-7.989477599E-4,-2.929474926E-3
2.781140745E1,-1.065263641E-3,-7.989477599E-4,-2.929474926E-3
2.783167724E1,-1.065263641E-3,-7.989477599E-4,-1.864211401E-3
2.785194703E1,-0.000000000E0,-1.864211401E-3,-2.929474926E-3
2.787221692E1,1.065263641E-3,-7.989477599E-4,-1.864211401E-3
2.789248677E1,1.065263641E-3,2.396843163E-3,-1.864211401E-3
2.791275656E1,1.065263641E-3,2.663159103E-4,-2.929474926E-3
2.793302640E1,-1.065263641E-3,-3.994738683E-3,2.396843163E-3
2.795329625E1,-2.130527282E-3,-1.864211401E-3,3.462106921E-3
2.797356609E1,-0.000000000E0,-2.929474926E-3,1.331579522E-3
2.799383594E1,-0.000000000E0,-2.929474926E-3,-7.989477599E-4
2.801410573E1,-2.130527282E-3,-1.864211401E-3,-2.929474926E-3
2.803437557E1,-1.065263641E-3,-7.989477599E-4,-1.864211401E-3
2.805464542E1,-1.065263641E-3,-2.929474926E-3,-1.864211401E-3
2.807491521E1,-2.130527282E-3,-5.060002208E-3,-2.929474926E-3
2.809518505E1,-2.130527282E-3,-1.864211401E-3,-3.994738683E-3
2.811545489E1,-1.065263641E-3,1.331579522E-3,-2.929474926E-3
2.813572474E1,-0.000000000E0,3.462106921E-3,-3.994738683E-3
2.815599453E1,1.065263641E-3,2.396843163E-3,-3.994738683E-3
2.817626437E1,1.065263641E-3,-7.989477599E-4,-1.864211401E-3
2.819653422E1,-1.065263641E-3,-1.864211401E-3,-7.989477599E-4
2.821680406E1,-2.130527282E-3,-1.864211401E-3,-7.989477599E-4
2.823707385E1,-1.065263641E-3,-7.989477599E-4,-2.929474926E-3
2.825734370E1,1.065263641E-3,-3.994738683E-3,-2.929474926E-3
2.827761354E1,-0.000000000E0,-5.060002208E-3,-1.864211401E-3
2.829788338E1,-1.065263641E-3,-2.929474926E-3,-1.864211401E-3
2.831815318E1,-1.065263641E-3,-2.929474926E-3,-1.864211401E-3
2.833842302E1,-0.000000000E0,-3.994738683E-3,-1.864211401E-3
2.835869286E1,-1.065263641E-3,-3.994738683E-3,-3.994738683E-3
2.837896271E1,-1.065263641E-3,-1.864211401E-3,-1.864211401E-3
2.839923250E1,-0.000000000E0,1.331579522E-3,-7.989477599E-4
2.841950234E1,-1.065263641E-3,1.331579522E-3,-1.864211401E-3
2.843977219E1,-0.000000000E0,-7.989477599E-4,-1.864211401E-3
2.846017219E1,-0.000000000E0,-7.989477599E-4,-7.989477599E-4
2.848031187E1,-3.195791040E-3,-1.864211401E-3,-7.989477599E-4
2.850058167E1,-1.065263641E-3,-3.994738683E-3,-7.989477599E-4
2.852085151E1,1.065263641E-3,-1.864211401E-3,-7.989477599E-4
2.854112135E1,-0.000000000E0,-1.864211401E-3,-2.929474926E-3
2.856152135E1,-0.000000000E0,-2.929474926E-3,-1.864211401E-3
2.858166104E1,1.065263641E-3,-2.929474926E-3,-1.864211401E-3
2.860193088E1,2.130527282E-3,-7.989477599E-4,-5.060002208E-3
2.862220073E1,3.195791040E-3,-2.929474926E-3,-2.929474926E-3
2.864247057E1,1.065263641E-3,2.663159103E-4,-7.989477599E-4
2.866287057E1,2.130527282E-3,4.527370445E-3,-1.864211401E-3
2.868301021E1,3.195791040E-3,1.331579522E-3,-1.864211401E-3
2.870328005E1,2.130527282E-3,-7.989477599E-4,-7.989477599E-4
2.872354989E1,2.130527282E-3,1.331579522E-3,2.663159103E-4
2.874381974E1,1.065263641E-3,1.331579522E-3,-7.989477599E-4
2.876421974E1,-0.000000000E0,2.663159103E-4,-7.989477599E-4
2.878435942E1,-0.000000000E0,-7.989477599E-4,-1.864211401E-3
2.880462927E1,-0.000000000E0,-1.864211401E-3,-2.929474926E-3
2.882489911E1,1.065263641E-3,-7.989477599E-4,-2.929474926E-3
2.884516896E1,3.195791040E-3,1.331579522E-3,-2.929474926E-3
2.886543880E1,3.195791040E-3,1.331579522E-3,-2.929474926E-3
2.888570864E1,2.130527282E-3,-7.989477599E-4,-7.989477599E-4
2.890597849E1,1.065263641E-3,2.663159103E-4,-7.989477599E-4
2.892624833E1,1.065263641E-3,1.331579522E-3,-7.989477599E-4
2.894651818E1,1.065263641E-3,2.663159103E-4,-7.989477599E-4
2.896678802E1,1.065263641E-3,2.663159103E-4,-1.864211401E-3
2.898705786E1,1.065263641E-3,2.663159103E-4,-1.864211401E-3
2.900732771E1,-0.000000000E0,1.331579522E-3,-7.989477599E-4
2.902759755E1,1.065263641E-3,-1.864211401E-3,-1.864211401E-3
2.904786745E1,2.130527282E-3,-1.864211401E-3,-1.864211401E-3
2.906813729E1,2.130527282E-3,2.663159103E-4,-2.929474926E-3
2.908840713E1,1.065263641E-3,1.331579522E-3,-2.929474926E-3
2.910867698E1,1.065263641E-3,2.663159103E-4,-2.929474926E-3
2.912894682E1,3.195791040E-3,1.331579522E-3,-1.864211401E-3
2.914921666E1,2.130527282E-3,1.331579522E-3,-1.864211401E-3
2.916948651E1,2.130527282E-3,2.663159103E-4,-1.864211401E-3
2.918975635E1,2.130527282E-3,-7.989477599E-4,-7.989477599E-4
2.921002614E1,1.065263641E-3,2.663159103E-4,-7.989477599E-4
2.923029609E1,1.065263641E-3,2.396843163E-3,-1.864211401E-3
2.925056594E1,1.065263641E-3,1.331579522E-3,-2.929474926E-3
2.927083578E1,1.065263641E-3,2.663159103E-4,-7.989477599E-4
2.929110562E1,2.130527282E-3,2.663159103E-4,-2.929474926E-3
2.931137547E1,2.130527282E-3,-7.989477599E-4,-1.864211401E-3
2.933164531E1,2.130527282E-3,2.663159103E-4,-7.989477599E-4
2.935191521E1,1.065263641E-3,1.331579522E-3,-7.989477599E-4
2.937218505E1,2.130527282E-3,1.331579522E-3,-7.989477599E-4
2.939245489E1,1.065263641E-3,1.331579522E-3,-1.864211401E-3
2.941272474E1,3.195791040E-3,-1.864211401E-3,2.663159103E-4
2.943299463E1,1.065263641E-3,-1.864211401E-3,1.331579522E-3
2.945326448E1,1.065263641E-3,1.331579522E-3,-1.864211401E-3
2.947353432E1,2.130527282E-3,-7.989477599E-4,-2.929474926E-3
2.949380416E1,1.065263641E-3,-7.989477599E-4,-1.864211401E-3
2.951407406E1,1.065263641E-3,2.396843163E-3,2.663159103E-4
2.953434390E1,1.065263641E-3,2.663159103E-4,2.663159103E-4
2.955461375E1,1.065263641E-3,-1.864211401E-3,-7.989477599E-4
2.957488359E1,-0.000000000E0,2.396843163E-3,-1.864211401E-3
2.959515349E1,-1.065263641E-3,1.331579522E-3,-1.864211401E-3
2.961542333E1,-2.130527282E-3,3.462106921E-3,-1.864211401E-3
2.963569323E1,-2.130527282E-3,2.663159103E-4,-7.989477599E-4
2.965596307E1,-2.130527282E-3,-1.864211401E-3,1.331579522E-3
2.967623297E1,-1.065263641E-3,-1.864211401E-3,2.663159103E-4
2.969650281E1,-0.000000000E0,2.663159103E-4,1.331579522E-3
2.971677265E1,-1.065263641E-3,2.663159103E-4,2.396843163E-3
2.973704255E1,-0.000000000E0,-7.989477599E-4,2.396843163E-3
2.975731239E1,-0.000000000E0,-1.864211401E-3,3.462106921E-3
2.977758229E1,-0.000000000E0,-7.989477599E-4,4.527370445E-3
2.979785213E1,-1.065263641E-3,2.663159103E-4,5.592633970E-3
2.981812203E1,-1.065263641E-3,-7.989477599E-4,5.592633970E-3
2.983839193E1,-0.000000000E0,-1.864211401E-3,5.592633970E-3
2.985866177E1,-1.065263641E-3,-7.989477599E-4,5.592633970E-3
2.987893167E1,-1.065263641E-3,2.663159103E-4,5.592633970E-3
2.989920151E1,1.065263641E-3,2.663159103E-4,4.527370445E-3
2.991947140E1,2.130527282E-3,1.331579522E-3,4.527370445E-3
2.993974130E1,2.130527282E-3,1.331579522E-3,2.396843163E-3
2.996014130E1,2.130527282E-3,-7.989477599E-4,3.462106921E-3
2.998028104E1,1.065263641E-3,2.663159103E-4,5.592633970E-3
3.000055094E1,2.130527282E-3,-7.989477599E-4,5.592633970E-3
3.002082083E1,1.065263641E-3,2.663159103E-4,4.527370445E-3
3.004109068E1,-0.000000000E0,2.663159103E-4,3.462106921E-3
3.006149068E1,1.065263641E-3,-7.989477599E-4,5.592633970E-3
3.008163047E1,1.065263641E-3,-7.989477599E-4,4.527370445E-3
3.010190031E1,2.130527282E-3,-7.989477599E-4,3.462106921E-3
3.012217021E1,3.195791040E-3,-7.989477599E-4,3.462106921E-3
3.014244010E1,3.195791040E-3,2.663159103E-4,3.462106921E-3
3.016284010E1,3.195791040E-3,1.331579522E-3,4.527370445E-3
3.018297989E1,3.195791040E-3,1.331579522E-3,3.462106921E-3
3.020324979E1,1.065263641E-3,3.462106921E-3,2.396843163E-3
3.022351969E1,2.130527282E-3,3.462106921E-3,2.396843163E-3
3.024378958E1,4.261054564E-3,2.663159103E-4,4.527370445E-3
3.026394166E1,3.195791040E-3,3.462106921E-3,6.657897960E-3
3.028433015E1,4.261054564E-3,4.527370445E-3,6.657897960E-3
3.030459948E1,4.261054564E-3,3.462106921E-3,4.527370445E-3
3.032486932E1,2.130527282E-3,1.331579522E-3,3.462106921E-3
3.034513917E1,4.261054564E-3,3.462106921E-3,4.527370445E-3
3.036553916E1,4.261054564E-3,2.663159103E-4,4.527370445E-3
3.038567896E1,3.195791040E-3,3.462106921E-3,2.396843163E-3
3.040594885E1,3.195791040E-3,5.592633970E-3,2.396843163E-3
3.042621875E1,3.195791040E-3,4.527370445E-3,1.331579522E-3
3.044648864E1,3.195791040E-3,3.462106921E-3,2.396843163E-3
3.046675849E1,3.195791040E-3,4.527370445E-3,3.462106921E-3
3.048702838E1,3.195791040E-3,2.396843163E-3,3.462106921E-3
3.050729828E1,3.195791040E-3,1.331579522E-3,3.462106921E-3
3.052756818E1,3.195791040E-3,4.527370445E-3,2.396843163E-3
3.054783807E1,4.261054564E-3,3.462106921E-3,1.331579522E-3
3.056810797E1,3.195791040E-3,-1.864211401E-3,2.396843163E-3
3.058837792E1,-0.000000000E0,-1.864211401E-3,1.331579522E-3
3.060864781E1,-2.130527282E-3,-1.864211401E-3,1.331579522E-3
3.062891765E1,-1.065263641E-3,-1.864211401E-3,-7.989477599E-4
3.064918755E1,-2.130527282E-3,-3.994738683E-3,-7.989477599E-4
3.066945745E1,-1.065263641E-3,-7.190529723E-3,2.663159103E-4
3.068972734E1,-0.000000000E0,-5.060002208E-3,2.663159103E-4
3.070999729E1,1.065263641E-3,-1.864211401E-3,2.663159103E-4
3.073026719E1,4.261054564E-3,4.527370445E-3,-3.994738683E-3
3.075053708E1,6.391582079E-3,7.723161485E-3,-7.190529723E-3
3.077080698E1,6.391582079E-3,7.723161485E-3,-8.255792782E-3
3.079107693E1,4.261054564E-3,7.723161485E-3,-8.255792782E-3
3.081134682E1,-1.065263641E-3,5.592633970E-3,-5.060002208E-3
3.083161672E1,-3.195791040E-3,-3.994738683E-3,2.663159103E-4
3.085188661E1,-3.195791040E-3,-9.321057238E-3,4.527370445E-3
3.087215656E1,-3.195791040E-3,-6.125265732E-3,1.331579522E-3
3.089242646E1,3.195791040E-3,-1.864211401E-3,-9.321057238E-3
3.091269635E1,1.065263618E-2,-2.929474926E-3,-1.251684781E-2
3.093296625E1,1.278316416E-2,-1.038632076E-2,-1.038632076E-2
3.095323620E1,9.587372653E-3,-1.677790284E-2,-7.190529723E-3
3.097350609E1,1.171789970E-2,-1.677790284E-2,-3.994738683E-3
3.099377599E1,1.384842768E-2,-1.145158429E-2,1.331579522E-3
3.101404594E1,7.456845604E-3,-5.060002208E-3,3.462106921E-3
3.103431578E1,-1.065263641E-3,-2.929474926E-3,2.396843163E-3
3.105458573E1,-1.065263641E-3,-2.929474926E-3,2.396843163E-3
3.107485568E1,-0.000000000E0,-5.060002208E-3,-6.125265732E-3
3.109512557E1,-0.000000000E0,2.396843163E-3,-1.784316637E-2
3.111539547E1,-1.065263641E-3,1.091895252E-2,-2.210422046E-2
3.113566531E1,-3.195791040E-3,1.198421605E-2,-1.784316637E-2
3.115593531E1,-7.456845604E-3,6.657897960E-3,-8.255792782E-3
3.117620521E1,-1.065263618E-2,-7.989477599E-4,3.462106921E-3
3.119647510E1,-1.171789970E-2,-9.321057238E-3,1.518000662E-2
3.121674505E1,-8.522109129E-3,-1.677790284E-2,2.050632425E-2
3.123701495E1,-3.195791040E-3,-1.784316637E-2,1.944106072E-2
3.125728484E1,4.261054564E-3,-9.321057238E-3,9.853689000E-3
3.127755479E1,9.587372653E-3,-7.190529723E-3,1.331579522E-3
3.129782469E1,7.456845604E-3,-7.190529723E-3,-6.125265732E-3
3.131809458E1,5.326318089E-3,-3.994738683E-3,-9.321057238E-3
3.133836453E1,4.261054564E-3,3.462106921E-3,-1.145158429E-2
3.135867375E1,1.065263641E-3,8.788425475E-3,-1.145158429E-2
3.137890437E1,-2.130527282E-3,1.304947957E-2,-6.125265732E-3
3.139917432E1,-5.326318089E-3,1.304947957E-2,-7.989477599E-4
3.141944422E1,-4.261054564E-3,1.304947957E-2,4.527370445E-3
3.143971411E1,-4.261054564E-3,1.518000662E-2,5.592633970E-3
3.146011411E1,-3.195791040E-3,1.198421605E-2,3.462106921E-3
3.148025396E1,-1.065263641E-3,6.657897960E-3,1.331579522E-3
3.150052385E1,3.195791040E-3,2.663159103E-4,-1.864211401E-3
3.152079375E1,4.261054564E-3,-3.994738683E-3,-5.060002208E-3
3.154106370E1,4.261054564E-3,-3.994738683E-3,-8.255792782E-3
3.156146370E1,6.391582079E-3,-5.060002208E-3,-9.321057238E-3
3.158160344E1,5.326318089E-3,-7.190529723E-3,-7.190529723E-3
3.160187338E1,4.261054564E-3,-6.125265732E-3,-5.060002208E-3
3.162214328E1,3.195791040E-3,-5.060002208E-3,-1.864211401E-3
3.164241318E1,1.065263641E-3,2.663159103E-4,-7.989477599E-4
3.166281318E1,1.065263641E-3,3.462106921E-3,-7.989477599E-4
3.168295302E1,-1.065263641E-3,6.657897960E-3,2.396843163E-3
3.170322292E1,-3.195791040E-3,8.788425475E-3,2.396843163E-3
3.172349281E1,-2.130527282E-3,5.592633970E-3,-7.989477599E-4
3.174376276E1,-1.065263641E-3,3.462106921E-3,2.663159103E-4
3.176416276E1,-1.065263641E-3,4.527370445E-3,2.663159103E-4
3.178430255E1,1.065263641E-3,4.527370445E-3,2.663159103E-4
3.180457250E1,2.130527282E-3,2.663159103E-4,-7.989477599E-4
3.182484239E1,3.195791040E-3,-1.864211401E-3,-3.994738683E-3
3.184511229E1,4.261054564E-3,-2.929474926E-3,-3.994738683E-3
3.186538219E1,4.261054564E-3,-1.864211401E-3,-3.994738683E-3
3.188565213E1,3.195791040E-3,-7.989477599E-4,-3.994738683E-3
3.190592203E1,2.130527282E-3,1.331579522E-3,-2.929474926E-3
3.192619187E1,1.065263641E-3,2.396843163E-3,-2.929474926E-3
3.194646182E1,1.065263641E-3,3.462106921E-3,2.663159103E-4
3.196673172E1,1.065263641E-3,4.527370445E-3,2.396843163E-3
3.198700166E1,1.065263641E-3,5.592633970E-3,2.396843163E-3
3.200727156E1,1.065263641E-3,5.592633970E-3,1.331579522E-3
3.202754146E1,1.065263641E-3,4.527370445E-3,-7.989477599E-4
3.204781135E1,1.065263641E-3,2.396843163E-3,-7.989477599E-4
3.206808125E1,1.065263641E-3,2.663159103E-4,-7.989477599E-4
3.208835120E1,1.065263641E-3,-7.989477599E-4,-1.864211401E-3
3.210862109E1,1.065263641E-3,2.663159103E-4,-2.929474926E-3
3.212889099E1,2.130527282E-3,-7.989477599E-4,-2.929474926E-3
3.214916088E1,2.130527282E-3,-1.864211401E-3,-2.929474926E-3
3.216943078E1,1.065263641E-3,-7.989477599E-4,-7.989477599E-4
3.218970073E1,2.130527282E-3,2.396843163E-3,2.663159103E-4
3.220997062E1,1.065263641E-3,2.396843163E-3,1.331579522E-3
3.223024052E1,-0.000000000E0,1.331579522E-3,1.331579522E-3
3.225051042E1,-0.000000000E0,1.331579522E-3,2.396843163E-3
3.227078031E1,-1.065263641E-3,1.331579522E-3,1.331579522E-3
3.229105021E1,-1.065263641E-3,2.663159103E-4,2.663159103E-4
3.231132015E1,-1.065263641E-3,2.663159103E-4,2.663159103E-4
3.233159000E1,-0.000000000E0,2.663159103E-4,2.663159103E-4
3.235185989E1,1.065263641E-3,-7.989477599E-4,-1.864211401E-3
3.237212979E1,2.130527282E-3,-2.929474926E-3,-7.989477599E-4
3.239239969E1,-0.000000000E0,-1.864211401E-3,2.663159103E-4
3.241266963E1,-0.000000000E0,2.663159103E-4,1.331579522E-3
3.243293953E1,-2.130527282E-3,-7.989477599E-4,3.462106921E-3
3.245320943E1,-2.130527282E-3,-1.864211401E-3,2.396843163E-3
3.247347932E1,-0.000000000E0,-2.929474926E-3,4.527370445E-3
3.249374922E1,-2.130527282E-3,-7.989477599E-4,7.723161485E-3
3.251401906E1,-2.130527282E-3,2.663159103E-4,6.657897960E-3
3.253428896E1,-1.065263641E-3,-7.989477599E-4,5.592633970E-3
3.255455885E1,-1.065263641E-3,-2.929474926E-3,4.527370445E-3
3.257482880E1,1.065263641E-3,1.331579522E-3,4.527370445E-3
3.259509864E1,1.065263641E-3,-7.989477599E-4,3.462106921E-3
3.261536854E1,1.065263641E-3,-7.989477599E-4,3.462106921E-3
3.263563844E1,-0.000000000E0,2.663159103E-4,2.396843163E-3
3.265590833E1,-0.000000000E0,2.663159103E-4,2.396843163E-3
3.267617823E1,1.065263641E-3,-1.864211401E-3,3.462106921E-3
3.269644812E1,1.065263641E-3,-7.989477599E-4,4.527370445E-3
3.271671802E1,1.065263641E-3,-7.989477599E-4,5.592633970E-3
3.273698792E1,-0.000000000E0,-1.864211401E-3,6.657897960E-3
3.275725781E1,1.065263641E-3,-7.989477599E-4,4.527370445E-3
3.277752771E1,-0.000000000E0,-7.989477599E-4,5.592633970E-3
3.279779755E1,1.065263641E-3,-2.929474926E-3,4.527370445E-3
3.281806745E1,1.065263641E-3,-2.929474926E-3,3.462106921E-3
3.283833734E1,1.065263641E-3,2.663159103E-4,3.462106921E-3
3.285860724E1,3.195791040E-3,1.331579522E-3,2.396843163E-3
3.287887713E1,4.261054564E-3,-7.989477599E-4,2.396843163E-3
3.289914703E1,3.195791040E-3,2.663159103E-4,3.462106921E-3
3.291941692E1,2.130527282E-3,2.663159103E-4,3.462106921E-3
3.293968677E1,-0.000000000E0,2.663159103E-4,3.462106921E-3
3.296008677E1,-0.000000000E0,2.663159103E-4,3.462106921E-3
3.298022651E1,2.130527282E-3,1.331579522E-3,4.527370445E-3
3.300049646E1,3.195791040E-3,1.331579522E-3,3.462106921E-3
3.302076630E1,2.130527282E-3,2.663159103E-4,2.663159103E-4
3.304103620E1,2.130527282E-3,1.331579522E-3,1.331579522E-3
3.306143620E1,1.065263641E-3,2.663159103E-4,2.396843163E-3
3.308157599E1,3.195791040E-3,-7.989477599E-4,2.396843163E-3
3.310184583E1,2.130527282E-3,2.663159103E-4,1.331579522E-3
3.312211573E1,2.130527282E-3,2.396843163E-3,1.331579522E-3
3.314238562E1,3.195791040E-3,3.462106921E-3,1.331579522E-3
3.316278562E1,2.130527282E-3,3.462106921E-3,1.331579522E-3
3.318292536E1,-0.000000000E0,1.331579522E-3,2.396843163E-3
3.320319521E1,1.065263641E-3,-7.989477599E-4,3.462106921E-3
3.322346510E1,2.130527282E-3,1.331579522E-3,3.462106921E-3
3.324373500E1,2.130527282E-3,3.462106921E-3,1.331579522E-3
3.326413500E1,4.261054564E-3,1.331579522E-3,2.396843163E-3
3.328427474E1,4.261054564E-3,-7.989477599E-4,4.527370445E-3
3.330454458E1,3.195791040E-3,2.663159103E-4,4.527370445E-3
3.332481448E1,4.261054564E-3,2.396843163E-3,3.462106921E-3
3.334508437E1,2.130527282E-3,1.331579522E-3,-7.989477599E-4
3.336548437E1,2.130527282E-3,2.396843163E-3,2.663159103E-4
3.338562411E1,4.261054564E-3,2.396843163E-3,2.396843163E-3
3.340589396E1,3.195791040E-3,-7.989477599E-4,1.331579522E-3
3.342616385E1,-1.065263641E-3,2.663159103E-4,-1.864211401E-3
3.344643375E1,-2.130527282E-3,2.396843163E-3,-7.989477599E-4
3.346670359E1,-0.000000000E0,2.663159103E-4,-7.989477599E-4
3.348697349E1,-1.065263641E-3,2.663159103E-4,-2.929474926E-3
3.350724333E1,-1.065263641E-3,-7.989477599E-4,-2.929474926E-3
3.352751323E1,-1.065263641E-3,-2.929474926E-3,-2.929474926E-3
3.354778307E1,-1.065263641E-3,-1.864211401E-3,-2.929474926E-3
3.356805297E1,-0.000000000E0,2.663159103E-4,-1.864211401E-3
3.358832281E1,-0.000000000E0,-1.864211401E-3,-7.989477599E-4
3.360859271E1,-1.065263641E-3,-3.994738683E-3,2.663159103E-4
3.362886255E1,-1.065263641E-3,-1.864211401E-3,-7.989477599E-4
3.364913245E1,-0.000000000E0,-7.989477599E-4,-1.864211401E-3
3.366940224E1,-0.000000000E0,-7.989477599E-4,-7.989477599E-4
3.368967219E1,-1.065263641E-3,-7.989477599E-4,-1.864211401E-3
3.370994203E1,-1.065263641E-3,-1.864211401E-3,-1.864211401E-3
3.373021187E1,-2.130527282E-3,1.331579522E-3,-2.929474926E-3
3.375048177E1,-1.065263641E-3,2.663159103E-4,-2.929474926E-3
3.377075161E1,-1.065263641E-3,2.663159103E-4,-1.864211401E-3
3.379102146E1,-2.130527282E-3,1.331579522E-3,-7.989477599E-4
3.381129135E1,-1.065263641E-3,2.663159103E-4,-1.864211401E-3
3.383156120E1,-1.065263641E-3,-1.864211401E-3,-2.929474926E-3
3.385183104E1,-1.065263641E-3,-7.989477599E-4,-7.989477599E-4
3.387210094E1,-1.065263641E-3,-7.989477599E-4,-1.864211401E-3
3.389237078E1,-1.065263641E-3,-7.989477599E-4,-3.994738683E-3
3.391264062E1,1.065263641E-3,2.663159103E-4,-3.994738683E-3
3.393291047E1,1.065263641E-3,2.663159103E-4,-3.994738683E-3
3.395318036E1,1.065263641E-3,-1.864211401E-3,-1.864211401E-3
3.397345021E1,-1.065263641E-3,-1.864211401E-3,1.331579522E-3
3.399372005E1,-1.065263641E-3,1.331579522E-3,1.331579522E-3
3.401398984E1,-1.065263641E-3,-1.864211401E-3,-7.989477599E-4
3.403425979E1,-1.065263641E-3,-7.989477599E-4,-3.994738683E-3
3.405452963E1,-0.000000000E0,1.331579522E-3,-2.929474926E-3
3.407479948E1,1.065263641E-3,2.663159103E-4,-1.864211401E-3
3.409506932E1,-0.000000000E0,-1.864211401E-3,-2.929474926E-3
3.411533911E1,-1.065263641E-3,2.663159103E-4,-2.929474926E-3
3.413560906E1,-1.065263641E-3,-7.989477599E-4,-1.864211401E-3
3.415587890E1,-1.065263641E-3,2.663159103E-4,-1.864211401E-3
3.417614875E1,-0.000000000E0,1.331579522E-3,-1.864211401E-3
3.419641859E1,1.065263641E-3,2.663159103E-4,-2.929474926E-3
3.421668844E1,1.065263641E-3,-1.864211401E-3,-7.989477599E-4
3.423695828E1,-0.000000000E0,-1.864211401E-3,-7.989477599E-4
3.425722812E1,-0.000000000E0,-7.989477599E-4,-1.864211401E-3
3.427749802E1,1.065263641E-3,-7.989477599E-4,-1.864211401E-3
3.429776786E1,-1.065263641E-3,-7.989477599E-4,-1.864211401E-3
3.431803765E1,-1.065263641E-3,-7.989477599E-4,-2.929474926E-3
3.433830755E1,-0.000000000E0,2.663159103E-4,-7.989477599E-4
3.435857739E1,1.065263641E-3,-1.864211401E-3,2.663159103E-4
3.437884719E1,1.065263641E-3,-1.864211401E-3,-7.989477599E-4
3.439911708E1,-0.000000000E0,-7.989477599E-4,-7.989477599E-4
3.441938693E1,-0.000000000E0,1.331579522E-3,-1.864211401E-3
3.443965677E1,-0.000000000E0,1.331579522E-3,-2.929474926E-3
3.446005677E1,-0.000000000E0,2.663159103E-4,-1.864211401E-3
3.448019640E1,-1.065263641E-3,-1.864211401E-3,-1.864211401E-3
3.450046635E1,-0.000000000E0,-7.989477599E-4,-7.989477599E-4
3.452073609E1,-0.000000000E0,2.663159103E-4,2.663159103E-4
3.454100594E1,-0.000000000E0,2.663159103E-4,-7.989477599E-4
3.456140594E1,-0.000000000E0,2.663159103E-4,-1.864211401E-3
3.458154562E1,1.065263641E-3,-7.989477599E-4,-2.929474926E-3
3.460181547E1,1.065263641E-3,-1.864211401E-3,-2.929474926E-3
3.462208526E1,1.065263641E-3,2.663159103E-4,-2.929474926E-3
3.464235510E1,-0.000000000E0,2.396843163E-3,-1.864211401E-3
3.466275510E1,-0.000000000E0,2.663159103E-4,-7.989477599E-4
3.468289479E1,-0.000000000E0,-1.864211401E-3,2.396843163E-3
3.470316463E1,1.065263641E-3,-1.864211401E-3,2.396843163E-3
3.472343442E1,1.065263641E-3,-2.929474926E-3,2.663159103E-4
3.474370427E1,1.065263641E-3,-7.989477599E-4,-2.929474926E-3
3.476410427E1,2.130527282E-3,1.331579522E-3,-2.929474926E-3
3.478424396E1,1.065263641E-3,-7.989477599E-4,-1.864211401E-3
3.480451375E1,-0.000000000E0,-2.929474926E-3,-2.929474926E-3
3.482478359E1,-0.000000000E0,1.331579522E-3,-2.929474926E-3
3.484505344E1,-1.065263641E-3,2.663159103E-4,-1.864211401E-3
3.486532323E1,-1.065263641E-3,2.663159103E-4,-7.989477599E-4
3.488559307E1,-0.000000000E0,1.331579522E-3,-2.929474926E-3
3.490586292E1,1.065263641E-3,2.663159103E-4,-3.994738683E-3
3.492613271E1,1.065263641E-3,-1.864211401E-3,-1.864211401E-3
3.494640255E1,1.065263641E-3,-1.864211401E-3,-7.989477599E-4
3.496667234E1,-0.000000000E0,-7.989477599E-4,-2.929474926E-3
3.498694219E1,1.065263641E-3,-7.989477599E-4,-1.864211401E-3
3.500721198E1,-0.000000000E0,-7.989477599E-4,-1.864211401E-3
3.502748182E1,-0.000000000E0,-2.929474926E-3,-2.929474926E-3
3.504775161E1,-0.000000000E0,-7.989477599E-4,-7.989477599E-4
3.506802146E1,2.130527282E-3,-1.864211401E-3,-7.989477599E-4
3.508829125E1,1.065263641E-3,-2.929474926E-3,-1.864211401E-3
3.510856104E1,-0.000000000E0,-7.989477599E-4,-1.864211401E-3
3.512883088E1,-0.000000000E0,2.663159103E-4,-1.864211401E-3
3.514910068E1,1.065263641E-3,1.331579522E-3,-1.864211401E-3
3.516937052E1,1.065263641E-3,1.331579522E-3,-7.989477599E-4
3.518964031E1,1.065263641E-3,2.663159103E-4,-2.929474926E-3
3.520991010E1,1.065263641E-3,-1.864211401E-3,-1.864211401E-3
3.523017995E1,1.065263641E-3,-7.989477599E-4,-2.929474926E-3
3.525044974E1,-0.000000000E0,2.663159103E-4,-1.864211401E-3
3.527071953E1,1.065263641E-3,2.663159103E-4,-1.864211401E-3
3.529098937E1,1.065263641E-3,2.663159103E-4,-1.864211401E-3
3.531125916E1,1.065263641E-3,2.663159103E-4,-1.864211401E-3
3.533152896E1,-0.000000000E0,-7.989477599E-4,-1.864211401E-3
3.535179880E1,1.065263641E-3,-7.989477599E-4,-7.989477599E-4
3.537206859E1,-1.065263641E-3,-7.989477599E-4,2.663159103E-4
3.539233838E1,-0.000000000E0,2.663159103E-4,-1.864211401E-3
3.541260823E1,1.065263641E-3,2.663159103E-4,-1.864211401E-3
3.543287802E1,1.065263641E-3,-7.989477599E-4,-7.989477599E-4
3.545314781E1,-0.000000000E0,2.663159103E-4,-7.989477599E-4
3.547341760E1,-0.000000000E0,2.663159103E-4,-7.989477599E-4
3.549368745E1,-0.000000000E0,1.331579522E-3,-7.989477599E-4
3.551395724E1,-0.000000000E0,-7.989477599E-4,-7.989477599E-4
3.553422703E1,1.065263641E-3,-3.994738683E-3,2.663159103E-4
3.555449687E1,1.065263641E-3,-7.989477599E-4,2.396843163E-3
3.557476667E1,1.065263641E-3,1.331579522E-3,-7.989477599E-4
3.559503646E1,2.130527282E-3,-2.929474926E-3,-1.864211401E-3
3.561530625E1,-0.000000000E0,-2.929474926E-3,2.663159103E-4
3.563557609E1,-0.000000000E0,1.331579522E-3,2.663159103E-4
3.565584583E1,2.130527282E-3,-7.989477599E-4,-1.864211401E-3
3.567611562E1,-0.000000000E0,-7.989477599E-4,-1.864211401E-3
3.569638547E1,-0.000000000E0,2.663159103E-4,2.663159103E-4
3.571665531E1,-0.000000000E0,2.663159103E-4,2.663159103E-4
3.573692510E1,-0.000000000E0,2.396843163E-3,2.663159103E-4
3.575719489E1,2.130527282E-3,2.663159103E-4,2.663159103E-4
3.577746469E1,1.065263641E-3,-2.929474926E-3,2.396843163E-3
3.579773448E1,1.065263641E-3,-7.989477599E-4,2.396843163E-3
3.581800427E1,1.065263641E-3,2.663159103E-4,2.396843163E-3
3.583827406E1,2.130527282E-3,-7.989477599E-4,1.331579522E-3
3.585854390E1,2.130527282E-3,-1.864211401E-3,2.396843163E-3
3.587881370E1,-0.000000000E0,-2.929474926E-3,2.396843163E-3
3.589908349E1,-0.000000000E0,-7.989477599E-4,2.396843163E-3
3.591935328E1,1.065263641E-3,2.663159103E-4,2.396843163E-3
3.593962307E1,2.130527282E-3,-1.864211401E-3,3.462106921E-3
3.596002307E1,1.065263641E-3,-2.929474926E-3,4.527370445E-3
3.598016265E1,1.065263641E-3,-2.929474926E-3,4.527370445E-3
3.600043245E1,1.065263641E-3,2.663159103E-4,2.396843163E-3
3.602070224E1,2.130527282E-3,1.331579522E-3,2.396843163E-3
3.604097203E1,2.130527282E-3,2.663159103E-4,2.396843163E-3
3.606137203E1,2.130527282E-3,-1.864211401E-3,2.396843163E-3
3.608151166E1,1.065263641E-3,-2.929474926E-3,2.396843163E-3
3.610178140E1,1.065263641E-3,-7.989477599E-4,2.396843163E-3
3.612205125E1,1.065263641E-3,2.663159103E-4,3.462106921E-3
3.614232104E1,1.065263641E-3,2.663159103E-4,4.527370445E-3
3.616272104E1,2.130527282E-3,-7.989477599E-4,4.527370445E-3
3.618286062E1,2.130527282E-3,-1.864211401E-3,2.396843163E-3
3.620313042E1,2.130527282E-3,-7.989477599E-4,1.331579522E-3
3.622340021E1,2.130527282E-3,2.663159103E-4,3.462106921E-3
3.624367000E1,1.065263641E-3,2.663159103E-4,3.462106921E-3
3.626386120E1,1.065263641E-3,1.331579522E-3,3.462106921E-3
3.628420948E1,3.195791040E-3,1.331579522E-3,3.462106921E-3
3.630447932E1,2.130527282E-3,1.331579522E-3,2.396843163E-3
3.632474911E1,2.130527282E-3,2.663159103E-4,2.396843163E-3
3.634501890E1,2.130527282E-3,2.396843163E-3,3.462106921E-3
3.636541890E1,2.130527282E-3,4.527370445E-3,2.396843163E-3
3.638555849E1,4.261054564E-3,2.396843163E-3,2.396843163E-3
3.640582833E1,5.326318089E-3,-7.989477599E-4,3.462106921E-3
3.642609812E1,3.195791040E-3,2.396843163E-3,4.527370445E-3
3.644636792E1,4.261054564E-3,4.527370445E-3,5.592633970E-3
3.646663771E1,3.195791040E-3,3.462106921E-3,3.462106921E-3
3.648690750E1,2.130527282E-3,1.331579522E-3,2.663159103E-4
3.650717729E1,5.326318089E-3,3.462106921E-3,2.396843163E-3
3.652744708E1,4.261054564E-3,1.331579522E-3,1.331579522E-3
3.654771687E1,2.130527282E-3,2.663159103E-4,1.331579522E-3
3.656798666E1,2.130527282E-3,2.396843163E-3,2.663159103E-4
3.658825646E1,2.130527282E-3,3.462106921E-3,2.663159103E-4
3.660852625E1,1.065263641E-3,1.331579522E-3,2.663159103E-4
3.662879604E1,-0.000000000E0,-1.864211401E-3,-1.864211401E-3
3.664906583E1,-1.065263641E-3,-3.994738683E-3,-1.864211401E-3
3.666933562E1,-1.065263641E-3,-5.060002208E-3,-2.929474926E-3
3.668960542E1,-1.065263641E-3,-3.994738683E-3,-5.060002208E-3
3.670987521E1,1.065263641E-3,-7.989477599E-4,-3.994738683E-3
3.673014500E1,1.065263641E-3,-2.929474926E-3,-3.994738683E-3
3.675041474E1,-3.195791040E-3,-3.994738683E-3,-5.060002208E-3
3.677068453E1,-3.195791040E-3,-1.864211401E-3,-3.994738683E-3
3.679095432E1,-2.130527282E-3,-1.864211401E-3,-2.929474926E-3
3.681122411E1,-1.065263641E-3,-3.994738683E-3,-1.864211401E-3
3.683149390E1,-2.130527282E-3,-2.929474926E-3,-7.989477599E-4
3.685176370E1,-3.195791040E-3,-1.864211401E-3,-2.929474926E-3
3.687203349E1,-3.195791040E-3,-7.989477599E-4,-5.060002208E-3
3.689230328E1,-2.130527282E-3,-7.989477599E-4,-5.060002208E-3
3.691257307E1,-1.065263641E-3,-1.864211401E-3,-5.060002208E-3
3.693284281E1,-2.130527282E-3,-2.929474926E-3,-3.994738683E-3
3.695311260E1,-2.130527282E-3,-2.929474926E-3,-3.994738683E-3
3.697338239E1,-2.130527282E-3,-2.929474926E-3,-3.994738683E-3
3.699365219E1,-1.065263641E-3,-2.929474926E-3,-2.929474926E-3
3.701392198E1,-1.065263641E-3,-1.864211401E-3,-3.994738683E-3
3.703419172E1,-1.065263641E-3,-1.864211401E-3,-3.994738683E-3
3.705446151E1,-1.065263641E-3,-2.929474926E-3,-3.994738683E-3
3.707473130E1,-2.130527282E-3,-1.864211401E-3,-2.929474926E-3
3.709500109E1,-1.065263641E-3,-7.989477599E-4,-3.994738683E-3
3.711527088E1,-0.000000000E0,2.663159103E-4,-2.929474926E-3
3.713554062E1,-0.000000000E0,-7.989477599E-4,-3.994738683E-3
3.715581042E1,-0.000000000E0,-2.929474926E-3,-1.864211401E-3
3.717608021E1,-0.000000000E0,-1.864211401E-3,-7.989477599E-4
3.719635000E1,-0.000000000E0,-7.989477599E-4,-1.864211401E-3
3.721661974E1,-0.000000000E0,-2.929474926E-3,-1.864211401E-3
3.723688953E1,-1.065263641E-3,-1.864211401E-3,-3.994738683E-3
3.725715932E1,-1.065263641E-3,-7.989477599E-4,-2.929474926E-3
3.727742911E1,-0.000000000E0,-1.864211401E-3,-1.864211401E-3
3.729769885E1,-0.000000000E0,-3.994738683E-3,-1.864211401E-3
3.731796864E1,-1.065263641E-3,-1.864211401E-3,-2.929474926E-3
3.733823844E1,-0.000000000E0,-7.989477599E-4,-1.864211401E-3
3.735850818E1,1.065263641E-3,-7.989477599E-4,-2.929474926E-3
3.737877797E1,1.065263641E-3,-7.989477599E-4,-3.994738683E-3
3.739904776E1,-1.065263641E-3,-7.989477599E-4,-2.929474926E-3
3.741931750E1,-1.065263641E-3,-7.989477599E-4,-1.864211401E-3
3.743958729E1,-0.000000000E0,-2.929474926E-3,-1.864211401E-3
3.745998729E1,1.065263641E-3,-1.864211401E-3,-2.929474926E-3
3.748012682E1,2.130527282E-3,-7.989477599E-4,-3.994738683E-3
3.750039661E1,1.065263641E-3,-2.929474926E-3,-2.929474926E-3
3.752066635E1,1.065263641E-3,-7.989477599E-4,-2.929474926E-3
3.754093614E1,2.130527282E-3,-7.989477599E-4,-1.864211401E-3
3.756133614E1,3.195791040E-3,-7.989477599E-4,-7.989477599E-4
3.758147568E1,2.130527282E-3,-2.929474926E-3,-7.989477599E-4
3.760174547E1,-0.000000000E0,-7.989477599E-4,-1.864211401E-3
3.762201521E1,-0.000000000E0,-7.989477599E-4,-2.929474926E-3
3.764228500E1,-0.000000000E0,2.663159103E-4,-2.929474926E-3
3.766268500E1,2.130527282E-3,2.663159103E-4,-1.864211401E-3
3.768282453E1,2.130527282E-3,2.663159103E-4,-2.929474926E-3
3.770309427E1,2.130527282E-3,-1.864211401E-3,-2.929474926E-3
3.772336406E1,1.065263641E-3,-7.989477599E-4,-2.929474926E-3
3.774363380E1,-0.000000000E0,-7.989477599E-4,-1.864211401E-3
3.776403380E1,1.065263641E-3,-2.929474926E-3,-1.864211401E-3
3.778417333E1,1.065263641E-3,-2.929474926E-3,-1.864211401E-3
3.780444312E1,2.130527282E-3,-1.864211401E-3,-2.929474926E-3
3.782471286E1,1.065263641E-3,-7.989477599E-4,-2.929474926E-3
3.784498265E1,1.065263641E-3,-7.989477599E-4,-2.929474926E-3
3.786525239E1,1.065263641E-3,2.663159103E-4,-7.989477599E-4
3.788552219E1,1.065263641E-3,2.663159103E-4,-1.864211401E-3
3.790579192E1,3.195791040E-3,-1.864211401E-3,-2.929474926E-3
3.792606172E1,1.065263641E-3,2.663159103E-4,-2.929474926E-3
3.794633146E1,-0.000000000E0,1.331579522E-3,-1.864211401E-3
3.796660125E1,1.065263641E-3,-1.864211401E-3,-7.989477599E-4
3.798687099E1,1.065263641E-3,-1.864211401E-3,1.331579522E-3
3.800714073E1,-0.000000000E0,-7.989477599E-4,2.663159103E-4
3.802741047E1,-0.000000000E0,-1.864211401E-3,-2.929474926E-3
3.804768026E1,-1.065263641E-3,-1.864211401E-3,-2.929474926E-3
3.806795005E1,1.065263641E-3,1.331579522E-3,-1.864211401E-3
3.808821979E1,2.130527282E-3,-1.864211401E-3,-7.989477599E-4
3.810848953E1,1.065263641E-3,-2.929474926E-3,-1.864211401E-3
3.812875932E1,-1.065263641E-3,2.663159103E-4,-1.864211401E-3
3.814902906E1,-2.130527282E-3,1.331579522E-3,-7.989477599E-4
3.816929885E1,-2.130527282E-3,1.331579522E-3,-1.864211401E-3
3.818956859E1,-0.000000000E0,2.663159103E-4,-7.989477599E-4
3.820983833E1,-0.000000000E0,-1.864211401E-3,-7.989477599E-4
3.823010812E1,-1.065263641E-3,-1.864211401E-3,-7.989477599E-4
3.825037786E1,-0.000000000E0,-2.929474926E-3,-1.864211401E-3
3.827064760E1,1.065263641E-3,-1.864211401E-3,-7.989477599E-4
3.829091739E1,-1.065263641E-3,-7.989477599E-4,2.663159103E-4
3.831118708E1,-2.130527282E-3,-3.994738683E-3,2.663159103E-4
3.833145687E1,-2.130527282E-3,-3.994738683E-3,2.396843163E-3
3.835172666E1,-2.130527282E-3,-1.864211401E-3,4.527370445E-3
3.837199640E1,-1.065263641E-3,-2.929474926E-3,4.527370445E-3
3.839226614E1,-0.000000000E0,-2.929474926E-3,4.527370445E-3
3.841253594E1,-0.000000000E0,-2.929474926E-3,5.592633970E-3
3.843280568E1,-0.000000000E0,-1.864211401E-3,4.527370445E-3
3.845307542E1,-0.000000000E0,-1.864211401E-3,3.462106921E-3
3.847334521E1,-0.000000000E0,-2.929474926E-3,2.396843163E-3
3.849361489E1,1.065263641E-3,-1.864211401E-3,2.396843163E-3
3.851388469E1,1.065263641E-3,-1.864211401E-3,4.527370445E-3
3.853415443E1,1.065263641E-3,-3.994738683E-3,4.527370445E-3
3.855442422E1,1.065263641E-3,-2.929474926E-3,3.462106921E-3
3.857469396E1,2.130527282E-3,-1.864211401E-3,3.462106921E-3
3.859496370E1,2.130527282E-3,2.663159103E-4,4.527370445E-3
3.861523349E1,-1.065263641E-3,-1.864211401E-3,4.527370445E-3
3.863550323E1,-0.000000000E0,-2.929474926E-3,4.527370445E-3
3.865577297E1,-0.000000000E0,-3.994738683E-3,3.462106921E-3
3.867604271E1,-0.000000000E0,-2.929474926E-3,3.462106921E-3
3.869631250E1,-0.000000000E0,-2.929474926E-3,4.527370445E-3
3.871658224E1,1.065263641E-3,-1.864211401E-3,3.462106921E-3
3.873685198E1,2.130527282E-3,-1.864211401E-3,3.462106921E-3
3.875712172E1,3.195791040E-3,-1.864211401E-3,2.396843163E-3
3.877739146E1,2.130527282E-3,2.663159103E-4,2.396843163E-3
3.879766125E1,1.065263641E-3,1.331579522E-3,2.396843163E-3
3.881793099E1,4.261054564E-3,-2.929474926E-3,3.462106921E-3
3.883820073E1,4.261054564E-3,-2.929474926E-3,4.527370445E-3
3.885847047E1,1.065263641E-3,1.331579522E-3,4.527370445E-3
3.887874021E1,3.195791040E-3,2.396843163E-3,5.592633970E-3
3.889900995E1,6.391582079E-3,-7.989477599E-4,5.592633970E-3
3.891927974E1,4.261054564E-3,-1.864211401E-3,1.331579522E-3
3.893954948E1,4.261054564E-3,2.396843163E-3,2.663159103E-4
3.895993802E1,5.326318089E-3,1.331579522E-3,2.396843163E-3
3.898008896E1,3.195791040E-3,-1.864211401E-3,2.396843163E-3
3.900035870E1,1.065263641E-3,1.331579522E-3,2.396843163E-3
3.902062844E1,2.130527282E-3,1.331579522E-3,1.331579522E-3
3.904089818E1,3.195791040E-3,1.331579522E-3,2.663159103E-4
3.906129818E1,4.261054564E-3,2.396843163E-3,1.331579522E-3
3.908143765E1,1.065263641E-3,1.331579522E-3,2.396843163E-3
3.910170739E1,1.065263641E-3,-1.864211401E-3,2.396843163E-3
3.912197713E1,4.261054564E-3,-2.929474926E-3,2.663159103E-4
3.914224687E1,4.261054564E-3,2.663159103E-4,1.331579522E-3
3.916264687E1,3.195791040E-3,-7.989477599E-4,2.396843163E-3
3.918278635E1,2.130527282E-3,-1.864211401E-3,2.663159103E-4
3.920305609E1,2.130527282E-3,-7.989477599E-4,-7.989477599E-4
3.922332583E1,-0.000000000E0,-2.929474926E-3,-1.864211401E-3
3.924359557E1,-1.065263641E-3,-6.125265732E-3,-1.864211401E-3
3.926399557E1,-3.195791040E-3,-7.190529723E-3,-2.929474926E-3
3.928413505E1,-4.261054564E-3,-3.994738683E-3,-2.929474926E-3
3.930440479E1,-3.195791040E-3,-1.864211401E-3,-5.060002208E-3
3.932467453E1,-2.130527282E-3,-1.864211401E-3,-5.060002208E-3
3.934494427E1,-2.130527282E-3,-1.864211401E-3,-2.929474926E-3
3.936534427E1,-2.130527282E-3,-3.994738683E-3,-2.929474926E-3
3.938548375E1,-2.130527282E-3,-5.060002208E-3,-3.994738683E-3
3.940575349E1,-1.065263641E-3,-3.994738683E-3,-2.929474926E-3
3.942602323E1,-2.130527282E-3,-2.929474926E-3,-5.060002208E-3
3.944629297E1,-2.130527282E-3,-1.864211401E-3,-5.060002208E-3
3.946656265E1,-2.130527282E-3,-5.060002208E-3,-2.929474926E-3
3.948683239E1,-2.130527282E-3,-2.929474926E-3,-3.994738683E-3
3.950710213E1,-1.065263641E-3,-2.929474926E-3,-3.994738683E-3
3.952737187E1,-1.065263641E-3,-2.929474926E-3,-2.929474926E-3
3.954764161E1,-1.065263641E-3,2.663159103E-4,-3.994738683E-3
3.956791135E1,-0.000000000E0,-2.929474926E-3,-5.060002208E-3
3.958818104E1,-0.000000000E0,-5.060002208E-3,-2.929474926E-3
3.960845078E1,-1.065263641E-3,-1.864211401E-3,-7.989477599E-4
3.962872052E1,-1.065263641E-3,-2.929474926E-3,-2.929474926E-3
3.964899026E1,-1.065263641E-3,-3.994738683E-3,-3.994738683E-3
3.966926000E1,-1.065263641E-3,-1.864211401E-3,-6.125265732E-3
3.968952974E1,-0.000000000E0,-7.989477599E-4,-3.994738683E-3
3.970979948E1,1.065263641E-3,-6.125265732E-3,-1.864211401E-3
3.973006916E1,-0.000000000E0,-3.994738683E-3,-3.994738683E-3
3.975033890E1,1.065263641E-3,2.663159103E-4,-3.994738683E-3
3.977060864E1,-1.065263641E-3,2.663159103E-4,-2.929474926E-3
3.979087838E1,-1.065263641E-3,-7.989477599E-4,-3.994738683E-3
3.981114812E1,-0.000000000E0,2.663159103E-4,-3.994738683E-3
3.983141781E1,-0.000000000E0,-7.989477599E-4,-3.994738683E-3
3.985168755E1,-1.065263641E-3,-1.864211401E-3,-5.060002208E-3
3.987195729E1,-1.065263641E-3,-7.989477599E-4,-3.994738683E-3
3.989222703E1,1.065263641E-3,1.331579522E-3,-5.060002208E-3
3.991249672E1,1.065263641E-3,1.331579522E-3,-5.060002208E-3
3.993276646E1,-1.065263641E-3,-7.989477599E-4,-3.994738683E-3
3.995303614E1,-1.065263641E-3,-7.989477599E-4,-2.929474926E-3
3.997330588E1,-0.000000000E0,-1.864211401E-3,-1.864211401E-3
3.999357562E1,-0.000000000E0,-1.864211401E-3,-1.864211401E-3
4.001384531E1,-0.000000000E0,-2.929474926E-3,-1.864211401E-3
4.003411505E1,-1.065263641E-3,-1.864211401E-3,-2.929474926E-3
4.005438479E1,-0.000000000E0,-7.989477599E-4,-2.929474926E-3
4.007465448E1,1.065263641E-3,-7.989477599E-4,-3.994738683E-3
4.009492422E1,2.130527282E-3,-1.864211401E-3,-6.125265732E-3
4.011519390E1,2.130527282E-3,2.663159103E-4,-5.060002208E-3
4.013546364E1,4.261054564E-3,-7.989477599E-4,-3.994738683E-3
4.015573338E1,5.326318089E-3,-1.864211401E-3,-2.929474926E-3
4.017600307E1,7.456845604E-3,-1.864211401E-3,-2.929474926E-3
4.019627281E1,7.456845604E-3,2.663159103E-4,-1.864211401E-3
4.021654250E1,3.195791040E-3,2.663159103E-4,2.663159103E-4
4.023681224E1,1.065263641E-3,-2.929474926E-3,1.331579522E-3
4.025708192E1,2.130527282E-3,-6.125265732E-3,2.663159103E-4
4.027735167E1,2.130527282E-3,-5.060002208E-3,-2.929474926E-3
4.029762135E1,4.261054564E-3,-1.864211401E-3,-2.929474926E-3
4.031789109E1,6.391582079E-3,-7.989477599E-4,-1.864211401E-3
4.033816078E1,7.456845604E-3,2.663159103E-4,-1.864211401E-3
4.035843052E1,8.522109129E-3,2.663159103E-4,-2.929474926E-3
4.037870021E1,7.456845604E-3,2.663159103E-4,1.331579522E-3
4.039896995E1,4.261054564E-3,2.396843163E-3,2.396843163E-3
