"Time (s)","Acceleration x (m/s^2)","Acceleration y (m/s^2)","Acceleration z (m/s^2)"
2.470302800E-2,-4.240081787E0,1.603789330E0,8.182855606E0
4.506506000E-2,-3.576671600E0,1.252044439E0,9.023334503E0
6.531834100E-2,-2.035095692E0,1.213759303E0,8.578269005E0
8.543302800E-2,-2.288734913E0,6.867401004E-1,8.604590416E0
1.057039660E-1,-2.063809633E0,2.967100143E-1,9.078369141E0
1.259718300E-1,-6.699903607E-1,3.828516304E-1,8.559126854E0
1.463743830E-1,8.644071817E-1,5.790630579E-1,9.040083885E0
1.665121950E-1,9.792626500E-1,5.192425251E-1,9.763314247E0
1.867817260E-1,1.256830096E0,6.819544435E-1,9.799206734E0
2.070509450E-1,1.254437327E0,2.632105052E-1,1.088853931E1
2.273199030E-1,1.582852125E0,5.886343718E-1,1.096271706E1
2.475886530E-1,1.913061738E0,5.862415433E-1,1.031127071E1
2.678572470E-1,2.341975212E0,1.196411345E-2,9.516854286E0
2.881257890E-1,2.648256540E0,5.024927482E-2,8.630910873E0
3.083941740E-1,2.820539713E0,6.173482537E-1,8.865407944E0
3.286624550E-1,2.574079037E0,8.949156404E-1,9.205188751E0
3.489307370E-1,2.166700840E0,-6.520441920E-2,9.535996437E0
3.691989140E-1,1.652244091E0,-8.668000102E-1,9.334401131E0
3.894670910E-1,1.637887120E0,-1.597209096E0,7.934001446E0
4.097352160E-1,3.165106058E0,-2.325225353E0,8.211568832E0
4.300032890E-1,3.692125320E0,-2.193620205E0,9.109476089E0
4.502714140E-1,2.944966555E0,-2.791825771E0,9.332008362E0
4.705394870E-1,2.114058733E0,-9.529415965E-1,8.774480820E0
4.908075080E-1,3.119642496E0,-3.095714331E0,8.132605553E0
5.110755800E-1,4.122833252E0,-3.661018610E0,8.216354370E0
5.313436010E-1,3.014358282E0,-1.568495274E0,9.150154114E0
5.516116220E-1,1.956132531E0,-3.619144261E-1,8.628518105E0
5.718796430E-1,2.877967358E0,-6.466603279E-1,8.630910873E0
5.921476640E-1,6.658627033E0,-4.905884743E0,7.455437183E0
6.125476640E-1,8.866005898E0,-6.668198586E0,5.671587944E0
6.326836530E-1,6.582056999E0,-2.667398930E0,5.671587944E0
6.529516740E-1,5.832505226E0,-3.105285645E0,6.320641041E0
6.732196430E-1,7.211369038E0,-3.960121393E0,6.361319065E0
6.934876640E-1,8.204988480E0,-4.065405846E0,4.522434711E0
7.137556330E-1,9.447462082E0,-4.724030018E0,3.691527128E0
7.340236010E-1,1.036929703E1,-5.700900078E0,6.147759438E0
7.542916220E-1,9.711270332E0,-5.629115105E0,6.629314899E0
7.745596430E-1,8.513663292E0,-4.944169998E0,4.747360229E0
7.948276640E-1,8.037490845E0,-4.298107624E0,2.719442844E0
8.150956330E-1,8.003992081E0,-3.692125320E0,1.639681697E0
8.353635490E-1,8.988039970E0,-3.857230186E0,1.189831018E0
8.556315180E-1,9.390034676E0,-3.661018610E0,1.101296663E0
8.758995910E-1,9.205786705E0,-3.704089403E0,7.609176040E-1
8.961675600E-1,9.363713264E0,-4.084548473E0,2.943171859E-1
9.164355800E-1,9.358927727E0,-3.395415306E0,3.972085714E-1
9.367035490E-1,9.124430656E0,-3.625126362E0,1.127617717E0
9.569715180E-1,9.078967094E0,-3.955335855E0,1.354935765E0
9.772395390E-1,8.952147484E0,-3.921836376E0,5.479564071E-1
9.975075080E-1,9.421140671E0,-2.772683144E0,-1.625923038E0
1.017775528E0,9.370891571E0,-2.117049932E0,-2.858824968E0
1.038043497E0,9.428318977E0,-2.877967358E0,-1.350748420E0
1.058311518E0,9.437891006E0,-3.924229145E0,2.587837696E0
1.078579487E0,9.519247055E0,-5.559723377E0,5.748157978E0
1.098847508E0,8.827720642E0,-5.485546112E0,2.815155745E0
1.119115476E0,8.176275253E0,-3.790230989E0,-9.870393574E-2
1.139383497E0,8.563912392E0,-3.170490026E0,-2.413759947E0
1.159651466E0,9.201001167E0,-3.783052683E0,-1.168893814E0
1.179919487E0,9.720842361E0,-4.412963390E0,7.298108935E-1
1.200187508E0,9.284749985E0,-4.139583111E0,1.156331539E0
1.220455476E0,9.059824944E0,-3.622733593E0,-4.671986103E-1
1.240723393E0,8.655437469E0,-3.290131092E0,-1.884347796E0
1.260991466E0,9.411569595E0,-3.028715372E0,-1.910668850E0
1.281259435E0,9.821340561E0,-3.218346357E0,-1.611566067E0
1.301527508E0,8.461020470E0,-2.356332064E0,-1.824527234E-1
1.321795528E0,6.909873486E0,-2.423331022E0,1.701895118E0
1.342063497E0,6.095715523E0,-2.657827854E0,4.570291340E-1
1.362331518E0,5.293521881E0,-3.996013880E0,-6.520441920E-2
1.382599539E0,4.115654945E0,-5.339583874E0,-2.394617319E0
1.402867560E0,2.901895761E0,-7.630711555E0,-5.602794170E0
1.423135580E0,3.388236761E0,-8.542975426E0,-5.598008633E0
1.443535580E0,3.517449379E0,-7.434499741E0,-2.849253654E0
1.463671570E0,3.424129248E0,-5.784648895E0,-1.520638824E0
1.483939591E0,3.315854073E0,-4.776672363E0,-4.911268353E-1
1.504207612E0,3.361317635E0,-4.637888432E0,-3.667000830E-1
1.524615580E0,2.921038151E0,-4.223930359E0,-1.233500123E0
1.544892143E0,2.665006161E0,-4.178466320E0,-1.367498159E0
1.565004747E0,1.467996716E0,-3.047857761E0,-7.232306600E-1
1.585274122E0,9.912267923E-1,-2.696112871E0,7.657032460E-2
1.605543289E0,5.982056633E-2,-6.160321712E0,-3.044866920E-1
1.625811205E0,-2.331805706E0,-1.813400650E1,-9.242277741E-1
1.646212143E0,-7.280761242E0,-3.765884018E1,-2.997010350E-1
1.666348914E0,-5.207380295E0,-3.965804291E1,9.571290575E-3
1.686617508E0,-3.378067255E0,-1.613719559E1,3.110669553E-1
1.706885945E0,-2.599801779E0,-8.358727455E0,9.260223508E-1
1.727153914E0,-1.987239242E0,-4.389034748E0,1.429113269E0
1.747554330E0,-1.204187989E0,-2.574079037E0,1.414756417E0
1.767690737E0,-3.349951804E-1,-4.060619831E0,7.489534616E-1
1.787958966E0,6.227321029E-1,-7.913064480E0,2.297109663E-1
1.808227195E0,8.787640929E-1,-1.033819008E1,4.666004181E-1
1.828495372E0,4.839483798E-1,-1.134855938E1,1.094118118E0
1.848763497E0,-1.363908947E-1,-1.137488079E1,1.800000787E0
1.869031674E0,-7.441678643E-1,-1.101595688E1,2.166700840E0
1.889299799E0,-1.019940615E0,-1.038126087E1,1.668395638E0
1.909567872E0,-1.012762189E0,-9.613164902E0,7.202396393E-1
1.929835945E0,-1.225723386E0,-9.409774780E0,3.110669367E-2
1.950104070E0,-1.725823283E0,-9.369096756E0,-6.275177598E-1
1.970372143E0,-1.994417667E0,-9.440881729E0,-6.610172391E-1
1.990640164E0,-1.697109461E0,-9.541379929E0,-9.152546525E-2
2.010908237E0,-1.474576950E0,-9.677771568E0,2.608176768E-1
2.031176310E0,-1.146760225E0,-9.897911072E0,5.216353536E-1
2.051444330E0,-8.907282352E-1,-9.878767967E0,6.125625968E-1
2.071712351E0,-8.093722463E-1,-9.751948357E0,6.293123364E-1
2.091980424E0,-8.524430394E-1,-9.716055870E0,5.670989752E-1
2.112248445E0,-1.046261668E0,-9.663414001E0,5.623133183E-1
2.132516570E0,-1.130010486E0,-9.646664619E0,6.149554253E-1
2.152784591E0,-1.103689432E0,-9.656235695E0,6.723831892E-1
2.173052612E0,-1.043868899E0,-9.751948357E0,7.082754970E-1
2.193320685E0,-9.768698215E-1,-9.830911636E0,7.106683254E-1
2.213588705E0,-8.620143533E-1,-9.893125534E0,6.005984545E-1
2.233856778E0,-7.854440212E-1,-9.900303841E0,4.546363056E-1
2.254124799E0,-6.963114142E-1,-9.897911072E0,3.373879790E-1
2.274392820E0,-6.652047038E-1,-9.869196892E0,2.392822653E-1
2.294660893E0,-6.915257573E-1,-9.838089943E0,1.292124242E-1
2.314928914E0,-7.345965505E-1,-9.785448074E0,1.004985496E-1
2.335196987E0,-8.045865893E-1,-9.751948357E0,1.483550072E-1
2.355465008E0,-8.596215248E-1,-9.699306488E0,2.536391914E-1
2.375733080E0,-9.744769931E-1,-9.586843491E0,3.996013701E-1
2.395973758E0,-1.146760225E0,-9.436096191E0,5.168496966E-1
2.415967247E0,-1.285543919E0,-9.263215065E0,6.364908218E-1
2.436367247E0,-1.426720500E0,-9.095717430E0,6.915257573E-1
2.456782039E0,-1.584646821E0,-8.899505615E0,7.154539824E-1
2.477064070E0,-1.697109461E0,-8.791828156E0,7.489534616E-1
2.497333966E0,-1.809572101E0,-9.011968613E0,8.063812256E-1
2.517601883E0,-1.846062660E0,-9.591629982E0,8.566305041E-1
2.538003497E0,-1.632503271E0,-1.021615601E1,8.997012973E-1
2.558140789E0,-1.292722464E0,-1.091785145E1,9.044869542E-1
2.578409747E0,-7.393822074E-1,-1.132223892E1,9.355936646E-1
2.598678549E0,-2.967100143E-1,-1.156211948E1,7.872386575E-1
2.618947247E0,-4.067798331E-2,-1.167458153E1,4.426721931E-1
2.639215737E0,3.499503136E-1,-1.096570778E1,2.632104978E-2
2.659484226E0,9.571290761E-2,-1.024965572E1,-5.078766346E-1
2.679752508E0,4.067798331E-2,-9.124430656E0,-1.709671736E0
2.700020841E0,-1.746760458E-1,-9.229715347E0,-1.984846354E0
2.720289122E0,-2.033899277E-1,-8.705686569E0,-1.250249863E0
2.740557299E0,-2.895315289E-1,-8.216953278E0,-8.620143533E-1
2.760825528E0,-9.092725813E-2,-7.846065521E0,-9.385846853E-1
2.781093653E0,7.639086246E-1,-7.189833641E0,-2.265404940E0
2.801361778E0,1.446461320E0,-7.175477028E0,-4.072584152E0
2.821629903E0,7.417750359E-2,-7.671389580E0,-1.518245935E0
2.841898028E0,-6.197410822E-1,-8.013563156E0,6.867401004E-1
2.862166153E0,-6.843472719E-1,-8.090133667E0,1.436291814E0
2.882434226E0,9.810572863E-2,-8.169096947E0,8.638089895E-1
2.902702299E0,1.898704767E0,-8.523832321E0,-9.631111473E-2
2.922970372E0,2.641077995E0,-9.174679756E0,4.067798555E-1
2.943370424E0,2.264806747E0,-1.005823040E1,2.871387303E-1
2.963506518E0,5.318048596E-1,-9.517452240E0,-9.744769931E-1
2.983774591E0,-6.939185858E-1,-8.380263329E0,-2.313261271E0
3.004042664E0,-8.021938205E-1,-7.704888821E0,-2.832503796E0
3.024310685E0,-6.029912829E-1,-7.286144733E0,-3.787838221E0
3.044710737E0,-8.691928387E-1,-8.006384850E0,-3.498306751E0
3.064846830E0,-5.599204898E-1,-8.921041489E0,-2.961716175E0
3.085114903E0,-5.048855543E-1,-1.092981529E1,-3.725624800E0
3.105382976E0,-6.173482537E-1,-1.405185127E1,-3.541377544E0
3.125650997E0,-1.551147223E0,-1.878306007E1,-3.040679455E0
3.146050997E0,-2.654836655E0,-2.425843620E1,-2.406581402E0
3.166187143E0,-4.721039295E0,-1.946262169E1,-1.793420553E0
3.186455164E0,-4.790431023E0,-1.057807064E1,-9.433703423E-1
3.206723237E0,-3.411566973E0,-6.893123627E0,-9.553344250E-1
3.226991310E0,-2.532802820E0,-5.990431309E0,-9.984052777E-1
3.247259330E0,-1.577468276E0,-6.725626469E0,-2.003988981E0
3.267527403E0,-9.481559992E-1,-7.408178806E0,-2.325225353E0
3.287795476E0,-1.266401410E0,-6.840481758E0,-1.116251707E0
3.308063549E0,-2.614158630E0,-6.680162430E0,-4.025924206E-1
3.328331570E0,-3.634099483E0,-7.134799004E0,-1.283749342E0
3.348599643E0,-3.641277790E0,-8.149953842E0,-2.892324448E0
3.368867716E0,-3.074178934E0,-9.019146919E0,-5.528616905E0
3.389135737E0,-1.865205288E0,-9.438488960E0,-8.904291153E0
3.409403810E0,-1.548754454E0,-9.306285858E0,-8.193024635E0
3.429671883E0,-1.855633974E0,-8.669795036E0,-6.055037498E0
3.449939903E0,-1.460219979E0,-8.818149567E0,-4.582853794E0
3.470207976E0,-5.048855543E-1,-9.122037888E0,-2.990430117E0
3.490476049E0,6.634100676E-1,-9.486345291E0,-1.460818172E0
3.510744122E0,1.249651670E0,-9.354142189E0,-6.777670383E-1
3.531012143E0,1.072582722E0,-7.992027760E0,-8.165507317E-1
3.551280216E0,4.815555513E-1,-6.385845661E0,-9.529415965E-1
3.571548289E0,-3.397808075E-1,-5.650650501E0,-5.748756528E-1
3.591816258E0,-1.151545882E0,-5.332405090E0,-2.542374134E-1
3.612084383E0,-1.773679733E0,-4.934598446E0,5.742774159E-2
3.632352455E0,-1.874776483E0,-4.783850670E0,9.092725813E-2
3.652620476E0,-2.200200319E0,-4.913063049E0,3.110669367E-2
3.672888549E0,-2.477767944E0,-4.999204636E0,-4.815555513E-1
3.693156622E0,-3.519243956E0,-5.519045353E0,-2.490330219E0
3.713424643E0,-5.513661385E0,-8.717651367E0,-4.441677094E0
3.733692716E0,-3.047857761E0,-1.185882950E1,-3.196810961E0
3.753960789E0,-2.200200319E0,-1.607019615E1,-6.385845661E0
3.774360789E0,-5.192425251E-1,-3.002334404E1,-2.188356018E1
3.794496883E0,-3.825525284E0,-2.568037033E1,9.499505758E-1
3.814764903E0,-1.764108539E0,-1.737727547E1,6.370890141E0
3.835032976E0,6.275177598E-1,-1.379821205E1,8.137392044E0
3.855301049E0,9.218349457E-1,-9.668199539E0,8.077570915E0
3.875569070E0,9.960124493E-1,-5.973681927E0,4.792823792E0
3.895837143E0,1.264008522E0,-4.795814991E0,2.147558212E0
3.916105164E0,9.122636318E-1,-5.497509956E0,1.259222865E0
3.936373237E0,5.605186820E-1,-8.799007416E0,-2.877369225E-1
3.956641310E0,1.170688510E0,-1.423370552E1,-8.495118141E0
3.976909330E0,4.576273263E-1,-1.376231956E1,-4.185645103E0
3.997177403E0,3.690928817E-1,-1.034536839E1,-1.544566989E0
4.017445424E0,1.280758262E0,-1.035254669E1,-2.918645382E0
4.037713497E0,7.375875711E-1,-1.095613670E1,-2.145763636E0
4.057981570E0,9.571290575E-3,-9.445667267E0,6.580262184E-1
4.078249539E0,-3.110669553E-1,-7.463213921E0,2.262413740E0
4.098517664E0,3.589234129E-2,-7.403393269E0,1.041476011E0
4.118785685E0,-1.342971683E0,-6.359524250E0,-3.031108141E0
4.139053758E0,-2.197807550E0,-6.684948444E0,-4.101297855E0
4.159321778E0,-1.546361685E0,-8.293522835E0,-3.062214851E0
4.179589851E0,5.748756528E-1,-9.570094109E0,-1.333998680E0
4.199857924E0,2.216950178E0,-9.687342644E0,-4.313062727E-1
4.220125945E0,1.956132531E0,-8.245666504E0,-8.644071817E-1
4.240394018E0,8.452646136E-1,-6.775875568E0,-2.303091735E-1
4.260662039E0,1.698904037E-1,-6.062216282E0,8.973084688E-1
4.280930060E0,-2.153540403E-1,-5.130809784E0,2.153540403E-1
4.301198133E0,-8.141579032E-1,-4.276572227E0,-2.207977057E0
4.321466205E0,-2.273181528E-1,-5.676971912E0,-4.393820763E0
4.341866205E0,-2.703889608E-1,-7.268796921E0,-4.709673405E0
4.362002299E0,-4.881358147E-1,-7.697710514E0,-3.529413462E0
4.382270320E0,-5.862415433E-1,-8.619544983E0,-4.542175770E0
4.402538393E0,-6.125625968E-1,-1.074078274E1,-5.550152302E0
4.422806414E0,-8.596215248E-1,-1.665703583E1,-6.112465382E0
4.443206414E0,-2.523231506E0,-2.807439041E1,-3.242274761E0
4.463342508E0,-9.056833267E0,-2.906083107E1,-3.031108141E0
4.483610580E0,-7.086942673E0,-1.267537975E1,-4.247858524E0
4.503878601E0,-2.743371248E0,-5.406582832E0,-2.715255499E0
4.524146622E0,-9.840483069E-1,-3.773481369E0,-1.058824062E0
4.544546622E0,-4.402793646E-1,-4.161716938E0,9.571290575E-3
4.564682716E0,-3.996013701E-1,-5.741578102E0,3.445664644E-1
4.584950789E0,-1.674975902E-1,-8.140382767E0,-4.648058116E-1
4.605218810E0,2.057827413E-1,-9.823733330E0,-3.132204771E0
4.625486883E0,1.028913707E-1,-1.008455086E1,-4.977669239E0
4.645886883E0,-3.230310678E-1,-1.073360443E1,-5.411368370E0
4.666022976E0,-3.852444589E-1,-1.104706383E1,-5.858826160E0
4.686290997E0,-8.500502706E-1,-9.184251785E0,-6.395416737E0
4.706559018E0,-9.026923180E-1,-7.374679565E0,-5.423332691E0
4.726827091E0,-6.795616150E-1,-6.292525291E0,-4.158725739E0
4.747227091E0,-6.771687865E-1,-5.988038540E0,-3.890729666E0
4.767363133E0,-7.322037220E-1,-6.217749596E0,-3.732803345E0
4.787631205E0,-1.029511929E0,-6.259026051E0,-3.239881754E0
4.807899226E0,-1.438684583E0,-6.064609051E0,-1.989632010E0
4.828167247E0,-1.314257860E0,-5.784648895E0,-3.068794906E-1
4.848435320E0,-4.929214716E-1,-5.382654667E0,1.280758262E0
4.868703341E0,-8.853443712E-2,-5.497509956E0,2.020140409E0
4.888971362E0,1.627119333E-1,-6.150750637E0,2.046461582E0
4.909239383E0,1.076770201E-1,-6.840481758E0,1.419542074E0
4.929507455E0,-2.679961324E-1,-7.802994728E0,2.991028428E-1
4.949775476E0,-6.364908218E-1,-9.289535522E0,-2.590230405E-1
4.970043497E0,-2.221735716E0,-1.300558949E1,-9.242277741E-1
4.990311518E0,2.081755698E-1,-2.902015305E1,-2.276411819E1
5.010579591E0,-1.175474167E0,-3.034457970E1,-3.457628727E0
5.030847612E0,-1.594218135E0,-1.882134438E1,5.338985443E0
5.051115580E0,-1.630110383E0,-1.317547989E1,5.146961689E0
5.071383653E0,-5.647061467E-1,-9.428917885E0,4.256831646E0
5.091651622E0,2.344966233E-1,-6.507879257E0,2.860619545E0
5.111919747E0,6.418746710E-1,-4.802993298E0,1.584646821E0
5.132187768E0,1.106082320E0,-4.680959225E0,5.288137794E-1
5.152455789E0,2.595614433E0,-7.819744587E0,-6.292525291E0
5.172723862E0,2.288734913E0,-1.112841988E1,-5.751149178E0
5.192991883E0,3.346960783E0,-1.121934700E1,-2.260619164E0
5.213259903E0,2.171486616E0,-1.095135117E1,-4.887340367E-1
5.233527924E0,2.392822644E-3,-1.001994514E1,-4.719842672E-1
5.253795945E0,-8.285148144E-1,-7.829315662E0,-1.092323542E0
5.274063966E0,-1.165902853E0,-6.522236347E0,-1.734796353E-2
5.294332039E0,-1.220937729E0,-5.758327484E0,1.199402332E0
5.314600060E0,-1.414756417E0,-5.227120876E0,8.733802438E-1
5.334868080E0,-1.218544960E0,-5.700900078E0,-1.527817249E0
5.355136101E0,9.601200819E-1,-7.580461979E0,-3.704089403E0
5.375404122E0,2.118844509E0,-8.044670105E0,-6.009573936E0
5.395614435E0,1.579262912E-1,-8.190631866E0,-6.943373203E0
5.415295841E0,-2.032702923E0,-8.006384850E0,-4.606781960E0
5.435695841E0,-3.215355396E0,-8.111668587E0,-3.699303865E0
5.456095841E0,-4.031906128E0,-7.893921852E0,-2.906681299E0
5.476495841E0,-2.317448616E0,-8.312665939E0,-1.202393413E0
5.496895841E0,-1.615753531E0,-1.194018459E1,-2.054238319E0
5.517247924E0,-1.158724308E0,-2.022413635E1,-3.613162279E0
5.537521726E0,-3.406781197E0,-2.477289200E1,-1.333998680E0
5.557795060E0,-4.594219685E0,-1.679821396E1,-2.892324448E0
5.578067351E0,-1.070189953E0,-8.121239662E0,-2.904288530E0
5.598338758E0,-2.201396823E-1,-4.257429600E0,-2.286940336E0
5.618609487E0,-1.435693651E-1,-2.432902336E0,-2.155334949E0
5.638879695E0,6.634100676E-1,-2.186441660E0,-2.741576433E0
5.659149435E0,1.618744493E0,-3.213560820E0,-3.847658873E0
5.679418810E0,1.532602906E0,-5.325226784E0,-5.825326920E0
5.699688028E0,4.456632137E-1,-8.435297966E0,-5.775077343E0
5.719956883E0,-6.173482537E-1,-1.186361504E1,-5.185844898E0
5.740225633E0,-2.183450699E0,-1.461476231E1,-5.423332691E0
5.760494226E0,-2.875574589E0,-1.592901993E1,-5.097310543E0
5.780762716E0,-1.970489502E0,-1.457169151E1,-4.168296814E0
5.801031049E0,-8.309076428E-1,-1.049192905E1,-3.481556892E0
5.821299435E0,-9.409775138E-1,-6.373881340E0,-4.477569580E0
5.841567612E0,-4.929214716E-1,-4.031906128E0,-4.685744762E0
5.861835841E0,-1.100698411E-1,-3.316452265E0,-2.715255499E0
5.882104018E0,-6.508477330E-1,-3.629911900E0,6.460621208E-2
5.902372195E0,-1.587039590E0,-4.360321045E0,1.455434322E0
5.922640164E0,-1.532004714E0,-5.464010715E0,8.063812256E-1
5.943040268E0,-1.455434322E0,-7.743174076E0,-7.256234884E-1
5.963176414E0,-1.295115232E0,-1.315872955E1,-3.948157310E0
5.983444487E0,-4.153940201E0,-2.148814583E1,-2.356332064E0
6.003712560E0,-5.063810825E0,-2.774178696E1,2.860619545E0
6.023980580E0,1.076770201E-1,-2.263490486E1,5.310271740E0
6.044380633E0,1.621137381E0,-1.326640701E1,2.793620348E0
6.064516674E0,8.715856671E-1,-7.518248558E0,-4.118047714E0
6.084784747E0,2.368296146E0,-5.861218929E0,-5.339583874E0
6.105052768E0,3.270390272E0,-5.952146530E0,-3.926621914E0
6.125320789E0,2.722434044E0,-6.373881340E0,-1.874776483E0
6.145720841E0,1.537388563E0,-7.867600918E0,-3.188436031E-1
6.165856883E0,-7.704889178E-1,-8.782257080E0,1.220339537E-1
6.186124903E0,-1.910668850E0,-7.977670670E0,-6.849454641E-1
6.206392924E0,-1.706680775E0,-7.355536938E0,-2.196012974E0
6.226660945E0,-1.103689432E0,-7.175477028E0,-2.708076954E0
6.247060945E0,-4.642075896E-1,-7.197012424E0,-2.830111027E0
6.267196987E0,1.746760458E-1,-7.824530125E0,-2.540579557E0
6.287465008E0,-7.657032460E-2,-7.800601959E0,-2.650649309E0
6.307733028E0,-8.859425783E-1,-6.349953175E0,-3.134597778E0
6.328001049E0,-7.250252366E-1,-5.554937840E0,-3.641875982E0
6.348269070E0,2.153540403E-1,-5.988038540E0,-3.503092289E0
6.368537039E0,5.892325640E-1,-7.520641804E0,-3.321237803E0
6.388805060E0,-1.627119333E-1,-1.034536839E1,-3.146561861E0
6.409073080E0,-1.028913707E-1,-1.134138107E1,-8.117650747E-1
6.429341101E0,-8.644071817E-1,-1.353978729E1,-1.331605792E0
6.449609122E0,-1.630110383E0,-2.093540382E1,-2.164906263E0
6.469877143E0,-5.140381336E0,-2.563969231E1,-1.886740685E0
6.490145164E0,-6.483353138E0,-1.469372559E1,-3.311666489E0
6.510413133E0,-2.405983210E0,-6.797410965E0,-3.579662561E0
6.530681153E0,-8.189435601E-1,-4.398606300E0,-2.464009047E0
6.550949174E0,-4.019941986E-1,-4.946562767E0,-1.209571838E0
6.571217195E0,-8.135596663E-2,-6.359524250E0,-7.178467698E-3
6.591485216E0,-5.958128572E-1,-7.151548862E0,-2.566302419E-1
6.611753185E0,-8.859425783E-1,-7.707281590E0,-2.799004316E0
6.632021205E0,-3.062812984E-1,-8.401798248E0,-4.826921463E0
6.652289226E0,-1.316052526E-1,-1.013719273E1,-4.707280159E0
6.672557247E0,-2.799602449E-1,-1.183250809E1,-5.361119270E0
6.692825216E0,-7.322037220E-1,-1.202154064E1,-7.537391186E0
6.713093237E0,-4.713860750E-1,-1.013479996E1,-6.984051228E0
6.733361258E0,4.307080805E-2,-7.261618614E0,-5.251049519E0
6.753629278E0,-1.196411345E-2,-5.126024246E0,-4.240679741E0
6.773897143E0,-4.043870270E-1,-4.115654945E0,-4.110869408E0
6.794165268E0,-5.503492355E-1,-3.955335855E0,-3.100499868E0
6.814433237E0,-9.810572863E-2,-4.640281200E0,-1.561316848E-1
6.834701258E0,-2.129612118E-1,-4.960919380E0,2.068595171E0
6.854969278E0,-4.929214716E-1,-5.566901684E0,2.283949137E0
6.875237299E0,-1.400399446E0,-7.683353424E0,3.469592929E-1
6.895505320E0,-4.161118507E0,-1.420977688E1,-9.631111473E-2
6.915773341E0,-5.432305813E0,-2.868515778E1,-5.011168957E0
6.936041310E0,-1.163509965E0,-2.850808907E1,1.273579836E0
6.956309330E0,8.715856671E-1,-1.522014618E1,5.501697540E0
6.976577351E0,-3.780659735E-1,-8.483154297E0,7.106683254E-1
6.996845372E0,-9.529415965E-1,-5.609972477E0,-2.143370867E0
7.017113341E0,1.353141189E0,-4.065405846E0,-3.795016766E0
7.037513341E0,3.220141172E0,-5.365904808E0,-4.932205677E0
7.057649330E0,2.121237278E0,-8.538188934E0,-3.055036306E0
7.077917351E0,1.518245935E0,-1.010130119E1,-1.530210137E0
7.098185372E0,7.178468257E-2,-9.761520386E0,-1.214357495E0
7.118453341E0,-1.197009563E0,-7.992027760E0,-9.122636318E-1
7.138721362E0,-2.090130568E0,-6.251847267E0,-1.173679471E0
7.158989330E0,-1.999203324E0,-5.234299660E0,-2.310868502E0
7.179257351E0,-1.725823283E0,-5.178666592E0,-4.223930359E0
7.199525320E0,-4.450650215E-1,-6.742375851E0,-5.765506268E0
7.219793341E0,1.968096614E0,-9.656235695E0,-6.270989895E0
7.240061362E0,3.167499065E0,-1.178704453E1,-6.000002861E0
7.260329330E0,2.039881229E0,-1.248873997E1,-1.915454507E0
7.280597351E0,3.499503136E-1,-1.296491146E1,1.323829174E0
7.300865320E0,1.435693540E-2,-1.857189369E1,2.542374134E0
7.321133289E0,-1.826920033E0,-2.373141670E1,-1.255035520E0
7.341401310E0,-4.963312149E0,-1.571605873E1,-3.294916868E0
7.361669278E0,-3.984049797E0,-7.657032490E0,-2.609971285E0
7.381937299E0,-3.033500910E0,-4.963312149E0,-2.475973129E0
7.402205268E0,-1.622931957E0,-5.770291805E0,-2.227119684E0
7.422473289E0,-7.441678643E-1,-7.177869797E0,-1.534995675E0
7.442873289E0,-1.003190875E0,-8.507082939E0,-7.447660565E-1
7.463009278E0,-1.352542996E0,-9.155537605E0,-1.302891970E0
7.483277247E0,-9.553344250E-1,-8.827720642E0,-3.696911097E0
7.503545268E0,-6.963114142E-1,-8.916254997E0,-3.732803345E0
7.523813237E0,-3.828516304E-1,-9.131608963E0,-3.280559778E0
7.544213237E0,1.555334777E-1,-8.889934540E0,-3.440878868E0
7.564349226E0,1.172483116E-1,-8.416155815E0,-4.412963390E0
7.584617195E0,2.733799815E-1,-7.893921852E0,-5.497509956E0
7.604885164E0,3.451646566E-1,-7.177869797E0,-5.135595798E0
7.625153133E0,-2.368894368E-1,-6.090929985E0,-4.286143780E0
7.645553133E0,-1.206580877E0,-5.753541946E0,-3.373879910E0
7.665689174E0,-1.689931035E0,-5.997610092E0,-1.733600020E0
7.685957143E0,-1.517647743E0,-6.035895348E0,-4.097708762E-1
7.706225112E0,-1.742573142E0,-6.172286034E0,-4.432703853E-1
7.726493080E0,-1.692323804E0,-7.153941631E0,-6.107679605E-1
7.746893080E0,-1.768894196E0,-8.554939270E0,-1.058823988E-1
7.767029070E0,-2.609373093E0,-1.129352474E1,3.541377485E-1
7.787297039E0,-4.666004181E0,-1.650808334E1,-3.571287692E-1
7.807565008E0,-4.173082829E0,-2.437807655E1,-3.658625841E0
7.827833028E0,-1.028913707E-1,-2.303031921E1,-2.820539713E0
7.848100997E0,8.931210637E-1,-1.596251965E1,3.278166950E-1
7.868368966E0,1.146760225E0,-1.277587795E1,2.221735716E0
7.888636935E0,1.953739643E0,-1.058046341E1,4.311866283E0
7.908904851E0,1.786242127E0,-8.128418922E0,2.068595171E0
7.929172820E0,2.377867460E0,-6.212964058E0,-2.688934565E0
7.949440841E0,1.994417667E0,-6.002395630E0,-3.909872293E0
7.969708862E0,-1.914258152E-1,-7.700103283E0,-2.877967358E0
7.989976830E0,-1.043868899E0,-9.105288506E0,-1.934597135E0
8.010244799E0,-1.411765367E-1,-9.174679756E0,-1.855633974E0
8.030512768E0,3.451646566E-1,-9.000003815E0,-2.224726915E0
8.050780737E0,1.794617027E-1,-8.456833839E0,-1.537388563E0
8.071048705E0,-7.178467698E-3,-7.676175117E0,-2.733799815E-1
8.091316674E0,-5.503492057E-2,-7.362715244E0,-1.896311939E-1
8.111584643E0,-2.368894368E-1,-7.307680130E0,-7.304090858E-1
8.131852612E0,-3.804588020E-1,-7.389036179E0,-1.104287624E0
8.152120580E0,-1.148554832E-1,-7.563712597E0,-1.391426325E0
8.172388601E0,2.662015259E-1,-7.743174076E0,-1.738385677E0
8.192656518E0,5.437689424E-1,-8.059026718E0,-1.465603828E0
8.212924487E0,6.825526357E-1,-8.037490845E0,-2.105085611E0
8.233192455E0,5.102694035E-1,-7.884350777E0,-3.369094372E0
8.253460424E0,2.877369225E-1,-7.901100159E0,-4.389034748E0
8.273728393E0,2.512463629E-1,-9.323035240E0,-5.068596363E0
8.293996362E0,1.396211982E0,-1.239242840E1,-5.152345181E0
8.314264330E0,2.063809633E0,-1.373121262E1,-3.309273720E0
8.334532299E0,6.346961856E-1,-1.709013748E1,-2.332403898E0
8.354800268E0,-3.193820000E0,-1.973300934E1,-1.137787223E0
8.375068237E0,-9.423533440E0,-1.831825447E1,-4.648058116E-1
8.395332247E0,-8.044071198E0,-1.262991619E1,-2.703291416E0
8.415565580E0,-2.372483730E0,-6.967301369E0,-1.982453585E0
8.435872664E0,-1.570289850E0,-4.757529736E0,-1.135394335E0
8.456140528E0,-1.438684583E0,-4.599603176E0,-5.796613097E-1
8.476408393E0,-9.314061999E-1,-5.435296535E0,-2.255235314E-1
8.496676310E0,-8.374879509E-2,-6.452844620E0,-2.446661144E-1
8.516944174E0,7.040880919E-1,-7.561319351E0,-7.280163169E-1
8.537212091E0,5.437689424E-1,-8.705686569E0,-9.098708034E-1
8.557480008E0,1.579262912E-1,-1.007019424E1,-1.118644595E0
8.577747924E0,-3.972085714E-1,-1.147597694E1,-1.625923038E0
8.598015893E0,-2.161915302E0,-1.151426220E1,-2.921038151E0
8.618283810E0,-5.030311584E0,-9.433703423E0,-6.464808464E0
8.638551726E0,-5.204987526E0,-8.382656097E0,-6.153143406E0
8.658819643E0,-4.658825874E0,-7.288537979E0,-6.728019238E0
8.679087612E0,-5.159523964E0,-5.087738991E0,-9.366106033E0
8.699355633E0,-4.168296814E0,-4.635495663E0,-9.361320496E0
8.719623549E0,-1.936989903E0,-5.015954494E0,-1.934597135E0
8.739891518E0,-1.915454507E0,-4.317250252E0,8.470591903E-1
8.760159487E0,-1.958525300E0,-7.396214962E0,8.159525394E-1
8.780427403E0,-3.808775425E0,-1.711406517E1,1.180259824E0
8.800695372E0,-4.316651821E0,-3.118924713E1,4.033700943E0
8.820963289E0,1.551745534E0,-3.143630600E1,8.439485550E0
8.841363289E0,1.520638824E0,-1.771047592E1,7.804789066E0
8.861499174E0,1.436890006E0,-9.976874352E0,5.058426857E0
8.881767091E0,-2.392822644E-3,-6.373881340E0,3.220141172E0
8.902035060E0,-1.017547846E0,-5.810969830E0,1.699502230E0
8.922303028E0,-1.709073544E0,-7.652246952E0,6.939185858E-1
8.942703028E0,-2.439482689E0,-9.885947227E0,-1.183250785E0
8.962838914E0,-2.942573547E0,-1.042971611E1,-3.407379389E0
8.983106830E0,-2.846262455E0,-9.981659889E0,-3.605983734E0
9.003374799E0,-1.965703845E0,-9.131608963E0,-2.509472847E0
9.023642716E0,-6.795616150E-1,-8.605188370E0,-7.375875711E-1
9.044042716E0,2.033899277E-1,-8.406583786E0,3.373879790E-1
9.064178601E0,3.451646566E-1,-8.475975990E0,6.915257573E-1
9.084446570E0,-2.991028428E-1,-8.212167740E0,8.039883971E-1
9.104714487E0,-1.908276081E0,-7.544569969E0,3.182454109E-1
9.124982455E0,-4.893322468E0,-7.074978352E0,-2.018345833E0
9.145382455E0,-5.236093998E0,-9.591629982E0,-4.398606300E0
9.165518341E0,-1.579262912E-1,-1.378146172E1,-7.293323517E0
9.185786258E0,5.405984402E0,-1.417627811E1,-7.621140003E0
9.206054226E0,6.869195461E0,-1.557667732E1,-1.927418590E0
9.226314278E0,4.884349346E0,-1.738924026E1,3.483351469E0
9.246513080E0,2.990430117E0,-1.691067505E1,4.216153622E0
9.266859174E0,1.570888042E0,-1.483011627E1,3.524029493E0
9.287126883E0,1.076770201E-1,-1.129113197E1,2.934797049E0
9.307394643E0,-7.657032609E-1,-8.995218277E0,2.226521492E0
9.327662560E0,-1.347757339E0,-7.764709473E0,2.169093609E0
9.348062403E0,-2.164308071E0,-6.696912289E0,1.912463546E0
9.368198237E0,-4.362115860E0,-6.560521603E0,-1.680957973E-1
9.388465997E0,-2.458625317E0,-7.819744587E0,1.606182218E0
9.408733862E0,-1.896311998E0,-9.227322578E0,2.219342947E0
9.429001726E0,-3.227319479E0,-1.197607708E1,2.841476917E0
9.449269591E0,-4.074976921E0,-1.483968830E1,3.459423304E0
9.469537508E0,-2.866003275E0,-1.532543087E1,3.133999348E0
9.489805424E0,5.264209956E-2,-1.307498074E1,3.344567776E0
9.510073289E0,4.661816597E0,-1.205982590E1,-9.218349457E-1
9.530341205E0,4.989633560E0,-1.126481056E1,-1.657029629E0
9.550609174E0,8.907282352E-1,-9.105288506E0,8.853443712E-2
9.570877039E0,-6.939185858E-1,-6.785446644E0,8.853443712E-2
9.591145008E0,-7.202396393E-1,-5.586044312E0,-6.562315822E-1
9.611412976E0,-1.390828133E0,-5.789434433E0,-1.128215909E0
9.631680893E0,-2.463410854E0,-6.656234264E0,-1.398604870E0
9.651948810E0,-3.244069338E0,-7.709674358E0,-1.341177106E0
9.672216674E0,-4.220939159E0,-8.353941917E0,-1.590030670E0
9.692484591E0,-5.238486767E0,-8.428119659E0,-2.303689957E0
9.712752560E0,-5.501697540E0,-8.161917686E0,-2.739183664E0
9.733020476E0,-3.612564087E0,-8.188239098E0,-3.033500910E0
9.753288393E0,-1.893919110E0,-9.033503532E0,-4.281357765E0
9.773556310E0,-4.067798555E-1,-1.049671459E1,-6.148357868E0
9.793824278E0,2.413759947E0,-1.157886887E1,-8.380263329E0
9.814092195E0,3.909872293E0,-1.070728302E1,-7.697710514E0
9.834360112E0,3.658625841E0,-9.177073479E0,-4.767100811E0
9.854628028E0,2.966501951E0,-8.650651932E0,-1.597209096E0
9.874895945E0,1.149153113E0,-9.651450157E0,1.436291814E0
9.895163862E0,-1.106082320E0,-1.087238789E1,3.080759048E0
9.915431778E0,-2.573480844E0,-1.098485088E1,1.993819475E0
9.935699695E0,-3.330210924E0,-1.256291676E1,-6.689733982E0
9.955967664E0,-4.491328239E0,-1.151426220E1,-5.078167915E0
9.976235580E0,-3.780061483E0,-9.364311218E0,5.838487148E-1
9.996503497E0,-3.155534744E0,-9.320642471E0,1.132403374E0
1.001677141E1,-2.008774519E0,-9.052646637E0,1.809572101E0
1.003703933E1,-1.185045362E0,-8.509475708E0,1.914856315E0
1.005730725E1,-7.393822074E-1,-8.349156380E0,1.716252089E0
1.007757516E1,-1.196411345E-2,-8.475975990E0,1.670788407E0
1.009784308E1,9.385846853E-1,-8.882756233E0,1.261615753E0
1.011811094E1,1.125224829E0,-9.725627899E0,7.561319470E-1
1.013837891E1,7.519445419E-1,-1.103031445E1,6.628118753E-1
1.015864683E1,8.069794178E-1,-1.213878918E1,9.523434043E-1
1.017891475E1,9.529415965E-1,-1.252223873E1,1.362114310E0
1.019918266E1,4.408775866E-1,-1.173918819E1,1.182652593E0
1.021945058E1,-3.828516304E-1,-1.017069244E1,8.015955687E-1
1.023971850E1,-8.165507317E-1,-8.866005898E0,4.450650215E-1
1.025998641E1,-1.505683661E0,-7.652246952E0,-6.281159073E-2
1.028025433E1,-3.148356438E0,-6.661019802E0,-5.964110494E-1
1.030052225E1,-4.390829563E0,-6.452844620E0,-3.595215976E-1
1.032079016E1,-4.527220249E0,-7.578069210E0,2.512463629E-1
1.034105808E1,-2.784049034E0,-9.634700775E0,5.407779217E-1
1.036132594E1,-1.058225870E0,-1.101595688E1,6.508477330E-1
1.038159386E1,-4.953143001E-1,-1.235414314E1,7.537391186E-1
1.040186178E1,1.818545163E-1,-1.311326599E1,8.087740541E-1
1.042212970E1,8.189435601E-1,-1.204307652E1,3.349951804E-1
1.044252970E1,7.304090858E-1,-1.033819008E1,-1.066002488E0
1.046266553E1,2.973082066E-1,-9.749555588E0,-1.654636860E0
1.048293344E1,-6.460621208E-2,-9.761520386E0,-1.061216831E0
1.050320131E1,-5.838487148E-1,-9.258428574E0,-8.404789567E-1
1.052346923E1,-1.354935765E0,-8.732007980E0,-7.591229677E-1
1.054386923E1,-1.091725349E0,-9.229715347E0,-6.562315822E-1
1.056400506E1,2.201396823E-1,-1.015155029E1,-4.241278172E-1
1.058427287E1,1.554138303E0,-1.094417286E1,1.746760458E-1
1.060454084E1,2.044667006E0,-1.095374393E1,1.240080357E0
1.062480876E1,1.496710539E0,-1.064746284E1,1.601396561E0
1.064520876E1,5.509474277E-1,-1.121695423E1,1.376471281E0
1.066534459E1,-4.905286431E-1,-1.220339584E1,9.978070259E-1
1.068561246E1,-1.505683661E0,-1.249831104E1,7.106683254E-1
1.070588037E1,-2.673979282E0,-1.147358418E1,-1.214357495E0
1.072614829E1,-3.882952929E0,-1.079581738E1,-3.605983734E0
1.074654829E1,-2.164308071E0,-9.790233612E0,-9.577272534E-1
1.076668407E1,-1.960918188E0,-9.117252350E0,-3.571287692E-1
1.078695199E1,-1.508076429E0,-9.543772697E0,1.962114573E-1
1.080721990E1,-9.170492887E-1,-1.039561844E1,9.667003751E-1
1.082748777E1,-5.431707501E-1,-1.164108181E1,9.690931439E-1
1.084775569E1,4.959124923E-1,-1.297448254E1,-1.041476011E0
1.086802360E1,1.115653515E0,-1.223210907E1,-2.662613392E0
1.088829147E1,4.313062727E-1,-9.787840843E0,-1.850848317E0
1.090855938E1,-4.139583111E-1,-8.344370842E0,-8.356932998E-1
1.092882730E1,-4.067798555E-1,-7.802994728E0,9.092725813E-2
1.094922730E1,-3.780659735E-1,-7.470392227E0,6.412764788E-1
1.096936308E1,-3.804588020E-1,-7.281359196E0,-1.058823988E-1
1.098963100E1,-1.041476011E0,-7.034300327E0,-1.355534077E0
1.100989886E1,-1.701895118E0,-6.933801651E0,-1.762313843E0
1.103016678E1,-2.154736757E0,-7.120441914E0,-2.001596212E0
1.105043470E1,-3.334996462E0,-7.427321434E0,-2.090130568E0
1.107070256E1,-4.007977962E0,-8.011170387E0,-2.588435888E0
1.109097048E1,-3.957728624E0,-8.705686569E0,-3.304488182E0
1.111123834E1,-3.095714331E0,-9.169894218E0,-4.183252335E0
1.113150626E1,-1.599003673E0,-9.476774216E0,-4.551746845E0
1.115177417E1,-2.727817893E-1,-9.381061554E0,-4.355535507E0
1.117204204E1,7.304090858E-1,-9.342177391E0,-3.440878868E0
1.119230990E1,1.305284739E0,-8.190631866E0,-2.980858803E0
1.121257782E1,1.192223907E0,-6.500700951E0,-2.547757864E0
1.123284574E1,4.528416991E-1,-5.665007591E0,-2.030309916E0
1.125311360E1,-6.819544435E-1,-5.700900078E0,-1.479960799E0
1.127338152E1,-1.903490424E0,-6.622735023E0,-1.034297585E0
1.129364938E1,-2.676372051E0,-7.755138397E0,-8.811569214E-1
1.131391730E1,-3.277568817E0,-8.332406998E0,-1.362712502E0
1.133418516E1,-3.004786968E0,-7.802994728E0,-1.728814363E0
1.135445308E1,-1.682752490E0,-6.622735023E0,-1.415354609E0
1.137472094E1,-1.086939692E0,-6.052644730E0,-9.266205430E-1
1.139498886E1,-7.082754970E-1,-5.916254044E0,-1.283749342E0
1.141525673E1,-1.208973646E0,-7.934599876E0,-1.094716311E0
1.143552464E1,-9.601200819E-1,-1.079581738E1,-1.609173268E-1
1.145579251E1,-1.893919110E0,-1.580937958E1,-3.261417150E0
1.147606037E1,7.088736892E-1,-3.219483185E1,-2.062134552E1
1.149632829E1,-2.164308071E0,-2.452643204E1,3.552743435E0
1.151659615E1,-1.443470240E0,-1.413320732E1,6.825526714E0
1.153699615E1,-6.771687865E-1,-1.029511929E1,6.193223000E0
1.155713194E1,-2.656033039E-1,-7.319644451E0,4.414757729E0
1.157739980E1,-2.632104978E-2,-5.734399319E0,2.219342947E0
1.159766772E1,1.004985496E-1,-5.523830891E0,1.189831018E0
1.161793558E1,-2.249253243E-1,-7.065407276E0,4.618147612E-1
1.163820344E1,-4.115654826E-1,-1.039083195E1,-9.960124493E-1
1.165847126E1,-2.679961324E-1,-1.306062412E1,-5.885147095E0
1.167873923E1,1.579262912E-1,-1.068335533E1,-4.288536549E0
1.169900709E1,4.863412082E-1,-7.266404152E0,-3.076571703E0
1.171927496E1,4.863412082E-1,-7.829315662E0,-2.997608662E0
1.173954282E1,-5.312066078E-1,-8.626724243E0,-2.085345030E0
1.175981074E1,-1.436291814E0,-8.001599312E0,-6.586244106E-1
1.178007860E1,-1.773679733E0,-6.878767014E0,-5.802594870E-2
1.180034652E1,-1.321436286E0,-6.131608009E0,-6.514459848E-1
1.182061438E1,-3.732803464E-1,-6.086144447E0,-2.487937450E0
1.184088225E1,-2.153540403E-2,-6.672984123E0,-3.780659676E0
1.186115011E1,2.805584669E-1,-6.969694138E0,-4.647459984E0
1.188141803E1,4.983053207E-1,-7.537391186E0,-5.815755367E0
1.190168589E1,3.332005441E-1,-8.092526436E0,-4.740779877E0
1.192195772E1,1.698904037E-1,-8.039883614E0,-3.828516245E0
1.194226011E1,-5.790630579E-1,-8.952147484E0,-3.773481369E0
1.196248891E1,-2.273181528E-1,-1.043450165E1,-1.779063582E0
1.198275688E1,2.153540403E-1,-1.294337559E1,-4.097708762E-1
1.200302485E1,6.586244106E-1,-2.288435745E1,3.972085714E-1
1.202329272E1,-2.539981127E0,-3.004248619E1,-1.092323542E0
1.204369282E1,-7.127620220E0,-1.662772369E1,-4.391427994E0
1.206382865E1,-3.559921980E0,-7.367500782E0,-3.735196114E0
1.208409657E1,-2.178664923E0,-3.792623997E0,-2.514258385E0
1.210436444E1,-2.068595171E0,-4.144368649E0,-1.061216831E0
1.212463230E1,-2.300698996E0,-5.815755367E0,-1.223928809E0
1.214503235E1,-1.704287887E0,-7.039085865E0,-2.550150633E0
1.216516813E1,-1.139581800E0,-7.850851059E0,-3.462414265E0
1.218543605E1,-1.031904817E0,-8.240880966E0,-3.093321562E0
1.220570391E1,-7.058826685E-1,-8.250452042E0,-2.320439816E0
1.222597178E1,-4.354937077E-1,-8.123632431E0,-2.810968399E0
1.224637183E1,-1.340578914E0,-8.037490845E0,-4.467998028E0
1.226650756E1,-9.649057388E-1,-7.865208149E0,-5.023132801E0
1.228677542E1,1.052841991E-1,-7.232904434E0,-4.360321045E0
1.230704334E1,5.629115105E-1,-6.443273067E0,-3.438486099E0
1.232731115E1,1.555334777E-1,-5.988038540E0,-2.928216696E0
1.234771115E1,-3.206382394E-1,-6.203392506E0,-2.736790895E0
1.236784694E1,-1.180259824E0,-6.014359951E0,-3.028715372E0
1.238811480E1,-2.171486616E0,-5.631507874E0,-3.021536827E0
1.240838266E1,-1.496112347E0,-6.126822472E0,-1.113858938E0
1.242865053E1,-9.649057388E-1,-6.795018196E0,4.235295951E-1
1.244891839E1,-1.369292736E0,-9.196215630E0,5.694918036E-1
1.246918626E1,-3.263211966E0,-1.701596069E1,-2.420938253E0
1.248945412E1,-3.948157310E0,-3.076093102E1,-7.697710514E0
1.250972199E1,6.849454641E-1,-2.889811897E1,-3.940979004E0
1.252998985E1,-2.057827413E-1,-1.716192245E1,7.364510059E0
1.255025772E1,6.442674994E-1,-1.245224857E1,6.818347931E0
1.257052558E1,8.165507317E-1,-8.861220360E0,4.419543266E0
1.259079345E1,8.213363886E-1,-6.397809505E0,1.546361685E0
1.261106131E1,1.690529227E0,-4.604389191E0,-4.216751575E0
1.263132917E1,2.092523336E0,-6.455237389E0,-3.469592810E0
1.265159704E1,-5.000999570E-1,-9.416953087E0,-1.716850281E0
1.267186490E1,-1.584646821E0,-1.043210888E1,-6.179464459E-1
1.269213277E1,-1.417149186E0,-9.763913155E0,-1.152144074E0
1.271240063E1,-1.596610904E0,-7.357929707E0,-4.228715897E0
1.273266850E1,-2.070987940E0,-5.676971912E0,-4.053441525E0
1.275293636E1,-2.736192703E0,-5.844469070E0,-2.061416626E0
1.277320423E1,-2.492124796E0,-5.973681927E0,-4.576273263E-1
1.279347209E1,-1.649253011E0,-6.393023968E0,-7.758727670E-1
1.281373996E1,-9.577272534E-1,-7.645068169E0,-1.824527264E0
1.283400782E1,3.882354796E-1,-8.416155815E0,-2.631506681E0
1.285427569E1,1.668993831E0,-8.571688652E0,-2.849253654E0
1.287454355E1,1.573280931E0,-8.219346046E0,-2.420938253E0
1.289481141E1,1.223330617E0,-7.939385414E0,-2.224726915E0
1.291507928E1,1.592423439E0,-7.831708431E0,-2.660220623E0
1.293534709E1,1.482353687E0,-8.468797684E0,-4.984847546E0
1.295561496E1,9.984052777E-1,-1.017787075E1,-5.892325878E0
1.297588282E1,8.428717852E-1,-1.134616661E1,-3.634697676E0
1.299615068E1,3.954139352E-1,-1.319222927E1,-2.980858803E0
1.301641855E1,-3.110669553E-1,-1.939562225E1,1.606182218E0
1.303668641E1,-4.768895626E0,-2.446421814E1,-5.030909777E-1
1.305695428E1,-7.216155052E0,-1.495454311E1,-6.244070530E0
1.307722209E1,-2.508874655E0,-7.290930748E0,-4.353142738E0
1.309748996E1,-1.153938770E0,-5.569294930E0,-2.358724833E0
1.311775782E1,-6.460621357E-1,-6.354738712E0,-8.715856671E-1
1.313802568E1,-2.392822653E-1,-7.587640762E0,-2.757728100E-1
1.315829355E1,-3.661018610E-1,-8.015955925E0,-1.154536963E0
1.317856141E1,-2.440679073E-1,-7.884350777E0,-3.314059258E0
1.319882923E1,-7.178468257E-2,-8.221738815E0,-4.228715897E0
1.321909709E1,1.196411327E-1,-8.684151649E0,-3.957728624E0
1.323936496E1,-1.698904037E-1,-9.057432175E0,-3.725624800E0
1.325963282E1,-7.250252366E-1,-9.416953087E0,-4.063013077E0
1.327990063E1,-6.723831892E-1,-8.104490280E0,-4.067798615E0
1.330016850E1,-6.987041831E-1,-5.516652584E0,-3.783052683E0
1.332043636E1,-1.151545882E0,-4.007977962E0,-3.577269793E0
1.334083636E1,-1.977667928E0,-4.453640938E0,-3.603590965E0
1.336097204E1,-2.102094650E0,-6.383452415E0,-3.134597778E0
1.338123990E1,-1.910668850E0,-8.092526436E0,-1.867598057E0
1.340150766E1,-1.290329576E0,-9.220144272E0,-2.494517565E-1
1.342177558E1,-1.834098577E0,-1.001037312E1,-1.250249892E-1
1.344204345E1,-2.745764017E0,-1.125523949E1,2.368894368E-1
1.346231126E1,-2.511267424E0,-1.285244846E1,1.016949654E0
1.348257912E1,-3.234498024E0,-1.609651756E1,8.901300430E-1
1.350284699E1,1.163509965E0,-2.319063950E1,-8.552546501E0
1.352311480E1,2.665006161E0,-2.089711761E1,-2.758326292E0
1.354351480E1,1.110867858E0,-1.554078484E1,3.818346739E0
1.356365048E1,1.822134495E0,-1.313240910E1,5.156532764E0
1.358391834E1,1.836491346E0,-9.716055870E0,3.849453449E0
1.360418621E1,1.273579836E0,-7.281359196E0,1.855035782E0
1.362445402E1,1.818545163E-1,-6.193821430E0,-2.422732860E-1
1.364485402E1,-9.170492887E-1,-6.460022926E0,-2.633899450E0
1.366498970E1,-1.910668850E0,-8.068597794E0,-2.598007202E0
1.368525756E1,-2.403590441E0,-8.545368195E0,-1.219143152E0
1.370552537E1,-2.372483730E0,-7.750352383E0,-1.786242127E0
1.372579324E1,-1.364507079E0,-7.244868755E0,-3.895515203E0
1.374619324E1,-1.503290772E0,-7.173084259E0,-3.527020693E0
1.376633688E1,-2.202593327E0,-6.814160824E0,-1.812563181E0
1.378667391E1,-1.634896040E0,-6.828517437E0,-5.509474277E-1
1.380686345E1,-5.790630579E-1,-7.259225845E0,-8.572286963E-1
1.382713147E1,4.695914388E-1,-7.537391186E0,-1.826920033E0
1.384739949E1,1.343569875E0,-7.051050186E0,-2.368296146E0
1.386766746E1,1.604387641E0,-6.507879257E0,-2.191227436E0
1.388793542E1,1.384247899E0,-6.409773827E0,-1.202393413E0
1.390820339E1,1.232901812E0,-6.388238430E0,-1.133001566E0
1.392847121E1,1.618744493E0,-7.398607731E0,-3.117249727E0
1.394885787E1,1.139581800E0,-9.744770050E0,-5.557330608E0
1.396900704E1,1.627119333E-1,-1.124566841E1,-2.801397085E0
1.398927490E1,-6.077769399E-1,-1.764048767E1,-4.012763500E0
1.400954277E1,-1.086939692E0,-2.833341217E1,-9.816554785E-1
1.402981069E1,-7.350152969E0,-2.894358253E1,-4.920241356E0
1.405007850E1,-4.127619267E0,-1.279502106E1,-7.467999458E0
1.407034641E1,-1.240080357E0,-6.917052269E0,-3.720839262E0
1.409061423E1,-1.476969719E0,-6.181857109E0,-1.530210137E0
1.411088204E1,-1.194616675E0,-6.347560406E0,-7.232306600E-1
1.413114990E1,-9.146564603E-1,-6.268597126E0,-2.853440940E-1
1.415141777E1,-2.030309916E0,-6.117250919E0,-8.691928387E-1
1.417168558E1,-2.377269268E0,-5.909075737E0,-2.078166485E0
1.419195345E1,-2.465803623E0,-5.820540905E0,-2.466402054E0
1.421222126E1,-2.420340061E0,-6.078966141E0,-3.175275564E0
1.423248907E1,-1.829312921E0,-6.797410965E0,-4.130012035E0
1.425275694E1,-9.194421172E-1,-8.097311974E0,-4.934598446E0
1.427302475E1,-1.196411327E-1,-9.428917885E0,-5.361119270E0
1.429329261E1,8.739784956E-1,-1.009412193E1,-4.479962349E0
1.431356042E1,1.678565025E0,-9.529416084E0,-2.983251572E0
1.433382824E1,1.506281853E0,-8.027919769E0,-1.936989903E0
1.435409605E1,6.083751321E-1,-7.122834682E0,-1.752742529E0
1.437436391E1,-3.397808075E-1,-7.039085865E0,-2.255833626E0
1.439463173E1,-1.189831018E0,-6.799803734E0,-3.613162279E0
1.441489954E1,-1.536790371E0,-6.912266254E0,-3.481556892E0
1.443516735E1,-1.347757339E0,-7.412964344E0,-2.239083767E0
1.445543522E1,-2.489732027E0,-8.519046783E0,-1.925025821E0
1.447570303E1,-2.571087837E0,-9.550951958E0,-9.870393574E-2
1.449597084E1,-2.209771633E0,-1.103270721E1,7.680960894E-1
1.451623865E1,-4.091726780E0,-1.606062508E1,1.264008522E0
1.453650652E1,-3.380460262E0,-2.468675041E1,-5.504688263E0
1.455677433E1,1.853241086E0,-2.284068871E1,-4.338785648E0
1.457704214E1,-9.194421172E-1,-1.490429401E1,5.154139996E0
1.459730996E1,5.700899959E-1,-1.167218876E1,6.123831272E0
1.461757777E1,1.986042857E-1,-8.820542336E0,4.433900356E0
1.463784563E1,4.384847581E-1,-6.905087948E0,1.148554832E-1
1.465811345E1,2.255235434E0,-5.866004944E0,-5.363512039E0
1.467838126E1,1.633101463E0,-7.903493404E0,-2.373081923E0
1.469864907E1,-8.763712645E-1,-1.028315544E1,-1.688136339E0
1.471891688E1,-1.187438250E0,-9.921838760E0,-1.968096614E0
1.473918470E1,-2.225325108E-1,-8.854042053E0,-2.468794823E0
1.475945256E1,2.081755698E-1,-8.461619377E0,-2.191227436E0
1.477972037E1,1.196411327E-1,-7.261618614E0,-1.089930773E0
1.479998818E1,-5.982056633E-2,-6.318846226E0,-5.676971674E-1
1.482025600E1,-2.871387079E-2,-6.725626469E0,-1.441675574E-1
1.484052376E1,-7.417750359E-2,-7.334001541E0,-6.658028960E-1
1.486079162E1,-9.768698215E-1,-7.295716286E0,-1.692921996E0
1.488105944E1,-1.764108539E0,-7.232904434E0,-2.267797709E0
1.490132730E1,-1.048654556E0,-7.903493404E0,-2.212762833E0
1.492159511E1,2.901297510E-1,-9.069396019E0,-1.802991867E0
1.494186292E1,2.090130568E0,-9.878767967E0,-1.879562140E0
1.496213074E1,3.711267948E0,-9.431310654E0,-3.342773199E0
1.498239855E1,4.366901398E0,-8.459226608E0,-4.448855400E0
1.500266636E1,3.179463148E0,-8.377870560E0,-4.491926193E0
1.502293417E1,1.180259824E0,-9.850054741E0,-3.783052683E0
1.504333417E1,1.914258115E-2,-1.117388344E1,-2.078166485E0
1.506346980E1,6.221338734E-2,-1.559342670E1,-1.755135417E0
1.508373761E1,-1.299900889E0,-2.165803528E1,-2.102692842E0
1.510400542E1,-6.416353703E0,-2.094976044E1,-2.440080881E0
1.512427324E1,-6.351747513E0,-1.135573769E1,-2.825325251E0
1.514467324E1,-3.753740549E0,-6.215356827E0,-2.653042078E0
1.516480886E1,-2.690729141E0,-5.626722336E0,-1.865205288E0
1.518507667E1,-1.984846354E0,-7.427321434E0,-8.691928387E-1
1.520534449E1,-1.879562140E0,-8.822935104E0,-1.274178028E-1
1.522561230E1,-2.456232548E0,-9.773484230E0,-5.700899959E-1
1.524601230E1,-1.756929994E0,-1.028554821E1,-1.709671736E0
1.526614792E1,-9.385846853E-1,-1.066421223E1,-2.514258385E0
1.528641574E1,-2.919243574E-1,-1.035494041E1,-2.985644341E0
1.530668355E1,-9.810572863E-2,-9.016754150E0,-3.783052683E0
1.532695136E1,-6.077769399E-1,-7.242475986E0,-4.329214573E0
1.534735136E1,-1.141974568E0,-5.799005508E0,-4.829314232E0
1.536748699E1,-1.560718536E0,-5.265406132E0,-4.673780918E0
1.538775475E1,-1.563111424E0,-5.104488850E0,-4.300500393E0
1.540802256E1,-1.457827210E0,-5.459224701E0,-3.790230989E0
1.542829037E1,-1.285543919E0,-6.234499454E0,-2.992822886E0
1.544855819E1,-1.153938770E0,-6.881159782E0,-1.925025821E0
1.546882600E1,-1.151545882E0,-7.120441914E0,-1.281356573E0
1.548909381E1,-1.596610904E0,-7.165905476E0,-1.307677627E0
1.550936162E1,-2.391626120E0,-7.345965385E0,-2.138585329E0
1.552962944E1,-2.717050076E0,-8.233702660E0,-2.196012974E0
1.554989720E1,-1.958525300E0,-9.119645119E0,-4.695914388E-1
1.557016501E1,-1.886740685E0,-1.078385353E1,6.005984545E-1
1.559043282E1,-4.328616142E0,-1.684367752E1,6.340979934E-1
1.561070063E1,9.571290575E-3,-2.785664368E1,-9.505488396E0
1.563096844E1,1.472782373E0,-2.227837563E1,-2.638086975E-1
1.565123626E1,6.681957245E-1,-1.598405552E1,5.228915691E0
1.567150402E1,2.183450699E0,-1.268973637E1,6.588637352E0
1.569177183E1,2.085345030E0,-9.117252350E0,4.704289436E0
1.571203964E1,1.858026743E0,-7.005586624E0,5.599204898E-1
1.573230746E1,1.922633052E0,-5.243870735E0,-4.657031059E0
1.575257527E1,-3.589234129E-2,-6.558128834E0,-3.416950703E0
1.577284303E1,-2.506481647E0,-8.942576408E0,-3.170490026E0
1.579311084E1,-2.544766903E0,-1.006780148E1,-1.558923960E0
1.581337865E1,-1.290329576E0,-9.641879082E0,-1.257428288E0
1.583364641E1,-9.816554785E-1,-8.464012146E0,-1.724028707E0
1.585391423E1,-5.670989752E-1,-6.641877651E0,-1.941775560E0
1.587418204E1,4.336991012E-1,-5.846862316E0,-1.580459356E0
1.589444985E1,7.519445419E-1,-6.605985165E0,-9.960124493E-1
1.591471761E1,1.938186288E-1,-7.434499741E0,-7.088736892E-1
1.593498542E1,-7.345965505E-1,-6.940980434E0,-6.131607890E-1
1.595525324E1,-1.122832060E0,-6.828517437E0,-1.252642632E0
1.597552100E1,-5.000999570E-1,-7.220940590E0,-1.956132531E0
1.599578881E1,1.271187067E0,-7.865208149E0,-2.361117840E0
1.601605657E1,2.452044964E0,-8.772686005E0,-3.110071182E0
1.603632438E1,2.344367981E0,-8.901898384E0,-3.235096216E0
1.605659214E1,1.621137381E0,-8.269595146E0,-3.431307554E0
1.607685996E1,4.839483798E-1,-9.299106598E0,-5.106881618E0
1.609712772E1,3.786641955E-1,-1.104706383E1,-3.859622955E0
1.611739558E1,8.374879509E-2,-1.306062412E1,-2.777468920E0
1.613766334E1,-5.647061467E-1,-2.024567223E1,-1.996810555E0
1.615793115E1,-3.571886063E0,-2.644188690E1,-1.333998680E0
1.617819891E1,-9.212965012E0,-1.855753517E1,-3.586841106E0
1.619846673E1,-6.638886452E0,-8.772686005E0,-4.400999069E0
1.621873449E1,-2.439482689E0,-4.350749969E0,-2.499901533E0
1.623900230E1,-1.642074585E0,-4.288536549E0,-1.434497118E0
1.625927011E1,-1.204187989E0,-6.124429703E0,-7.136593461E-1
1.627953787E1,-5.096712112E-1,-7.846065521E0,-2.931207791E-2
1.629980569E1,-7.202396393E-1,-8.870791435E0,-1.274178028E-1
1.632007345E1,-5.958128572E-1,-8.968897820E0,-1.709671736E0
1.634034126E1,-5.431707501E-1,-8.787042618E0,-2.676970243E0
1.636060902E1,-4.115654826E-1,-8.949754715E0,-2.286940336E0
1.638087683E1,-2.967100143E-1,-8.995218277E0,-2.210369825E0
1.640114464E1,-1.139581800E0,-8.519046783E0,-3.527020693E0
1.642141240E1,-2.027917147E0,-7.707281590E0,-5.087738991E0
1.644168022E1,-2.202593327E0,-6.670591354E0,-5.684150219E0
1.646194798E1,-1.884347796E0,-5.844469070E0,-5.636293888E0
1.648221574E1,-1.546361685E0,-5.471189022E0,-5.161916733E0
1.650248355E1,-1.223330617E0,-5.502295494E0,-4.578067780E0
1.652275131E1,-1.297508121E0,-5.298905849E0,-4.393820763E0
1.654315131E1,-1.388435364E0,-5.954539299E0,-3.735196114E0
1.656328688E1,-1.405185103E0,-7.752745152E0,-9.577272534E-1
1.658355470E1,-1.091725349E0,-7.716853142E0,1.431506157E0
1.660382246E1,-2.422732830E0,-1.008215809E1,1.469791293E0
1.662409027E1,-5.573482037E0,-1.812204170E1,-7.088736892E-1
1.664449027E1,-2.195414782E0,-3.195315552E1,-1.122652531E1
1.666462584E1,-7.489534616E-1,-2.214437675E1,3.136392355E0
1.668489360E1,1.746760458E-1,-1.459562016E1,5.781657696E0
1.670516141E1,5.222335458E-1,-1.099442196E1,5.688337803E0
1.672542917E1,1.084546804E0,-8.080561638E0,2.896511793E0
1.674582917E1,2.712862730E0,-6.071787357E0,-2.191227436E0
1.676596475E1,4.393222332E0,-5.820540905E0,-5.059025288E0
1.678623251E1,3.619144261E-1,-8.485547066E0,-2.059023857E0
1.680650032E1,-9.768698215E-1,-1.028076267E1,-1.697707653E0
1.682676808E1,-1.435693651E-1,-1.045125103E1,-1.185643673E0
1.684703584E1,7.657032460E-2,-1.047039413E1,-1.109073281E0
1.686730365E1,-2.344966233E-1,-9.272786140E0,-1.412961721E0
1.688757141E1,-4.785645306E-1,-7.936992645E0,-9.266205430E-1
1.690783923E1,-5.742774159E-2,-7.218547821E0,-5.126622319E-1
1.692810699E1,9.332008660E-2,-6.385845661E0,-3.762713671E-1
1.694837480E1,6.939185411E-2,-5.562116146E0,-5.892325640E-1
1.696864256E1,1.339980662E-1,-5.973681927E0,-8.021938205E-1
1.698891032E1,2.805584669E-1,-7.673782349E0,-1.168893814E0
1.700917813E1,8.380861282E-1,-9.634700775E0,-1.640279889E0
1.702944589E1,1.791027784E0,-1.091545868E1,-1.927418590E0
1.704971371E1,2.961716175E0,-1.081496048E1,-2.636292458E0
1.706998147E1,3.443271875E0,-9.565308571E0,-3.653840065E0
1.709024923E1,2.392224550E0,-7.874779224E0,-3.929014683E0
1.711051704E1,1.319641709E0,-8.444869041E0,-3.766302824E0
1.713078480E1,2.815753937E0,-1.243789196E1,-2.051845312E0
1.715105256E1,4.051048756E0,-1.573520184E1,3.708875179E-1
1.717132037E1,2.327019930E0,-1.968515396E1,2.005783558E0
1.719158813E1,-2.360519648E0,-2.178724861E1,2.889333248E0
1.721185589E1,-5.853442192E0,-1.960379791E1,1.649253011E0
1.723212370E1,-9.507282257E0,-1.695135307E1,-7.178467698E-3
1.725239147E1,-7.670791149E0,-1.363549995E1,-2.082952023E0
1.727265923E1,-3.442673683E0,-1.081735325E1,-2.662613392E0
1.729292699E1,-3.521636724E0,-8.995218277E0,3.972085714E-1
1.731319480E1,-3.110071182E0,-7.860422611E0,3.323032379E0
1.733346256E1,-7.178468108E-1,-7.673782349E0,1.670788407E0
1.735373037E1,2.109273195E0,-8.641080856E0,-9.218349457E-1
1.737399813E1,1.767099500E0,-8.880363464E0,-1.005583763E0
1.739426589E1,-7.728816867E-1,-7.597211838E0,-1.925025821E0
1.741453365E1,-2.899502754E0,-6.421737671E0,-2.466402054E0
1.743480147E1,-3.921836376E0,-6.632306099E0,-3.093321562E0
1.745506923E1,-3.878167391E0,-7.580461979E0,-3.952943087E0
1.747533699E1,-2.243271112E0,-8.770293236E0,-5.973681927E0
1.749560480E1,-5.024927258E-1,-9.842875481E0,-6.314060688E0
1.751587256E1,-1.309472203E0,-9.515059471E0,-4.561318398E0
1.753614027E1,-2.264806747E0,-7.987242222E0,-3.919443607E0
1.755640803E1,-1.675574064E0,-6.378666878E0,-4.353142738E0
1.757667584E1,6.681957245E-1,-5.830112457E0,-4.036691666E0
1.759694365E1,1.252044439E0,-8.775078773E0,-3.632304668E0
1.761721141E1,2.078166485E0,-1.409970760E1,2.511267424E0
1.763747917E1,-2.214557409E0,-1.754238129E1,2.078166485E0
1.765774694E1,-3.449851990E0,-1.968515396E1,9.858429432E-1
1.767801470E1,-2.775674164E-1,-1.643629837E1,2.145165443E0
1.769828251E1,-2.057827413E-1,-1.019222832E1,4.007379532E0
1.771855027E1,-4.785645306E-1,-7.230511665E0,3.394817114E0
1.773881803E1,-1.218544960E0,-5.495117188E0,3.056830883E0
1.775908579E1,-2.416750938E-1,-5.404190063E0,1.414756417E0
1.777935355E1,1.651047617E-1,-6.014359951E0,1.180259824E0
1.779962131E1,-8.135596663E-2,-7.515855789E0,1.331007600E0
1.781988912E1,-1.148554832E-1,-9.086145401E0,1.433898926E0
1.784028912E1,-4.378865361E-1,-1.020658493E1,1.627717614E0
1.786042464E1,-8.237292171E-1,-1.095613670E1,1.771286964E0
1.788069240E1,-1.929811478E0,-1.112841988E1,1.929213285E0
1.790096022E1,-3.727419376E0,-1.094656563E1,2.087737799E0
1.792122798E1,-7.309474945E0,-1.032622623E1,7.968099117E-1
1.794149574E1,-8.532805443E0,-8.755936623E0,-8.021938205E-1
1.796176350E1,-6.287141323E0,-7.834101200E0,-2.751147747E0
1.798203126E1,-3.270390272E0,-7.956135273E0,-3.168097258E0
1.800229902E1,-9.888339639E-1,-8.717651367E0,-2.303689957E0
1.802256678E1,7.950153351E-1,-9.986445427E0,-9.505487680E-1
1.804296678E1,1.613958836E0,-1.167936707E1,4.857429862E-1
1.806310235E1,2.080559254E0,-1.258684540E1,9.332008362E-1
1.808337011E1,2.382653236E0,-1.232064342E1,1.055832982E0
1.810363787E1,2.173879385E0,-1.117866898E1,1.256830096E0
1.812390563E1,1.539781332E0,-1.027597713E1,1.225723386E0
1.814430563E1,1.027119160E0,-9.842875481E0,2.775674164E-1
1.816444115E1,1.531406492E-1,-9.498309135E0,-1.554138303E0
1.818470897E1,-9.433703423E-1,-1.015394306E1,-6.394818425E-1
1.820497673E1,-2.630908489E0,-9.984052658E0,-4.432703853E-1
1.822524449E1,-3.169891834E0,-9.967302322E0,-2.422732860E-1
1.824564449E1,-5.982056856E-1,-1.146401310E1,2.799602449E-1
1.826578001E1,1.261615753E0,-1.292901897E1,9.810572863E-2
1.828604777E1,2.276770830E0,-1.421216965E1,1.012163997E0
1.830631553E1,2.593221426E0,-1.494018650E1,2.683550596E0
1.832658329E1,1.960918188E0,-1.398245907E1,3.421138287E0
1.834698329E1,8.614161611E-2,-1.103509998E1,2.128415823E0
1.836711886E1,-1.723430514E0,-8.480761528E0,-3.475574851E-1
1.838738662E1,-3.129213810E0,-7.197012424E0,-1.456032634E0
1.840765438E1,-3.239283562E0,-7.000801086E0,-4.887340367E-1
1.842792214E1,-2.717050076E0,-7.420143127E0,7.034898400E-1
1.844818996E1,-2.338984251E0,-8.080561638E0,1.479362607E0
1.846845772E1,-2.461018085E0,-8.822935104E0,1.280758262E0
1.848872542E1,-2.673979282E0,-1.053260708E1,1.632503271E0
1.850899318E1,-3.098107100E0,-1.304626751E1,2.982653379E0
1.852926100E1,-3.330210924E0,-1.489472294E1,5.953940868E0
1.854952876E1,-1.970489502E0,-1.340758324E1,6.135795593E0
1.856979652E1,4.309473515E0,-1.216032505E1,-3.462414265E0
1.859006433E1,6.984051228E0,-1.200957680E1,-3.940979004E0
1.861033209E1,1.041476011E0,-9.845269203E0,-6.155536175E-1
1.863059985E1,-3.086741269E-1,-8.104490280E0,7.178468257E-2
1.865086761E1,-8.165507317E-1,-8.161917686E0,-4.839483798E-1
1.867113537E1,-1.884347796E0,-7.764709473E0,-5.892325640E-1
1.869140313E1,-2.812762976E0,-7.367500782E0,-7.447660565E-1
1.871167089E1,-3.849453449E0,-6.996015072E0,-9.170492887E-1
1.873193865E1,-4.697110653E0,-6.541378975E0,-1.128215909E0
1.875220641E1,-5.300700188E0,-6.234499454E0,-1.348355532E0
1.877260641E1,-5.374877930E0,-6.529414654E0,-1.779063582E0
1.879274194E1,-4.697110653E0,-7.444071293E0,-2.736790895E0
1.881300975E1,-2.635694027E0,-8.913862228E0,-5.578866005E0
1.883327751E1,5.533402562E-1,-1.146162033E1,-9.811769485E0
1.885354527E1,5.037489891E0,-1.237089348E1,-1.066660500E1
1.887381303E1,6.239284992E0,-9.804591179E0,-6.584449768E0
1.889408079E1,6.200999737E0,-8.269595146E0,-1.604387641E0
1.891434855E1,4.601995945E0,-1.053499985E1,5.458626747E0
1.893461631E1,1.938186288E-1,-1.327119255E1,6.358926296E0
1.895488407E1,-3.447459221E0,-1.397528076E1,2.094916344E0
1.897515183E1,-2.647658348E0,-1.328794193E1,-8.825327873E0
1.899541964E1,-5.025525570E0,-1.095613670E1,-2.717648268E0
1.901568740E1,-4.194618225E0,-1.095852947E1,1.646860242E0
1.903595516E1,-3.595814228E0,-9.986445427E0,2.571087837E0
1.905622292E1,-2.484946251E0,-8.085348129E0,1.910070658E0
1.907649068E1,-1.644467354E0,-6.696912289E0,1.802393675E0
1.909675845E1,-1.292722464E0,-5.877968788E0,1.168295622E0
1.911702621E1,-1.067797065E0,-6.900302410E0,4.881358147E-1
1.913729397E1,-1.405185103E0,-8.712865829E0,3.397808075E-1
1.915756173E1,-1.716252089E0,-1.054696369E1,7.704889178E-1
1.917782954E1,-1.649253011E0,-1.222014523E1,1.208973646E0
1.919809730E1,-1.182652593E0,-1.296969700E1,1.833500385E0
1.921836506E1,-4.666004181E-1,-1.189232826E1,1.400399446E0
1.923863282E1,-5.072783828E-1,-1.048714352E1,3.230310678E-1
1.925890058E1,-8.620143533E-1,-9.035896301E0,-9.720842242E-1
1.927916834E1,-1.376471281E0,-7.654639721E0,-2.688934565E0
1.929956834E1,-1.333400369E0,-7.898707390E0,-2.246262312E0
1.931970391E1,-1.206580877E0,-8.748757362E0,-1.137787223E0
1.933997167E1,-1.101296663E0,-9.517452240E0,-1.680957973E-1
1.936023944E1,-1.029511929E0,-1.003669453E1,2.416750938E-1
1.938050720E1,-5.982056856E-1,-1.040818024E1,4.833501875E-1
1.940077496E1,-5.503492057E-2,-1.062114143E1,6.460621357E-1
1.942104272E1,2.368894368E-1,-1.047278690E1,7.872386575E-1
1.944131048E1,2.392822653E-1,-9.969695091E0,7.369893789E-1
1.946157824E1,-4.785645287E-3,-9.424132347E0,5.958128572E-1
1.948184600E1,-3.373879790E-1,-9.167501450E0,8.853443712E-2
1.950211381E1,-9.194421172E-1,-8.978468895E0,-1.338784218E0
1.952238157E1,-1.613360643E0,-8.755936623E0,-3.019144058E0
1.954278157E1,-1.089332461E0,-8.736793518E0,-2.734398127E0
1.956291709E1,-6.293123364E-1,-8.794221878E0,-1.154536963E0
1.958318485E1,-5.551348329E-1,-8.803792953E0,1.818545163E-1
1.960345261E1,-5.359922647E-1,-8.772686005E0,5.312066078E-1
1.962372037E1,-3.732803464E-1,-8.593224525E0,3.828516230E-2
1.964412037E1,2.225325108E-1,-8.351549149E0,-1.070788145E0
1.966425589E1,6.442674994E-1,-8.135597229E0,-1.647458434E0
1.968452370E1,6.107679605E-1,-7.977670670E0,-1.956132531E0
1.970479147E1,-5.623133183E-1,-7.822137356E0,-1.525424480E0
1.972505923E1,-1.472184181E0,-7.508677483E0,-1.348355532E0
1.974545923E1,-2.006381750E0,-7.331608772E0,-1.781456470E0
1.976559475E1,-2.094916344E0,-7.216155052E0,-2.198405743E0
1.978586251E1,-1.486541033E0,-7.310073376E0,-2.401795626E0
1.980613027E1,-2.368894368E-1,-7.288537979E0,-1.982453585E0
1.982639803E1,1.103689432E0,-6.605985165E0,-1.893919110E0
1.984666579E1,1.779063582E0,-6.431309223E0,-2.626721144E0
1.986693355E1,1.812563181E0,-9.356534958E0,-3.967299938E0
1.988720136E1,1.051047325E0,-1.137727356E1,-3.230310678E0
1.990746912E1,6.993024349E-1,-1.683410645E1,-2.909074068E0
1.992773688E1,1.168295622E0,-2.883351326E1,-2.361117840E0
1.994813688E1,-1.113260746E0,-2.788775063E1,-4.568496704E0
1.996827240E1,-4.661218643E0,-1.359721470E1,-3.438486099E0
1.998854016E1,-2.949752092E0,-6.924230576E0,-3.112463951E0
2.000880792E1,-3.081357241E0,-6.076572895E0,-2.586043119E0
2.002907569E1,-3.507279873E0,-8.288737297E0,-1.432104349E0
2.004934344E1,-3.466601849E0,-8.373085022E0,-1.781456470E0
2.006961120E1,-2.784049034E0,-6.943373203E0,-1.673779488E0
2.008987902E1,-2.377269268E0,-5.617151260E0,-1.092323542E0
2.011014673E1,-2.528017044E0,-4.929812908E0,-7.064808607E-1
2.013041454E1,-2.846262455E0,-5.385047436E0,-1.007976532E0
2.015068230E1,-2.997608662E0,-6.352345943E0,-2.035095692E0
2.017095006E1,-2.779263496E0,-6.929016113E0,-3.268595695E0
2.019121782E1,-2.482553482E0,-7.379465103E0,-4.432105541E0
2.021148558E1,-2.298306227E0,-7.996813297E0,-5.339583874E0
2.023175334E1,-1.345364571E0,-8.636295319E0,-5.277370453E0
2.025202110E1,-3.780659735E-1,-9.124430656E0,-3.778266907E0
2.027228886E1,4.360919297E-1,-8.499904633E0,-2.722434044E0
2.029255662E1,5.485545993E-1,-7.329215527E0,-2.075773716E0
2.031282438E1,6.586244106E-1,-6.416952133E0,-2.001596212E0
2.033309214E1,8.500502706E-1,-6.009573936E0,-3.476771355E0
2.035335990E1,1.027119160E0,-6.184250355E0,-3.416950703E0
2.037362766E1,4.025924206E-1,-6.948158741E0,-6.993024349E-1
2.039389542E1,-8.333004713E-1,-8.135597229E0,9.738788009E-1
2.041416318E1,-1.689931035E0,-1.000798035E1,6.795616150E-1
2.043443095E1,-4.098905087E0,-1.458126259E1,-3.486342669E0
2.045469871E1,-4.347758770E0,-2.565404892E1,-1.084606647E1
2.047496647E1,-3.715455294E0,-2.813959503E1,-4.518247128E0
2.049523423E1,-3.299104214E0,-1.828714752E1,5.036891460E0
2.051550199E1,-1.555932879E0,-1.295055389E1,6.406782627E0
2.053576975E1,-5.934200287E-1,-1.015633583E1,6.882954121E0
2.055603751E1,-1.962114573E-1,-8.521439552E0,4.402793884E0
2.057630527E1,5.246263742E-1,-8.097311974E0,1.740180254E0
2.059657303E1,2.454437733E0,-7.625925541E0,-2.087737799E0
2.061684079E1,3.543770313E0,-7.834101200E0,-8.157132149E0
2.063710855E1,5.629115105E-1,-9.424132347E0,-3.230310678E0
2.065737631E1,1.866401732E-1,-9.689735413E0,-8.979067206E-1
2.067764407E1,-3.589234054E-1,-8.586046219E0,-1.707278967E0
2.069791178E1,-9.242277741E-1,-6.883552551E0,-3.608376503E0
2.071817949E1,-9.649057388E-1,-6.090929985E0,-2.693720102E0
2.073844725E1,-1.036690354E0,-6.117250919E0,-8.835497499E-1
2.075871501E1,-1.060618639E0,-6.280561447E0,2.344966233E-1
2.077898277E1,-5.264210105E-1,-6.665805817E0,-5.988038778E-1
2.079925053E1,1.603191197E-1,-7.012764931E0,-2.956930637E0
2.081951829E1,-2.297109663E-1,-7.077371120E0,-4.338785648E0
2.083978605E1,-1.814357758E0,-6.852446079E0,-3.854837179E0
2.086005381E1,-2.654836655E0,-7.527820110E0,-2.581257343E0
2.088032157E1,-1.951346874E0,-7.484749317E0,-1.288534999E0
2.090058933E1,-8.213363886E-1,-7.441678524E0,-2.030309916E0
2.092085709E1,2.925225794E-1,-8.114061356E0,-4.077369690E0
2.094112485E1,1.738385677E0,-9.735198975E0,-6.210571289E0
2.096139261E1,2.698505640E0,-1.257248878E1,-3.302095175E0
2.098166032E1,2.349153519E0,-1.387478256E1,-8.261220455E-1
2.100192808E1,7.639086246E-1,-2.103829575E1,3.445664644E-1
2.102219584E1,-5.085346222E0,-2.731107903E1,-2.709871531E-1
2.104259584E1,-7.376473904E0,-1.825125504E1,-4.755136967E0
2.106273136E1,-2.590230465E0,-8.236095428E0,-3.797409534E0
2.108299912E1,-2.336591244E0,-4.800600529E0,-1.846062660E0
2.110326688E1,-2.831905603E0,-4.039084435E0,-9.218349457E-1
2.112353464E1,-2.209771633E0,-4.350749969E0,-1.592423439E0
2.114393464E1,-1.273579836E0,-5.049454212E0,-2.669791937E0
2.116407016E1,-4.833501875E-1,-5.880361557E0,-3.842873096E0
2.118433782E1,3.589234129E-2,-7.319644451E0,-4.616353035E0
2.120460563E1,2.392822644E-3,-8.717651367E0,-5.322834015E0
2.122487339E1,-1.218544960E0,-1.018983555E1,-5.215157032E0
2.124527339E1,-1.285543919E0,-1.158604717E1,-4.800600529E0
2.126540891E1,-4.354937077E-1,-1.136052418E1,-3.888336897E0
2.128567667E1,-3.517449200E-1,-8.645866394E0,-3.373879910E0
2.130594444E1,-3.349951804E-1,-6.191428661E0,-3.213560820E0
2.132621220E1,2.392822644E-3,-4.836492538E0,-2.777468920E0
2.134661220E1,-2.679961324E-1,-4.312464714E0,-2.605185747E0
2.136674766E1,-5.096712112E-1,-4.812564373E0,-1.372283816E0
2.138701542E1,-5.335994363E-1,-5.782256126E0,7.609176040E-1
2.140728318E1,-6.340979934E-1,-7.125227451E0,1.084546804E0
2.142755094E1,-1.230509043E0,-9.019146919E0,6.029912829E-1
2.144781871E1,-2.933002472E0,-1.295773315E1,1.148554832E-1
2.146808647E1,-7.074978352E0,-2.255594254E1,3.493520916E-1
2.148835417E1,-2.719442844E0,-3.265963745E1,-8.428119659E0
2.150862194E1,-2.188236237E0,-1.971626091E1,1.649253011E0
2.152888970E1,-1.563111424E0,-1.213878918E1,2.992224693E0
2.154928970E1,-7.489534616E-1,-9.840482712E0,4.218546391E0
2.156942522E1,1.435693651E-1,-7.922635555E0,3.020938635E0
2.158969298E1,1.012762189E0,-6.713662148E0,2.475374937E0
2.160996068E1,1.326820135E0,-6.596413612E0,1.201795220E0
2.163022844E1,2.851646423E0,-7.867600918E0,-4.640281200E0
2.165049620E1,8.404789567E-1,-9.337391853E0,-4.377070904E0
2.167076397E1,4.767699242E-1,-9.009575844E0,-2.001596212E0
2.169103173E1,4.265206456E-1,-7.592426300E0,-2.552543640E0
2.171129949E1,1.746760458E-1,-7.384250641E0,-3.464807272E0
2.173156720E1,-5.886343718E-1,-7.283751965E0,-1.996810555E0
2.175183496E1,-1.051047325E0,-6.950551510E0,-6.041877344E-2
2.177210272E1,-8.715856671E-1,-6.548557281E0,5.024927258E-1
2.179237048E1,-3.206382394E-1,-5.870790482E0,-1.185643673E0
2.181263824E1,1.914258152E-1,-6.940980434E0,-3.208775282E0
2.183290600E1,-5.742774159E-2,-8.149953842E0,-3.349951744E0
2.185317376E1,-1.339980662E-1,-7.415357590E0,-2.866003275E0
2.187344147E1,2.321037948E-1,-7.225726128E0,-2.617149830E0
2.189370923E1,7.758727670E-1,-7.460821152E0,-2.339582443E0
2.191397699E1,1.228116274E0,-7.915457249E0,-3.088535786E0
2.193424475E1,1.218544960E0,-9.150752068E0,-4.623531342E0
2.195451251E1,9.361918569E-1,-1.072163963E1,-3.878765583E0
2.197478027E1,6.299105883E-1,-1.213400364E1,-2.743969440E0
2.199504803E1,1.124626622E-1,-1.866042709E1,-5.222335458E-1
2.201531579E1,-1.994417667E0,-2.971945572E1,-1.968096644E-1
2.203558350E1,-6.114858150E0,-2.195773697E1,-5.140381336E0
2.205585126E1,-2.887538671E0,-9.426525116E0,-4.843671322E0
2.207611902E1,-2.154736757E0,-5.581258774E0,-2.897109985E0
2.209638678E1,-2.228914261E0,-5.507081509E0,-1.283749342E0
2.211665454E1,-1.987239242E0,-6.519843578E0,-8.859425783E-1
2.213692230E1,-2.015953064E0,-7.237690449E0,-1.549352646E0
2.215719006E1,-1.910668850E0,-7.247261524E0,-2.629113913E0
2.217745777E1,-1.467398524E0,-6.986443996E0,-2.880360365E0
2.219772542E1,-1.390828133E0,-6.364310265E0,-3.259024382E0
2.221799329E1,-8.500502706E-1,-6.483951092E0,-4.585246563E0
2.223826105E1,5.461617708E-1,-7.767102242E0,-5.365904808E0
2.225852881E1,2.368296146E0,-8.937790871E0,-5.375475883E0
2.227879657E1,2.861217737E0,-8.739186287E0,-4.472783566E0
2.229906433E1,2.672184706E0,-7.716853142E0,-2.176870346E0
2.231933204E1,1.611566067E0,-6.716054916E0,-3.571287692E-1
2.233973204E1,3.379862010E-1,-6.787839413E0,3.349951655E-2
2.235986756E1,-6.771687865E-1,-7.053442955E0,-1.322034448E-1
2.238013532E1,-1.632503271E0,-6.381059647E0,-6.777670383E-1
2.240040308E1,-2.817548752E0,-5.408975601E0,-1.630708575E0
2.242080308E1,-3.856631994E0,-6.205785751E0,-2.284547329E0
2.244093860E1,-4.474578381E0,-8.877969742E0,-2.519043922E0
2.246120631E1,-4.606183529E0,-1.365703487E1,-2.875574589E0
2.248147407E1,-5.090131760E0,-2.452164650E1,-6.905087948E0
2.250174183E1,-3.967299938E0,-2.867080116E1,-4.482355118E0
2.252201756E1,-2.315055847E0,-1.744906044E1,3.887738705E0
2.254235449E1,-8.859425783E-1,-1.297208977E1,5.676373482E0
2.256254397E1,-2.775674164E-1,-1.042732334E1,5.551946640E0
2.258281188E1,5.030909777E-1,-7.999206066E0,4.405186653E0
2.260307985E1,1.582852125E0,-7.034300327E0,2.518445730E0
2.262334756E1,4.573282242E0,-7.165905476E0,-4.578067780E0
2.264374772E1,2.703291416E0,-8.377870560E0,-5.296513081E0
2.266388339E1,-8.356932998E-1,-9.428917885E0,-3.016751051E0
2.268415126E1,-1.905883193E0,-8.504690170E0,-2.188834429E0
2.270441907E1,-9.984052777E-1,-7.108478069E0,-2.705684185E0
2.272468678E1,-5.312066078E-1,-7.003193855E0,-2.583650351E0
2.274508683E1,-8.237292171E-1,-7.194619656E0,-1.238285661E0
2.276522240E1,-7.250252366E-1,-7.417750359E0,6.221338734E-2
2.278549022E1,1.326820135E0,-8.815756798E0,7.417750359E-2
2.280575803E1,3.198605776E0,-8.741579056E0,-1.645065546E0
2.282602579E1,2.528615236E0,-8.051848412E0,-2.849253654E0
2.284642579E1,1.024726272E0,-7.946564198E0,-2.394617319E0
2.286656131E1,-1.674975827E-2,-8.097311974E0,-1.903490424E0
2.288682907E1,-1.196411345E-2,-8.303094864E0,-2.289333105E0
2.290709683E1,7.902296782E-1,-8.023134232E0,-3.775874138E0
2.292736454E1,2.037488461E0,-7.633104324E0,-5.152345181E0
2.294776459E1,2.236092806E0,-8.102097511E0,-5.827719688E0
2.296790016E1,5.700899959E-1,-1.014437199E1,-4.082155228E0
2.298816792E1,-3.948157430E-1,-1.027597713E1,5.766702294E-1
2.300843569E1,-1.558325768E0,-1.353978729E1,3.182454109E-1
2.302870339E1,-3.662813187E0,-2.283111763E1,3.469592929E-1
2.304897120E1,-6.500102520E0,-2.508695030E1,-2.535793781E0
2.306923891E1,-3.815953970E0,-1.258445263E1,-4.575675011E0
2.308950667E1,-1.658824325E0,-7.185048103E0,-2.971287489E0
2.310977444E1,-1.082154036E0,-6.878767014E0,-1.324427366E0
2.313004220E1,-1.177866936E0,-7.345965385E0,-7.184450030E-1
2.315030996E1,-1.342971683E0,-7.692924976E0,-8.261220455E-1
2.317057772E1,-1.362114310E0,-7.465606689E0,-2.078166485E0
2.319084548E1,-1.402792215E0,-7.479963779E0,-2.863610506E0
2.321111324E1,-1.189831018E0,-7.810173035E0,-3.474378586E0
2.323138100E1,-1.192223907E0,-7.822137356E0,-4.936991215E0
2.325164876E1,-5.455635786E-1,-8.418548584E0,-5.109274387E0
2.327191652E1,-4.307080805E-2,-7.779066563E0,-4.633102894E0
2.329218428E1,2.632104978E-2,-6.450451851E0,-3.833301783E0
2.331245204E1,3.547359705E-1,-5.344369411E0,-2.502294302E0
2.333271980E1,2.225325108E-1,-4.721637249E0,-1.482353687E0
2.335298751E1,-6.269195080E-1,-4.477569580E0,-1.259821177E0
2.337325527E1,-1.534397483E0,-5.135595798E0,-1.774278045E0
2.339352303E1,-1.666002750E0,-6.527021885E0,-2.456830740E0
2.341379074E1,-9.361918569E-1,-7.523034573E0,-1.159322619E0
2.343405855E1,-1.685145378E0,-9.217751503E0,3.900300860E-1
2.345432631E1,-2.410768747E0,-1.198325539E1,1.048654556E0
2.347459407E1,-4.599005222E0,-1.784686852E1,7.489534616E-1
2.349486183E1,-4.151547432E0,-2.867558670E1,-6.579664230E0
2.351512959E1,-7.178467698E-3,-2.663331223E1,-5.327619553E0
2.353539730E1,-1.051047325E0,-1.567777443E1,4.273581028E0
2.355566506E1,1.084546804E0,-1.139163017E1,6.025725842E0
2.357593282E1,2.317448616E0,-8.995218277E0,5.604588985E0
2.359620058E1,1.695314884E0,-7.812565804E0,2.671586514E0
2.361646834E1,1.511067510E0,-7.211369038E0,-1.348355532E0
2.363673610E1,1.029511929E0,-6.799803734E0,-4.707280159E0
2.365700386E1,-9.816554785E-1,-7.690532207E0,-2.918645382E0
2.367727162E1,-2.317448616E0,-7.755138397E0,-1.592423439E0
2.369753938E1,-2.774477959E0,-7.137191772E0,-1.353141189E0
2.371780714E1,-2.209771633E0,-6.373881340E0,-2.542972326E0
2.373807490E1,-1.445863128E0,-5.968895912E0,-3.002394199E0
2.375834266E1,-1.127617717E0,-5.846862316E0,-1.613958836E0
2.377861042E1,-4.043870270E-1,-6.040680885E0,-2.973082066E-1
2.379887819E1,6.370890141E-1,-7.127620220E0,-3.308077157E-1
2.381914595E1,1.678565025E0,-8.363512993E0,-1.422533035E0
2.383941371E1,1.958525300E0,-8.030312538E0,-3.055036306E0
2.385968147E1,1.216152072E0,-7.999206066E0,-3.940979004E0
2.387994917E1,9.577272534E-1,-8.238488197E0,-3.689732552E0
2.390021694E1,1.197009563E0,-8.106883049E0,-3.627519131E0
2.392048470E1,1.024726272E0,-8.564510345E0,-5.296513081E0
2.394075246E1,2.416750938E-1,-1.025204849E1,-5.564508915E0
2.396102022E1,-5.024927482E-2,-1.151186943E1,-3.383451223E0
2.398128798E1,-4.977070987E-1,-1.518904018E1,-3.021536827E0
2.400155574E1,-1.331007600E0,-2.354956245E1,3.876372576E-1
2.402182350E1,-5.200201988E0,-2.713879585E1,-1.453639746E0
2.404209126E1,-4.017549038E0,-1.459562016E1,-4.891527653E0
2.406235902E1,-6.628118753E-1,-7.783852100E0,-3.203989506E0
2.408262678E1,-1.980060697E0,-6.515058041E0,-1.223928809E0
2.410289454E1,-1.462612867E0,-6.687341213E0,-5.557330847E-1
2.412316230E1,-5.718846321E-1,-6.560521603E0,-2.124228239E0
2.414356230E1,-5.192425251E-1,-6.744768620E0,-3.850051641E0
2.416369777E1,-1.196411327E-1,-7.319644451E0,-4.137190342E0
2.418396553E1,1.196411345E-2,-7.707281590E0,-4.231108665E0
2.420423329E1,-3.469592929E-1,-8.425726891E0,-4.259822369E0
2.422450105E1,-4.857429862E-1,-8.933005333E0,-3.871587038E0
2.424490105E1,-5.647061467E-1,-8.913862228E0,-3.723232031E0
2.426503657E1,-4.115654826E-1,-8.511868477E0,-3.443271875E0
2.428530433E1,-3.349951655E-2,-7.898707390E0,-3.102892876E0
2.430557209E1,4.408775866E-1,-7.082156658E0,-2.698505640E0
2.432583985E1,5.102694035E-1,-6.009573936E0,-2.327618122E0
2.434623985E1,3.930211067E-1,-5.114060402E0,-1.896311998E0
2.436637537E1,-2.153540403E-2,-4.858027935E0,-1.585245013E0
2.438664313E1,-4.522434771E-1,-5.243870735E0,-1.393819213E0
2.440691089E1,-7.465606928E-1,-5.626722336E0,-1.716850281E0
2.442717865E1,-1.043868899E0,-6.172286034E0,-2.011167526E0
2.444744641E1,-1.553540111E0,-6.658627033E0,-1.970489502E0
2.446771417E1,-2.516052961E0,-7.554141045E0,-1.881955028E0
2.448798194E1,-2.556730986E0,-8.598010063E0,-1.470389485E0
2.450824970E1,-2.039881229E0,-1.034776115E1,-1.551745534E0
2.452851746E1,-2.954537868E0,-1.984607124E1,-6.854838848E0
2.454878522E1,-2.267199516E0,-3.310470200E1,-1.144427204E1
2.456905303E1,-2.276770830E0,-2.367398834E1,5.810371399E0
2.458932079E1,-1.889133453E0,-1.469133282E1,6.528816700E0
2.460958850E1,-1.261615753E0,-1.054457092E1,6.131010056E0
2.462985621E1,-4.307080805E-1,-7.451249599E0,4.136591911E0
2.465012397E1,6.939185411E-2,-5.968895912E0,1.831107497E0
2.467039173E1,1.216152072E0,-5.875576019E0,-6.041877344E-2
2.469065949E1,3.452843189E0,-9.424132347E0,-8.586046219E0
2.471092725E1,3.619144261E-1,-1.107577801E1,-4.307679176E0
2.473119501E1,1.316052526E-1,-9.608379364E0,-2.385046005E0
2.475146277E1,7.136593461E-1,-7.726424217E0,-3.304488182E0
2.477173053E1,9.170492887E-1,-7.793423176E0,-3.431307554E0
2.479199829E1,2.685943544E-1,-7.762316704E0,-1.747956991E0
2.481226605E1,-2.201396823E-1,-7.139584541E0,-3.523431420E-1
2.483253381E1,2.488535494E-1,-7.305287361E0,2.392822653E-1
2.485280162E1,5.389832854E-1,-6.775875568E0,-6.753742099E-1
2.487306933E1,8.021938205E-1,-6.191428661E0,-2.605185747E0
2.489333704E1,5.246263742E-1,-6.610770702E0,-3.239881754E0
2.491360480E1,6.825526357E-1,-7.965706348E0,-3.009572744E0
2.493387256E1,1.970489502E0,-8.961718559E0,-2.799004316E0
2.495414032E1,2.973680258E0,-8.361120224E0,-5.598008633E0
2.497440808E1,3.795016766E0,-9.169894218E0,-7.113263607E0
2.499467584E1,2.538186550E0,-1.148076344E1,-4.800600529E0
2.501494360E1,1.791027784E0,-1.203111267E1,2.703889608E-1
2.503521136E1,5.024927482E-2,-1.440598869E1,1.132403374E0
2.505547912E1,-3.851846218E0,-2.336770821E1,6.317051649E-1
2.507574688E1,-1.052961636E1,-2.617389107E1,-2.399402857E0
2.509601464E1,-5.769693375E0,-1.543071461E1,-6.835696220E0
2.511628240E1,-4.642075896E-1,-9.306285858E0,-4.381856441E0
2.513655016E1,-4.283152521E-1,-8.202595711E0,-9.888339639E-1
2.515681792E1,-7.633104324E-1,-7.491927624E0,-2.691925503E-2
2.517708568E1,-7.034898400E-1,-6.809374809E0,-2.308475733E0
2.519735344E1,-1.106082320E0,-7.165905476E0,-2.930609465E0
2.521762120E1,-1.302293777E0,-7.587640762E0,-2.901895761E0
2.523788891E1,-1.615753531E0,-7.570890903E0,-2.715255499E0
2.525815667E1,-1.756929994E0,-7.759923935E0,-3.926621914E0
2.527842444E1,-1.728216171E0,-7.716853142E0,-4.264608383E0
2.529869220E1,-2.094916344E0,-7.889136314E0,-4.113262177E0
2.531895996E1,-2.176272154E0,-7.724031448E0,-4.134797573E0
2.533922772E1,-1.939382792E0,-6.677769661E0,-4.267001152E0
2.535949548E1,-1.161117196E0,-5.449653625E0,-3.962514400E0
2.537976324E1,-4.689932466E-1,-4.733601570E0,-4.163511276E0
2.540003100E1,-8.135596663E-2,-5.200799942E0,-3.780659676E0
2.542029876E1,1.866401732E-1,-6.998407841E0,-2.782254457E0
2.544056652E1,8.524430394E-1,-8.846863747E0,-2.875574589E0
2.546083428E1,9.888339639E-1,-8.741579056E0,-3.828516245E0
2.548110204E1,6.442674994E-1,-7.465606689E0,-5.674578667E0
2.550136980E1,7.782655358E-1,-6.278168201E0,-6.471987247E0
2.552163756E1,-8.853443712E-2,-6.381059647E0,-1.305284739E0
2.554190532E1,-1.055832982E0,-6.407381058E0,1.421934843E0
2.556217303E1,-2.063809633E0,-7.769495010E0,1.965105653E0
2.558244079E1,-4.295116425E0,-1.550967789E1,1.831107497E0
2.560270855E1,-8.968298912E0,-2.831666374E1,2.092523336E0
2.562297631E1,-6.770491600E0,-2.966442108E1,4.826323509E0
2.564337631E1,-1.797608018E0,-1.815314865E1,8.374878883E0
2.566351183E1,9.649057388E-1,-1.135334492E1,9.801599503E0
2.568377959E1,7.040880919E-1,-7.783852100E0,5.303092957E0
2.570404735E1,-1.225723386E0,-7.122834682E0,2.518445730E0
2.572431511E1,-9.314061999E-1,-9.263215065E0,7.082754970E-1
2.574471511E1,-1.486541033E0,-1.097527885E1,-1.482353687E0
2.576485058E1,-6.270391941E0,-1.115474129E1,-8.688937187E0
2.578511834E1,-5.769693375E0,-1.110927773E1,-4.975276470E0
2.580538610E1,-3.741776466E0,-9.785448074E0,-3.132204771E0
2.582565386E1,-1.264008522E0,-9.548559189E0,-1.740778446E0
2.584605386E1,-7.657032460E-2,-8.480761528E0,-6.634100676E-1
2.586618933E1,7.280163169E-1,-7.884350777E0,6.221338734E-2
2.588645709E1,1.697707653E0,-7.850851059E0,-1.872383654E-1
2.590672485E1,3.000001431E0,-8.468797684E0,-1.403390527E0
2.592699261E1,4.542175770E0,-9.383454323E0,-3.572484255E0
2.594739261E1,3.751945972E0,-9.661021233E0,-7.491927624E0
2.596752813E1,3.379862010E-1,-1.063071251E1,-7.206583500E0
2.598779584E1,2.997010350E-1,-1.299123192E1,-1.417747378E0
2.600806360E1,1.805384636E0,-1.587398529E1,3.196212769E0
2.602833136E1,1.683350682E0,-1.610369682E1,4.129413605E0
2.604873136E1,9.242277741E-1,-1.362353611E1,3.476173162E0
2.606886683E1,2.416750938E-1,-1.221775246E1,2.863012314E0
2.608913459E1,-1.211366415E0,-1.187797165E1,2.300698996E0
2.610940235E1,-2.738585472E0,-1.193779182E1,2.353341103E0
2.612967011E1,-3.600599766E0,-1.191864967E1,2.080559254E0
2.614993782E1,-4.362115860E0,-1.202393341E1,1.113260746E0
2.617020558E1,-5.327021599E0,-1.222253799E1,8.877372146E-1
2.619047334E1,-5.099703312E0,-1.176072311E1,1.718644857E0
2.621074110E1,-3.741776466E0,-9.605986595E0,1.874178290E0
2.623100886E1,-3.074178934E0,-7.994420528E0,3.342175007E0
2.625127657E1,-1.292722464E0,-7.314858913E0,2.137987137E0
2.627154433E1,2.688934565E0,-7.783852100E0,-2.834896564E0
2.629181209E1,3.358924866E0,-7.992027760E0,-8.452646136E-1
2.631207980E1,2.507079840E0,-7.556533813E0,1.189831018E0
2.633234756E1,7.686942816E-1,-6.728019238E0,1.996212244E0
2.635261532E1,-3.780659735E-1,-7.039085865E0,1.759322882E0
2.637288308E1,-1.206580877E0,-8.006384850E0,1.338186026E0
2.639315084E1,-2.152343988E0,-8.588438988E0,9.427721500E-1
2.641341855E1,-2.709871531E0,-8.973683357E0,6.484549642E-1
2.643368631E1,-3.330210924E0,-9.381061554E0,3.349951655E-2
2.645395407E1,-4.266402721E0,-1.039561844E1,-9.888339639E-1
2.647422178E1,-4.127619267E0,-1.285484123E1,-3.984049797E0
2.649448954E1,-1.048654556E0,-1.469611835E1,-8.094919205E0
2.651475730E1,-1.560718536E0,-1.273998642E1,-8.705686569E0
2.653502506E1,-2.429911375E0,-1.071685410E1,-7.896314621E0
2.655529277E1,-1.165902853E0,-5.734399319E0,-5.942574978E0
2.657556053E1,-3.387638569E0,-5.660222054E0,-1.185643673E0
2.659582829E1,-3.215355396E0,-1.023529911E1,2.800798893E0
2.661609605E1,-2.027917147E0,-1.272802162E1,3.382853031E0
2.663636381E1,-7.489534616E-1,-1.366421413E1,4.735395908E0
2.665663152E1,1.603191197E-1,-1.246421337E1,5.595017433E0
2.667689928E1,-1.172483116E-1,-9.004789352E0,4.043272018E0
2.669716704E1,-7.657032460E-2,-6.967301369E0,2.700300455E0
2.671743475E1,-1.938186288E-1,-6.357131481E0,1.723430514E0
2.673770251E1,-7.974081635E-1,-7.357929707E0,1.175474167E0
2.675797027E1,-1.144367456E0,-9.136395454E0,4.809573591E-1
2.677823803E1,-1.189831018E0,-1.080299568E1,2.488535494E-1
2.679850574E1,-9.050851464E-1,-1.188993549E1,5.431707501E-1
2.681877350E1,-8.261220455E-1,-1.206461143E1,9.188438654E-1
2.683917350E1,-1.287936807E0,-1.102552891E1,1.237687469E0
2.685930897E1,-2.130808592E0,-9.661021233E0,1.768894196E0
2.687957673E1,-2.609373093E0,-8.935398102E0,8.374879360E-1
2.689984449E1,-3.323032379E0,-8.538188934E0,1.890329868E-1
2.692011225E1,-4.230510235E0,-7.616354465E0,2.871387303E-1
2.694037996E1,-3.595814228E0,-7.055835724E0,5.742774159E-2
2.696064772E1,-1.493719578E0,-7.700103283E0,-2.877369225E-1
2.698091548E1,2.662015259E-1,-9.950552940E0,-3.170489892E-2
2.700118324E1,1.345962763E0,-1.149990559E1,5.670989752E-1
2.702145094E1,2.003988981E0,-1.241874981E1,6.412764788E-1
2.704170694E1,1.348355532E0,-1.204068375E1,-1.649851203E0
2.706185683E1,-6.675975323E-1,-1.054696369E1,-4.843671322E0
2.708225152E1,-1.067797065E0,-9.845269203E0,-3.256631613E0
2.710251938E1,-7.752745152E-1,-1.038365364E1,-1.704886109E-1
2.712278709E1,-6.077769399E-1,-1.103509998E1,1.998605132E0
2.714318766E1,-4.977070987E-1,-1.105663490E1,2.752942562E0
2.716332355E1,4.067798331E-2,-1.200239849E1,2.623729944E0
2.718359157E1,6.681957245E-1,-1.315872955E1,2.894119024E0
2.720385959E1,1.076770201E-1,-1.268016529E1,2.805584431E0
2.722412730E1,-7.393822074E-1,-1.153101254E1,1.886142492E0
2.724452756E1,-1.448255897E0,-1.039561844E1,8.183453679E-1
2.726466319E1,-2.909074068E0,-8.643473625E0,-3.302095175E0
2.728493110E1,-5.035097122E0,-8.279166222E0,-3.263810158E0
2.730519897E1,-4.249652863E0,-8.808578491E0,-1.293320656E0
2.732546667E1,-3.270390272E0,-8.772686005E0,-3.332005441E-1
2.734586678E1,-3.334996462E0,-8.906683922E0,-2.327020019E-1
2.736600240E1,-3.698705673E0,-9.708877563E0,5.694918036E-1
2.738627022E1,-3.179463148E0,-1.147597694E1,1.869392633E0
2.740653798E1,-2.140379906E0,-1.343390465E1,2.793620348E0
2.742680574E1,-1.483550072E-1,-1.403270817E1,2.142772675E0
2.744707355E1,2.552543640E0,-1.222732353E1,-2.691327333E0
2.746734126E1,2.001596212E0,-9.644271851E0,-2.770290375E0
2.748760907E1,8.135596663E-2,-7.709674358E0,-9.337990284E-1
2.750787683E1,-7.878368497E-1,-6.785446644E0,1.507478207E-1
2.752814454E1,-1.048654556E0,-6.524629116E0,1.962114573E-1
2.754854454E1,-9.170492887E-1,-6.785446644E0,-3.930211067E-1
2.756868011E1,-1.127617717E0,-7.259225845E0,-1.226321578E0
2.758894782E1,-1.529611826E0,-7.613961697E0,-1.561316729E0
2.760921558E1,-1.915454507E0,-7.922635555E0,-1.752742529E0
2.762948334E1,-2.070987940E0,-8.181060791E0,-2.093121529E0
2.764975105E1,-1.972882271E0,-8.245666504E0,-2.593221426E0
2.767001881E1,-1.699502230E0,-8.404191017E0,-3.172882795E0
2.769028657E1,-1.603789330E0,-8.712865829E0,-3.381058455E0
2.771055428E1,-1.086939692E0,-8.870791435E0,-2.815753937E0
2.773082204E1,-5.742774606E-1,-8.533403397E0,-2.428116798E0
2.775108975E1,-4.689932466E-1,-7.365108013E0,-2.681756020E0
2.777135751E1,-4.139583111E-1,-5.791827202E0,-2.880360365E0
2.779162527E1,-1.148554832E-1,-4.477569580E0,-3.235096216E0
2.781189298E1,-1.435693651E-1,-3.876372576E0,-3.854837179E0
2.783216074E1,-2.464607358E-1,-4.987240791E0,-3.232703447E0
2.785242844E1,-6.460621208E-2,-5.607579708E0,-1.003190875E0
2.787269620E1,-6.125625968E-1,-5.808577061E0,4.977070987E-1
2.789296391E1,-1.319043517E0,-6.893123627E0,1.192223907E0
2.791323167E1,-1.829312921E0,-8.514261246E0,1.218544960E0
2.793349944E1,-2.382055044E0,-1.077188969E1,5.479564071E-1
2.795376714E1,-3.598206997E0,-1.411645699E1,-5.198407173E-1
2.797403490E1,-4.158725739E0,-2.476810646E1,-1.024008465E1
2.799430266E1,-1.670788407E0,-3.011427116E1,-1.202871990E1
2.801457037E1,-1.218544960E0,-1.810768509E1,4.864608288E0
2.803483808E1,-5.048855543E-1,-1.277109241E1,5.772086620E0
2.805510584E1,1.316052526E-1,-1.048714352E1,5.532804012E0
2.807537360E1,1.046261668E0,-7.992027760E0,5.262415409E0
2.809564131E1,1.182652593E0,-6.016752720E0,2.922832966E0
2.811590907E1,1.168295622E0,-6.074180126E0,1.292722464E0
2.813617678E1,8.021938205E-1,-8.334799767E0,-6.299105883E-1
2.815644454E1,5.503492057E-2,-1.119063377E1,-8.020741463E0
2.817671225E1,-9.792626500E-1,-1.099920750E1,-4.520640373E0
2.819697996E1,-1.987239242E0,-8.300702095E0,-2.097907305E0
2.821724777E1,-1.115653515E0,-7.556533813E0,-1.989632010E0
2.823751548E1,-9.601200819E-1,-7.862815380E0,-2.554936409E0
2.825778318E1,-1.441077471E0,-7.611568928E0,-1.843669891E0
2.827805094E1,-7.274180651E-1,-7.534998417E0,-2.422732860E-1
2.829831865E1,2.105683982E-1,-7.000801086E0,5.742774159E-2
2.831858641E1,1.396211982E0,-6.699305058E0,-1.197607756E0
2.833885412E1,5.892325640E-1,-6.414559364E0,-2.894717216E0
2.835912183E1,5.982056633E-2,-7.360322475E0,-4.070191383E0
2.837938964E1,6.418746710E-1,-8.171489716E0,-3.393022537E0
2.839965735E1,1.740778446E0,-7.786244869E0,-3.395415306E0
2.841992511E1,2.035095692E0,-7.652246952E0,-5.365904808E0
2.844019282E1,1.403390527E0,-9.780662537E0,-6.931408882E0
2.846046058E1,5.653043389E-1,-1.248156071E1,-2.720041037E0
2.848072829E1,4.169493318E-1,-1.271127224E1,-1.082752272E-1
2.850099605E1,-7.154539824E-1,-2.218026924E1,-2.015953064E-1
2.852126376E1,-5.745765209E0,-3.008555794E1,-2.686541557E0
2.854153152E1,-8.872586250E0,-1.798086548E1,-5.137988567E0
2.856179923E1,-3.423531055E0,-6.797410965E0,-4.372285366E0
2.858206699E1,-1.673181176E0,-4.350749969E0,-2.734398127E0
2.860233470E1,-1.055832982E0,-5.696114540E0,-6.610172391E-1
2.862260246E1,-2.967100143E-1,-7.110870838E0,-9.266205430E-1
2.864300246E1,2.829512656E-1,-7.185048103E0,-2.145763636E0
2.866313787E1,-6.652047038E-1,-6.888338089E0,-2.617149830E0
2.868340563E1,-1.173081279E0,-7.204190731E0,-2.631506681E0
2.870367334E1,-1.266401410E0,-7.843672752E0,-2.657827854E0
2.872394110E1,-7.854440212E-1,-9.086145401E0,-3.223132133E0
2.874434110E1,1.363908947E-1,-1.024965572E1,-3.747160196E0
2.876447657E1,9.696913958E-1,-1.001276588E1,-3.981656790E0
2.878474428E1,8.572286963E-1,-7.934599876E0,-3.716053486E0
2.880501199E1,3.690928817E-1,-5.901896954E0,-3.083750248E0
2.882527975E1,-5.503492057E-2,-4.532604218E0,-2.741576433E0
2.884567975E1,-6.723831892E-1,-4.743172646E0,-2.696112871E0
2.886581522E1,-1.019940615E0,-6.318846226E0,-2.612364054E0
2.888608292E1,-2.799602449E-1,-6.984051228E0,-2.313261271E0
2.890635069E1,4.785645381E-2,-6.677769661E0,-1.360319614E0
2.892661839E1,1.316052526E-1,-6.431309223E0,4.546362907E-2
2.894701839E1,-8.853443712E-2,-6.119643688E0,6.149554253E-1
2.896715386E1,-7.609176040E-1,-6.019145489E0,4.929214716E-1
2.898742157E1,-3.296711445E0,-6.964908600E0,-1.678565025E0
2.900782157E1,-4.350151539E0,-8.844470978E0,-3.615555048E0
2.902795704E1,-1.922633052E0,-1.159801102E1,-1.800599098E-1
2.904822475E1,-2.587837696E0,-2.611885643E1,-1.328315639E1
2.906849246E1,-3.098107100E0,-3.360779190E1,-7.240083218E0
2.908876022E1,-2.188236237E0,-2.032942200E1,6.698707104E0
2.910902792E1,-6.293123364E-1,-1.355892944E1,7.141379356E0
2.912929569E1,7.178467698E-3,-9.711270332E0,6.332605362E0
2.914956339E1,3.906283081E-1,-7.034300327E0,3.586242914E0
2.916983110E1,1.084546804E0,-5.542973518E0,1.694716692E0
2.919009886E1,1.769492388E0,-5.554937840E0,-1.776670814E-1
2.921036657E1,2.015953064E0,-8.705686569E0,-7.314858913E0
2.923063428E1,-6.604190469E-1,-9.778269768E0,-3.888336897E0
2.925090204E1,-1.649253011E0,-9.562915802E0,-1.886740685E0
2.927116975E1,-2.106880426E0,-7.755138397E0,-2.459223509E0
2.929143746E1,-7.322037220E-1,-6.976872444E0,-4.680959225E0
2.931183746E1,-5.766702294E-1,-7.254439831E0,-3.213560820E0
2.933197292E1,-1.299900889E0,-6.823731899E0,-1.087537885E0
2.935224063E1,-1.175474167E0,-6.203392506E0,5.503492057E-2
2.937250834E1,-3.708875179E-1,-6.181857109E0,-1.345962733E-1
2.939277610E1,1.244866014E0,-6.625127792E0,-1.606780410E0
2.941304376E1,2.171486616E0,-7.415357590E0,-3.457628727E0
2.943331152E1,1.652244091E0,-7.841279984E0,-4.079762459E0
2.945357928E1,2.447259426E0,-7.757531166E0,-4.405784607E0
2.947384699E1,2.732005358E0,-8.636295319E0,-6.804589272E0
2.949411470E1,1.905883193E0,-1.177268696E1,-6.625127792E0
2.951438246E1,1.218544960E0,-1.318505096E1,-2.645863533E0
2.953465016E1,-2.727817893E-1,-1.560598946E1,-1.956132531E0
2.955491787E1,-2.257628202E0,-2.474417877E1,8.374879509E-2
2.957518563E1,-7.421937466E0,-2.645145798E1,-5.106881618E0
2.959545334E1,-3.390031576E0,-1.331665611E1,-6.711269379E0
2.961572105E1,-8.261220455E-1,-7.125227451E0,-4.110869408E0
2.963598881E1,-1.108475089E0,-6.294918060E0,-1.604387641E0
2.965625647E1,-1.027119160E0,-6.364310265E0,-5.437689424E-1
2.967652423E1,1.962114573E-1,-5.679364681E0,-1.458425403E0
2.969679194E1,-1.387837082E-1,-5.373083115E0,-3.014358282E0
2.971705964E1,-8.404789567E-1,-5.968895912E0,-3.347558975E0
2.973732740E1,-7.609176040E-1,-6.862017155E0,-3.160918713E0
2.975759511E1,-6.412764788E-1,-7.587640762E0,-3.378665686E0
2.977786282E1,-2.799602449E-1,-8.204988480E0,-3.450450182E0
2.979813053E1,4.767699242E-1,-8.271987915E0,-3.357130051E0
2.981839824E1,6.514459848E-1,-7.664210796E0,-3.550948858E0
2.983866600E1,7.328019142E-1,-7.225726128E0,-3.400201082E0
2.985893371E1,9.864411354E-1,-7.170691490E0,-3.021536827E0
2.987920141E1,1.086939692E0,-6.639484406E0,-3.102892876E0
2.989946912E1,8.644071817E-1,-6.354738712E0,-2.353939295E0
2.991973683E1,5.509474277E-1,-6.290132523E0,-9.744769931E-1
2.994000454E1,2.781656384E-1,-6.136393547E0,-3.649054468E-2
2.996027230E1,-1.579262912E-1,-5.952146530E0,1.531406492E-1
2.998054001E1,-1.000798106E0,-6.071787357E0,-5.150550604E-1
3.000080772E1,-3.265604734E0,-7.365108013E0,-3.314059258E0
3.002107542E1,-5.973083496E0,-1.007019424E1,-6.177071571E0
3.004134313E1,-2.877967358E0,-1.269691563E1,-4.027120590E0
3.006161084E1,-2.169093609E0,-1.754477310E1,-2.473580360E0
3.008187860E1,-1.752144337E0,-3.011905670E1,-1.205264759E1
3.010214631E1,-4.271188259E0,-2.348256302E1,3.327818155E0
3.012241402E1,-1.855633974E0,-1.494257927E1,5.683551788E0
3.014281402E1,-4.091726840E-1,-1.180618668E1,6.605386734E0
3.016294944E1,1.004985496E-1,-8.590831757E0,5.441876888E0
3.018321714E1,6.179464459E-1,-6.550950050E0,2.583052158E0
3.020348485E1,7.280163169E-1,-6.038288116E0,1.110867858E0
3.022375256E1,7.830511928E-1,-7.208976269E0,-1.130608693E-1
3.024415256E1,2.249253243E-1,-9.548559189E0,-6.035895348E0
3.026428798E1,-1.311864972E0,-9.356534958E0,-3.878765583E0
3.028455574E1,-1.319043517E0,-7.700103283E0,-2.751147747E0
3.030482344E1,-3.589234054E-1,-7.053442955E0,-4.467998028E0
3.032509115E1,-4.785645381E-2,-6.503093719E0,-5.248656273E0
3.034549115E1,-1.371685624E0,-6.184250355E0,-2.169692039E0
3.036562657E1,-1.956132531E0,-5.770291805E0,6.221338734E-2
3.038589428E1,-1.443470240E0,-5.693721294E0,6.699903607E-1
3.040616204E1,-9.768698215E-1,-6.126822472E0,-2.973082066E-1
3.042642975E1,7.657032460E-2,-7.429714203E0,-2.770290375E0
3.044669746E1,2.257628202E0,-8.276773453E0,-2.990430117E0
3.046696516E1,3.519842148E0,-7.415357590E0,-2.818146944E0
3.048723287E1,2.961716175E0,-6.634698868E0,-2.916252613E0
3.050750058E1,2.590828657E0,-8.612366676E0,-5.909075737E0
3.052776829E1,2.882753134E0,-1.259402370E1,-7.244868755E0
3.054816829E1,2.380260229E0,-1.401595879E1,-5.080560684E0
3.056830370E1,1.360319614E0,-1.805504417E1,-2.964108944E0
3.058857141E1,-1.575075507E0,-2.641317368E1,3.278166950E-1
3.060883917E1,-1.014437199E1,-2.560619354E1,-3.349951744E0
3.062910688E1,-7.445865631E0,-1.261077309E1,-6.945765972E0
3.064937459E1,-1.307079315E0,-6.885945320E0,-4.369892120E0
3.066964230E1,-7.130611539E-1,-7.041478634E0,-7.950153351E-1
3.068991001E1,-2.166700840E0,-7.290930748E0,5.718846321E-1
3.071017766E1,-1.187438250E0,-6.148357868E0,-7.136593461E-1
3.073044542E1,-1.137188911E0,-5.497509956E0,-2.136192322E0
3.075071313E1,-1.711466432E0,-5.653043270E0,-2.263011932E0
3.077098084E1,-1.338186026E0,-5.748756409E0,-2.337189436E0
3.079124855E1,-7.130611539E-1,-6.090929985E0,-2.341975212E0
3.081151626E1,-3.828516230E-2,-7.453642368E0,-2.700898647E0
3.083178397E1,1.410568953E0,-8.887541771E0,-3.259024382E0
3.085205167E1,2.569293261E0,-8.818149567E0,-3.917050600E0
3.087231938E1,2.185843468E0,-7.654639721E0,-3.376272678E0
3.089258709E1,1.501496196E0,-6.026323795E0,-2.260619164E0
3.091285480E1,7.064808607E-1,-4.908277512E0,-1.604387641E0
3.093312251E1,-1.124626622E-1,-4.721637249E0,-1.458425403E0
3.095339022E1,-1.761715651E0,-5.363512039E0,-2.162513494E0
3.097365792E1,-2.717050076E0,-6.059823513E0,-2.334796667E0
3.099392563E1,-2.812762976E0,-7.101299286E0,-2.810968399E0
3.101419334E1,-2.894717216E0,-8.295916557E0,-2.461616278E0
3.103446105E1,-3.562314749E0,-1.083649540E1,-4.322035789E0
3.105472876E1,-3.811168194E0,-1.681017685E1,-2.578864574E0
3.107499647E1,-5.611767292E0,-3.153201866E1,-1.105184937E1
3.109526417E1,-4.654039860E0,-2.668356133E1,3.246462107E0
3.111553188E1,-2.013560295E0,-1.559103394E1,5.973083496E0
3.113579959E1,-8.404789567E-1,-1.142034435E1,6.131010056E0
3.115606730E1,-1.220339537E-1,-8.145168304E0,5.348556995E0
3.117633501E1,9.146564603E-1,-6.469594002E0,3.299104214E0
3.119660272E1,1.122832060E0,-6.333203316E0,1.625324726E0
3.121687042E1,1.329213023E0,-8.085348129E0,-1.697707653E0
3.123713813E1,1.275972724E0,-1.061396313E1,-7.515855789E0
3.125740584E1,-4.785645381E-2,-9.869196892E0,-3.773481369E0
3.127767355E1,-2.464607358E-1,-7.106084824E0,-3.263810158E0
3.129794126E1,-7.752745152E-1,-6.538986206E0,-3.981656790E0
3.131820897E1,-1.956132531E0,-6.292525291E0,-3.189632654E0
3.133860897E1,-2.458625317E0,-6.280561447E0,-1.391426325E0
3.135874438E1,-1.956132531E0,-6.471987247E0,-2.877369225E-1
3.137901209E1,-4.498506486E-1,-6.847660065E0,-1.848455518E-1
3.139927975E1,5.988038778E-1,-6.598806858E0,-6.131607890E-1
3.141954746E1,1.156331539E0,-6.100501537E0,-1.391426325E0
3.143981522E1,1.189831018E0,-7.671389580E0,-2.164906263E0
3.146008287E1,2.013560295E0,-9.424132347E0,-3.151347399E0
3.148035053E1,3.890729666E0,-9.358927727E0,-5.152345181E0
3.150061829E1,5.099703312E0,-1.014197922E1,-7.156334400E0
3.152088600E1,2.803789854E0,-1.163151073E1,-5.562116146E0
3.154115371E1,-5.982056633E-2,-1.193300629E1,-1.099501967E0
3.156142141E1,-1.500898004E0,-1.445863056E1,6.484549642E-1
3.158168912E1,-3.323032379E0,-2.261815643E1,1.287936807E0
3.160195683E1,-5.882156372E0,-2.499841690E1,-2.070987940E0
3.162222454E1,-5.819942951E0,-1.218185997E1,-4.925027370E0
3.164262454E1,-3.945764542E0,-6.577271461E0,-4.063013077E0
3.166275990E1,-2.044667006E0,-6.790232658E0,-2.456830740E0
3.168302761E1,-1.363908947E-1,-8.535796165E0,-3.355933726E-1
3.170329532E1,-3.110669553E-1,-9.268000603E0,2.368894368E-1
3.172356303E1,-9.649057388E-1,-8.846863747E0,-1.094716311E0
3.174396303E1,-1.091725349E0,-8.404191017E0,-1.838884234E0
3.176409845E1,-8.979067206E-1,-8.430512428E0,-1.176072359E0
3.178436615E1,-1.651047617E-1,-7.929814339E0,-1.305284739E0
3.180463381E1,2.901297510E-1,-7.077371120E0,-2.473580360E0
3.182490152E1,2.805584669E-1,-6.900302410E0,-3.146561861E0
3.184530152E1,-5.264209956E-2,-6.531807423E0,-3.452843189E0
3.186543694E1,-3.589234054E-1,-6.366703033E0,-3.615555048E0
3.188570464E1,-6.723831892E-1,-5.839683533E0,-3.622733593E0
3.190597235E1,-9.337990284E-1,-5.190630436E0,-3.479164124E0
3.192624006E1,-1.307079315E0,-5.308476925E0,-2.978466034E0
3.194664006E1,-1.517647743E0,-6.488736629E0,-2.160120726E0
3.196677542E1,-1.591825247E0,-7.384250641E0,-1.886740685E0
3.198704313E1,-1.120439172E0,-7.470392227E0,-2.155334949E0
3.200731084E1,-7.902296782E-1,-6.845267296E0,-9.840483069E-1
3.202757855E1,-1.173081279E0,-6.663413048E0,6.723831892E-1
3.204784626E1,-1.860419631E0,-8.365905762E0,9.595218897E-1
3.206811391E1,-3.198605776E0,-1.223928738E1,8.255237937E-1
3.208838162E1,-4.680361271E0,-2.337010002E1,-5.844469070E0
3.210864933E1,-7.902296782E-1,-3.602813339E1,-1.445145226E1
3.212891704E1,-2.006381750E0,-2.184288216E1,5.523232937E0
3.214918475E1,7.663014531E-1,-1.445623779E1,6.617351055E0
3.216945246E1,1.637887120E0,-1.081974602E1,5.693123341E0
3.218972011E1,1.556531072E0,-7.714460373E0,3.593421459E0
3.220998782E1,8.883354068E-1,-5.801398277E0,1.795215130E0
3.223025553E1,9.696913958E-1,-4.927420139E0,7.896314859E-1
3.225052324E1,1.024726272E0,-5.475974560E0,-2.483151674E0
3.227079094E1,-8.189435601E-1,-7.874779224E0,-2.925823927E0
3.229105860E1,-1.508076429E0,-9.964909554E0,-1.563709617E0
3.231132631E1,-2.322234392E0,-1.017547798E1,-7.806583643E-1
3.233159402E1,-3.835096598E0,-8.566903114E0,-2.282154560E0
3.235186173E1,-3.516851187E0,-7.046264648E0,-3.881158352E0
3.237212944E1,-1.472184181E0,-7.022336483E0,-2.775076151E0
3.239239709E1,-5.575276613E-1,-7.558926582E0,-8.787640929E-1
3.241266475E1,3.188436031E-1,-7.628318787E0,3.589234054E-1
3.243293251E1,1.268794179E0,-7.551748276E0,-2.494517565E-1
3.245320022E1,1.793420553E0,-7.218547821E0,-1.635494232E0
3.247346792E1,1.898704767E0,-7.173084259E0,-2.229512453E0
3.249373558E1,1.709671736E0,-7.506284714E0,-2.205584288E0
3.251400329E1,1.836491346E0,-7.436892986E0,-1.862812400E0
3.253427100E1,1.690529227E0,-7.225726128E0,-1.879562140E0
3.255453865E1,1.077368379E0,-7.070192814E0,-2.703291416E0
3.257480636E1,7.256234884E-1,-7.389036179E0,-2.964108944E0
3.259507407E1,6.035895348E-1,-8.387441635E0,-4.086941242E0
3.261534173E1,4.528416991E-1,-1.088195896E1,-4.546961308E0
3.263560944E1,4.785645287E-3,-1.607498169E1,-4.537389755E0
3.265587714E1,-6.173482537E-1,-2.640120888E1,-2.978466034E0
3.267614475E1,-5.006382942E0,-2.715076065E1,-2.648256540E0
3.269641251E1,-7.862216949E0,-1.385803223E1,-3.567698479E0
3.271668022E1,-4.730610371E0,-6.266204357E0,-2.827718258E0
3.273694792E1,-3.141177893E0,-4.745565414E0,-1.448854089E0
3.275721558E1,-1.929811478E0,-6.517450809E0,1.100698411E-1
3.277748329E1,-6.412764788E-1,-7.668996811E0,4.331009090E-1
3.279775100E1,-7.441678643E-1,-7.551748276E0,-5.820540786E-1
3.281801865E1,-1.072582722E0,-7.089335442E0,-2.325225353E0
3.283828636E1,-8.644071817E-1,-7.640282631E0,-2.791825771E0
3.285855407E1,-3.373879790E-1,-8.368298531E0,-3.062214851E0
3.287882173E1,2.638086975E-1,-9.294321060E0,-3.670589924E0
3.289908944E1,3.403790295E-1,-9.565308571E0,-3.821337700E0
3.291935709E1,-2.919243574E-1,-8.130811691E0,-3.570091486E0
3.293962480E1,-9.002995491E-1,-6.481558323E0,-2.791825771E0
3.295989251E1,-1.180259824E0,-5.540580750E0,-2.420938253E0
3.298016016E1,-1.398006678E0,-5.037489891E0,-2.650649309E0
3.300042787E1,-1.992024899E0,-4.779065132E0,-3.074178934E0
3.302069558E1,-2.480160713E0,-5.322834015E0,-3.105285645E0
3.304096329E1,-3.325425386E0,-6.191428661E0,-3.357130051E0
3.306123095E1,-3.878167391E0,-8.399405479E0,-4.041477680E0
3.308149865E1,-2.037488461E0,-9.057432175E0,-2.911466837E0
3.310176631E1,-1.285543919E0,-9.289535522E0,-1.118644595E0
3.312203402E1,-2.267199516E0,-1.207418346E1,9.643075466E-1
3.314243402E1,-4.625326157E0,-2.234537506E1,-3.163311481E0
3.316256944E1,-1.000798106E0,-2.913082123E1,-5.983253002E0
3.318283709E1,-1.555334777E-1,-1.850250053E1,4.443471432E0
3.320310480E1,6.514459848E-1,-1.366660690E1,5.717051506E0
3.322337246E1,7.926225066E-1,-1.093938732E1,4.878965378E0
3.324377246E1,7.591229677E-1,-8.219346046E0,2.264806747E0
3.326390787E1,1.144367456E0,-6.215356827E0,-1.290927768E0
3.328417553E1,1.175474167E0,-5.866004944E0,-4.017549038E0
3.330444324E1,-9.218349457E-1,-8.873184204E0,-3.083750248E0
3.332471089E1,-1.512862086E0,-1.021854877E1,-2.657827854E0
3.334511089E1,-1.244267747E-1,-1.033340454E1,-2.499901533E0
3.336524631E1,4.097708762E-1,-9.780662537E0,-2.162513494E0
3.338551397E1,4.307080805E-2,-8.080561638E0,-1.183250785E0
3.340578167E1,-3.708875179E-1,-6.850052834E0,-1.465603858E-1
3.342604938E1,5.742774159E-2,-6.452844620E0,4.666004181E-1
3.344644938E1,4.671986103E-1,-6.357131481E0,1.172483116E-1
3.346658475E1,8.835497499E-1,-6.907480717E0,-1.039083242E0
3.348685246E1,6.993024349E-1,-8.224131584E0,-1.834098577E0
3.350712011E1,-1.052841991E-1,-8.593224525E0,-2.100300074E0
3.352738782E1,-2.488535494E-1,-9.031110764E0,-2.167299032E0
3.354778782E1,7.112665176E-1,-1.006540871E1,-2.129014015E0
3.356792319E1,2.137987137E0,-1.033101177E1,-2.602792740E0
3.358819089E1,3.157927752E0,-8.909076691E0,-4.065405846E0
3.360845855E1,3.248854876E0,-7.130013466E0,-4.671388149E0
3.362872626E1,2.039881229E0,-6.582056999E0,-5.085346222E0
3.364899391E1,1.456032634E0,-9.862018585E0,-4.098905087E0
3.366926162E1,3.081357241E0,-1.231346512E1,-1.154536903E-1
3.368952928E1,3.141177893E0,-1.549771404E1,1.448255897E0
3.370979699E1,4.169493318E-1,-2.388216400E1,2.566302299E0
3.373006470E1,-5.968297958E0,-2.738047218E1,1.094118118E0
3.375033235E1,-1.129831028E1,-2.233580208E1,-2.873181820E0
3.377060006E1,-7.584649563E0,-1.430070496E1,-3.847658873E0
3.379086772E1,-3.172284603E0,-1.011565781E1,-3.517449379E0
3.381113542E1,-1.606182218E0,-9.124430656E0,-3.888336942E-2
3.383140308E1,-3.924229145E-1,-7.822137356E0,3.229712248E0
3.385167079E1,6.825526357E-1,-7.204190731E0,5.024927482E-2
3.387193850E1,-1.052841991E-1,-6.797410965E0,-6.131607890E-1
3.389220615E1,2.685943544E-1,-6.254240036E0,-2.255235314E-1
3.391247386E1,-9.649057388E-1,-5.842076302E0,-1.106680512E0
3.393274152E1,-3.301496983E0,-5.130809784E0,-1.970489502E0
3.395300923E1,-4.163511276E0,-4.551746845E0,-2.598007202E0
3.397327688E1,-3.962514400E0,-5.059025288E0,-4.326821327E0
3.399354459E1,-1.886740685E0,-7.441678524E0,-6.572485447E0
3.401381230E1,-5.503492057E-2,-1.045364380E1,-7.317251682E0
3.403407996E1,-1.507478207E-1,-1.125045395E1,-5.569294930E0
3.405434766E1,-9.218349457E-1,-8.863613129E0,-7.375875711E-1
3.407461532E1,-1.594218135E0,-8.361120224E0,2.078166485E0
3.409488303E1,-2.628515720E0,-1.178943729E1,1.331007600E0
3.411515068E1,-4.158725739E0,-1.668814278E1,1.156331539E0
3.413541839E1,-4.106083870E0,-1.974975967E1,7.944171429E-1
3.415568605E1,-2.587837696E0,-1.623769379E1,6.005984545E-1
3.417595376E1,-1.486541033E0,-1.245703506E1,2.666800737E0
3.419622147E1,-9.337990284E-1,-8.767900467E0,2.640479803E0
3.421648912E1,-6.484549642E-1,-5.844469070E0,2.717050076E0
3.423675683E1,-1.100698411E-1,-4.774279594E0,1.685145378E0
3.425702449E1,8.135596663E-2,-4.994419098E0,1.240080357E0
3.427729220E1,2.488535494E-1,-6.964908600E0,8.590233326E-1
3.429755990E1,1.938186288E-1,-9.167501450E0,8.829515576E-1
3.431782756E1,-1.292124242E-1,-1.085085201E1,9.571290612E-1
3.433809527E1,-7.561319470E-1,-1.174397373E1,7.824530005E-1
3.435836292E1,-2.269592285E0,-1.204546928E1,1.007378340E0
3.437863063E1,-4.663611412E0,-1.073838997E1,-1.029511929E0
3.439889829E1,-5.350949764E0,-9.282357216E0,-2.767897606E0
3.441929829E1,-5.042275429E0,-8.521439552E0,-3.302095175E0
3.443943370E1,-3.746562004E0,-8.365905762E0,-2.255833626E0
3.445970136E1,-2.348555326E0,-8.772686005E0,-4.815555513E-1
3.447996907E1,-8.596215248E-1,-9.723235130E0,1.278365493E0
3.450023678E1,4.432703853E-1,-1.045842934E1,2.420340061E0
3.452050444E1,1.310070395E0,-1.060199928E1,2.618944407E0
3.454077214E1,1.127617717E0,-1.001994514E1,2.602194548E0
3.456103980E1,-1.507478207E-1,-9.938589096E0,2.291127682E0
3.458130751E1,-8.668000102E-1,-1.036690426E1,1.594218135E0
3.460157516E1,-7.154539824E-1,-1.018744278E1,3.349951804E-1
3.462184287E1,-3.876372576E-1,-9.665806770E0,-1.862812400E0
3.464211058E1,-9.816554785E-1,-9.570094109E0,-2.027917147E0
3.466237824E1,-1.670788407E0,-9.914660454E0,-7.064808607E-1
3.468264595E1,-1.725823283E0,-1.026879883E1,2.560320199E-1
3.470291360E1,-1.005583763E0,-1.044167995E1,8.279166222E-1
3.472318131E1,1.698904037E-1,-1.062353420E1,1.103689432E0
3.474358131E1,1.472782373E0,-1.039561844E1,1.390828133E0
3.476371667E1,2.338984251E0,-1.068574810E1,2.190629244E0
3.478398433E1,2.212164640E0,-1.186600780E1,2.657229662E0
3.480424808E1,1.910668850E0,-1.277348518E1,2.604587555E0
3.482447641E1,1.580459356E0,-1.303430271E1,2.303091764E0
3.484487917E1,3.762713671E-1,-1.267777252E1,1.369292736E0
3.486505417E1,-1.682752490E0,-1.139880848E1,-1.974078640E-2
3.488532199E1,-2.923431158E0,-9.823733330E0,-1.142572761E0
3.490558985E1,-2.899502754E0,-8.727222443E0,-2.056631088E0
3.492585751E1,-2.420340061E0,-8.243273735E0,-1.412961721E0
3.494625761E1,-1.493719578E0,-8.118846893E0,-1.513460279E-1
3.496639308E1,-2.560320199E-1,-8.224131584E0,8.805587292E-1
3.498666089E1,2.871387079E-2,-8.432905197E0,1.764108539E0
3.500692865E1,-7.010970116E-1,-9.062217712E0,2.212164640E0
3.502719631E1,-1.354935765E0,-1.107577801E1,2.197807550E0
3.504759636E1,-2.154736757E0,-1.375514126E1,2.477767944E0
3.506773178E1,-3.287140131E0,-1.522014618E1,2.805584431E0
3.508799949E1,-3.485744476E0,-1.398245907E1,3.265604734E0
3.510826720E1,-1.915454507E0,-1.135095215E1,3.258426189E0
3.512853490E1,1.647458434E0,-9.981659889E0,-5.389832854E-1
3.514880261E1,5.405984402E0,-1.142752266E1,-5.595615864E0
3.516907032E1,9.553344250E-1,-1.011326504E1,-1.453639746E0
3.518933798E1,-6.652047038E-1,-7.836493969E0,-1.223928809E0
3.520960568E1,-1.271187067E0,-7.331608772E0,-1.424925923E0
3.522987334E1,-2.269592285E0,-7.544569969E0,-1.010369420E0
3.525014105E1,-3.033500910E0,-7.570890903E0,-6.346961856E-1
3.527040870E1,-3.741776466E0,-6.998407841E0,-5.030909777E-1
3.529067641E1,-4.213760853E0,-6.019145489E0,-5.724828243E-1
3.531094407E1,-4.120440483E0,-5.301298618E0,-8.931210637E-1
3.533121178E1,-3.531208038E0,-5.449653625E0,-1.714457393E0
3.535147949E1,-2.595016241E0,-6.321238995E0,-3.043072224E0
3.537174720E1,-1.309472203E0,-7.889136314E0,-6.364310265E0
3.539201485E1,2.209771633E0,-1.170090294E1,-1.169611740E1
3.541228256E1,5.283950806E0,-1.385803223E1,-9.277571678E0
3.543255022E1,2.937788010E0,-1.158604717E1,-5.075775146E0
3.545281792E1,1.652244091E0,-9.315856934E0,-4.312464714E0
3.547308558E1,2.009970993E-1,-8.846863747E0,-5.485546112E0
3.549335329E1,-1.043868899E0,-9.780662537E0,-4.539782524E0
3.551362094E1,-2.054238319E0,-8.710473061E0,-6.275177598E-1
3.553388865E1,-4.007977962E0,-9.327820778E0,-2.691925503E-2
3.555415631E1,-1.000259686E1,-1.369532013E1,-9.301499367E0
3.557442402E1,-5.142774105E0,-1.167697430E1,-9.074779749E-1
3.559469167E1,-2.530410051E0,-1.072642612E1,3.013760090E0
3.561495938E1,-2.386840582E0,-1.216989613E1,4.914857864E0
3.563522704E1,-1.467398524E0,-1.278066349E1,4.974678040E0
3.565549470E1,-4.498506486E-1,-1.169133186E1,3.557528973E0
3.567576240E1,5.772684813E-1,-9.761520386E0,2.597409010E0
3.569603006E1,1.482353687E0,-8.200202942E0,1.630110383E0
3.571629777E1,1.956132531E0,-7.199405193E0,-1.800599098E-1
3.573656542E1,1.362712502E0,-7.338787079E0,-2.617149830E0
3.575683313E1,-2.895315289E-1,-8.641080856E0,-9.433703423E-1
3.577710079E1,-7.274180651E-1,-9.440881729E0,4.785645381E-2
3.579736850E1,-1.297508121E0,-1.065224838E1,-0.000000000E0
3.581763620E1,-2.904288530E0,-1.132702446E1,-1.235892892E0
3.583803620E1,-4.764110088E0,-1.057567787E1,-2.157727718E0
3.585817152E1,-3.725026608E0,-9.582057953E0,-2.210369825E0
3.587843923E1,-2.245664120E0,-9.263215065E0,-1.779063582E0
3.589870694E1,-1.230509043E0,-9.122037888E0,-9.696913958E-1
3.591897459E1,-7.489534616E-1,-8.866005898E0,-3.571287692E-1
3.593924230E1,-4.666004181E-1,-8.799007416E0,-1.106680483E-1
3.595951001E1,-2.177468538E-1,-9.371489525E0,-5.324030295E-2
3.597977766E1,4.067798331E-2,-9.981659889E0,1.196411345E-2
3.600004537E1,2.057827413E-1,-1.020419216E1,-9.870393574E-2
3.602031303E1,2.321037948E-1,-1.017547798E1,-3.547359705E-1
3.604058074E1,3.020938635E-1,-1.003190899E1,-8.021938205E-1
3.606084839E1,4.648058116E-1,-9.364311218E0,-2.006381750E0
3.608111610E1,3.810569942E-1,-8.870791435E0,-3.107678413E0
3.610138381E1,-5.742774606E-1,-9.095717430E0,-2.873181820E0
3.612165147E1,-1.733001828E0,-9.320642471E0,-2.039881229E0
3.614191917E1,-2.049452543E0,-8.787042618E0,-1.073180914E0
3.616218683E1,-1.718644857E0,-8.109275818E0,-5.030909777E-1
3.618245454E1,-1.197009563E0,-7.719245911E0,-6.520441920E-2
3.620272220E1,-3.326023519E-1,-7.546962738E0,-9.571290575E-3
3.622298990E1,6.203392744E-1,-7.566105366E0,-4.265206456E-1
3.624338990E1,1.348355532E0,-7.721638680E0,-6.634100676E-1
3.626352527E1,1.733600020E0,-7.829315662E0,-1.173679471E0
3.628379298E1,1.456032634E0,-7.769495010E0,-2.150549412E0
3.630406063E1,-1.914258115E-2,-7.642675400E0,-2.461616278E0
3.632432834E1,-8.715856671E-1,-7.187440872E0,-2.392224550E0
3.634472834E1,-1.120439172E0,-6.627520561E0,-2.227119684E0
3.636486371E1,-1.082154036E0,-6.366703033E0,-2.059023857E0
3.638513136E1,-4.402793646E-1,-9.134002686E0,-2.935395241E0
3.640539907E1,2.081755698E-1,-1.137248802E1,-2.949752092E0
3.642566673E1,-6.699903607E-1,-1.539960861E1,-1.618744493E0
3.644606673E1,-3.227319479E0,-2.485185623E1,6.939185411E-2
3.646620209E1,-5.477769375E0,-2.944188881E1,-9.385846853E-1
3.648646975E1,-5.140381336E0,-1.881655884E1,-4.022335052E0
3.650673746E1,-2.358126640E0,-9.885947227E0,-5.337191105E0
3.652700511E1,-9.385846853E-1,-7.759923935E0,-2.820539713E0
3.654740511E1,-1.766501307E0,-7.800601959E0,-3.260220885E-1
3.656754048E1,-8.811569214E-1,-7.084549427E0,2.344966233E-1
3.658780818E1,-4.618147612E-1,-6.198606968E0,-2.662015259E-1
3.660807584E1,-9.696913958E-1,-5.270191669E0,-7.471588850E-1
3.662834350E1,-1.271187067E0,-4.592424870E0,-8.955138922E-1
3.664861120E1,-1.677966833E0,-4.573282242E0,-7.328019142E-1
3.666887891E1,-2.942573547E0,-5.571687698E0,-2.494517565E-1
3.668914657E1,-3.251247883E0,-6.409773827E0,-8.428717852E-1
3.670941423E1,-3.069393158E0,-6.713662148E0,-1.635494232E0
3.672968194E1,-3.181855917E0,-6.720840454E0,-3.680161238E0
3.674994959E1,-3.512065411E0,-7.098906517E0,-5.937789440E0
3.677021730E1,-2.415554523E0,-8.763114929E0,-6.160321712E0
3.679048496E1,3.978067636E-1,-1.064028454E1,-3.567698479E0
3.681075266E1,2.221735716E0,-9.507881165E0,-3.316452265E0
3.683102032E1,4.041477680E0,-7.456035137E0,-4.905884743E0
3.685128798E1,3.129213810E0,-6.326025009E0,-4.019941807E0
3.687155569E1,1.956132531E0,-6.342774391E0,-2.909074068E0
3.689182334E1,6.801598072E-1,-6.766304016E0,-9.242277741E-1
3.691209105E1,-2.321037948E-1,-7.293323517E0,1.132403374E0
3.693235871E1,-9.457631707E-1,-8.542975426E0,1.840678811E0
3.695262641E1,-1.773679733E0,-1.054457092E1,1.237687469E0
3.697289407E1,-3.912265062E0,-1.577348709E1,3.086741269E-1
3.699316173E1,-2.001596212E0,-3.211586761E1,-1.906302071E1
3.701342944E1,-2.470589399E0,-2.524248505E1,-1.355534077E0
3.703369709E1,-2.995215654E0,-1.383410454E1,5.982655048E0
3.705396475E1,-1.273579836E0,-1.116191959E1,5.154139996E0
3.707436475E1,-1.603191197E-1,-8.660223007E0,4.811966419E0
3.709450011E1,4.408775866E-1,-6.162714481E0,3.646063566E0
3.711476777E1,1.091725349E0,-5.063810825E0,1.852642894E0
3.713503548E1,1.826920033E0,-5.676971912E0,-1.951346874E0
3.715530313E1,6.323033571E-1,-8.861220360E0,-6.335596085E0
3.717557079E1,-1.783251047E0,-9.795019150E0,-3.749552965E0
3.719583850E1,-3.016751051E0,-9.507881165E0,-2.507079840E0
3.721610615E1,-1.980060697E0,-7.769495010E0,-2.353939295E0
3.723637381E1,-7.226324677E-1,-7.649854183E0,-2.937788010E0
3.725664152E1,-3.421736360E-1,-7.996813297E0,-1.819741607E0
3.727690917E1,7.178468257E-2,-7.824530125E0,-3.284149170E-1
3.729717688E1,8.404789567E-1,-6.945765972E0,2.129612118E-1
3.731744454E1,1.434497118E0,-6.754340172E0,-1.012762189E0
3.733771220E1,9.242277741E-1,-7.503891945E0,-2.995215654E0
3.735797990E1,4.025924206E-1,-7.831708431E0,-3.704089403E0
3.737824756E1,1.077368379E0,-7.546962738E0,-4.305285931E0
3.739851527E1,2.236092806E0,-7.625925541E0,-5.732006550E0
3.741878292E1,2.087737799E0,-9.265607834E0,-6.234499454E0
3.743905058E1,9.457631707E-1,-1.099681473E1,-1.936989903E0
3.745931824E1,-2.632105052E-1,-1.112602711E1,1.125224829E0
3.747958595E1,-2.166700840E0,-1.668096542E1,2.310270309E0
3.749985360E1,-6.327819347E0,-2.643710136E1,-8.931210637E-1
3.752012126E1,-1.094357395E1,-2.166282082E1,-7.264011383E0
3.754038897E1,-5.870192051E0,-8.607581139E0,-5.154737949E0
3.756065662E1,-2.221735716E0,-5.296513081E0,-2.569293261E0
3.758092428E1,-1.893919110E0,-5.842076302E0,-8.045865893E-1
3.760119194E1,-1.606182218E0,-6.847660065E0,-9.050851464E-1
3.762145964E1,-4.546363056E-1,-6.921837807E0,-2.217548370E0
3.764185964E1,2.901297510E-1,-6.333203316E0,-2.617149830E0
3.766199496E1,3.284149170E-1,-6.000002861E0,-2.112264156E0
3.768226266E1,1.986042857E-1,-6.011966705E0,-1.534995675E0
3.770253037E1,1.148554832E-1,-6.067001820E0,-2.633899450E0
3.772279803E1,-8.476574421E-1,-7.223333359E0,-5.799005508E0
3.774319803E1,-2.727817893E-1,-9.263215065E0,-6.268597126E0
3.776333339E1,1.367498159E0,-9.356534958E0,-5.255835056E0
3.778360100E1,1.523031592E0,-7.637889862E0,-3.651447296E0
3.780386870E1,8.117650747E-1,-5.499902725E0,-3.206382275E0
3.782413641E1,3.308077157E-1,-4.168895245E0,-2.674577475E0
3.784453641E1,-2.416750938E-1,-4.637888432E0,2.201396823E-1
3.786467173E1,-7.998009920E-1,-5.401797295E0,1.189831018E0
3.788493938E1,-1.841277003E0,-7.642675400E0,6.604190469E-1
3.790520709E1,-5.542375565E0,-1.746102524E1,-1.697707653E0
3.792547475E1,-6.461817741E0,-3.759662628E1,-1.430309772E1
3.794587475E1,-3.557528973E0,-2.518266296E1,5.329414368E0
3.796601011E1,-2.374876499E0,-1.422174168E1,5.877370834E0
3.798627777E1,-1.244866014E0,-1.027358437E1,4.242474556E0
3.800654542E1,-2.895315289E-1,-6.981658459E0,3.380460262E0
3.802681308E1,4.313062727E-1,-5.215157032E0,1.333400369E0
3.804708074E1,5.377270699E0,-4.501497746E0,-8.583653450E0
3.806734844E1,2.449652195E0,-6.984051228E0,-4.110869408E0
3.808761610E1,-8.500502706E-1,-8.416155815E0,-1.690529227E0
3.810788381E1,-2.011167526E0,-8.590831757E0,-8.596215248E-1
3.812815147E1,-2.066202402E0,-7.118049145E0,-1.690529227E0
3.814841912E1,-2.111665964E0,-5.849255085E0,-3.857230186E0
3.816868678E1,-2.161915302E0,-5.909075737E0,-4.771886349E0
3.818895449E1,-1.235294700E0,-6.933801651E0,-3.196810961E0
3.820922214E1,-4.283152521E-1,-7.163512707E0,-1.654636860E0
3.822948975E1,3.589234129E-2,-6.311667919E0,-1.310070395E0
3.824975751E1,9.074779749E-1,-5.825326920E0,-3.732803345E0
3.827002516E1,2.361117840E0,-9.033503532E0,-7.110870838E0
3.829029282E1,3.212962627E0,-1.307019520E1,-4.200001717E0
3.831056053E1,1.980060697E0,-1.259163094E1,-1.264606714E0
3.833082818E1,1.082154036E0,-1.765005875E1,1.818545163E-1
3.835109584E1,-1.180259824E0,-2.686063004E1,-1.896311939E-1
3.837136355E1,-6.504888535E0,-2.076252174E1,-4.561318398E0
3.839163120E1,-4.749752998E0,-9.126823425E0,-4.858027935E0
3.841189886E1,-2.398804665E0,-5.437689304E0,-3.021536827E0
3.843216652E1,-1.936989903E0,-5.552545071E0,-1.657029629E0
3.845243417E1,-2.027917147E0,-6.830910206E0,-7.854440212E-1
3.847270188E1,-1.476969719E0,-7.180262566E0,-5.318048596E-1
3.849296954E1,-1.819143414E0,-6.840481758E0,-1.786242127E0
3.851323720E1,-2.032702923E0,-6.771090031E0,-2.832503796E0
3.853350490E1,-1.704287887E0,-7.204190731E0,-2.507079840E0
3.855377256E1,-1.060618639E0,-7.590033531E0,-2.485544443E0
3.857404022E1,-7.130611539E-1,-8.097311974E0,-3.696911097E0
3.859430787E1,-4.713860750E-1,-8.406583786E0,-4.601995945E0
3.861457558E1,-7.178467698E-3,-8.011170387E0,-4.580460548E0
3.863484324E1,2.321037948E-1,-6.996015072E0,-4.034298897E0
3.865511089E1,2.081755698E-1,-5.648257732E0,-4.074976921E0
3.867537860E1,-1.770688742E-1,-4.453640938E0,-4.487140656E0
3.869564626E1,-1.077368379E0,-4.334000111E0,-4.074976921E0
3.871591391E1,-1.565504193E0,-6.826124668E0,-1.176072359E0
3.873618157E1,-6.197410822E-1,-7.264011383E0,1.072582722E0
3.875644928E1,-1.345364571E0,-9.699306488E0,8.231309652E-1
3.877671694E1,-3.880560160E0,-1.598405552E1,5.000999570E-1
3.879698459E1,-5.226522923E0,-2.982473946E1,-4.858027935E0
3.881725225E1,-5.048855543E-1,-2.964288521E1,-3.974478483E0
3.883751990E1,-9.744769931E-1,-1.594098473E1,3.047259569E0
3.885778761E1,-7.657032460E-2,-1.202871990E1,4.280759811E0
3.887805527E1,2.560320199E-1,-9.351749420E0,3.361317635E0
3.889832292E1,3.451646566E-1,-6.962515831E0,2.087737799E0
3.891859063E1,4.887340367E-1,-5.511867046E0,1.558325768E0
3.893885829E1,1.249651670E0,-5.511867046E0,-1.901097536E0
3.895912595E1,7.806583643E-1,-7.532605648E0,-5.258227825E0
3.897939365E1,-6.699903309E-2,-9.126823425E0,-3.694518089E0
3.899966131E1,1.435693651E-1,-8.767900467E0,-2.605185747E0
3.901992897E1,-5.383850932E-1,-8.097311974E0,-2.107478619E0
3.904019662E1,-2.042274237E0,-6.768697262E0,-1.463211060E0
3.906046433E1,-2.401197433E0,-5.791827202E0,-7.232306600E-1
3.908073199E1,-1.517647743E0,-5.629115105E0,-1.530210137E0
3.910099964E1,-5.264210105E-1,-6.644270420E0,-2.528615236E0
3.912126730E1,-7.178467698E-3,-7.889136314E0,-2.129014015E0
3.914153501E1,4.241278172E-1,-7.367500782E0,-2.234298229E0
3.916180266E1,-5.264209956E-2,-6.821339130E0,-3.014358282E0
3.918207032E1,-1.459621787E-1,-7.506284714E0,-3.378665686E0
3.920233798E1,6.849454641E-1,-8.392227173E0,-3.102892876E0
3.922260569E1,1.599601984E0,-9.268000603E0,-4.278964996E0
3.924300568E1,1.350748420E0,-1.042732334E1,-5.382654667E0
3.926314100E1,1.305284739E0,-1.186600780E1,-3.768695593E0
3.928340865E1,1.063011408E0,-1.534218025E1,-2.985644341E0
3.930367636E1,-1.627119333E-1,-2.470828629E1,-1.048654556E0
3.932394402E1,-5.568696499E0,-2.513241386E1,-2.219941139E0
3.934434402E1,-6.002395630E0,-1.324965763E1,-4.448855400E0
3.936447938E1,-3.004786968E0,-6.766304016E0,-3.586841106E0
3.938474704E1,-2.018345833E0,-4.999204636E0,-2.219941139E0
3.940501470E1,-1.718644857E0,-6.071787357E0,-9.529415965E-1
3.942528240E1,-1.975275040E0,-6.950551510E0,-3.523431420E-1
3.944568240E1,-2.027917147E0,-7.199405193E0,-6.275177598E-1
3.946581772E1,-1.118046403E0,-7.046264648E0,-1.755135417E0
3.948608537E1,-2.512463629E-1,-6.744768620E0,-2.535793781E0
3.950635308E1,4.480560422E-1,-6.672984123E0,-2.602792740E0
3.952662074E1,3.451646566E-1,-6.340381622E0,-3.991228104E0
3.954702074E1,-3.445664644E-1,-7.034300327E0,-4.501497746E0
3.956715610E1,-3.756731451E-1,-7.618747234E0,-3.708875179E0
3.958742376E1,-4.761717021E-1,-6.594020844E0,-2.626721144E0
3.960769141E1,-6.604190469E-1,-5.703292847E0,-1.860419631E0
3.962795907E1,-1.443470240E0,-5.660222054E0,-2.200798512E0
3.964822678E1,-3.133999348E0,-5.976074696E0,-4.048655987E0
3.966849444E1,-4.503292084E0,-7.163512707E0,-6.450451851E0
3.968876209E1,-2.729014158E0,-8.133204460E0,-2.866003275E0
3.970902980E1,-3.433102369E0,-8.569295883E0,1.196411327E-1
3.972929746E1,-3.595814228E0,-1.076471043E1,-2.374876440E-1
3.974956511E1,-4.316651821E0,-1.943630028E1,-2.609971285E0
3.976983282E1,-5.255236626E0,-3.120898819E1,-4.869992256E0
3.979010048E1,-2.066202402E0,-2.496970177E1,2.401197433E0
3.981036813E1,1.674975827E-2,-1.625444412E1,6.320641041E0
3.983063584E1,1.858026743E0,-1.140838051E1,6.928418159E0
3.985090350E1,2.361117840E0,-7.874779224E0,4.661218643E0
3.987117115E1,2.116451740E0,-6.340381622E0,2.513660192E0
3.989143886E1,2.008774519E0,-5.837290764E0,-2.475973129E0
3.991170652E1,8.356932998E-1,-7.053442955E0,-6.457630157E0
3.993197417E1,-1.613360643E0,-9.337391853E0,-3.170490026E0
3.995224188E1,-1.474576950E0,-9.706484795E0,-1.460818172E0
3.997250954E1,-8.548358679E-1,-8.753543854E0,-1.463211060E0
3.999277720E1,-3.182454109E-1,-7.515855789E0,-2.327618122E0
4.001304490E1,3.882354796E-1,-5.978467464E0,-3.361915827E0
4.003331256E1,5.748756528E-1,-5.787041664E0,-2.425724030E0
4.005358022E1,6.466603279E-1,-7.034300327E0,-1.867598057E0
4.007384787E1,1.065404296E0,-7.551748276E0,-1.987239242E0
4.009411558E1,6.299105883E-1,-7.539783955E0,-2.337189436E0
4.011438324E1,-7.926225066E-1,-7.554141045E0,-1.965703845E0
4.013465095E1,-1.987239242E0,-6.814160824E0,-1.642672777E0
4.015491860E1,-1.994417667E0,-6.460022926E0,-1.432104349E0
4.017518620E1,-1.000798106E0,-7.460821152E0,-1.843669891E0
4.019545391E1,8.715856671E-1,-8.944969177E0,-2.617149830E0
4.021572162E1,2.913859844E0,-9.771091461E0,-4.467998028E0
4.023598928E1,4.194618225E0,-1.031904793E1,-6.534200668E0
4.025625688E1,4.173082829E0,-1.180140114E1,-5.425725460E0
4.027652464E1,3.275176048E0,-1.284048462E1,-2.533401012E0
4.029679230E1,2.073380709E0,-1.763091469E1,-1.300499082E0
4.031705996E1,-2.106880426E0,-2.373141670E1,-4.480560422E-1
4.033745996E1,-1.002652550E1,-2.094497490E1,-1.537388563E0
4.035759532E1,-9.605388641E0,-1.104945660E1,-5.322834015E0
4.037786298E1,-4.232903481E0,-5.598008633E0,-4.084548473E0
4.039813063E1,-2.537588358E0,-5.128417015E0,-1.731207132E0
4.041853063E1,-2.846262455E0,-6.352345943E0,-4.456632137E-1
4.043866600E1,-2.595016241E0,-7.185048103E0,-4.719842672E-1
4.045893365E1,-2.049452543E0,-7.489534855E0,-2.255833626E0
4.047920131E1,-1.359721422E0,-7.819744587E0,-3.627519131E0
4.049946897E1,-5.335994363E-1,-8.686544418E0,-4.223930359E0
4.051973667E1,2.781656384E-1,-9.809376717E0,-4.936991215E0
4.054000433E1,6.275177598E-1,-9.799804688E0,-5.358726501E0
4.056027199E1,2.536391914E-1,-7.484749317E0,-5.097310543E0
4.058053970E1,-1.172483116E-1,-5.154737949E0,-4.041477680E0
4.060080735E1,-1.962114573E-1,-4.065405846E0,-2.825325251E0
4.062107501E1,-1.722832322E-1,-3.615555048E0,-2.231905222E0
4.064134266E1,-1.031904817E0,-3.883551121E0,-2.607578516E0
4.066161032E1,-1.915454507E0,-4.731208801E0,-2.578864574E0
4.068187803E1,-2.056631088E0,-5.722435474E0,-1.499103427E0
4.070214569E1,-2.109273195E0,-6.919445038E0,-5.030909777E-1
4.072241334E1,-2.327019930E0,-8.650651932E0,-2.350948304E-1
4.074281334E1,-3.397209883E0,-1.169372463E1,-5.006981492E-1
4.076294865E1,-4.587040901E0,-1.740120506E1,-1.872383654E-1
4.078321636E1,-2.846262455E0,-2.656631279E1,-7.996813297E0
4.080348402E1,-3.110669553E-1,-2.712922478E1,-6.792625427E0
4.082375167E1,-1.426720500E0,-1.668814278E1,5.236093998E0
4.084415167E1,3.427718580E-1,-1.296491146E1,5.224130154E0
4.086428704E1,1.312463164E0,-1.020179939E1,4.675575256E0
4.088455470E1,1.834098577E0,-7.834101200E0,3.234498024E0
4.090482240E1,2.135594130E0,-6.596413612E0,8.853443861E-1
4.092509006E1,3.897907972E0,-6.326025009E0,-5.952146530E0
4.094549006E1,8.715856671E-1,-8.571688652E0,-3.500699520E0
4.096562537E1,-1.120439172E0,-9.184251785E0,-2.129014015E0
4.098589308E1,-9.242277741E-1,-9.157930374E0,-1.226321578E0
4.100616074E1,-1.106082320E0,-8.432905197E0,-1.621137381E0
4.102642839E1,-1.333400369E0,-6.708876610E0,-2.961716175E0
4.104669610E1,-9.337990284E-1,-5.959324837E0,-2.397010088E0
4.106696376E1,-7.657032460E-2,-6.388238430E0,-1.140179992E0
4.108723136E1,3.236292601E-1,-6.885945320E0,-6.634100676E-1
4.110749902E1,3.547359705E-1,-7.551748276E0,-1.546959877E0
4.112775886E1,-7.657032460E-2,-8.387441635E0,-2.188834429E0
4.114795746E1,-1.244267747E-1,-8.679366112E0,-1.977667928E0
4.116830324E1,2.901297510E-1,-8.581260681E0,-2.011167526E0
