"Time (s)","Acceleration x (m/s^2)","Acceleration y (m/s^2)","Acceleration z (m/s^2)"
5.520433000E-2,-2.566796064E0,1.546384215E0,9.337592125E0
7.531506000E-2,-2.248526812E0,1.297447443E0,9.456804276E0
9.558276800E-2,-1.835143089E0,1.021683574E0,9.579081535E0
1.158506330E-1,-1.298695087E0,7.908303142E-1,9.688052177E0
1.362506330E-1,-6.513386965E-1,6.159752607E-1,9.765588760E0
1.563864140E-1,-5.908826832E-3,4.812341928E-1,9.794833183E0
1.766542780E-1,5.550152063E-1,3.824481070E-1,9.783460617E0
1.969221950E-1,9.660475254E-1,3.271858096E-1,9.753466606E0
2.171901120E-1,1.308281660E0,3.325296640E-1,9.713300705E0
2.374580280E-1,1.552223802E0,3.627055883E-1,9.676230431E0
2.577259450E-1,1.602994442E0,3.418146372E-1,9.668710709E0
2.779939140E-1,1.573270082E0,2.159733474E-1,9.677218437E0
2.982618830E-1,1.644960284E0,-8.682101034E-3,9.667698860E0
3.185298510E-1,1.821949959E0,-2.683286667E-1,9.632179260E0
3.387978200E-1,2.044883966E0,-5.037138462E-1,9.577844620E0
3.590657890E-1,2.189347029E0,-7.339566946E-1,9.530920982E0
3.793338100E-1,2.361945868E0,-9.681838155E-1,9.468591690E0
3.996017780E-1,2.539015055E0,-1.216290116E0,9.393850327E0
4.198697470E-1,2.670988083E0,-1.477126837E0,9.319565773E0
4.401377680E-1,2.839808702E0,-1.700077176E0,9.231229782E0
4.604057890E-1,3.207703352E0,-1.824770689E0,9.085770607E0
4.806737580E-1,3.750426292E0,-1.930586100E0,8.853108406E0
5.009417780E-1,4.222136497E0,-2.115681171E0,8.594640732E0
5.212097470E-1,4.462996006E0,-2.280490637E0,8.429200172E0
5.414777160E-1,4.710069656E0,-2.430049658E0,8.251090050E0
5.617457370E-1,5.047159195E0,-2.652461529E0,7.978785038E0
5.820137580E-1,5.455389500E0,-2.979125977E0,7.585111618E0
6.024137580E-1,5.870725155E0,-3.302832603E0,7.127150059E0
6.225496950E-1,6.198188782E0,-3.475481987E0,6.758244038E0
6.428177160E-1,6.449663639E0,-3.605020046E0,6.447949886E0
6.630856850E-1,6.717341423E0,-3.828304291E0,6.032561302E0
6.833537050E-1,7.045925140E0,-4.091490746E0,5.457566738E0
7.036216740E-1,7.349414349E0,-4.351258755E0,4.819028854E0
7.238896430E-1,7.553380013E0,-4.569827080E0,4.270072937E0
7.441576640E-1,7.734114170E0,-4.651520729E0,3.836303234E0
7.644256330E-1,7.932724476E0,-4.592306137E0,3.486115694E0
7.846936530E-1,8.136908531E0,-4.467438698E0,3.162766218E0
8.049616220E-1,8.324151993E0,-4.352124691E0,2.817428589E0
8.252295910E-1,8.471641541E0,-4.261835098E0,2.497685671E0
8.454975080E-1,8.579975128E0,-4.179451942E0,2.255345345E0
8.657655800E-1,8.658655167E0,-4.110075951E0,2.074933052E0
8.860335490E-1,8.733921051E0,-4.041097641E0,1.886411548E0
9.063015700E-1,8.810279846E0,-3.945778847E0,1.726319075E0
9.265695390E-1,8.878554344E0,-3.825494766E0,1.645376086E0
9.468375080E-1,8.913836479E0,-3.747278929E0,1.634561896E0
9.671055280E-1,8.934434891E0,-3.716914892E0,1.590848804E0
9.873734970E-1,8.966528893E0,-3.676593781E0,1.501466870E0
1.007641518E0,9.021410942E0,-3.612735987E0,1.316313267E0
1.027909487E0,9.090597153E0,-3.536435604E0,1.012444496E0
1.048177508E0,9.155858040E0,-3.441807985E0,7.032790780E-1
1.068445476E0,9.210243225E0,-3.339003325E0,4.391750991E-1
1.088713497E0,9.257103920E0,-3.231091499E0,1.908961087E-1
1.108981466E0,9.277997017E0,-3.175872564E0,5.471519381E-2
1.129249487E0,9.271809578E0,-3.193807602E0,-5.937859043E-2
1.149517455E0,9.235573769E0,-3.293971300E0,-1.559533775E-1
1.169785476E0,9.181061745E0,-3.442145586E0,-1.735901237E-1
1.190053497E0,9.132480621E0,-3.568050385E0,-1.928560585E-1
1.210321466E0,9.119456291E0,-3.593166113E0,-3.083306253E-1
1.230589383E0,9.131370544E0,-3.542899370E0,-4.861319661E-1
1.250857455E0,9.105101585E0,-3.578695297E0,-6.785605550E-1
1.271125424E0,9.029725075E0,-3.734029293E0,-8.315467834E-1
1.291393497E0,8.931954384E0,-3.921964884E0,-1.004378796E0
1.311661518E0,8.779160500E0,-4.164624691E0,-1.323863029E0
1.331929487E0,8.503926277E0,-4.522085190E0,-1.845092893E0
1.352197508E0,8.050755501E0,-5.034348488E0,-2.451747179E0
1.372465528E0,7.377848148E0,-5.639392853E0,-3.151983023E0
1.392733549E0,6.587680817E0,-6.248149395E0,-3.705870390E0
1.413001570E0,5.909317970E0,-6.801088333E0,-3.872406721E0
1.433401570E0,5.582855701E0,-7.267554283E0,-3.490667105E0
1.453537560E0,5.388126850E0,-7.656833649E0,-2.917427778E0
1.473805580E0,5.170060635E0,-8.017640114E0,-2.271190166E0
1.494073601E0,4.847449780E0,-8.376064301E0,-1.585613012E0
1.514473601E0,4.403563976E0,-8.704745293E0,-1.003204226E0
1.534767508E0,3.858985424E0,-8.995545387E0,-5.989753604E-1
1.554878237E0,3.195666313E0,-9.266207695E0,-3.090568185E-1
1.575146101E0,2.411225080E0,-9.505464554E0,-5.009083450E-2
1.595414070E0,1.569625616E0,-9.678997993E0,1.538155824E-1
1.615681987E0,6.708245277E-1,-9.779601097E0,2.824575901E-1
1.636081987E0,-3.886687756E-1,-9.795252800E0,2.689578235E-1
1.656217976E0,-1.330083370E0,-9.714912415E0,1.474108398E-1
1.676485945E0,-1.359861016E0,-9.708616257E0,2.528916895E-1
1.696753914E0,-1.040309668E0,-9.739849091E0,4.727362096E-1
1.717021883E0,-7.703424096E-1,-9.751239777E0,7.001981139E-1
1.737421883E0,-6.192424297E-1,-9.743106842E0,9.267164469E-1
1.757557976E0,-6.054995656E-1,-9.722623825E0,1.128868699E0
1.777825945E0,-6.975995302E-1,-9.703475952E0,1.235433578E0
1.798093966E0,-8.063057065E-1,-9.704453468E0,1.159235120E0
1.818361987E0,-8.627967834E-1,-9.726324081E0,9.080561996E-1
1.838630008E0,-8.561783433E-1,-9.751817703E0,5.825909376E-1
1.858898080E0,-8.186723590E-1,-9.767362595E0,3.143067360E-1
1.879166101E0,-7.835115790E-1,-9.773259163E0,1.997886151E-1
1.899434122E0,-7.614454031E-1,-9.773636818E0,2.581214607E-1
1.919702143E0,-7.437748909E-1,-9.768717766E0,4.351330101E-1
1.939970216E0,-7.234377861E-1,-9.759148598E0,6.372126341E-1
1.960238237E0,-7.054881454E-1,-9.750472069E0,7.752189040E-1
1.980506258E0,-6.975119114E-1,-9.748396873E0,8.078526258E-1
2.000774278E0,-6.998852491E-1,-9.752215385E0,7.581909895E-1
2.021042351E0,-7.166873813E-1,-9.757449150E0,6.700238585E-1
2.041310372E0,-7.433006763E-1,-9.760909081E0,5.852886438E-1
2.061578393E0,-7.666208744E-1,-9.762234688E0,5.305295587E-1
2.081846466E0,-7.840472460E-1,-9.761736870E0,5.139563680E-1
2.102114435E0,-7.968728542E-1,-9.760293961E0,5.215767622E-1
2.122382560E0,-8.096514940E-1,-9.758519173E0,5.349289179E-1
2.142650580E0,-8.242601156E-1,-9.756801605E0,5.438722968E-1
2.162918601E0,-8.383529782E-1,-9.755479813E0,5.460577011E-1
2.183186674E0,-8.506957889E-1,-9.754445076E0,5.454460979E-1
2.203454695E0,-8.595303893E-1,-9.753561974E0,5.473826528E-1
2.223722768E0,-8.644276857E-1,-9.752686501E0,5.551974177E-1
2.243990789E0,-8.646768332E-1,-9.751732826E0,5.713291764E-1
2.264258810E0,-8.607577682E-1,-9.750552177E0,5.968508124E-1
2.284526883E0,-8.537063003E-1,-9.749085426E0,6.299993396E-1
2.304794903E0,-8.449809551E-1,-9.747612953E0,6.636586785E-1
2.325062976E0,-8.357150555E-1,-9.746602058E0,6.897085905E-1
2.345330997E0,-8.270677328E-1,-9.746199608E0,7.056561708E-1
2.365599070E0,-8.217399716E-1,-9.745848656E0,7.166391611E-1
2.385867091E0,-8.290846944E-1,-9.744744301E0,7.231571078E-1
2.405860580E0,-8.494477868E-1,-9.741860390E0,7.382262349E-1
2.426260580E0,-8.850852847E-1,-9.736840248E0,7.622044683E-1
2.446660580E0,-9.397898316E-1,-9.729462624E0,7.903998494E-1
2.466940112E0,-1.016764760E0,-9.719500542E0,8.172335029E-1
2.487207976E0,-1.113278866E0,-9.707117081E0,8.383814096E-1
2.507475893E0,-1.223728657E0,-9.692840576E0,8.495416045E-1
2.527875893E0,-1.331441522E0,-9.678607941E0,8.498231769E-1
2.548011935E0,-1.417742014E0,-9.667225838E0,8.397279382E-1
2.568279851E0,-1.485333681E0,-9.658378601E0,8.245480657E-1
2.588547820E0,-1.520630836E0,-9.653577805E0,8.163885474E-1
2.608815841E0,-1.519215941E0,-9.652919769E0,8.267512918E-1
2.629083810E0,-1.474591374E0,-9.657373428E0,8.550347686E-1
2.649351883E0,-1.374341488E0,-9.668836594E0,8.917167187E-1
2.669619851E0,-1.264641762E0,-9.680747986E0,9.242196679E-1
2.689887872E0,-1.174991250E0,-9.692834854E0,9.158301950E-1
2.710155945E0,-1.106548190E0,-9.708003044E0,8.370299339E-1
2.730423966E0,-1.049741983E0,-9.724386215E0,7.104583383E-1
2.750692039E0,-1.006826162E0,-9.738369942E0,5.664133430E-1
2.770960060E0,-9.658871293E-1,-9.750803947E0,3.990766406E-1
2.791228133E0,-9.003906250E-1,-9.764052391E0,1.515205353E-1
2.811496153E0,-8.204088211E-1,-9.770112038E0,-2.054683864E-1
2.831764226E0,-8.166395426E-1,-9.758802414E0,-5.188971758E-1
2.852032299E0,-8.785231709E-1,-9.742761612E0,-6.907886863E-1
2.872300320E0,-9.520801306E-1,-9.731235504E0,-7.529862523E-1
2.892568393E0,-1.010738254E0,-9.722435951E0,-7.893358469E-1
2.912836466E0,-1.035010457E0,-9.711374283E0,-8.878871202E-1
2.933236466E0,-1.043819785E0,-9.695278168E0,-1.040387750E0
2.953372560E0,-1.062810540E0,-9.674015045E0,-1.205919623E0
2.973640633E0,-1.082318902E0,-9.647045135E0,-1.390498996E0
2.993908705E0,-1.095952034E0,-9.611186028E0,-1.610707283E0
3.014176726E0,-1.103523850E0,-9.565468788E0,-1.858610392E0
3.034576726E0,-1.128348231E0,-9.504522324E0,-2.135716915E0
3.054712820E0,-1.182253122E0,-9.429353714E0,-2.420733929E0
3.074980893E0,-1.230120778E0,-9.341849327E0,-2.717913389E0
3.095248966E0,-1.243847489E0,-9.226496696E0,-3.081392050E0
3.115516987E0,-1.207037210E0,-9.079616547E0,-3.503428698E0
3.135916987E0,-1.117391706E0,-8.922806740E0,-3.912203074E0
3.156053133E0,-9.666735530E-1,-8.816851616E0,-4.183186531E0
3.176321153E0,-7.030059099E-1,-8.790904045E0,-4.289073944E0
3.196589226E0,-3.759510815E-1,-8.827154160E0,-4.255630970E0
3.216857299E0,-5.458689108E-2,-8.917009354E0,-4.080974102E0
3.237125320E0,1.662355512E-1,-9.042428017E0,-3.791735888E0
3.257393393E0,2.591514587E-1,-9.163475990E0,-3.483377457E0
3.277661466E0,2.870022058E-1,-9.254473686E0,-3.231521368E0
3.297929539E0,2.529060841E-1,-9.325430870E0,-3.023701191E0
3.318197560E0,1.012085006E-1,-9.385916710E0,-2.839842796E0
3.338465633E0,-1.793255657E-1,-9.425988197E0,-2.699809313E0
3.358733705E0,-5.388620496E-1,-9.432042122E0,-2.629943371E0
3.379001726E0,-9.001815915E-1,-9.394858360E0,-2.663963795E0
3.399269799E0,-1.154727101E0,-9.315681458E0,-2.838145018E0
3.419537872E0,-1.266480207E0,-9.254084587E0,-2.988030195E0
3.439805893E0,-1.275275350E0,-9.255319595E0,-2.980456352E0
3.460073966E0,-1.216294646E0,-9.302021980E0,-2.857169628E0
3.480342039E0,-1.122284651E0,-9.371550560E0,-2.661745787E0
3.500610112E0,-1.016574621E0,-9.447975159E0,-2.423368454E0
3.520878133E0,-9.331198335E-1,-9.510500908E0,-2.202281475E0
3.541146205E0,-8.761227131E-1,-9.546788216E0,-2.064373493E0
3.561414278E0,-8.182752728E-1,-9.560423851E0,-2.024623394E0
3.581682247E0,-7.548319697E-1,-9.561511993E0,-2.044037104E0
3.601950372E0,-6.966108680E-1,-9.561446190E0,-2.064913511E0
3.622218445E0,-6.393297911E-1,-9.574248314E0,-2.023711443E0
3.642486466E0,-5.740654469E-1,-9.608667374E0,-1.874655247E0
3.662754539E0,-5.100586414E-1,-9.660750389E0,-1.606276512E0
3.683022612E0,-4.628230333E-1,-9.715255737E0,-1.252987385E0
3.703290633E0,-4.629424512E-1,-9.749883652E0,-9.464968443E-1
3.723558705E0,-5.580697060E-1,-9.755321503E0,-8.322416544E-1
3.743826778E0,-6.272403002E-1,-9.749791145E0,-8.476603627E-1
3.764226778E0,-5.847240090E-1,-9.728244781E0,-1.090744138E0
3.784362872E0,-4.419806302E-1,-9.651210785E0,-1.682013154E0
3.804630893E0,-2.650986910E-1,-9.641275406E0,-1.773676515E0
3.824898966E0,-8.295970410E-2,-9.692261696E0,-1.491169691E0
3.845167039E0,3.389979945E-3,-9.743098259E0,-1.114640355E0
3.865435060E0,-8.624591678E-2,-9.761444092E0,-9.365658760E-1
3.885703133E0,-2.815325260E-1,-9.759285927E0,-9.205750227E-1
3.905971153E0,-5.229955912E-1,-9.743783951E0,-9.775097370E-1
3.926239226E0,-8.007633686E-1,-9.720607758E0,-1.019290924E0
3.946507299E0,-1.026734233E0,-9.694826126E0,-1.061388016E0
3.966775320E0,-9.965577126E-1,-9.668251991E0,-1.304670930E0
3.987043393E0,-7.427284122E-1,-9.684490204E0,-1.352548599E0
4.007311414E0,-6.249886751E-1,-9.746538162E0,-8.858724833E-1
4.027579487E0,-5.984793305E-1,-9.782830238E0,-3.293192089E-1
4.047847560E0,-5.679359436E-1,-9.790189743E0,4.999417812E-3
4.068115528E0,-5.476981401E-1,-9.791073799E0,7.270000130E-2
4.088383653E0,-5.620903969E-1,-9.790496826E0,2.465520240E-2
4.108651674E0,-5.754147768E-1,-9.789608002E0,-5.350138247E-2
4.128919747E0,-6.137611866E-1,-9.785440445E0,-1.970688254E-1
4.149187768E0,-6.697761416E-1,-9.778606415E0,-3.172398210E-1
4.169455841E0,-7.482370734E-1,-9.771003723E0,-3.715045750E-1
4.189723914E0,-8.205794692E-1,-9.764478683E0,-3.898646235E-1
4.209991935E0,-8.320437670E-1,-9.761937141E0,-4.274142683E-1
4.230260008E0,-8.128346205E-1,-9.757610321E0,-5.465541482E-1
4.250528028E0,-8.019372225E-1,-9.746500969E0,-7.300792933E-1
4.270796049E0,-8.112546802E-1,-9.731326103E0,-9.019598365E-1
4.291064122E0,-8.505123258E-1,-9.710049629E0,-1.077947855E0
4.311332195E0,-9.276805520E-1,-9.666680336E0,-1.365688443E0
4.331732195E0,-9.722834229E-1,-9.582863808E0,-1.842222929E0
4.351868289E0,-9.549251795E-1,-9.447739601E0,-2.449231625E0
4.372136310E0,-9.289752841E-1,-9.270792007E0,-3.059378147E0
4.392404383E0,-9.331286550E-1,-9.055822372E0,-3.645782471E0
4.412672403E0,-9.522572160E-1,-8.816903114E0,-4.186383724E0
4.433072403E0,-8.265237808E-1,-8.611589432E0,-4.618199348E0
4.453208497E0,-4.913463891E-1,-8.571693420E0,-4.738674164E0
4.473476570E0,-1.235873848E-1,-8.661020279E0,-4.598026276E0
4.493744591E0,9.264370054E-2,-8.737728119E0,-4.451282978E0
4.514012612E0,2.355118692E-1,-8.789259911E0,-4.343251705E0
4.534412612E0,3.557361960E-1,-8.847044945E0,-4.215878487E0
4.554548705E0,4.200256169E-1,-8.936062813E0,-4.017553806E0
4.574816778E0,3.939371705E-1,-9.068482399E0,-3.711850166E0
4.595084799E0,3.063843846E-1,-9.223092079E0,-3.318296909E0
4.615352872E0,1.589749306E-1,-9.355555534E0,-2.935762644E0
4.635752872E0,-8.562989533E-2,-9.447409630E0,-2.628590107E0
4.655888966E0,-3.588027060E-1,-9.501341820E0,-2.401282072E0
4.676156987E0,-5.601394773E-1,-9.527522087E0,-2.254541636E0
4.696425008E0,-6.759816408E-1,-9.531713486E0,-2.204513788E0
4.716693080E0,-7.151451707E-1,-9.531248093E0,-2.194144726E0
4.737093080E0,-6.652362943E-1,-9.547801971E0,-2.137129307E0
4.757229122E0,-5.915890932E-1,-9.572411537E0,-2.046790600E0
4.777497195E0,-5.285112858E-1,-9.593745232E0,-1.962429523E0
4.797765216E0,-4.706415832E-1,-9.607304573E0,-1.910125256E0
4.818033237E0,-4.198461175E-1,-9.617042542E0,-1.872591853E0
4.838301310E0,-3.841055036E-1,-9.631071091E0,-1.807021141E0
4.858569330E0,-3.684044480E-1,-9.657040596E0,-1.666200995E0
4.878837351E0,-3.824562728E-1,-9.692349434E0,-1.443078876E0
4.899105372E0,-4.206524193E-1,-9.728350639E0,-1.163030624E0
4.919373445E0,-4.352524877E-1,-9.758228302E0,-8.705958724E-1
4.939641466E0,-3.987944126E-1,-9.778093338E0,-6.326436400E-1
4.959909487E0,-3.243163824E-1,-9.789134979E0,-4.879181087E-1
4.980177508E0,-2.592549622E-1,-9.789060593E0,-5.267559886E-1
5.000445580E0,-2.442332953E-1,-9.722694397E0,-1.256957054E0
5.020713601E0,-3.764835894E-1,-9.680322647E0,-1.523153067E0
5.040981570E0,-2.785477340E-1,-9.711570740E0,-1.333482146E0
5.061249643E0,-2.385288477E-1,-9.754959106E0,-9.768653512E-1
5.081517612E0,-3.464714289E-1,-9.778155327E0,-6.618317962E-1
5.101785737E0,-5.427166224E-1,-9.780462265E0,-4.673303664E-1
5.122053758E0,-7.403804064E-1,-9.771996498E0,-3.609921336E-1
5.142321778E0,-8.919665813E-1,-9.760789871E0,-3.190019727E-1
5.162589851E0,-9.306946993E-1,-9.749832153E0,-4.949375391E-1
5.182857872E0,-9.168980122E-1,-9.742304802E0,-6.458965540E-1
5.203125893E0,-8.667815328E-1,-9.753879547E0,-5.300155878E-1
5.223393914E0,-7.537406683E-1,-9.773197174E0,-2.947595119E-1
5.243661935E0,-6.692124009E-1,-9.782846451E0,-1.358901858E-1
5.263929955E0,-6.397896409E-1,-9.784484863E0,-1.578397155E-1
5.284198028E0,-6.389526129E-1,-9.781640053E0,-2.857297659E-1
5.304466049E0,-6.617977619E-1,-9.776826859E0,-3.821821809E-1
5.324734070E0,-7.156344056E-1,-9.771791458E0,-4.127101302E-1
5.345002091E0,-7.886185050E-1,-9.763037682E0,-4.812015891E-1
5.365270112E0,-7.970311642E-1,-9.748695374E0,-7.057448030E-1
5.385538133E0,-7.071528435E-1,-9.708515167E0,-1.189566493E0
5.405219539E0,-6.130667925E-1,-9.605028152E0,-1.880948305E0
5.425619539E0,-6.030750871E-1,-9.422098160E0,-2.651558161E0
5.446019539E0,-6.787645221E-1,-9.163891792E0,-3.425310135E0
5.466419539E0,-8.022899628E-1,-8.842207909E0,-4.164380074E0
5.486819539E0,-9.006658196E-1,-8.502325058E0,-4.803088665E0
5.507150112E0,-9.619579315E-1,-8.181310654E0,-5.320825577E0
5.527416674E0,-7.834358811E-1,-7.978998184E0,-5.647319317E0
5.547684226E0,-3.938008249E-1,-7.988871098E0,-5.673908710E0
5.567951883E0,-9.637404233E-2,-8.084045410E0,-5.550612926E0
5.588219591E0,4.218241572E-2,-8.155960083E0,-5.445081711E0
5.608487351E0,8.698460460E-2,-8.214570999E0,-5.355711937E0
5.628755164E0,7.308496535E-2,-8.290832520E0,-5.237091064E0
5.649023028E0,2.399288490E-2,-8.425544739E0,-5.017967701E0
5.669290893E0,-9.284271300E-2,-8.644791603E0,-4.629182339E0
5.689558862E0,-2.355884314E-1,-8.899207115E0,-4.113269806E0
5.709826778E0,-3.872683942E-1,-9.137585640E0,-3.539060116E0
5.730094747E0,-5.400936604E-1,-9.329161644E0,-2.974126577E0
5.750362716E0,-6.876178384E-1,-9.457176208E0,-2.501878977E0
5.770630685E0,-7.877346873E-1,-9.533378601E0,-2.159758568E0
5.790898653E0,-7.878189087E-1,-9.585577965E0,-1.914793730E0
5.811166674E0,-7.736288309E-1,-9.622275352E0,-1.727339029E0
5.831434643E0,-7.938271761E-1,-9.642588615E0,-1.600220680E0
5.851702664E0,-8.040877581E-1,-9.653814316E0,-1.525679588E0
5.871970685E0,-7.533072233E-1,-9.672530174E0,-1.430062413E0
5.892238705E0,-6.521446705E-1,-9.709230423E0,-1.214880109E0
5.912506674E0,-5.668313503E-1,-9.753211975E0,-8.508490324E-1
5.932906674E0,-5.226957202E-1,-9.782537460E0,-4.462345839E-1
5.953042716E0,-4.690509140E-1,-9.793516159E0,-1.934738010E-1
5.973310737E0,-3.204497099E-1,-9.795682907E0,-3.350940347E-1
5.993578758E0,-2.016410232E-1,-9.763696671E0,-8.944036961E-1
6.013846778E0,-3.463516235E-1,-9.698454857E0,-1.410813332E0
6.034246778E0,-5.880422592E-1,-9.677647591E0,-1.472323656E0
6.054382820E0,-7.322646976E-1,-9.701080322E0,-1.234182596E0
6.074650841E0,-8.361989856E-1,-9.716773033E0,-1.027360082E0
6.094918862E0,-9.007441998E-1,-9.717535973E0,-9.636037946E-1
6.115186883E0,-9.159905910E-1,-9.714035988E0,-9.843107462E-1
6.135586883E0,-9.202218056E-1,-9.714086533E0,-9.798514247E-1
6.155722924E0,-9.023671746E-1,-9.725709915E0,-8.756030798E-1
6.175990945E0,-8.741130233E-1,-9.741822243E0,-7.093718052E-1
6.196258966E0,-8.470559716E-1,-9.753405571E0,-5.691759586E-1
6.216526987E0,-7.916473150E-1,-9.760160446E0,-5.319223404E-1
6.236926987E0,-7.336310148E-1,-9.760020256E0,-6.117089391E-1
6.257062976E0,-7.262067795E-1,-9.750109673E0,-7.605025172E-1
6.277330997E0,-7.423205972E-1,-9.734165192E0,-9.302548766E-1
6.297599018E0,-7.663822770E-1,-9.713256836E0,-1.111609221E0
6.317867039E0,-8.147541285E-1,-9.681284904E0,-1.333896995E0
6.338135060E0,-8.803748488E-1,-9.627110481E0,-1.647440791E0
6.358403028E0,-9.179506302E-1,-9.541361809E0,-2.071272135E0
6.378671049E0,-8.957744837E-1,-9.413328171E0,-2.599466562E0
6.398939070E0,-8.618111014E-1,-9.223937988E0,-3.216618299E0
6.419207091E0,-8.099488020E-1,-8.998940468E0,-3.812274933E0
6.439475112E0,-7.571041584E-1,-8.761920929E0,-4.338884354E0
6.459743133E0,-6.913493872E-1,-8.562906265E0,-4.729595184E0
6.480011153E0,-5.276512504E-1,-8.497078896E0,-4.867404938E0
6.500279122E0,-3.320643306E-1,-8.527973175E0,-4.830506325E0
6.520547143E0,-1.306362599E-1,-8.588448524E0,-4.732006550E0
6.540815164E0,5.102231354E-2,-8.666656494E0,-4.588773727E0
6.561083185E0,1.786343157E-1,-8.778434753E0,-4.367785454E0
6.581351205E0,2.142287791E-1,-8.940562248E0,-4.023783207E0
6.601619174E0,1.282981485E-1,-9.129505157E0,-3.578557968E0
6.621887195E0,-4.567658156E-2,-9.285446167E0,-3.154170275E0
6.642155216E0,-2.621196806E-1,-9.372107506E0,-2.874940634E0
6.662423237E0,-5.212259889E-1,-9.416855812E0,-2.687293291E0
6.682691205E0,-7.811039090E-1,-9.465083122E0,-2.443862677E0
6.702959226E0,-9.089010358E-1,-9.514281273E0,-2.196071625E0
6.723227247E0,-8.917939067E-1,-9.558514595E0,-2.002473116E0
6.743495268E0,-7.902075648E-1,-9.599024773E0,-1.845178604E0
6.763763133E0,-6.521337628E-1,-9.638691902E0,-1.685446978E0
6.784031258E0,-5.246070027E-1,-9.674452782E0,-1.516616702E0
6.804299226E0,-4.227547348E-1,-9.706818581E0,-1.330167532E0
6.824567247E0,-3.371944129E-1,-9.740138054E0,-1.089220405E0
6.844835268E0,-2.806316316E-1,-9.772070885E0,-7.734692693E-1
6.865103289E0,-2.452885211E-1,-9.793969154E0,-4.340295792E-1
6.885371310E0,-2.185436338E-1,-9.801810265E0,-2.171084434E-1
6.905639330E0,-2.509255707E-1,-9.799649239E0,-2.725642622E-1
6.925907299E0,-3.136481643E-1,-9.761946678E0,-8.811429143E-1
6.946175320E0,-3.757167161E-1,-9.676061630E0,-1.550172210E0
6.966443341E0,-4.030144215E-1,-9.651682854E0,-1.689075589E0
6.986711362E0,-3.966683149E-1,-9.670764923E0,-1.577760816E0
7.006979330E0,-4.102547765E-1,-9.695247650E0,-1.415714622E0
7.027379330E0,-3.793114722E-1,-9.711804390E0,-1.306658149E0
7.047515320E0,-3.050065637E-1,-9.717379570E0,-1.284478784E0
7.067783341E0,-3.136992455E-1,-9.720108986E0,-1.261536241E0
7.088051362E0,-3.460690081E-1,-9.722972870E0,-1.230620265E0
7.108319330E0,-3.389756978E-1,-9.719797134E0,-1.257388592E0
7.128587351E0,-3.105116785E-1,-9.706725121E0,-1.361416459E0
7.148855320E0,-3.324644864E-1,-9.680135727E0,-1.534547925E0
7.169123341E0,-4.384409785E-1,-9.637839317E0,-1.757902503E0
7.189391310E0,-5.937072635E-1,-9.574989319E0,-2.034079552E0
7.209659330E0,-6.958955526E-1,-9.491336823E0,-2.366565228E0
7.229927351E0,-6.212497950E-1,-9.394846916E0,-2.742499590E0
7.250195320E0,-3.780043125E-1,-9.274920464E0,-3.162807465E0
7.270463341E0,-1.207773462E-1,-9.146913528E0,-3.534089327E0
7.290731310E0,4.219722748E-2,-9.034312248E0,-3.814420700E0
7.310999278E0,5.851385370E-2,-8.938946724E0,-4.032643318E0
7.331267299E0,3.033464402E-2,-8.832166672E0,-4.261724949E0
7.351535268E0,3.437066451E-2,-8.725077629E0,-4.476855278E0
7.371803289E0,-2.410910837E-2,-8.682555199E0,-4.558841228E0
7.392071258E0,-1.008927152E-1,-8.724588394E0,-4.476801872E0
7.412339278E0,-1.179992706E-1,-8.846746445E0,-4.229838371E0
7.432739278E0,-8.431112766E-2,-9.041019440E0,-3.797793865E0
7.452875268E0,-8.281704038E-2,-9.261568069E0,-3.222869635E0
7.473143237E0,-1.625859886E-1,-9.452743530E0,-2.605682850E0
7.493411258E0,-3.199878931E-1,-9.566027641E0,-2.135210276E0
7.513679226E0,-5.388618708E-1,-9.611165047E0,-1.872308254E0
7.534079226E0,-8.014030457E-1,-9.617321968E0,-1.742195845E0
7.554215216E0,-1.045600295E0,-9.611333847E0,-1.642982125E0
7.574483185E0,-1.205453753E0,-9.611758232E0,-1.526883364E0
7.594751153E0,-1.245571852E0,-9.621083260E0,-1.433072567E0
7.615019122E0,-1.198206425E0,-9.636314392E0,-1.369727850E0
7.635419122E0,-1.117769957E0,-9.653367043E0,-1.316619992E0
7.655555164E0,-1.034333706E0,-9.670459747E0,-1.258072138E0
7.675823133E0,-9.543031454E-1,-9.690486908E0,-1.163675904E0
7.696091101E0,-8.766855001E-1,-9.713161469E0,-1.027768493E0
7.716359070E0,-7.994201183E-1,-9.733273506E0,-8.914631605E-1
7.736759070E0,-7.090339661E-1,-9.748038292E0,-8.021203279E-1
7.756895060E0,-6.069363952E-1,-9.757223129E0,-7.736991048E-1
7.777163028E0,-5.113687515E-1,-9.759825706E0,-8.091429472E-1
7.797430997E0,-4.801860750E-1,-9.748989105E0,-9.471098781E-1
7.817699018E0,-5.963172317E-1,-9.718770981E0,-1.166311026E0
7.837966987E0,-7.118160129E-1,-9.691873550E0,-1.315784574E0
7.858234955E0,-6.970046759E-1,-9.686491013E0,-1.362527728E0
7.878502924E0,-7.242992520E-1,-9.691171646E0,-1.314147234E0
7.898770893E0,-8.286329508E-1,-9.706743240E0,-1.123787761E0
7.919038810E0,-9.669353962E-1,-9.719755173E0,-8.728037477E-1
7.939306830E0,-1.054933667E0,-9.721230507E0,-7.451110482E-1
7.959574851E0,-1.081727743E0,-9.716112137E0,-7.729273438E-1
7.979842820E0,-1.093623161E0,-9.716676712E0,-7.487188578E-1
8.000110789E0,-1.105571151E0,-9.728129387E0,-5.582040548E-1
8.020378758E0,-1.113270402E0,-9.738003731E0,-3.198669851E-1
8.040646726E0,-1.119380593E0,-9.741012573E0,-1.733748466E-1
8.060914695E0,-1.124218225E0,-9.740489006E0,-1.714003086E-1
8.081182664E0,-1.141756535E0,-9.736458778E0,-2.610653639E-1
8.101450633E0,-1.191220641E0,-9.726781845E0,-3.756135702E-1
8.121718601E0,-1.272267103E0,-9.711810112E0,-4.821523428E-1
8.141986570E0,-1.376972914E0,-9.692486763E0,-5.744919777E-1
8.162254591E0,-1.500728965E0,-9.669047356E0,-6.540130377E-1
8.182522508E0,-1.629216313E0,-9.642473221E0,-7.339911461E-1
8.202790476E0,-1.753093004E0,-9.613049507E0,-8.284502625E-1
8.223058445E0,-1.871888876E0,-9.575624466E0,-9.868322015E-1
8.243326414E0,-1.981309295E0,-9.519047737E0,-1.277702212E0
8.263594383E0,-2.064075708E0,-9.430695534E0,-1.723937154E0
8.283862351E0,-2.081831455E0,-9.300813675E0,-2.308946371E0
8.304130320E0,-1.999135971E0,-9.132784843E0,-2.960757732E0
8.324398289E0,-1.817554355E0,-8.942306519E0,-3.591942310E0
8.344666258E0,-1.510492563E0,-8.757764816E0,-4.146125317E0
8.364934226E0,-1.137601852E0,-8.645417213E0,-4.486981869E0
8.385202195E0,-8.666074276E-1,-8.638725281E0,-4.559802055E0
8.405430789E0,-7.159987092E-1,-8.675107956E0,-4.516661644E0
8.425738028E0,-5.932552814E-1,-8.717724800E0,-4.451933384E0
8.446006049E0,-5.073419809E-1,-8.767594337E0,-4.363746643E0
8.466274018E0,-5.062475801E-1,-8.826112747E0,-4.244270325E0
8.486541987E0,-6.072402000E-1,-8.898425102E0,-4.076722622E0
8.506809903E0,-7.831568122E-1,-8.984174728E0,-3.852485418E0
8.527077872E0,-9.657070637E-1,-9.084914207E0,-3.564004183E0
8.547345841E0,-1.127722383E0,-9.204922676E0,-3.188734531E0
8.567613810E0,-1.278177500E0,-9.340374947E0,-2.700749636E0
8.587881778E0,-1.368529439E0,-9.474269867E0,-2.129722118E0
8.608149747E0,-1.394585490E0,-9.575235367E0,-1.593862653E0
8.628417664E0,-1.442788959E0,-9.612482071E0,-1.299592137E0
8.648685633E0,-1.481019616E0,-9.614348412E0,-1.241480947E0
8.668953601E0,-1.462880969E0,-9.606941223E0,-1.317967057E0
8.689221622E0,-1.406711102E0,-9.592376709E0,-1.475756764E0
8.709489539E0,-1.298117876E0,-9.563964844E0,-1.736622691E0
8.729757508E0,-1.112343073E0,-9.555647850E0,-1.903334379E0
8.750025476E0,-9.933034778E-1,-9.574376106E0,-1.874847651E0
8.770293393E0,-1.009788394E0,-9.595179558E0,-1.755913734E0
8.790561362E0,-1.165426970E0,-9.591096878E0,-1.680186510E0
8.810829278E0,-1.328519225E0,-9.544006348E0,-1.821365476E0
8.831229278E0,-1.319329262E0,-9.495620728E0,-2.064692259E0
8.851365216E0,-1.338166118E0,-9.474120140E0,-2.149594545E0
8.871633133E0,-1.352773905E0,-9.497444153E0,-2.034439087E0
8.891901101E0,-1.356515288E0,-9.553493500E0,-1.749576092E0
8.912169070E0,-1.374742746E0,-9.618511200E0,-1.328423619E0
8.932569070E0,-1.376228809E0,-9.676184654E0,-8.048772216E-1
8.952704955E0,-1.367834687E0,-9.706778526E0,-2.790591121E-1
8.972972872E0,-1.377114177E0,-9.708908081E0,1.050659493E-1
8.993240841E0,-1.384874582E0,-9.703388214E0,3.110719621E-1
9.013508758E0,-1.396327019E0,-9.696557999E0,4.443295002E-1
9.033908758E0,-1.452687025E0,-9.676862717E0,6.468514204E-1
9.054044643E0,-1.532590389E0,-9.637569427E0,9.689167142E-1
9.074312612E0,-1.615083337E0,-9.574918747E0,1.372165442E0
9.094580528E0,-1.718451381E0,-9.492585182E0,1.762993574E0
9.114848497E0,-1.888601780E0,-9.402992249E0,2.046292782E0
9.135248497E0,-2.125229120E0,-9.335144043E0,2.123414755E0
9.155384383E0,-2.286412239E0,-9.319182396E0,2.023747444E0
9.175652299E0,-2.307044744E0,-9.337880135E0,1.911001444E0
9.195920268E0,-2.356034279E0,-9.356206894E0,1.755243421E0
9.216188185E0,-2.422938824E0,-9.378501892E0,1.530836344E0
9.236377455E0,-2.403177261E0,-9.415661812E0,1.319250345E0
9.256723914E0,-2.253366232E0,-9.481285095E0,1.094521999E0
9.276991883E0,-2.038347006E0,-9.559731483E0,7.918720245E-1
9.297259851E0,-1.837543845E0,-9.623800278E0,4.198741317E-1
9.317527768E0,-1.673099756E0,-9.662873268E0,2.449675463E-3
9.337927768E0,-1.527128816E0,-9.677230835E0,-4.352820218E-1
9.358063705E0,-1.402781844E0,-9.665269852E0,-8.860960007E-1
9.378331622E0,-1.347157359E0,-9.606698990E0,-1.437669873E0
9.398599539E0,-1.248093128E0,-9.517415047E0,-2.007852316E0
9.418867508E0,-1.007149458E0,-9.421658516E0,-2.527526379E0
9.439135424E0,-6.926152110E-1,-9.329886436E0,-2.940049410E0
9.459403341E0,-4.767497480E-1,-9.262888908E0,-3.184647560E0
9.479671310E0,-4.874574244E-1,-9.230916023E0,-3.274591208E0
9.499939226E0,-6.166288853E-1,-9.240515709E0,-3.225371838E0
9.520207143E0,-5.670322180E-1,-9.253442764E0,-3.197287321E0
9.540475112E0,-2.746681273E-1,-9.231202126E0,-3.298462868E0
9.560743028E0,-4.947564751E-2,-9.181997299E0,-3.443671942E0
9.581010997E0,-3.440035507E-2,-9.131515503E0,-3.575559139E0
9.601278966E0,-1.546076387E-1,-9.088812828E0,-3.679666281E0
9.621546883E0,-3.282225728E-1,-9.059995651E0,-3.738868475E0
9.641814799E0,-5.219500065E-1,-9.053645134E0,-3.732221365E0
9.662082716E0,-6.964396834E-1,-9.080921173E0,-3.636237621E0
9.682350633E0,-7.977477312E-1,-9.148081779E0,-3.441885710E0
9.702618601E0,-8.079912663E-1,-9.229213715E0,-3.215455770E0
9.722886518E0,-8.071651459E-1,-9.291654587E0,-3.030515909E0
9.743154435E0,-8.114529252E-1,-9.329654694E0,-2.910235167E0
9.763422351E0,-8.084383011E-1,-9.346143723E0,-2.857692480E0
9.783690320E0,-8.548018932E-1,-9.351250648E0,-2.827332020E0
9.803958237E0,-8.932546973E-1,-9.351676941E0,-2.814004660E0
9.824226153E0,-8.517131805E-1,-9.353913307E0,-2.819446325E0
9.844494070E0,-7.277325988E-1,-9.376153946E0,-2.780020952E0
9.864761987E0,-5.376783013E-1,-9.434822083E0,-2.620193720E0
9.885029903E0,-3.424201012E-1,-9.533699036E0,-2.271944761E0
9.905297820E0,-2.167450935E-1,-9.642619133E0,-1.772935271E0
9.925565737E0,-1.670501530E-1,-9.718769073E0,-1.299234152E0
9.945833705E0,-1.910044551E-1,-9.721186638E0,-1.277669072E0
9.966101622E0,-3.528437912E-1,-9.656057358E0,-1.675244331E0
9.986369539E0,-5.885747075E-1,-9.591108322E0,-1.958212852E0
1.000663746E1,-7.674471736E-1,-9.575037003E0,-1.974863887E0
1.002690537E1,-8.375382423E-1,-9.605749130E0,-1.788436413E0
1.004717329E1,-8.904789090E-1,-9.652663231E0,-1.484427214E0
1.006744121E1,-1.009667873E0,-9.687419891E0,-1.142296076E0
1.008770912E1,-1.208765984E0,-9.697424889E0,-8.180592060E-1
1.010797699E1,-1.411622643E0,-9.687678337E0,-5.714927912E-1
1.012824496E1,-1.551293015E0,-9.672614098E0,-4.521308541E-1
1.014851287E1,-1.621090293E0,-9.661142349E0,-4.525160491E-1
1.016878079E1,-1.616813302E0,-9.659590721E0,-4.985980392E-1
1.018904871E1,-1.513067722E0,-9.676699638E0,-4.924254119E-1
1.020931662E1,-1.329097509E0,-9.709943771E0,-3.476721942E-1
1.022958454E1,-1.148464561E0,-9.739028931E0,-5.229951441E-2
1.024985246E1,-1.010945797E0,-9.749146461E0,3.201986849E-1
1.027012037E1,-9.105794430E-1,-9.739785194E0,6.912433505E-1
1.029038829E1,-8.859982491E-1,-9.715069771E0,1.001410842E0
1.031065620E1,-9.794186354E-1,-9.681346893E0,1.217643857E0
1.033092412E1,-1.156738043E0,-9.646567345E0,1.332693458E0
1.035119199E1,-1.319014072E0,-9.623231888E0,1.350556254E0
1.037145990E1,-1.418849111E0,-9.616658211E0,1.295046568E0
1.039172782E1,-1.473241806E0,-9.617196083E0,1.228611350E0
1.041199574E1,-1.468744278E0,-9.617079735E0,1.234880924E0
1.043239574E1,-1.393576145E0,-9.614656448E0,1.336675167E0
1.045253157E1,-1.313940048E0,-9.606514931E0,1.469293237E0
1.047279949E1,-1.309568882E0,-9.591439247E0,1.568346500E0
1.049306735E1,-1.370974422E0,-9.576610565E0,1.606032968E0
1.051333527E1,-1.435611129E0,-9.571476936E0,1.579945326E0
1.053373527E1,-1.462022662E0,-9.578976631E0,1.508672237E0
1.055387110E1,-1.450673699E0,-9.597262383E0,1.399464965E0
1.057413891E1,-1.425656319E0,-9.622927666E0,1.239817142E0
1.059440688E1,-1.394260168E0,-9.651315689E0,1.038527966E0
1.061467480E1,-1.340614438E0,-9.678775787E0,8.333283663E-1
1.063507480E1,-1.243676066E0,-9.706606865E0,6.367487907E-1
1.065521063E1,-1.106907368E0,-9.734798431E0,4.228928387E-1
1.067547850E1,-9.416794777E-1,-9.760208130E0,1.481474936E-1
1.069574641E1,-7.673224807E-1,-9.774586678E0,-1.976515204E-1
1.071601433E1,-6.307950020E-1,-9.762955666E0,-6.761611700E-1
1.073641433E1,-6.225938797E-1,-9.691985130E0,-1.359483004E0
1.075655011E1,-6.685857177E-1,-9.570210457E0,-2.033330917E0
1.077681803E1,-7.177091241E-1,-9.419620514E0,-2.631735086E0
1.079708595E1,-7.423067689E-1,-9.275432587E0,-3.096082449E0
1.081735381E1,-7.223450541E-1,-9.177924156E0,-3.378507853E0
1.083762173E1,-6.718663573E-1,-9.143836975E0,-3.479832411E0
1.085788964E1,-5.902912021E-1,-9.142912865E0,-3.497012138E0
1.087815751E1,-4.878397882E-1,-9.130611420E0,-3.544622898E0
1.089842542E1,-4.062800407E-1,-9.095906258E0,-3.642776966E0
1.091869334E1,-3.617293835E-1,-9.049571037E0,-3.760957241E0
1.093909334E1,-3.451567888E-1,-9.013594627E0,-3.847904921E0
1.095922912E1,-3.408364952E-1,-9.004561424E0,-3.869380713E0
1.097949704E1,-3.326745927E-1,-9.012992859E0,-3.850410938E0
1.099976490E1,-3.281341195E-1,-9.017718315E0,-3.839722157E0
1.102003282E1,-3.483086824E-1,-9.016066551E0,-3.841824293E0
1.104030074E1,-4.011667371E-1,-9.018660545E0,-3.830561638E0
1.106056860E1,-5.120770931E-1,-9.048640251E0,-3.745699406E0
1.108083652E1,-6.577803493E-1,-9.121300697E0,-3.541127205E0
1.110110438E1,-7.906308174E-1,-9.227438927E0,-3.224848270E0
1.112137230E1,-9.014530182E-1,-9.338898659E0,-2.853548288E0
1.114164022E1,-9.788953066E-1,-9.432162285E0,-2.499292374E0
1.116190808E1,-1.021903515E0,-9.501226425E0,-2.202910185E0
1.118217595E1,-1.040850043E0,-9.548303604E0,-1.979116678E0
1.120244386E1,-1.047782660E0,-9.573059082E0,-1.851780653E0
1.122271178E1,-1.015956402E0,-9.584418297E0,-1.810288072E0
1.124297964E1,-9.283857942E-1,-9.592238426E0,-1.815888166E0
1.126324756E1,-8.058181405E-1,-9.604243279E0,-1.810951352E0
1.128351542E1,-6.800469160E-1,-9.625524521E0,-1.748481631E0
1.130378334E1,-5.752775073E-1,-9.654846191E0,-1.619689703E0
1.132405120E1,-5.204674602E-1,-9.682755470E0,-1.464159012E0
1.134431912E1,-5.004005432E-1,-9.703572273E0,-1.326903939E0
1.136458699E1,-4.813317060E-1,-9.721364975E0,-1.197397709E0
1.138485490E1,-4.821397066E-1,-9.738304138E0,-1.050403237E0
1.140512277E1,-4.977825582E-1,-9.752122879E0,-9.048277140E-1
1.142539068E1,-5.241058469E-1,-9.761345863E0,-7.822028995E-1
1.144565855E1,-5.285511017E-1,-9.768371582E0,-6.855066419E-1
1.146592641E1,-4.980956018E-1,-9.760622978E0,-8.077831268E-1
1.148619433E1,-3.876144290E-1,-9.690907478E0,-1.451363325E0
1.150646220E1,-3.098102212E-1,-9.658328056E0,-1.670663714E0
1.152686220E1,-1.893288940E-1,-9.685371399E0,-1.525819540E0
1.154699798E1,-1.952789277E-1,-9.720448494E0,-1.282628655E0
1.156726584E1,-3.420994580E-1,-9.740022659E0,-1.088727474E0
1.158753376E1,-5.761451125E-1,-9.741214752E0,-9.732300043E-1
1.160780162E1,-8.617767692E-1,-9.727396011E0,-8.974916339E-1
1.162806949E1,-1.149540782E0,-9.703438759E0,-8.319953680E-1
1.164833730E1,-1.372234106E0,-9.673271179E0,-8.456801772E-1
1.166860527E1,-1.413830996E0,-9.644106865E0,-1.078277826E0
1.168887313E1,-1.275671005E0,-9.640979767E0,-1.262752652E0
1.170914100E1,-1.173499227E0,-9.667280197E0,-1.156274557E0
1.172940886E1,-1.087821245E0,-9.695677757E0,-9.903825521E-1
1.174967678E1,-9.896699786E-1,-9.714852333E0,-9.014398456E-1
1.176994464E1,-9.136402011E-1,-9.720358849E0,-9.220994711E-1
1.179021256E1,-9.130951166E-1,-9.709244728E0,-1.033059001E0
1.181048042E1,-9.781192541E-1,-9.682298660E0,-1.211096883E0
1.183074829E1,-1.053492785E0,-9.644577980E0,-1.429210544E0
1.185101615E1,-1.115378499E0,-9.603148460E0,-1.644947171E0
1.187128407E1,-1.161623120E0,-9.554665565E0,-1.878664851E0
1.189155194E1,-1.166695356E0,-9.489831924E0,-2.179976702E0
1.191181980E1,-1.111085892E0,-9.402115822E0,-2.556580782E0
1.193212694E1,-1.008587956E0,-9.273934364E0,-3.024449348E0
1.195235558E1,-8.894963264E-1,-9.085859299E0,-3.581388235E0
1.197262344E1,-7.474476695E-1,-8.875658035E0,-4.102974892E0
1.199289131E1,-5.848055482E-1,-8.696413994E0,-4.494527340E0
1.201315917E1,-3.711580336E-1,-8.603024483E0,-4.692610741E0
1.203355917E1,-1.036149636E-1,-8.635126114E0,-4.646962643E0
1.205369496E1,6.759165227E-2,-8.712360382E0,-4.501178265E0
1.207396282E1,1.566605270E-1,-8.796644211E0,-4.331847191E0
1.209423069E1,2.308602184E-1,-8.898649216E0,-4.114745617E0
1.211449855E1,2.646040618E-1,-9.030844688E0,-3.813688278E0
1.213489855E1,2.256007344E-1,-9.184695244E0,-3.429412603E0
1.215503428E1,1.616900116E-1,-9.316536903E0,-3.057184696E0
1.217530220E1,7.384107262E-2,-9.403893471E0,-2.780596972E0
1.219557006E1,-9.648019075E-2,-9.455668449E0,-2.598345280E0
1.221583792E1,-3.645596802E-1,-9.500515938E0,-2.403679609E0
1.223623792E1,-6.510863304E-1,-9.544716835E0,-2.155196905E0
1.225637365E1,-9.021199346E-1,-9.575340271E0,-1.915578485E0
1.227664152E1,-1.092543960E0,-9.593575478E0,-1.714653611E0
1.229690944E1,-1.179332972E0,-9.613802910E0,-1.534388661E0
1.231717725E1,-1.173450112E0,-9.641941071E0,-1.351436377E0
1.233757725E1,-1.135910630E0,-9.668909073E0,-1.179954052E0
1.235771303E1,-1.085964322E0,-9.688565254E0,-1.059616923E0
1.237798089E1,-1.025147676E0,-9.698645592E0,-1.027487993E0
1.239824876E1,-9.640775919E-1,-9.698709488E0,-1.084427118E0
1.241851662E1,-8.690140843E-1,-9.700802803E0,-1.144393682E0
1.243878449E1,-7.388544679E-1,-9.712939262E0,-1.132820964E0
1.245905235E1,-6.061959267E-1,-9.730822563E0,-1.055456996E0
1.247932022E1,-5.416169167E-1,-9.741529465E0,-9.897680283E-1
1.249958808E1,-5.629714727E-1,-9.729714394E0,-1.089083552E0
1.251985595E1,-4.890102446E-1,-9.713429451E0,-1.257194757E0
1.254012381E1,-3.837427795E-1,-9.721419334E0,-1.231720448E0
1.256039167E1,-4.110428095E-1,-9.733774185E0,-1.120302320E0
1.258065954E1,-5.694818497E-1,-9.738910675E0,-9.998396635E-1
1.260092740E1,-7.949455380E-1,-9.732877731E0,-8.997475505E-1
1.262119527E1,-9.944669008E-1,-9.710488319E0,-9.422562718E-1
1.264146313E1,-1.078089237E0,-9.689589500E0,-1.058282971E0
1.266173100E1,-1.081468821E0,-9.690916061E0,-1.042570233E0
1.268199886E1,-1.050652027E0,-9.713599205E0,-8.440982699E-1
1.270226673E1,-9.898822308E-1,-9.739434242E0,-5.778871775E-1
1.272253459E1,-9.082362652E-1,-9.755023956E0,-4.301314950E-1
1.274280246E1,-8.064879179E-1,-9.764261246E0,-4.232757986E-1
1.276307032E1,-7.488867044E-1,-9.766115189E0,-4.822439551E-1
1.278333819E1,-7.639613152E-1,-9.761492729E0,-5.477370620E-1
1.280360605E1,-8.098833561E-1,-9.752571106E0,-6.338921189E-1
1.282387391E1,-8.665515184E-1,-9.736499786E0,-7.874365449E-1
1.284414178E1,-9.280272126E-1,-9.708895683E0,-1.022985101E0
1.286440964E1,-9.865999818E-1,-9.669536591E0,-1.302711964E0
1.288467751E1,-1.031149268E0,-9.617950439E0,-1.613111734E0
1.290494537E1,-1.044240952E0,-9.545386314E0,-1.991367698E0
1.292521318E1,-1.010553956E0,-9.431321144E0,-2.489852190E0
1.294548105E1,-9.118514061E-1,-9.230828285E0,-3.182878494E0
1.296574891E1,-7.405390739E-1,-8.918150902E0,-4.011055946E0
1.298601678E1,-5.827175975E-1,-8.582810402E0,-4.708097458E0
1.300628464E1,-3.733373880E-1,-8.331079483E0,-5.159857273E0
1.302655251E1,-7.436592877E-2,-8.280900955E0,-5.252764702E0
1.304682037E1,2.155891806E-1,-8.405303001E0,-5.047256470E0
1.306708819E1,3.222914040E-1,-8.522499084E0,-4.840817451E0
1.308735605E1,3.277673125E-1,-8.602989197E0,-4.695905685E0
1.310762391E1,3.230263889E-1,-8.693476677E0,-4.526534081E0
1.312789178E1,3.061828315E-1,-8.834296227E0,-4.246392250E0
1.314815964E1,2.499183565E-1,-9.032790184E0,-3.810070515E0
1.316842751E1,1.377775371E-1,-9.244982719E0,-3.268289089E0
1.318869532E1,-1.147921849E-2,-9.407941818E0,-2.767828941E0
1.320896318E1,-1.731652021E-1,-9.499868393E0,-2.427530050E0
1.322923105E1,-3.641256094E-1,-9.545337677E0,-2.219079733E0
1.324949891E1,-5.778823495E-1,-9.574796677E0,-2.039537668E0
1.326976673E1,-7.315600514E-1,-9.599301338E0,-1.867782354E0
1.329003459E1,-7.674517632E-1,-9.627358437E0,-1.701586127E0
1.331030246E1,-7.162711024E-1,-9.660224915E0,-1.528851509E0
1.333070246E1,-6.355736256E-1,-9.696053505E0,-1.324007511E0
1.335083813E1,-5.868023634E-1,-9.727770805E0,-1.093854666E0
1.337110600E1,-5.859586000E-1,-9.750144005E0,-8.727695942E-1
1.339137376E1,-6.043683290E-1,-9.763369560E0,-6.940748692E-1
1.341164167E1,-5.895664096E-1,-9.772478104E0,-5.669938922E-1
1.343190954E1,-5.524860024E-1,-9.777474403E0,-5.158995986E-1
1.345217735E1,-5.204795599E-1,-9.778070450E0,-5.374203324E-1
1.347244522E1,-4.885193110E-1,-9.778149605E0,-5.652620792E-1
1.349271308E1,-5.017710328E-1,-9.776153564E0,-5.877327323E-1
1.351298089E1,-5.048545599E-1,-9.764672279E0,-7.527956367E-1
1.353338089E1,-4.822326601E-1,-9.754427910E0,-8.882526159E-1
1.355351657E1,-4.817864895E-1,-9.756670952E0,-8.635100126E-1
1.357378444E1,-5.440922976E-1,-9.762379646E0,-7.551655769E-1
1.359405230E1,-6.564105153E-1,-9.763864517E0,-6.375355124E-1
1.361432011E1,-7.618300915E-1,-9.762650490E0,-5.297780633E-1
1.363472011E1,-8.444522619E-1,-9.759194374E0,-4.641339183E-1
1.365485579E1,-8.952327967E-1,-9.753897667E0,-4.800068140E-1
1.367512365E1,-8.782880902E-1,-9.754433632E0,-5.000326037E-1
1.369539147E1,-8.033904433E-1,-9.765939713E0,-3.890593052E-1
1.371565933E1,-7.528145909E-1,-9.775459290E0,-2.099270970E-1
1.373605933E1,-6.939631104E-1,-9.781226158E0,-1.281554252E-1
1.375619501E1,-6.283811927E-1,-9.784425735E0,-2.013151646E-1
1.377654152E1,-6.064197421E-1,-9.781186104E0,-3.620012403E-1
1.379673074E1,-6.223007441E-1,-9.772277832E0,-5.345251560E-1
1.381699850E1,-6.556185484E-1,-9.758725166E0,-7.126215100E-1
1.383726636E1,-6.946880221E-1,-9.737716675E0,-9.298802614E-1
1.385753417E1,-7.247162461E-1,-9.705476761E0,-1.203704000E0
1.387780199E1,-7.439619899E-1,-9.661351204E0,-1.508379579E0
1.389806985E1,-7.478455305E-1,-9.608069420E0,-1.815524340E0
1.391833766E1,-7.218666673E-1,-9.537961960E0,-2.162538290E0
1.393872428E1,-6.434550881E-1,-9.415214539E0,-2.666474342E0
1.395887339E1,-4.967028201E-1,-9.192240715E0,-3.380295277E0
1.397914121E1,-3.500343263E-1,-8.904696465E0,-4.093196392E0
1.399940902E1,-1.999174803E-1,-8.647975922E0,-4.619841099E0
1.401967688E1,7.449367642E-2,-8.568523407E0,-4.769198418E0
1.403994470E1,4.878571033E-1,-8.662134171E0,-4.571632862E0
1.406021256E1,9.455402493E-1,-8.758275032E0,-4.309170723E0
1.408048037E1,1.310413241E0,-8.829567909E0,-4.061025143E0
1.410074818E1,1.457037210E0,-8.908679008E0,-3.831821918E0
1.412101605E1,1.399084330E0,-9.009303093E0,-3.611844063E0
1.414128386E1,1.229852319E0,-9.122641563E0,-3.381607056E0
1.416155167E1,9.856663942E-1,-9.232177734E0,-3.156857014E0
1.418181954E1,6.806368828E-1,-9.316096306E0,-2.986213207E0
1.420208735E1,3.323225975E-1,-9.384192467E0,-2.827878952E0
1.422235516E1,-3.148482740E-2,-9.457047462E0,-2.594928741E0
1.424262303E1,-3.732641339E-1,-9.528679848E0,-2.288082123E0
1.426289084E1,-6.638082862E-1,-9.585972786E0,-1.959300160E0
1.428315871E1,-8.918511271E-1,-9.620288849E0,-1.680782437E0
1.430342652E1,-1.041885257E0,-9.635386467E0,-1.498061180E0
1.432369433E1,-1.109596729E0,-9.642480850E0,-1.400619984E0
1.434396214E1,-1.123543262E0,-9.649506569E0,-1.339799643E0
1.436423001E1,-1.114342570E0,-9.660371780E0,-1.267212033E0
1.438449782E1,-1.083861113E0,-9.677315712E0,-1.159818411E0
1.440476563E1,-1.030521870E0,-9.693589211E0,-1.068998694E0
1.442503344E1,-9.669715762E-1,-9.703884125E0,-1.034394503E0
1.444530131E1,-8.972478509E-1,-9.709621429E0,-1.043351412E0
1.446556912E1,-8.466913700E-1,-9.715569496E0,-1.030150175E0
1.448583694E1,-8.132676482E-1,-9.725823402E0,-9.577731490E-1
1.450610475E1,-7.664744854E-1,-9.738099098E0,-8.673773408E-1
1.452637261E1,-7.302375436E-1,-9.747819901E0,-7.855849266E-1
1.454664042E1,-6.238439083E-1,-9.742073059E0,-9.344573617E-1
1.456690824E1,-4.692419767E-1,-9.727612495E0,-1.150548458E0
1.458717605E1,-4.064388573E-1,-9.729696274E0,-1.156806231E0
1.460744386E1,-4.348755777E-1,-9.741822243E0,-1.038351059E0
1.462771173E1,-5.615873337E-1,-9.752385139E0,-8.637058735E-1
1.464797954E1,-7.133896351E-1,-9.751392365E0,-7.561797500E-1
1.466824735E1,-8.109686971E-1,-9.736559868E0,-8.438659906E-1
1.468851516E1,-8.438860178E-1,-9.729392052E0,-8.928476572E-1
1.470878298E1,-8.722429872E-1,-9.740762711E0,-7.260224223E-1
1.472905079E1,-9.003822803E-1,-9.752980232E0,-4.889582992E-1
1.474931865E1,-8.802670836E-1,-9.762153625E0,-3.096315563E-1
1.476958647E1,-8.032667637E-1,-9.770235062E0,-2.601001561E-1
1.478985428E1,-7.156262398E-1,-9.775298119E0,-3.190707564E-1
1.481012209E1,-6.607366204E-1,-9.774600029E0,-4.370549321E-1
1.483038985E1,-6.451378465E-1,-9.769729614E0,-5.536888242E-1
1.485065772E1,-6.553572416E-1,-9.761926651E0,-6.675888896E-1
1.487092553E1,-7.008508444E-1,-9.748856544E0,-7.993784547E-1
1.489119339E1,-7.795803547E-1,-9.728843689E0,-9.551129937E-1
1.491146120E1,-8.669738770E-1,-9.702408791E0,-1.132261515E0
1.493172902E1,-9.261148572E-1,-9.672304153E0,-1.326357126E0
1.495199683E1,-9.181305170E-1,-9.640246391E0,-1.546957016E0
1.497226464E1,-8.030135632E-1,-9.597536087E0,-1.847389698E0
1.499253246E1,-5.917363167E-1,-9.524659157E0,-2.258563280E0
1.501280027E1,-3.592600524E-1,-9.400288582E0,-2.770541191E0
1.503320027E1,-1.761398613E-1,-9.222042084E0,-3.330659628E0
1.505333589E1,-6.421364099E-2,-9.029294014E0,-3.825976133E0
1.507360371E1,2.403818257E-2,-8.845617294E0,-4.233777046E0
1.509387152E1,1.503756195E-1,-8.716874123E0,-4.490418911E0
1.511413933E1,2.683971226E-1,-8.693152428E0,-4.530721664E0
1.513453933E1,3.190275133E-1,-8.746162415E0,-4.424167156E0
1.515467496E1,3.556884527E-1,-8.823342323E0,-4.265266418E0
1.517494277E1,3.856655955E-1,-8.914754868E0,-4.068020344E0
1.519521058E1,3.736611605E-1,-9.024991989E0,-3.818413496E0
1.521547839E1,2.705379128E-1,-9.156963348E0,-3.499603987E0
1.523587839E1,4.843975231E-2,-9.289992332E0,-3.140716553E0
1.525601402E1,-2.313050777E-1,-9.388078690E0,-2.825041771E0
1.527628183E1,-4.981395602E-1,-9.443253517E0,-2.597537518E0
1.529654964E1,-7.161610723E-1,-9.470634460E0,-2.442253351E0
1.531681746E1,-8.697996736E-1,-9.491495132E0,-2.307670593E0
1.533721746E1,-9.762452841E-1,-9.517210007E0,-2.154078484E0
1.535735308E1,-1.054916263E0,-9.544837952E0,-1.988368750E0
1.537762084E1,-1.091702700E0,-9.575344086E0,-1.814212561E0
1.539788865E1,-1.087547183E0,-9.605810165E0,-1.648036242E0
1.541815647E1,-1.058818102E0,-9.633136749E0,-1.500656247E0
1.543842428E1,-1.017223954E0,-9.657336235E0,-1.368028045E0
1.545869209E1,-9.559385180E-1,-9.681087494E0,-1.238185644E0
1.547895990E1,-8.778132200E-1,-9.704048157E0,-1.109630585E0
1.549922772E1,-8.049110770E-1,-9.721850395E0,-1.004055977E0
1.551949553E1,-7.648630738E-1,-9.728188515E0,-9.735038877E-1
1.553976329E1,-7.543008327E-1,-9.726945877E0,-9.939562678E-1
1.556003110E1,-7.228799462E-1,-9.730583191E0,-9.816246033E-1
1.558029891E1,-6.566799879E-1,-9.740716934E0,-9.260640144E-1
1.560056673E1,-6.243500710E-1,-9.747367859E0,-8.771551251E-1
1.562083454E1,-6.059378386E-1,-9.737988472E0,-9.873197675E-1
1.564110235E1,-5.850424767E-1,-9.731102943E0,-1.064779997E0
1.566137011E1,-6.102397442E-1,-9.730660439E0,-1.054632306E0
1.568163792E1,-7.080153227E-1,-9.732133865E0,-9.770646691E-1
1.570190574E1,-8.346458673E-1,-9.735293388E0,-8.353583813E-1
1.572217355E1,-9.235782027E-1,-9.735948563E0,-7.270998359E-1
1.574244136E1,-9.624548554E-1,-9.728487015E0,-7.749908566E-1
1.576270912E1,-9.726232290E-1,-9.725026131E0,-8.051347136E-1
1.578297694E1,-9.813748598E-1,-9.735486031E0,-6.539102197E-1
1.580324475E1,-1.001059175E0,-9.747801781E0,-3.855500817E-1
1.582351251E1,-9.860609174E-1,-9.756020546E0,-1.346752495E-1
1.584378032E1,-9.271120429E-1,-9.762697220E0,-2.433767356E-2
1.586404813E1,-8.649502397E-1,-9.767892838E0,-1.025326550E-1
1.588431594E1,-8.074921966E-1,-9.768836975E0,-2.969549894E-1
1.590458370E1,-7.816183567E-1,-9.764064789E0,-4.716848433E-1
1.592485152E1,-7.989499569E-1,-9.756837845E0,-5.797947049E-1
1.594511933E1,-8.470267057E-1,-9.748871803E0,-6.422185898E-1
1.596538709E1,-9.224954844E-1,-9.736620903E0,-7.194536328E-1
1.598565490E1,-1.015030265E0,-9.714632988E0,-8.752185702E-1
1.600592266E1,-1.073054194E0,-9.682713509E0,-1.124280334E0
1.602619048E1,-1.080960155E0,-9.639267921E0,-1.444448113E0
1.604645824E1,-1.070556283E0,-9.574847221E0,-1.829374075E0
1.606672605E1,-1.053194046E0,-9.471672058E0,-2.312705755E0
1.608699381E1,-1.010023594E0,-9.300909996E0,-2.939952850E0
1.610726167E1,-9.168115854E-1,-9.074790955E0,-3.602500200E0
1.612752944E1,-7.722646594E-1,-8.825696945E0,-4.204885960E0
1.614779725E1,-6.135278940E-1,-8.612895012E0,-4.648871422E0
1.616806501E1,-4.498903751E-1,-8.533256531E0,-4.811601639E0
1.618833282E1,-3.734234869E-1,-8.549664497E0,-4.788963795E0
1.620860058E1,-3.419932425E-1,-8.585404396E0,-4.726972580E0
1.622886839E1,-2.650641203E-1,-8.641440392E0,-4.628782272E0
1.624913621E1,-1.664395183E-1,-8.726765633E0,-4.470598698E0
1.626940397E1,-1.015151069E-1,-8.848492622E0,-4.226614475E0
1.628967178E1,-9.729572386E-2,-9.007442474E0,-3.876455784E0
1.630993954E1,-1.814535856E-1,-9.177676201E0,-3.450758457E0
1.633020735E1,-3.279429376E-1,-9.315246582E0,-3.047789335E0
1.635047511E1,-5.048713684E-1,-9.402535439E0,-2.740041256E0
1.637074292E1,-7.002724409E-1,-9.458765030E0,-2.492340803E0
1.639101074E1,-8.912526369E-1,-9.511525154E0,-2.215165377E0
1.641127850E1,-1.049114466E0,-9.562738419E0,-1.903623104E0
1.643154631E1,-1.156845570E0,-9.603038788E0,-1.616704226E0
1.645181407E1,-1.213663101E0,-9.633273125E0,-1.377480626E0
1.647208183E1,-1.225290537E0,-9.656663895E0,-1.190756798E0
1.649234964E1,-1.223467112E0,-9.671943665E0,-1.061618090E0
1.651261740E1,-1.216498733E0,-9.680691719E0,-9.872870445E-1
1.653301740E1,-1.195246339E0,-9.684502602E0,-9.757982492E-1
1.655315298E1,-1.156302214E0,-9.683266640E0,-1.033295155E0
1.657342079E1,-1.096820712E0,-9.683794022E0,-1.091569424E0
1.659368855E1,-1.013578296E0,-9.693604469E0,-1.084931970E0
1.661395636E1,-9.233223200E-1,-9.707235336E0,-1.042813182E0
1.663435636E1,-8.578410149E-1,-9.706329346E0,-1.105282784E0
1.665449194E1,-8.532230854E-1,-9.668984413E0,-1.397547007E0
1.667475970E1,-7.943572402E-1,-9.649612427E0,-1.557040453E0
1.669502751E1,-7.694767714E-1,-9.661745071E0,-1.492973566E0
1.671529527E1,-8.857530355E-1,-9.675866127E0,-1.327945828E0
1.673569527E1,-1.110310197E0,-9.674367905E0,-1.159388542E0
1.675583084E1,-1.303928256E0,-9.654891968E0,-1.119467974E0
1.677609860E1,-1.368831754E0,-9.629054070E0,-1.256183863E0
1.679636641E1,-1.417609453E0,-9.623739243E0,-1.242748737E0
1.681663417E1,-1.527174473E0,-9.629941940E0,-1.049930811E0
1.683690194E1,-1.615063310E0,-9.638524055E0,-8.129111528E-1
1.685716975E1,-1.633254290E0,-9.649003983E0,-6.321290731E-1
1.687743751E1,-1.621791124E0,-9.655138969E0,-5.643242598E-1
1.689770532E1,-1.648142457E0,-9.649739265E0,-5.801216364E-1
1.691797308E1,-1.718840718E0,-9.634409904E0,-6.277931929E-1
1.693824089E1,-1.827548981E0,-9.611430168E0,-6.714608073E-1
1.695850865E1,-1.973453403E0,-9.581152916E0,-6.909249425E-1
1.697877641E1,-2.131889582E0,-9.548686028E0,-6.693491340E-1
1.699904423E1,-2.274506330E0,-9.519120216E0,-6.191482544E-1
1.701931199E1,-2.398058176E0,-9.491585732E0,-5.740147233E-1
1.703957980E1,-2.494265318E0,-9.467521667E0,-5.613082051E-1
1.705984756E1,-2.554943800E0,-9.447948456E0,-6.155602336E-1
1.708011532E1,-2.576919794E0,-9.431414604E0,-7.604590654E-1
1.710038313E1,-2.580411196E0,-9.406660080E0,-1.013217807E0
1.712065089E1,-2.546935081E0,-9.366914749E0,-1.394421458E0
1.714091865E1,-2.375529766E0,-9.338632584E0,-1.821317315E0
1.716118647E1,-2.041674137E0,-9.321084976E0,-2.262593508E0
1.718145423E1,-1.537850261E0,-9.296942711E0,-2.715187311E0
1.720172199E1,-8.752772808E-1,-9.292160988E0,-3.009986877E0
1.722198980E1,-2.152634263E-1,-9.328570366E0,-3.016920567E0
1.724225756E1,1.963850409E-1,-9.405200005E0,-2.770204544E0
1.726252532E1,3.550568521E-1,-9.489261627E0,-2.449129820E0
1.728279308E1,4.325062335E-1,-9.544172287E0,-2.211809635E0
1.730306089E1,4.404156208E-1,-9.582316399E0,-2.038535357E0
1.732332865E1,3.644783199E-1,-9.617053986E0,-1.884093285E0
1.734359647E1,2.658993900E-1,-9.628949165E0,-1.839300036E0
1.736386423E1,2.158618867E-1,-9.603455544E0,-1.974192142E0
1.738413199E1,1.545881927E-1,-9.560001373E0,-2.180103302E0
1.740439975E1,-5.741288140E-2,-9.526407242E0,-2.326943874E0
1.742466756E1,-3.769768178E-1,-9.524799347E0,-2.303580284E0
1.744493532E1,-6.876910329E-1,-9.540036201E0,-2.164525032E0
1.746520308E1,-9.372922778E-1,-9.545333862E0,-2.044131279E0
1.748547089E1,-1.096587420E0,-9.515124321E0,-2.104828596E0
1.750573865E1,-1.145209193E0,-9.446177483E0,-2.372469902E0
1.752600641E1,-1.158135176E0,-9.354598999E0,-2.705660105E0
1.754627412E1,-1.230045676E0,-9.259713173E0,-2.985813618E0
1.756654194E1,-1.315901279E0,-9.182101250E0,-3.182419538E0
1.758680975E1,-1.254134417E0,-9.174902916E0,-3.227797270E0
1.760707751E1,-1.053934574E0,-9.235815048E0,-3.123992205E0
1.762734527E1,-8.981912136E-1,-9.328622818E0,-2.887980461E0
1.764761303E1,-9.271304607E-1,-9.395382881E0,-2.652846813E0
1.766788079E1,-1.036899090E0,-9.419907570E0,-2.522019625E0
1.768814860E1,-9.554566145E-1,-9.457003593E0,-2.413002253E0
1.770841636E1,-8.112748861E-1,-9.529365540E0,-2.168735504E0
1.772868412E1,-7.654967904E-1,-9.601199150E0,-1.844283342E0
1.774895188E1,-8.698499799E-1,-9.646240234E0,-1.537466049E0
1.776921964E1,-1.070356250E0,-9.660412788E0,-1.304276705E0
1.778948740E1,-1.275544286E0,-9.657941818E0,-1.125841379E0
1.780975522E1,-1.455182433E0,-9.648536682E0,-9.790610075E-1
1.783015522E1,-1.567882299E0,-9.642439842E0,-8.576087356E-1
1.785029074E1,-1.591400385E0,-9.646852493E0,-7.589957714E-1
1.787055850E1,-1.529647708E0,-9.663711548E0,-6.657715440E-1
1.789082631E1,-1.419351339E0,-9.688230515E0,-5.422392488E-1
1.791109407E1,-1.357902408E0,-9.707033157E0,-3.162140846E-1
1.793136183E1,-1.414753079E0,-9.703040123E0,1.409938633E-1
1.795162959E1,-1.506164789E0,-9.668476105E0,6.499386430E-1
1.797189735E1,-1.562328219E0,-9.625713348E0,1.036896348E0
1.799216511E1,-1.629356265E0,-9.591170311E0,1.234928012E0
1.801243287E1,-1.766157508E0,-9.558714867E0,1.296943069E0
1.803283287E1,-1.944117785E0,-9.523366928E0,1.302417636E0
1.805296844E1,-2.114699125E0,-9.488217354E0,1.293124199E0
1.807323620E1,-2.243446350E0,-9.461055756E0,1.275059462E0
1.809350397E1,-2.302053690E0,-9.446992874E0,1.274854302E0
1.811377173E1,-2.293916941E0,-9.439423561E0,1.343734264E0
1.813417173E1,-2.254541874E0,-9.427009583E0,1.489602447E0
1.815430725E1,-2.216328621E0,-9.408395767E0,1.655400395E0
1.817457506E1,-2.217145205E0,-9.391800880E0,1.746057034E0
1.819484282E1,-2.274701595E0,-9.378450394E0,1.743783712E0
1.821511058E1,-2.345142126E0,-9.371819496E0,1.685139894E0
1.823551058E1,-2.386179686E0,-9.373999596E0,1.613898396E0
1.825564610E1,-2.380425215E0,-9.387928009E0,1.539725423E0
1.827591386E1,-2.355019331E0,-9.412951469E0,1.421482801E0
1.829618162E1,-2.318052769E0,-9.450016975E0,1.222374678E0
1.831644938E1,-2.250819206E0,-9.498020172E0,9.443582892E-1
1.833684938E1,-2.112403393E0,-9.556657791E0,6.151734591E-1
1.835698496E1,-1.930570602E0,-9.611573219E0,2.468661964E-1
1.837725272E1,-1.748595119E0,-9.646968842E0,-2.209252715E-1
1.839752048E1,-1.592216372E0,-9.644289017E0,-7.892608047E-1
1.841778824E1,-1.443541646E0,-9.603370667E0,-1.364497900E0
1.843805605E1,-1.261736751E0,-9.548588753E0,-1.844681501E0
1.845832381E1,-1.038295627E0,-9.502820969E0,-2.188310623E0
1.847859157E1,-7.841588855E-1,-9.470600128E0,-2.421406746E0
1.849885928E1,-5.502683520E-1,-9.449185371E0,-2.565248013E0
1.851912709E1,-4.319894016E-1,-9.436525345E0,-2.633582830E0
1.853939485E1,-5.266066194E-1,-9.437747955E0,-2.611893177E0
1.855966261E1,-7.436459661E-1,-9.458786011E0,-2.479665279E0
1.857993042E1,-6.319581270E-1,-9.450798035E0,-2.540358067E0
1.860019818E1,-1.020533070E-1,-9.373410225E0,-2.880825043E0
1.862046594E1,3.029161990E-1,-9.265312195E0,-3.198846340E0
1.864073371E1,3.721408844E-1,-9.208168030E0,-3.352839708E0
1.866100147E1,3.171069920E-1,-9.198225975E0,-3.385626554E0
1.868126923E1,2.426494658E-1,-9.221369743E0,-3.328341007E0
1.870153699E1,1.684037000E-1,-9.262126923E0,-3.217921972E0
1.872180475E1,8.665223420E-2,-9.308039665E0,-3.085979700E0
1.874207251E1,1.625597943E-3,-9.350108147E0,-2.957342863E0
1.876247251E1,-9.101147205E-2,-9.381711006E0,-2.854052544E0
1.878260803E1,-2.176647186E-1,-9.401681900E0,-2.780536413E0
1.880287584E1,-3.926209211E-1,-9.414087296E0,-2.718673706E0
1.882314360E1,-5.568738580E-1,-9.419664383E0,-2.670245647E0
1.884341136E1,-6.311901808E-1,-9.418892860E0,-2.656399250E0
1.886367912E1,-5.306988955E-1,-9.428334236E0,-2.644856215E0
1.888394688E1,-2.580263019E-1,-9.464785576E0,-2.553750992E0
1.890421464E1,9.764192998E-2,-9.524897575E0,-2.331773996E0
1.892448240E1,3.322183788E-1,-9.616669655E0,-1.892003059E0
1.894475016E1,3.270768821E-1,-9.698678970E0,-1.413872004E0
1.896501792E1,1.688590050E-1,-9.744310379E0,-1.091000795E0
1.898528574E1,1.422887947E-2,-9.721280098E0,-1.291085362E0
1.900555350E1,-1.438619047E-1,-9.660338402E0,-1.681528568E0
1.902582126E1,-2.508419156E-1,-9.635190964E0,-1.808466554E0
1.904608902E1,-3.285658062E-1,-9.650993347E0,-1.709022880E0
1.906635678E1,-4.415942132E-1,-9.685018539E0,-1.475060940E0
1.908662454E1,-5.939489007E-1,-9.717568398E0,-1.177485228E0
1.910689230E1,-7.698486447E-1,-9.735610008E0,-8.919728398E-1
1.912716006E1,-9.242671728E-1,-9.736946106E0,-7.127336264E-1
1.914742782E1,-1.019253135E0,-9.729399681E0,-6.857780814E-1
1.916769563E1,-1.061373115E0,-9.718671799E0,-7.689577937E-1
1.918796339E1,-1.059876323E0,-9.709658623E0,-8.772575855E-1
1.920823115E1,-1.036998630E0,-9.714181900E0,-8.542231321E-1
1.922849891E1,-1.003597140E0,-9.736084938E0,-6.097764969E-1
1.924876667E1,-9.448630214E-1,-9.756706238E0,-2.903420329E-1
1.926903444E1,-8.959535360E-1,-9.765607834E0,-2.365695871E-2
1.928943444E1,-9.005932212E-1,-9.764616966E0,1.075637266E-1
1.930957001E1,-9.403874278E-1,-9.760760307E0,1.166746616E-1
1.932983777E1,-9.852016568E-1,-9.756725311E0,7.786364108E-2
1.935010553E1,-1.031557322E0,-9.752059937E0,6.023477763E-2
1.937037329E1,-1.076400399E0,-9.746994019E0,8.862625062E-2
1.939064105E1,-1.108446121E0,-9.742790222E0,1.406662613E-1
1.941090881E1,-1.120055079E0,-9.740736008E0,1.841936260E-1
1.943117657E1,-1.105149269E0,-9.741664886E0,2.213463038E-1
1.945144433E1,-1.064296842E0,-9.744805336E0,2.764573395E-1
1.947171209E1,-1.008453727E0,-9.747761726E0,3.668112159E-1
1.949197990E1,-9.466745853E-1,-9.749087334E0,4.790512621E-1
1.951224766E1,-8.891016245E-1,-9.750464439E0,5.552783608E-1
1.953264766E1,-8.542390466E-1,-9.754943848E0,5.307862759E-1
1.955278319E1,-8.406615853E-1,-9.761548996E0,4.193189442E-1
1.957305095E1,-8.455993533E-1,-9.765932083E0,2.861784399E-1
1.959331870E1,-8.642401099E-1,-9.766798019E0,1.820308566E-1
1.961358647E1,-8.889037967E-1,-9.765694618E0,1.069367900E-1
1.963398647E1,-9.117687345E-1,-9.764161110E0,1.519622281E-2
1.965412199E1,-9.242300987E-1,-9.761845589E0,-1.501650959E-1
1.967438980E1,-9.228585362E-1,-9.754540443E0,-4.094554484E-1
1.969465756E1,-9.121519923E-1,-9.736546516E0,-7.335028648E-1
1.971492532E1,-9.217196703E-1,-9.704225540E0,-1.071837664E0
1.973532532E1,-9.590600133E-1,-9.659046173E0,-1.397642016E0
1.975546084E1,-1.014726877E0,-9.604682922E0,-1.700228095E0
1.977572860E1,-1.075383544E0,-9.542943001E0,-1.986500859E0
1.979599636E1,-1.122676015E0,-9.479976654E0,-2.245001554E0
1.981626412E1,-1.146383286E0,-9.422789574E0,-2.463172436E0
1.983653188E1,-1.137292743E0,-9.367767334E0,-2.668689251E0
1.985679964E1,-1.085839391E0,-9.297837257E0,-2.922593832E0
1.987706746E1,-9.688224196E-1,-9.187248230E0,-3.290322781E0
1.989733522E1,-8.034539223E-1,-9.031848907E0,-3.735044003E0
1.991760298E1,-6.340893507E-1,-8.873139381E0,-4.127433777E0
1.993800298E1,-4.326360822E-1,-8.788150787E0,-4.330313683E0
1.995813850E1,-7.831601799E-2,-8.793136597E0,-4.341083050E0
1.997840626E1,2.918703556E-1,-8.855979919E0,-4.202002048E0
1.999867402E1,6.242905855E-1,-8.937327385E0,-3.988083363E0
2.001894178E1,8.366439342E-1,-9.020547867E0,-3.755013227E0
2.003920954E1,8.887137175E-1,-9.103735924E0,-3.535897255E0
2.005947730E1,8.459767699E-1,-9.170993805E0,-3.368619442E0
2.007974511E1,7.417054772E-1,-9.215873718E0,-3.269240379E0
2.010001282E1,5.506222248E-1,-9.249538422E0,-3.211424351E0
2.012028063E1,2.677071393E-1,-9.293980598E0,-3.117794275E0
2.014054839E1,-6.591796130E-2,-9.361306190E0,-2.920956612E0
2.016081615E1,-3.872595429E-1,-9.441507339E0,-2.622660637E0
2.018108391E1,-6.470866203E-1,-9.517277718E0,-2.274443150E0
2.020135167E1,-8.364672065E-1,-9.574668884E0,-1.948440790E0
2.022161944E1,-9.747059941E-1,-9.608064651E0,-1.704532504E0
2.024188720E1,-1.082651496E0,-9.624405861E0,-1.539175868E0
2.026215496E1,-1.164323092E0,-9.636504173E0,-1.397331953E0
2.028242272E1,-1.225743651E0,-9.644334793E0,-1.286364079E0
2.030269048E1,-1.289329648E0,-9.646755219E0,-1.203388214E0
2.032295824E1,-1.335579872E0,-9.650053978E0,-1.123867750E0
2.034322600E1,-1.321987391E0,-9.655785561E0,-1.090210557E0
2.036349376E1,-1.236986279E0,-9.662963867E0,-1.125789881E0
2.038376152E1,-1.104501247E0,-9.678235054E0,-1.132361531E0
2.040402928E1,-9.684280753E-1,-9.702626228E0,-1.044790149E0
2.042429704E1,-8.413681388E-1,-9.729038239E0,-8.990527391E-1
2.044456480E1,-7.694460154E-1,-9.739453316E0,-8.493434191E-1
2.046483256E1,-7.608028650E-1,-9.720532417E0,-1.050155759E0
2.048510032E1,-7.128928304E-1,-9.690800667E0,-1.323088765E0
2.050536808E1,-6.142174006E-1,-9.692088127E0,-1.362559080E0
2.052563584E1,-5.743573904E-1,-9.717101097E0,-1.190983772E0
2.054590360E1,-6.603569984E-1,-9.739330292E0,-9.379463196E-1
2.056617136E1,-8.714950681E-1,-9.744597435E0,-6.735719442E-1
2.058643912E1,-1.125466943E0,-9.733006477E0,-4.150868058E-1
2.060670688E1,-1.299821258E0,-9.716575623E0,-2.626651525E-1
2.062697464E1,-1.362713575E0,-9.701939583E0,-4.310129881E-1
2.064724240E1,-1.350346804E0,-9.694280624E0,-6.065284610E-1
2.066751016E1,-1.282955885E0,-9.708751678E0,-5.143573284E-1
2.068777792E1,-1.218911767E0,-9.727125168E0,-2.601239979E-1
2.070804563E1,-1.154913664E0,-9.738030434E0,-8.557773381E-2
2.072831339E1,-1.055358768E0,-9.749481201E0,-6.497856230E-2
2.074858115E1,-9.437645078E-1,-9.759862900E0,-1.573291123E-1
2.076884891E1,-8.663560152E-1,-9.763805389E0,-2.965007424E-1
2.078911667E1,-8.266428113E-1,-9.760263443E0,-4.736044109E-1
2.080938444E1,-8.024291992E-1,-9.745469093E0,-7.431914210E-1
2.082965220E1,-8.071135283E-1,-9.709501266E0,-1.115590096E0
2.084991996E1,-8.710795045E-1,-9.648817062E0,-1.520505309E0
2.087018772E1,-9.792962670E-1,-9.573053360E0,-1.888917685E0
2.089045548E1,-1.089750648E0,-9.491124153E0,-2.213905334E0
2.091072324E1,-1.185317874E0,-9.387469292E0,-2.576980352E0
2.093099100E1,-1.217518568E0,-9.228766441E0,-3.085111380E0
2.095125876E1,-1.093085170E0,-8.999722481E0,-3.739058971E0
2.097152647E1,-8.868653774E-1,-8.773249626E0,-4.291147709E0
2.099179423E1,-6.525335908E-1,-8.611359596E0,-4.646404266E0
2.101206199E1,-3.406959176E-1,-8.563735008E0,-4.766208649E0
2.103246199E1,1.316157822E-2,-8.661138535E0,-4.599442959E0
2.105259751E1,3.375340402E-1,-8.807674408E0,-4.298992157E0
2.107286527E1,6.322571635E-1,-8.925271034E0,-4.013749599E0
2.109313303E1,8.231522441E-1,-9.020503998E0,-3.758098602E0
2.111340079E1,8.317802548E-1,-9.112197876E0,-3.527942896E0
2.113380079E1,6.759733558E-1,-9.198945999E0,-3.330592155E0
2.115393631E1,4.283857644E-1,-9.267861366E0,-3.177044153E0
2.117420397E1,9.510061145E-2,-9.323115349E0,-3.039878607E0
2.119447178E1,-3.174975812E-1,-9.384432793E0,-2.828783751E0
2.121473954E1,-6.618852615E-1,-9.442900658E0,-2.562014818E0
2.123513954E1,-8.979584575E-1,-9.495463371E0,-2.280397892E0
2.125527506E1,-1.029376268E0,-9.543797493E0,-2.006663799E0
2.127554282E1,-1.088955045E0,-9.585860252E0,-1.759500980E0
2.129581058E1,-1.128259063E0,-9.612462997E0,-1.580495238E0
2.131607834E1,-1.148653865E0,-9.625608444E0,-1.482775807E0
2.133647834E1,-1.126524806E0,-9.635675430E0,-1.433553219E0
2.135661381E1,-1.073054433E0,-9.647431374E0,-1.394992828E0
2.137688157E1,-9.968073368E-1,-9.666661263E0,-1.316218853E0
2.139714933E1,-8.997072577E-1,-9.698427200E0,-1.140797138E0
2.141741709E1,-7.843442559E-1,-9.734042168E0,-8.964458704E-1
2.143768485E1,-6.527209282E-1,-9.762244225E0,-6.655287743E-1
2.145795261E1,-5.199638009E-1,-9.777765274E0,-5.434348583E-1
2.147822032E1,-4.251452982E-1,-9.777159691E0,-6.299138665E-1
2.149848808E1,-4.136796594E-1,-9.752872467E0,-9.384724498E-1
2.151875584E1,-4.196170866E-1,-9.737462997E0,-1.084488869E0
2.153915584E1,-4.427744150E-1,-9.739322662E0,-1.058265209E0
2.155929136E1,-5.527977347E-1,-9.749456406E0,-9.015977383E-1
2.157955912E1,-7.499420643E-1,-9.754256248E0,-6.800517440E-1
2.159982683E1,-9.779897332E-1,-9.748859406E0,-4.167200625E-1
2.162009459E1,-1.165931702E0,-9.735839844E0,-1.562133133E-1
2.164036235E1,-1.257831454E0,-9.724974632E0,-1.145921126E-1
2.166063011E1,-1.295904398E0,-9.716529846E0,-2.829477787E-1
2.168089787E1,-1.276752114E0,-9.715963364E0,-3.746287525E-1
2.170116563E1,-1.226574898E0,-9.725617409E0,-2.797673345E-1
2.172143334E1,-1.149720073E0,-9.737339973E0,-1.809080094E-1
2.174170110E1,-1.071381688E0,-9.746257782E0,-1.816151291E-1
2.176196886E1,-1.012795806E0,-9.750422478E0,-2.718131542E-1
2.178223662E1,-9.835078716E-1,-9.747987747E0,-4.240619242E-1
2.180250438E1,-9.900786281E-1,-9.734845161E0,-6.503217220E-1
2.182277214E1,-1.015318751E0,-9.710648537E0,-9.180496335E-1
2.184303990E1,-1.025842309E0,-9.681737900E0,-1.175588608E0
2.186330761E1,-1.005938053E0,-9.650522232E0,-1.423338294E0
2.188357537E1,-9.611616731E-1,-9.611772537E0,-1.691272378E0
2.190384313E1,-8.892681003E-1,-9.551469803E0,-2.036915779E0
2.192411089E1,-7.896187305E-1,-9.444068909E0,-2.521198273E0
2.194437865E1,-6.584338546E-1,-9.264659882E0,-3.146891117E0
2.196464641E1,-5.115906596E-1,-9.046145439E0,-3.751787901E0
2.198491417E1,-3.333240747E-1,-8.868732452E0,-4.171915054E0
2.200518194E1,-6.968937814E-2,-8.784878731E0,-4.357916355E0
2.202544964E1,2.276926935E-1,-8.819603920E0,-4.281721115E0
2.204571740E1,4.685772061E-1,-8.901040077E0,-4.089291573E0
2.206598516E1,6.506571770E-1,-8.966892242E0,-3.916870832E0
2.208625292E1,7.807911634E-1,-9.022313118E0,-3.762791157E0
2.210652069E1,8.065901399E-1,-9.094674110E0,-3.578646660E0
2.212678845E1,6.930904388E-1,-9.191265106E0,-3.348230600E0
2.214705621E1,4.758964181E-1,-9.289484024E0,-3.106350183E0
2.216732391E1,2.016460150E-1,-9.361919403E0,-2.912764311E0
2.218759157E1,-9.917009622E-2,-9.406387329E0,-2.771362543E0
2.220785944E1,-4.367194772E-1,-9.446642876E0,-2.596266747E0
2.222812720E1,-7.859209776E-1,-9.483413696E0,-2.370144129E0
2.224839496E1,-1.075348377E0,-9.511673927E0,-2.131216526E0
2.226866272E1,-1.247740626E0,-9.534890175E0,-1.923381090E0
2.228893048E1,-1.309929013E0,-9.553680420E0,-1.783720016E0
2.230919818E1,-1.287966013E0,-9.575309753E0,-1.680768371E0
2.232959819E1,-1.206891418E0,-9.606863976E0,-1.556264997E0
2.234973371E1,-1.091067433E0,-9.644345284E0,-1.402341366E0
2.237000147E1,-9.527894258E-1,-9.683392525E0,-1.222496390E0
2.239026923E1,-8.181189299E-1,-9.715969086E0,-1.049286842E0
2.241066923E1,-7.191225886E-1,-9.736165047E0,-9.275401831E-1
2.243080475E1,-6.615751982E-1,-9.744585037E0,-8.807874322E-1
2.245107246E1,-6.271926761E-1,-9.744555473E0,-9.059063792E-1
2.247134022E1,-5.975816846E-1,-9.736542702E0,-1.006495476E0
2.249160798E1,-5.551676154E-1,-9.710946083E0,-1.248880625E0
2.251187574E1,-5.054950714E-1,-9.685554504E0,-1.450830460E0
2.253222214E1,-3.801091611E-1,-9.700571060E0,-1.387378454E0
2.255241131E1,-3.259709775E-1,-9.733642578E0,-1.149057508E0
2.257267897E1,-4.205518067E-1,-9.756443977E0,-8.973977566E-1
2.259294678E1,-6.387359500E-1,-9.761687279E0,-6.869184375E-1
2.261321449E1,-8.657019734E-1,-9.755684853E0,-4.975652993E-1
2.263361449E1,-9.547573924E-1,-9.745245934E0,-5.375887752E-1
2.265375001E1,-9.260729551E-1,-9.727037430E0,-8.351739645E-1
2.267401777E1,-8.790364265E-1,-9.715372086E0,-1.004597425E0
2.269428553E1,-8.453853130E-1,-9.732252121E0,-8.596318364E-1
2.271455324E1,-8.415013552E-1,-9.749810219E0,-6.351991892E-1
2.273495324E1,-8.270301819E-1,-9.758631706E0,-5.054819584E-1
2.275508876E1,-8.017180562E-1,-9.759770393E0,-5.239484310E-1
2.277535652E1,-8.193178177E-1,-9.751811981E0,-6.334627867E-1
2.279562428E1,-8.342120647E-1,-9.742483139E0,-7.473303080E-1
2.281589204E1,-8.036300540E-1,-9.735883713E0,-8.585605025E-1
2.283629204E1,-7.789406180E-1,-9.725012779E0,-9.938641191E-1
2.285642751E1,-7.672826648E-1,-9.709724426E0,-1.141454101E0
2.287669527E1,-7.464841604E-1,-9.690321922E0,-1.307976842E0
2.289696303E1,-7.200056911E-1,-9.659689903E0,-1.530477524E0
2.291723074E1,-6.544470191E-1,-9.604132652E0,-1.871555448E0
2.293763074E1,-5.041841865E-1,-9.502800941E0,-2.369172096E0
2.295776631E1,-2.833207250E-1,-9.334495544E0,-2.992878199E0
2.297803407E1,-8.326093853E-2,-9.127417564E0,-3.585206985E0
2.299830183E1,3.697482497E-2,-8.981804848E0,-3.936522245E0
2.301856954E1,1.634360105E-1,-8.906187057E0,-4.101648331E0
2.303883735E1,2.987353504E-1,-8.921835899E0,-4.059801579E0
2.305910506E1,4.237413108E-1,-9.014123917E0,-3.838798761E0
2.307937282E1,5.469230413E-1,-9.109392166E0,-3.590300083E0
2.309964058E1,6.185778975E-1,-9.196774483E0,-3.347700357E0
2.311990834E1,5.701115727E-1,-9.287487984E0,-3.096436262E0
2.314017610E1,3.791251481E-1,-9.383142471E0,-2.825469494E0
2.316044386E1,1.180718914E-1,-9.467006683E0,-2.555823326E0
2.318071162E1,-1.491269916E-1,-9.517930984E0,-2.357361078E0
2.320097938E1,-4.034829140E-1,-9.533149719E0,-2.264208317E0
2.322124714E1,-6.871305108E-1,-9.534854889E0,-2.187410831E0
2.324151490E1,-9.472171664E-1,-9.545625687E0,-2.038184166E0
2.326178266E1,-1.073375106E0,-9.574880600E0,-1.827542186E0
2.328205042E1,-1.074637294E0,-9.614779472E0,-1.603608727E0
2.330231818E1,-1.041473389E0,-9.647832870E0,-1.415989757E0
2.332258594E1,-9.985480905E-1,-9.673656464E0,-1.262392163E0
2.334285365E1,-9.540657997E-1,-9.694841385E0,-1.127026796E0
2.336312141E1,-9.335762858E-1,-9.708400726E0,-1.022634983E0
2.338338917E1,-9.393463135E-1,-9.711574554E0,-9.865809083E-1
2.340365688E1,-9.325706959E-1,-9.706408501E0,-1.042282581E0
2.342392470E1,-8.538799286E-1,-9.705038071E0,-1.119605660E0
2.344419246E1,-7.233037353E-1,-9.716944695E0,-1.108246565E0
2.346446022E1,-5.854820609E-1,-9.739836693E0,-9.814177752E-1
2.348472798E1,-5.164017081E-1,-9.763457298E0,-7.606785297E-1
2.350499574E1,-5.060750842E-1,-9.769151688E0,-6.913399696E-1
2.352526344E1,-5.058262944E-1,-9.756579399E0,-8.506907821E-1
2.354553121E1,-5.809217095E-1,-9.746595383E0,-9.147595167E-1
2.356579897E1,-7.148457766E-1,-9.744674683E0,-8.370862007E-1
2.358606673E1,-8.641884923E-1,-9.746567726E0,-6.541993618E-1
2.360633449E1,-1.012676954E0,-9.743515015E0,-4.569336474E-1
2.362660225E1,-1.123080850E0,-9.734972000E0,-3.733519912E-1
2.364687001E1,-1.173924446E0,-9.723181725E0,-5.019935369E-1
2.366713777E1,-1.155462027E0,-9.716130257E0,-6.573516726E-1
2.368740553E1,-1.083826780E0,-9.725690842E0,-6.376891136E-1
2.370767329E1,-1.034038663E0,-9.740056992E0,-4.821109772E-1
2.372794105E1,-1.004554510E0,-9.748767853E0,-3.504272103E-1
2.374820881E1,-9.649268389E-1,-9.752401352E0,-3.605242372E-1
2.376847657E1,-9.332512617E-1,-9.749725342E0,-4.922327995E-1
2.378874428E1,-9.286798239E-1,-9.740655899E0,-6.538872719E-1
2.380901209E1,-9.482063055E-1,-9.729113579E0,-7.846218944E-1
2.382927980E1,-9.638652802E-1,-9.716444016E0,-9.121804237E-1
2.384954761E1,-9.682929516E-1,-9.696372986E0,-1.101423383E0
2.386981532E1,-9.651378393E-1,-9.661295891E0,-1.377776742E0
2.389008308E1,-9.351946115E-1,-9.607172966E0,-1.731482148E0
2.391035084E1,-8.619027138E-1,-9.523130417E0,-2.176579475E0
2.393061860E1,-7.478781343E-1,-9.371201515E0,-2.791352987E0
2.395088636E1,-6.290922165E-1,-9.125429153E0,-3.535698891E0
2.397115412E1,-5.231743455E-1,-8.851728439E0,-4.188506126E0
2.399142188E1,-3.094004095E-1,-8.639501572E0,-4.629652023E0
2.401168964E1,5.086293444E-2,-8.586890221E0,-4.736362934E0
2.403195740E1,5.163674355E-1,-8.676557541E0,-4.541046143E0
2.405222516E1,8.854894042E-1,-8.768285751E0,-4.301564217E0
2.407249292E1,1.182088733E0,-8.824884415E0,-4.110285759E0
2.409276069E1,1.329715490E0,-8.891147614E0,-3.917874098E0
2.411302844E1,1.280909657E0,-8.984970093E0,-3.714830637E0
2.413342844E1,1.099350810E0,-9.066147804E0,-3.573065519E0
2.415356391E1,8.121500015E-1,-9.108797073E0,-3.541273355E0
2.417383167E1,4.007442296E-1,-9.140972137E0,-3.528799295E0
2.419409944E1,-5.287590995E-2,-9.207201958E0,-3.375651598E0
2.421436720E1,-3.942456841E-1,-9.296606064E0,-3.096462250E0
2.423476720E1,-5.967984200E-1,-9.390454292E0,-2.762895584E0
2.425490272E1,-7.344039083E-1,-9.466234207E0,-2.453863382E0
2.427517048E1,-8.776993155E-1,-9.513760567E0,-2.210970879E0
2.429543824E1,-1.037629485E0,-9.531322479E0,-2.060969353E0
2.431570600E1,-1.180771351E0,-9.529855728E0,-1.989478469E0
2.433610600E1,-1.277222276E0,-9.526603699E0,-1.944972754E0
2.435624152E1,-1.306292176E0,-9.538013458E0,-1.868230462E0
2.437650928E1,-1.282206297E0,-9.566779137E0,-1.732935786E0
2.439677704E1,-1.238888860E0,-9.602566719E0,-1.557642579E0
2.441704480E1,-1.192254901E0,-9.635227203E0,-1.382501960E0
2.443731256E1,-1.136955500E0,-9.661394119E0,-1.239025474E0
2.445758032E1,-1.070672512E0,-9.682445526E0,-1.128843427E0
2.447784808E1,-1.020890594E0,-9.697777748E0,-1.039846301E0
2.449811584E1,-9.977335334E-1,-9.708363533E0,-9.605241418E-1
2.451838360E1,-9.724150896E-1,-9.713839531E0,-9.306482077E-1
2.453865131E1,-9.331929088E-1,-9.694475174E0,-1.147464514E0
2.455891912E1,-8.849593997E-1,-9.638491631E0,-1.576936603E0
2.457918688E1,-7.497155666E-1,-9.634515762E0,-1.668658257E0
2.459945464E1,-6.552637219E-1,-9.666530609E0,-1.516311526E0
2.461972235E1,-7.322839499E-1,-9.693784714E0,-1.290226340E0
2.463999011E1,-9.470370412E-1,-9.701365471E0,-1.075644016E0
2.466025787E1,-1.223595262E0,-9.689352989E0,-8.886094093E-1
2.468052563E1,-1.457115173E0,-9.667902946E0,-7.608271837E-1
2.470079339E1,-1.517547131E0,-9.638345718E0,-9.847475290E-1
2.472106115E1,-1.496668220E0,-9.614471436E0,-1.221607924E0
2.474132891E1,-1.528288841E0,-9.627360344E0,-1.071763515E0
2.476159667E1,-1.560942173E0,-9.648996353E0,-7.941838503E-1
2.478186444E1,-1.546813488E0,-9.663784981E0,-6.237047911E-1
2.480213220E1,-1.522361040E0,-9.667423248E0,-6.274866462E-1
2.482239990E1,-1.549859762E0,-9.654569626E0,-7.467396855E-1
2.484266772E1,-1.622979403E0,-9.631781578E0,-8.747097254E-1
2.486293548E1,-1.734766603E0,-9.602473259E0,-9.764651656E-1
2.488320319E1,-1.877269864E0,-9.564403534E0,-1.080939054E0
2.490347095E1,-2.040094614E0,-9.516913414E0,-1.198658228E0
2.492373870E1,-2.190524340E0,-9.463372231E0,-1.347807407E0
2.494400647E1,-2.291124821E0,-9.402159691E0,-1.587614059E0
2.496427423E1,-2.287898302E0,-9.309081078E0,-2.068068743E0
2.498454199E1,-2.102709293E0,-9.154050827E0,-2.819994211E0
2.500480975E1,-1.799999833E0,-8.942806244E0,-3.599527359E0
2.502507751E1,-1.524730802E0,-8.749901772E0,-4.157500267E0
2.504534527E1,-1.268525720E0,-8.608343124E0,-4.523013592E0
2.506561303E1,-9.846280813E-1,-8.599669456E0,-4.609401703E0
2.508588079E1,-7.223771214E-1,-8.738867760E0,-4.390985489E0
2.510614855E1,-4.035531282E-1,-8.879059792E0,-4.143648148E0
2.512641631E1,-1.971174497E-3,-8.975971222E0,-3.949976206E0
2.514668407E1,3.107182980E-1,-9.063013077E0,-3.733046770E0
2.516695183E1,4.515986741E-1,-9.150922775E0,-3.496719360E0
2.518721959E1,4.857058823E-1,-9.200426102E0,-3.359556913E0
2.520748735E1,3.983686566E-1,-9.202169418E0,-3.366268635E0
2.522775506E1,1.411639005E-1,-9.177025795E0,-3.454365730E0
2.524802282E1,-2.952706218E-1,-9.174172401E0,-3.452210188E0
2.526829058E1,-7.064820528E-1,-9.204330444E0,-3.309313297E0
2.528855834E1,-9.481237531E-1,-9.260009766E0,-3.086046219E0
2.530882610E1,-1.049495935E0,-9.334808350E0,-2.816078186E0
2.532909386E1,-1.106082201E0,-9.406513214E0,-2.542531490E0
2.534936162E1,-1.187998533E0,-9.454436302E0,-2.317904949E0
2.536962938E1,-1.288000107E0,-9.480391502E0,-2.152582407E0
2.538989714E1,-1.365319014E0,-9.490003586E0,-2.060612679E0
2.541016490E1,-1.413196921E0,-9.488139153E0,-2.036784410E0
2.543043266E1,-1.452583432E0,-9.484741211E0,-2.024860620E0
2.545070042E1,-1.466898561E0,-9.493512154E0,-1.972769260E0
2.547096818E1,-1.429936528E0,-9.517269135E0,-1.883416057E0
2.549123595E1,-1.326609612E0,-9.541692734E0,-1.834830403E0
2.551150371E1,-1.157378078E0,-9.547725677E0,-1.916197896E0
2.553177147E1,-9.690309167E-1,-9.551959038E0,-1.997857690E0
2.555203917E1,-7.912666798E-1,-9.572093010E0,-1.979723454E0
2.557230694E1,-6.369602680E-1,-9.603963852E0,-1.878446817E0
2.559257470E1,-5.321769714E-1,-9.625420570E0,-1.799570680E0
2.561284246E1,-5.303043723E-1,-9.607992172E0,-1.890941024E0
2.563324246E1,-6.078107357E-1,-9.558842659E0,-2.104635477E0
2.565337798E1,-8.227454424E-1,-9.504917145E0,-2.269368410E0
2.567364574E1,-1.168486953E0,-9.497464180E0,-2.145506859E0
2.569391350E1,-1.472256064E0,-9.532988548E0,-1.767761588E0
2.571418126E1,-1.690625072E0,-9.575361252E0,-1.274608493E0
2.573458126E1,-1.768021226E0,-9.616981506E0,-7.470942140E-1
2.575471673E1,-1.723770499E0,-9.648281097E0,-3.312081397E-1
2.577498449E1,-1.744984388E0,-9.648277283E0,-1.902218610E-1
2.579525225E1,-1.783520103E0,-9.643010139E0,-4.235750437E-2
2.581552001E1,-1.855492115E0,-9.627263069E0,2.081639767E-1
2.583592001E1,-1.997098565E0,-9.588766098E0,4.873958528E-1
2.585605548E1,-2.151135445E0,-9.539963722E0,7.294563651E-1
2.587632324E1,-2.276241779E0,-9.494744301E0,9.159340262E-1
2.589659100E1,-2.361156940E0,-9.460323334E0,1.047665715E0
2.591685876E1,-2.408831835E0,-9.433876038E0,1.170429111E0
2.593725876E1,-2.418259859E0,-9.415551186E0,1.292208552E0
2.595739428E1,-2.449582577E0,-9.413229942E0,1.249408484E0
2.597766199E1,-2.551388025E0,-9.417869568E0,9.821103215E-1
2.599792975E1,-2.642155647E0,-9.422655106E0,6.347929835E-1
2.601819751E1,-2.636236906E0,-9.440011978E0,3.268201351E-1
2.603859751E1,-2.564261436E0,-9.465440750E0,1.985062286E-2
2.605873298E1,-2.452155828E0,-9.489330292E0,-3.315517306E-1
2.607900074E1,-2.256309748E0,-9.516577721E0,-7.170777321E-1
2.609926850E1,-1.983431101E0,-9.537384987E0,-1.129013062E0
2.611953626E1,-1.642019629E0,-9.544976234E0,-1.538700104E0
2.613980397E1,-1.223895550E0,-9.541000366E0,-1.908346295E0
2.616007173E1,-7.532871366E-1,-9.520059586E0,-2.229666471E0
2.618033949E1,-3.543573916E-1,-9.480783463E0,-2.481846571E0
2.620060725E1,-1.971295923E-1,-9.451118469E0,-2.609194517E0
2.622087501E1,-2.107350230E-1,-9.443445206E0,-2.635778427E0
2.624114272E1,-3.174574375E-1,-9.459449768E0,-2.566792011E0
2.626141048E1,-4.350470901E-1,-9.477525711E0,-2.481455564E0
2.628167824E1,-4.234020114E-1,-9.444939613E0,-2.604658127E0
2.630194594E1,-3.058426678E-1,-9.363972664E0,-2.897043467E0
2.632221371E1,-2.069726735E-1,-9.266835213E0,-3.202079773E0
2.634248147E1,-2.094328552E-1,-9.198614120E0,-3.392935753E0
2.636274923E1,-2.830592990E-1,-9.191407204E0,-3.407093048E0
2.638301699E1,-3.674430847E-1,-9.243966103E0,-3.253377914E0
2.640328470E1,-4.565140903E-1,-9.333814621E0,-2.973532438E0
2.642355246E1,-5.564568043E-1,-9.439455032E0,-2.599507093E0
2.644382022E1,-6.786289215E-1,-9.540133476E0,-2.166956425E0
2.646408792E1,-8.538411260E-1,-9.611609459E0,-1.748803616E0
2.648435568E1,-1.071843624E0,-9.631523132E0,-1.501767516E0
2.650462344E1,-1.201677322E0,-9.595207214E0,-1.630445719E0
2.652489121E1,-1.303133011E0,-9.484189987E0,-2.126586199E0
2.654515891E1,-1.412307858E0,-9.334008217E0,-2.655572891E0
2.656542667E1,-1.324634194E0,-9.283912659E0,-2.867872953E0
2.658569444E1,-1.179682493E0,-9.351406097E0,-2.707387209E0
2.660596220E1,-1.095789552E0,-9.457346916E0,-2.351217508E0
2.662622996E1,-1.057401299E0,-9.548650742E0,-1.968644142E0
2.664649766E1,-1.055474877E0,-9.604319572E0,-1.677324533E0
2.666676542E1,-1.115886807E0,-9.625470161E0,-1.508479953E0
2.668703318E1,-1.272483110E0,-9.621294022E0,-1.407794833E0
2.670730089E1,-1.445116162E0,-9.613598824E0,-1.288699508E0
2.672756865E1,-1.568569660E0,-9.614381790E0,-1.128552914E0
2.674783641E1,-1.640308261E0,-9.621794701E0,-9.491277933E-1
2.676810417E1,-1.670009494E0,-9.629875183E0,-8.043349385E-1
2.678837188E1,-1.652986288E0,-9.639922142E0,-7.140785456E-1
2.680863964E1,-1.586759806E0,-9.655706406E0,-6.480025649E-1
2.682903964E1,-1.463666797E0,-9.680394173E0,-5.639510751E-1
2.684917511E1,-1.336672306E0,-9.706817627E0,-4.017284513E-1
2.686944287E1,-1.267562747E0,-9.724295616E0,-4.173405841E-2
2.688971063E1,-1.249167800E0,-9.717218399E0,4.308479130E-1
2.690997839E1,-1.274100304E0,-9.683747292E0,8.786867261E-1
2.693024610E1,-1.366218090E0,-9.629292488E0,1.257204413E0
2.695051386E1,-1.497016191E0,-9.570705414E0,1.526731133E0
2.697078162E1,-1.602494359E0,-9.532258987E0,1.654824376E0
2.699104938E1,-1.673618793E0,-9.513142586E0,1.693959594E0
2.701131709E1,-1.696412206E0,-9.496176720E0,1.764995098E0
2.703158485E1,-1.638265371E0,-9.471587181E0,1.943069696E0
2.705173475E1,-1.520470500E0,-9.451224327E0,2.129064083E0
2.707212115E1,-1.456599712E0,-9.450499535E0,2.176408768E0
2.709238829E1,-1.520147085E0,-9.461359024E0,2.083798647E0
2.711265600E1,-1.659117341E0,-9.468306541E0,1.941362143E0
2.713305600E1,-1.792334080E0,-9.470076561E0,1.809859753E0
2.715319147E1,-1.855070591E0,-9.482535362E0,1.676489353E0
2.717345912E1,-1.809231997E0,-9.524671555E0,1.475701451E0
2.719372688E1,-1.672531128E0,-9.588788986E0,1.195058703E0
2.721399459E1,-1.492218018E0,-9.651015282E0,8.953119516E-1
2.723439459E1,-1.294255733E0,-9.701630592E0,6.112725139E-1
2.725453006E1,-1.096750259E0,-9.739283562E0,3.374807537E-1
2.727479782E1,-9.299975634E-1,-9.762081146E0,-8.525858819E-2
2.729506558E1,-8.942313790E-1,-9.741186142E0,-6.928277016E-1
2.731533329E1,-9.198300838E-1,-9.670415878E0,-1.344377995E0
2.733573329E1,-8.938049078E-1,-9.564631462E0,-1.972136140E0
2.735586881E1,-7.929957509E-1,-9.439552307E0,-2.537003756E0
2.737613657E1,-6.502187252E-1,-9.320698738E0,-2.978618383E0
2.739640428E1,-5.248234868E-1,-9.249293327E0,-3.216444492E0
2.741667204E1,-4.693600237E-1,-9.239501953E0,-3.252950430E0
2.743693980E1,-4.982606173E-1,-9.265297890E0,-3.174332142E0
2.745720751E1,-4.832472503E-1,-9.252951622E0,-3.212436199E0
2.747747527E1,-3.772971928E-1,-9.190120697E0,-3.401429176E0
2.749774303E1,-2.812114656E-1,-9.111692429E0,-3.615018606E0
2.751801074E1,-2.433923334E-1,-9.052886009E0,-3.762500286E0
2.753841074E1,-2.676279545E-1,-9.031385422E0,-3.812195063E0
2.755854626E1,-3.183698058E-1,-9.045324326E0,-3.775067329E0
2.757881397E1,-3.611098826E-1,-9.084943771E0,-3.674750090E0
2.759908173E1,-4.002983570E-1,-9.148983002E0,-3.508027315E0
2.761934949E1,-4.423913956E-1,-9.238106728E0,-3.260684729E0
2.763961720E1,-4.830114841E-1,-9.341184616E0,-2.946074486E0
2.765988496E1,-5.333011150E-1,-9.438323021E0,-2.608454704E0
2.768015272E1,-6.097427607E-1,-9.511953354E0,-2.306803703E0
2.770042042E1,-7.166854739E-1,-9.557676315E0,-2.075470448E0
2.772068818E1,-8.268190622E-1,-9.584549904E0,-1.903461576E0
2.774095589E1,-8.963777423E-1,-9.603510857E0,-1.771856785E0
2.776122365E1,-9.168131351E-1,-9.617589951E0,-1.682796955E0
2.778149141E1,-9.006035328E-1,-9.628314972E0,-1.629370689E0
2.780175912E1,-8.552843332E-1,-9.638148308E0,-1.595296502E0
2.782202688E1,-8.102967739E-1,-9.648272514E0,-1.557126164E0
2.784229459E1,-7.702561021E-1,-9.663278580E0,-1.482611418E0
2.786256235E1,-6.947022080E-1,-9.689913750E0,-1.339155078E0
2.788283006E1,-6.027739644E-1,-9.723514557E0,-1.122632265E0
2.790309782E1,-5.310890675E-1,-9.754786491E0,-8.558465242E-1
2.792336558E1,-4.834868908E-1,-9.777207375E0,-5.855388641E-1
2.794363329E1,-4.319634438E-1,-9.789816856E0,-3.785190284E-1
2.796390105E1,-3.837731779E-1,-9.794177055E0,-3.117729425E-1
2.798416881E1,-4.021334052E-1,-9.775673866E0,-6.670002937E-1
2.800443652E1,-4.518752694E-1,-9.706789970E0,-1.320766687E0
2.802470423E1,-3.976886272E-1,-9.679120064E0,-1.525410891E0
2.804497199E1,-2.945052087E-1,-9.703910828E0,-1.384838581E0
2.806523975E1,-3.296087384E-1,-9.740151405E0,-1.091412663E0
2.808550746E1,-5.094540715E-1,-9.761187553E0,-7.937726974E-1
2.810577522E1,-7.514981031E-1,-9.760765076E0,-5.771562457E-1
2.812604292E1,-9.747651815E-1,-9.748414040E0,-4.343296885E-1
2.814631069E1,-1.139639735E0,-9.731364250E0,-4.149451554E-1
2.816657839E1,-1.201925635E0,-9.703634262E0,-7.518186569E-1
2.818684610E1,-1.096583128E0,-9.675935745E0,-1.159375906E0
2.820711391E1,-9.724060297E-1,-9.696054459E0,-1.100611329E0
2.822738162E1,-9.003464580E-1,-9.730719566E0,-8.202744722E-1
2.824764933E1,-8.370906115E-1,-9.753388405E0,-5.840234756E-1
2.826791709E1,-7.960762382E-1,-9.760153770E0,-5.253845453E-1
2.828818480E1,-7.967500687E-1,-9.753355980E0,-6.384564042E-1
2.830845256E1,-8.423264623E-1,-9.731430054E0,-8.718667030E-1
2.832872027E1,-8.912373185E-1,-9.697730064E0,-1.153294563E0
2.834898798E1,-9.711728096E-1,-9.659335136E0,-1.387241125E0
2.836925579E1,-1.046899676E0,-9.619734764E0,-1.592199445E0
2.838952350E1,-1.065612197E0,-9.579260826E0,-1.809035182E0
2.840979126E1,-1.007876277E0,-9.525032043E0,-2.104362488E0
2.843005897E1,-8.458278179E-1,-9.424332619E0,-2.576220751E0
2.845032673E1,-5.779204369E-1,-9.247779846E0,-3.211691856E0
2.847059444E1,-3.018285930E-1,-9.052889824E0,-3.758254766E0
2.849086220E1,-6.906292588E-2,-8.889686584E0,-4.139939308E0
2.851112990E1,1.586929262E-1,-8.768538475E0,-4.388386726E0
2.853139766E1,4.310325086E-1,-8.724880219E0,-4.456575394E0
2.855166537E1,6.604872346E-1,-8.743633270E0,-4.391243935E0
2.857193313E1,8.745443225E-1,-8.778932571E0,-4.282043934E0
2.859220084E1,1.080597758E0,-8.830005646E0,-4.127189636E0
2.861246860E1,1.180610895E0,-8.923228264E0,-3.892626762E0
2.863286860E1,1.133954167E0,-9.039707184E0,-3.628804445E0
2.865300402E1,1.002289176E0,-9.131966591E0,-3.431177616E0
2.867327178E1,7.754342556E-1,-9.190747261E0,-3.331553698E0
2.869353949E1,4.589048028E-1,-9.227972984E0,-3.286989450E0
2.871380725E1,6.520280987E-2,-9.276025772E0,-3.181428909E0
2.873420725E1,-3.102458119E-1,-9.342284203E0,-2.965780258E0
2.875434272E1,-5.667151213E-1,-9.411627769E0,-2.696384192E0
2.877461042E1,-6.849299669E-1,-9.477773666E0,-2.423443079E0
2.879487813E1,-7.445831299E-1,-9.528429031E0,-2.196592331E0
2.881514589E1,-8.102783561E-1,-9.562922478E0,-2.016023159E0
2.883554589E1,-8.819622993E-1,-9.588973045E0,-1.855836630E0
2.885568136E1,-9.377076030E-1,-9.612731934E0,-1.698962331E0
2.887594907E1,-9.677428603E-1,-9.636819839E0,-1.538044214E0
2.889621683E1,-9.575073123E-1,-9.659955978E0,-1.392413139E0
2.891648454E1,-8.964123726E-1,-9.684045792E0,-1.259401083E0
2.893688454E1,-7.854813933E-1,-9.713371277E0,-1.097189784E0
2.895702001E1,-6.605526805E-1,-9.744868279E0,-8.784063458E-1
2.897728772E1,-5.583977103E-1,-9.772053719E0,-6.046127677E-1
2.899768772E1,-5.575308800E-1,-9.783318520E0,-3.823769391E-1
2.901782318E1,-6.297637224E-1,-9.780412674E0,-3.425063193E-1
2.903809089E1,-6.045274734E-1,-9.780026436E0,-3.949867487E-1
2.905835860E1,-4.976266026E-1,-9.751967430E0,-9.065845609E-1
2.907862636E1,-5.091918707E-1,-9.702639580E0,-1.330377221E0
2.909889407E1,-4.266645312E-1,-9.706435204E0,-1.331712484E0
2.911916183E1,-3.731166720E-1,-9.739041328E0,-1.087306976E0
2.913942954E1,-4.659951925E-1,-9.764324188E0,-7.817978859E-1
2.915969725E1,-6.758777499E-1,-9.769610405E0,-5.179598927E-1
2.917996501E1,-9.082688689E-1,-9.759867668E0,-3.007108271E-1
2.920023272E1,-1.082664847E0,-9.745194435E0,-1.715324223E-1
2.922050042E1,-1.167622566E0,-9.729569435E0,-3.775273263E-1
2.924076818E1,-1.194430351E0,-9.704129219E0,-7.573602796E-1
2.926103589E1,-1.140139461E0,-9.701061249E0,-8.717134595E-1
2.928130360E1,-1.078381181E0,-9.725915909E0,-6.434609294E-1
2.930170360E1,-1.009144306E0,-9.744924545E0,-4.341134131E-1
2.932183907E1,-9.172888398E-1,-9.755863190E0,-3.899926543E-1
2.934210678E1,-8.434339762E-1,-9.758405685E0,-4.822083712E-1
2.936237449E1,-8.195114732E-1,-9.750823975E0,-6.482539773E-1
2.938264225E1,-8.428269625E-1,-9.733245850E0,-8.508639336E-1
2.940290990E1,-8.877849579E-1,-9.705399513E0,-1.089708328E0
2.942317766E1,-9.345479608E-1,-9.664589882E0,-1.375757575E0
2.944344542E1,-9.391581416E-1,-9.605384827E0,-1.739236474E0
2.946371313E1,-8.249017596E-1,-9.512269020E0,-2.237555742E0
2.948398084E1,-5.901114941E-1,-9.331413269E0,-2.957513094E0
2.950424860E1,-3.212150633E-1,-9.043031693E0,-3.780313730E0
2.952451631E1,-1.249952763E-1,-8.751326561E0,-4.423691750E0
2.954478402E1,1.226775572E-1,-8.538727760E0,-4.821355820E0
2.956505178E1,4.300426543E-1,-8.483392715E0,-4.900765419E0
2.958531949E1,7.450873256E-1,-8.527007103E0,-4.785955906E0
2.960558720E1,1.023842454E0,-8.531047821E0,-4.726875782E0
2.962585496E1,1.306002736E0,-8.511325836E0,-4.692768574E0
2.964612261E1,1.513901711E0,-8.532691002E0,-4.590391636E0
2.966639037E1,1.574151397E0,-8.624751091E0,-4.393872261E0
2.968665808E1,1.525386810E0,-8.740116119E0,-4.177792549E0
2.970692579E1,1.366016269E0,-8.832653999E0,-4.035915852E0
2.972719355E1,1.059630990E0,-8.909184456E0,-3.959040165E0
2.974746126E1,6.342095137E-1,-8.993611336E0,-3.857863903E0
2.976772897E1,1.957031339E-1,-9.097845078E0,-3.655310631E0
2.978799667E1,-1.360249519E-1,-9.213704109E0,-3.355524778E0
2.980826438E1,-3.147103786E-1,-9.336949348E0,-2.982066393E0
2.982853214E1,-3.916343749E-1,-9.449674606E0,-2.592424154E0
2.984879985E1,-4.684282243E-1,-9.535865784E0,-2.240140438E0
2.986906756E1,-5.921005607E-1,-9.589155197E0,-1.966698647E0
2.988933527E1,-7.282001972E-1,-9.612349510E0,-1.800792575E0
2.990960298E1,-8.113949299E-1,-9.624859810E0,-1.695313692E0
2.992987068E1,-8.115640879E-1,-9.647145271E0,-1.563438296E0
2.995013844E1,-7.486214638E-1,-9.684347153E0,-1.350322485E0
2.997040615E1,-6.604697108E-1,-9.726772308E0,-1.060218930E0
2.999067386E1,-5.748118162E-1,-9.760975838E0,-7.505622506E-1
3.001094157E1,-5.547354221E-1,-9.775102615E0,-5.567866564E-1
3.003120928E1,-6.456052661E-1,-9.767927170E0,-5.841004848E-1
3.005147699E1,-6.616364717E-1,-9.758774757E0,-7.063618898E-1
3.007174475E1,-5.368704200E-1,-9.753353119E0,-8.684813380E-1
3.009201246E1,-3.317923248E-1,-9.730676651E0,-1.172276616E0
3.011228016E1,-2.175851315E-1,-9.727807999E0,-1.221796989E0
3.013268016E1,-1.832293570E-1,-9.743494987E0,-1.095952630E0
3.015281558E1,-2.774924040E-1,-9.753545761E0,-9.806791544E-1
3.017308329E1,-4.889745712E-1,-9.751954079E0,-9.114174247E-1
3.019335100E1,-7.333164811E-1,-9.741768837E0,-8.547495604E-1
3.021361871E1,-9.614173174E-1,-9.727940559E0,-7.830880880E-1
3.023401870E1,-1.122146130E0,-9.716210365E0,-7.116538882E-1
3.025415412E1,-1.155235529E0,-9.706995010E0,-7.810712457E-1
3.027442188E1,-1.088204622E0,-9.712792397E0,-8.049061298E-1
3.029468959E1,-1.029089808E0,-9.731704712E0,-6.366238594E-1
3.031495730E1,-9.713291526E-1,-9.748122215E0,-4.483401179E-1
3.033535730E1,-8.717278242E-1,-9.758035660E0,-4.372861087E-1
3.035549272E1,-7.950787544E-1,-9.757431030E0,-5.751419067E-1
3.037576042E1,-7.912034392E-1,-9.745775223E0,-7.511559129E-1
3.039602819E1,-8.480688334E-1,-9.728257179E0,-9.011987448E-1
3.041629589E1,-9.553039670E-1,-9.705222130E0,-1.032694936E0
3.043656360E1,-1.057017803E0,-9.674250603E0,-1.209118843E0
3.045683131E1,-1.087554097E0,-9.641064644E0,-1.427403927E0
3.047709902E1,-1.041139364E0,-9.603339195E0,-1.691832185E0
3.049736673E1,-9.703840613E-1,-9.540755272E0,-2.050058126E0
3.051763444E1,-8.708847761E-1,-9.407471657E0,-2.628956556E0
3.053803444E1,-6.775272489E-1,-9.181298256E0,-3.378625870E0
3.055816985E1,-4.319752753E-1,-8.930877686E0,-4.027802944E0
3.057843756E1,-1.258439422E-1,-8.716386795E0,-4.492120266E0
3.059870532E1,1.410113573E-1,-8.638381004E0,-4.639922619E0
3.061897303E1,3.399671912E-1,-8.703423500E0,-4.506133556E0
3.063924074E1,5.403254628E-1,-8.777379990E0,-4.340051174E0
3.065950844E1,8.367876410E-1,-8.824512482E0,-4.195014000E0
3.067977615E1,1.117627740E0,-8.885929108E0,-3.995192528E0
3.070004381E1,1.204243064E0,-8.993589401E0,-3.719615221E0
3.072031157E1,1.147889972E0,-9.106958389E0,-3.451962709E0
3.074057928E1,1.007533550E0,-9.185162544E0,-3.284515381E0
3.076084699E1,7.753942013E-1,-9.232766151E0,-3.213280439E0
3.078111470E1,4.639767706E-1,-9.266212463E0,-3.176856279E0
3.080138240E1,7.049115002E-2,-9.317947388E0,-3.056352139E0
3.082165011E1,-3.250080049E-1,-9.400699615E0,-2.773371935E0
3.084191782E1,-6.044985056E-1,-9.495835304E0,-2.373618364E0
3.086218553E1,-7.481408715E-1,-9.576259613E0,-1.976340413E0
3.088245324E1,-8.343691826E-1,-9.628352165E0,-1.664041638E0
3.090272095E1,-9.049466252E-1,-9.657844543E0,-1.441349149E0
3.092298865E1,-9.396658540E-1,-9.677526474E0,-1.277854085E0
3.094325636E1,-9.278715253E-1,-9.694652557E0,-1.150282860E0
3.096352407E1,-9.037013054E-1,-9.709204674E0,-1.041661263E0
3.098379178E1,-8.679724336E-1,-9.724232674E0,-9.253783822E-1
3.100405949E1,-7.886039019E-1,-9.741037369E0,-8.128291965E-1
3.102432720E1,-6.826547980E-1,-9.757464409E0,-7.044582963E-1
3.104459490E1,-5.829623342E-1,-9.764472008E0,-6.968717575E-1
3.106486261E1,-4.797975719E-1,-9.761384964E0,-8.096639514E-1
3.108513032E1,-4.097405076E-1,-9.724378586E0,-1.199564695E0
3.110539803E1,-3.674559593E-1,-9.701437950E0,-1.384725451E0
3.112566574E1,-3.147813976E-1,-9.714302063E0,-1.305235982E0
3.114593344E1,-3.719749451E-1,-9.735387802E0,-1.119931459E0
3.116620115E1,-5.546395779E-1,-9.747348785E0,-9.230141640E-1
3.118646886E1,-7.596997619E-1,-9.749916077E0,-7.296328545E-1
3.120673657E1,-9.277391434E-1,-9.747565269E0,-5.428118706E-1
3.122700428E1,-1.019477129E0,-9.741945267E0,-4.749250412E-1
3.124727199E1,-9.921146631E-1,-9.730460167E0,-7.101016045E-1
3.126753970E1,-8.839456439E-1,-9.722630501E0,-9.270905852E-1
3.128780740E1,-7.982735634E-1,-9.739026070E0,-8.273541927E-1
3.130807511E1,-7.200369835E-1,-9.758713722E0,-6.476495266E-1
3.132847511E1,-6.579679251E-1,-9.769237518E0,-5.472446084E-1
3.134861053E1,-6.323119402E-1,-9.769660950E0,-5.694577694E-1
3.136887824E1,-6.446143985E-1,-9.761012077E0,-6.910105348E-1
3.138914589E1,-6.718969345E-1,-9.744849205E0,-8.699743152E-1
3.140941360E1,-7.197149992E-1,-9.722768784E0,-1.058378458E0
3.142968136E1,-8.154603243E-1,-9.697682381E0,-1.208451986E0
3.144994902E1,-9.298248291E-1,-9.671307564E0,-1.331024528E0
3.147021667E1,-9.653677940E-1,-9.641379356E0,-1.510712743E0
3.149048444E1,-8.374555111E-1,-9.594552040E0,-1.847600341E0
3.151075214E1,-5.532457829E-1,-9.494492531E0,-2.391425133E0
3.153101985E1,-2.914372981E-1,-9.326678276E0,-3.016376019E0
3.155128756E1,-1.510231346E-1,-9.155344963E0,-3.511019945E0
3.157155527E1,-4.973264784E-2,-9.017198563E0,-3.854614496E0
3.159182298E1,5.750234425E-2,-8.940140724E0,-4.030007839E0
3.161209069E1,2.319108397E-1,-8.933688164E0,-4.038048267E0
3.163249068E1,4.024308622E-1,-8.965150833E0,-3.954049587E0
3.165262605E1,5.148493052E-1,-9.022003174E0,-3.809039354E0
3.167289376E1,5.938095450E-1,-9.104309082E0,-3.595738888E0
3.169316147E1,6.122090816E-1,-9.217905998E0,-3.290258169E0
3.171342917E1,4.875572026E-1,-9.339034081E0,-2.952139139E0
3.173382917E1,2.339542210E-1,-9.425430298E0,-2.697572470E0
3.175396459E1,-7.183285058E-2,-9.463710785E0,-2.569709063E0
3.177423230E1,-3.931645751E-1,-9.472832680E0,-2.506240845E0
3.179449996E1,-7.070071101E-1,-9.477061272E0,-2.419885397E0
3.181476766E1,-9.653961062E-1,-9.500632286E0,-2.230783463E0
3.183516766E1,-1.117487669E0,-9.544241905E0,-1.956797600E0
3.185530308E1,-1.186634898E0,-9.593424797E0,-1.651816249E0
3.187557079E1,-1.223809361E0,-9.634387016E0,-1.360614777E0
3.189583850E1,-1.251032352E0,-9.660039902E0,-1.135311604E0
3.191610621E1,-1.267587543E0,-9.673167229E0,-9.967191219E-1
3.193650620E1,-1.262165427E0,-9.680605888E0,-9.290719628E-1
3.195664157E1,-1.220114112E0,-9.689799309E0,-8.885322213E-1
3.197690928E1,-1.150919795E0,-9.702348709E0,-8.427397013E-1
3.199717699E1,-1.043833375E0,-9.717129707E0,-8.112830520E-1
3.201744470E1,-8.849334121E-1,-9.735710144E0,-7.766855955E-1
3.203771240E1,-7.283226252E-1,-9.755462646E0,-6.862044334E-1
3.205798006E1,-6.192228794E-1,-9.772204399E0,-5.394261479E-1
3.207824777E1,-5.737304091E-1,-9.783781052E0,-3.447689116E-1
3.209851548E1,-5.853547454E-1,-9.782200813E0,-3.691864312E-1
3.211878319E1,-6.258905530E-1,-9.749439240E0,-8.526912928E-1
3.213905089E1,-6.810271144E-1,-9.718624115E0,-1.120237231E0
3.215931860E1,-7.010936141E-1,-9.717829704E0,-1.114740133E0
3.217958626E1,-7.590582371E-1,-9.729644775E0,-9.634530544E-1
3.219985397E1,-8.723056912E-1,-9.738251686E0,-7.588977814E-1
3.222012167E1,-1.009517908E0,-9.739496231E0,-5.417256355E-1
3.224038938E1,-1.117335200E0,-9.737024307E0,-3.351212442E-1
3.226065709E1,-1.161107659E0,-9.734223366E0,-2.590639889E-1
3.228092475E1,-1.168496609E0,-9.731476784E0,-3.215015233E-1
3.230119246E1,-1.106761456E0,-9.737233162E0,-3.629823327E-1
3.232146016E1,-9.844481349E-1,-9.754250526E0,-2.362996340E-1
3.234172787E1,-9.036203623E-1,-9.764797211E0,-5.097256973E-2
3.236199558E1,-8.784036040E-1,-9.767213821E0,-1.792899147E-2
3.238226324E1,-8.684341908E-1,-9.767160416E0,-1.370998919E-1
3.240253089E1,-9.009370804E-1,-9.760813713E0,-2.919316888E-1
3.242279865E1,-9.718518257E-1,-9.750447273E0,-3.932779133E-1
3.244306636E1,-1.046076775E0,-9.739422798E0,-4.687765539E-1
3.246333407E1,-1.107150316E0,-9.724992752E0,-6.075444818E-1
3.248360173E1,-1.150993109E0,-9.702736855E0,-8.381637335E-1
3.250386944E1,-1.173441410E0,-9.671730995E0,-1.118490934E0
3.252413714E1,-1.166472673E0,-9.636020660E0,-1.398868799E0
3.254440480E1,-1.125484467E0,-9.596036911E0,-1.679209113E0
3.256467251E1,-1.051981688E0,-9.542178154E0,-2.002637625E0
3.258494022E1,-9.405343533E-1,-9.460109711E0,-2.406676769E0
3.260520787E1,-7.717285156E-1,-9.328379631E0,-2.925091267E0
3.262547558E1,-5.631205440E-1,-9.153508186E0,-3.473696947E0
3.264574329E1,-3.362969756E-1,-8.981061935E0,-3.924006701E0
3.266601089E1,-9.738172591E-2,-8.888182640E0,-4.142597198E0
3.268627865E1,1.088554859E-1,-8.885734558E0,-4.147560596E0
3.270654636E1,2.122732550E-1,-8.915511131E0,-4.079091072E0
3.272681407E1,2.741174996E-1,-8.948443413E0,-4.002576351E0
3.274708173E1,3.161374927E-1,-8.988258362E0,-3.909176350E0
3.276734944E1,3.109019995E-1,-9.054442406E0,-3.753772259E0
3.278761714E1,2.546066046E-1,-9.152188301E0,-3.513262987E0
3.280788480E1,1.143436581E-1,-9.256180763E0,-3.237350464E0
3.282815251E1,-1.252792627E-1,-9.333685875E0,-3.006158829E0
3.284842022E1,-4.183318913E-1,-9.380145073E0,-2.829888582E0
3.286868787E1,-7.206283808E-1,-9.409583092E0,-2.666612625E0
3.288895558E1,-9.669157267E-1,-9.435358047E0,-2.491883993E0
3.290922324E1,-1.100243211E0,-9.469543457E0,-2.299478054E0
3.292949095E1,-1.145932913E0,-9.513568878E0,-2.085482359E0
3.294975865E1,-1.162605882E0,-9.561912537E0,-1.840802670E0
3.297002631E1,-1.157823920E0,-9.610164642E0,-1.573077440E0
3.299029402E1,-1.137847662E0,-9.650908470E0,-1.317439914E0
3.301056173E1,-1.126712203E0,-9.678236961E0,-1.110235214E0
3.303082944E1,-1.122968435E0,-9.695321083E0,-9.539818764E-1
3.305109709E1,-1.137201667E0,-9.702532768E0,-8.590837121E-1
3.307136480E1,-1.165780783E0,-9.699301720E0,-8.572558165E-1
3.309163246E1,-1.144084215E0,-9.697711945E0,-9.032396078E-1
3.311190016E1,-1.042247176E0,-9.705643654E0,-9.405214787E-1
3.313230016E1,-9.025602341E-1,-9.719949722E0,-9.372008443E-1
3.315243558E1,-7.897440195E-1,-9.718456268E0,-1.047994375E0
3.317270324E1,-7.313911319E-1,-9.694647789E0,-1.284236908E0
3.319297094E1,-7.327574492E-1,-9.683446884E0,-1.365401626E0
3.321323860E1,-8.189682961E-1,-9.679010391E0,-1.347750306E0
3.323363860E1,-9.723080397E-1,-9.675642014E0,-1.267659664E0
3.325377402E1,-1.140929937E0,-9.671687126E0,-1.152015209E0
3.327404167E1,-1.274650216E0,-9.663893700E0,-1.074618816E0
3.329430938E1,-1.332219124E0,-9.658805847E0,-1.050249577E0
3.331457704E1,-1.343218088E0,-9.670149803E0,-9.243139625E-1
3.333497704E1,-1.371055126E0,-9.685824394E0,-6.894906163E-1
3.335511246E1,-1.404708982E0,-9.694756508E0,-4.570180774E-1
3.337538011E1,-1.419074535E0,-9.698285103E0,-3.160411417E-1
3.339564782E1,-1.434928417E0,-9.696926117E0,-2.845677435E-1
3.341591553E1,-1.491980314E0,-9.687332153E0,-3.161946535E-1
3.343631553E1,-1.584808350E0,-9.671564102E0,-3.458411098E-1
3.345645089E1,-1.698473811E0,-9.651939392E0,-3.544698954E-1
3.347671860E1,-1.822798133E0,-9.628560066E0,-3.723339736E-1
3.349698626E1,-1.946816444E0,-9.602706909E0,-4.102525711E-1
3.351725397E1,-2.081159353E0,-9.572260857E0,-4.593246579E-1
3.353765397E1,-2.229602337E0,-9.535857201E0,-5.164240599E-1
3.355778933E1,-2.360999823E0,-9.499709129E0,-5.929573178E-1
3.357805704E1,-2.450221777E0,-9.467717171E0,-7.274193764E-1
3.359832470E1,-2.485844612E0,-9.437354088E0,-9.629771113E-1
3.361859240E1,-2.480664968E0,-9.395778656E0,-1.317586184E0
3.363886006E1,-2.451256037E0,-9.323101997E0,-1.800415277E0
3.365912777E1,-2.339839220E0,-9.235368729E0,-2.324546337E0
3.367939542E1,-2.109936953E0,-9.180350304E0,-2.727587938E0
3.369966313E1,-1.747156262E0,-9.137862206E0,-3.101176262E0
3.371993084E1,-1.221815944E0,-9.120037079E0,-3.391531944E0
3.374019850E1,-6.422109604E-1,-9.163874626E0,-3.432399511E0
3.376046620E1,-2.545005679E-1,-9.252429962E0,-3.240083456E0
3.378073386E1,-1.429499686E-2,-9.349946976E0,-2.957815409E0
3.380100157E1,1.546419859E-1,-9.428421021E0,-2.692837715E0
3.382126923E1,2.819036841E-1,-9.501895905E0,-2.409335852E0
3.384153694E1,3.819717467E-1,-9.575869560E0,-2.080196619E0
3.386180464E1,4.649651349E-1,-9.607192993E0,-1.912076473E0
3.388207230E1,4.544313252E-1,-9.599286079E0,-1.953865528E0
3.390234001E1,3.381153643E-1,-9.573785782E0,-2.097305536E0
3.392260766E1,1.240624934E-1,-9.540710449E0,-2.264912605E0
3.394287537E1,-1.838641912E-1,-9.520869255E0,-2.342997551E0
3.396314303E1,-4.924274981E-1,-9.532526970E0,-2.249185324E0
3.398341074E1,-7.357586622E-1,-9.546796799E0,-2.118421316E0
3.400367845E1,-9.041356444E-1,-9.532415390E0,-2.118016005E0
3.402394610E1,-9.668781161E-1,-9.477632523E0,-2.325943947E0
3.404421381E1,-9.648282528E-1,-9.381933212E0,-2.686788797E0
3.406448147E1,-1.010357738E0,-9.286618233E0,-2.984675169E0
3.408474917E1,-1.125796080E0,-9.264343262E0,-3.012461901E0
3.410501683E1,-1.239448905E0,-9.302066803E0,-2.847049713E0
3.412528454E1,-1.291065454E0,-9.360084534E0,-2.625324726E0
3.414555220E1,-1.217001081E0,-9.428445816E0,-2.407011509E0
3.416581990E1,-1.063124061E0,-9.501976013E0,-2.180046558E0
3.418608761E1,-9.926392436E-1,-9.561874390E0,-1.937942863E0
3.420635527E1,-1.030024171E0,-9.601255417E0,-1.710361123E0
3.422662298E1,-1.164477229E0,-9.623420715E0,-1.484635353E0
3.424689063E1,-1.340979576E0,-9.630411148E0,-1.275674224E0
3.426715834E1,-1.520717859E0,-9.627306938E0,-1.082949281E0
3.428742605E1,-1.657041311E0,-9.621294022E0,-9.248220325E-1
3.430769371E1,-1.709821463E0,-9.623188019E0,-8.007138968E-1
3.432796141E1,-1.675442338E0,-9.637989044E0,-6.873439550E-1
3.434822907E1,-1.570715666E0,-9.664834023E0,-5.424199104E-1
3.436849678E1,-1.451554060E0,-9.696203232E0,-2.168502063E-1
3.438876444E1,-1.380497694E0,-9.706118584E0,2.363793254E-1
3.440916444E1,-1.384190321E0,-9.689429283E0,6.077449322E-1
3.442929985E1,-1.467883945E0,-9.662551880E0,8.067188263E-1
3.444956751E1,-1.613230586E0,-9.634730339E0,8.601356745E-1
3.446983522E1,-1.788200498E0,-9.604543686E0,8.517409563E-1
3.449010292E1,-1.961662650E0,-9.569846153E0,8.604145050E-1
3.451037058E1,-2.106998682E0,-9.535339355E0,8.990242481E-1
3.453063829E1,-2.191569567E0,-9.512277603E0,9.402176738E-1
3.455090595E1,-2.203667164E0,-9.502964973E0,1.003935099E0
3.457117365E1,-2.172121763E0,-9.495040894E0,1.138625741E0
3.459144131E1,-2.114497185E0,-9.481087685E0,1.344714165E0
3.461170902E1,-2.038097858E0,-9.464660645E0,1.561009765E0
3.463197673E1,-1.984700441E0,-9.454232216E0,1.687852263E0
3.465224438E1,-2.021728754E0,-9.445004463E0,1.695549607E0
3.467251209E1,-2.122948170E0,-9.431588173E0,1.645788312E0
3.469277975E1,-2.231579781E0,-9.413259506E0,1.606544018E0
3.471304746E1,-2.314131975E0,-9.394837379E0,1.597561240E0
3.473344746E1,-2.372671127E0,-9.382223129E0,1.585782647E0
3.475358282E1,-2.415744066E0,-9.377806664E0,1.546387196E0
3.477385048E1,-2.434784412E0,-9.379879951E0,1.503353119E0
3.479411818E1,-2.432298183E0,-9.386896133E0,1.463044047E0
3.481434652E1,-2.406917810E0,-9.402861595E0,1.401187539E0
3.483474652E1,-2.338209152E0,-9.434720039E0,1.299704194E0
3.485492126E1,-2.234340429E0,-9.479451180E0,1.148086548E0
3.487518891E1,-2.131746054E0,-9.527690887E0,9.214970469E-1
3.489545662E1,-2.059101820E0,-9.569868088E0,5.900157690E-1
3.491572428E1,-2.020679712E0,-9.595260620E0,1.349279135E-1
3.493612428E1,-1.997192860E0,-9.593003273E0,-3.948260546E-1
3.495625964E1,-1.939610958E0,-9.569722176E0,-9.103311300E-1
3.497652735E1,-1.799463034E0,-9.541051865E0,-1.378643155E0
3.499679506E1,-1.575011134E0,-9.514629364E0,-1.778075218E0
3.501706272E1,-1.301102877E0,-9.491877556E0,-2.093271494E0
3.503746272E1,-1.016332626E0,-9.473081589E0,-2.323399305E0
3.505759808E1,-7.737874389E-1,-9.458043098E0,-2.473267794E0
3.507786579E1,-6.400546432E-1,-9.442845345E0,-2.567760706E0
3.509813344E1,-6.327340007E-1,-9.432421684E0,-2.607578754E0
3.511840115E1,-6.611529589E-1,-9.439226151E0,-2.575709105E0
3.513866881E1,-5.434145927E-1,-9.440380096E0,-2.598907471E0
3.515893652E1,-1.622322947E-1,-9.374167442E0,-2.875597477E0
3.517920417E1,1.140252128E-1,-9.271355629E0,-3.193641663E0
3.519947188E1,1.774014235E-1,-9.185455322E0,-3.430208683E0
3.521973954E1,1.649732739E-1,-9.136218071E0,-3.559870005E0
3.524000725E1,1.414282918E-1,-9.126621246E0,-3.585410357E0
3.526027490E1,1.126088575E-1,-9.151509285E0,-3.522438765E0
3.528054261E1,8.519432694E-2,-9.189555168E0,-3.422749996E0
3.530081027E1,4.609016329E-2,-9.223087311E0,-3.332103968E0
3.532107792E1,-3.208632022E-2,-9.245738029E0,-3.268895626E0
3.534134563E1,-1.611550152E-1,-9.258431435E0,-3.228910446E0
3.536161334E1,-3.512459993E-1,-9.267200470E0,-3.188417673E0
3.538188100E1,-5.935139060E-1,-9.276593208E0,-3.124572515E0
3.540214870E1,-7.301676273E-1,-9.283790588E0,-3.073836088E0
3.542241636E1,-6.605955958E-1,-9.307181358E0,-3.018340111E0
3.544268407E1,-5.987787843E-1,-9.321630478E0,-2.986479521E0
3.546295173E1,-6.305425763E-1,-9.306964874E0,-3.025429010E0
3.548321944E1,-6.447175741E-1,-9.272143364E0,-3.127631426E0
3.550348709E1,-5.642167926E-1,-9.242282867E0,-3.229900837E0
3.552375480E1,-4.243299067E-1,-9.246886253E0,-3.238123178E0
3.554402246E1,-3.594901562E-1,-9.266321182E0,-3.190054178E0
3.556429016E1,-6.153606772E-1,-9.219761848E0,-3.284464836E0
3.558455782E1,-7.655334473E-1,-9.193990707E0,-3.324888229E0
3.560482553E1,-6.677327752E-1,-9.260392189E0,-3.157476664E0
3.562509319E1,-6.220469475E-1,-9.376611710E0,-2.804033995E0
3.564536084E1,-7.268714309E-1,-9.485687256E0,-2.379868507E0
3.566562855E1,-9.717311859E-1,-9.552971840E0,-1.991694450E0
3.568589620E1,-1.286921263E0,-9.581453323E0,-1.646204114E0
3.570616391E1,-1.549221992E0,-9.593761444E0,-1.315306187E0
3.572643157E1,-1.680006623E0,-9.603488922E0,-1.058758497E0
3.574669928E1,-1.702919483E0,-9.607014656E0,-9.877817035E-1
3.576696694E1,-1.679085732E0,-9.608475685E0,-1.014037371E0
3.578723464E1,-1.593029976E0,-9.619549751E0,-1.047331572E0
3.580750235E1,-1.438257694E0,-9.642981529E0,-1.055796385E0
3.582790235E1,-1.280586004E0,-9.672384262E0,-9.876502752E-1
3.584803766E1,-1.209337354E0,-9.700698853E0,-7.773897052E-1
3.586830537E1,-1.216158748E0,-9.714851379E0,-5.594764352E-1
3.588857308E1,-1.243194699E0,-9.719555855E0,-3.938231468E-1
3.590884074E1,-1.261701703E0,-9.720937729E0,-2.860980332E-1
3.592910845E1,-1.285757184E0,-9.719221115E0,-2.322735041E-1
3.594937615E1,-1.315034032E0,-9.715610504E0,-2.190457135E-1
3.596964381E1,-1.337882400E0,-9.712724686E0,-2.083843946E-1
3.598991152E1,-1.348922253E0,-9.712305069E0,-1.480884850E-1
3.601017917E1,-1.338187575E0,-9.714864731E0,-3.226957470E-2
3.603044688E1,-1.298891425E0,-9.719736099E0,1.000030711E-1
3.605071454E1,-1.239675879E0,-9.725510597E0,2.191572040E-1
3.607098225E1,-1.174415827E0,-9.731472015E0,2.992967367E-1
3.609124996E1,-1.104856849E0,-9.739069939E0,3.165279627E-1
3.611151761E1,-1.043296099E0,-9.747263908E0,2.697650790E-1
3.613178532E1,-9.990142584E-1,-9.753820419E0,1.879928708E-1
3.615205298E1,-9.787213206E-1,-9.757054329E0,1.113037094E-1
3.617232068E1,-9.913012385E-1,-9.756287575E0,5.038600042E-2
3.619258834E1,-1.035316944E0,-9.751846313E0,-5.115448730E-4
3.621285605E1,-1.090327501E0,-9.745650291E0,-6.225806475E-2
3.623325605E1,-1.136963606E0,-9.739004135E0,-1.717875600E-1
3.625339141E1,-1.177711248E0,-9.729696274E0,-3.411542475E-1
3.627365912E1,-1.219898820E0,-9.713456154E0,-5.753194690E-1
3.629392678E1,-1.265447497E0,-9.685127258E0,-8.759779930E-1
3.631419449E1,-1.331422091E0,-9.639667511E0,-1.214290857E0
3.633459449E1,-1.414117813E0,-9.579525948E0,-1.550269246E0
3.635472985E1,-1.492346406E0,-9.510602951E0,-1.868616700E0
3.637499751E1,-1.550819397E0,-9.427829742E0,-2.209383249E0
3.639526522E1,-1.538637996E0,-9.314060211E0,-2.655422688E0
3.641553287E1,-1.390865803E0,-9.151173592E0,-3.239121199E0
3.643593287E1,-1.068517089E0,-8.950599670E0,-3.862048388E0
3.645606824E1,-7.250520587E-1,-8.817934036E0,-4.229506493E0
3.647633589E1,-4.423965812E-1,-8.841772079E0,-4.218736649E0
3.649660360E1,-6.577555835E-2,-8.923831940E0,-4.065867901E0
3.651687126E1,3.734012842E-1,-8.968904495E0,-3.948379755E0
3.653727126E1,7.341557741E-1,-8.986428261E0,-3.856877089E0
3.655740662E1,8.749575019E-1,-9.017489433E0,-3.753626823E0
3.657767433E1,8.652463555E-1,-9.064741135E0,-3.640356302E0
3.659794199E1,8.296393752E-1,-9.103998184E0,-3.549546957E0
3.661820964E1,7.845538259E-1,-9.125548363E0,-3.504174232E0
3.663847735E1,6.741449833E-1,-9.136939049E0,-3.497464418E0
3.665874506E1,4.478615820E-1,-9.164224625E0,-3.462194204E0
3.667901272E1,1.278811544E-1,-9.241583824E0,-3.278285980E0
3.669928037E1,-1.817260832E-1,-9.349857330E0,-2.952549219E0
3.671954808E1,-4.582554996E-1,-9.460964203E0,-2.539792538E0
3.673981574E1,-7.266212106E-1,-9.541903496E0,-2.143477917E0
3.676008344E1,-1.008541107E0,-9.578750610E0,-1.844114542E0
3.678035110E1,-1.264026880E0,-9.587018967E0,-1.631467104E0
3.680061881E1,-1.400848389E0,-9.600684166E0,-1.426491857E0
3.682088647E1,-1.420487642E0,-9.618734360E0,-1.277710438E0
3.684115412E1,-1.352430224E0,-9.626444817E0,-1.293395638E0
3.686142183E1,-1.265475750E0,-9.623744965E0,-1.397316933E0
3.688168949E1,-1.171128750E0,-9.627549171E0,-1.452289581E0
3.690195720E1,-1.037845016E0,-9.652035713E0,-1.389771938E0
3.692222485E1,-8.848015666E-1,-9.691823959E0,-1.206671596E0
3.694249256E1,-7.513404489E-1,-9.730633736E0,-9.595091939E-1
3.696276022E1,-6.283683777E-1,-9.759152412E0,-7.310898304E-1
3.698302787E1,-5.068870783E-1,-9.772918701E0,-6.352235079E-1
3.700329558E1,-3.789726794E-1,-9.736178398E0,-1.110674739E0
3.702356324E1,-3.489833772E-1,-9.688301086E0,-1.478322268E0
3.704383089E1,-3.081453741E-1,-9.695722580E0,-1.438192606E0
3.706423089E1,-3.598473668E-1,-9.723485947E0,-1.222585678E0
3.708436626E1,-5.402783155E-1,-9.741786003E0,-9.879669547E-1
3.710463391E1,-7.938643694E-1,-9.743720055E0,-7.746500373E-1
3.712490162E1,-1.028308272E0,-9.735059738E0,-5.844427347E-1
3.714516928E1,-1.171805620E0,-9.721411705E0,-5.398181081E-1
3.716543694E1,-1.226353645E0,-9.695681572E0,-8.125286698E-1
3.718570464E1,-1.225951433E0,-9.659387589E0,-1.167762756E0
3.720597230E1,-1.206796050E0,-9.659602165E0,-1.185800314E0
3.722623996E1,-1.174003839E0,-9.685923576E0,-9.874103665E-1
3.724650766E1,-1.116722345E0,-9.710916519E0,-7.882972360E-1
3.726677532E1,-1.052149892E0,-9.724528313E0,-7.049193978E-1
3.728704303E1,-1.016521335E0,-9.724479675E0,-7.560148835E-1
3.730731069E1,-1.015890956E0,-9.709860802E0,-9.257141352E-1
3.732757834E1,-1.043068290E0,-9.678001404E0,-1.191087365E0
3.734784605E1,-1.096146464E0,-9.632206917E0,-1.479676723E0
3.736811370E1,-1.135976195E0,-9.578838348E0,-1.767997384E0
3.738838141E1,-1.114516735E0,-9.511211395E0,-2.113077641E0
3.740864907E1,-9.901565313E-1,-9.402502060E0,-2.604404926E0
3.742891673E1,-7.729763389E-1,-9.226548195E0,-3.231673717E0
3.744918438E1,-5.836022496E-1,-9.033526421E0,-3.771627903E0
3.746945209E1,-4.788453877E-1,-8.888309479E0,-4.115707874E0
3.748971975E1,-4.163849056E-1,-8.828308105E0,-4.249468327E0
3.750998740E1,-3.516649902E-1,-8.871165276E0,-4.165229797E0
3.753025511E1,-2.499682009E-1,-8.948344231E0,-4.004375935E0
3.755052277E1,-1.233391985E-1,-9.025137901E0,-3.834326029E0
3.757079042E1,4.287727550E-2,-9.117780685E0,-3.610348701E0
3.759105808E1,1.236164644E-1,-9.236095428E0,-3.293879509E0
3.761132579E1,4.285594076E-2,-9.363224030E0,-2.915233850E0
3.763172579E1,-1.463561505E-1,-9.464108467E0,-2.565076590E0
3.765186110E1,-3.618968129E-1,-9.524124146E0,-2.308782578E0
3.767212881E1,-5.802175999E-1,-9.556499481E0,-2.122982979E0
3.769239652E1,-8.343425989E-1,-9.574847221E0,-1.948477387E0
3.771266417E1,-1.128034115E0,-9.586125374E0,-1.733243823E0
3.773306417E1,-1.403542757E0,-9.587103844E0,-1.512578130E0
3.775319954E1,-1.540167570E0,-9.593769073E0,-1.325843334E0
3.777346714E1,-1.484958887E0,-9.621508598E0,-1.179762840E0
3.779373485E1,-1.343341827E0,-9.655647278E0,-1.065037251E0
3.781400256E1,-1.187310696E0,-9.683218002E0,-9.979726076E-1
3.783440256E1,-1.016694665E0,-9.704908371E0,-9.754329324E-1
3.785453787E1,-8.465153575E-1,-9.726837158E0,-9.178484678E-1
3.787480553E1,-6.882218122E-1,-9.748250008E0,-8.175358772E-1
3.789507324E1,-5.334098339E-1,-9.763502121E0,-7.482480407E-1
3.791534089E1,-3.946514428E-1,-9.755864143E0,-9.152996540E-1
3.793574089E1,-3.411899805E-1,-9.678596497E0,-1.542316079E0
3.795587626E1,-3.046461344E-1,-9.637497902E0,-1.787790775E0
3.797614391E1,-2.626204491E-1,-9.659253120E0,-1.673390985E0
3.799641157E1,-3.025301397E-1,-9.700023651E0,-1.410105109E0
3.801667923E1,-4.254887700E-1,-9.735828400E0,-1.096802235E0
3.803694688E1,-5.672646165E-1,-9.753785133E0,-8.439719081E-1
3.805721459E1,-5.362954140E-1,-9.742764473E0,-9.804619551E-1
3.807748225E1,-4.427466989E-1,-9.704916954E0,-1.337516308E0
3.809774996E1,-5.084730387E-1,-9.668456078E0,-1.559746504E0
3.811801761E1,-6.426681280E-1,-9.656134605E0,-1.586325288E0
3.813828527E1,-7.133072019E-1,-9.661639214E0,-1.521287084E0
3.815855292E1,-6.911760569E-1,-9.665118217E0,-1.509348631E0
3.817882063E1,-6.583122015E-1,-9.650105476E0,-1.616317153E0
3.819908829E1,-6.754761338E-1,-9.623336792E0,-1.762244105E0
3.821935589E1,-7.277633548E-1,-9.592423439E0,-1.904247046E0
3.823962365E1,-8.010955453E-1,-9.551445961E0,-2.073285580E0
3.825989131E1,-8.392750025E-1,-9.472108841E0,-2.396903515E0
3.828015897E1,-7.204292417E-1,-9.315210342E0,-2.979634762E0
3.830042667E1,-4.600070715E-1,-9.115252495E0,-3.587613344E0
3.832069433E1,-2.388100922E-1,-8.938174248E0,-4.027703762E0
3.834096199E1,-1.004940346E-1,-8.822261810E0,-4.281121254E0
3.836122970E1,1.047464204E-3,-8.816436768E0,-4.294277191E0
3.838149735E1,9.832865000E-2,-8.861558914E0,-4.199226379E0
3.840176501E1,1.476211995E-1,-8.907219887E0,-4.100003719E0
3.842203266E1,2.037972212E-1,-8.962556839E0,-3.975099802E0
3.844230032E1,2.548536062E-1,-9.044133186E0,-3.782736778E0
3.846256803E1,2.420166433E-1,-9.160161018E0,-3.493317842E0
3.848283569E1,1.908463389E-1,-9.290301323E0,-3.134366751E0
3.850310334E1,9.159291536E-2,-9.398075104E0,-2.799674749E0
3.852337105E1,-7.688093185E-2,-9.463615417E0,-2.569913149E0
3.854363870E1,-3.175750971E-1,-9.500705719E0,-2.409588575E0
3.856390636E1,-6.149756908E-1,-9.530900955E0,-2.225783110E0
3.858417402E1,-8.902624249E-1,-9.559618950E0,-1.997877955E0
3.860444173E1,-1.064195275E0,-9.588282585E0,-1.761450887E0
3.862470938E1,-1.110448956E0,-9.619894981E0,-1.547547936E0
3.864497704E1,-1.077682614E0,-9.651901245E0,-1.360071182E0
3.866524475E1,-1.017776012E0,-9.678110123E0,-1.211899400E0
3.868551240E1,-9.510855079E-1,-9.694772720E0,-1.130144358E0
3.870578006E1,-8.865962625E-1,-9.703768730E0,-1.105078697E0
3.872604772E1,-8.124494553E-1,-9.716088295E0,-1.052594781E0
3.874631542E1,-7.088574767E-1,-9.736179352E0,-9.352595210E-1
3.876658308E1,-5.697230101E-1,-9.755503654E0,-8.221625090E-1
3.878685074E1,-4.229500592E-1,-9.765769958E0,-7.881928682E-1
3.880711839E1,-3.477450311E-1,-9.757749557E0,-9.142225385E-1
3.882738605E1,-3.448364139E-1,-9.739864349E0,-1.089274049E0
3.884765376E1,-3.575857878E-1,-9.732437134E0,-1.149859071E0
3.886792141E1,-4.370512366E-1,-9.733264923E0,-1.114867449E0
3.888818907E1,-5.763487220E-1,-9.735152245E0,-1.032001138E0
3.890845678E1,-7.426889539E-1,-9.735890388E0,-9.117231369E-1
3.892872444E1,-8.960871696E-1,-9.738403320E0,-7.286220789E-1
3.894899209E1,-9.726242423E-1,-9.741440773E0,-5.733268857E-1
3.896925980E1,-9.785928726E-1,-9.745324135E0,-4.913438857E-1
3.898952746E1,-9.675054550E-1,-9.750782013E0,-3.957038820E-1
3.900979511E1,-9.265338778E-1,-9.758729935E0,-2.812828124E-1
3.903006277E1,-8.403865695E-1,-9.768584251E0,-1.972486675E-1
3.905033048E1,-7.590339780E-1,-9.775141716E0,-2.021006048E-1
3.907059813E1,-7.259563804E-1,-9.775305748E0,-2.945351005E-1
3.909086579E1,-7.368745804E-1,-9.767427444E0,-4.740816951E-1
3.911113344E1,-7.789970040E-1,-9.749427795E0,-7.156915069E-1
3.913140115E1,-8.450953960E-1,-9.723344803E0,-9.553843737E-1
3.915166881E1,-9.199916720E-1,-9.690420151E0,-1.191539526E0
3.917193647E1,-1.008148193E0,-9.641661644E0,-1.480669498E0
3.919220412E1,-1.075768948E0,-9.567024231E0,-1.866854668E0
3.921247183E1,-1.075874090E0,-9.461102486E0,-2.345296860E0
3.923287183E1,-9.913606644E-1,-9.300115585E0,-2.948804140E0
3.925300714E1,-8.486184478E-1,-9.072098732E0,-3.625915289E0
3.927327480E1,-7.039226294E-1,-8.835952759E0,-4.195333004E0
3.929354251E1,-4.875292182E-1,-8.632671356E0,-4.627061367E0
3.931381016E1,-2.045372427E-1,-8.545323372E0,-4.806870937E0
3.933421016E1,3.976284713E-2,-8.591991425E0,-4.727206707E0
3.935434553E1,1.446938664E-1,-8.681564331E0,-4.558496475E0
3.937461318E1,1.848491877E-1,-8.766644478E0,-4.391144276E0
3.939488084E1,1.995469630E-1,-8.851775169E0,-4.216236591E0
3.941514855E1,1.814168394E-1,-8.958928108E0,-3.984353304E0
3.943554855E1,1.098288074E-1,-9.092744827E0,-3.671554327E0
3.945568386E1,-2.293193899E-2,-9.228840828E0,-3.316377163E0
3.947595152E1,-1.964326799E-1,-9.341082573E0,-2.979256392E0
3.949621923E1,-3.969433904E-1,-9.416007996E0,-2.711384535E0
3.951648688E1,-6.330713034E-1,-9.470541000E0,-2.465451002E0
3.953688688E1,-8.815373182E-1,-9.516274452E0,-2.198591471E0
3.955702225E1,-1.063895345E0,-9.556916237E0,-1.924544573E0
3.957728990E1,-1.141970754E0,-9.597789764E0,-1.657927990E0
3.959755756E1,-1.141174912E0,-9.638293266E0,-1.404068828E0
3.961782522E1,-1.103488922E0,-9.675933838E0,-1.152826548E0
3.963809292E1,-1.071952343E0,-9.702139854E0,-9.432892799E-1
3.965836058E1,-1.091087937E0,-9.705780983E0,-8.818895817E-1
3.967862824E1,-1.166181326E0,-9.678030968E0,-1.070577860E0
3.969889595E1,-1.181346416E0,-9.647920609E0,-1.300943375E0
3.971916360E1,-1.089392662E0,-9.656319618E0,-1.318754077E0
3.973943126E1,-8.992192149E-1,-9.687501907E0,-1.230487585E0
3.975969897E1,-6.723086238E-1,-9.716211319E0,-1.146132231E0
3.977996662E1,-5.782629848E-1,-9.722260475E0,-1.146146297E0
3.980023428E1,-6.107394695E-1,-9.719459534E0,-1.153043389E0
3.982050199E1,-7.235875726E-1,-9.707684517E0,-1.186450601E0
3.984076964E1,-8.955303431E-1,-9.692448616E0,-1.193672299E0
3.986103730E1,-1.070702553E0,-9.683737755E0,-1.117677569E0
3.988130501E1,-1.206714392E0,-9.684818268E0,-9.583924413E-1
3.990157266E1,-1.272057533E0,-9.685968399E0,-8.568878174E-1
3.992184032E1,-1.252457976E0,-9.686954498E0,-8.744457364E-1
3.994210803E1,-1.206361055E0,-9.702154160E0,-7.637420297E-1
3.996237569E1,-1.167050004E0,-9.724861145E0,-4.852528870E-1
3.998264334E1,-1.134364247E0,-9.739516258E0,-1.594697684E-1
4.000291105E1,-1.090466857E0,-9.745778084E0,3.283159435E-2
4.002317870E1,-1.014644384E0,-9.754016876E0,-5.345282145E-3
4.004344636E1,-9.408507943E-1,-9.759694099E0,-1.832282990E-1
4.006371402E1,-8.976071477E-1,-9.758397102E0,-3.719909489E-1
4.008398173E1,-8.493765593E-1,-9.753558159E0,-5.630804300E-1
4.010424938E1,-8.026100397E-1,-9.742356300E0,-7.827513814E-1
4.012451709E1,-7.991828918E-1,-9.720166206E0,-1.024725437E0
4.014478475E1,-8.408030868E-1,-9.685238838E0,-1.288252711E0
4.016505235E1,-9.341356754E-1,-9.634792328E0,-1.571167350E0
4.018532006E1,-1.065196395E0,-9.565238953E0,-1.882003307E0
4.020558777E1,-1.167389631E0,-9.475956917E0,-2.239157677E0
4.022585542E1,-1.136900187E0,-9.359144211E0,-2.698934078E0
4.024612303E1,-9.206190705E-1,-9.188902855E0,-3.299532890E0
4.026639079E1,-5.954464674E-1,-8.976793289E0,-3.902948380E0
4.028665844E1,-3.392251730E-1,-8.760572433E0,-4.394051075E0
4.030692610E1,-1.657209247E-1,-8.554413795E0,-4.792175293E0
4.032732610E1,-4.918811470E-2,-8.436141968E0,-4.999946594E0
4.034746147E1,-2.294252813E-2,-8.490369797E0,-4.907492638E0
4.036772912E1,-2.096830681E-2,-8.610517502E0,-4.693500042E0
4.038799678E1,4.322222993E-2,-8.715313911E0,-4.495755196E0
4.040839678E1,1.296319813E-1,-8.824020386E0,-4.276710510E0
4.042853214E1,1.443810165E-1,-8.950657845E0,-4.004406929E0
4.044879980E1,4.249881580E-2,-9.089262009E0,-3.681561708E0
4.046906746E1,-1.756105870E-1,-9.205539703E0,-3.376032829E0
4.048933511E1,-4.886341691E-1,-9.281999588E0,-3.126676321E0
4.050960282E1,-8.329480886E-1,-9.331805229E0,-2.897237539E0
4.052987048E1,-1.107734084E0,-9.373738289E0,-2.660137177E0
4.055013813E1,-1.246838570E0,-9.418571472E0,-2.430289984E0
4.057040584E1,-1.295670509E0,-9.460908890E0,-2.232221603E0
4.059067350E1,-1.322583079E0,-9.497792244E0,-2.052585125E0
4.061094115E1,-1.325176716E0,-9.535572052E0,-1.867395520E0
4.063120881E1,-1.285898805E0,-9.576823235E0,-1.673703074E0
4.065147647E1,-1.248066545E0,-9.609327316E0,-1.507831335E0
4.067174417E1,-1.228177309E0,-9.630307198E0,-1.385331035E0
4.069201183E1,-1.200221777E0,-9.649205208E0,-1.273849010E0
4.071227949E1,-1.155629158E0,-9.670661926E0,-1.145956516E0
4.073267949E1,-1.095594168E0,-9.693445206E0,-1.003583550E0
