"Time (s)","Gyroscope x (rad/s)","Gyroscope y (rad/s)","Gyroscope z (rad/s)"
5.520433000E-2,-1.269794226E0,-1.298689485E0,6.073334217E-1
7.531506000E-2,-1.443432212E0,-1.606950164E0,5.073317885E-1
9.558276800E-2,-1.535577536E0,-2.091511965E0,5.552686453E-1
1.158506330E-1,-1.281512141E0,-2.688991785E0,6.872282028E-1
1.362506330E-1,-9.444893599E-1,-3.196456671E0,6.233124137E-1
1.563864140E-1,-6.978808641E-1,-3.231077671E0,3.182475269E-1
1.766542780E-1,-4.929507375E-1,-2.793920279E0,4.082622826E-1
1.969221950E-1,-1.957421899E-1,-2.035053015E0,1.031841040E0
2.171901120E-1,2.350237966E-1,-1.675127029E0,1.778324485E0
2.374580280E-1,4.571312666E-1,-1.168727398E0,2.072337151E0
2.577259450E-1,2.174469382E-1,-1.719069183E-1,1.974333048E0
2.779939140E-1,-3.086601496E-1,2.350237966E-1,1.968474030E0
2.982618830E-1,-8.321040869E-1,-3.091927767E-1,1.954092979E0
3.185298510E-1,-1.045689464E0,-9.034767151E-1,1.746899247E0
3.387978200E-1,-9.423588514E-1,-1.194826365E0,1.461541772E0
3.590657890E-1,-8.555398583E-1,-8.496809006E-1,1.522261739E0
3.793338100E-1,-7.692534924E-1,-1.082440972E0,1.834250808E0
3.996017780E-1,-7.410240173E-1,-1.153813720E0,2.025998354E0
4.198697470E-1,-8.352998495E-1,-9.354346395E-1,1.872067690E0
4.401377680E-1,-6.925545335E-1,-1.160737872E0,1.595764875E0
4.604057890E-1,-2.873548567E-1,-2.220941544E0,1.143560529E0
4.806737580E-1,-1.776327193E-1,-3.240132570E0,1.075516820E0
5.009417780E-1,-4.364917874E-1,-2.947185040E0,1.203747869E0
5.212097470E-1,-5.546028614E-1,-1.618668079E0,7.676556110E-1
5.414777160E-1,-5.041360259E-1,-1.735847116E0,7.655251026E-1
5.617457370E-1,-4.647212625E-1,-2.612825394E0,1.578188062E0
5.820137580E-1,-5.025381446E-1,-3.463172197E0,2.345976830E0
6.024137580E-1,-7.266429663E-1,-3.466367960E0,1.743703365E0
6.225496950E-1,-9.508809447E-1,-2.427469492E0,2.932138145E-1
6.428177160E-1,-1.141962647E0,-1.790175557E0,-1.498026997E-1
6.630856850E-1,-1.610678673E0,-2.225735188E0,1.568600684E-1
6.833537050E-1,-1.936516166E0,-2.999382973E0,2.777675092E-1
7.036216740E-1,-2.229330540E0,-3.016959906E0,1.978727281E-1
7.238896430E-1,-2.568084240E0,-2.079794168E0,-9.760478139E-2
7.441576640E-1,-2.315084219E0,-1.450356483E0,-6.775076985E-1
7.644256330E-1,-1.458878517E0,-1.393897533E0,-1.045955777E0
7.846936530E-1,-6.760429144E-1,-1.614407063E0,-1.050216794E0
8.049616220E-1,-4.530033767E-1,-1.810948133E0,-8.543414474E-1
8.252295910E-1,-5.451486707E-1,-1.569133401E0,-6.934866309E-1
8.454975080E-1,-7.671229839E-1,-9.881651998E-1,-6.759097576E-1
8.657655800E-1,-1.129712105E0,-4.577970505E-1,-6.641919017E-1
8.860335490E-1,-1.506282806E0,-3.219759464E-1,-7.275750637E-1
9.063015700E-1,-1.712810755E0,-7.869634777E-2,-8.862993717E-1
9.265695390E-1,-1.738377094E0,3.403517306E-1,-9.859014750E-1
9.468375080E-1,-1.722398162E0,6.769750714E-1,-7.510108948E-1
9.671055280E-1,-1.615472317E0,4.511391521E-1,-4.709796906E-1
9.873734970E-1,-1.502554417E0,1.785648167E-1,-4.768386483E-1
1.007641518E0,-1.690972924E0,-2.235722095E-1,-5.874928832E-1
1.027909487E0,-2.235722065E0,-6.761760712E-1,-6.807034612E-1
1.048177508E0,-2.766622782E0,-6.010749936E-1,-7.648593187E-1
1.068445476E0,-2.551040173E0,-6.016076207E-1,-7.392929792E-1
1.088713497E0,-1.133440495E0,-1.043026209E0,-6.791055799E-1
1.108981466E0,1.018658355E-1,-7.894935012E-1,-3.372890949E-1
1.129249487E0,1.663142890E-1,-6.255760789E-1,8.442214131E-2
1.149517455E0,-7.964177132E-1,-1.788311303E-1,5.408875942E-1
1.169785476E0,-1.767139196E0,5.475454926E-1,8.097335100E-1
1.190053497E0,-2.157558441E0,6.838992834E-1,7.080008388E-1
1.210321466E0,-1.842772961E0,8.002793044E-2,1.786979735E-1
1.230589383E0,-1.426920652E0,-3.789675534E-1,-2.121206224E-1
1.250857455E0,-1.382712245E0,-4.652538896E-1,2.921485603E-1
1.271125424E0,-1.612276554E0,-1.585911214E-1,1.001480937E0
1.291393497E0,-2.030791998E0,-8.242477477E-2,1.270326853E0
1.311661518E0,-2.276202202E0,-7.985482812E-1,1.674461246E0
1.331929487E0,-1.446627975E0,-2.321076393E0,2.319877863E0
1.352197508E0,-8.645945787E-1,-3.176216602E0,3.266764164E0
1.372465528E0,-2.820285559E-1,-4.318978310E0,3.936016083E0
1.392733549E0,3.378217220E-1,-4.161319256E0,4.075032711E0
1.413001570E0,1.249953747E0,-2.516418934E0,3.542534351E0
1.433401570E0,2.531199455E0,1.886848211E-1,2.302300930E0
1.453537560E0,3.241996765E0,7.669898272E-1,1.599493384E0
1.473805580E0,3.551455736E0,7.408908606E-1,1.621331215E0
1.494073601E0,3.639872789E0,7.616634965E-1,2.135720491E0
1.514473601E0,3.094058275E0,4.665854871E-1,2.638924360E0
1.534767508E0,1.912414551E0,8.032087684E-1,3.124018669E0
1.554878237E0,9.028109312E-1,1.841041923E0,3.713509083E0
1.575146101E0,5.592634082E-1,2.723879099E0,4.183156967E0
1.595414070E0,4.544681013E-1,2.855439186E0,4.312054157E0
1.615681987E0,3.202448785E-1,3.134937763E0,4.436024189E0
1.636081987E0,-9.827057272E-2,5.017391682E0,5.058537483E0
1.656217976E0,-1.304947957E-2,6.467348576E0,4.602205276E0
1.676485945E0,1.017859459E0,3.199386120E0,1.009337306E-1
1.696753914E0,1.190298915E0,5.347623229E-1,-1.679654479E0
1.717021883E0,1.065796256E0,-7.454182506E-1,-1.366600037E0
1.737421883E0,1.021587849E0,-1.273123264E0,-6.876276731E-1
1.757557976E0,9.129309654E-1,-1.572329164E0,8.016108721E-2
1.777825945E0,4.464786351E-1,-1.584579706E0,6.787061095E-1
1.798093966E0,-4.460791349E-1,-1.024916768E0,7.223818898E-1
1.818361987E0,-1.291632175E0,-2.649843395E-1,3.613906801E-1
1.838630008E0,-1.639840245E0,3.201117218E-1,-2.623211779E-2
1.858898080E0,-1.340634346E0,6.902908683E-1,-2.073269337E-1
1.879166101E0,-5.471460223E-1,9.458209276E-1,-2.025332451E-1
1.899434122E0,3.500722647E-1,1.001747251E0,-1.391500682E-1
1.919702143E0,9.491499066E-1,6.908234954E-1,-1.215732098E-1
1.939970216E0,1.059937358E0,2.115879953E-1,-1.327584833E-1
1.960238237E0,7.078676820E-1,-4.130559862E-1,-9.227846563E-2
1.980506258E0,1.402153224E-1,-7.507445216E-1,-8.655266836E-3
2.000774278E0,-2.628538013E-1,-3.992075622E-1,2.170474641E-2
2.021042351E0,-4.279696643E-1,1.583248079E-1,5.832318589E-2
2.041310372E0,-3.938812315E-1,4.559328258E-1,9.933583438E-2
2.061578393E0,-2.447443157E-1,4.447475672E-1,9.081372619E-2
2.081846466E0,-6.151897460E-2,3.079943359E-1,7.110634446E-2
2.102114435E0,5.765739456E-2,2.494048476E-1,4.767054692E-2
2.122382560E0,8.801741153E-2,2.664490640E-1,4.247738793E-2
2.142650580E0,6.511423737E-2,2.712427676E-1,5.086633936E-2
2.162918601E0,2.569948509E-2,2.163816839E-1,5.299686641E-2
2.183186674E0,6.657897611E-4,9.494162351E-2,5.299686641E-2
2.203454695E0,2.796316985E-3,-4.514054582E-2,4.607265070E-2
2.223722768E0,3.049317189E-2,-1.117195264E-1,3.235738352E-2
2.243990789E0,7.683213800E-2,-1.063932031E-1,1.105211023E-2
2.264258810E0,1.311605871E-1,-7.017423958E-2,-1.078579482E-2
2.284526883E0,1.753690243E-1,-4.460791498E-2,-2.783001214E-2
2.304794903E0,1.822932363E-1,-2.649843320E-2,-3.901528195E-2
2.325062976E0,1.466069072E-1,1.198421582E-3,-4.540686309E-2
2.345330997E0,9.707214683E-2,3.954791278E-2,-4.647212476E-2
2.365599070E0,7.203845680E-2,7.843003422E-2,-3.528685868E-2
2.385867091E0,8.482161909E-2,1.162468940E-1,-1.504684892E-2
2.405860580E0,1.135837361E-1,1.466069072E-1,2.117211558E-2
2.426260580E0,1.423458606E-1,1.460742801E-1,7.749792933E-2
2.446660580E0,1.583248079E-1,1.167795286E-1,1.563274413E-1
2.466940112E0,1.487374306E-1,9.174583107E-2,2.564622164E-1
2.487207976E0,1.109205782E-1,5.020054802E-2,3.571296334E-1
2.507475893E0,4.913528636E-2,-5.419528857E-2,4.460791349E-1
2.527875893E0,-3.115896136E-2,-2.335590571E-1,4.977444410E-1
2.548011935E0,-1.227716357E-1,-5.014728308E-1,4.881570637E-1
2.568279851E0,-1.920137703E-1,-7.624624372E-1,4.285022914E-1
2.588547820E0,-1.920137703E-1,-9.700556993E-1,2.958769798E-1
2.608815841E0,-1.099884734E-1,-1.088832617E0,1.280979514E-1
2.629083810E0,1.078579482E-2,-9.791104198E-1,-9.440898895E-2
2.649351883E0,1.087900475E-1,-7.257108688E-1,-4.017375410E-1
2.669619851E0,1.434111148E-1,-5.387570858E-1,-4.757733643E-1
2.689887872E0,-3.595264861E-3,-2.665822208E-1,-4.054659605E-1
2.710155945E0,-2.974748611E-1,3.398191035E-1,-3.585943878E-1
2.730423966E0,-4.966791868E-1,9.602020383E-1,-3.484743834E-1
2.750692039E0,-5.711144805E-1,1.183907390E0,-2.808301151E-1
2.770960060E0,-6.978808641E-1,1.060869455E0,-2.360890508E-1
2.791228133E0,-1.092960477E0,6.828339696E-1,-3.016027808E-1
2.811496153E0,-1.746899247E0,-2.681801319E-1,-3.692470193E-1
2.831764226E0,-1.654221296E0,-7.582014203E-1,-4.167843983E-2
2.852032299E0,-9.237167239E-1,-1.005342528E-1,3.075948656E-1
2.872300320E0,-3.070622385E-1,6.103960872E-1,4.279696643E-1
2.892568393E0,-1.376853287E-1,6.945518851E-1,4.002728164E-1
2.912836466E0,-5.126581192E-1,8.801741153E-2,2.170474678E-1
2.933236466E0,-9.263799191E-1,-1.074984193E0,2.916159295E-2
2.953372560E0,-1.084971070E0,-1.929591894E0,-5.925529078E-2
2.973640633E0,-1.123320460E0,-1.732118726E0,-1.141163707E-1
2.993908705E0,-1.230912089E0,-1.192695856E0,-1.119858399E-1
3.014176726E0,-1.335840583E0,-9.418262243E-1,-1.237037405E-1
3.034576726E0,-1.510543823E0,-1.200152636E0,-1.183774248E-1
3.054712820E0,-1.644101262E0,-1.414670110E0,-4.807002097E-2
3.074980893E0,-1.705353975E0,-1.208674788E0,-5.765739456E-2
3.095248966E0,-2.033987761E0,-7.241129875E-1,-1.199753210E-1
3.115516987E0,-2.385391712E0,-2.814959288E-1,-2.707101107E-1
3.135916987E0,-2.406696796E0,-1.660479754E-1,-5.475454926E-1
3.156053133E0,-1.784183383E0,-4.151864946E-1,-1.077381015E0
3.176321153E0,-7.143924236E-1,1.205079481E-1,-1.539172769E0
3.196589226E0,1.870869249E-1,1.261139035E0,-1.325587392E0
3.216857299E0,9.667267799E-1,1.800561905E0,-1.021587849E0
3.237125320E0,1.551423311E0,1.388837457E0,-6.615287066E-1
3.257393393E0,1.650892377E0,5.347623229E-1,-3.266364634E-1
3.277661466E0,1.329315901E0,1.183774248E-1,-1.364869028E-1
3.297929539E0,1.072587371E0,-2.298306376E-1,4.926844314E-2
3.318197560E0,9.512804151E-1,-7.937545776E-1,4.615254700E-1
3.338465633E0,7.254445553E-1,-1.562741756E0,9.183903933E-1
3.358733705E0,3.085269928E-1,-2.529202223E0,1.089365244E0
3.379001726E0,-3.177148700E-1,-3.350919962E0,9.189230204E-1
3.399269799E0,-1.095090985E0,-2.990328312E0,4.684496820E-1
3.419537872E0,-8.933567405E-1,-1.512674332E0,1.110537350E-1
3.439805893E0,1.199753210E-1,1.354216337E-1,7.909582555E-2
3.460073966E0,8.591351509E-1,1.318663239E0,1.051947847E-1
3.480342039E0,1.256877899E0,1.867673516E0,8.708529919E-2
3.500610112E0,1.403351665E0,1.663675547E0,-4.860265180E-2
3.520878133E0,1.208408475E0,8.712524772E-1,-1.652490199E-1
3.541146205E0,7.062698007E-1,6.032055244E-2,-2.435459048E-1
3.561414278E0,1.812279820E-1,-1.463405937E-1,-3.138532937E-1
3.581682247E0,-1.163800508E-1,4.593949392E-2,-3.266364634E-1
3.601950372E0,-1.115863696E-1,2.973417044E-1,-2.669816911E-1
3.622218445E0,2.147837877E-1,4.474107325E-1,-2.398174703E-1
3.642486466E0,7.616634965E-1,3.456780612E-1,-3.111901283E-1
3.662754539E0,1.367665410E0,2.105227262E-1,-3.436806798E-1
3.683022612E0,1.809083939E0,-1.197090000E-1,-3.245059252E-1
3.703290633E0,1.580185413E0,-1.117594719E0,-2.355564237E-1
3.723558705E0,5.146554708E-1,-2.918422937E0,1.153147891E-1
3.743826778E0,-2.010685056E-1,-2.905772924E0,7.057371736E-2
3.764226778E0,-9.119988084E-1,-6.314350367E-1,-2.680469751E-1
3.784362872E0,-2.669284344E0,3.949198723E0,-1.838911325E-1
3.804630893E0,-3.944138587E-1,8.334889412E0,5.776392221E-1
3.824898966E0,1.338370562E0,7.841671944E0,4.343612492E-1
3.845167039E0,1.681784987E0,3.689274311E0,1.041295230E-1
3.865435060E0,6.988129616E-1,-2.433328390E0,2.266348451E-1
3.885703133E0,-1.131842583E-1,-5.310472488E0,5.190497041E-1
3.905971153E0,-5.668534040E-1,-5.499556541E0,7.197187543E-1
3.926239226E0,-5.828323960E-1,-4.837628365E0,9.412935972E-1
3.946507299E0,-4.055991173E-1,-3.045189381E0,8.795083165E-1
3.966775320E0,-8.155924678E-1,2.772881269E0,2.532664239E-1
3.987043393E0,3.633880615E-1,6.537656307E0,-3.585943878E-1
4.007311414E0,2.754239082E0,5.075448513E0,5.352949724E-2
4.027579487E0,3.048784494E0,2.710030794E0,9.187898785E-2
4.047847560E0,1.728656530E0,4.063980877E-1,-1.157142594E-1
4.068115528E0,2.046637833E-1,-1.680986047E0,-8.801741153E-2
4.088383653E0,-4.423507154E-1,-2.617619038E0,9.614004195E-2
4.108651674E0,-5.115928650E-1,-2.408294678E0,6.311687082E-2
4.128919747E0,-7.069355845E-1,-1.402952194E0,1.376853287E-1
4.149187768E0,-5.387570858E-1,-3.230412006E-1,2.356895804E-1
4.169455841E0,-1.904158741E-1,4.916191697E-1,4.167844057E-1
4.189723914E0,-1.464737463E-3,1.011867285E0,4.668518007E-1
4.209991935E0,-1.062600464E-1,9.293093681E-1,1.749695539E-1
4.230260008E0,-5.519397259E-1,4.681833684E-1,-2.303632535E-2
4.250528028E0,-9.610009789E-1,-9.627319872E-2,-3.848264739E-2
4.270796049E0,-9.641967416E-1,-7.123950720E-1,-1.198421582E-3
4.291064122E0,-9.759146571E-1,-1.088832617E0,8.442214131E-2
4.311332195E0,-1.476455450E0,-8.874977827E-1,2.767022252E-1
4.331732195E0,-2.351303101E0,-1.857553422E-1,2.181127369E-1
4.351868289E0,-3.079277754E0,3.691138625E-1,3.595264861E-3
4.372136310E0,-3.165564060E0,1.881521940E-1,-7.363634557E-2
4.392404383E0,-3.151182890E0,-2.468748540E-1,-5.978792161E-2
4.412672403E0,-3.042526007E0,-5.563339591E-1,-1.194426864E-1
4.433072403E0,-2.546246529E0,3.776359558E-1,-4.953475893E-1
4.453208497E0,-9.157272577E-1,1.665806055E0,-1.140231609E0
4.473476570E0,7.350319028E-1,2.686062336E0,-9.166593552E-1
4.493744591E0,8.186551332E-1,2.237186909E0,-1.865542978E-1
4.514012612E0,5.848297477E-1,1.101349473E0,-3.026680350E-1
4.534412612E0,6.625939608E-1,4.340949357E-1,-4.773712754E-1
4.554548705E0,1.049284697E0,6.617950648E-2,-3.452785909E-1
4.574816778E0,1.607749104E0,-8.615319431E-2,9.081372619E-2
4.595084799E0,2.080726147E0,9.121319652E-2,4.988096952E-1
4.615352872E0,2.059420824E0,7.057371549E-3,7.878956199E-1
4.635752872E0,1.662610173E0,-1.002013564E0,9.801757336E-1
4.655888966E0,1.203614712E0,-2.251301527E0,8.432893157E-1
4.676156987E0,7.089329362E-1,-2.989795685E0,3.187801540E-1
4.696425008E0,1.759016514E-1,-2.857836008E0,-7.044056058E-2
4.716693080E0,1.731053460E-3,-1.750228167E0,-2.057290375E-1
4.737093080E0,3.735080659E-1,2.174469382E-1,-2.131858915E-1
4.757229122E0,6.364950538E-1,1.600292325E0,-4.167843983E-2
4.777497195E0,6.295707822E-1,2.376736403E0,1.579253376E-1
4.797765216E0,4.518049359E-1,2.841590881E0,2.490053773E-1
4.818033237E0,3.255712092E-1,2.866091728E0,2.703106403E-1
4.838301310E0,3.958786130E-1,2.435858488E0,2.660495937E-1
4.858569330E0,7.105308771E-1,1.495363832E0,1.909485012E-1
4.878837351E0,1.072587371E0,2.707101107E-1,1.238368973E-1
4.899105372E0,1.313869596E0,-1.008405209E0,7.270424068E-2
4.919373445E0,1.361806393E0,-1.809882879E0,-1.077247858E-1
4.939641466E0,1.111469507E0,-1.800295591E0,-3.234406710E-1
4.959909487E0,6.833665967E-1,-1.180445313E0,-4.656533599E-1
4.980177508E0,1.717737690E-2,-2.617885470E-1,-3.735080659E-1
5.000445580E0,-3.350254059E0,-1.326253176E0,-1.636511236E-1
5.020713601E0,-1.546762824E0,4.383559823E-1,7.303713560E-1
5.040981570E0,9.017456770E-1,3.435874701E0,-1.451421715E-2
5.061249643E0,1.729721785E0,2.758500099E0,1.153147891E-1
5.081517612E0,1.502421260E0,5.613939166E-1,6.009418368E-1
5.101785737E0,8.665919900E-1,-1.119725227E0,9.482178092E-1
5.122053758E0,3.820301592E-1,-1.812546134E0,9.508809447E-1
5.142321778E0,9.600688517E-2,-2.040911913E0,7.586008906E-1
5.162589851E0,-8.044071794E-1,-9.119988084E-1,2.474074811E-1
5.182857872E0,-6.504766345E-1,3.542001545E-1,5.246423557E-2
5.203125893E0,6.668550372E-1,7.153245211E-1,-1.066595241E-1
5.223393914E0,1.284574747E0,1.155677915E0,-4.763059914E-1
5.243661935E0,8.926909566E-1,9.751157165E-1,-4.038680792E-1
5.263929955E0,-7.856319100E-2,2.579269707E-1,-1.593900770E-1
5.284198028E0,-7.181208730E-1,-8.006787896E-1,-4.380896688E-2
5.304466049E0,-6.451503038E-1,-1.789110303E0,2.969422378E-2
5.324734070E0,-3.065296113E-1,-2.175667763E0,1.515337527E-1
5.345002091E0,-4.066644013E-1,-1.581916451E0,3.059969842E-1
5.365270112E0,-1.028645158E0,1.198421582E-3,1.105211005E-1
5.385538133E0,-2.172871590E0,1.582182765E0,-2.472743243E-1
5.405219539E0,-3.425887823E0,1.512940645E0,-2.744385600E-1
5.425619539E0,-3.896068573E0,4.852275848E-1,2.530001104E-3
5.446019539E0,-4.069706440E0,1.664474420E-2,3.161169887E-1
5.466419539E0,-4.049999237E0,1.556616426E-1,6.643250585E-1
5.486819539E0,-3.714574337E0,-8.135951310E-2,4.849612713E-1
5.507150112E0,-3.274620533E0,-6.926876903E-1,-6.138581783E-2
5.527416674E0,-2.283658981E0,1.727058738E-1,-9.747162461E-1
5.547684226E0,-3.374222517E-1,1.662077546E0,-1.361273766E0
5.567951883E0,6.972150803E-1,1.366067410E0,-9.432909489E-1
5.588219591E0,6.151897311E-1,-2.203764170E-1,-1.005076289E0
5.608487351E0,5.523391962E-1,-1.356080651E0,-1.168993711E0
5.628755164E0,7.520761490E-1,-1.874198198E0,-1.116795778E0
5.649023028E0,1.337305307E0,-1.769935489E0,-7.611308694E-1
5.669290893E0,2.303233147E0,-1.657017589E0,-2.121206224E-1
5.689558862E0,2.951845646E0,-9.908283353E-1,3.395527899E-1
5.709826778E0,3.178746700E0,7.470161468E-2,8.635293245E-1
5.730094747E0,3.097254038E0,1.048618913E0,1.168061614E0
5.750362716E0,2.606833220E0,1.502288103E0,1.163800478E0
5.770630685E0,1.871401906E0,8.483493328E-1,6.952176690E-1
5.790898653E0,1.274987459E0,-1.969406158E-1,-4.327633604E-2
5.811166674E0,9.145288467E-1,-1.325187922E0,-3.234406710E-1
5.831434643E0,5.720465779E-1,-2.245975256E0,-2.893522382E-1
5.851702664E0,2.781669796E-1,-2.248638391E0,-3.063964546E-1
5.871970685E0,4.075964987E-1,-1.229979992E0,-4.459459782E-1
5.892238705E0,1.091762066E0,4.900212884E-1,-4.773712754E-1
5.912506674E0,1.932654619E0,2.170075178E0,-2.376869470E-1
5.932906674E0,2.197239399E0,3.169026136E0,-4.274370521E-2
5.953042716E0,1.494964361E0,3.457712650E0,-1.854890287E-1
5.973310737E0,-5.062665343E-1,2.486325264E0,-7.398256063E-1
5.993578758E0,-2.864094496E0,8.574040532E-1,-6.785729527E-1
6.013846778E0,-2.861431360E0,-9.034767151E-1,5.691171288E-1
6.034246778E0,-6.254429221E-1,-2.669816971E0,8.709861636E-1
6.054382820E0,9.811078310E-1,-3.275818825E0,3.251717389E-1
6.074650841E0,9.640635848E-1,-2.527071714E0,2.830938101E-1
6.094918862E0,3.633880615E-1,-7.665903568E-1,3.427485824E-1
6.115186883E0,1.611211337E-2,6.753771305E-1,2.372874767E-1
6.135586883E0,1.418132186E-1,1.145025253E0,2.106558830E-1
6.155722924E0,6.013413072E-1,9.671262503E-1,3.182475269E-2
6.175990945E0,9.193225503E-1,9.799094200E-1,-8.162582666E-2
6.196258966E0,8.383625150E-1,1.159406304E0,-9.494162351E-2
6.216526987E0,3.207775056E-1,9.149283171E-1,-2.488722205E-1
6.236926987E0,-3.187801540E-1,2.909501195E-1,-2.818953991E-1
6.257062976E0,-7.271755934E-1,-3.278348744E-1,-4.966791719E-2
6.277330997E0,-8.384956717E-1,-3.198454082E-1,7.590003312E-2
6.297599018E0,-8.363651037E-1,4.186486006E-1,1.675127149E-1
6.317867039E0,-9.748494029E-1,1.075250506E0,3.709780574E-1
6.338135060E0,-1.413072228E0,1.413338542E0,5.584644675E-1
6.358403028E0,-1.971669793E0,1.662610173E0,5.478118062E-1
6.378671049E0,-2.574476004E0,1.639174461E0,3.155843616E-1
6.398939070E0,-3.212435722E0,9.729851484E-1,1.376853287E-1
6.419207091E0,-3.302850008E0,2.808301151E-1,-1.572595388E-1
6.439475112E0,-3.120822906E0,-5.962813497E-1,-5.795034170E-1
6.459743133E0,-2.594715834E0,-1.218262076E0,-1.051814675E0
6.480011153E0,-1.035036802E0,-2.692453861E-1,-1.280313730E0
6.500279122E0,2.179795653E-1,9.729851484E-1,-6.886929274E-1
6.520547143E0,5.954823494E-1,8.664588332E-1,-7.153245211E-1
6.540815164E0,8.111982346E-1,3.090596199E-1,-8.873646259E-1
6.561083185E0,1.197755814E0,1.664474420E-2,-7.217161059E-1
6.581351205E0,1.841574550E0,-2.170474641E-2,-2.201101035E-1
6.601619174E0,2.395910978E0,-1.330247968E-1,3.858917654E-1
6.621887195E0,2.308026791E0,1.331579551E-4,9.151946306E-1
6.642155216E0,1.522661209E0,-2.916159332E-1,1.053678870E0
6.662423237E0,9.507477880E-1,-1.628255486E0,8.960198760E-1
6.682691205E0,1.137035728E0,-3.168759823E0,5.153213143E-1
6.702959226E0,1.148221016E0,-2.923749208E0,-3.422159329E-2
6.723227247E0,9.443562031E-1,-1.708682895E0,-4.459459782E-1
6.743495268E0,8.655267358E-1,-3.518033028E-1,-5.789707899E-1
6.763763133E0,9.645962119E-1,8.494145870E-1,-5.507413149E-1
6.784031258E0,1.033838391E0,1.484711170E0,-4.155859649E-1
6.804299226E0,1.065796256E0,1.768603921E0,-2.632532716E-1
6.824567247E0,1.246757984E0,1.760614514E0,-2.110553533E-1
6.844835268E0,1.557282329E0,1.110404134E0,-1.833585054E-1
6.865103289E0,1.676458597E0,2.483395934E-1,-1.759016514E-1
6.885371310E0,1.099751592E0,4.319643974E-1,-1.780321896E-1
6.905639330E0,-2.303632647E-1,1.860216618E0,6.418213248E-2
6.925907299E0,-2.936532497E0,2.650908470E0,4.098601937E-1
6.946175320E0,-3.646397352E0,-6.980140209E-1,2.340916842E-1
6.966443341E0,-9.498156905E-1,-2.860499144E0,-3.372890949E-1
6.986711362E0,4.438154697E-1,-2.812562227E0,-5.336970687E-1
7.006979330E0,8.287751079E-1,-1.413604856E0,-1.482048035E-1
7.027379330E0,6.775076985E-1,6.711161137E-1,8.921583183E-3
7.047515320E0,2.856238186E-1,2.379399538E0,9.986846708E-3
7.067783341E0,2.105227262E-1,2.349039555E0,4.045338631E-1
7.088051362E0,2.190448344E-1,1.756886005E0,4.221107066E-1
7.108319330E0,-9.720530361E-2,1.205212593E0,1.094558388E-1
7.128587351E0,-5.222455263E-1,1.998700947E-1,-1.572595388E-1
7.148855320E0,-8.901609182E-1,-8.645945787E-1,-6.777740270E-2
7.169123341E0,-1.143560529E0,-1.484977484E0,2.458095849E-1
7.189391310E0,-1.376853228E0,-1.094158888E0,5.611276031E-1
7.209659330E0,-1.590438604E0,4.058654606E-1,6.632598042E-1
7.229927351E0,-1.731452942E0,2.118409872E0,2.809632719E-1
7.250195320E0,-2.055293083E0,2.926811934E0,-2.701774836E-1
7.270463341E0,-2.039314032E0,2.132791042E0,-5.683181286E-1
7.290731310E0,-1.724528670E0,7.238466144E-1,-5.944170952E-1
7.310999278E0,-1.444497466E0,-1.191097856E0,-6.327666044E-1
7.331267299E0,-1.429583788E0,-1.472194314E0,-6.471476555E-1
7.351535268E0,-1.264467955E0,-4.306328297E-1,-3.633880615E-1
7.371803289E0,-4.748412669E-1,-9.913609624E-1,-2.861564457E-1
7.392071258E0,4.523375630E-1,-1.145291567E0,-2.259690464E-1
7.412339278E0,1.356480122E0,-3.017359376E-1,-8.322372288E-2
7.432739278E0,2.321342707E0,5.363602638E-1,3.448791057E-2
7.452875268E0,3.070089817E0,8.840356469E-1,2.980075181E-1
7.473143237E0,3.261704206E0,7.685877085E-1,6.328997612E-1
7.493411258E0,2.487523794E0,-1.239700541E-1,7.756450772E-1
7.513679226E0,1.318663239E0,-1.636777639E0,7.900261283E-1
7.534079226E0,4.789691567E-1,-3.187402010E0,7.628619075E-1
7.554215216E0,1.593900770E-1,-4.252399445E0,5.483444333E-1
7.574483185E0,2.163816839E-1,-4.023900032E0,1.904158741E-1
7.594751153E0,2.808301151E-1,-2.429067373E0,-1.290300637E-1
7.615019122E0,3.218427896E-1,-7.528750896E-1,-3.266364634E-1
7.635419122E0,4.022701681E-1,4.474107325E-1,-3.474090993E-1
7.655555164E0,4.699144363E-1,1.103479981E0,-3.063964546E-1
7.675823133E0,6.141244769E-1,1.256345272E0,-2.765690684E-1
7.696091101E0,7.930887938E-1,1.177515745E0,-2.877543271E-1
7.716359070E0,7.877624631E-1,1.118926287E0,-3.138532937E-1
7.736759070E0,5.400886536E-1,1.248888493E0,-3.740406930E-1
7.756895060E0,2.355564237E-1,1.732385039E0,-4.187817574E-1
7.777163028E0,-8.921582997E-2,2.223870993E0,-3.761712313E-1
7.797430997E0,-6.046702862E-1,1.941576123E0,-9.068056941E-2
7.817699018E0,-1.161137342E0,-1.398158550E0,4.205128253E-1
7.837966987E0,-9.833714962E-1,-2.598976851E0,3.043990731E-1
7.858234955E0,-3.842938542E-1,-1.017459989E0,-1.689774394E-1
7.878502924E0,5.073318258E-2,-8.416914344E-1,8.282424510E-2
7.898770893E0,7.105308771E-1,-1.760348201E0,3.736412227E-1
7.919038810E0,1.041295171E0,-2.358360529E0,5.254412889E-1
7.939306830E0,6.258423924E-1,-1.121855736E0,4.338286221E-1
7.959574851E0,6.657897611E-4,6.311687231E-1,2.277000993E-1
7.979842820E0,2.605901062E-1,8.452867270E-1,1.270326823E-1
8.000110789E0,1.049284697E0,4.554001987E-1,1.025316268E-1
8.020378758E0,1.330381155E0,6.641919017E-1,1.004010960E-1
8.040646726E0,8.921582699E-1,8.893619776E-1,8.495477587E-2
8.060914695E0,9.387636185E-2,5.747097135E-1,5.885581672E-2
8.081182664E0,-4.924181104E-1,-3.012032807E-1,1.025316268E-1
8.101450633E0,-7.282408476E-1,-1.263535857E0,2.282327414E-1
8.121718601E0,-7.538071871E-1,-1.799762964E0,3.475422561E-1
8.141986570E0,-6.861629486E-1,-1.734781861E0,4.572644234E-1
8.162254591E0,-5.775060654E-1,-1.353417397E0,5.781718493E-1
8.182522508E0,-5.115928650E-1,-7.990809083E-1,6.435524225E-1
8.202790476E0,-5.307676196E-1,-4.119907022E-1,6.558029056E-1
8.223058445E0,-8.060051203E-1,-2.081258893E-1,6.478134394E-1
8.243326414E0,-1.433844805E0,-5.046686530E-2,6.115944982E-1
8.263594383E0,-2.237852573E0,2.143843099E-2,4.892223179E-1
8.283862351E0,-3.021220922E0,-6.484792382E-2,1.605884880E-1
8.304130320E0,-3.600058556E0,-5.201149583E-1,-4.667186439E-1
8.324398289E0,-3.750260592E0,-1.097887397E0,-1.278183222E0
8.344666258E0,-3.434410095E0,-9.647293687E-1,-2.083921909E0
8.364934226E0,-2.174469471E0,-8.242477477E-2,-2.281927824E0
8.385202195E0,-4.231759906E-1,1.434111118E0,-1.046488404E0
8.405430789E0,3.633880615E-1,1.923999310E0,4.500738904E-2
8.425738028E0,3.809649050E-1,5.960150361E-1,-4.241080880E-1
8.446006049E0,4.241080880E-1,-6.916224360E-1,-8.708530068E-1
8.466274018E0,5.347623229E-1,-1.569666028E0,-8.021435142E-1
8.486541987E0,7.371624112E-1,-2.192179441E0,-4.747081101E-1
8.506809903E0,9.715204239E-1,-2.689524412E0,-1.998700947E-1
8.527077872E0,1.246225357E0,-2.814692974E0,-1.178447902E-1
8.547345841E0,1.657816529E0,-2.732134819E0,-1.029310971E-1
8.567613810E0,2.184988976E0,-2.830139160E0,-6.458161026E-2
8.587881778E0,2.595115423E0,-2.704437971E0,-2.083922029E-1
8.608149747E0,2.490719557E0,-2.507896900E0,-4.070638716E-1
8.628417664E0,1.066861510E0,-3.941475391E0,-4.320975542E-1
8.648685633E0,-3.113232851E-1,-4.893022060E0,-5.193160176E-1
8.668953601E0,-8.912261724E-1,-4.434559345E0,-7.659245729E-1
8.689221622E0,-9.727188349E-1,-2.691122293E0,-7.776424289E-1
8.709489539E0,-1.137168884E0,5.901560783E-1,-5.060002208E-1
8.729757508E0,-5.211802125E-1,2.949715137E0,-4.214449227E-1
8.750025476E0,4.704470634E-1,3.449723244E0,3.502054140E-2
8.770293393E0,9.246488214E-1,3.658914328E0,7.484808564E-1
8.790561362E0,7.574024200E-1,4.819785118E0,1.609613419E0
8.810829278E0,-4.231759906E-1,4.820850372E0,1.811347723E0
8.831229278E0,-1.595232248E0,2.250369452E-2,6.950845569E-2
8.851365216E0,-1.217063665E0,-3.858384848E0,-6.998782158E-1
8.871633133E0,-2.143843025E-1,-4.736960888E0,-9.384972453E-1
8.891901101E0,7.595329881E-1,-4.395144463E0,-8.655267358E-1
8.912169070E0,1.609879732E0,-3.585677385E0,-5.006738901E-1
8.932569070E0,2.311222553E0,-2.256627798E0,-2.733732760E-1
8.952704955E0,2.664890051E0,-6.708498001E-1,-1.183774248E-1
8.972972872E0,2.137717724E0,6.695181727E-1,8.921583183E-3
8.993240841E0,1.340501189E0,1.423458576E0,-2.410159074E-2
9.013508758E0,8.697877526E-1,9.852356911E-1,1.691105962E-2
9.033908758E0,1.039697289E0,-1.997369342E-3,3.150517344E-1
9.054044643E0,1.531715989E0,-8.400935531E-1,5.254412889E-1
9.074312612E0,1.931056619E0,-9.141293764E-1,5.728455186E-1
9.094580528E0,1.981656671E0,-3.416832983E-1,6.014744639E-1
9.114848497E0,1.587642312E0,2.691122293E-1,7.825692892E-1
9.135248497E0,4.422175586E-1,-4.338286221E-1,1.229846835E0
9.155384383E0,-8.890956640E-1,-2.398707390E0,1.385375381E0
9.175652299E0,-1.192030072E0,-3.507380486E0,1.005209446E0
9.195920268E0,-8.933567405E-1,-1.033971548E0,7.207840085E-1
9.216188185E0,-8.118640780E-1,1.303216934E0,3.800328076E-1
9.236377455E0,-8.262451291E-1,1.348490596E0,-1.018658355E-1
9.256723914E0,-1.280979514E0,-2.436790615E-1,-5.986781716E-1
9.276991883E0,-2.017476082E0,-1.732651353E0,-8.570045829E-1
9.297259851E0,-2.441850662E0,-2.354632139E0,-8.506129980E-1
9.317527768E0,-2.559562206E0,-2.033455133E0,-7.850993276E-1
9.337927768E0,-2.503103256E0,-1.338503718E0,-7.819035053E-1
9.358063705E0,-2.443448544E0,-6.127929091E-1,-7.392929792E-1
9.378331622E0,-2.919488192E0,-3.992075622E-1,-4.001396596E-1
9.398599539E0,-3.065429211E0,-1.996037811E-1,-5.656549931E-1
9.418867508E0,-2.812429190E0,1.828258783E-1,-1.249953747E0
9.439135424E0,-2.312421083E0,5.022718310E-1,-1.584846020E0
9.459403341E0,-1.515337586E0,-2.267680019E-1,-1.305880070E0
9.479671310E0,-7.868303657E-1,-2.206560373E0,-7.483476996E-1
9.499939226E0,-1.478053331E-1,-4.412721634E0,-8.010782599E-1
9.520207143E0,-2.356895804E-1,-5.169857502E0,-1.887913465E0
9.540475112E0,-8.107987642E-1,-4.039879322E0,-2.892723322E0
9.560743028E0,-9.114661813E-1,-3.305646181E0,-2.423607826E0
9.581010997E0,-7.665903568E-1,-3.013763905E0,-1.256877899E0
9.601278966E0,-6.169208288E-1,-2.582998037E0,-4.017375410E-1
9.621546883E0,-3.997401893E-1,-1.906156182E0,1.169126853E-1
9.641814799E0,-5.992107838E-2,-1.290700078E0,4.546012580E-1
9.662082716E0,4.091944098E-1,-1.008937836E0,4.535360038E-1
9.682350633E0,9.342362285E-1,-1.047819972E0,3.182475269E-2
9.702618601E0,1.119991541E0,-9.764472842E-1,-4.294344187E-1
9.722886518E0,9.012130499E-1,-9.956220388E-1,-4.470112622E-1
9.743154435E0,5.496760607E-1,-1.248089552E0,-4.230428338E-1
9.763422351E0,1.796300858E-1,-1.734249234E0,-5.581981540E-1
9.783690320E0,2.197106183E-2,-2.652772665E0,-5.060002208E-1
9.803958237E0,-5.885581672E-2,-2.698579073E0,-4.826975763E-1
9.824226153E0,-1.004010960E-1,-1.650093436E0,-5.874928832E-1
9.844494070E0,2.025332451E-1,-2.107890397E-1,-6.103960872E-1
9.864761987E0,8.458193541E-1,9.591367245E-1,-6.508761048E-1
9.885029903E0,1.755820751E0,1.537974358E0,-6.093307734E-1
9.905297820E0,2.494447947E0,1.634380698E0,-3.431480527E-1
9.925565737E0,2.427336454E0,1.654088140E0,-6.085318699E-2
9.945833705E0,2.882869840E-1,9.334372729E-2,3.661843762E-2
9.966101622E0,-2.116013050E0,-2.942391396E0,2.825611830E-1
9.986369539E0,-1.717604518E0,-4.071836948E0,3.507380486E-1
1.000663746E1,-3.826959729E-1,-3.012698650E0,2.474074811E-1
1.002690537E1,7.781751156E-1,-1.125051618E0,1.126516312E-1
1.004717329E1,1.451821208E0,-3.070622385E-1,2.106558830E-1
1.006744121E1,1.645033360E0,-3.454117477E-1,5.707150102E-1
1.008770912E1,1.485376954E0,-9.333041310E-1,9.594030380E-1
1.010797699E1,9.869667888E-1,-1.687910199E0,9.753820300E-1
1.012824496E1,2.531332672E-1,-2.114415169E0,6.669881940E-1
1.014851287E1,-3.736412227E-1,-2.047836304E0,3.278348744E-1
1.016878079E1,-5.652555227E-1,-1.680986047E0,-2.996053919E-2
1.018904871E1,-1.888179779E-1,-1.035569429E0,-5.166528821E-1
1.020931662E1,6.327666044E-1,-4.679170549E-1,-9.203878045E-1
1.022958454E1,1.445429564E0,-2.724411786E-1,-9.113330245E-1
1.024985246E1,1.872467160E0,-1.362205893E-1,-6.993455887E-1
1.027012037E1,1.904957652E0,4.700475931E-2,-5.512739420E-1
1.029038829E1,1.629587054E0,2.680469751E-1,-2.328932583E-1
1.031065620E1,1.180179000E0,6.061350107E-1,3.059969842E-1
1.033092412E1,6.823013425E-1,6.844319105E-1,7.404913902E-1
1.035119199E1,1.221058443E-1,7.736477256E-2,8.134619594E-1
1.037145990E1,-4.018706977E-1,-9.641967416E-1,6.691187024E-1
1.039172782E1,-6.456829309E-1,-2.144775152E0,6.052029133E-1
1.041199574E1,-4.263717830E-1,-3.127747297E0,4.391549230E-1
1.043239574E1,8.748477697E-2,-3.171955585E0,1.004010960E-1
1.045253157E1,4.885565341E-1,-1.932255030E0,-8.428898454E-2
1.047279949E1,5.949497223E-1,8.269108832E-2,-2.796316985E-3
1.049306735E1,4.832302332E-1,1.627989173E0,7.004108280E-2
1.051333527E1,1.886848211E-1,1.807486057E0,3.768370301E-2
1.053373527E1,-2.207758874E-1,6.098634601E-1,3.289001435E-2
1.055387110E1,-6.169208288E-1,-6.681866050E-1,6.524740160E-2
1.057413891E1,-9.349020123E-1,-1.016394615E0,7.430213690E-2
1.059440688E1,-1.097221494E0,-5.307676196E-1,-8.655266836E-3
1.061467480E1,-1.037167311E0,1.972069293E-1,-2.067943066E-1
1.063507480E1,-9.519461989E-1,4.729770422E-1,-4.651207328E-1
1.065521063E1,-1.055809379E0,4.426170290E-1,-6.881603003E-1
1.067547850E1,-1.353417397E0,5.091960430E-1,-8.463519812E-1
1.069574641E1,-1.714941263E0,6.029392481E-1,-9.028109312E-1
1.071601433E1,-2.352368355E0,-2.303632647E-1,-7.819035053E-1
1.073641433E1,-3.613374233E0,-2.857303381E0,-4.028028250E-1
1.075655011E1,-3.712443829E0,-3.108572483E0,-3.474090993E-1
1.077681803E1,-3.332677364E0,-2.250768900E0,-3.261038363E-1
1.079708595E1,-2.631467581E0,-1.130377889E0,-2.265016884E-1
1.081735381E1,-1.648894906E0,-2.027995586E-1,-1.753690243E-1
1.083762173E1,-6.494113207E-1,1.769669205E-1,-1.881521940E-1
1.085788964E1,-1.504684836E-1,5.605949834E-2,-3.708449006E-1
1.087815751E1,-3.273022473E-1,-4.476770461E-1,-6.876276731E-1
1.089842542E1,-6.398239732E-1,-1.191097856E0,-9.054740667E-1
1.091869334E1,-7.804387808E-1,-1.609613419E0,-9.044088125E-1
1.093909334E1,-6.270408034E-1,-1.834383965E0,-8.703203797E-1
1.095922912E1,-2.740390599E-1,-1.881655097E0,-8.351666927E-1
1.097949704E1,-1.091895252E-2,-1.666072369E0,-7.717835307E-1
1.099976490E1,-9.853689000E-3,-1.029177785E0,-4.969455004E-1
1.102003282E1,-5.512739345E-2,-4.791023135E-1,-1.380847991E-1
1.104030074E1,2.356895804E-2,-3.304980397E-1,8.282424510E-2
1.106056860E1,3.974764943E-1,-8.560724854E-1,1.541969180E-1
1.108083652E1,1.007206798E0,-1.475922823E0,1.046621501E-1
1.110110438E1,1.595631719E0,-1.504684925E0,8.122635633E-2
1.112137230E1,1.909218788E0,-1.119192600E0,1.840242893E-1
1.114164022E1,1.819203973E0,-9.349020123E-1,1.435442716E-1
1.116190808E1,1.474724412E0,-1.070723176E0,-5.992108025E-3
1.118217595E1,1.035968900E0,-1.441834331E0,-1.620532274E-1
1.120244386E1,4.949481189E-1,-1.789110303E0,-2.648511827E-1
1.122271178E1,6.671213359E-2,-1.636245012E0,-4.352933466E-1
1.124297964E1,-8.815056831E-2,-7.518098354E-1,-5.800360441E-1
1.126324756E1,6.564687192E-2,4.458128214E-1,-5.672528744E-1
1.128351542E1,4.177165031E-1,1.414936423E0,-4.299670458E-1
1.130378334E1,7.669898272E-1,1.822399735E0,-2.824280262E-1
1.132405120E1,8.804404140E-1,1.388837457E0,-1.322258562E-1
1.134431912E1,7.270424366E-1,2.254364192E-1,-1.183774248E-1
1.136458699E1,6.274402738E-1,-7.687208652E-1,-2.211753577E-1
1.138485490E1,6.977477074E-1,-1.172455788E0,-1.460742801E-1
1.140512277E1,7.004108429E-1,-1.144226313E0,-4.647212476E-2
1.142539068E1,5.651223660E-1,-9.093356729E-1,3.448791057E-2
1.144565855E1,4.603270590E-1,-1.830921918E-1,-9.720530361E-3
1.146592641E1,-2.165148407E-1,1.312804222E0,-3.368896246E-2
1.148619433E1,-3.002578735E0,3.296857834E0,-1.780321896E-1
1.150646220E1,-1.245825887E0,3.710579634E0,1.856221855E-1
1.152686220E1,5.997434258E-1,2.838394880E0,-1.439437568E-1
1.154699798E1,1.080044150E0,-1.351553202E-1,7.323687430E-3
1.156726584E1,8.127961755E-1,-2.558496952E0,4.364917874E-1
1.158753376E1,3.655185997E-1,-3.524957418E0,8.230493069E-1
1.160780162E1,8.695214242E-2,-3.582481623E0,1.115464211E0
1.162806949E1,2.143843099E-2,-2.775278091E0,1.230379462E0
1.164833730E1,-1.334242672E-1,-1.118659973E0,1.071788430E0
1.166860527E1,-7.500787377E-1,2.338919401E0,4.929507375E-1
1.168887313E1,-3.193127811E-1,3.997135401E0,-1.838911325E-1
1.170914100E1,9.198551774E-1,2.507097960E0,-1.620532274E-1
1.172940886E1,1.058339477E0,1.420795441E0,-2.536658943E-1
1.174967678E1,5.352949500E-1,6.327666044E-1,-4.406196773E-1
1.176994464E1,-1.456748098E-1,-2.889527678E-1,-4.390217662E-1
1.179021256E1,-6.723145247E-1,-1.031308413E0,-1.327584833E-1
1.181048042E1,-1.008405209E0,-1.258742094E0,1.797632426E-1
1.183074829E1,-1.154745817E0,-9.455546141E-1,2.735064328E-1
1.185101615E1,-1.070723176E0,-3.592601717E-1,2.841590643E-1
1.187128407E1,-1.051548362E0,4.207791388E-1,3.544664681E-1
1.189155194E1,-1.334242702E0,1.108273625E0,2.990727723E-1
1.191181980E1,-1.757551908E0,1.300021172E0,6.950845569E-2
1.193212694E1,-2.335856915E0,9.330378175E-1,-2.446111590E-1
1.195235558E1,-2.954641819E0,5.406212807E-1,-4.416849315E-1
1.197262344E1,-2.948250294E0,2.462090552E-1,-6.503434777E-1
1.199289131E1,-2.399772644E0,-1.303616315E-1,-9.459540844E-1
1.201315917E1,-1.510011196E0,-4.205128253E-1,-1.415602207E0
1.203355917E1,4.434159771E-2,3.824296594E-1,-1.491235971E0
1.205369496E1,8.048067093E-1,1.287238002E0,-4.502070546E-1
1.207396282E1,9.614004493E-1,4.287686050E-1,-3.623228073E-1
1.209423069E1,1.223854780E0,-3.587275445E-1,-6.412886977E-1
1.211449855E1,1.640772343E0,-4.237086177E-1,-4.400870502E-1
1.213489855E1,2.055159807E0,-7.856319658E-3,1.446095407E-1
1.215503428E1,2.002961874E0,5.550023317E-1,4.956139028E-1
1.217530220E1,1.477920175E0,4.314317703E-1,5.669865608E-1
1.219557006E1,9.592698812E-1,-7.905587554E-1,6.451503038E-1
1.221583792E1,9.619330764E-1,-2.384326458E0,7.660577297E-1
1.223623792E1,1.133307338E0,-3.490336418E0,6.339650154E-1
1.225637365E1,1.034903646E0,-3.623494387E0,5.206475854E-1
1.227664152E1,8.239814043E-1,-2.841857195E0,4.588623047E-1
1.229690944E1,8.271772265E-1,-1.426920652E0,2.372874767E-1
1.231717725E1,1.000282526E0,2.996053919E-2,2.530001104E-3
1.233757725E1,1.038632035E0,9.756483436E-1,-4.753739014E-2
1.235771303E1,8.394277692E-1,1.448492289E0,-8.961530030E-2
1.237798089E1,3.868238628E-1,1.450622797E0,-1.844237745E-1
1.239824876E1,-1.376853287E-1,1.081642032E0,-2.318280041E-1
1.241851662E1,-2.559295893E-1,6.844319105E-1,-4.166512489E-1
1.243878449E1,6.511423737E-2,5.651223660E-1,-6.087981462E-1
1.245905235E1,4.107922912E-1,7.350319028E-1,-6.258423924E-1
1.247932022E1,4.725775719E-1,1.201484203E0,-2.781669796E-1
1.249958808E1,-1.829590350E-1,3.270758867E0,4.689823091E-1
1.251985595E1,-8.416914344E-1,3.320826292E0,5.725792050E-2
1.254012381E1,-4.447475821E-2,1.195092678E0,-3.585943878E-1
1.256039167E1,3.063964546E-1,-2.094175100E0,-8.695214242E-2
1.258065954E1,3.095922470E-1,-4.120839119E0,3.826959729E-1
1.260092740E1,1.950764060E-1,-4.624575615E0,7.271755934E-1
1.262119527E1,-3.475422561E-1,-2.688459158E0,8.379629850E-1
1.264146313E1,-5.625923872E-1,-1.111868918E-1,4.604602158E-1
1.266173100E1,1.998700947E-1,1.072587371E0,1.312937438E-1
1.268199886E1,1.162069440E0,1.476721764E0,-2.303632535E-2
1.270226673E1,1.601490736E0,1.893239856E0,-1.828258783E-1
1.272253459E1,1.070989490E0,2.158357382E0,-3.388870060E-1
1.274280246E1,2.307627350E-1,1.428784847E0,-5.017392039E-1
1.276307032E1,-2.415485233E-1,4.538023174E-1,-3.298322558E-1
1.278333819E1,-3.523359597E-1,-3.038664460E-1,2.010685205E-2
1.280360605E1,-4.503402114E-1,-4.476770461E-1,1.861548275E-1
1.282387391E1,-7.080008388E-1,3.281011879E-1,3.209106624E-1
1.284414178E1,-1.033971548E0,1.192962170E0,4.732433856E-1
1.286440964E1,-1.250086904E0,1.361273766E0,5.297023654E-1
1.288467751E1,-1.439703822E0,1.176450491E0,4.599275887E-1
1.290494537E1,-1.840109825E0,8.213182688E-1,2.772348523E-1
1.292521318E1,-2.524408579E0,2.664490640E-1,-4.807002097E-2
1.294548105E1,-3.582481623E0,8.535424620E-2,-4.400870502E-1
1.296574891E1,-4.483961105E0,2.526006401E-1,-7.787077427E-1
1.298601678E1,-4.011116982E0,-2.926811874E-1,-1.004011035E0
1.300628464E1,-2.828408241E0,6.298371404E-2,-1.165265322E0
1.302655251E1,-8.901609182E-1,7.675224543E-1,-1.343696952E0
1.304682037E1,1.019989967E0,1.433578491E0,-1.063532591E0
1.306708819E1,1.176983118E0,8.420909047E-1,-2.733732760E-1
1.308735605E1,8.527435660E-1,-4.242412448E-1,-3.186469972E-1
1.310762391E1,9.651288390E-1,-8.267777562E-1,-4.432828426E-1
1.312789178E1,1.527454853E0,-4.721781015E-1,-1.609879732E-1
1.314815964E1,2.345311165E0,-3.981423005E-2,2.777675092E-1
1.316842751E1,2.907104492E0,7.576687634E-2,6.211818457E-1
1.318869532E1,2.689258099E0,-8.828372508E-2,7.570029497E-1
1.320896318E1,1.815475583E0,-7.427550554E-1,6.483460665E-1
1.322923105E1,1.053013086E0,-2.339185715E0,4.370244145E-1
1.324949891E1,7.744466662E-1,-4.011116982E0,2.159821987E-1
1.326976673E1,6.524739861E-1,-4.207658291E0,-6.351634115E-2
1.329003459E1,6.908234954E-1,-2.925879717E0,-3.596596420E-1
1.331030246E1,8.767119646E-1,-1.023851514E0,-4.486091435E-1
1.333070246E1,1.159406304E0,6.732466221E-1,-3.458112180E-1
1.335083813E1,1.345827460E0,1.557149172E0,-1.050616279E-1
1.337110600E1,1.296825290E0,2.147171974E0,1.701758653E-1
1.339137376E1,1.065796256E0,2.526272774E0,2.649843395E-1
1.341164167E1,7.760445476E-1,2.425205946E0,6.471476704E-2
1.343190954E1,3.378217220E-1,1.557681799E0,-1.519332230E-1
1.345217735E1,-1.280979514E-1,2.579269707E-1,-1.982721984E-1
1.347244522E1,-2.122537792E-1,-3.832286000E-1,-2.334259003E-1
1.349271308E1,-9.614004195E-2,-2.884201407E-1,1.211737376E-2
1.351298089E1,-6.334323883E-1,2.430132627E-1,1.605884880E-1
1.353338089E1,-7.069355845E-1,1.384709597E0,5.299686641E-2
1.355351657E1,1.398158539E-2,7.366297841E-1,1.249021590E-1
1.357378444E1,3.239732981E-1,-1.532914400E0,2.484727502E-1
1.359405230E1,2.962764502E-1,-3.476487875E0,3.720433414E-1
1.361432011E1,2.360890508E-1,-3.733749151E0,3.400854170E-1
1.363472011E1,1.567269117E-1,-2.572878122E0,2.900180221E-1
1.365485579E1,-3.062633052E-2,-1.346226931E-1,2.308958918E-1
1.367512365E1,1.045289934E-1,1.856488228E0,-2.783001214E-2
1.369539147E1,7.872298360E-1,2.399639606E0,-3.143859208E-1
1.371565933E1,1.139166355E0,2.078462601E0,-2.243711501E-1
1.373605933E1,6.210486889E-1,1.511342764E0,-2.877543271E-1
1.375619501E1,-2.335590571E-1,1.076315761E0,-3.564638495E-1
1.377654152E1,-7.372955680E-1,8.106656075E-1,-1.284974217E-1
1.379673074E1,-8.358324766E-1,5.518065691E-1,8.815056831E-2
1.381699850E1,-8.448871970E-1,5.326318145E-1,2.133190483E-1
1.383726636E1,-1.008937836E0,7.616634965E-1,3.001380265E-1
1.385753417E1,-1.270326853E0,1.065130472E0,3.219759464E-1
1.387780199E1,-1.437040687E0,1.284042120E0,3.294327855E-1
1.389806985E1,-1.466868043E0,1.416534305E0,3.097254038E-1
1.391833766E1,-1.685646534E0,1.227583170E0,1.696432382E-1
1.393872428E1,-2.498309612E0,6.412886977E-1,-1.902827173E-1
1.395887339E1,-3.775693893E0,3.739075363E-1,-6.290381551E-1
1.397914121E1,-3.962647676E0,-2.404832691E-1,-9.017456770E-1
1.399940902E1,-3.190065145E0,-5.691171288E-1,-1.134372592E0
1.401967688E1,-1.208009005E0,-2.278332561E-1,-1.817073464E0
1.403994470E1,1.010402560E0,1.262736917E0,-1.934785128E0
1.406021256E1,1.350088477E0,2.039580345E0,-1.623195529E0
1.408048037E1,1.231844187E0,1.186037898E0,-1.544499159E0
1.410074818E1,1.203614712E0,2.456764281E-1,-7.701855898E-1
1.412101605E1,1.203082085E0,-2.367548496E-1,1.749695539E-1
1.414128386E1,1.253149509E0,-2.836264372E-1,7.522093058E-1
1.416155167E1,1.221191645E0,-1.980058849E-1,1.163267851E0
1.418181954E1,9.763141274E-1,-5.962813497E-1,1.350754261E0
1.420208735E1,9.534109831E-1,-1.815741897E0,1.203747869E0
1.422235516E1,1.311206341E0,-2.743320227E0,1.059537888E0
1.424262303E1,1.609347105E0,-2.489254713E0,1.108007312E0
1.426289084E1,1.690839767E0,-1.740640759E0,1.115464211E0
1.428315871E1,1.439038038E0,-9.476851821E-1,1.023851514E0
1.430342652E1,9.603351951E-1,-3.230412006E-1,7.793735266E-1
1.432369433E1,5.269060135E-1,-6.258423906E-3,4.151864946E-1
1.434396214E1,3.479417264E-1,1.503353268E-1,1.424790174E-1
1.436423001E1,3.889544010E-1,-5.366265774E-2,-2.942790836E-2
1.438449782E1,5.544697046E-1,-4.162517786E-1,-2.073269337E-1
1.440476563E1,5.352949500E-1,-4.354264960E-2,-2.946785688E-1
1.442503344E1,3.143859208E-1,8.341014385E-1,-2.526006401E-1
1.444530131E1,9.494162351E-2,1.169526339E0,-2.526006401E-1
1.446556912E1,1.008005738E-1,3.079943359E-1,-2.808301151E-1
1.448583694E1,2.989396155E-1,-3.933486044E-1,-2.424806356E-1
1.450610475E1,4.209122956E-1,3.099917173E-1,-2.547311783E-1
1.452637261E1,5.056007504E-1,2.002828836E0,-1.135837361E-1
1.454664042E1,-2.532664239E-1,4.110453129E0,-1.093226820E-1
1.456690824E1,-1.057407379E0,3.094457626E0,-4.496744275E-1
1.458717605E1,-1.627190262E-1,1.001747251E0,-1.828258783E-1
1.460744386E1,3.511375189E-1,-1.772066116E0,-3.581948951E-2
1.462771173E1,6.226465702E-1,-3.540403605E0,3.075948656E-1
1.464797954E1,4.028028250E-1,-3.270492554E0,5.430181623E-1
1.466824735E1,-3.997401893E-1,-5.984118581E-1,5.222455263E-1
1.468851516E1,-1.243695319E-1,1.182842135E0,3.028011918E-1
1.470878298E1,1.000815153E0,1.458612204E0,2.553969622E-1
1.472905079E1,1.399623275E0,1.716405988E0,2.537990510E-1
1.474931865E1,1.116263151E0,1.656218648E0,-1.398158539E-2
1.476958647E1,3.809649050E-1,1.107740998E0,-3.362238407E-1
1.478985428E1,-2.548643351E-1,3.334275186E-1,-4.209122956E-1
1.481012209E1,-6.313018799E-1,-5.046686530E-1,-2.882869840E-1
1.483038985E1,-6.504766345E-1,-8.795083165E-1,-1.114532053E-1
1.485065772E1,-5.924197435E-1,-5.131907463E-1,2.223737910E-2
1.487092553E1,-6.105292439E-1,2.472743243E-1,2.239716798E-1
1.489119339E1,-6.904240251E-1,8.016108871E-1,4.471444190E-1
1.491146120E1,-7.846998572E-1,1.018791556E0,5.616602302E-1
1.493172902E1,-8.869651556E-1,1.004410505E0,4.812328517E-1
1.495199683E1,-1.010535717E0,9.378314614E-1,1.989379823E-1
1.497226464E1,-1.387505889E0,1.006008387E0,-2.856238186E-1
1.499253246E1,-1.990844607E0,8.989493847E-1,-7.819035053E-1
1.501280027E1,-2.593650579E0,5.763076544E-1,-9.938910007E-1
1.503320027E1,-2.971153498E0,4.913528636E-2,-9.342362285E-1
1.505333589E1,-2.787395477E0,-7.454182506E-1,-9.044088125E-1
1.507360371E1,-2.414686441E0,-1.365667939E0,-1.116795778E0
1.509387152E1,-1.643568635E0,-1.216664195E0,-1.431581140E0
1.511413933E1,-3.491401672E-1,-2.644517124E-1,-1.032639980E0
1.513453933E1,5.608612895E-1,3.557980657E-1,-2.435459048E-1
1.515467496E1,8.649940491E-1,6.870950460E-1,3.874896467E-2
1.517494277E1,1.025848866E0,8.616651297E-1,1.664474458E-1
1.519521058E1,1.274987459E0,6.317013502E-1,2.889527678E-1
1.521547839E1,1.650359750E0,2.356895804E-2,5.020055175E-1
1.523587839E1,1.862879753E0,-6.309024096E-1,8.949546218E-1
1.525601402E1,1.643435478E0,-1.260340095E0,1.057407379E0
1.527628183E1,1.112534761E0,-1.838112354E0,8.715187907E-1
1.529654964E1,6.705834866E-1,-2.477536917E0,4.961465299E-1
1.531681746E1,4.960133731E-1,-3.019623041E0,5.832318589E-2
1.533721746E1,5.587307811E-1,-3.196989298E0,-2.014679909E-1
1.535735308E1,6.205160618E-1,-3.127214670E0,-2.872217000E-1
1.537762084E1,7.329013944E-1,-2.265150070E0,-2.829606533E-1
1.539788865E1,8.186551332E-1,-1.010003090E0,-2.280995846E-1
1.541815647E1,8.644614220E-1,4.037349224E-1,-1.008005738E-1
1.543842428E1,8.847014308E-1,1.572062850E0,6.258423906E-3
1.545869209E1,9.102677703E-1,2.270742655E0,-1.877527125E-2
1.547895990E1,8.910930157E-1,2.404965878E0,-1.231711060E-1
1.549922772E1,7.259771824E-1,1.931988716E0,-1.966743022E-1
1.551949553E1,2.808301151E-1,1.055010438E0,-1.471395344E-1
1.553976329E1,-9.827057272E-2,-1.095889956E-1,-1.119858399E-1
1.556003110E1,1.291632187E-2,-2.681801319E-1,-2.105227262E-1
1.558029891E1,2.781669796E-1,7.105308771E-1,-3.159838319E-1
1.560056673E1,4.299670458E-1,2.296841621E0,-1.398158539E-2
1.562083454E1,-2.133190483E-1,3.430015802E0,3.363569975E-1
1.564110235E1,-3.837612271E-1,2.575807571E0,2.026664019E-1
1.566137011E1,-9.773793817E-2,6.386255622E-1,2.591253817E-1
1.568163792E1,4.807002097E-2,-2.392315865E0,3.166496158E-1
1.570190574E1,2.898848653E-1,-4.222039223E0,3.091927767E-1
1.572217355E1,2.579269707E-1,-3.868505001E0,2.037316710E-1
1.574244136E1,-2.308958918E-1,-7.836345434E-1,1.856221855E-1
1.576270912E1,7.683213800E-2,1.580052257E0,1.616537571E-1
1.578297694E1,1.019989967E0,2.118409872E0,1.595232338E-1
1.580324475E1,1.579120159E0,1.965544581E0,1.845569313E-1
1.582351251E1,1.469930649E0,1.623728156E0,-3.475422785E-2
1.584378032E1,7.185203433E-1,1.151949525E0,-2.941459119E-1
1.586404813E1,-3.022685647E-1,5.331644416E-1,-3.005374968E-1
1.588431594E1,-9.732515216E-1,-2.383527458E-1,-2.648511827E-1
1.590458370E1,-9.263799191E-1,-6.820350289E-1,-1.300953180E-1
1.592485152E1,-5.689839721E-1,-3.310306668E-1,7.856319100E-2
1.594511933E1,-2.788327634E-1,3.063964546E-1,2.506032586E-1
1.596538709E1,-2.873548567E-1,8.351666927E-1,4.343612492E-1
1.598565490E1,-6.456829309E-1,1.073652625E0,5.833650231E-1
1.600592266E1,-1.131309986E0,8.074698448E-1,4.535360038E-1
1.602619048E1,-1.557948112E0,2.605901062E-1,1.637842804E-1
1.604645824E1,-1.953560352E0,-1.671132296E-1,-6.524739787E-3
1.606672605E1,-2.491385221E0,-3.661843836E-1,-1.151816323E-1
1.608699381E1,-3.271424532E0,-1.724395454E-1,-2.376869470E-1
1.610726167E1,-3.608047962E0,-1.319595277E-1,-5.054675937E-1
1.612752944E1,-3.456780434E0,-2.420811653E-1,-8.804404140E-1
1.614779725E1,-2.831604004E0,-6.538055539E-1,-1.232909560E0
1.616806501E1,-1.222390056E0,-6.165213585E-1,-1.463006496E0
1.618833282E1,7.843003422E-2,3.627222776E-1,-4.747081101E-1
1.620860058E1,3.926828206E-1,8.346340656E-1,1.691105962E-1
1.622886839E1,5.720465779E-1,4.085285962E-1,-2.621880174E-1
1.624913621E1,8.671246171E-1,1.583248079E-1,-5.203812718E-1
1.626940397E1,1.305347443E0,2.451438010E-1,-2.621880174E-1
1.628967178E1,1.849031329E0,1.183774248E-1,1.744369231E-2
1.630993954E1,2.241447926E0,-4.380896688E-1,2.655169666E-1
1.633020735E1,2.109488249E0,-1.062733650E0,4.045338631E-1
1.635047511E1,1.549825430E0,-1.600558639E0,4.391549230E-1
1.637074292E1,1.147688389E0,-2.204962492E0,4.231759906E-1
1.639101074E1,1.199353695E0,-3.051580906E0,2.436790615E-1
1.641127850E1,1.323456883E0,-3.507380486E0,4.354264960E-2
1.643154631E1,1.214267373E0,-3.207109451E0,-6.351634115E-2
1.645181407E1,1.047154188E0,-2.447709560E0,-1.167795286E-1
1.647208183E1,9.155941010E-1,-1.257676840E0,-1.322258562E-1
1.649234964E1,7.590003610E-1,-7.177213579E-2,-3.422159329E-2
1.651261740E1,5.320991874E-1,4.367581010E-1,-2.796316985E-3
1.653301740E1,2.318280041E-1,6.375603080E-1,-6.032055244E-2
1.655315298E1,-1.275653243E-1,9.910946488E-1,-1.125184745E-1
1.657342079E1,-1.355548054E-1,1.715340734E0,-1.221058443E-1
1.659368855E1,2.392848432E-1,2.482064247E0,-1.593900770E-1
1.661395636E1,4.693817794E-1,3.252649307E0,-1.668469161E-1
1.663435636E1,1.854890287E-1,4.242012978E0,6.151897460E-2
1.665449194E1,-1.319861650E0,2.010818243E0,2.761695981E-1
1.667475970E1,-9.077377915E-1,1.275520086E0,-8.428898454E-2
1.669502751E1,9.920267761E-2,-4.151864946E-1,-1.572595388E-1
1.671529527E1,4.597944319E-1,-2.769951820E0,2.229064107E-1
1.673569527E1,3.894870281E-1,-4.057456017E0,6.744450331E-1
1.675583084E1,-3.542001545E-2,-2.867423296E0,7.873629928E-1
1.677609860E1,-6.004092097E-1,2.973417044E-1,4.620580971E-1
1.679636641E1,2.371543199E-1,1.046488404E0,4.024033546E-1
1.681663417E1,1.106143117E0,7.222487330E-1,6.755102873E-1
1.683690194E1,1.314402223E0,5.890907645E-1,5.542033911E-1
1.685716975E1,1.010402560E0,4.005391300E-1,1.637842804E-1
1.687743751E1,3.442133069E-1,-1.271658540E-1,-4.061317816E-2
1.689770532E1,-2.245043069E-1,-8.853672147E-1,1.073253155E-1
1.691797308E1,-4.924181104E-1,-1.414670110E0,3.049317300E-1
1.693824089E1,-5.323655009E-1,-1.682583928E0,4.737760127E-1
1.695850865E1,-4.412854612E-1,-1.759282947E0,6.558029056E-1
1.697877641E1,-2.324937880E-1,-1.664474487E0,7.399587631E-1
1.699904423E1,-2.210422046E-2,-1.320926905E0,7.127945423E-1
1.701931199E1,6.404897571E-2,-8.155924678E-1,6.866955757E-1
1.703957980E1,2.410159074E-2,-3.304980397E-1,6.110618711E-1
1.705984756E1,-1.792306006E-1,1.343563795E-1,4.775044322E-1
1.708011532E1,-6.238450408E-1,1.668469161E-1,2.612559199E-1
1.710038313E1,-1.388571143E0,-5.265065432E-1,6.471476704E-2
1.712065089E1,-2.291115761E0,-1.228914738E0,-2.211753577E-1
1.714091865E1,-2.795917511E0,-1.873132944E0,-1.048086286E0
1.716118647E1,-3.059037685E0,-2.480200052E0,-2.127464533E0
1.718145423E1,-2.994589329E0,-1.942375064E0,-3.113765717E0
1.720172199E1,-1.700560212E0,8.234487772E-1,-3.317630529E0
1.722198980E1,-4.980107397E-2,2.865559101E0,-2.756369591E0
1.724225756E1,1.211071610E0,2.788860321E0,-1.560478091E0
1.726252532E1,1.668469191E0,9.334372729E-2,-9.363667369E-1
1.728279308E1,1.288835883E0,-1.820535541E0,-9.353014827E-1
1.730306089E1,9.390298724E-1,-2.937597752E0,-7.941540480E-1
1.732332865E1,8.591351509E-1,-4.113914967E0,-5.129244328E-1
1.734359647E1,3.601922691E-1,-5.135236740E0,-4.677838981E-1
1.736386423E1,-5.950828791E-1,-4.805670738E0,-6.338318586E-1
1.738413199E1,-9.998830557E-1,-3.788077593E0,-4.896217883E-1
1.740439975E1,-7.223818898E-1,-3.374888420E0,2.474074811E-1
1.742466756E1,7.896266878E-2,-3.411639929E0,7.378282547E-1
1.744493532E1,5.917539597E-1,-3.100583076E0,7.905587554E-1
1.746520308E1,4.651207328E-1,-2.776875973E0,6.153228879E-1
1.748547089E1,-4.167844057E-1,-1.965810895E0,4.071970284E-1
1.750573865E1,-1.388038516E0,-6.154560447E-1,1.259674281E-1
1.752600641E1,-1.754356027E0,-2.932138145E-1,-2.889527567E-2
1.754627412E1,-1.608015418E0,-1.335307956E0,-6.404897571E-2
1.756654194E1,-1.252750039E0,-1.810948133E0,-1.338237375E-1
1.758680975E1,-3.028011918E-1,-7.416898012E-1,-5.358276367E-1
1.760707751E1,5.992107987E-1,9.058735967E-1,-6.775076985E-1
1.762734527E1,1.156210542E0,9.341030717E-1,-4.821649492E-1
1.764761303E1,1.178581119E0,1.073119998E0,4.215780795E-1
1.766788079E1,7.643266916E-1,2.208957434E0,1.182975292E0
1.768814860E1,6.450171471E-1,2.195641518E0,1.866874546E-1
1.770841636E1,1.154080033E0,2.600574791E-1,-6.780403256E-1
1.772868412E1,1.438505411E0,-1.587242842E0,-5.768402815E-1
1.774895188E1,1.243562102E0,-2.985534430E0,-6.657897611E-4
1.776921964E1,7.366297841E-1,-4.069706440E0,4.450138807E-1
1.778948740E1,3.229080439E-1,-4.413786888E0,5.158539414E-1
1.780975522E1,1.487374306E-1,-3.855721712E0,5.243760347E-1
1.783015522E1,1.503353268E-1,-2.589389563E0,3.565970063E-1
1.785029074E1,2.952111959E-1,-9.008135796E-1,7.163897902E-2
1.787055850E1,4.976112843E-1,5.422192216E-1,-2.643185556E-1
1.789082631E1,7.707182169E-1,1.360741138E0,-5.054675937E-1
1.791109407E1,1.259541154E0,1.188701034E0,-3.527354300E-1
1.793136183E1,1.959286094E0,-2.661827564E0,9.720530361E-2
1.795162959E1,1.904957652E0,-5.004342079E0,5.211802125E-1
1.797189735E1,1.311738968E0,-4.868521214E0,6.350302696E-1
1.799216511E1,6.269076467E-1,-2.955707073E0,6.792387366E-1
1.801243287E1,2.984069884E-1,-5.515402555E-1,8.182556629E-1
1.803283287E1,2.760364413E-1,1.058206320E0,8.555398583E-1
1.805296844E1,2.952111959E-1,1.512408018E0,7.974829674E-1
1.807323620E1,1.450090110E-1,9.735178351E-1,6.675208211E-1
1.809350397E1,-4.234423116E-2,-1.953427196E-1,4.609928429E-1
1.811377173E1,1.504684892E-2,-1.413604856E0,2.628538013E-1
1.813417173E1,3.122554123E-1,-1.888046622E0,1.685779691E-1
1.815430725E1,5.619265437E-1,-1.580851197E0,1.318263710E-1
1.817457506E1,4.294344187E-1,-5.131907463E-1,1.424790174E-1
1.819484282E1,2.419480085E-1,8.186551332E-1,1.653821766E-1
1.821511058E1,-4.926844314E-2,8.175898194E-1,1.962748319E-1
1.823551058E1,-4.514054656E-1,-4.769718051E-1,3.129211962E-1
1.825564610E1,-7.111966610E-1,-1.416267991E0,2.953443527E-1
1.827591386E1,-9.210535884E-1,-1.339568973E0,2.074600905E-1
1.829618162E1,-1.258608937E0,-8.502135277E-1,7.643266767E-2
1.831644938E1,-1.706419230E0,-8.613988161E-1,-1.034637317E-1
1.833684938E1,-2.019606590E0,-1.159139991E0,-5.235770941E-1
1.835698496E1,-2.144775152E0,-1.038232565E0,-8.676572442E-1
1.837725272E1,-2.513223171E0,-7.486140132E-1,-9.576719999E-1
1.839752048E1,-2.991393566E0,-5.691171288E-1,-8.820382953E-1
1.841778824E1,-3.055841923E0,-4.950812757E-1,-8.644614220E-1
1.843805605E1,-2.586193800E0,-3.203780353E-1,-1.029044628E0
1.845832381E1,-1.850229740E0,1.242363751E-1,-1.168461084E0
1.847859157E1,-1.239966869E0,6.791055799E-1,-1.202016830E0
1.849885928E1,-8.427566886E-1,5.773729086E-1,-1.125317931E0
1.851912709E1,-5.950828791E-1,-8.486156464E-1,-9.273120165E-1
1.853939485E1,-3.406180441E-1,-3.983020782E0,-6.860297918E-1
1.855966261E1,5.925529078E-2,-6.721547127E0,-6.817687154E-1
1.857993042E1,-5.966808200E-1,-5.046952724E0,-1.671664953E0
1.860019818E1,-1.905090809E0,-1.295493722E0,-3.040795088E0
1.862046594E1,-1.741572857E0,-1.065929413E0,-2.499774218E0
1.864073371E1,-7.724493146E-1,-2.821617126E0,-1.398558021E0
1.866100147E1,-1.190432087E-1,-2.896718264E0,-8.138614297E-1
1.868126923E1,3.207775056E-1,-1.945038199E0,-3.804322779E-1
1.870153699E1,5.773729086E-1,-1.158074737E0,-1.071921512E-1
1.872180475E1,6.860297918E-1,-9.242493510E-1,4.660528619E-3
1.874207251E1,6.679202914E-1,-9.530115128E-1,7.323687430E-3
1.876247251E1,5.274386406E-1,-1.110670447E0,9.321057005E-4
1.878260803E1,3.671164811E-1,-1.506815434E0,8.548741043E-2
1.880287584E1,2.946785688E-1,-2.074467897E0,2.202432603E-1
1.882314360E1,2.408827394E-1,-2.581400156E0,1.131842583E-1
1.884341136E1,9.653951973E-2,-2.544648409E0,-2.280995846E-1
1.886367912E1,1.125184745E-1,-1.276319027E0,-7.020087242E-1
1.888394688E1,5.656549931E-1,8.893619776E-1,-1.016261458E0
1.890421464E1,1.073652625E0,2.665289640E0,-1.007206798E0
1.892448240E1,1.979526162E0,2.159422636E0,-6.727139950E-1
1.894475016E1,2.278732061E0,3.281011879E-1,3.448791057E-2
1.896501792E1,1.627989173E0,6.977477074E-1,7.900261283E-1
1.898528574E1,-8.347672224E-1,6.458161026E-2,7.021418810E-1
1.900555350E1,-2.064347744E0,-2.917890310E0,2.356895804E-1
1.902582126E1,-8.368977308E-1,-4.014845371E0,-2.888196111E-1
1.904608902E1,3.271690905E-1,-2.905772924E0,-2.110553533E-1
1.906635678E1,1.045556307E0,-1.956756115E0,2.063948363E-1
1.908662454E1,1.381513834E0,-1.417333245E0,5.499423742E-1
1.910689230E1,1.347957969E0,-9.583377838E-1,7.729819417E-1
1.912716006E1,8.474172354E-1,-4.487423003E-1,7.335671782E-1
1.914742782E1,1.375521719E-1,3.079943359E-1,4.881570637E-1
1.916769563E1,-3.810980618E-1,8.335688114E-1,2.633864284E-1
1.918796339E1,-5.201149583E-1,8.621977568E-1,6.364950538E-2
1.920823115E1,1.078579482E-2,-2.719085515E-1,-1.279647946E-1
1.922849891E1,9.853688478E-1,-2.070739269E0,-3.079943359E-1
1.924876667E1,1.361806393E0,-2.507896900E0,-4.065312445E-1
1.926903444E1,1.211604238E0,-1.995105624E0,-2.882869840E-1
1.928943444E1,6.498108506E-1,-8.454198837E-1,8.921583183E-3
1.930957001E1,1.332911104E-1,4.330296814E-1,1.850895584E-1
1.932983777E1,-7.270424068E-2,1.080044150E0,2.095906287E-1
1.935010553E1,2.037316747E-2,1.066195726E0,2.261022031E-1
1.937037329E1,2.179795653E-1,7.552719116E-1,2.282327414E-1
1.939064105E1,3.042659163E-1,4.554001987E-1,1.792306006E-1
1.941090881E1,2.270343155E-1,1.769669205E-1,8.974846452E-2
1.943117657E1,1.545963883E-1,-1.724395454E-1,-3.581948951E-2
1.945144433E1,2.190448344E-1,-4.428833723E-1,-1.657816470E-1
1.947171209E1,3.969438672E-1,-5.547360182E-1,-2.446111590E-1
1.949197990E1,5.274386406E-1,-6.197171211E-1,-2.776343226E-1
1.951224766E1,3.857586086E-1,-7.793735266E-1,-2.637858987E-1
1.953264766E1,-9.081372619E-2,-6.500771642E-1,-1.556616426E-1
1.955278319E1,-5.073317885E-1,-9.986846708E-3,-6.884266436E-2
1.957305095E1,-6.030724049E-1,6.301034689E-1,7.323687430E-3
1.959331870E1,-4.572644234E-1,8.707198501E-1,7.962846011E-2
1.961358647E1,-3.171822429E-1,7.824361324E-1,1.201084778E-1
1.963398647E1,-4.008054435E-1,4.985433817E-1,1.291632205E-1
1.965412199E1,-7.958850861E-1,1.253016293E-1,9.454214573E-2
1.967438980E1,-1.300154328E0,-2.820285559E-1,2.277000993E-2
1.969465756E1,-1.685113907E0,-8.076030016E-1,-8.056056499E-2
1.971492532E1,-1.814543486E0,-1.156476855E0,-6.884266436E-2
1.973532532E1,-1.733583450E0,-9.972199202E-1,3.661843762E-2
1.975546084E1,-1.604287028E0,-6.042708158E-1,1.563274413E-1
1.977572860E1,-1.474324822E0,-1.862879843E-1,2.500706315E-1
1.979599636E1,-1.310806870E0,1.524658650E-1,2.798980176E-1
1.981626412E1,-1.100950003E0,3.095922470E-1,2.356895804E-1
1.983653188E1,-1.035036802E0,2.568616867E-1,8.282424510E-2
1.985679964E1,-1.293762684E0,2.254364192E-1,-1.311605871E-1
1.987706746E1,-1.892840385E0,5.310339332E-1,-3.756386042E-1
1.989733522E1,-2.391250610E0,8.042740226E-1,-5.326318145E-1
1.991760298E1,-2.332661152E0,1.492700726E-1,-8.106656075E-1
1.993800298E1,-1.472726941E0,-1.222523212E0,-1.652490258E0
1.995813850E1,-2.026664019E-1,-3.613906801E-1,-2.290982723E0
1.997840626E1,7.243793011E-1,1.370328546E0,-1.517867565E0
1.999867402E1,1.104012609E0,1.738776565E0,-1.131709456E0
2.001894178E1,1.179113746E0,9.926925302E-1,-8.458193541E-1
2.003920954E1,1.137035728E0,1.519332230E-1,-3.388870060E-1
2.005947730E1,8.852340579E-1,-8.388951421E-3,1.265000552E-1
2.007974511E1,5.331644416E-1,-2.049300969E-1,4.055991173E-1
2.010001282E1,3.623228073E-1,-1.048352599E0,5.822997093E-1
2.012028063E1,5.779055357E-1,-2.303499460E0,6.440850496E-1
2.014054839E1,1.067793608E0,-3.160237789E0,6.616618633E-1
2.016081615E1,1.511475921E0,-3.079810381E0,7.064029574E-1
2.018108391E1,1.738776565E0,-2.347707987E0,6.893587112E-1
2.020135167E1,1.671132326E0,-1.257676840E0,6.542050242E-1
2.022161944E1,1.354882240E0,-2.916159295E-2,6.776408553E-1
2.024188720E1,1.002413034E0,6.908234954E-1,6.728471518E-1
2.026215496E1,8.809730411E-1,9.074714780E-1,5.870934129E-1
2.028242272E1,6.886929274E-1,6.977477074E-1,4.508728385E-1
2.030269048E1,4.395544231E-1,-8.402267098E-2,3.534012139E-1
2.032295824E1,3.218427896E-1,-9.775125384E-1,1.616537571E-1
2.034322600E1,1.135837361E-1,-1.033438921E0,-1.402153224E-1
2.036349376E1,-1.328916401E-1,1.189100519E-1,-3.772364855E-1
2.038376152E1,7.843003422E-2,1.182309508E0,-5.209138989E-1
2.040402928E1,5.677855015E-1,1.621597528E0,-5.198486447E-1
2.042429704E1,8.948214650E-1,2.018807650E0,-4.741754830E-1
2.044456480E1,5.944170952E-1,1.934651971E0,-2.920154035E-1
2.046483256E1,-7.463503480E-1,1.613608122E0,7.163897902E-2
2.048510032E1,-1.245293140E0,3.345327377E0,1.243695319E-1
2.050536808E1,-1.488705873E-1,3.712710142E0,-1.611211337E-2
2.052563584E1,7.520761490E-1,1.386174321E0,-1.824264042E-2
2.054590360E1,9.534109831E-1,-2.459959984E0,1.701758653E-1
2.056617136E1,8.681898713E-1,-4.928175926E0,6.824344993E-1
2.058643912E1,7.025413513E-1,-5.524590492E0,1.027047276E0
2.060670688E1,4.443480968E-1,-4.085685730E0,8.768451214E-1
2.062697464E1,-6.169208288E-1,8.175898194E-1,4.199801981E-1
2.064724240E1,-4.237086177E-1,3.104577780E0,1.472726911E-1
2.066751016E1,8.761793375E-1,2.914561272E0,-1.380847991E-1
2.068777792E1,1.604686499E0,1.907088280E0,-2.376869470E-1
2.070804563E1,1.154080033E0,1.507081747E0,-3.053312004E-1
2.072831339E1,2.547311783E-1,9.250482917E-1,-5.070654750E-1
2.074858115E1,-4.444812536E-1,1.988048255E-1,-5.747097135E-1
2.076884891E1,-7.607313991E-1,-5.265065432E-1,-4.123901725E-1
2.078911667E1,-9.386304021E-1,-9.386304021E-1,-2.254364192E-1
2.080938444E1,-1.333710074E0,-6.554034352E-1,-1.428784877E-1
2.082965220E1,-1.815608740E0,-1.687111259E-1,9.321057005E-4
2.084991996E1,-2.013747692E0,-5.419528857E-2,2.735064328E-1
2.087018772E1,-1.896568775E0,-1.218395308E-1,4.913528562E-1
2.089045548E1,-1.682983398E0,6.724476814E-2,5.733781457E-1
2.091072324E1,-1.839577198E0,2.861564457E-1,5.902892351E-1
2.093099100E1,-2.569149494E0,5.267728567E-1,3.906854391E-1
2.095125876E1,-3.384875298E0,9.261136055E-1,-2.265016884E-1
2.097152647E1,-3.137334585E0,3.994738758E-1,-8.628635406E-1
2.099179423E1,-2.219210386E0,-2.065279931E-1,-1.361806393E0
2.101206199E1,-1.026514649E0,-1.058605760E-1,-1.878326058E0
2.103246199E1,7.355645299E-1,1.179113746E0,-1.599227071E0
2.105259751E1,1.623195529E0,2.692986488E0,-6.146571040E-1
2.107286527E1,1.481115937E0,1.945837140E0,-7.946866751E-1
2.109313303E1,1.371393800E0,3.403517306E-1,-9.821730852E-1
2.111340079E1,1.326120019E0,-8.784430027E-1,-4.789691567E-1
2.113380079E1,1.192429543E0,-1.482314348E0,2.250369489E-1
2.115393631E1,9.624657035E-1,-1.670333385E0,7.138597965E-1
2.117420397E1,8.378298283E-1,-2.128263712E0,1.051015735E0
2.119447178E1,1.143959999E0,-2.839726448E0,1.299088955E0
2.121473954E1,1.341033816E0,-2.382195711E0,1.125983715E0
2.123513954E1,1.393231630E0,-1.517468095E0,8.225166798E-1
2.125527506E1,1.400688529E0,-7.400919199E-1,5.291697383E-1
2.127554282E1,1.270193696E0,-4.253064990E-1,2.468748540E-1
2.129581058E1,9.070720077E-1,-5.765739679E-1,1.142495275E-1
2.131607834E1,4.677838981E-1,-7.358308434E-1,3.062632866E-3
2.133647834E1,2.014679909E-1,-8.411588073E-1,-2.270343155E-1
2.135661381E1,1.519332230E-1,-7.772429585E-1,-3.862912357E-1
2.137688157E1,3.596596420E-1,-2.569948435E-1,-4.273038805E-1
2.139714933E1,8.825709224E-1,3.802991211E-1,-4.459459782E-1
2.141741709E1,1.278715849E0,9.106672406E-1,-4.953475893E-1
2.143768485E1,1.256877899E0,1.569399714E0,-5.720465779E-1
2.145795261E1,7.275750637E-1,2.404965878E0,-6.221139431E-1
2.147822032E1,-2.074600905E-1,3.556116343E0,-4.086617529E-1
2.149848808E1,-1.557948112E0,-5.717802644E-1,-1.109205782E-1
2.151875584E1,-8.928241134E-1,-1.031308413E0,-1.199753210E-1
2.153915584E1,-6.791055668E-3,-3.257043660E-1,6.205160543E-2
2.155929136E1,6.641919017E-1,-4.615254700E-1,5.190497041E-1
2.157955912E1,9.677920341E-1,-1.081375718E0,9.364998937E-1
2.159982683E1,1.124252558E0,-1.701758623E0,1.104811549E0
2.162009459E1,1.146623135E0,-1.751826048E0,9.711209536E-1
2.164036235E1,3.772364855E-1,1.412805915E-1,5.499423742E-1
2.166063011E1,-4.306328297E-1,2.709498167E0,2.868222296E-1
2.168089787E1,-4.127896391E-3,3.132807255E0,4.820318148E-2
2.170116563E1,8.154593110E-1,2.000165701E0,-1.519332230E-1
2.172143334E1,7.222487330E-1,1.204679966E0,-3.436806798E-1
2.174170110E1,9.600688517E-2,7.025413513E-1,-3.878891170E-1
2.176196886E1,-4.524707198E-1,1.743037701E-1,-3.005374968E-1
2.178223662E1,-8.049398661E-1,-2.601906359E-1,-1.588574350E-1
2.180250438E1,-1.132907867E0,-4.221107066E-1,2.756369673E-2
2.182277214E1,-1.321992159E0,-2.772348523E-1,1.296958476E-1
2.184303990E1,-1.229846835E0,2.286322117E-1,9.720530361E-2
2.186330761E1,-1.137168884E0,8.197203875E-1,2.916159295E-2
2.188357537E1,-1.212802649E0,1.252084255E0,6.258423906E-3
2.190384313E1,-1.640905499E0,1.196690559E0,-9.334372729E-2
2.192411089E1,-2.423208475E0,5.560676455E-1,-3.351585865E-1
2.194437865E1,-3.268228769E0,-2.969422378E-2,-6.556697488E-1
2.196464641E1,-3.315633059E0,-3.203780353E-1,-8.756467104E-1
2.198491417E1,-2.432795763E0,-1.884185076E-1,-1.041694641E0
2.200518194E1,-1.324122667E0,3.195790946E-1,-1.327718019E0
2.202544964E1,1.625858694E-1,7.707182169E-1,-1.441168547E0
2.204571740E1,9.944236279E-1,1.409610152E0,-8.229161501E-1
2.206598516E1,9.262467623E-1,7.632613778E-1,-7.382277250E-1
2.208625292E1,8.367645741E-1,9.014793485E-2,-7.467498183E-1
2.210652069E1,9.821730852E-1,-1.314269006E-1,-2.637858987E-1
2.212678845E1,1.232376933E0,-2.436790615E-1,4.540686309E-1
2.214705621E1,1.307477951E0,-3.448790908E-1,9.748494029E-1
2.216732391E1,1.063665748E0,-6.585992575E-1,1.190432072E0
2.218759157E1,7.723161578E-1,-1.446095347E0,1.110670447E0
2.220785944E1,8.974846005E-1,-2.522278070E0,1.025982022E0
2.222812720E1,1.080576777E0,-2.752374887E0,1.110137820E0
2.224839496E1,1.103479981E0,-2.315217257E0,1.021188378E0
2.226866272E1,9.454214573E-1,-1.744369268E0,6.275734305E-1
2.228893048E1,6.103960872E-1,-1.194293737E0,1.920137703E-1
2.230919818E1,4.352933466E-1,-6.772413850E-1,-1.551290154E-1
2.232959819E1,5.741770864E-1,-2.878875136E-1,-4.182491302E-1
2.234973371E1,7.621961236E-1,-4.034686089E-2,-5.896234512E-1
2.237000147E1,9.294425249E-1,2.222406268E-1,-6.876276731E-1
2.239026923E1,9.134635925E-1,2.211753577E-1,-7.041392922E-1
2.241066923E1,6.444845200E-1,-7.976161689E-2,-5.795034170E-1
2.243080475E1,2.408827394E-1,-5.467465520E-1,-4.395544231E-1
2.245107246E1,-1.355548054E-1,-9.301083088E-1,-3.612575233E-1
2.247134022E1,-5.057339072E-1,-6.351634264E-1,-3.026680350E-1
2.249160798E1,-1.016927361E0,1.591237545E0,-1.109205782E-1
2.251187574E1,-9.391630292E-1,3.750526905E0,2.330264151E-1
2.253222214E1,3.207775056E-1,3.791539669E0,-9.600688517E-2
2.255241131E1,1.091762066E0,1.517734408E0,-7.097318769E-2
2.257267897E1,1.065796256E0,-1.505750179E0,3.342264593E-1
2.259294678E1,7.637940049E-1,-3.699660540E0,8.416914344E-1
2.261321449E1,6.162550449E-1,-4.171971798E0,9.727188349E-1
2.263361449E1,-2.058621943E-1,-1.821600795E0,5.046686530E-1
2.265375001E1,-1.248489022E0,2.015611887E0,2.916159295E-2
2.267401777E1,-5.476786494E-1,2.936931849E0,2.223737910E-2
2.269428553E1,9.470193982E-1,1.947435141E0,3.994738800E-4
2.271455324E1,1.329848528E0,1.516136527E0,9.667267650E-2
2.273495324E1,8.005456328E-1,1.268595815E0,3.994738800E-4
2.275508876E1,-3.861580789E-2,6.327666044E-1,-1.055942550E-1
2.277535652E1,-6.025397182E-1,-3.491401672E-1,8.655267209E-2
2.279562428E1,-6.579334736E-1,-9.343693852E-1,9.134636074E-2
2.281589204E1,-5.599291921E-1,-4.833633900E-1,-9.653951973E-2
2.283629204E1,-5.982787013E-1,4.149201810E-1,-2.410159074E-2
2.285642751E1,-6.643250585E-1,7.819035053E-1,5.299686641E-2
2.287669527E1,-7.831019163E-1,5.278381109E-1,-2.676474862E-2
2.289696303E1,-1.080310464E0,1.620532274E-1,-8.855003864E-2
2.291723074E1,-1.669134974E0,3.954791278E-2,-2.776343226E-1
2.293763074E1,-2.458362103E0,4.647212476E-2,-6.870950460E-1
2.295776631E1,-3.218294621E0,5.446160212E-2,-1.101349473E0
2.297803407E1,-3.238401413E0,-2.065279931E-1,-1.142894745E0
2.299830183E1,-2.035585642E0,-6.607297659E-1,-9.576719999E-1
2.301856954E1,-1.113733172E0,-9.986846708E-3,-7.792403698E-1
2.303883735E1,-4.980107397E-2,7.792403698E-1,-5.592634082E-1
2.305910506E1,1.074185252E0,1.332511663E0,-2.749711871E-1
2.307937282E1,1.315467477E0,8.898946047E-1,-3.878891170E-1
2.309964058E1,1.293629527E0,9.867004305E-2,-3.905522823E-1
2.311990834E1,1.341566443E0,-5.217128396E-1,3.768370301E-2
2.314017610E1,1.439570665E0,-8.922914863E-1,6.845650673E-1
2.316044386E1,1.419330597E0,-8.827040792E-1,1.076582074E0
2.318071162E1,1.048219442E0,-9.625988603E-1,1.106942058E0
2.320097938E1,4.661859870E-1,-1.604819655E0,9.056072235E-1
2.322124714E1,2.771016955E-1,-3.071820974E0,7.383608818E-1
2.324151490E1,5.390233994E-1,-3.707117558E0,5.233107805E-1
2.326178266E1,8.878972530E-1,-2.646913767E0,1.355548054E-1
2.328205042E1,1.096555710E0,-1.180445313E0,-1.854890287E-1
2.330231818E1,1.007206798E0,-1.175784767E-1,-1.689774394E-1
2.332258594E1,8.719182611E-1,5.273054838E-1,-1.231711060E-1
2.334285365E1,7.824361324E-1,7.414234877E-1,-1.284974217E-1
2.336312141E1,6.237118840E-1,6.945518851E-1,-4.380896688E-2
2.338338917E1,2.771016955E-1,5.826992393E-1,5.832318589E-2
2.340365688E1,-1.882853508E-1,6.029392481E-1,1.478053257E-2
2.342392470E1,-3.299654126E-1,8.882967234E-1,-3.143859208E-1
2.344419246E1,9.014793485E-2,1.040096760E0,-5.736444592E-1
2.346446022E1,6.487455368E-1,1.023585200E0,-6.508761048E-1
2.348472798E1,1.137568355E0,1.023585200E0,-3.788343966E-1
2.350499574E1,6.530066133E-1,1.532115459E0,9.187898785E-2
2.352526344E1,-8.012114167E-1,1.736113429E0,1.211737394E-1
2.354553121E1,-4.178496599E-1,1.249953747E0,5.185170770E-1
2.356579897E1,1.620532274E-1,-7.990809083E-1,6.685860753E-1
2.358606673E1,5.613939166E-1,-2.980740786E0,5.961481929E-1
2.360633449E1,5.747097135E-1,-3.915376425E0,5.803023577E-1
2.362660225E1,2.323606312E-1,-2.701242208E0,5.105276108E-1
2.364687001E1,-5.270391703E-1,3.669833243E-1,2.948117256E-1
2.366713777E1,-4.961465299E-1,2.071005583E0,1.265000552E-2
2.368740553E1,3.793670237E-1,2.279797316E0,-2.552638054E-1
2.370767329E1,1.042360425E0,1.971936107E0,-1.838911325E-1
2.372794105E1,9.161267281E-1,1.732385039E0,-1.045289934E-1
2.374820881E1,1.636511236E-1,1.556083918E0,-1.641837656E-1
2.376847657E1,-5.382244587E-1,1.192429543E0,-1.162468940E-1
2.378874428E1,-7.841671705E-1,4.298338890E-1,1.850895584E-2
2.380901209E1,-6.834998131E-1,-2.447443157E-1,1.296958476E-1
2.382927980E1,-6.147902608E-1,-7.017423958E-2,1.446095407E-1
2.384954761E1,-8.262451291E-1,6.652571559E-1,1.541969180E-1
2.386981532E1,-1.228781581E0,1.084837914E0,1.685779691E-1
2.389008308E1,-1.644633889E0,1.161004186E0,8.175898343E-2
2.391035084E1,-2.143177271E0,9.671262503E-1,-1.311605871E-1
2.393061860E1,-3.086734533E0,4.894886315E-1,-4.320975542E-1
2.395088636E1,-3.984485388E0,-2.150501013E-1,-6.908234954E-1
2.397115412E1,-3.690605879E0,-7.985482812E-1,-9.166593552E-1
2.399142188E1,-2.690589666E0,1.398158539E-2,-1.205212593E0
2.401168964E1,-9.391630292E-1,9.575388432E-1,-1.625326037E0
2.403195740E1,8.703203797E-1,2.320277452E0,-1.611477613E0
2.405222516E1,1.208941102E0,1.674860716E0,-1.308010578E0
2.407249292E1,9.986846447E-1,4.820317924E-1,-1.485909581E0
2.409276069E1,1.042360425E0,-1.314269006E-1,-9.608678222E-1
2.411302844E1,1.156743169E0,-4.721781015E-1,2.117211558E-2
2.413342844E1,8.687224984E-1,-6.362286806E-1,6.925545335E-1
2.415356391E1,3.127880394E-1,-9.839041233E-1,1.157408953E0
2.417383167E1,2.211753577E-1,-1.927461386E0,1.469531178E0
2.419409944E1,9.022783041E-1,-2.426936865E0,1.522261739E0
2.421436720E1,1.477920175E0,-1.603221774E0,1.254880548E0
2.423476720E1,1.747831345E0,-5.850960612E-1,8.779103756E-1
2.425490272E1,1.660479665E0,-3.062632866E-3,7.271755934E-1
2.427517048E1,1.297357917E0,5.459476262E-3,7.596661448E-1
2.429543824E1,7.627287507E-1,-4.546012580E-1,7.548724413E-1
2.431570600E1,2.802974880E-1,-1.014264107E0,5.621928573E-1
2.433610600E1,8.322372288E-2,-1.315600634E0,2.564622164E-1
2.435624152E1,2.371543199E-1,-1.341166973E0,-9.334372729E-2
2.437650928E1,5.390233994E-1,-1.272057891E0,-3.538006842E-1
2.439677704E1,7.866972089E-1,-9.977525473E-1,-3.921501637E-1
2.441704480E1,8.655267358E-1,-4.732433856E-1,-3.159838319E-1
2.443731256E1,7.808382511E-1,1.418132186E-1,-2.760364413E-1
2.445758032E1,6.562023759E-1,5.928192139E-1,-2.978743315E-1
2.447784808E1,5.285038948E-1,5.017392039E-1,-2.462090552E-1
2.449811584E1,4.241080880E-1,4.221107066E-2,-1.439437568E-1
2.451838360E1,2.131858915E-1,2.760364413E-1,-1.306279600E-1
2.453865131E1,-6.696513295E-1,2.072070837E0,1.744369231E-2
2.455891912E1,-1.920537233E0,3.757451296E0,2.980075181E-1
2.457918688E1,-4.093275666E-1,3.552920580E0,-9.867004305E-2
2.459945464E1,6.748445034E-1,1.399490118E0,-2.643185556E-1
2.461972235E1,8.729835749E-1,-1.586177588E0,1.595232338E-1
2.463999011E1,6.908234954E-1,-3.649593353E0,6.558029056E-1
2.466025787E1,4.384891391E-1,-4.163982391E0,1.014796734E0
2.468052563E1,2.781669796E-1,-3.492466927E0,9.966872931E-1
2.470079339E1,-9.119988084E-1,5.262402296E-1,4.503402114E-1
2.472106115E1,-7.394261360E-1,2.768620253E0,2.532664239E-1
2.474132891E1,1.047154188E0,1.499092221E0,3.944138587E-1
2.476159667E1,1.646098614E0,8.973514438E-1,3.081275225E-1
2.478186444E1,1.022120476E0,6.119939685E-1,2.170474641E-2
2.480213220E1,-2.530001104E-2,-1.383511126E-1,-1.071921512E-1
2.482239990E1,-8.134619594E-1,-1.167662144E0,8.548741043E-2
2.484266772E1,-9.913609624E-1,-1.957288742E0,2.490053773E-1
2.486293548E1,-8.736493587E-1,-2.155427933E0,4.114580750E-1
2.488320319E1,-7.713840604E-1,-1.585644960E0,6.158555150E-1
2.490347095E1,-7.202513814E-1,-8.310387731E-1,7.948198318E-1
2.492373870E1,-8.257125020E-1,-4.119907022E-1,8.097335100E-1
2.494400647E1,-1.278849006E0,-3.741738498E-1,5.876260400E-1
2.496427423E1,-2.434393644E0,-1.511342824E-1,1.014663652E-1
2.498454199E1,-3.871567488E0,2.430132627E-1,-7.733814120E-1
2.500480975E1,-4.317247391E0,-3.075948730E-2,-1.547162294E0
2.502507751E1,-3.483412027E0,-1.184706330E0,-1.993907213E0
2.504534527E1,-2.563823223E0,-1.511076450E0,-2.201500416E0
2.506561303E1,-9.157272577E-1,-7.139929533E-1,-2.167412043E0
2.508588079E1,1.157275796E0,4.862928391E-1,-1.476854920E0
2.510614855E1,1.436374903E0,5.603286624E-1,-1.552488565E0
2.512641631E1,1.049817324E0,1.247690022E-1,-2.169542551E0
2.514668407E1,1.122122049E0,-5.227781534E-1,-1.956622958E0
2.516695183E1,1.298955798E0,-1.260340095E0,-1.290966392E0
2.518721959E1,8.186551332E-1,-1.351819515E0,-7.211834788E-1
2.520748735E1,4.860265180E-2,-1.644767046E0,-1.716406047E-1
2.522775506E1,-3.906854391E-1,-2.717753887E0,3.326285779E-1
2.524802282E1,-1.518000662E-2,-4.297140598E0,6.845650673E-1
2.526829058E1,5.709813237E-1,-4.226300240E0,6.211818457E-1
2.528855834E1,9.757815003E-1,-2.840259075E0,2.761695981E-1
2.530882610E1,1.314934850E0,-1.464737535E0,3.715106845E-2
2.532909386E1,1.422526479E0,-6.388918757E-1,8.229161799E-2
2.534936162E1,1.197223186E0,-3.384875357E-1,3.219759464E-1
2.536962938E1,8.873646259E-1,-3.528685868E-1,4.375570416E-1
2.538989714E1,4.896217883E-1,-4.737760127E-1,3.113232851E-1
2.541016490E1,9.121319652E-2,-5.563339591E-1,1.547295451E-1
2.543043266E1,-2.902843431E-2,-7.656582594E-1,8.655267209E-2
2.545070042E1,1.327584833E-1,-1.131975770E0,-1.008005738E-1
2.547096818E1,3.106575012E-1,-1.505750179E0,-4.416849315E-1
2.549123595E1,2.089248300E-1,-1.211870551E0,-7.254445553E-1
2.551150371E1,-3.379548788E-1,3.475422785E-2,-8.303729892E-1
2.553177147E1,-3.512706757E-1,1.092827320E0,-7.510108948E-1
2.555203917E1,1.444763839E-1,1.461808085E0,-6.364950538E-1
2.557230694E1,5.544697046E-1,1.819203973E0,-4.805670679E-1
2.559257470E1,3.878891170E-1,2.246241570E0,-2.520680130E-1
2.561284246E1,-5.142560005E-1,3.606716394E0,4.913528562E-1
2.563324246E1,-1.184573174E0,3.479550600E0,1.070190430E0
2.565337798E1,-1.261272192E0,-1.026514649E0,8.874977827E-1
2.567364574E1,-2.500706315E-1,-6.060817719E0,4.151864946E-1
2.569391350E1,6.886929274E-1,-8.195606232E0,-1.199753210E-1
2.571418126E1,1.313869596E0,-7.057105541E0,-1.025316212E-2
2.573458126E1,1.847433448E0,-4.486757278E0,-6.351634115E-2
2.575471673E1,2.096705198E0,-1.137302041E0,-3.559312224E-1
2.577498449E1,1.352751613E0,2.652506351E0,6.151897460E-2
2.579525225E1,1.509878039E0,3.597129107E0,1.584579647E-1
2.581552001E1,1.838378787E0,2.602439165E0,3.374222517E-1
2.583592001E1,1.764342904E0,1.501755476E0,7.032071352E-1
2.585605548E1,1.422526479E0,6.753771305E-1,8.086682558E-1
2.587632324E1,9.986846447E-1,6.937529147E-2,7.197187543E-1
2.589659100E1,5.470128655E-1,-7.145255804E-1,6.206492186E-1
2.591685876E1,2.504701018E-1,-1.853958249E0,6.163882017E-1
2.593725876E1,1.498026997E-1,-2.526006460E0,5.542033911E-1
2.595739428E1,-3.779022694E-1,-1.539305925E0,4.812328517E-1
2.597766199E1,-1.160604715E0,3.531349003E-1,5.653886795E-1
2.599792975E1,-1.414670110E0,1.488439679E0,4.743086398E-1
2.601819751E1,-1.411474347E0,1.045423150E0,7.803056389E-2
2.603859751E1,-1.784716129E0,-3.459443748E-1,-2.451438010E-1
2.605873298E1,-2.347574711E0,-1.553686976E0,-5.219792128E-1
2.607900074E1,-2.540387392E0,-1.815741897E0,-1.061934710E0
2.609926850E1,-2.464221001E0,-1.052613616E0,-1.504019141E0
2.611953626E1,-2.171806335E0,3.016027808E-1,-1.751027107E0
2.613980397E1,-1.807086587E0,1.385242224E0,-1.967808247E0
2.616007173E1,-1.572861791E0,1.770734429E0,-2.150900364E0
2.618033949E1,-1.351286888E0,1.151949525E0,-1.915077686E0
2.620060725E1,-8.033419251E-1,-1.095224142E0,-1.224920034E0
2.622087501E1,-3.166496158E-1,-3.018557787E0,-8.612656593E-1
2.624114272E1,1.045289934E-1,-4.742820263E0,-8.122635484E-1
2.626141048E1,1.711079776E-1,-6.050697327E0,-9.800425768E-1
2.628167824E1,-9.104009271E-1,-5.789175034E0,-1.505617023E0
2.630194594E1,-1.785781384E0,-4.560127258E0,-1.857020855E0
2.632221371E1,-1.822532892E0,-3.834949017E0,-1.733982921E0
2.634248147E1,-1.195758462E0,-3.321625233E0,-1.173787355E0
2.636274923E1,-2.468748540E-1,-2.630934954E0,-6.008086801E-1
2.638301699E1,6.615287066E-1,-1.861415029E0,-2.643185556E-1
2.640328470E1,1.341033816E0,-1.339568973E0,-3.581948951E-2
2.642355246E1,1.820269227E0,-1.382712245E0,4.767054692E-2
2.644382022E1,2.066877842E0,-2.096305609E0,2.862896025E-2
2.646408792E1,1.924665093E0,-2.882869720E0,2.255695760E-1
2.648435568E1,1.036501527E0,-3.337604046E0,5.366265774E-1
2.650462344E1,-9.301083088E-1,-3.602721691E0,1.265000552E-1
2.652489121E1,-2.957304955E0,-4.070771694E0,-2.765690684E-1
2.654515891E1,-3.318828821E0,-4.585693836E0,-5.901560783E-1
2.656542667E1,-1.425855398E0,-2.370611191E0,-1.205745339E0
2.658569444E1,9.938910007E-1,1.777126074E0,-3.117227852E-1
2.660596220E1,2.236654282E0,4.362920284E0,7.095987201E-1
2.662622996E1,2.361289978E0,4.777707577E0,8.874977827E-1
2.664649766E1,1.574859142E0,2.419879436E0,4.908202291E-1
2.666676542E1,4.672512710E-1,-2.052629948E0,3.595264861E-3
2.668703318E1,-2.282327414E-1,-5.097952366E0,4.926844314E-2
2.670730089E1,-3.155843616E-1,-6.017141819E0,5.779055133E-2
2.672756865E1,-1.110537350E-1,-5.570929527E0,-5.872265995E-2
2.674783641E1,2.201101035E-1,-3.953193426E0,-5.446160212E-2
2.676810417E1,3.862912357E-1,-1.900297165E0,-1.025316212E-2
2.678837188E1,4.464786351E-1,8.535424620E-2,-6.032055244E-2
2.680863964E1,5.640571117E-1,1.578987002E0,-1.988048255E-1
2.682903964E1,7.510108948E-1,2.327201605E0,-4.576638937E-1
2.684917511E1,1.085370541E0,2.121073008E0,-5.507413149E-1
2.686944287E1,1.816008210E0,1.700427085E-1,-3.703122735E-1
2.688971063E1,2.169542551E0,-1.769935489E0,-9.547425061E-2
2.690997839E1,1.985385060E0,-2.377002716E0,2.197106332E-1
2.693024610E1,1.672197580E0,-2.069141388E0,6.222470999E-1
2.695051386E1,1.201484203E0,-1.467933297E0,8.454198837E-1
2.697078162E1,5.093291998E-1,-1.205479026E0,7.729819417E-1
2.699104938E1,-3.914843872E-2,-1.628788114E0,7.245124578E-1
2.701131709E1,-3.755054250E-2,-2.459959984E0,6.637924314E-1
2.703158485E1,4.560659826E-1,-3.000980854E0,3.864243925E-1
2.705173475E1,7.041392922E-1,-2.522810698E0,-2.569948509E-2
2.707212115E1,2.557964325E-1,-1.008405209E0,-9.334372729E-2
2.709238829E1,-2.335590571E-1,9.809746742E-1,1.233042628E-1
2.711265600E1,-3.379548788E-1,2.234523535E0,2.788327634E-1
2.713305600E1,-2.362222075E-1,2.507097960E0,2.330264151E-1
2.715319147E1,-3.805654347E-1,1.740907073E0,5.512739345E-2
2.717345912E1,-1.021721005E0,2.185122073E-1,-2.030658871E-1
2.719372688E1,-1.669667602E0,-1.022253633E0,-4.964128435E-1
2.721399459E1,-1.793770790E0,-1.354482770E0,-7.387603521E-1
2.723439459E1,-1.590438604E0,-9.263799191E-1,-9.214530587E-1
2.725453006E1,-1.430649042E0,-4.700475931E-1,-1.005608916E0
2.727479782E1,-2.171273708E0,-1.358743787E0,-9.134635925E-1
2.729506558E1,-3.237336159E0,-2.229996204E0,-3.697796464E-1
2.731533329E1,-3.478618383E0,-1.660745978E0,-1.109205782E-1
2.733573329E1,-3.276218414E0,-4.119907022E-1,-2.589922249E-1
2.735586881E1,-2.939728260E0,8.463519812E-1,-3.900196552E-1
2.737613657E1,-2.300703049E0,1.781919718E0,-2.968090773E-1
2.739640428E1,-1.306545854E0,1.831454515E0,-1.055942550E-1
2.741667204E1,-3.523359597E-1,5.635244846E-1,-1.146489978E-1
2.743693980E1,2.286322117E-1,-1.623994470E0,-3.639206886E-1
2.745720751E1,-3.459443748E-1,-2.578737020E0,-8.783098459E-1
2.747747527E1,-1.126516342E0,-1.720933437E0,-1.146090508E0
2.749774303E1,-1.244227886E0,-8.922914863E-1,-8.660593629E-1
2.751801074E1,-8.864325285E-1,-5.573992133E-1,-4.550007284E-1
2.753841074E1,-3.523359597E-1,-6.905571818E-1,-1.806953400E-1
2.755854626E1,1.258342713E-1,-9.183903933E-1,-1.284974217E-1
2.757881397E1,4.763059914E-1,-8.816388249E-1,-1.588574350E-1
2.759908173E1,8.356993198E-1,-8.363651037E-1,-1.567269117E-1
2.761934949E1,1.265400052E0,-8.603335619E-1,-1.359542757E-1
2.763961720E1,1.618401766E0,-8.938893676E-1,-1.268995255E-1
2.765988496E1,1.734515548E0,-1.014264107E0,-7.097318769E-2
2.768015272E1,1.523193836E0,-1.300820112E0,3.395527974E-2
2.770042042E1,1.119458914E0,-1.567535400E0,1.765674502E-1
2.772068818E1,7.637940049E-1,-1.758750319E0,2.031990439E-1
2.774095589E1,5.374255180E-1,-1.830655575E0,1.584579609E-2
2.776122365E1,3.506048918E-1,-1.567535400E0,-1.716406047E-1
2.778149141E1,2.307627350E-1,-1.019590497E0,-2.510027587E-1
2.780175912E1,1.977395564E-1,-5.387570858E-1,-3.143859208E-1
2.782202688E1,2.499374747E-1,-2.841590643E-1,-2.723080218E-1
2.784229459E1,4.326302111E-1,2.238385230E-1,-1.609879732E-1
2.786256235E1,7.941540480E-1,1.058206320E0,-2.275669426E-1
2.788283006E1,1.162602067E0,1.562475443E0,-2.840259075E-1
2.790309782E1,1.388437986E0,1.523060679E0,-2.382195890E-1
2.792336558E1,1.385242224E0,1.136503100E0,-1.956090331E-1
2.794363329E1,1.066861510E0,8.138614297E-1,-2.802974880E-1
2.796390105E1,4.241080880E-1,3.105243444E-1,-3.261038363E-1
2.798416881E1,-1.597895503E0,-3.464770079E0,-1.082574204E-1
2.800443652E1,-3.398190975E0,-1.807219744E0,8.335687965E-2
2.802470423E1,-1.142495275E0,2.680203438E0,1.302284747E-1
2.804497199E1,6.588655710E-1,3.275019884E0,-1.557948068E-2
2.806523975E1,1.359143257E0,1.220659018E0,3.651190996E-1
2.808550746E1,1.303749561E0,-1.867274046E0,7.724493146E-1
2.810577522E1,7.803056240E-1,-3.907387018E0,9.924262166E-1
2.812604292E1,3.197122514E-1,-4.203397274E0,9.551420212E-1
2.814631069E1,-9.294424951E-2,-2.797116041E0,7.649924755E-1
2.816657839E1,-1.352884769E0,1.681252360E0,4.412854612E-1
2.818684610E1,-1.454617500E0,4.819252491E0,-6.564687192E-2
2.820711391E1,6.764423847E-1,3.298455715E0,-2.579269707E-1
2.822738162E1,1.645033360E0,1.851161838E0,-1.801627129E-1
2.824764933E1,1.350088477E0,1.168461084E0,-2.504701018E-1
2.826791709E1,3.585943878E-1,5.763076544E-1,-1.892174482E-1
2.828818480E1,-5.940176249E-1,-1.047953144E-1,3.062632866E-3
2.830845256E1,-1.230912089E0,-5.062665343E-1,2.298306376E-1
2.832872027E1,-1.450889111E0,-6.186518669E-1,2.292979956E-1
2.834898798E1,-1.200552106E0,-7.964177132E-1,3.257043660E-1
2.836925579E1,-1.017992616E0,-3.166496158E-1,3.677822649E-1
2.838952350E1,-1.034504175E0,3.472759426E-1,2.143843025E-1
2.840979126E1,-1.368331194E0,8.213182688E-1,-5.659212917E-2
2.843005897E1,-2.217612505E0,1.395229101E0,-4.294344187E-1
2.845032673E1,-3.182608366E0,1.621597528E0,-8.729835749E-1
2.847059444E1,-3.018025160E0,8.468846083E-1,-1.145025253E0
2.849086220E1,-2.268212557E0,-1.777658761E-1,-1.359143257E0
2.851112990E1,-1.676059127E0,-6.058686972E-1,-1.654620767E0
2.853139766E1,-6.036050320E-1,5.613939166E-1,-1.533846498E0
2.855166537E1,2.691122293E-1,1.416001678E0,-7.675224543E-1
2.857193313E1,5.832318664E-1,7.531414032E-1,-9.065393806E-1
2.859220084E1,8.096003532E-1,3.968107104E-1,-1.019989967E0
2.861246860E1,1.211604238E0,3.142527640E-1,-4.512723088E-1
2.863286860E1,1.384176970E0,1.897500902E-1,3.139864504E-1
2.865300402E1,1.074185252E0,3.315633163E-2,7.085334659E-1
2.867327178E1,5.858950019E-1,-4.769718051E-1,1.003611565E0
2.869353949E1,3.191796243E-1,-1.216664195E0,1.215465784E0
2.871380725E1,6.263750196E-1,-2.265150070E0,1.276185870E0
2.873420725E1,1.110936761E0,-2.455698967E0,1.163800478E0
2.875434272E1,1.372459054E0,-1.684714437E0,8.805735707E-1
2.877461042E1,1.419863224E0,-6.719150543E-1,4.785696864E-1
2.879487813E1,1.213202119E0,-1.447426975E-1,3.038664460E-1
2.881514589E1,9.608678222E-1,-1.985385120E-1,3.129211962E-1
2.883554589E1,8.356993198E-1,-3.486075401E-1,2.980075181E-1
2.885568136E1,8.069372177E-1,-4.993423223E-1,1.861548275E-1
2.887594907E1,7.781751156E-1,-8.257125020E-1,1.637842879E-2
2.889621683E1,7.137266397E-1,-5.552686453E-1,-1.199753210E-1
2.891648454E1,6.934866309E-1,2.174469382E-1,-2.648511827E-1
2.893688454E1,8.591351509E-1,7.973498106E-1,-4.496744275E-1
2.895702001E1,1.165797949E0,1.055010438E0,-5.289034247E-1
2.897728772E1,1.434244394E0,1.039564133E0,-4.635228515E-1
2.899768772E1,1.202549458E0,-1.143826842E-1,-1.316932142E-1
2.901782318E1,1.199753210E-1,-1.776859760E0,2.665822208E-1
2.903809089E1,-2.298306376E-1,-7.139929533E-1,-2.009353489E-1
2.905835860E1,-2.186719894E0,9.069388509E-1,-4.896217883E-1
2.907862636E1,-2.196840048E0,2.479401112E0,3.118559420E-1
2.909889407E1,-5.832318589E-2,3.653055429E0,8.388951421E-2
2.911916183E1,1.103479981E0,1.627456546E0,-5.392897129E-2
2.913942954E1,1.327718019E0,-1.665007114E0,3.289001584E-1
2.915969725E1,1.044491053E0,-3.767304897E0,8.390282989E-1
2.917996501E1,7.222487330E-1,-4.174102306E0,1.048352599E0
2.920023272E1,4.193144143E-1,-3.307244062E0,8.864325285E-1
2.922050042E1,-8.337019682E-1,5.358276367E-1,4.849612713E-1
2.924076818E1,-1.432246923E0,3.680219650E0,3.603254259E-1
2.926103589E1,-9.454214573E-2,3.835215330E0,2.277000993E-2
2.928130360E1,1.497094870E0,2.227599382E0,-1.466069072E-1
2.930170360E1,1.343164325E0,1.749961853E0,-2.451438010E-1
2.932183907E1,4.246407151E-1,1.558747053E0,-4.113249183E-1
2.934210678E1,-3.779022694E-1,9.655283093E-1,-3.532680571E-1
2.936237449E1,-8.283756375E-1,3.099917173E-1,-1.119858399E-1
2.938264225E1,-1.011068344E0,1.055942550E-1,1.478053331E-1
2.940290990E1,-1.140897393E0,2.920154035E-1,3.262369931E-1
2.942317766E1,-1.326253176E0,6.040045023E-1,3.810980618E-1
2.944344542E1,-1.696831822E0,9.751157165E-1,2.511359155E-1
2.946371313E1,-2.380597830E0,1.090164185E0,-2.717753947E-1
2.948398084E1,-3.588340521E0,8.781766891E-1,-9.123983383E-1
2.950424860E1,-4.435491562E0,2.211753577E-1,-1.311206341E0
2.952451631E1,-3.681018591E0,-8.315714002E-1,-1.462473869E0
2.954478402E1,-2.503635883E0,-9.201214463E-2,-1.496029615E0
2.956505178E1,-8.044071794E-1,8.616651297E-1,-1.465137005E0
2.958531949E1,4.496744275E-1,1.819203973E0,-1.025316238E0
2.960558720E1,2.818953991E-1,7.206508517E-1,-1.276052713E0
2.962585496E1,1.892174482E-1,-2.649843320E-2,-1.700959682E0
2.964612261E1,5.560676455E-1,-9.680583328E-2,-1.317597985E0
2.966639037E1,1.075250506E0,2.942790836E-2,-3.713775277E-1
2.968665808E1,1.222789526E0,9.187898599E-3,2.644517124E-1
2.970692579E1,8.937562108E-1,-4.727107286E-1,6.323671341E-1
2.972719355E1,6.130592227E-1,-1.266198993E0,1.089365244E0
2.974746126E1,7.605982423E-1,-2.123469830E0,1.385375381E0
2.976772897E1,1.220126390E0,-2.358893156E0,1.391234279E0
2.978799667E1,1.629054427E0,-1.665007114E0,1.153147936E0
2.980826438E1,1.987515688E0,-8.283756375E-1,6.909566522E-1
2.982853214E1,2.078595638E0,-1.516669095E-1,3.805654347E-1
2.984879985E1,1.882054567E0,3.074617088E-1,5.094623566E-1
2.986906756E1,1.460875869E0,1.668469161E-1,7.127945423E-1
2.988933527E1,8.564719558E-1,-5.440834165E-1,6.339650154E-1
2.990960298E1,4.544681013E-1,-1.241165280E0,2.346243113E-1
2.992987068E1,5.459476113E-1,-1.343297482E0,-2.025332451E-1
2.995013844E1,9.816404581E-1,-1.000948310E0,-4.603270590E-1
2.997040615E1,1.407612801E0,-6.985466480E-1,-5.379581451E-1
2.999067386E1,1.567402244E0,-3.874896467E-1,-5.075981021E-1
3.001094157E1,1.082707286E0,-4.524707198E-1,-2.515353858E-1
3.003120928E1,-1.089232042E-1,-1.634647012E0,2.660495937E-1
3.005147699E1,-6.781734824E-1,-9.588704109E-1,-5.992108025E-3
3.007174475E1,-5.435507894E-1,1.448492289E0,-5.219792128E-1
3.009201246E1,-1.310806870E0,4.783033848E0,-6.008086801E-1
3.011228016E1,-2.916159332E-1,5.518997669E0,4.820318148E-2
3.013268016E1,5.082638860E-1,3.263834715E0,2.138516754E-1
3.015281558E1,3.740406930E-1,-9.338367581E-1,3.842938542E-1
3.017308329E1,6.831002980E-2,-4.231093884E0,6.744450331E-1
3.019335100E1,-9.028109163E-2,-5.105409145E0,8.006787896E-1
3.021361871E1,-5.779055133E-2,-4.460125923E0,8.123967052E-1
3.023401870E1,8.908267319E-2,-3.170357704E0,6.121271253E-1
3.025415412E1,-1.440769136E-1,7.973498106E-1,2.426137924E-1
3.027442188E1,3.964112401E-1,3.981689215E0,-2.889527567E-2
3.029468959E1,1.408678055E0,4.475305557E0,3.289001435E-2
3.031495730E1,1.459810615E0,3.601922750E0,-7.576687634E-2
3.033535730E1,3.175817132E-1,1.835715532E0,-4.235754609E-1
3.035549272E1,-6.526071429E-1,4.181159735E-1,-4.049333334E-1
3.037576042E1,-9.327715039E-1,-2.314285189E-1,-6.884266436E-2
3.039602819E1,-8.352998495E-1,-5.850960612E-1,2.202432603E-1
3.041629589E1,-7.010766268E-1,-6.111950278E-1,4.844286442E-1
3.043656360E1,-8.187882900E-1,2.312953621E-1,5.977460742E-1
3.045683131E1,-9.237167239E-1,1.302151680E0,4.380896688E-1
3.047709902E1,-1.103080511E0,1.900696635E0,1.760348231E-1
3.049736673E1,-1.608548045E0,1.647163868E0,4.247738793E-2
3.051763444E1,-2.806570292E0,8.760461807E-1,-2.078595608E-1
3.053803444E1,-3.925363302E0,1.833585054E-1,-8.644614220E-1
3.055816985E1,-3.630951166E0,-4.721781015E-1,-1.475789666E0
3.057843756E1,-2.854506969E0,-4.455465078E-1,-1.908686161E0
3.059870532E1,-1.154213190E0,-9.812409878E-1,-2.221207857E0
3.061897303E1,6.663224101E-1,3.099917173E-1,-1.303216934E0
3.063924074E1,8.958867192E-1,1.592835426E0,-4.374238849E-1
3.065950844E1,7.025413513E-1,1.249953747E0,-1.088033676E0
3.067977615E1,9.608678222E-1,6.668550372E-1,-1.315467477E0
3.070004381E1,1.428918004E0,2.142511457E-1,-4.592617750E-1
3.072031157E1,1.441701174E0,4.647212476E-2,2.836264372E-1
3.074057928E1,9.475520253E-1,-3.001380265E-1,5.897566080E-1
3.076084699E1,4.800344408E-1,-9.263799191E-1,8.619314432E-1
3.078111470E1,3.186469972E-1,-1.731586099E0,1.029177785E0
3.080138240E1,7.238466144E-1,-2.705503225E0,1.167528987E0
3.082165011E1,1.465669632E0,-2.744385481E0,1.250619531E0
3.084191782E1,2.025865078E0,-1.954092979E0,9.956220388E-1
3.086218553E1,2.028528214E0,-1.109072566E0,5.707150102E-1
3.088245324E1,1.563673854E0,-9.908283353E-1,3.193127811E-1
3.090272095E1,1.054610968E0,-1.233175874E0,2.058621943E-1
3.092298865E1,7.424887419E-1,-1.176184177E0,3.289001435E-2
3.094325636E1,5.741770864E-1,-1.103213668E0,-2.062616795E-1
3.096352407E1,4.464786351E-1,-1.564872265E0,-3.474090993E-1
3.098379178E1,4.518049359E-1,-2.077131033E0,-4.448807240E-1
3.100405949E1,4.912196994E-1,-1.568068027E0,-6.008086801E-1
3.102432720E1,5.789707899E-1,-3.209106624E-1,-6.231792569E-1
3.104459490E1,1.801627129E-1,1.015063047E0,-5.033370852E-1
3.106486261E1,-3.012032807E-1,2.761163473E0,-4.070638716E-1
3.108513032E1,-1.758617163E0,4.393813133E0,-2.197106183E-2
3.110539803E1,-9.913609624E-1,4.092343330E0,2.862896025E-1
3.112566574E1,2.898848653E-1,2.370344877E0,4.926844314E-2
3.114593344E1,7.510108948E-1,-4.125233591E-1,2.362222075E-1
3.116620115E1,7.281076908E-1,-3.012698650E0,6.281060576E-1
3.118646886E1,6.290381551E-1,-4.082489967E0,7.303713560E-1
3.120673657E1,5.725792050E-1,-3.892473459E0,6.360955238E-1
3.122700428E1,2.680469751E-1,-2.194309950E0,4.258391261E-1
3.124727199E1,-8.283756375E-1,2.340517282E0,3.715106845E-2
3.126753970E1,-5.998765826E-1,4.556798458E0,-1.471395344E-1
3.128780740E1,8.410256505E-1,2.977944613E0,-1.545963883E-1
3.130807511E1,1.131176829E0,1.731852412E0,-2.845585644E-1
3.132847511E1,6.210486889E-1,9.863009453E-1,-3.005374968E-1
3.134861053E1,-7.217161357E-2,4.889560044E-1,-1.514005959E-1
3.136887824E1,-6.169208288E-1,9.014793485E-2,4.713791609E-2
3.138914589E1,-9.018788338E-1,1.402153224E-1,1.643169224E-1
3.140941360E1,-9.141293764E-1,4.751075804E-1,3.267696202E-1
3.142968136E1,-6.882934570E-1,6.151897311E-1,6.025397182E-1
3.144994902E1,-5.227781534E-1,7.163897753E-1,7.351650596E-1
3.147021667E1,-7.495461106E-1,1.060869455E0,4.359591305E-1
3.149048444E1,-1.473259568E0,1.409077525E0,-2.664490640E-1
3.151075214E1,-2.614423275E0,1.233974814E0,-1.067260981E0
3.153101985E1,-3.268228769E0,4.165180922E-1,-1.217995763E0
3.155128756E1,-2.760763884E0,-3.965443969E-1,-9.108003974E-1
3.157155527E1,-2.081924677E0,-4.556665123E-1,-7.994803786E-1
3.159182298E1,-1.235173225E0,-2.953443527E-1,-8.479498625E-1
3.161209069E1,-1.515337527E-1,5.374255180E-1,-9.134635925E-1
3.163249068E1,4.603270590E-1,5.938844681E-1,-8.069372177E-1
3.165262605E1,8.127961755E-1,1.689774394E-1,-6.428865790E-1
3.167289376E1,1.084837914E0,5.890907645E-1,-2.270343155E-1
3.169316147E1,1.522661209E0,6.386255622E-1,1.275653243E-1
3.171342917E1,1.735048175E0,-3.342264518E-2,6.227797270E-1
3.173382917E1,1.348490596E0,-8.997483253E-1,1.022786260E0
3.175396459E1,6.668550372E-1,-1.669800758E0,1.118127346E0
3.177423230E1,2.472743243E-1,-2.214017391E0,1.075516820E0
3.179449996E1,2.824280262E-1,-2.857303381E0,9.093356729E-1
3.181476766E1,7.211834788E-1,-3.266764164E0,5.696497560E-1
3.183516766E1,1.171656847E0,-2.622945309E0,2.282327414E-1
3.185530308E1,1.444896936E0,-1.643701792E0,6.364950538E-2
3.187557079E1,1.423059106E0,-1.130910516E0,2.063948289E-2
3.189583850E1,1.113600016E0,-8.757798672E-1,2.596580051E-2
3.191610621E1,6.812360883E-1,-7.427550554E-1,-7.590003312E-3
3.193650620E1,3.165164590E-1,-5.845634341E-1,-1.008005738E-1
3.195664157E1,1.902827173E-1,-3.917506933E-1,-2.701774836E-1
3.197690928E1,2.563290596E-1,-9.094688296E-2,-3.729754388E-1
3.199717699E1,2.771016955E-1,7.483476996E-1,-4.837628603E-1
3.201744470E1,3.553985953E-1,1.977262497E0,-6.524739861E-1
3.203771240E1,6.386255622E-1,2.631733894E0,-6.183855534E-1
3.205798006E1,8.628635406E-1,2.379932165E0,-4.438154697E-1
3.207824777E1,1.054078341E0,1.385641694E0,-2.536658943E-1
3.209851548E1,2.099900991E-1,-3.379548788E-1,3.289001435E-2
3.211878319E1,-2.477004290E0,-6.372939944E-1,1.786979735E-1
3.213905089E1,-1.470063806E0,1.539039612E0,4.556665123E-1
3.215931860E1,-1.121189967E-1,7.206508517E-1,2.447443157E-1
3.217958626E1,5.135902166E-1,-1.479118586E0,1.952095628E-1
3.219985397E1,7.004108429E-1,-3.100050449E0,3.406180441E-1
3.222012167E1,7.366297841E-1,-3.366899014E0,5.025381446E-1
3.224038938E1,7.451519370E-1,-2.784332752E0,4.647212625E-1
3.226065709E1,3.431480527E-1,-1.091495752E0,2.111885101E-1
3.228092475E1,-1.078579426E-1,1.351686358E0,7.217161357E-2
3.230119246E1,1.423458606E-1,2.866091728E0,-2.265016884E-1
3.232146016E1,9.438235760E-1,2.600308657E0,-5.896234512E-1
3.234172787E1,1.151949525E0,1.346360087E0,-4.709796906E-1
3.236199558E1,3.261038363E-1,7.749792933E-1,-1.716406047E-1
3.238226324E1,-4.886896908E-1,7.728487849E-1,-5.179844424E-2
3.240253089E1,-7.261103392E-1,6.748445034E-1,1.920137703E-1
3.242279865E1,-4.993423223E-1,2.888196111E-1,4.082622826E-1
3.244306636E1,-3.544664681E-1,1.125184745E-1,4.407528341E-1
3.246333407E1,-6.179860830E-1,3.978759646E-1,4.002728164E-1
3.248360173E1,-1.049950480E0,6.823013425E-1,3.400854170E-1
3.250386944E1,-1.323057413E0,6.114613414E-1,2.442116886E-1
3.252413714E1,-1.370994329E0,3.531349003E-1,7.803056389E-2
3.254440480E1,-1.384842753E0,2.147837877E-1,-1.173121557E-1
3.256467251E1,-1.612276554E0,1.790974438E-1,-3.032006621E-1
3.258494022E1,-2.045172930E0,1.609879732E-1,-5.028044581E-1
3.260520787E1,-2.651707411E0,3.339601457E-1,-7.547392845E-1
3.262547558E1,-2.905639648E0,4.308991432E-1,-9.368993640E-1
3.264574329E1,-2.551040173E0,3.818970025E-1,-1.065663099E0
3.266601089E1,-1.464204907E0,3.262370080E-2,-1.355414867E0
3.268627865E1,-1.717737615E-1,-3.342264518E-2,-1.385242224E0
3.270654636E1,3.495396376E-1,6.348971128E-1,-4.539354742E-1
3.272681407E1,4.028028250E-1,7.376950979E-1,-1.178447902E-1
3.274708173E1,4.597944319E-1,4.021370113E-1,-1.263668984E-1
3.276734944E1,7.717835307E-1,-1.318263728E-2,-1.664474420E-2
3.278761714E1,1.241431594E0,-3.608580530E-1,1.435442716E-1
3.280788480E1,1.472061157E0,-7.740471959E-1,4.386222959E-1
3.282815251E1,1.234507442E0,-1.310806870E0,8.092008829E-1
3.284842022E1,8.836361766E-1,-1.939711928E0,9.343693852E-1
3.286868787E1,7.084003091E-1,-2.775810719E0,7.958850861E-1
3.288895558E1,6.471476555E-1,-3.302450418E0,4.237086177E-1
3.290922324E1,6.913561225E-1,-3.185271502E0,-8.002793044E-2
3.292949095E1,8.447540402E-1,-2.585128546E0,-3.532680571E-1
3.294975865E1,1.069924116E0,-1.900829792E0,-3.149185777E-1
3.297002631E1,1.286705375E0,-1.082440972E0,-2.339585274E-1
3.299029402E1,1.332511663E0,-2.745717168E-1,-1.721732318E-1
3.301056173E1,1.135437846E0,1.082574204E-1,-8.641951531E-2
3.303082944E1,8.804404140E-1,1.865542978E-1,-5.179844424E-2
3.305109709E1,5.581981540E-1,-5.685844645E-2,-1.185105834E-2
3.307136480E1,2.623211779E-2,-4.695149362E-1,5.938844755E-2
3.309163246E1,-2.351569533E-1,-2.330264151E-1,-1.434111148E-1
3.311190016E1,-9.081372619E-2,1.064597845E0,-4.246407151E-1
3.313230016E1,1.929458827E-1,2.410824776E0,-5.331644416E-1
3.315243558E1,-5.566002429E-2,4.321374893E0,-1.551290154E-1
3.317270324E1,-9.434241056E-1,4.566385746E0,2.862896025E-1
3.319297094E1,-4.620580971E-1,1.886848211E0,2.996053994E-1
3.321323860E1,-2.031990439E-1,-1.355015397E0,2.894853950E-1
3.323363860E1,-2.530001104E-2,-3.370627403E0,3.571296334E-1
3.325377402E1,1.311605871E-1,-3.772631168E0,4.338286221E-1
3.327404167E1,1.380847991E-1,-2.696981192E0,4.269044101E-1
3.329430938E1,1.806953400E-1,-5.898897350E-2,3.198454082E-1
3.331457704E1,9.012130499E-1,1.497494340E0,2.010685056E-1
3.333497704E1,1.535977006E0,2.150367737E0,3.368896246E-1
3.335511246E1,1.545031786E0,2.122670889E0,3.411506712E-1
3.337538011E1,9.560741186E-1,1.376720071E0,1.675127149E-1
3.339564782E1,2.041311413E-1,2.296974659E-1,1.089232042E-1
3.341591553E1,-2.820285559E-1,-7.198519111E-1,2.873548567E-1
3.343631553E1,-3.992075622E-1,-1.461541772E0,4.530033767E-1
3.345645089E1,-3.422159553E-1,-1.775794506E0,5.643234253E-1
3.347671860E1,-3.022685647E-1,-1.331046939E0,6.462155581E-1
3.349698626E1,-2.697780132E-1,-6.042708158E-1,6.621944904E-1
3.351725397E1,-2.420811653E-1,-1.681784987E-1,7.234471440E-1
3.353765397E1,-2.761695981E-1,-1.127847880E-1,8.139945865E-1
3.355778933E1,-4.221107066E-1,-2.687127590E-1,7.697861195E-1
3.357805704E1,-7.335671782E-1,-4.087949097E-1,5.669865608E-1
3.359832470E1,-1.229846835E0,-3.693801761E-1,2.889527678E-1
3.361859240E1,-1.843838215E0,-3.555317521E-1,4.713791609E-2
3.363886006E1,-2.545713902E0,-3.464770019E-1,-1.226384789E-1
3.365912777E1,-2.947717667E0,-5.728455186E-1,-5.901560783E-1
3.367939542E1,-2.629869699E0,-1.484444857E0,-1.491235971E0
3.369966313E1,-2.590454817E0,-1.740108132E0,-2.371410131E0
3.371993084E1,-1.972202420E0,-6.127929091E-1,-3.043990850E0
3.374019850E1,-3.086601496E-1,1.284574747E0,-2.851178169E0
3.376046620E1,1.033305764E0,1.626923919E0,-1.752092361E0
3.378073386E1,1.515204430E0,6.540718675E-1,-1.181776881E0
3.380100157E1,1.384176970E0,-4.055991173E-1,-1.066195726E0
3.382126923E1,1.398558021E0,-1.108539939E0,-9.965541363E-1
3.384153694E1,1.706818700E0,-2.562225342E0,-1.116795778E0
3.386180464E1,1.024783611E0,-3.930290222E0,-1.239301085E0
3.388207230E1,-4.447475821E-2,-4.028694153E0,-7.574024200E-1
3.390234001E1,-5.924197435E-1,-3.864243746E0,-2.195774615E-1
3.392260766E1,-7.623292804E-1,-3.671431065E0,2.079927325E-1
3.394287537E1,-3.874896467E-1,-3.912180662E0,5.478118062E-1
3.396314303E1,4.022701681E-1,-3.966509104E0,5.371592045E-1
3.398341074E1,5.832318664E-1,-3.073951483E0,4.881570637E-1
3.400367845E1,-6.791055668E-3,-1.594166994E0,5.259739161E-1
3.402394610E1,-9.785777926E-1,-3.342264518E-2,3.555317521E-1
3.404421381E1,-1.839044571E0,3.946801722E-1,1.073253155E-1
3.406448147E1,-1.719202399E0,-5.057339072E-1,7.057371736E-2
3.408474917E1,-4.167844057E-1,-1.284308434E0,1.675127149E-1
3.410501683E1,7.036066055E-1,-3.123885691E-1,4.583296776E-1
3.412528454E1,1.246757984E0,1.682317615E0,7.127945423E-1
3.414555220E1,1.399090648E0,2.862363338E0,3.523359597E-1
3.416581990E1,1.318130612E0,2.083788872E0,-3.079943359E-1
3.418608761E1,1.160471559E0,2.483395934E-1,-3.085269928E-1
3.420635527E1,9.395625591E-1,-1.230512619E0,-4.700475931E-2
3.422662298E1,8.074698448E-1,-2.464221001E0,2.889527678E-1
3.424689063E1,5.874928832E-1,-3.304048300E0,4.455465078E-1
3.426715834E1,4.246407151E-1,-3.504184723E0,5.174518228E-1
3.428742605E1,2.344911546E-1,-3.233208418E0,4.018706977E-1
3.430769371E1,1.620532274E-1,-2.442915916E0,9.560741484E-2
3.432796141E1,2.877543271E-1,-1.414670110E0,-2.478069514E-1
3.434822907E1,6.141244769E-1,-5.094623566E-1,-5.544697046E-1
3.436849678E1,1.470463276E0,-1.123453617E0,-6.961497664E-1
3.438876444E1,1.976330400E0,-2.680469751E0,-4.480765164E-1
3.440916444E1,1.574326515E0,-2.820019245E0,4.500738904E-2
3.442929985E1,8.894951344E-1,-1.553686976E0,4.631233811E-1
3.444956751E1,3.591270149E-1,1.822932363E-1,6.856303215E-1
3.446983522E1,2.142511457E-1,1.392033219E0,7.745798230E-1
3.449010292E1,3.687143922E-1,1.795235515E0,7.809714079E-1
3.451037058E1,4.640554786E-1,1.434111118E0,7.016092539E-1
3.453063829E1,2.435459048E-1,3.275685608E-1,5.009402037E-1
3.455090595E1,5.020054802E-2,-1.038232565E0,2.388853729E-1
3.457117365E1,2.557964325E-1,-1.829590321E0,8.388951421E-2
3.459144131E1,5.832318664E-1,-2.195375204E0,2.223737910E-2
3.461170902E1,6.620613337E-1,-2.389120102E0,8.921583183E-3
3.463197673E1,3.500722647E-1,-1.929059267E0,8.761793375E-2
3.465224438E1,6.138581783E-2,-2.751043439E-1,2.564622164E-1
3.467251209E1,-2.476738021E-2,8.488819599E-1,3.896201849E-1
3.469277975E1,-6.258423906E-3,7.376950979E-1,4.641886353E-1
3.471304746E1,-2.157158963E-2,3.049317189E-2,4.807002246E-1
3.473344746E1,-1.733716577E-1,-4.876244366E-1,4.737760127E-1
3.475358282E1,-3.853591084E-1,-6.665887237E-1,4.556665123E-1
3.477385048E1,-4.322307110E-1,-6.996119022E-1,3.448790908E-1
3.479411818E1,-4.082622826E-1,-6.601971388E-1,2.207758874E-1
3.481434652E1,-5.562008023E-1,-8.155924678E-1,1.174453199E-1
3.483474652E1,-8.347672224E-1,-1.179380059E0,-8.269108832E-2
3.485492126E1,-1.151550055E0,-1.553686976E0,-2.877543271E-1
3.487518891E1,-1.597895503E0,-2.011617184E0,-3.170490861E-1
3.489545662E1,-2.171806335E0,-2.371143818E0,-2.110553533E-1
3.491572428E1,-2.785264969E0,-2.331196308E0,-1.284974217E-1
3.493612428E1,-3.055309296E0,-1.723063946E0,-1.471395344E-1
3.495625964E1,-2.912564039E0,-1.023318887E0,-3.458112180E-1
3.497652735E1,-2.584595919E0,-5.254412889E-1,-7.467498183E-1
3.499679506E1,-2.184056759E0,-1.266332120E-1,-1.156210542E0
3.501706272E1,-1.700027585E0,2.984069884E-1,-1.355947495E0
3.503746272E1,-1.286838531E0,2.792322338E-1,-1.419330597E0
3.505759808E1,-9.807083607E-1,-3.912180662E-1,-1.417200089E0
3.507786579E1,-7.612640262E-1,-1.291765332E0,-1.117861032E0
3.509813344E1,-5.206475854E-1,-2.286987782E0,-7.249119282E-1
3.511840115E1,-2.053295672E-1,-3.306711435E0,-7.739140391E-1
3.513866881E1,-2.948117256E-1,-3.740673304E0,-1.488572836E0
3.515893652E1,-1.582449198E0,-2.718819141E0,-2.698845387E0
3.517920417E1,-1.733583450E0,-3.077679873E0,-2.471012115E0
3.519947188E1,-1.238901615E0,-3.107507229E0,-1.485376954E0
3.521973954E1,-6.936197877E-1,-2.179396152E0,-8.175898194E-1
3.524000725E1,-1.637842804E-1,-1.400289059E0,-4.964128435E-1
3.526027490E1,3.032006621E-1,-1.103746295E0,-3.697796464E-1
3.528054261E1,5.045354962E-1,-1.059537888E0,-3.633880615E-1
3.530081027E1,4.640554786E-1,-1.154346347E0,-3.287670016E-1
3.532107792E1,3.261038363E-1,-1.370994329E0,-1.748363972E-1
3.534134563E1,2.041311413E-1,-1.579253316E0,5.352949724E-2
3.536161334E1,2.073269337E-1,-1.957821369E0,2.889527678E-1
3.538188100E1,3.607248962E-1,-2.472743273E0,4.679170549E-1
3.540214870E1,3.122554123E-1,-1.824263930E0,2.745717168E-1
3.542241636E1,3.159838319E-1,-5.174518228E-1,-4.012049139E-1
3.544268407E1,1.535311192E-1,-6.287718415E-1,-4.550007284E-1
3.546295173E1,-2.511359155E-1,-1.372592211E0,-2.296974659E-1
3.548321944E1,-5.769734383E-1,-1.381646991E0,-3.767038584E-1
3.550348709E1,-5.748428702E-1,-1.410142779E-1,-4.996086359E-1
3.552375480E1,-4.074633494E-2,1.639174461E0,-2.387522161E-1
3.554402246E1,3.767038584E-1,2.750510693E0,4.439486265E-1
3.556429016E1,-4.274370372E-1,8.781766891E-1,1.457280636E0
3.558455782E1,-2.932138145E-1,7.637940049E-1,1.019057870E0
3.560482553E1,8.037413955E-1,1.205745339E0,-1.460742801E-1
3.562509319E1,1.661012292E0,1.727058738E-1,-2.163816839E-1
3.564536084E1,1.926795602E0,-1.588840723E0,1.099884734E-1
3.566562855E1,1.580185413E0,-3.382877827E0,5.201149583E-1
3.568589620E1,1.140764236E0,-4.629901886E0,8.012114167E-1
3.570616391E1,8.948214650E-1,-5.079310417E0,6.360955238E-1
3.572643157E1,5.922865868E-1,-4.468647957E0,2.053295672E-1
3.574669928E1,-1.997369342E-2,-2.316815376E0,-8.322372288E-2
3.576696694E1,-2.388853729E-1,-4.913528562E-1,-1.471395344E-1
3.578723464E1,-6.897582114E-2,7.760445476E-1,-3.410175145E-1
3.580750235E1,2.115879953E-1,1.752624989E0,-6.056023836E-1
3.582790235E1,5.885581374E-1,1.599759698E0,-6.977477074E-1
3.584803766E1,1.055143595E0,-4.748412669E-1,-4.842954874E-1
3.586830537E1,9.837709665E-1,-1.306545854E0,-9.813741595E-2
3.588857308E1,7.515435219E-1,-9.114661813E-1,8.122635633E-2
3.590884074E1,5.400886536E-1,-1.229047924E-1,9.400951862E-2
3.592910845E1,3.197122514E-1,3.589938581E-1,1.456748098E-1
3.594937615E1,1.018658355E-1,2.802974880E-1,1.765674502E-1
3.596964381E1,-6.791055668E-3,-4.077296555E-1,1.382179558E-1
3.598991152E1,1.290300637E-1,-1.249687433E0,7.163897902E-2
3.601017917E1,3.729754388E-1,-1.584579706E0,-2.889527567E-2
3.603044688E1,5.135902166E-1,-1.275786400E0,-1.551290154E-1
3.605071454E1,5.507413149E-1,-7.038729787E-1,-2.494048476E-1
3.607098225E1,4.470112622E-1,-2.724411786E-1,-2.840259075E-1
3.609124996E1,1.514005959E-1,-1.942774504E-1,-3.213101327E-1
3.611151761E1,-1.808284968E-1,-1.218395308E-1,-3.133206666E-1
3.613178532E1,-3.672496378E-1,2.942790836E-2,-2.520680130E-1
3.615205298E1,-3.581948876E-1,8.428898454E-2,-1.306279600E-1
3.617232068E1,-2.985401452E-1,1.611211337E-2,4.607265070E-2
3.619258834E1,-2.575274706E-1,9.187898599E-3,2.223737836E-1
3.621285605E1,-3.097254038E-1,-6.258423906E-3,3.038664460E-1
3.623325605E1,-5.615270734E-1,-1.894837767E-1,2.798980176E-1
3.625339141E1,-9.077377915E-1,-4.897549450E-1,2.591253817E-1
3.627365912E1,-1.264467955E0,-8.592683077E-1,2.420811653E-1
3.629392678E1,-1.645699143E0,-1.249687433E0,1.840242893E-1
3.631419449E1,-1.896036148E0,-1.539305925E0,1.829590350E-1
3.633459449E1,-1.899231911E0,-1.508945942E0,2.047969401E-1
3.635472985E1,-1.789509773E0,-1.020655751E0,2.239716798E-1
3.637499751E1,-1.814543486E0,-3.523359597E-1,2.394180000E-1
3.639526522E1,-2.307627439E0,2.046637833E-1,3.715106845E-2
3.641553287E1,-3.012698650E0,9.751157165E-1,-4.278365076E-1
3.643593287E1,-3.277283669E0,2.036384583E0,-9.347688556E-1
3.645606824E1,-2.211220980E0,1.628521800E0,-1.244627357E0
3.647633589E1,-1.158474237E-1,7.590003610E-1,-1.346360087E0
3.649660360E1,8.740488291E-1,1.461275458E0,-1.515204430E0
3.651687126E1,6.327666044E-1,1.661012292E0,-1.718536615E0
3.653727126E1,4.203796685E-1,6.306360960E-1,-1.750494480E0
3.655740662E1,5.587307811E-1,-6.671213508E-1,-1.114132643E0
3.657767433E1,6.844319105E-1,-1.324122667E0,-5.182507634E-1
3.659794199E1,5.534044504E-1,-1.039297819E0,-2.478069514E-1
3.661820964E1,2.573943138E-1,-3.906854391E-1,4.873581231E-2
3.663847735E1,4.593949392E-2,-3.336938322E-1,4.253064990E-1
3.665874506E1,2.328932583E-1,-1.265133739E0,6.691187024E-1
3.667901272E1,1.017326832E0,-2.206560373E0,8.166577220E-1
3.669928037E1,1.703090191E0,-1.841707706E0,9.407609701E-1
3.671954808E1,2.136119843E0,-1.329981685E0,9.886978269E-1
3.673981574E1,2.066877842E0,-1.228382111E0,1.016394615E0
3.676008344E1,1.569000244E0,-1.091495752E0,1.168594241E0
3.678035110E1,1.112534761E0,-5.611276031E-1,1.221857429E0
3.680061881E1,1.097088337E0,5.073318258E-2,7.852324843E-1
3.682088647E1,8.756467104E-1,1.684448123E-1,2.415485233E-1
3.684115412E1,-1.571263932E-2,-2.113216817E-1,-2.547311783E-1
3.686142183E1,-4.945486486E-1,-2.219743133E-1,-3.889544010E-1
3.688168949E1,-2.186453640E-1,2.898848653E-1,-3.862912357E-1
3.690195720E1,4.193144143E-1,1.127448440E0,-4.917523265E-1
3.692222485E1,1.019989967E0,1.562475443E0,-5.672528744E-1
3.694249256E1,1.306412697E0,1.375122190E0,-5.379581451E-1
3.696276022E1,1.201484203E0,1.278183222E0,-5.550023317E-1
3.698302787E1,7.084003091E-1,1.987915158E0,-5.683181286E-1
3.700329558E1,-2.054227829E0,-1.884185076E-1,-6.402234435E-1
3.702356324E1,-2.101099491E0,-5.366265774E-2,-2.419480085E-1
3.704383089E1,7.949529588E-2,1.604553342E0,1.997369342E-3
3.706423089E1,9.587372541E-1,6.988129616E-1,3.528685868E-1
3.708436626E1,9.960215092E-1,-1.492967010E0,7.665903568E-1
3.710463391E1,7.850993276E-1,-3.144258738E0,1.029177785E0
3.712490162E1,5.928192139E-1,-3.570763826E0,9.844367504E-1
3.714516928E1,8.748477697E-2,-2.422143221E0,6.653903127E-1
3.716543694E1,-1.145691037E0,1.103479981E0,3.645864725E-1
3.718570464E1,-1.323590040E0,3.464104176E0,3.235738277E-1
3.720597230E1,2.536658943E-1,2.519881248E0,1.760348231E-1
3.722623996E1,1.257943153E0,1.585911274E0,5.193160381E-3
3.724650766E1,1.219061136E0,1.330381155E0,-1.572595388E-1
3.726677532E1,5.645897388E-1,1.164732575E0,-2.233058959E-1
3.728704303E1,-2.074600905E-1,6.460824013E-1,-1.023984700E-1
3.730731069E1,-8.800409436E-1,-6.857634336E-2,3.874896467E-2
3.732757834E1,-1.364070058E0,-4.210454524E-1,1.446095407E-1
3.734784605E1,-1.455150127E0,-3.432812095E-1,2.617885470E-1
3.736811370E1,-1.416267991E0,8.655266836E-3,2.463422120E-1
3.738838141E1,-1.641970754E0,4.745749533E-1,5.459476262E-2
3.740864907E1,-2.343313694E0,1.066195726E0,-2.941459119E-1
3.742891673E1,-3.166629314E0,1.300553799E0,-6.796382070E-1
3.744918438E1,-2.998850346E0,4.053328037E-1,-8.468846083E-1
3.746945209E1,-2.108556271E0,-6.021402478E-1,-8.628635406E-1
3.748971975E1,-1.065396786E0,-7.900261283E-1,-8.111982346E-1
3.750998740E1,2.840259075E-1,-2.649843320E-2,-6.135918498E-1
3.753025511E1,9.358341098E-1,1.122654676E0,-2.888196111E-1
3.755052277E1,9.715204239E-1,6.391581893E-1,-5.070654750E-1
3.757079042E1,1.207875848E0,6.146571040E-1,-7.025413513E-1
3.759105808E1,1.653022885E0,8.037413955E-1,-1.844237745E-1
3.761132579E1,1.985385060E0,6.769750714E-1,6.254429221E-1
3.763172579E1,1.842639804E0,1.013332009E-1,1.019057870E0
3.765186110E1,1.336772680E0,-9.162598848E-1,9.114661813E-1
3.767212881E1,8.783098459E-1,-1.857686639E0,7.154576778E-1
3.769239652E1,6.945518851E-1,-2.908436060E0,7.143924236E-1
3.771266417E1,7.744466662E-1,-4.015910625E0,7.554050684E-1
3.773306417E1,7.478150725E-1,-3.841340780E0,7.751124501E-1
3.775319954E1,7.382277250E-1,-2.244377375E0,4.327633679E-1
3.777346714E1,7.845667005E-1,-3.347590864E-1,-2.520680130E-1
3.779373485E1,7.302381992E-1,5.400886536E-1,-6.087981462E-1
3.781400256E1,5.237102509E-1,8.474172354E-1,-6.785729527E-1
3.783440256E1,2.584595978E-1,1.070989490E0,-7.398256063E-1
3.785453787E1,3.356912136E-1,8.510124683E-1,-7.904255986E-1
3.787480553E1,5.008070469E-1,3.781685829E-1,-7.866972089E-1
3.789507324E1,3.468764722E-1,4.261054695E-1,-8.154593110E-1
3.791534089E1,-5.562008023E-1,1.734515548E0,-7.030739784E-1
3.793574089E1,-3.161303043E0,1.625326037E0,-1.753690243E-1
3.795587626E1,-1.475390196E0,9.905620217E-1,-6.937529147E-2
3.797614391E1,4.193144143E-1,2.387522161E-1,-2.089248300E-1
3.799641157E1,1.190298915E0,-8.683230281E-1,5.406212807E-2
3.801667923E1,1.436907530E0,-1.918939233E0,3.821633458E-1
3.803694688E1,1.242496848E0,-2.324272156E0,5.627255440E-1
3.805721459E1,-5.115928650E-1,2.158490419E-1,-6.657897611E-4
3.807748225E1,-1.673395991E0,1.890576601E0,-2.296974659E-1
3.809774996E1,-1.128114223E0,3.526022732E-1,3.555317521E-1
3.811801761E1,-1.531316489E-1,-1.804290265E-1,6.153228879E-1
3.813828527E1,3.868238628E-1,1.514005959E-1,3.454117477E-1
3.815855292E1,2.051964104E-1,7.131940126E-1,-4.700475931E-2
3.817882063E1,-3.954791129E-1,1.058206320E0,-3.262370080E-2
3.819908829E1,-6.515418887E-1,1.035835743E0,2.633864284E-1
3.821935589E1,-6.547376513E-1,1.059804201E0,4.785696864E-1
3.823962365E1,-7.570029497E-1,1.134372592E0,6.366282105E-1
3.825989131E1,-1.452486992E0,1.476189137E0,5.998765826E-1
3.828015897E1,-2.800178528E0,2.170607805E0,1.004010960E-1
3.830042667E1,-3.208174706E0,1.751027107E0,-6.833665967E-1
3.832069433E1,-2.516418934E0,4.372907281E-1,-9.821730852E-1
3.834096199E1,-1.683516026E0,-6.319676638E-1,-1.056075692E0
3.836122970E1,-3.150517344E-1,-7.550055981E-1,-1.052347302E0
3.838149735E1,4.997417927E-1,3.547327816E-1,-5.560676455E-1
3.840176501E1,5.677855015E-1,2.520680130E-1,-2.515353858E-1
3.842203266E1,6.966823936E-1,-3.326285779E-1,-5.155876279E-1
3.844230032E1,1.029577255E0,-2.894853950E-1,-4.672512710E-1
3.846256803E1,1.514139056E0,1.029310971E-1,5.938844755E-2
3.848283569E1,1.881521940E0,2.275669426E-1,3.086601496E-1
3.850310334E1,1.781919718E0,-1.564605981E-1,4.210454524E-1
3.852337105E1,1.223322153E0,-1.073386312E0,5.297023654E-1
3.854363870E1,7.978824377E-1,-2.257693052E0,6.334323883E-1
3.856390636E1,8.074698448E-1,-3.540403605E0,6.728471518E-1
3.858417402E1,9.278446436E-1,-3.942008018E0,5.584644675E-1
3.860444173E1,9.768467546E-1,-3.138399839E0,2.990727723E-1
3.862470938E1,9.997498989E-1,-1.543034434E0,-1.731053460E-3
3.864497704E1,1.021055222E0,-1.527321786E-1,-1.673795432E-1
3.866524475E1,9.081372619E-1,5.512739420E-1,-2.179795653E-1
3.868551240E1,5.858950019E-1,6.487455368E-1,-2.643185556E-1
3.870578006E1,2.526006401E-1,7.179877162E-1,-2.739059031E-1
3.872604772E1,3.085269928E-1,8.271772265E-1,-2.936132848E-1
3.874631542E1,6.386255622E-1,1.147155762E0,-4.145207107E-1
3.876658308E1,6.423539519E-1,1.712677598E0,-5.901560783E-1
3.878685074E1,2.637858987E-1,2.647712708E0,-6.487455368E-1
3.880711839E1,-4.439486265E-1,1.886848211E0,-2.430132627E-1
3.882738605E1,-9.700556993E-1,-7.656582445E-2,-2.836264484E-2
3.884765376E1,-4.535360038E-1,-3.273022473E-1,2.543316968E-2
3.886792141E1,1.331579551E-4,-1.073386312E0,2.910832763E-1
3.888818907E1,2.435459048E-1,-1.750228167E0,5.302349925E-1
3.890845678E1,4.145207107E-1,-1.989779353E0,6.632598042E-1
3.892872444E1,7.419561148E-1,-1.893373013E0,6.456829309E-1
3.894899209E1,8.122635484E-1,-8.672577739E-1,3.832286000E-1
3.896925980E1,6.247771382E-1,1.084305286E0,1.083905771E-1
3.898952746E1,7.627287507E-1,2.086452007E0,6.151897460E-2
3.900979511E1,8.495477438E-1,2.243045807E0,-1.109205782E-1
3.903006277E1,6.050697565E-1,1.501222730E0,-4.150533378E-1
3.905033048E1,4.860265180E-2,6.301034689E-1,-4.480765164E-1
3.907059813E1,-4.418180883E-1,7.629951090E-2,-2.067943066E-1
3.909086579E1,-8.613988161E-1,-5.259739235E-2,4.141212255E-2
3.911113344E1,-1.154745817E0,2.643185556E-1,2.367548496E-1
3.913140115E1,-1.116396308E0,7.819035053E-1,4.290349185E-1
3.915166881E1,-1.043558836E0,1.219593763E0,5.387570858E-1
3.917193647E1,-1.277783751E0,1.419197440E0,6.589987278E-1
3.919220412E1,-1.786846638E0,1.424523830E0,6.222470999E-1
3.921247183E1,-2.310290575E0,1.214800000E0,3.262369931E-1
3.923287183E1,-3.004176617E0,8.483493328E-1,-1.364869028E-1
3.925300714E1,-3.608580589E0,4.458128214E-1,-5.523391962E-1
3.927327480E1,-3.225751400E0,-3.454117477E-1,-8.942888379E-1
3.929354251E1,-2.650109529E0,-2.868222296E-1,-1.321859002E0
3.931381016E1,-1.355548024E0,-1.372858584E-1,-1.764342904E0
3.933421016E1,3.101248741E-1,6.641919017E-1,-1.230246305E0
3.935434553E1,9.443562031E-1,9.729851484E-1,-2.078595608E-1
3.937461318E1,9.416930676E-1,4.559328258E-1,-5.925529078E-2
3.939488084E1,9.566067457E-1,4.274370521E-2,-1.151816323E-1
3.941514855E1,1.229181051E0,2.569948509E-2,5.992107838E-2
3.943554855E1,1.640239716E0,8.428898454E-2,3.645864725E-1
3.945568386E1,1.889511347E0,3.954791278E-2,6.904240251E-1
3.947595152E1,1.789376616E0,-3.752391040E-1,7.825692892E-1
3.949621923E1,1.379383206E0,-1.338503718E0,6.627271175E-1
3.951648688E1,1.161536813E0,-2.856238127E0,4.817654788E-1
3.953688688E1,1.125850558E0,-4.058521271E0,3.075948656E-1
3.955702225E1,1.096555710E0,-3.865309238E0,1.286305785E-1
3.957728990E1,1.088566303E0,-2.886598110E0,-1.263668984E-1
3.959755756E1,1.138633728E0,-1.637310266E0,-2.611227632E-1
3.961782522E1,1.272856951E0,-3.459443748E-1,-2.483395934E-1
3.963809292E1,1.180179000E0,4.830970466E-1,-1.492700726E-1
3.965836058E1,4.912196994E-1,4.948149621E-1,5.725792050E-2
3.967862824E1,-8.874977827E-1,-3.763043880E-1,2.756369710E-1
3.969889595E1,-1.312937379E0,-1.040895700E0,-9.973530471E-2
3.971916360E1,-1.728390306E-1,-4.748412669E-1,-6.029392481E-1
3.973943126E1,5.619265437E-1,1.654620767E0,-8.159919381E-1
3.975969897E1,8.351666927E-1,4.051464081E0,-7.350319028E-1
3.977996662E1,2.834932804E-1,5.775060654E0,1.387505829E-1
3.980023428E1,7.044056058E-2,4.685562134E0,7.351650596E-1
3.982050199E1,-3.278348744E-1,8.824377656E-1,7.277082205E-1
3.984076964E1,-4.684496820E-1,-2.959968090E0,5.808349848E-1
3.986103730E1,-2.170474678E-1,-4.855738163E0,3.789675534E-1
3.988130501E1,1.689774394E-1,-5.025647640E0,2.101232558E-1
3.990157266E1,2.755038142E-1,-3.036134481E0,1.270326823E-1
3.992184032E1,2.185122073E-1,1.606683850E0,4.713791609E-2
3.994210803E1,1.050882578E0,3.581150055E0,5.619265884E-2
3.996237569E1,1.839976668E0,3.325619936E0,1.850895584E-2
3.998264334E1,1.976330400E0,2.383127928E0,-7.523424178E-2
4.000291105E1,1.230246305E0,1.567269087E0,-1.940111369E-1
4.002317870E1,-2.689790726E-2,8.239814043E-1,-3.585943878E-1
4.004344636E1,-8.502135277E-1,3.861580743E-3,-3.447459340E-1
4.006371402E1,-9.594030380E-1,-4.801675975E-1,-1.929458827E-1
4.008398173E1,-9.370325208E-1,-1.777658761E-1,-2.099900991E-1
4.010424938E1,-1.033971548E0,4.458128214E-1,-1.902827173E-1
4.012451709E1,-1.140897393E0,7.408908606E-1,2.969422378E-2
4.014478475E1,-1.274055362E0,5.970802903E-1,2.420811653E-1
4.016505235E1,-1.411474347E0,2.483395934E-1,4.886896908E-1
4.018532006E1,-1.601091266E0,-1.639174372E-1,6.616618633E-1
4.020558777E1,-1.857154012E0,-3.203780353E-1,5.430181623E-1
4.022585542E1,-2.318812609E0,1.609879732E-1,1.265000552E-2
4.024612303E1,-3.012166023E0,9.804420471E-1,-6.838992834E-1
4.026639079E1,-3.227349281E0,1.065130472E0,-1.219061136E0
4.028665844E1,-2.855039835E0,-2.273006290E-1,-1.451288581E0
4.030692610E1,-2.559562206E0,-1.464737535E0,-1.746766090E0
4.032732610E1,-1.502021790E0,-1.757685065E0,-1.877793431E0
4.034746147E1,4.102596641E-1,-3.022685647E-1,-6.657897830E-1
4.036772912E1,1.264334798E0,1.235572696E0,4.902876019E-1
4.038799678E1,1.129046321E0,1.164199948E0,1.675127149E-1
4.040839678E1,1.175385237E0,8.266445994E-1,-1.434111148E-1
4.042853214E1,1.445429564E0,7.163897753E-1,1.707084924E-1
4.044879980E1,1.720134497E0,2.440785319E-1,5.982787013E-1
4.046906746E1,1.649294376E0,-9.157272577E-1,7.831019163E-1
4.048933511E1,1.271258950E0,-2.359958410E0,8.321040869E-1
4.050960282E1,1.026381493E0,-3.228947163E0,8.038745522E-1
4.052987048E1,9.789772630E-1,-3.150650263E0,5.616602302E-1
4.055013813E1,9.720530510E-1,-2.465819120E0,1.099884734E-1
4.057040584E1,8.586025238E-1,-1.891775012E0,-1.865542978E-1
4.059067350E1,7.792403698E-1,-1.560611248E0,-1.993374527E-1
4.061094115E1,8.559393287E-1,-1.054744124E0,-1.918806136E-1
4.063120881E1,1.006141543E0,-2.644517124E-1,-2.531332672E-1
4.065147647E1,9.486172795E-1,3.275685608E-1,-1.663142890E-1
4.067174417E1,7.568697929E-1,7.430213690E-1,-2.516685426E-2
4.069201183E1,7.163897753E-1,1.138101101E0,-2.090579830E-2
4.071227949E1,7.973498106E-1,1.327185392E0,-9.174583107E-2
4.073267949E1,8.191877604E-1,1.017193675E0,-2.318280041E-1
4.075281480E1,6.093307734E-1,7.350319028E-1,-4.086617529E-1
4.077308251E1,4.230428338E-1,1.019324183E0,-5.091960430E-1
4.079335016E1,-4.716454744E-1,1.109871507E0,-4.699144363E-1
4.081361782E1,-1.375787973E0,1.586976528E0,-2.424806356E-1
4.083401782E1,-1.941442937E-1,1.781919718E0,2.330264151E-1
4.085415318E1,3.846933246E-1,2.137185186E-1,5.307676196E-1
4.087442084E1,4.320975542E-1,-1.830655575E0,7.964177132E-1
4.089468855E1,4.251733422E-1,-3.349854708E0,8.411588073E-1
4.091495620E1,3.996070325E-1,-3.587807894E0,6.344976425E-1
