"Time (s)","Acceleration x (m/s^2)","Acceleration y (m/s^2)","Acceleration z (m/s^2)"
7.879860400E-2,-3.785924435E0,3.508025646E0,8.338520050E0
9.906641600E-2,-3.685125351E0,3.338035345E0,8.452677727E0
1.193342290E-1,-3.594162941E0,3.125073195E0,8.572415352E0
1.396020410E-1,-3.483106375E0,2.868760347E0,8.706812859E0
1.598698540E-1,-3.345098972E0,2.558395863E0,8.856370926E0
1.801376660E-1,-3.148439407E0,2.126377583E0,9.040810585E0
2.004055310E-1,-2.983686686E0,1.537232280E0,9.214385986E0
2.206733430E-1,-2.927605152E0,9.268026352E-1,9.313460350E0
2.409411560E-1,-2.884971857E0,4.169121981E-1,9.363412857E0
2.612089680E-1,-2.767137766E0,9.919782169E-3,9.408147812E0
2.814768330E-1,-2.640547991E0,-3.045721054E-1,9.439551353E0
3.017446450E-1,-2.500883341E0,-5.211381316E-1,9.468072891E0
3.220124580E-1,-2.216753244E0,-6.070379615E-1,9.533514023E0
3.422803220E-1,-1.835188270E0,-5.891612768E-1,9.615371704E0
3.625481350E-1,-1.494165182E0,-5.735277534E-1,9.675169945E0
3.828159990E-1,-1.287819266E0,-6.287832856E-1,9.701368332E0
4.030838120E-1,-1.186405659E0,-7.763108015E-1,9.703616142E0
4.233516760E-1,-1.325986147E0,-1.013087153E0,9.663633347E0
4.436194890E-1,-1.779877067E0,-1.287442923E0,9.557453156E0
4.638873540E-1,-2.338773251E0,-1.539145112E0,9.398487091E0
4.841552180E-1,-2.890285015E0,-1.728432775E0,9.210274696E0
5.044230830E-1,-3.295186996E0,-1.842233896E0,9.050873756E0
5.246908950E-1,-3.468540907E0,-1.848891258E0,8.984498978E0
5.449587600E-1,-3.487604856E0,-1.734008551E0,9.000012398E0
5.652266240E-1,-3.462373495E0,-1.530994415E0,9.046458244E0
5.854944890E-1,-3.446107388E0,-1.342099667E0,9.082592964E0
6.057623540E-1,-3.526696205E0,-1.225620985E0,9.068111420E0
6.260302180E-1,-3.689788342E0,-1.186425686E0,9.008232117E0
6.464302180E-1,-3.800397158E0,-1.185513258E0,8.962249756E0
6.665659470E-1,-3.916420937E0,-1.184460998E0,8.912300110E0
6.868338120E-1,-3.981306791E0,-1.207417488E0,8.880412102E0
7.071017290E-1,-3.975739002E0,-1.282155514E0,8.872426987E0
7.273695930E-1,-4.004278660E0,-1.515922546E0,8.822590828E0
7.476374580E-1,-4.093945503E0,-1.924495101E0,8.700937271E0
7.679053740E-1,-4.198088169E0,-2.408003807E0,8.529242516E0
7.881731870E-1,-4.312592506E0,-2.828087807E0,8.341093063E0
8.084411040E-1,-4.504835606E0,-3.059186697E0,8.155870438E0
8.288411040E-1,-4.728720188E0,-3.173645258E0,7.983581066E0
8.489768850E-1,-4.965913296E0,-3.299823761E0,7.785965443E0
8.692448010E-1,-5.293972015E0,-3.497311831E0,7.477503300E0
8.895127180E-1,-5.655905247E0,-3.756490469E0,7.076009750E0
9.097805830E-1,-5.792024136E0,-4.027539253E0,6.811884403E0
9.300484990E-1,-5.688115120E0,-4.201718807E0,6.794209003E0
9.503164160E-1,-5.598056316E0,-4.240210533E0,6.844908714E0
9.705843330E-1,-5.552884102E0,-4.211904049E0,6.898964882E0
9.908522490E-1,-5.593401432E0,-4.188866615E0,6.880235672E0
1.011120114E0,-5.711659431E0,-4.257021427E0,6.739815712E0
1.031388083E0,-5.757232666E0,-4.334027290E0,6.651380539E0
1.051655947E0,-5.717762470E0,-4.370388985E0,6.661628246E0
1.071923864E0,-5.652819157E0,-4.509055138E0,6.624533653E0
1.092191781E0,-5.718937874E0,-4.700116634E0,6.432187557E0
1.112459749E0,-5.903120518E0,-4.830026150E0,6.163959980E0
1.132859749E0,-6.104432106E0,-4.777724266E0,6.006633282E0
1.152995583E0,-6.330985546E0,-4.472632885E0,6.007043362E0
1.173263551E0,-6.485907555E0,-4.085346699E0,6.116643429E0
1.193531468E0,-6.620089531E0,-3.807361126E0,6.152138710E0
1.213799385E0,-6.792694569E0,-3.630840063E0,6.070147514E0
1.234199385E0,-7.014102459E0,-3.545306921E0,5.865455151E0
1.254335270E0,-7.174273491E0,-3.603223562E0,5.631781578E0
1.274603239E0,-7.284277439E0,-3.703112125E0,5.421867847E0
1.294871208E0,-7.426305771E0,-3.693203926E0,5.232648849E0
1.315139176E0,-7.602766037E0,-3.562029839E0,5.067572117E0
1.335539176E0,-7.809837341E0,-3.386590719E0,4.869069576E0
1.355675114E0,-7.988275051E0,-3.224906683E0,4.685916901E0
1.375943083E0,-8.124964714E0,-3.081363201E0,4.545384407E0
1.396211051E0,-8.179491997E0,-2.986684799E0,4.510654926E0
1.416479020E0,-8.183063507E0,-2.944934130E0,4.531580448E0
1.436879020E0,-8.176700592E0,-2.891588449E0,4.577190399E0
1.457015010E0,-8.228062630E0,-2.739691734E0,4.578585625E0
1.477282926E0,-8.352279663E0,-2.470207930E0,4.506427765E0
1.497682979E0,-8.472167969E0,-2.210095644E0,4.416813374E0
1.517818968E0,-8.562704086E0,-2.070486784E0,4.308546543E0
1.538218968E0,-8.626692772E0,-2.009066105E0,4.208825588E0
1.558354958E0,-8.675516129E0,-1.963219523E0,4.129355431E0
1.578622979E0,-8.743427277E0,-1.890463710E0,4.018584728E0
1.598890947E0,-8.838027000E0,-1.791577697E0,3.853558302E0
1.619159020E0,-8.927024841E0,-1.711290836E0,3.681046247E0
1.639559020E0,-8.982489586E0,-1.688134432E0,3.554639816E0
1.659695062E0,-9.017856598E0,-1.665509939E0,3.474869967E0
1.679963135E0,-9.059082031E0,-1.569381475E0,3.411813498E0
1.700231156E0,-9.104229927E0,-1.400182247E0,3.364948034E0
1.720499176E0,-9.138585091E0,-1.225336313E0,3.339940548E0
1.740899176E0,-9.161667824E0,-1.082961679E0,3.325872898E0
1.761035270E0,-9.174463272E0,-9.593364596E-1,3.328554630E0
1.781435270E0,-9.189094543E0,-8.273342848E-1,3.323621511E0
1.801571416E0,-9.212622643E0,-7.632648945E-1,3.273438692E0
1.821839489E0,-9.236860275E0,-7.689205408E-1,3.203055859E0
1.842239489E0,-9.255203247E0,-7.979326248E-1,3.142435312E0
1.862375583E0,-9.249232292E0,-8.756085038E-1,3.139333487E0
1.882643656E0,-9.237010002E0,-9.765929580E-1,3.145522833E0
1.902911781E0,-9.225528717E0,-1.057701349E0,3.152976274E0
1.923179854E0,-9.213740349E0,-1.116888881E0,3.167008877E0
1.943579854E0,-9.216963768E0,-1.106193066E0,3.161377430E0
1.963716051E0,-9.220345497E0,-1.004492164E0,3.185375214E0
1.983984124E0,-9.214994431E0,-8.681514263E-1,3.240458012E0
2.004252249E0,-9.206121445E0,-7.259183526E-1,3.300115824E0
2.024520374E0,-9.200017929E0,-5.991533399E-1,3.342314005E0
2.044920374E0,-9.192782402E0,-4.877567291E-1,3.380120516E0
2.065056624E0,-9.198797226E0,-3.783205450E-1,3.377779484E0
2.085324749E0,-9.222634315E0,-2.983115613E-1,3.320304394E0
2.105592874E0,-9.272825241E0,-2.649151683E-1,3.180394173E0
2.125860999E0,-9.334155083E0,-2.670893073E-1,2.995430946E0
2.146260999E0,-9.392855644E0,-2.932578921E-1,2.803328037E0
2.166397249E0,-9.447955132E0,-3.066156209E-1,2.610083580E0
2.186665426E0,-9.490290642E0,-3.061989248E-1,2.451734781E0
2.206933604E0,-9.521425247E0,-2.854265869E-1,2.330530882E0
2.227201729E0,-9.553613663E0,-2.476119846E-1,2.199442625E0
2.247601729E0,-9.578921318E0,-1.935220212E-1,2.092174292E0
2.267738083E0,-9.593399048E0,-1.172339767E-1,2.030599117E0
2.288006260E0,-9.606685638E0,-7.524815202E-2,1.968839288E0
2.308274437E0,-9.621642113E0,-1.027659848E-1,1.893099070E0
2.328542614E0,-9.637578011E0,-1.128390953E-1,1.809624910E0
2.348810791E0,-9.657649994E0,-3.058063053E-2,1.702722549E0
2.369079020E0,-9.672879219E0,1.624047309E-1,1.606057405E0
2.389347249E0,-9.670290947E0,4.659248888E-1,1.561655164E0
2.409615426E0,-9.641716003E0,8.253737092E-1,1.589489579E0
2.429883604E0,-9.608225822E0,1.151259184E0,1.589649081E0
2.450151833E0,-9.590535164E0,1.403123021E0,1.491061449E0
2.470420062E0,-9.614756584E0,1.473177671E0,1.247633338E0
2.490688239E0,-9.658460617E0,1.443878651E0,8.942714930E-1
2.510956468E0,-9.689995766E0,1.382135510E0,6.033899188E-1
2.531224697E0,-9.703878403E0,1.336780071E0,4.670765102E-1
2.551492926E0,-9.701860428E0,1.365582228E0,4.236422479E-1
2.571892926E0,-9.690672874E0,1.437523842E0,4.413341880E-1
2.592029385E0,-9.683819771E0,1.496996403E0,3.911764026E-1
2.612297614E0,-9.673725128E0,1.578916073E0,3.105744421E-1
2.632565843E0,-9.648908615E0,1.730468035E0,2.728057206E-1
2.652834072E0,-9.622286797E0,1.873051047E0,2.714235187E-1
2.673102301E0,-9.617381096E0,1.892177939E0,3.099272549E-1
2.693370583E0,-9.634930611E0,1.796934247E0,3.309570849E-1
2.713638812E0,-9.660440445E0,1.665217161E0,2.707598805E-1
2.733907041E0,-9.683641434E0,1.542660594E0,1.329597235E-1
2.754175322E0,-9.698390007E0,1.452744365E0,3.387048095E-2
2.774443604E0,-9.714974403E0,1.336208105E0,-6.477841735E-2
2.794843604E0,-9.745930672E0,1.085752964E0,-9.151322395E-2
2.814984072E0,-9.777468681E0,7.529534698E-1,-6.748058647E-2
2.835291624E0,-9.797475815E0,4.148917794E-1,-8.788366616E-2
2.855683968E0,-9.804554939E0,1.170847118E-1,-1.654680520E-1
2.875934385E0,-9.803853989E0,-1.696625799E-1,-1.613609493E-1
2.896046989E0,-9.795549393E0,-4.593375623E-1,-8.136363328E-2
2.916315114E0,-9.772918701E0,-8.076186180E-1,9.059964120E-2
2.936716468E0,-9.703236580E0,-1.379644036E0,3.378873169E-1
2.956852926E0,-9.570509911E0,-2.092638493E0,4.433701932E-1
2.977126572E0,-9.409796715E0,-2.757564068E0,1.481279731E-1
2.997394801E0,-9.228410721E0,-3.315219879E0,-1.270650327E-1
3.017663031E0,-9.069652557E0,-3.720398903E0,-2.654002011E-1
3.037931260E0,-8.998760223E0,-3.894145966E0,-1.682688445E-1
3.058199541E0,-9.008751869E0,-3.873870850E0,7.687731832E-2
3.078467822E0,-9.057674408E0,-3.738621473E0,3.894023597E-1
3.098736104E0,-9.150465965E0,-3.459400415E0,6.869605780E-1
3.119004385E0,-9.255796432E0,-3.081092834E0,1.003738046E0
3.139272718E0,-9.337731361E0,-2.693768263E0,1.311785936E0
3.159540999E0,-9.405240059E0,-2.286944628E0,1.575356245E0
3.179809281E0,-9.463388443E0,-1.800572991E0,1.836470008E0
3.200077614E0,-9.489186287E0,-1.136147738E0,2.198842525E0
3.220345895E0,-9.452562332E0,-3.923506439E-1,2.581764221E0
3.240614229E0,-9.414925575E0,2.101706415E-1,2.735941172E0
3.260882510E0,-9.421898842E0,6.211186051E-1,2.648097754E0
3.281150843E0,-9.455221176E0,8.832289577E-1,2.447260380E0
3.301419124E0,-9.466715813E0,1.053593516E0,2.332725286E0
3.321687406E0,-9.443835258E0,1.188834310E0,2.360305309E0
3.341955687E0,-9.388277054E0,1.386092186E0,2.471716404E0
3.362224020E0,-9.359047890E0,1.584220290E0,2.463502169E0
3.382492354E0,-9.369322777E0,1.709834576E0,2.337230206E0
3.402760687E0,-9.400784492E0,1.761578560E0,2.166212082E0
3.423028968E0,-9.431862831E0,1.796274900E0,1.995932341E0
3.443297301E0,-9.476399422E0,1.764591336E0,1.804011583E0
3.463565531E0,-9.550212860E0,1.576380730E0,1.574437499E0
3.483833968E0,-9.666885376E0,1.086925268E0,1.241092920E0
3.504102301E0,-9.787190437E0,-7.297050208E-2,6.131706834E-1
3.524370635E0,-9.684587479E0,-1.509534717E0,-3.169265091E-1
3.544770635E0,-9.537240982E0,-2.189951420E0,-6.446192265E-1
3.564907249E0,-9.408172607E0,-2.740671873E0,-3.813043237E-1
3.585175583E0,-9.230058670E0,-3.285338163E0,-4.277256727E-1
3.605443916E0,-9.113217354E0,-3.613848686E0,-2.444677949E-1
3.625712249E0,-8.971694946E0,-3.957317114E0,-1.368298829E-1
3.646112249E0,-8.832447052E0,-4.258204460E0,-1.610806733E-1
3.666248916E0,-8.733998299E0,-4.459496021E0,2.379354648E-2
3.686517249E0,-8.618745804E0,-4.672536373E0,2.345538586E-1
3.706785583E0,-8.471822739E0,-4.931991577E0,2.721313536E-1
3.727053916E0,-8.314421654E0,-5.193241119E0,2.664773762E-1
3.747322249E0,-8.190456390E0,-5.385718346E0,2.843280137E-1
3.767590583E0,-8.083422661E0,-5.542837620E0,3.249897361E-1
3.787858916E0,-7.982266903E0,-5.679921627E0,4.384954870E-1
3.808127249E0,-7.884881973E0,-5.802333832E0,5.761550069E-1
3.828395635E0,-7.795657635E0,-5.911518574E0,6.723616123E-1
3.848663968E0,-7.748512268E0,-5.966632843E0,7.281747460E-1
3.868932301E0,-7.789443493E0,-5.909061432E0,7.602373362E-1
3.889200635E0,-7.906154633E0,-5.757216930E0,7.194122076E-1
3.909468968E0,-8.035937309E0,-5.586080074E0,6.243474483E-1
3.929737301E0,-8.085400581E0,-5.532599449E0,4.324692190E-1
3.950005635E0,-7.858580112E0,-5.864366531E0,1.493920237E-1
3.970274020E0,-7.406699657E0,-6.420849800E0,-2.896059155E-1
3.990542354E0,-6.918116570E0,-6.906232357E0,-7.835872769E-1
4.010810635E0,-6.486171246E0,-7.286555767E0,-1.003033042E0
4.031079020E0,-5.963661194E0,-7.671626568E0,-1.323359489E0
4.051347354E0,-5.427589417E0,-8.010133743E0,-1.596691251E0
4.071615739E0,-4.941686630E0,-8.292698860E0,-1.726633191E0
4.091884072E0,-4.475056648E0,-8.616071701E0,-1.381143689E0
4.112152406E0,-4.050763607E0,-8.911945343E0,-5.821667910E-1
4.132420791E0,-3.504818201E0,-9.147905350E0,4.499520659E-1
4.152689124E0,-2.815148830E0,-9.300215721E0,1.323375821E0
4.172957458E0,-2.428611279E0,-9.381893158E0,1.500769973E0
4.193225843E0,-2.189963102E0,-9.456199646E0,1.398117781E0
4.213494176E0,-1.649170399E0,-9.589442253E0,1.221974015E0
4.233762510E0,-1.083561301E0,-9.686477661E0,1.080945611E0
4.254030895E0,-7.319436073E-1,-9.716385841E0,1.107466459E0
4.274299229E0,-7.184839845E-1,-9.699599266E0,1.253771544E0
4.294567562E0,-8.809255362E-1,-9.665257454E0,1.406115770E0
4.314835947E0,-1.036448717E0,-9.631432533E0,1.526978850E0
4.335104281E0,-1.062030554E0,-9.622654915E0,1.564286947E0
4.355512249E0,-9.933485985E-1,-9.641977310E0,1.488599539E0
4.375805270E0,-9.586145878E-1,-9.658060074E0,1.404746294E0
4.396056729E0,-9.895105958E-1,-9.643187523E0,1.483302474E0
4.416167718E0,-1.014200211E0,-9.621672630E0,1.601621032E0
4.436569854E0,-1.008671880E0,-9.617151260E0,1.631980181E0
4.456706468E0,-1.005337238E0,-9.621546745E0,1.607958913E0
4.476983239E0,-1.014485955E0,-9.628037453E0,1.562721610E0
4.497251416E0,-1.021380305E0,-9.637310028E0,1.499807715E0
4.517519749E0,-1.026333094E0,-9.645972252E0,1.439527154E0
4.537787979E0,-1.035772920E0,-9.649886131E0,1.406150460E0
4.558056260E0,-1.041781068E0,-9.650654793E0,1.396407485E0
4.578324593E0,-1.044143915E0,-9.651345253E0,1.389845133E0
4.598592926E0,-1.047643065E0,-9.651367188E0,1.387065768E0
4.618861208E0,-1.046917796E0,-9.651236534E0,1.388512611E0
4.639129541E0,-1.048712611E0,-9.650573730E0,1.391768217E0
4.659397874E0,-1.049538374E0,-9.649955750E0,1.395427227E0
4.679666208E0,-1.050970435E0,-9.649248123E0,1.399232149E0
4.699934593E0,-1.052640796E0,-9.648862839E0,1.400641561E0
4.720202926E0,-1.054126859E0,-9.648738861E0,1.400372624E0
4.740471260E0,-1.055332541E0,-9.648574829E0,1.400597453E0
4.760739645E0,-1.055408239E0,-9.648456573E0,1.401348591E0
4.781007979E0,-1.056483388E0,-9.647981644E0,1.403802752E0
4.801276312E0,-1.055393219E0,-9.647770882E0,1.406079888E0
4.821544645E0,-1.052586198E0,-9.648137093E0,1.405665398E0
4.841812926E0,-1.056287408E0,-9.647881508E0,1.404642105E0
4.862081312E0,-1.068283081E0,-9.646361351E0,1.406009912E0
4.882349645E0,-1.074478030E0,-9.645069122E0,1.410150170E0
4.902617979E0,-1.043526530E0,-9.648367882E0,1.410829544E0
4.923017979E0,-1.012925863E0,-9.652585983E0,1.404262543E0
4.943312614E0,-1.000256300E0,-9.655139923E0,1.395764112E0
4.963584645E0,-9.983012080E-1,-9.655821800E0,1.392430305E0
4.983688239E0,-9.922610521E-1,-9.656328201E0,1.393249035E0
5.003957197E0,-9.821166992E-1,-9.657174110E0,1.394564509E0
5.024225479E0,-9.686194658E-1,-9.658763885E0,1.392997742E0
5.044625999E0,-9.532770514E-1,-9.660969734E0,1.388274670E0
5.064763083E0,-9.340279102E-1,-9.663569450E0,1.383260489E0
5.085031781E0,-9.133467078E-1,-9.665867805E0,1.381014347E0
5.105300322E0,-8.986235857E-1,-9.667090416E0,1.382111907E0
5.125568656E0,-8.913459778E-1,-9.667387009E0,1.384742260E0
5.145968864E0,-8.884136081E-1,-9.667226791E0,1.387741566E0
5.166105739E0,-8.844677806E-1,-9.667215347E0,1.390349865E0
5.186374176E0,-8.812091947E-1,-9.667288780E0,1.391897082E0
5.206642614E0,-8.813548088E-1,-9.666982651E0,1.393932104E0
5.226910947E0,-8.861334920E-1,-9.666205406E0,1.396297216E0
5.247311051E0,-8.916900754E-1,-9.665243149E0,1.399405956E0
5.267447770E0,-8.974240422E-1,-9.664499283E0,1.400877595E0
5.287716156E0,-8.997156024E-1,-9.664318085E0,1.400665283E0
5.307984489E0,-8.996339440E-1,-9.664422989E0,1.399992466E0
5.328252874E0,-9.005414844E-1,-9.664458275E0,1.399163604E0
5.348521260E0,-9.022460580E-1,-9.664476395E0,1.397940993E0
5.368789489E0,-9.050859809E-1,-9.664644241E0,1.394943357E0
5.389057926E0,-9.069456458E-1,-9.664948463E0,1.391622901E0
5.409326260E0,-9.054898620E-1,-9.665734291E0,1.387102365E0
5.429594541E0,-9.004425406E-1,-9.666679382E0,1.383794904E0
5.449862874E0,-8.959227204E-1,-9.667396545E0,1.381717682E0
5.470131208E0,-8.943642378E-1,-9.667863846E0,1.379454851E0
5.490399489E0,-8.930519819E-1,-9.668322563E0,1.377089620E0
5.510667874E0,-8.908373117E-1,-9.669034958E0,1.373522878E0
5.530936208E0,-8.878480792E-1,-9.669657707E0,1.371069551E0
5.551204541E0,-8.835079670E-1,-9.670145988E0,1.370429039E0
5.571472822E0,-8.814843297E-1,-9.670401573E0,1.369930506E0
5.591741156E0,-8.831802011E-1,-9.670500755E0,1.368137836E0
5.612009489E0,-8.861063123E-1,-9.670590401E0,1.365614772E0
5.632277822E0,-8.879545927E-1,-9.670808792E0,1.362858534E0
5.652546104E0,-8.863907456E-1,-9.671493530E0,1.359010100E0
5.672814437E0,-8.846388459E-1,-9.672408104E0,1.353629708E0
5.693082666E0,-8.843850493E-1,-9.673317909E0,1.347281575E0
5.713351051E0,-8.860020638E-1,-9.674049377E0,1.340948939E0
5.733619385E0,-8.874248266E-1,-9.674594879E0,1.336072445E0
5.753887666E0,-8.846848607E-1,-9.675643921E0,1.330272317E0
5.774155999E0,-8.806398511E-1,-9.676740646E0,1.324969530E0
5.794424281E0,-8.810912967E-1,-9.676970482E0,1.322994590E0
5.814692614E0,-8.872554302E-1,-9.676600456E0,1.321579099E0
5.835094593E0,-8.946754932E-1,-9.676191330E0,1.319572806E0
5.855270687E0,-9.012190104E-1,-9.675880432E0,1.317390680E0
5.875663343E0,-9.050974250E-1,-9.675850868E0,1.314949393E0
5.895914124E0,-9.064344168E-1,-9.675952911E0,1.313272119E0
5.916025062E0,-9.068977833E-1,-9.676138878E0,1.311588168E0
5.936426989E0,-9.074001312E-1,-9.676291466E0,1.310110569E0
5.956563499E0,-9.095416069E-1,-9.676228523E0,1.309093595E0
5.976839437E0,-9.145798683E-1,-9.675786018E0,1.308848739E0
5.997107614E0,-9.182160497E-1,-9.675447464E0,1.308812976E0
6.017375895E0,-9.181409478E-1,-9.675394058E0,1.309259295E0
6.037644072E0,-9.180663228E-1,-9.675092697E0,1.311531305E0
6.057912406E0,-9.187120199E-1,-9.674791336E0,1.313307643E0
6.078180635E0,-9.210669994E-1,-9.674560547E0,1.313353896E0
6.098448916E0,-9.245821238E-1,-9.674157143E0,1.313858032E0
6.118717197E0,-9.282082319E-1,-9.673624992E0,1.315215111E0
6.138985479E0,-9.329697490E-1,-9.672783852E0,1.318037033E0
6.159385479E0,-9.386648536E-1,-9.671601295E0,1.322655439E0
6.179522041E0,-9.436529279E-1,-9.670305252E0,1.328573585E0
6.199790374E0,-9.462995529E-1,-9.669338226E0,1.333718181E0
6.220058656E0,-9.466444254E-1,-9.668502808E0,1.339514256E0
6.240326937E0,-9.411672950E-1,-9.668117523E0,1.346138716E0
6.260595218E0,-9.243749976E-1,-9.669015884E0,1.351311207E0
6.280863499E0,-9.015778899E-1,-9.671237946E0,1.350813627E0
6.301131781E0,-8.751568794E-1,-9.674271584E0,1.346460700E0
6.321400114E0,-8.449405432E-1,-9.677968025E0,1.339181542E0
6.341668395E0,-8.101605177E-1,-9.682156563E0,1.330368876E0
6.361936676E0,-7.707219720E-1,-9.686872482E0,1.319419026E0
6.382204906E0,-7.303733826E-1,-9.691760063E0,1.306424141E0
6.402473187E0,-6.862552762E-1,-9.696748734E0,1.293253422E0
6.422741468E0,-6.407302022E-1,-9.701447487E0,1.281315684E0
6.443009749E0,-5.951385498E-1,-9.705775261E0,1.270481110E0
6.463277926E0,-5.498263240E-1,-9.709753990E0,1.260456681E0
6.483546260E0,-5.065819621E-1,-9.713197708E0,1.252020478E0
6.503814541E0,-4.667759240E-1,-9.715962410E0,1.246020913E0
6.524082822E0,-4.295807779E-1,-9.718093872E0,1.242785454E0
6.544482822E0,-3.918038309E-1,-9.720154762E0,1.239140749E0
6.564619385E0,-3.554282486E-1,-9.721875191E0,1.236606598E0
6.584887666E0,-3.223177493E-1,-9.723090172E0,1.236125350E0
6.605155947E0,-2.964144647E-1,-9.723886490E0,1.236349344E0
6.625424229E0,-2.799659073E-1,-9.724194527E0,1.237760544E0
6.645824229E0,-2.745499611E-1,-9.723558426E0,1.243951559E0
6.665960791E0,-2.822890580E-1,-9.721229553E0,1.260314465E0
6.686229072E0,-3.014066219E-1,-9.716389656E0,1.292792678E0
6.706497354E0,-3.288180232E-1,-9.708123207E0,1.347081184E0
6.726765635E0,-3.625805080E-1,-9.695927620E0,1.424044132E0
6.747033864E0,-4.038015306E-1,-9.680322647E0,1.516137242E0
6.767302145E0,-4.648889303E-1,-9.662728310E0,1.608088493E0
6.787570426E0,-5.608822107E-1,-9.643463135E0,1.690985918E0
6.807838708E0,-6.955085993E-1,-9.621083260E0,1.766751409E0
6.828106989E0,-8.593344092E-1,-9.591482162E0,1.853483796E0
6.848375218E0,-1.036787510E0,-9.551561356E0,1.965488195E0
6.868643499E0,-1.210146070E0,-9.502729416E0,2.098586798E0
6.888911781E0,-1.394934297E0,-9.454172134E0,2.200724840E0
6.909180010E0,-1.572725177E0,-9.414165497E0,2.251757383E0
6.929448291E0,-1.720561385E0,-9.389537811E0,2.246470928E0
6.949716572E0,-1.813133717E0,-9.377543449E0,2.223648548E0
6.969984749E0,-1.850041389E0,-9.372406960E0,2.214888096E0
6.990253083E0,-1.842075706E0,-9.370865822E0,2.228008032E0
7.010521364E0,-1.802663565E0,-9.373070717E0,2.250850201E0
7.030789593E0,-1.749336004E0,-9.381027222E0,2.259768963E0
7.051057874E0,-1.696531296E0,-9.397290230E0,2.232286930E0
7.071457874E0,-1.644342303E0,-9.423496246E0,2.159686565E0
7.091594385E0,-1.588444710E0,-9.456891060E0,2.052905560E0
7.111862614E0,-1.529011130E0,-9.492083549E0,1.932062149E0
7.132130895E0,-1.472174764E0,-9.524265289E0,1.814240098E0
7.152399176E0,-1.423599958E0,-9.552546501E0,1.700764179E0
7.172667406E0,-1.389712453E0,-9.577460289E0,1.584722638E0
7.192935687E0,-1.377386093E0,-9.597509384E0,1.470037699E0
7.213203916E0,-1.390238523E0,-9.612148285E0,1.358020425E0
7.233472197E0,-1.426043868E0,-9.621569633E0,1.249871254E0
7.253740426E0,-1.474810243E0,-9.626263618E0,1.153416753E0
7.274008656E0,-1.526567578E0,-9.627123833E0,1.076319814E0
7.294408656E0,-1.574199557E0,-9.626406670E0,1.012223005E0
7.314545166E0,-1.614530325E0,-9.626377106E0,9.468623400E-1
7.334813395E0,-1.650394201E0,-9.627585411E0,8.695827127E-1
7.355081676E0,-1.689662814E0,-9.628786087E0,7.758212686E-1
7.375476676E0,-1.744355798E0,-9.627289772E0,6.655300260E-1
7.395782458E0,-1.817266226E0,-9.621573448E0,5.415518284E-1
7.416049541E0,-1.905559063E0,-9.610703468E0,4.166577458E-1
7.436301104E0,-1.996722937E0,-9.595507622E0,3.312212527E-1
7.456412093E0,-2.071157932E0,-9.579875946E0,3.265884817E-1
7.476691781E0,-2.128462553E0,-9.565267563E0,3.816924095E-1
7.496959906E0,-2.136347294E0,-9.560789108E0,4.446700513E-1
7.517228031E0,-2.022521973E0,-9.582723618E0,5.011878610E-1
7.537496208E0,-1.696095467E0,-9.643586159E0,5.430504680E-1
7.557764385E0,-1.076531291E0,-9.725639343E0,6.506937146E-1
7.578032614E0,-4.743626118E-1,-9.742683411E0,1.012664437E0
7.598300791E0,-2.471982092E-1,-9.695723534E0,1.449900150E0
7.618568968E0,-3.532646000E-1,-9.673324585E0,1.572384477E0
7.638837197E0,-6.132137179E-1,-9.676898003E0,1.466974139E0
7.659105374E0,-9.123327136E-1,-9.675104141E0,1.315443516E0
7.679373656E0,-1.145100594E0,-9.664292336E0,1.208547950E0
7.699641885E0,-1.278092265E0,-9.650206566E0,1.187595367E0
7.719910114E0,-1.347761393E0,-9.635500908E0,1.229240894E0
7.740178343E0,-1.385495543E0,-9.622942924E0,1.284423947E0
7.760446572E0,-1.423912168E0,-9.617942810E0,1.279857874E0
7.780714801E0,-1.480753899E0,-9.627741814E0,1.133289814E0
7.800983031E0,-1.560980201E0,-9.646423340E0,8.247662783E-1
7.821251312E0,-1.705655932E0,-9.645501137E0,4.748102129E-1
7.841519541E0,-1.874389648E0,-9.618382454E0,3.791743219E-1
7.861787770E0,-1.991155148E0,-9.588845253E0,5.096539855E-1
7.882055999E0,-2.036152124E0,-9.569609642E0,6.686112881E-1
7.902324229E0,-2.028687239E0,-9.561302185E0,7.976990342E-1
7.922592406E0,-2.002649307E0,-9.557699203E0,9.000893831E-1
7.942860635E0,-1.975530267E0,-9.554778099E0,9.868615866E-1
7.963128760E0,-1.960160017E0,-9.547177315E0,1.086082697E0
7.983397041E0,-1.975274205E0,-9.520373344E0,1.277168870E0
8.003665322E0,-2.056285858E0,-9.439911842E0,1.682299137E0
8.023933604E0,-2.185447931E0,-9.280205727E0,2.296077728E0
8.044333604E0,-2.324356556E0,-9.060309410E0,2.945937157E0
8.064470062E0,-2.524935484E0,-8.836236000E0,3.422866821E0
8.084738291E0,-2.812165499E0,-8.684609413E0,3.583248854E0
8.105006520E0,-3.091290474E0,-8.636011124E0,3.468950510E0
8.125274749E0,-3.308982611E0,-8.641983986E0,3.246095657E0
8.145674749E0,-3.493194342E0,-8.627146721E0,3.088740587E0
8.165811208E0,-3.650856972E0,-8.580530167E0,3.035809517E0
8.186079437E0,-3.768180609E0,-8.528470039E0,3.039146185E0
8.206347666E0,-3.831839085E0,-8.500334740E0,3.038369179E0
8.226615895E0,-3.817174196E0,-8.534991264E0,2.958629847E0
8.247015895E0,-3.738166571E0,-8.657087326E0,2.692828655E0
8.267152354E0,-3.637359619E0,-8.817251205E0,2.279489040E0
8.287420635E0,-3.508527279E0,-8.965914726E0,1.863601685E0
8.307688812E0,-3.331011295E0,-9.092810631E0,1.547755361E0
8.327957041E0,-3.084209919E0,-9.214673996E0,1.322046995E0
8.348225270E0,-2.805460453E0,-9.330720901E0,1.112394094E0
8.368493499E0,-2.554794550E0,-9.425801277E0,8.931422234E-1
8.388761729E0,-2.384077072E0,-9.485168457E0,7.198235989E-1
8.409029958E0,-2.333358526E0,-9.504335403E0,6.272505522E-1
8.429298187E0,-2.443473816E0,-9.479987144E0,5.741546154E-1
8.449566416E0,-2.672415257E0,-9.419605255E0,5.473785996E-1
8.469834645E0,-2.922302961E0,-9.346598625E0,5.211783648E-1
8.490102822E0,-3.149933100E0,-9.274983406E0,4.722165465E-1
8.510371104E0,-3.300735474E0,-9.219274521E0,5.296345949E-1
8.530639333E0,-3.244853973E0,-9.227807999E0,6.992000937E-1
8.550907562E0,-2.900153637E0,-9.325584412E0,8.904963136E-1
8.571175791E0,-2.162864685E0,-9.506236076E0,1.060130596E0
8.591443968E0,-1.188655257E0,-9.668939590E0,1.126541018E0
8.611712197E0,-5.194597840E-1,-9.729967117E0,1.108282924E0
8.631980426E0,-4.514276981E-1,-9.745289803E0,9.979634285E-1
8.652248656E0,-6.834995151E-1,-9.740808487E0,9.054622650E-1
8.672516885E0,-1.003502965E0,-9.715062141E0,8.837133050E-1
8.692785114E0,-1.283120275E0,-9.676098824E0,9.471577406E-1
8.713053343E0,-1.462960601E0,-9.637981415E0,1.067442894E0
8.733321520E0,-1.566054463E0,-9.611683846E0,1.154728532E0
8.753589749E0,-1.667700171E0,-9.597748756E0,1.127998829E0
8.773857979E0,-1.782951713E0,-9.596014023E0,9.528781176E-1
8.794126208E0,-1.866005182E0,-9.604071617E0,6.709827185E-1
8.814394385E0,-1.954810381E0,-9.600113869E0,4.323301613E-1
8.834662614E0,-2.139216900E0,-9.562551498E0,3.895694911E-1
8.854930843E0,-2.344388962E0,-9.508395195E0,5.144374371E-1
8.875325739E0,-2.499989271E0,-9.458306313E0,6.788761616E-1
8.895631468E0,-2.601678610E0,-9.419973373E0,8.159438968E-1
8.915898604E0,-2.656928301E0,-9.391794205E0,9.514887929E-1
8.936150062E0,-2.655585289E0,-9.369623184E0,1.152565122E0
8.956260999E0,-2.602815628E0,-9.336510658E0,1.491746187E0
8.976540687E0,-2.533442020E0,-9.251779556E0,2.038784742E0
8.996808760E0,-2.489376307E0,-9.077300072E0,2.752458811E0
9.017076937E0,-2.594365597E0,-8.826251030E0,3.396606922E0
9.037476937E0,-2.938366890E0,-8.609127998E0,3.663237810E0
9.057613239E0,-3.268372059E0,-8.535968781E0,3.553217888E0
9.077881416E0,-3.455921888E0,-8.559865952E0,3.309934616E0
9.098149541E0,-3.554743767E0,-8.566681862E0,3.185304165E0
9.118417718E0,-3.546423912E0,-8.556816101E0,3.220894337E0
9.138685843E0,-3.445244312E0,-8.556248665E0,3.330357313E0
9.158954072E0,-3.280976534E0,-8.587944031E0,3.413618803E0
9.179222197E0,-3.123799562E0,-8.672245026E0,3.347301960E0
9.199490426E0,-3.068197250E0,-8.823121071E0,2.984807253E0
9.219758551E0,-3.076202631E0,-9.017086983E0,2.323684692E0
9.240026833E0,-2.993613482E0,-9.191940308E0,1.648299694E0
9.260295062E0,-2.843177319E0,-9.309653282E0,1.190408707E0
9.280563239E0,-2.729812860E0,-9.371604919E0,9.442051053E-1
9.300831416E0,-2.719239473E0,-9.386499405E0,8.183876872E-1
9.321099645E0,-2.832997084E0,-9.357578278E0,7.617313266E-1
9.341367822E0,-3.036786079E0,-9.294085503E0,7.538492680E-1
9.361635999E0,-3.268359423E0,-9.215099335E0,7.550827861E-1
9.381904229E0,-3.421666145E0,-9.161499977E0,7.276740670E-1
9.402172458E0,-3.441959858E0,-9.156571388E0,6.931853294E-1
9.422572458E0,-3.259132862E0,-9.209343910E0,8.581504226E-1
9.442708812E0,-2.727270842E0,-9.337852478E0,1.239717603E0
9.463042822E0,-1.665069342E0,-9.524116516E0,1.639857292E0
9.483442822E0,-5.228037238E-1,-9.620416641E0,1.828835130E0
9.503513395E0,9.293228388E-2,-9.619266510E0,1.905638337E0
9.523781520E0,9.108909220E-2,-9.636750221E0,1.815251946E0
9.544181520E0,-2.386762351E-1,-9.656302452E0,1.693884969E0
9.564317926E0,-6.116446257E-1,-9.642806053E0,1.677064657E0
9.584586104E0,-8.915742040E-1,-9.600154877E0,1.792354345E0
9.604854333E0,-1.024000883E0,-9.556056023E0,1.950283527E0
9.625122510E0,-1.014394522E0,-9.538469315E0,2.039366007E0
9.645522510E0,-9.348904490E-1,-9.567379951E0,1.939483523E0
9.665658916E0,-8.712236881E-1,-9.635988235E0,1.599716544E0
9.685927093E0,-8.508150578E-1,-9.708765030E0,1.089212537E0
9.706195322E0,-9.163136482E-1,-9.740478516E0,6.736730933E-1
9.726463551E0,-1.113098979E0,-9.726823807E0,5.659633875E-1
9.746731729E0,-1.351007819E0,-9.692825317E0,6.279414296E-1
9.766999958E0,-1.555665612E0,-9.654696465E0,7.328769565E-1
9.787268135E0,-1.695428729E0,-9.622807503E0,8.351590633E-1
9.807536312E0,-1.741696477E0,-9.605981827E0,9.284394383E-1
9.827804541E0,-1.694200039E0,-9.606516838E0,1.007424951E0
9.848072718E0,-1.585389972E0,-9.617421150E0,1.078028798E0
9.868340895E0,-1.451890230E0,-9.629554749E0,1.155021787E0
9.888609072E0,-1.328084707E0,-9.629271507E0,1.297579050E0
9.908877301E0,-1.243412852E0,-9.592280388E0,1.616314650E0
9.929145479E0,-1.241892695E0,-9.484780312E0,2.160330772E0
9.949413656E0,-1.364376545E0,-9.267540932E0,2.901992321E0
9.969681885E0,-1.572248340E0,-8.997589111E0,3.569569349E0
9.989950062E0,-1.742875814E0,-8.814991951E0,3.927939177E0
1.001021829E1,-1.767346263E0,-8.781030655E0,3.992540598E0
1.003048647E1,-1.813086271E0,-8.804184914E0,3.920389175E0
1.005088647E1,-1.936841488E0,-8.795104027E0,3.881388187E0
1.007102282E1,-2.023808002E0,-8.780373573E0,3.870352268E0
1.009129095E1,-2.051882505E0,-8.787508011E0,3.839254856E0
1.011155923E1,-2.019819975E0,-8.823805809E0,3.772421598E0
1.013182741E1,-1.933023214E0,-8.896770477E0,3.644349337E0
1.015209558E1,-1.836931825E0,-9.018736839E0,3.385033846E0
1.017236376E1,-1.800557971E0,-9.180161476E0,2.941601515E0
1.019263199E1,-1.823769331E0,-9.343960762E0,2.352584124E0
1.021290017E1,-1.844417095E0,-9.470628738E0,1.753769398E0
1.023316834E1,-1.781503320E0,-9.560156822E0,1.264923334E0
1.025343657E1,-1.640808225E0,-9.626221657E0,9.022196531E-1
1.027370475E1,-1.477448583E0,-9.672746658E0,6.522932053E-1
1.029397293E1,-1.366828203E0,-9.697017670E0,5.196390152E-1
1.031424110E1,-1.361227155E0,-9.699906349E0,4.788005650E-1
1.033464110E1,-1.473768473E0,-9.683872223E0,4.701241255E-1
1.035477751E1,-1.654802322E0,-9.656067848E0,4.386077821E-1
1.037504569E1,-1.820857763E0,-9.629165649E0,3.661216199E-1
1.039544064E1,-1.947335839E0,-9.606688499E0,2.996819913E-1
1.041574631E1,-2.035662174E0,-9.587398529E0,3.290136755E-1
1.043599767E1,-1.948257208E0,-9.594489098E0,5.660982132E-1
1.045610860E1,-1.543186188E0,-9.633857727E0,9.888082147E-1
1.047638725E1,-8.003646731E-1,-9.665223122E0,1.453708529E0
1.049665532E1,-6.104344875E-2,-9.654826164E0,1.717843175E0
1.051692334E1,1.409647465E-1,-9.679175377E0,1.569732547E0
1.053719152E1,3.096300876E-3,-9.727046967E0,1.246970534E0
1.055745964E1,-2.312914580E-1,-9.740374565E0,1.114449620E0
1.057772777E1,-4.567002356E-1,-9.716690063E0,1.244086146E0
1.059799590E1,-6.142106056E-1,-9.665793419E0,1.538040757E0
1.061826407E1,-6.762449145E-1,-9.606503487E0,1.851528406E0
1.063853225E1,-6.560116410E-1,-9.572198868E0,2.028062344E0
1.065893225E1,-6.078631282E-1,-9.596119881E0,1.927528262E0
1.067906860E1,-5.584937334E-1,-9.667591095E0,1.547953367E0
1.069933683E1,-5.412552357E-1,-9.736836433E0,1.035111427E0
1.071960501E1,-6.073496342E-1,-9.772285461E0,5.513301492E-1
1.073987319E1,-7.175046802E-1,-9.774078369E0,3.506569266E-1
1.076014142E1,-8.224255443E-1,-9.762969971E0,4.224186242E-1
1.078040959E1,-9.127123356E-1,-9.751570702E0,4.941819906E-1
1.080067777E1,-9.794462323E-1,-9.743558884E0,5.235752463E-1
1.082094595E1,-9.999563098E-1,-9.739736557E0,5.549843907E-1
1.084121418E1,-9.613528252E-1,-9.740450859E0,6.081115603E-1
1.086148235E1,-8.874861598E-1,-9.743703842E0,6.655675769E-1
1.088175053E1,-8.226044178E-1,-9.745832443E0,7.158550024E-1
1.090201876E1,-8.014978170E-1,-9.738614082E0,8.290940523E-1
1.092228694E1,-8.294595480E-1,-9.709117889E0,1.102448225E0
1.094255511E1,-8.889502883E-1,-9.643666267E0,1.542676330E0
1.096288912E1,-9.817523956E-1,-9.518803596E0,2.144510984E0
1.098328918E1,-1.099926353E0,-9.327006340E0,2.822675467E0
1.100335959E1,-1.197938204E0,-9.123330116E0,3.391192675E0
1.102362782E1,-1.265399098E0,-8.978497505E0,3.735738516E0
1.104402782E1,-1.327102780E0,-8.932930946E0,3.822558165E0
1.106416418E1,-1.413865566E0,-8.944423676E0,3.764127254E0
1.108443235E1,-1.522891760E0,-8.954849243E0,3.696195841E0
1.110470058E1,-1.600659251E0,-8.966242790E0,3.635210514E0
1.112496876E1,-1.631765366E0,-8.984546661E0,3.575702190E0
1.114536876E1,-1.614210486E0,-9.013999939E0,3.508919954E0
1.116550517E1,-1.561433792E0,-9.064378738E0,3.401376247E0
1.118577334E1,-1.489646912E0,-9.153660774E0,3.187763453E0
1.120604152E1,-1.426194072E0,-9.291888237E0,2.792337894E0
1.122630970E1,-1.380578518E0,-9.446865082E0,2.240788221E0
1.124670970E1,-1.308843255E0,-9.569465637E0,1.697834253E0
1.126684610E1,-1.169102192E0,-9.649681091E0,1.298941970E0
1.128711433E1,-9.885808229E-1,-9.701848030E0,1.033080339E0
1.130738251E1,-8.250575662E-1,-9.734722137E0,8.513802290E-1
1.132765069E1,-7.345750928E-1,-9.752061844E0,7.266917229E-1
1.134791892E1,-7.597212195E-1,-9.754549026E0,6.648101211E-1
1.136818709E1,-9.129332900E-1,-9.742495537E0,6.486238837E-1
1.138845527E1,-1.166594982E0,-9.715142250E0,6.522633433E-1
1.140872345E1,-1.456269503E0,-9.676116943E0,6.499432921E-1
1.142899162E1,-1.706640482E0,-9.636338234E0,6.314679980E-1
1.144925985E1,-1.876076221E0,-9.605444908E0,6.214061379E-1
1.146952803E1,-1.961997986E0,-9.584717751E0,6.738924980E-1
1.148979621E1,-1.863459229E0,-9.593254089E0,8.169317842E-1
1.151006439E1,-1.448774934E0,-9.642389297E0,1.046783090E0
1.153033256E1,-7.692121267E-1,-9.699993134E0,1.220173478E0
1.155060079E1,-3.107143939E-1,-9.726047516E0,1.215665340E0
1.157100079E1,-4.194617867E-1,-9.740072250E0,1.060866356E0
1.159113715E1,-7.658014894E-1,-9.730811119E0,9.461791515E-1
1.161140532E1,-1.146616340E0,-9.691579819E0,9.638150334E-1
1.163167350E1,-1.434875965E0,-9.638610840E0,1.099404573E0
1.165194168E1,-1.551172614E0,-9.594676971E0,1.306302428E0
1.167220985E1,-1.458102465E0,-9.579653740E0,1.508155704E0
1.169247803E1,-1.213106275E0,-9.598085403E0,1.604841352E0
1.171274621E1,-9.436612129E-1,-9.644084930E0,1.507154465E0
1.173301438E1,-7.605750561E-1,-9.701329231E0,1.214958072E0
1.175328256E1,-7.063708901E-1,-9.746485710E0,8.230763674E-1
1.177355475E1,-7.467483282E-1,-9.768537521E0,4.340783656E-1
1.179385751E1,-8.465446234E-1,-9.766701698E0,2.555078566E-1
1.181408657E1,-9.165381193E-1,-9.758423805E0,3.217162490E-1
1.183435485E1,-9.241357446E-1,-9.752079010E0,4.618601799E-1
1.185462314E1,-8.890858293E-1,-9.747570992E0,6.039711833E-1
1.187489131E1,-8.237673640E-1,-9.743918419E0,7.401677370E-1
1.189515954E1,-7.499475479E-1,-9.737715721E0,8.859211206E-1
1.191556756E1,-6.967860460E-1,-9.723025322E0,1.071275949E0
1.193584069E1,-7.075349689E-1,-9.688541412E0,1.342361808E0
1.195591230E1,-7.807266116E-1,-9.622427940E0,1.723292232E0
1.197623303E1,-8.685485721E-1,-9.512575150E0,2.219669580E0
1.199650116E1,-9.643356204E-1,-9.328990936E0,2.865376472E0
1.201676923E1,-1.089854717E0,-9.052795410E0,3.609640360E0
1.203716923E1,-1.189913392E0,-8.823252678E0,4.111531734E0
1.205730548E1,-1.263640404E0,-8.793297768E0,4.153494358E0
1.207757360E1,-1.384237409E0,-8.858231544E0,3.973161459E0
1.209784173E1,-1.498098254E0,-8.923452377E0,3.781280756E0
1.211810985E1,-1.554661751E0,-8.979142189E0,3.623316765E0
1.213837803E1,-1.544800878E0,-9.030503273E0,3.497711897E0
1.215864616E1,-1.475574613E0,-9.091679573E0,3.366662025E0
1.217891433E1,-1.378357530E0,-9.179373741E0,3.163797140E0
1.219918251E1,-1.290555716E0,-9.297904968E0,2.837925911E0
1.221945069E1,-1.221826553E0,-9.431022644E0,2.394439220E0
1.223971886E1,-1.154946804E0,-9.551928520E0,1.896615148E0
1.225998704E1,-1.074776888E0,-9.641963005E0,1.431014538E0
1.228025522E1,-9.811404347E-1,-9.697641373E0,1.078663468E0
1.230052340E1,-8.949155807E-1,-9.727396965E0,8.644436598E-1
1.232079152E1,-8.456299305E-1,-9.739868164E0,7.682917714E-1
1.234105970E1,-8.623981476E-1,-9.739435196E0,7.550249100E-1
1.236132787E1,-9.509847164E-1,-9.728264809E0,7.917678356E-1
1.238159605E1,-1.112975359E0,-9.707257271E0,8.371447921E-1
1.240186423E1,-1.323250413E0,-9.679412842E0,8.534384966E-1
1.242213241E1,-1.539288282E0,-9.650139809E0,8.220493793E-1
1.244240058E1,-1.704346538E0,-9.627857208E0,7.549472451E-1
1.246273459E1,-1.658895612E0,-9.643404007E0,6.505567431E-1
1.248313465E1,-1.019767761E0,-9.724921227E0,7.459103465E-1
1.250320501E1,1.154854372E-1,-9.747059822E0,1.073254824E0
1.252347308E1,8.480436802E-1,-9.671487808E0,1.383304000E0
1.254387308E1,7.150896788E-1,-9.668881416E0,1.473695755E0
1.256400949E1,2.609232366E-1,-9.694078445E0,1.458476901E0
1.258427767E1,-2.518842816E-1,-9.691189766E0,1.479114294E0
1.260454584E1,-6.912743449E-1,-9.657060623E0,1.560037017E0
1.262481397E1,-9.592492580E-1,-9.615710258E0,1.669833541E0
1.264521397E1,-9.857791066E-1,-9.593633652E0,1.777866960E0
1.266535032E1,-8.322679400E-1,-9.600723267E0,1.817645431E0
1.268561850E1,-6.597948670E-1,-9.631201744E0,1.724819541E0
1.270588662E1,-5.425984859E-1,-9.682682991E0,1.456578851E0
1.272615475E1,-4.954016507E-1,-9.738315582E0,1.044111013E0
1.274642298E1,-5.444538593E-1,-9.772089005E0,6.166344881E-1
1.276669110E1,-6.805450320E-1,-9.771636963E0,4.715310931E-1
1.278695923E1,-8.515372276E-1,-9.751385689E0,5.964549780E-1
1.280722746E1,-9.953778982E-1,-9.724097252E0,7.883670926E-1
1.282749564E1,-1.098605752E0,-9.699033737E0,9.445615411E-1
1.284776376E1,-1.163196921E0,-9.676373482E0,1.088650346E0
1.286803188E1,-1.191876888E0,-9.648042679E0,1.290380120E0
1.288830011E1,-1.198343992E0,-9.598685265E0,1.612325549E0
1.290856824E1,-1.164914131E0,-9.512034416E0,2.081964254E0
1.292883636E1,-1.091186523E0,-9.388478279E0,2.614606857E0
1.294910459E1,-1.097245336E0,-9.242369652E0,3.089504242E0
1.296937272E1,-1.388884306E0,-9.090855598E0,3.405541897E0
1.298964090E1,-1.975779057E0,-8.990020752E0,3.383225441E0
1.300990907E1,-2.521502972E0,-8.951440811E0,3.111928463E0
1.303017720E1,-2.826297045E0,-8.962991714E0,2.801286697E0
1.305044537E1,-2.885303974E0,-9.004227638E0,2.601783991E0
1.307071350E1,-2.812842607E0,-9.043840408E0,2.543080091E0
1.309098168E1,-2.740444422E0,-9.065589905E0,2.544686794E0
1.311124980E1,-2.693249226E0,-9.085686684E0,2.523311138E0
1.313151798E1,-2.723345280E0,-9.099805832E0,2.438712835E0
1.315178610E1,-2.753643513E0,-9.131278992E0,2.282009602E0
1.317205433E1,-2.685408831E0,-9.205973625E0,2.051585674E0
1.319232298E1,-2.485930204E0,-9.307203293E0,1.834805846E0
1.321259058E1,-2.153441429E0,-9.416427612E0,1.692326665E0
1.323285876E1,-1.722832799E0,-9.514557838E0,1.635677695E0
1.325312688E1,-1.244953513E0,-9.584919930E0,1.658248186E0
1.327339506E1,-7.455831170E-1,-9.619477272E0,1.755040765E0
1.329366319E1,-2.619450688E-1,-9.608328819E0,1.944684029E0
1.331393136E1,4.213124886E-2,-9.548645020E0,2.234275341E0
1.333419949E1,5.304246210E-3,-9.497502327E0,2.442911625E0
1.335446761E1,-2.351727188E-1,-9.478555679E0,2.504412651E0
1.337486761E1,-5.656120777E-1,-9.480231285E0,2.444525003E0
1.339501188E1,-8.108979464E-1,-9.486418724E0,2.349614859E0
1.341536506E1,-8.657157421E-1,-9.504145622E0,2.256578684E0
1.343570928E1,-8.429004550E-1,-9.529446602E0,2.156282902E0
1.345597756E1,-8.382304907E-1,-9.554679871E0,2.043490648E0
1.347607657E1,-8.199055195E-1,-9.580204964E0,1.928165078E0
1.349634470E1,-7.454921603E-1,-9.607599258E0,1.818973064E0
1.351661287E1,-6.116855741E-1,-9.634325981E0,1.725102782E0
1.353688100E1,-4.234494567E-1,-9.657092094E0,1.652768373E0
1.355714912E1,-2.039894462E-1,-9.673317909E0,1.598655343E0
1.357741730E1,-2.494382486E-2,-9.682830811E0,1.553233027E0
1.359768543E1,3.036674112E-2,-9.691860199E0,1.495759249E0
1.361795355E1,-6.609456241E-2,-9.707278252E0,1.390962720E0
1.363822173E1,-2.529739141E-1,-9.727792740E0,1.215090632E0
1.365848985E1,-4.473299086E-1,-9.748052597E0,9.725021124E-1
1.367875798E1,-5.816988945E-1,-9.764673233E0,6.951036453E-1
1.369902616E1,-6.089476347E-1,-9.778381348E0,4.275659919E-1
1.371929428E1,-5.190699100E-1,-9.790802956E0,2.028280646E-1
1.373956241E1,-3.508549333E-1,-9.800274849E0,4.378473386E-2
1.375983053E1,-2.043748945E-1,-9.804316521E0,-6.321894377E-2
1.378009871E1,-1.143204197E-1,-9.804502487E0,-1.704304814E-1
1.380036683E1,-8.971967548E-2,-9.800081253E0,-3.474773765E-1
1.382063491E1,-1.628777385E-1,-9.787465096E0,-5.910912752E-1
1.384090303E1,-3.466218412E-1,-9.766649246E0,-8.141308427E-1
1.386117121E1,-6.180115342E-1,-9.745432854E0,-9.027621150E-1
1.388143933E1,-8.792425394E-1,-9.735777855E0,-7.822775245E-1
1.390170746E1,-1.039170742E0,-9.738142967E0,-5.089978576E-1
1.392210746E1,-1.113241792E0,-9.741427422E0,-1.888957918E-1
1.394224371E1,-1.157705426E0,-9.737168312E0,1.328980029E-1
1.396257777E1,-1.222028255E0,-9.716686249E0,5.128782988E-1
1.398298173E1,-1.319295526E0,-9.667049408E0,9.889384508E-1
1.400320944E1,-1.377284288E0,-9.591318130E0,1.509997725E0
1.402347694E1,-1.335021496E0,-9.506791115E0,2.002253056E0
1.404372892E1,-1.179193974E0,-9.425559998E0,2.436948538E0
1.406384251E1,-9.711414576E-1,-9.345807076E0,2.807696104E0
1.408411261E1,-7.700477242E-1,-9.263336182E0,3.125380993E0
1.410438235E1,-6.439582705E-1,-9.189761162E0,3.362141132E0
1.412465037E1,-6.129571199E-1,-9.152426720E0,3.468103647E0
1.414505173E1,-6.123014688E-1,-9.162968636E0,3.440274239E0
1.416518902E1,-6.642135382E-1,-9.186172485E0,3.368000031E0
1.418545798E1,-7.584871650E-1,-9.195601463E0,3.322046995E0
1.420572678E1,-7.850998640E-1,-9.208362579E0,3.280255318E0
1.422599485E1,-7.058172822E-1,-9.244811058E0,3.194631338E0
1.424639543E1,-5.671432018E-1,-9.305651665E0,3.041968584E0
1.426653209E1,-4.240094423E-1,-9.381355286E0,2.825029135E0
1.428680053E1,-3.078492582E-1,-9.464624405E0,2.548825502E0
1.430706892E1,-2.456262857E-1,-9.537119865E0,2.270107746E0
1.432733725E1,-2.151233405E-1,-9.589417458E0,2.041365147E0
1.434760558E1,-2.226254344E-1,-9.619746208E0,1.892435193E0
1.436787381E1,-2.544581294E-1,-9.611536026E0,1.929766893E0
1.438814209E1,-3.099188209E-1,-9.571980476E0,2.109862566E0
1.440841032E1,-3.923665583E-1,-9.531419754E0,2.273428202E0
1.442867850E1,-5.106508136E-1,-9.512401581E0,2.328916788E0
1.444894668E1,-6.255295277E-1,-9.510484695E0,2.308631897E0
1.446921485E1,-6.101171374E-1,-9.510442734E0,2.312924385E0
1.448948298E1,-3.677202761E-1,-9.501645088E0,2.398734093E0
1.450975116E1,-1.153252646E-1,-9.499847412E0,2.431048632E0
1.453001928E1,-2.214494720E-2,-9.521249771E0,2.348551273E0
1.455028741E1,-1.205103006E-2,-9.558021545E0,2.194185972E0
1.457055558E1,-9.771990031E-2,-9.597536087E0,2.012001038E0
1.459082371E1,-2.485880554E-1,-9.621690750E0,1.879264712E0
1.461109178E1,-3.989686072E-1,-9.622232437E0,1.850364566E0
1.463135991E1,-4.654773772E-1,-9.605325699E0,1.921308160E0
1.465162803E1,-3.962273896E-1,-9.586546898E0,2.027684689E0
1.467189621E1,-2.641398311E-1,-9.582938194E0,2.065893888E0
1.469216428E1,-2.636705041E-1,-9.604681015E0,1.962388992E0
1.471243235E1,-4.332663119E-1,-9.644510269E0,1.722236633E0
1.473270048E1,-6.522210240E-1,-9.683836937E0,1.402963877E0
1.475296860E1,-8.254666924E-1,-9.713166237E0,1.069290280E0
1.477323673E1,-9.162913561E-1,-9.732681274E0,7.782726288E-1
1.479350480E1,-9.211319685E-1,-9.746827126E0,5.668125153E-1
1.481377293E1,-8.131434321E-1,-9.758249283E0,5.345569253E-1
1.483417293E1,-7.254267931E-1,-9.765336990E0,5.313510299E-1
1.485430912E1,-7.369149327E-1,-9.765112877E0,5.195122361E-1
1.487457725E1,-7.593020797E-1,-9.761240005E0,5.586155653E-1
1.489484532E1,-7.868468165E-1,-9.752437592E0,6.642439961E-1
1.491511345E1,-8.140482903E-1,-9.738963127E0,8.125917912E-1
1.493538157E1,-8.222726583E-1,-9.724328995E0,9.652366042E-1
1.495564970E1,-8.108317852E-1,-9.710216522E0,1.106625676E0
1.497591777E1,-7.690005302E-1,-9.699426651E0,1.224805117E0
1.499618590E1,-7.030908465E-1,-9.693733215E0,1.306749701E0
1.501645397E1,-6.343840361E-1,-9.693654060E0,1.342023134E0
1.503672209E1,-5.635883808E-1,-9.695083618E0,1.363124490E0
1.505699022E1,-4.883232117E-1,-9.690986633E0,1.420108557E0
1.507725829E1,-4.666913152E-1,-9.681262016E0,1.491894126E0
1.509752642E1,-5.075334907E-1,-9.662849426E0,1.594408274E0
1.511779449E1,-5.733547807E-1,-9.627303123E0,1.776707172E0
1.513806261E1,-6.621192694E-1,-9.557628632E0,2.093733311E0
1.515833074E1,-7.960595489E-1,-9.403429985E0,2.666868687E0
1.517873074E1,-8.985179663E-1,-9.068039894E0,3.624044895E0
1.519886694E1,-9.192351699E-1,-8.536706924E0,4.738145351E0
1.521913501E1,-9.713411331E-1,-8.213752747E0,5.268884659E0
1.523940314E1,-1.198263645E0,-8.267761230E0,5.136018276E0
1.525967121E1,-1.549563885E0,-8.381338120E0,4.849991322E0
1.527993933E1,-1.886826158E0,-8.494647026E0,4.522305489E0
1.530020741E1,-2.195344687E0,-8.593461037E0,4.183690071E0
1.532047553E1,-2.489505053E0,-8.654985428E0,3.881233931E0
1.534074360E1,-2.717558384E0,-8.683307648E0,3.658610106E0
1.536101173E1,-2.829846382E0,-8.704960823E0,3.519379139E0
1.538127980E1,-2.777945280E0,-8.752297401E0,3.442486286E0
1.540154793E1,-2.544394970E0,-8.869207382E0,3.321686983E0
1.542182397E1,-2.230020285E0,-9.063084602E0,3.009635687E0
1.544216126E1,-1.914561510E0,-9.270819664E0,2.560615778E0
1.546235110E1,-1.597836733E0,-9.440187454E0,2.121355295E0
1.548261939E1,-1.303072691E0,-9.557515144E0,1.768131375E0
1.550288772E1,-1.085437536E0,-9.629942894E0,1.502135277E0
1.552315579E1,-9.978750944E-1,-9.670835495E0,1.284355164E0
1.554355595E1,-1.063563704E0,-9.689519882E0,1.073514700E0
1.556369225E1,-1.251529217E0,-9.689018250E0,8.526367545E-1
1.558396043E1,-1.482264519E0,-9.673791885E0,6.253228188E-1
1.560422866E1,-1.653640747E0,-9.656727791E0,4.283261895E-1
1.562449678E1,-1.719173789E0,-9.649466515E0,3.203415275E-1
1.564489683E1,-1.742322564E0,-9.645003319E0,3.295580447E-1
1.566503308E1,-1.709383011E0,-9.644042015E0,4.907528162E-1
1.568530121E1,-1.617278337E0,-9.646641731E0,7.050581574E-1
1.570556928E1,-1.513427496E0,-9.648660660E0,8.850282431E-1
1.572583741E1,-1.297972083E0,-9.661927223E0,1.064332604E0
1.574623746E1,-7.251337171E-1,-9.703336716E0,1.220575571E0
1.576637366E1,1.243195385E-1,-9.699936867E0,1.437405348E0
1.578664178E1,6.890912652E-1,-9.622400284E0,1.762088776E0
1.580690991E1,8.407324553E-1,-9.592658997E0,1.855921268E0
1.582717803E1,7.985678315E-1,-9.635481834E0,1.640173316E0
1.584757803E1,6.514765620E-1,-9.688586235E0,1.370131373E0
1.586771423E1,4.841124713E-1,-9.727328300E0,1.146782875E0
1.588798235E1,3.526556790E-1,-9.746237755E0,1.028044701E0
1.590825043E1,3.056174517E-1,-9.750614166E0,1.001246691E0
1.592851855E1,3.622816503E-1,-9.749279976E0,9.953279495E-1
1.594878668E1,4.987562597E-1,-9.749403954E0,9.331358075E-1
1.596905475E1,6.282321811E-1,-9.753819466E0,7.992073298E-1
1.598932287E1,6.769739389E-1,-9.759037018E0,6.879720688E-1
1.600959095E1,6.470634937E-1,-9.762349129E0,6.695019603E-1
1.602985907E1,5.136265159E-1,-9.766268730E0,7.256540060E-1
1.605012714E1,3.237256110E-1,-9.767942429E0,8.080229163E-1
1.607039527E1,1.398301423E-1,-9.764024734E0,9.025861621E-1
1.609066340E1,-1.409450825E-2,-9.754712105E0,1.007859111E0
1.611093147E1,-1.119238809E-1,-9.739418983E0,1.140860319E0
1.613119959E1,-1.432261467E-1,-9.712797165E0,1.345898986E0
1.615146772E1,-1.181269959E-1,-9.653192520E0,1.724038720E0
1.617173579E1,-1.261375546E-1,-9.489402771E0,2.470971823E0
1.619200392E1,-2.008231133E-1,-9.173049927E0,3.461966038E0
1.621227204E1,-2.418840826E-1,-8.800058365E0,4.320975780E0
1.623254011E1,-3.172212541E-1,-8.549181938E0,4.793876648E0
1.625280824E1,-8.016304374E-1,-8.487865448E0,4.846020222E0
1.627307636E1,-1.398133278E0,-8.578647614E0,4.541192055E0
1.629334449E1,-1.934235811E0,-8.771038055E0,3.936749220E0
1.631361256E1,-2.276136398E0,-8.929643631E0,3.354259253E0
1.633388069E1,-2.390524149E0,-9.043182373E0,2.945613146E0
1.635414876E1,-2.288218021E0,-9.138175011E0,2.725468397E0
1.637441689E1,-2.003769636E0,-9.233833313E0,2.625190258E0
1.639468501E1,-1.589177132E0,-9.331897736E0,2.561365604E0
1.641495308E1,-1.147773862E0,-9.431904793E0,2.427378178E0
1.643522121E1,-8.460975289E-1,-9.554076195E0,2.043067932E0
1.645548933E1,-7.039712667E-1,-9.672223091E0,1.457022905E0
1.647575746E1,-5.821577907E-1,-9.744747162E0,9.334845543E-1
1.649602553E1,-4.542931616E-1,-9.777583122E0,6.023703218E-1
1.651629366E1,-4.115905464E-1,-9.785550117E0,4.939426780E-1
1.653656178E1,-5.165108442E-1,-9.777919769E0,5.439479351E-1
1.655682991E1,-7.524781227E-1,-9.756002426E0,6.515873075E-1
1.657709803E1,-1.049686074E0,-9.722926140E0,7.302486300E-1
1.659736610E1,-1.325715184E0,-9.687211037E0,7.555136681E-1
1.661763423E1,-1.518106818E0,-9.659366608E0,7.499220371E-1
1.663790235E1,-1.483153939E0,-9.667515755E0,7.139863968E-1
1.665817048E1,-6.200495362E-1,-9.762117386E0,6.978508830E-1
1.667843860E1,1.091996312E0,-9.695951462E0,9.830845594E-1
1.669870668E1,1.705434561E0,-9.581072807E0,1.210332155E0
1.671897480E1,1.115977049E0,-9.686730385E0,1.045096636E0
1.673924293E1,6.652281284E-1,-9.745359421E0,8.693849444E-1
1.675951105E1,3.900229037E-1,-9.758978844E0,8.835212588E-1
1.677977918E1,2.666698098E-1,-9.741224289E0,1.099007130E0
1.680004730E1,2.768884003E-1,-9.701607704E0,1.404468894E0
1.682031543E1,3.911423385E-1,-9.655773163E0,1.668357968E0
1.684071543E1,5.611749291E-1,-9.632633209E0,1.751524091E0
1.686085162E1,7.290327549E-1,-9.651857376E0,1.574976325E0
1.688111975E1,8.561243415E-1,-9.694345474E0,1.207110167E0
1.690138787E1,8.797037005E-1,-9.735896111E0,7.802799940E-1
1.692165600E1,7.662923336E-1,-9.768588066E0,3.973235190E-1
1.694192412E1,5.047851205E-1,-9.788793564E0,3.083922267E-1
1.696219225E1,1.968547106E-1,-9.791659355E0,5.050268173E-1
1.698246037E1,-5.759313703E-2,-9.776130676E0,7.709375024E-1
1.700272850E1,-2.329268306E-1,-9.750910759E0,1.017775893E0
1.702299662E1,-2.886623144E-1,-9.718363762E0,1.280809402E0
1.704339662E1,-1.887937337E-1,-9.662713051E0,1.663345337E0
1.706353287E1,2.764264308E-2,-9.537030220E0,2.283567667E0
1.708380100E1,1.849315464E-1,-9.293434143E0,3.125424862E0
1.710406912E1,1.951851398E-1,-8.982127190E0,3.931118011E0
1.712433725E1,1.026566625E-1,-8.713425636E0,4.498450756E0
1.714473725E1,-1.660854071E-1,-8.656501770E0,4.605189323E0
1.716487350E1,-4.627135992E-1,-8.760862350E0,4.382187366E0
1.718514162E1,-6.368855834E-1,-8.881668091E0,4.108617783E0
1.720540975E1,-6.608889103E-1,-8.989694595E0,3.862512112E0
1.722567787E1,-5.488192439E-1,-9.074393272E0,3.677576303E0
1.724607787E1,-3.516819477E-1,-9.138732910E0,3.539811134E0
1.726621412E1,-1.246083081E-1,-9.199545860E0,3.394587040E0
1.728647438E1,9.953010827E-2,-9.293052673E0,3.130438566E0
1.730667340E1,2.533849180E-1,-9.457279205E0,2.581871033E0
1.732701970E1,2.550129294E-1,-9.631515503E0,1.827368736E0
1.734728761E1,2.333594412E-1,-9.736723900E0,1.145486832E0
1.736755553E1,2.417998612E-1,-9.780716896E0,6.704368591E-1
1.738782350E1,2.559749484E-1,-9.792860031E0,4.525216818E-1
1.740809152E1,2.594648600E-1,-9.793937683E0,4.264429212E-1
1.742835954E1,2.381158769E-1,-9.791988373E0,4.802531600E-1
1.744862761E1,1.887877136E-1,-9.792013168E0,5.012215376E-1
1.746889564E1,1.373593062E-1,-9.793970108E0,4.792589843E-1
1.748916371E1,8.452197909E-2,-9.794687271E0,4.768010676E-1
1.750943178E1,8.976510167E-2,-9.790661812E0,5.525298119E-1
1.752969991E1,2.596881688E-1,-9.776511192E0,7.230206728E-1
1.754996793E1,9.282804728E-1,-9.702564240E0,1.081168294E0
1.757023610E1,1.797808766E0,-9.542964935E0,1.367510319E0
1.759050423E1,1.636303425E0,-9.583520889E0,1.284147978E0
1.761077235E1,1.368401289E0,-9.658993721E0,1.000854850E0
1.763104048E1,1.193090320E0,-9.698500633E0,8.282575607E-1
1.765130860E1,1.045096636E0,-9.708576202E0,9.064865708E-1
1.767157673E1,9.374172688E-1,-9.689366341E0,1.186516285E0
1.769184480E1,8.899281621E-1,-9.644369125E0,1.537712932E0
1.771211293E1,9.643265605E-1,-9.587650299E0,1.821383119E0
1.773238110E1,1.161450148E0,-9.543198586E0,1.936177850E0
1.775264923E1,1.401105046E0,-9.533463478E0,1.822189808E0
1.777291735E1,1.565983176E0,-9.558764458E0,1.532351255E0
1.779318548E1,1.569286823E0,-9.607283592E0,1.186523676E0
1.781345360E1,1.424028993E0,-9.661716461E0,8.909313679E-1
1.783372178E1,1.180259347E0,-9.701582909E0,8.103443384E-1
1.785398991E1,8.813782930E-1,-9.723530769E0,9.200671315E-1
1.787425803E1,5.659406781E-1,-9.729028702E0,1.093671560E0
1.789452616E1,2.849266827E-1,-9.721940994E0,1.254218936E0
1.791479428E1,9.706275910E-2,-9.701059341E0,1.431933403E0
1.793506241E1,6.198308896E-3,-9.661318779E0,1.682039142E0
1.795533058E1,-2.097300999E-2,-9.589518547E0,2.052092314E0
1.797559871E1,-6.106660888E-2,-9.461788177E0,2.577059746E0
1.799586683E1,-1.436353177E-1,-9.272487640E0,3.189157724E0
1.801613496E1,-2.043151557E-1,-9.077574730E0,3.704899549E0
1.803640314E1,-3.407191932E-1,-8.965944290E0,3.958048344E0
1.805667126E1,-5.275965333E-1,-8.950842857E0,3.971706152E0
1.807693939E1,-6.256195307E-1,-9.004635811E0,3.833472967E0
1.809720751E1,-6.822967529E-1,-9.079861641E0,3.641559839E0
1.811747569E1,-6.664731503E-1,-9.146374702E0,3.474195480E0
1.813774381E1,-5.666842461E-1,-9.201345444E0,3.344322443E0
1.815801194E1,-3.718538284E-1,-9.260244370E0,3.206243038E0
1.817828006E1,-1.330862045E-1,-9.349438667E0,2.956459284E0
1.819854824E1,3.850631043E-2,-9.479446411E0,2.511770964E0
1.821881636E1,1.154367328E-1,-9.607113838E0,1.964797020E0
1.823908449E1,2.140418738E-1,-9.693922997E0,1.467117548E0
1.825935261E1,3.564887345E-1,-9.740076065E0,1.083620310E0
1.827962079E1,5.059780478E-1,-9.760026932E0,8.100961447E-1
1.829988892E1,6.205502748E-1,-9.767248154E0,6.214138269E-1
1.832015704E1,6.541752815E-1,-9.773056030E0,4.793976545E-1
1.834042522E1,5.694385171E-1,-9.784062386E0,3.438999355E-1
1.836069334E1,4.090439379E-1,-9.795415878E0,2.299583852E-1
1.838096147E1,3.053106964E-1,-9.800844193E0,1.435929537E-1
1.840122959E1,2.572300732E-1,-9.803071022E0,6.350427866E-2
1.842149777E1,1.839705259E-1,-9.804711342E0,6.462665647E-2
1.844176590E1,1.925913244E-1,-9.802592278E0,2.061470449E-1
1.846203402E1,4.043720067E-1,-9.789458275E0,4.163862169E-1
1.848230215E1,8.634337187E-1,-9.745332718E0,6.733195782E-1
1.850257032E1,1.374709487E0,-9.667968750E0,9.005213380E-1
1.852283845E1,1.425953269E0,-9.654849052E0,9.596550465E-1
1.854323845E1,1.559021831E0,-9.641935349E0,8.791611195E-1
1.856337470E1,1.729272366E0,-9.618865967E0,8.108191490E-1
1.858364287E1,1.833941936E0,-9.597126961E0,8.379717469E-1
1.860391100E1,1.849389434E0,-9.585537910E0,9.314507842E-1
1.862417912E1,1.755462885E0,-9.598528862E0,9.782576561E-1
1.864457912E1,1.567417026E0,-9.633856773E0,9.499418139E-1
1.866471543E1,1.356252193E0,-9.670076370E0,9.058547616E-1
1.868498355E1,1.187600255E0,-9.695868492E0,8.661060929E-1
1.870525168E1,1.128629446E0,-9.708203316E0,8.045947552E-1
1.872551980E1,1.179113269E0,-9.709433556E0,7.120224237E-1
1.874591980E1,1.219509721E0,-9.710378647E0,6.258834004E-1
1.876605610E1,1.203707576E0,-9.714966774E0,5.838516355E-1
1.878632418E1,1.122790337E0,-9.722541809E0,6.179820895E-1
1.880659235E1,9.688956141E-1,-9.731212616E0,7.315359712E-1
1.882686048E1,7.362096906E-1,-9.737556458E0,8.990899324E-1
1.884726048E1,4.718630016E-1,-9.731533051E0,1.115799785E0
1.886739678E1,2.809635401E-1,-9.703270912E0,1.392112732E0
1.888766491E1,2.077490836E-1,-9.645306587E0,1.759347558E0
1.890793303E1,2.260690331E-1,-9.547752380E0,2.227042913E0
1.892820116E1,2.806989551E-1,-9.386712074E0,2.825104713E0
1.894846928E1,3.443189859E-1,-9.165156364E0,3.471562862E0
1.896873746E1,4.013310373E-1,-8.945175171E0,3.999145508E0
1.898900558E1,2.286813408E-1,-8.893358231E0,4.126291275E0
1.900927371E1,-1.527733058E-1,-9.023493767E0,3.837134600E0
1.902954183E1,-5.790610909E-1,-9.175827980E0,3.411634922E0
1.904980996E1,-9.593465328E-1,-9.279441833E0,3.023573160E0
1.907007808E1,-1.200734019E0,-9.328947067E0,2.774774790E0
1.909034621E1,-1.223985195E0,-9.357458115E0,2.666501522E0
1.911061433E1,-1.001911044E0,-9.392861366E0,2.634524584E0
1.913088246E1,-5.940027833E-1,-9.436681747E0,2.601266146E0
1.915115064E1,-9.027417749E-2,-9.482639313E0,2.498355389E0
1.917141876E1,3.737280071E-1,-9.527614594E0,2.292440414E0
1.919168689E1,6.513239741E-1,-9.580772400E0,1.988704085E0
1.921195501E1,7.735550404E-1,-9.636385918E0,1.646833539E0
1.923222314E1,8.663851619E-1,-9.678520203E0,1.321365952E0
1.925249126E1,9.318091869E-1,-9.708047867E0,1.027580500E0
1.927275938E1,9.389545918E-1,-9.729215622E0,7.944286466E-1
1.929302751E1,8.763266206E-1,-9.746256828E0,6.425897479E-1
1.931329564E1,7.670407891E-1,-9.759934425E0,5.707000494E-1
1.933356376E1,6.593526006E-1,-9.769257545E0,5.452054143E-1
1.935383188E1,5.440102816E-1,-9.778720856E0,5.010626912E-1
1.937410001E1,4.362761974E-1,-9.788233757E0,4.129632711E-1
1.939436814E1,4.392975271E-1,-9.792124748E0,3.028217554E-1
1.941463626E1,6.697455645E-1,-9.780141830E0,2.658029199E-1
1.943490439E1,9.260591269E-1,-9.754703522E0,3.982101977E-1
1.945517251E1,8.948359489E-1,-9.731217384E0,8.204036951E-1
1.947544064E1,9.979074001E-1,-9.665431976E0,1.324378014E0
1.949570876E1,1.297556877E0,-9.618321419E0,1.405210853E0
1.951597688E1,1.611480355E0,-9.598342896E0,1.202217340E0
1.953624501E1,1.803264976E0,-9.582872391E0,1.042679071E0
1.955664501E1,1.893491149E0,-9.567090988E0,1.027543545E0
1.957678126E1,1.888838768E0,-9.562463760E0,1.077951670E0
1.959704939E1,1.790433764E0,-9.580565453E0,1.085123301E0
1.961731746E1,1.628196478E0,-9.620852470E0,9.790652394E-1
1.963758558E1,1.437085867E0,-9.674116135E0,7.187867165E-1
1.965785371E1,1.270356059E0,-9.717909813E0,3.446865082E-1
1.967812183E1,1.168362975E0,-9.736609459E0,6.115468219E-2
1.969838996E1,1.100832462E0,-9.744599342E0,3.684668243E-2
1.971865808E1,9.801869392E-1,-9.753806114E0,2.699794173E-1
1.973892616E1,7.852903605E-1,-9.754662514E0,6.326571703E-1
1.975919428E1,5.818670392E-1,-9.747518539E0,9.042689800E-1
1.977946241E1,4.093781710E-1,-9.740290642E0,1.062797070E0
1.979973053E1,3.135355115E-1,-9.731456757E0,1.170825481E0
1.981999860E1,3.306674957E-1,-9.715827942E0,1.289861441E0
1.984039860E1,4.494139552E-1,-9.687151909E0,1.458595276E0
1.986053485E1,6.279360056E-1,-9.631621361E0,1.734345555E0
1.988080298E1,7.544856668E-1,-9.482443810E0,2.384198427E0
1.990107105E1,7.324463725E-1,-9.216968536E0,3.268240452E0
1.992133918E1,6.254407763E-1,-8.942703247E0,3.975836277E0
1.994160730E1,6.392982602E-1,-8.914006233E0,4.037595749E0
1.996187543E1,4.435997009E-1,-9.040044785E0,3.775077581E0
1.998214350E1,2.340888381E-1,-9.148121834E0,3.525260448E0
2.000241162E1,1.221525669E-1,-9.227672577E0,3.317459583E0
2.002267975E1,9.491999447E-2,-9.290722847E0,3.137490749E0
2.004307975E1,1.469601393E-1,-9.347886086E0,2.960713148E0
2.006321595E1,2.814429700E-1,-9.410208702E0,2.745751143E0
2.008348397E1,4.795527458E-1,-9.489383698E0,2.427345991E0
2.010375214E1,6.729519963E-1,-9.591704369E0,1.927883625E0
2.012402027E1,7.815928459E-1,-9.694508553E0,1.255384684E0
2.014442027E1,8.851428628E-1,-9.744935036E0,6.505100131E-1
2.016455647E1,1.023335218E0,-9.748081207E0,3.131961823E-1
2.018482454E1,1.180439711E0,-9.731561661E0,2.714121938E-1
2.020509267E1,1.372421265E0,-9.699331284E0,4.580640197E-1
2.022536074E1,1.619969726E0,-9.644400597E0,7.291278839E-1
2.024576074E1,1.857025743E0,-9.578550339E0,9.865167141E-1
2.026589694E1,1.987023354E0,-9.525623322E0,1.218447089E0
2.028616506E1,1.976601481E0,-9.503753662E0,1.393594980E0
2.030643314E1,1.825224519E0,-9.522001266E0,1.473238111E0
2.032670126E1,1.630399227E0,-9.562089920E0,1.441737652E0
2.034696933E1,1.740777016E0,-9.549830437E0,1.393134475E0
2.036723741E1,1.898322821E0,-9.512825012E0,1.439763904E0
2.038750553E1,1.966644049E0,-9.480463982E0,1.556762815E0
2.040777366E1,2.055418015E0,-9.438996315E0,1.688493490E0
2.042804173E1,2.198847532E0,-9.394997597E0,1.751992226E0
2.044830985E1,2.398059368E0,-9.358925819E0,1.682315946E0
2.046857793E1,2.608625889E0,-9.343856812E0,1.434499264E0
2.048884600E1,2.756116152E0,-9.354646683E0,1.031888962E0
2.050911412E1,2.800534487E0,-9.381908417E0,5.542300940E-1
2.052938220E1,2.750455379E0,-9.412676811E0,8.310614526E-2
2.054965032E1,2.658708572E0,-9.433663368E0,-3.280953467E-1
2.056991840E1,2.589298248E0,-9.436382294E0,-6.485486031E-1
2.059018647E1,2.560245514E0,-9.427768707E0,-8.559992313E-1
2.061045459E1,2.546753407E0,-9.422383308E0,-9.503260851E-1
2.063072267E1,2.530520916E0,-9.427201271E0,-9.458904266E-1
2.065099079E1,2.502008915E0,-9.441997528E0,-8.712217212E-1
2.067125886E1,2.465489149E0,-9.464654922E0,-7.155799270E-1
2.069152694E1,2.361723423E0,-9.506252289E0,-4.730974734E-1
2.071179506E1,2.281325579E0,-9.535567284E0,-1.972227842E-1
2.073206314E1,2.323588848E0,-9.527033806E0,8.338328451E-2
2.075233121E1,2.434824228E0,-9.490519524E0,4.147803485E-1
2.077259928E1,2.513573647E0,-9.440031052E0,8.591573238E-1
2.079286741E1,2.472478628E0,-9.384823799E0,1.407944560E0
2.081313548E1,2.283793449E0,-9.331595421E0,1.968755841E0
2.083340360E1,2.004606247E0,-9.284468651E0,2.439380169E0
2.085367162E1,1.681735873E0,-9.252414703E0,2.781179905E0
2.087393970E1,1.410794020E0,-9.238294601E0,2.972196579E0
2.089420782E1,1.293051958E0,-9.240212440E0,3.019417524E0
2.091447590E1,1.310703754E0,-9.258750916E0,2.954314947E0
2.093474397E1,1.282782912E0,-9.318832397E0,2.772044659E0
2.095501204E1,1.104675889E0,-9.392535210E0,2.594292879E0
2.097528011E1,7.961288095E-1,-9.468870163E0,2.424263954E0
2.099554819E1,4.677864015E-1,-9.535611153E0,2.241356850E0
2.101581626E1,2.939790785E-1,-9.578107834E0,2.084178209E0
2.103608433E1,2.851092517E-1,-9.600316048E0,1.980661035E0
2.105635241E1,4.101481140E-1,-9.605464935E0,1.933184624E0
2.107662048E1,6.082615852E-1,-9.598042488E0,1.917809010E0
2.109688855E1,8.044937253E-1,-9.581242561E0,1.929496765E0
2.111715662E1,9.331655502E-1,-9.578183174E0,1.886267066E0
2.113742470E1,1.060325384E0,-9.602139473E0,1.686717391E0
2.115769277E1,1.209392786E0,-9.625885010E0,1.431810260E0
2.117796084E1,1.357878089E0,-9.628787041E0,1.270044446E0
2.119822892E1,1.506395936E0,-9.603049278E0,1.297153115E0
2.121849699E1,1.604929209E0,-9.574188232E0,1.389068723E0
2.123876506E1,1.621229291E0,-9.556142807E0,1.490686893E0
2.125903308E1,1.637833714E0,-9.533468246E0,1.612718463E0
2.127930116E1,1.715415120E0,-9.508126259E0,1.680260301E0
2.129956918E1,1.810180068E0,-9.490053177E0,1.683014631E0
2.131983730E1,1.847306609E0,-9.492106438E0,1.630259514E0
2.134010532E1,1.873425484E0,-9.502086639E0,1.539809704E0
2.136037345E1,1.904431939E0,-9.508123398E0,1.462569475E0
2.138064147E1,1.958682418E0,-9.501650810E0,1.432683587E0
2.140090954E1,2.045453072E0,-9.482771873E0,1.436509013E0
2.142117761E1,2.133968353E0,-9.458624840E0,1.466623545E0
2.144144569E1,2.190633297E0,-9.435526848E0,1.530467987E0
2.146171371E1,2.221955776E0,-9.411474228E0,1.630164385E0
2.148198178E1,2.215683699E0,-9.393421173E0,1.739192247E0
2.150224985E1,2.134843826E0,-9.399305344E0,1.807179451E0
2.152251793E1,2.021643639E0,-9.432648659E0,1.763087273E0
2.154291793E1,1.970219493E0,-9.476933479E0,1.573646665E0
2.156305402E1,1.975939751E0,-9.518357277E0,1.291101217E0
2.158332204E1,2.010851622E0,-9.546015739E0,1.000221252E0
2.160359017E1,2.066086292E0,-9.555052757E0,7.763041258E-1
2.162385819E1,2.148117065E0,-9.546716690E0,6.451363564E-1
2.164425819E1,2.249473095E0,-9.527858734E0,5.746167302E-1
2.166439433E1,2.345203400E0,-9.508567810E0,5.074911714E-1
2.168466235E1,2.406475306E0,-9.498455048E0,3.982811272E-1
2.170493043E1,2.406839371E0,-9.503721237E0,2.383167148E-1
2.172519850E1,2.357202768E0,-9.518926620E0,6.335223466E-2
2.174559850E1,2.289004564E0,-9.535433769E0,-7.956501096E-2
2.176573459E1,2.219027758E0,-9.550930023E0,-1.613646001E-1
2.178600267E1,2.150498867E0,-9.566130638E0,-1.867481023E-1
2.180627069E1,2.084863186E0,-9.581098557E0,-1.621490270E-1
2.182653876E1,2.017724276E0,-9.596571922E0,-7.070307434E-2
2.184693876E1,1.966122508E0,-9.606973648E0,1.038779616E-1
2.186707485E1,1.966592669E0,-9.601602554E0,3.348832130E-1
2.188734287E1,1.967391133E0,-9.589669228E0,5.813931227E-1
2.190761095E1,1.930285215E0,-9.576566696E0,8.566003442E-1
2.192787897E1,1.865876555E0,-9.548400879E0,1.231642008E0
2.194814704E1,1.768471599E0,-9.493647575E0,1.706909299E0
2.196841506E1,1.630954266E0,-9.413590431E0,2.212393522E0
2.198868314E1,1.444397330E0,-9.326526642E0,2.664582491E0
2.200895116E1,1.230165005E0,-9.259085655E0,2.987709522E0
2.202921923E1,1.090324283E0,-9.226693153E0,3.138427019E0
2.204948725E1,1.125548244E0,-9.225233078E0,3.130271912E0
2.206975527E1,1.255649328E0,-9.238546371E0,3.040228128E0
2.209002334E1,1.324344039E0,-9.258394241E0,2.949343443E0
2.211029136E1,1.226721287E0,-9.288620949E0,2.896039248E0
2.213055944E1,9.834501147E-1,-9.320473671E0,2.886518955E0
2.215082751E1,7.403496504E-1,-9.339515686E0,2.897536278E0
2.217109553E1,6.569083333E-1,-9.345967293E0,2.896849394E0
2.219136355E1,7.301310301E-1,-9.351277351E0,2.861977577E0
2.221163162E1,8.622986674E-1,-9.355753899E0,2.810102940E0
2.223189965E1,9.081905484E-1,-9.377234459E0,2.722691774E0
2.225216772E1,8.643820882E-1,-9.424850464E0,2.568154097E0
2.227243574E1,9.237930179E-1,-9.476326942E0,2.348661661E0
2.229270376E1,1.028978825E0,-9.526911736E0,2.085555315E0
2.231297183E1,1.143549681E0,-9.564974785E0,1.836828351E0
2.233323985E1,1.279159904E0,-9.578079224E0,1.671685815E0
2.235350787E1,1.422360778E0,-9.560214996E0,1.658183455E0
2.237377595E1,1.536810398E0,-9.513127327E0,1.819064856E0
2.239404397E1,1.484848380E0,-9.496769905E0,1.943445683E0
2.241431204E1,1.272767901E0,-9.528983116E0,1.936211586E0
2.243458006E1,1.052973628E0,-9.578683853E0,1.819464803E0
2.245484814E1,9.379556179E-1,-9.623922348E0,1.634239912E0
2.247511616E1,1.007477760E0,-9.642040253E0,1.478659272E0
2.249538423E1,1.202146411E0,-9.623601913E0,1.453105211E0
2.251565225E1,1.248860002E0,-9.597186089E0,1.582641482E0
2.253592032E1,1.215324759E0,-9.587551117E0,1.665005565E0
2.255618834E1,1.320352554E0,-9.593797684E0,1.544702291E0
2.257645636E1,1.498259544E0,-9.598420143E0,1.340127110E0
2.259672444E1,1.677932501E0,-9.590326309E0,1.174981952E0
2.261699246E1,1.826822639E0,-9.573285103E0,1.088723898E0
2.263726053E1,1.933103323E0,-9.549654007E0,1.112480640E0
2.265752855E1,1.979364157E0,-9.522966385E0,1.251247764E0
2.267779657E1,1.935599327E0,-9.504738808E0,1.443531275E0
2.269806465E1,1.818478227E0,-9.510463715E0,1.553900003E0
2.271833272E1,1.686431408E0,-9.556315422E0,1.415342927E0
2.273860074E1,1.604044080E0,-9.618723869E0,1.038071156E0
2.275886876E1,1.562779665E0,-9.662473679E0,6.038998365E-1
2.277913683E1,1.543771148E0,-9.680787086E0,2.636659145E-1
2.279940485E1,1.557768703E0,-9.681651115E0,9.686719626E-2
2.281967293E1,1.627997637E0,-9.670316696E0,7.066099346E-2
2.284007293E1,1.718175650E0,-9.654655457E0,7.671451569E-2
2.286020902E1,1.774661660E0,-9.644495964E0,6.823567301E-2
2.288047699E1,1.801615000E0,-9.639410973E0,7.947710156E-2
2.290074511E1,1.803632736E0,-9.638531685E0,1.265155524E-1
2.292101314E1,1.784959793E0,-9.640672684E0,2.042918801E-1
2.294128116E1,1.752225876E0,-9.643994331E0,3.057141602E-1
2.296154923E1,1.713807344E0,-9.646725655E0,4.170684218E-1
2.298181725E1,1.682623982E0,-9.647492409E0,5.148132443E-1
2.300208532E1,1.671677828E0,-9.645652771E0,5.807345510E-1
2.302235334E1,1.685037494E0,-9.641464233E0,6.108971238E-1
2.304275334E1,1.719089985E0,-9.635167122E0,6.153733730E-1
2.306288944E1,1.768932700E0,-9.626329422E0,6.124293208E-1
2.308315751E1,1.831352472E0,-9.615010262E0,6.067281961E-1
2.310342558E1,1.893732071E0,-9.603876114E0,5.913791060E-1
2.312369360E1,1.938977957E0,-9.594861031E0,5.910953283E-1
2.314409360E1,1.955092788E0,-9.587474823E0,6.544665098E-1
2.316422970E1,1.937737226E0,-9.580098152E0,7.982950211E-1
2.318449777E1,1.886903524E0,-9.568118095E0,1.030104160E0
2.320476579E1,1.801441312E0,-9.543050766E0,1.362123609E0
2.322503386E1,1.676025748E0,-9.487633705E0,1.829239130E0
2.324543386E1,1.475831032E0,-9.363337517E0,2.514006138E0
2.326556996E1,1.223836303E0,-9.147215843E0,3.316785097E0
2.328583798E1,9.843591452E-1,-8.886382103E0,4.029099464E0
2.330610605E1,9.302993417E-1,-8.678150177E0,4.471537590E0
2.332637412E1,1.034265757E0,-8.600441933E0,4.597072601E0
2.334664214E1,1.025816202E0,-8.648213387E0,4.508492947E0
2.336691022E1,8.876678348E-1,-8.781900406E0,4.273248672E0
2.338717824E1,7.501367331E-1,-8.935877800E0,3.969604731E0
2.340744631E1,6.913824081E-1,-9.065118790E0,3.676412821E0
2.342771433E1,7.078866959E-1,-9.157191277E0,3.437314272E0
2.344798241E1,7.486777902E-1,-9.224824905E0,3.242295265E0
2.346825048E1,8.207524419E-1,-9.292613029E0,3.023920059E0
2.348851850E1,9.383760691E-1,-9.389401436E0,2.670013666E0
2.350878657E1,1.057700872E0,-9.513395309E0,2.132361889E0
2.352905459E1,1.159532547E0,-9.612760544E0,1.555858374E0
2.354932267E1,1.282845616E0,-9.661988258E0,1.081976414E0
2.356959074E1,1.414444923E0,-9.672796249E0,7.789273262E-1
2.358985876E1,1.519930363E0,-9.666273117E0,6.506663561E-1
2.361012683E1,1.576442957E0,-9.658115387E0,6.372076273E-1
2.363039485E1,1.556045651E0,-9.660256386E0,6.546469331E-1
2.365066293E1,1.438244224E0,-9.678408623E0,6.559368372E-1
2.367093100E1,1.250352740E0,-9.705591202E0,6.391449571E-1
2.369119902E1,1.069226027E0,-9.728510857E0,6.190338731E-1
2.371146709E1,1.006272793E0,-9.733530998E0,6.451336741E-1
2.373173517E1,1.176901102E0,-9.696046829E0,8.786226511E-1
2.375200319E1,1.472350359E0,-9.614775658E0,1.248457551E0
2.377227126E1,1.759729624E0,-9.530051231E0,1.500617981E0
2.379253933E1,1.913294792E0,-9.513554573E0,1.414907694E0
2.381280741E1,2.044528961E0,-9.515230179E0,1.204439282E0
2.383320741E1,2.124919176E0,-9.504495621E0,1.148773551E0
2.385334350E1,2.128381729E0,-9.476554871E0,1.354720950E0
2.387361157E1,2.069969893E0,-9.433138847E0,1.703376293E0
2.389387965E1,1.954901814E0,-9.393088341E0,2.029443502E0
2.391414767E1,1.813914418E0,-9.375249863E0,2.232666969E0
2.393441574E1,1.674471617E0,-9.394564629E0,2.260241985E0
2.395468381E1,1.560318470E0,-9.454966545E0,2.083124161E0
2.397495189E1,1.504166961E0,-9.533463478E0,1.738083959E0
2.399521991E1,1.491481900E0,-9.603200912E0,1.313158631E0
2.401548798E1,1.483373523E0,-9.652467728E0,8.943377733E-1
2.403575605E1,1.479505539E0,-9.677200317E0,5.772621632E-1
2.405602412E1,1.521323919E0,-9.666811943E0,6.392922997E-1
2.407629220E1,1.581116915E0,-9.638183594E0,8.808456659E-1
2.409656022E1,1.626911521E0,-9.611892700E0,1.065390825E0
2.411682829E1,1.710502744E0,-9.592435837E0,1.108943343E0
2.413709636E1,1.789699912E0,-9.580234528E0,1.089252710E0
2.415736444E1,1.831182241E0,-9.569951057E0,1.110496759E0
2.417763251E1,1.813664675E0,-9.557479858E0,1.239185929E0
2.419790053E1,1.723211288E0,-9.533122063E0,1.523328304E0
2.421816860E1,1.567780495E0,-9.465318680E0,2.029824018E0
2.423843668E1,1.423452854E0,-9.307734489E0,2.740482330E0
2.425870475E1,1.350258112E0,-9.027176857E0,3.585702181E0
2.427897282E1,1.334995389E0,-8.663857460E0,4.396108150E0
2.429924084E1,1.321125388E0,-8.486954689E0,4.732506752E0
2.431950892E1,1.210388184E0,-8.534253120E0,4.676736355E0
2.433977699E1,1.144884229E0,-8.637568474E0,4.500225067E0
2.436004506E1,1.105741739E0,-8.749461174E0,4.288900375E0
2.438031314E1,1.072905540E0,-8.846377373E0,4.094002724E0
2.440058121E1,1.067221284E0,-8.917223930E0,3.938852072E0
2.442084923E1,1.078646064E0,-8.968368530E0,3.817757845E0
2.444111735E1,1.096675396E0,-9.025712967E0,3.674805880E0
2.446138543E1,1.104862213E0,-9.130225182E0,3.404209852E0
2.448165350E1,1.104758143E0,-9.286447525E0,2.951573849E0
2.450192157E1,1.145334959E0,-9.439175606E0,2.400114298E0
2.452218964E1,1.235758543E0,-9.549169540E0,1.859203577E0
2.454258959E1,1.345988274E0,-9.612757683E0,1.397712111E0
2.456272574E1,1.449507713E0,-9.642596245E0,1.043862700E0
2.458299381E1,1.539332628E0,-9.651678085E0,8.037154675E-1
2.460326183E1,1.607034564E0,-9.650026321E0,6.817721725E-1
2.462352991E1,1.630844831E0,-9.650608063E0,6.135877967E-1
2.464392996E1,1.583250165E0,-9.664183617E0,5.169748068E-1
2.466406610E1,1.458444118E0,-9.691349983E0,3.479359746E-1
2.468433418E1,1.301069140E0,-9.719178200E0,1.232210025E-1
2.470460220E1,1.237504125E0,-9.728236198E0,1.972820237E-2
2.472487027E1,1.309775114E0,-9.716633797E0,2.047401071E-1
2.474527027E1,1.313326716E0,-9.705470085E0,4.994245172E-1
2.476540642E1,1.201590180E0,-9.701519966E0,7.791634202E-1
2.478567449E1,1.195127487E0,-9.681571007E0,1.004610896E0
2.480594256E1,1.472324491E0,-9.632444382E0,1.103932142E0
2.482621058E1,1.687658668E0,-9.607202530E0,1.011852145E0
2.484661058E1,1.757506132E0,-9.609340668E0,8.614652157E-1
2.486674678E1,1.879179001E0,-9.593819618E0,7.731075883E-1
2.488701480E1,2.014072657E0,-9.562459946E0,8.205282092E-1
2.490728287E1,2.125082254E0,-9.523430824E0,9.791138768E-1
2.492755095E1,2.187462568E0,-9.487635612E0,1.170538187E0
2.494781902E1,2.200068712E0,-9.463588715E0,1.330633044E0
2.496808709E1,2.191888809E0,-9.455580711E0,1.399289012E0
2.498835511E1,2.207689524E0,-9.464322090E0,1.312667131E0
2.500862324E1,2.270514965E0,-9.478775978E0,1.080718040E0
2.502889126E1,2.299214602E0,-9.500212669E0,7.936981916E-1
2.504915933E1,2.275960207E0,-9.524376869E0,5.259655714E-1
2.506942741E1,2.226760864E0,-9.543245316E0,3.720437884E-1
2.508969548E1,2.207389832E0,-9.546206474E0,4.095862806E-1
2.510996355E1,2.204169989E0,-9.541791916E0,5.159670115E-1
2.513023157E1,2.165516138E0,-9.542983055E0,6.421831250E-1
2.515049970E1,2.057593346E0,-9.555658340E0,7.912555933E-1
2.517076772E1,1.952115774E0,-9.556085587E0,1.020222902E0
2.519103579E1,1.907737374E0,-9.522727966E0,1.359622121E0
2.521130386E1,1.859095216E0,-9.453990936E0,1.826526046E0
2.523157194E1,1.719095349E0,-9.328846931E0,2.487512112E0
2.525184001E1,1.532787919E0,-9.139713287E0,3.207269907E0
2.527210803E1,1.297787309E0,-8.946935654E0,3.799800873E0
2.529237610E1,1.086311340E0,-8.872632027E0,4.033200741E0
2.531264418E1,9.956321716E-1,-8.902655602E0,3.990216732E0
2.533291225E1,9.513818622E-1,-8.979874611E0,3.824541330E0
2.535318032E1,9.205647111E-1,-9.046601295E0,3.671778917E0
2.537344840E1,9.311811328E-1,-9.085147858E0,3.572587490E0
2.539371642E1,9.853404760E-1,-9.103325844E0,3.511261463E0
2.541398449E1,1.053964853E0,-9.130741119E0,3.418931484E0
2.543425256E1,1.099580884E0,-9.201941490E0,3.207113504E0
2.545452064E1,1.155275702E0,-9.318490028E0,2.828689575E0
2.547478871E1,1.255439043E0,-9.448416710E0,2.306875467E0
2.549505678E1,1.373515248E0,-9.553974152E0,1.733617663E0
2.551532480E1,1.492488146E0,-9.614269257E0,1.228280663E0
2.553559287E1,1.606233597E0,-9.635774612E0,8.615481853E-1
2.555586095E1,1.701458216E0,-9.636269569E0,6.463283300E-1
2.557612902E1,1.765858412E0,-9.630217552E0,5.577116013E-1
2.559639709E1,1.785045266E0,-9.628662109E0,5.223785043E-1
2.561666517E1,1.751624584E0,-9.637418747E0,4.715496004E-1
2.563693319E1,1.698499680E0,-9.651382446E0,3.691813946E-1
2.565720126E1,1.639864802E0,-9.666106224E0,2.181999534E-1
2.567746933E1,1.582052469E0,-9.676899910E0,1.584434211E-1
2.569773735E1,1.559961319E0,-9.675854683E0,3.387208879E-1
2.571800543E1,1.509445548E0,-9.670598030E0,6.095156074E-1
2.573827350E1,1.392014265E0,-9.668018341E0,8.729894757E-1
2.575854152E1,1.226948500E0,-9.666255951E0,1.108368278E0
2.577880959E1,1.186871290E0,-9.653564453E0,1.253163338E0
2.579907767E1,1.449938297E0,-9.608743668E0,1.319140434E0
2.581934574E1,1.734303832E0,-9.560923576E0,1.323377967E0
2.583974574E1,1.985118508E0,-9.519344330E0,1.269556046E0
2.585988183E1,2.181638479E0,-9.486498833E0,1.190461874E0
2.588014985E1,2.340543509E0,-9.456634521E0,1.124413729E0
2.590041793E1,2.454691172E0,-9.433952332E0,1.070246696E0
2.592068600E1,2.513000965E0,-9.427265167E0,9.909011722E-1
2.594095402E1,2.523691893E0,-9.436920166E0,8.636531234E-1
2.596122209E1,2.527655363E0,-9.450371742E0,6.868950129E-1
2.598149017E1,2.536413908E0,-9.460788727E0,4.800765216E-1
2.600175819E1,2.485760927E0,-9.481850624E0,2.930532992E-1
2.602202626E1,2.415014744E0,-9.500951767E0,2.645802796E-1
2.604242626E1,2.381814241E0,-9.505069733E0,3.885631561E-1
2.606256235E1,2.403944254E0,-9.494719505E0,4.916719496E-1
2.608283037E1,2.446247578E0,-9.479377747E0,5.724121928E-1
2.610309845E1,2.450702190E0,-9.471431732E0,6.755891442E-1
2.612336652E1,2.396801710E0,-9.474267006E0,8.148574233E-1
2.614376652E1,2.341784000E0,-9.474151611E0,9.627409577E-1
2.616390256E1,2.335644245E0,-9.461522102E0,1.093050480E0
2.618417064E1,2.339811802E0,-9.444322586E0,1.224926233E0
2.620443871E1,2.323874712E0,-9.419379234E0,1.430133581E0
2.622470673E1,2.254515171E0,-9.360316277E0,1.863334537E0
2.624510673E1,2.152902603E0,-9.226085663E0,2.532735825E0
2.626524282E1,2.058572769E0,-9.024373055E0,3.239344835E0
2.628551090E1,1.799974084E0,-8.842473030E0,3.839422226E0
2.630577892E1,1.464645505E0,-8.780352592E0,4.114681244E0
2.632604699E1,1.257884145E0,-8.845586777E0,4.042734623E0
2.634644699E1,1.184054971E0,-8.966926575E0,3.789805174E0
2.636658308E1,1.191917896E0,-9.081182480E0,3.504544020E0
2.638685110E1,1.255313158E0,-9.164716721E0,3.256154776E0
2.640711918E1,1.302355051E0,-9.220405579E0,3.075447321E0
2.642738720E1,1.321832418E0,-9.266448975E0,2.925078154E0
2.644778720E1,1.360509872E0,-9.330002785E0,2.696377993E0
2.646792329E1,1.426901221E0,-9.424448967E0,2.305231810E0
2.648819131E1,1.509516835E0,-9.525885582E0,1.774617076E0
2.650845939E1,1.593233466E0,-9.595485687E0,1.248460174E0
2.652872741E1,1.682763100E0,-9.625277519E0,8.323095441E-1
2.654899543E1,1.769666195E0,-9.629026413E0,5.661376715E-1
2.656926350E1,1.843029141E0,-9.621888161E0,4.391979873E-1
2.658953152E1,1.900776863E0,-9.611766815E0,4.139966369E-1
2.660979954E1,1.925475836E0,-9.606523514E0,4.214550853E-1
2.663006761E1,1.891564488E0,-9.614194870E0,3.995325565E-1
2.665033564E1,1.784067512E0,-9.637545586E0,3.243381083E-1
2.667060366E1,1.647450328E0,-9.664278984E0,2.408216447E-1
2.669087173E1,1.642274737E0,-9.662716866E0,3.244049251E-1
2.671113975E1,1.729246378E0,-9.634699821E0,5.938634276E-1
2.673140777E1,1.677450657E0,-9.613331795E0,9.697365165E-1
2.675167584E1,1.617462635E0,-9.579644203E0,1.335893750E0
2.677194386E1,1.828646302E0,-9.523970604E0,1.456168175E0
2.679221188E1,2.044938564E0,-9.501202583E0,1.309870958E0
2.681247991E1,2.112725496E0,-9.520398140E0,1.033830404E0
2.683274793E1,2.148043871E0,-9.529180527E0,8.666065335E-1
2.685301600E1,2.196548462E0,-9.510546684E0,9.460723400E-1
2.687328402E1,2.275371313E0,-9.466557503E0,1.173608303E0
2.689355204E1,2.359761238E0,-9.415977478E0,1.393298745E0
2.691382006E1,2.441663742E0,-9.378227234E0,1.502502799E0
2.693408808E1,2.549050093E0,-9.358941078E0,1.443244338E0
2.695435616E1,2.682403326E0,-9.358858109E0,1.177654266E0
2.697462418E1,2.727360249E0,-9.387731552E0,7.761491537E-1
2.699489220E1,2.657470226E0,-9.431539536E0,3.928065300E-1
2.701516022E1,2.566062689E0,-9.462028503E0,2.360678911E-1
2.703542824E1,2.482049465E0,-9.479885101E0,3.762938380E-1
2.705569631E1,2.383394003E0,-9.492062569E0,6.249538064E-1
2.707596433E1,2.305604458E0,-9.495367050E0,8.322139978E-1
2.709623235E1,2.277589083E0,-9.489995003E0,9.607093930E-1
2.711650037E1,2.265536547E0,-9.484382629E0,1.041255355E0
2.713676840E1,2.259085417E0,-9.473474503E0,1.149003267E0
2.715703642E1,2.263387918E0,-9.448714256E0,1.330135107E0
2.717730449E1,2.250113726E0,-9.410512924E0,1.596750379E0
2.719757251E1,2.172051668E0,-9.356733322E0,1.975882649E0
2.721784053E1,1.956508279E0,-9.235621452E0,2.654386044E0
2.723810855E1,1.758804321E0,-8.994277000E0,3.489982367E0
2.725837657E1,1.657609582E0,-8.712510109E0,4.185079575E0
2.727864459E1,1.601676941E0,-8.550769806E0,4.526517868E0
2.729891261E1,1.525712848E0,-8.571431160E0,4.513662815E0
2.731931261E1,1.438304305E0,-8.685241699E0,4.320677757E0
2.733944871E1,1.361900091E0,-8.794392586E0,4.119984627E0
2.735971673E1,1.315707326E0,-8.858205795E0,3.996434927E0
2.737998475E1,1.275959730E0,-8.885376930E0,3.948720455E0
2.740025277E1,1.258263469E0,-8.903720856E0,3.912917137E0
2.742052079E1,1.276925087E0,-8.950741768E0,3.797902822E0
2.744078881E1,1.317130685E0,-9.055162430E0,3.526979208E0
2.746105683E1,1.365606189E0,-9.201134682E0,3.105580091E0
2.748132485E1,1.436627269E0,-9.345087051E0,2.603042841E0
2.750159287E1,1.542436481E0,-9.460132599E0,2.072962761E0
2.752186090E1,1.685488343E0,-9.532884598E0,1.566403151E0
2.754224761E1,1.839129210E0,-9.565561295E0,1.134910464E0
2.756239694E1,1.947334051E0,-9.575092316E0,8.341922164E-1
2.758266496E1,1.991255879E0,-9.578916550E0,6.705714464E-1
2.760293298E1,1.969074368E0,-9.585572243E0,6.402754188E-1
2.762320100E1,1.889697552E0,-9.599532127E0,6.696274877E-1
2.764360100E1,1.781554937E0,-9.620420456E0,6.663104296E-1
2.766373704E1,1.656060219E0,-9.648448944E0,5.790418386E-1
2.768400506E1,1.575053930E0,-9.669231415E0,4.422124624E-1
2.770427308E1,1.537661433E0,-9.680856705E0,2.949703038E-1
2.772454116E1,1.477558970E0,-9.691159248E0,2.619645894E-1
2.774494116E1,1.554491520E0,-9.671821594E0,4.580405951E-1
2.776507715E1,1.756803274E0,-9.609093666E0,8.656542897E-1
2.778534517E1,1.965955257E0,-9.540455818E0,1.133620501E0
2.780561319E1,2.216819763E0,-9.498744965E0,1.014864445E0
2.782588116E1,2.438003540E0,-9.461536407E0,8.401558995E-1
2.784628116E1,2.586819410E0,-9.421444893E0,8.456539512E-1
2.786641725E1,2.676476479E0,-9.380709648E0,1.004566431E0
2.788668527E1,2.695156813E0,-9.355837822E0,1.172526240E0
2.790695329E1,2.629651785E0,-9.364099503E0,1.252579451E0
2.792722131E1,2.502335548E0,-9.407086372E0,1.189717412E0
2.794748933E1,2.350836515E0,-9.471576691E0,9.660126567E-1
2.796775725E1,2.235929012E0,-9.528597832E0,6.138846278E-1
2.798802532E1,2.156959057E0,-9.563784599E0,2.279145420E-1
2.800829334E1,2.119515896E0,-9.574794769E0,3.650145233E-2
2.802856136E1,2.118555784E0,-9.573019981E0,1.984721124E-1
2.804882938E1,2.037542582E0,-9.574648857E0,5.872911215E-1
2.806909741E1,1.868026733E0,-9.585894585E0,8.896670341E-1
2.808936537E1,1.698127270E0,-9.604797363E0,1.017161131E0
2.810963340E1,1.596090794E0,-9.618576050E0,1.051609278E0
2.812990142E1,1.588914514E0,-9.614568710E0,1.098089695E0
2.815016944E1,1.680748224E0,-9.581063271E0,1.244462371E0
2.817043746E1,1.821478128E0,-9.498779297E0,1.620428443E0
2.819070543E1,1.914056182E0,-9.336607933E0,2.309656382E0
2.821097345E1,1.917418361E0,-9.103893280E0,3.100486279E0
2.823124147E1,1.918310165E0,-8.889760017E0,3.669145823E0
2.825150949E1,1.890646815E0,-8.843484879E0,3.793231010E0
2.827177751E1,1.742317677E0,-8.933845520E0,3.649812222E0
2.829204553E1,1.654523373E0,-9.020062447E0,3.474394321E0
2.831231350E1,1.613396049E0,-9.080383301E0,3.333762646E0
2.833258152E1,1.522928476E0,-9.138034821E0,3.216739893E0
2.835284954E1,1.363194227E0,-9.209934235E0,3.080455065E0
2.837311756E1,1.230729938E0,-9.294507980E0,2.875383377E0
2.839338553E1,1.215572357E0,-9.380208969E0,2.589292765E0
2.841365355E1,1.293420672E0,-9.456007004E0,2.254194498E0
2.843392157E1,1.412113905E0,-9.516170502E0,1.902322888E0
2.845418959E1,1.547770858E0,-9.563105583E0,1.523749471E0
2.847445756E1,1.704176903E0,-9.589348793E0,1.144801497E0
2.849472558E1,1.885158300E0,-9.588314056E0,8.251082301E-1
2.851499360E1,2.053408146E0,-9.568223953E0,6.348291636E-1
2.853526157E1,2.208376884E0,-9.531709671E0,6.632913947E-1
2.855552959E1,2.435671329E0,-9.462394714E0,8.372528553E-1
2.857579761E1,2.602128267E0,-9.396237373E0,1.053579450E0
2.859606558E1,2.549242496E0,-9.365803719E0,1.397664785E0
2.861633360E1,2.274886131E0,-9.392156601E0,1.668133259E0
2.863660162E1,1.896366239E0,-9.458017349E0,1.766378164E0
2.865686959E1,1.591499925E0,-9.512456894E0,1.775014043E0
2.867713761E1,1.560517192E0,-9.510227203E0,1.814041972E0
2.869740558E1,1.727956057E0,-9.445501328E0,1.991750360E0
2.871767360E1,1.850792527E0,-9.365760803E0,2.242208481E0
2.873794162E1,2.065466881E0,-9.276053429E0,2.420546770E0
2.875820954E1,2.354793549E0,-9.209344864E0,2.411080837E0
2.877847761E1,2.636236668E0,-9.195931435E0,2.157656431E0
2.879874558E1,2.844163656E0,-9.232864380E0,1.683845639E0
2.881901360E1,2.937223196E0,-9.295762062E0,1.063922167E0
2.883941360E1,2.936725140E0,-9.348195076E0,3.965975940E-1
2.885954959E1,2.914019585E0,-9.361901283E0,-1.835213006E-1
2.887981756E1,2.922341108E0,-9.342302322E0,-5.930302739E-1
2.890008558E1,2.945743084E0,-9.320526123E0,-7.878980041E-1
2.892035355E1,2.939797640E0,-9.320875168E0,-8.057662249E-1
2.894062157E1,2.873780012E0,-9.346374512E0,-7.463601828E-1
2.896088954E1,2.784209251E0,-9.376012802E0,-7.134084105E-1
2.898115756E1,2.697865248E0,-9.391153336E0,-8.355504870E-1
2.900142553E1,2.582900763E0,-9.408025742E0,-9.940241575E-1
2.902169355E1,2.474693775E0,-9.436213493E0,-1.002076387E0
2.904196152E1,2.475494385E0,-9.454284668E0,-8.116695285E-1
2.906222954E1,2.544272661E0,-9.457696915E0,-4.990174770E-1
2.908249751E1,2.581672668E0,-9.460236549E0,-9.625850618E-2
2.910276553E1,2.538353920E0,-9.462223053E0,4.398629665E-1
2.912303350E1,2.438611031E0,-9.435241699E0,1.095349550E0
2.914343350E1,2.256471634E0,-9.377113342E0,1.774393559E0
2.916356949E1,1.946063995E0,-9.316303253E0,2.364258051E0
2.918383746E1,1.565592408E0,-9.272871971E0,2.780857086E0
2.920410548E1,1.247387648E0,-9.260796547E0,2.975239754E0
2.922437345E1,1.082072854E0,-9.286845207E0,2.958718777E0
2.924477345E1,1.083420515E0,-9.329927444E0,2.819403648E0
2.926490944E1,1.185883522E0,-9.371968269E0,2.632544041E0
2.928517746E1,1.305701852E0,-9.413605690E0,2.418586493E0
2.930544543E1,1.311618328E0,-9.442719460E0,2.298932791E0
2.932571340E1,1.067104459E0,-9.432429314E0,2.461899281E0
2.934611340E1,7.903479338E-1,-9.393486977E0,2.703356504E0
2.936624939E1,7.070338130E-1,-9.345315933E0,2.887135744E0
2.938651735E1,8.771595359E-1,-9.305438042E0,2.968130589E0
2.940678537E1,1.220087290E0,-9.280085564E0,2.926054001E0
2.942705334E1,1.627704740E0,-9.267493248E0,2.763068676E0
2.944745334E1,1.931256533E0,-9.278001785E0,2.521770000E0
2.946758933E1,1.940042496E0,-9.335463524E0,2.292541742E0
2.948785730E1,1.779987097E0,-9.405676842E0,2.129617691E0
2.950812527E1,1.730570316E0,-9.435220718E0,2.037675619E0
2.952839329E1,1.867684007E0,-9.384506226E0,2.147834778E0
2.954866121E1,2.049365282E0,-9.241335869E0,2.562850714E0
2.956906121E1,2.102671862E0,-9.116003990E0,2.940684795E0
2.958919720E1,2.090733051E0,-9.065882683E0,3.099836826E0
2.960946522E1,1.986635804E0,-9.121217728E0,3.004507303E0
2.962973319E1,1.836221695E0,-9.246623039E0,2.701598644E0
2.965000116E1,1.785248160E0,-9.361945152E0,2.310255527E0
2.967026912E1,1.769408226E0,-9.434393883E0,2.007928133E0
2.969053714E1,1.715034008E0,-9.467136383E0,1.897992849E0
2.971080511E1,1.722077131E0,-9.449149132E0,1.979499221E0
2.973107308E1,1.798748612E0,-9.402285576E0,2.128829956E0
2.975134105E1,1.922792912E0,-9.349814415E0,2.248162031E0
2.977160902E1,2.070106030E0,-9.308517456E0,2.288351297E0
2.979187704E1,2.202393770E0,-9.295787811E0,2.215443373E0
2.981214501E1,2.263573408E0,-9.324472427E0,2.025051355E0
2.983241298E1,2.229755163E0,-9.389237404E0,1.743789315E0
2.985268095E1,2.128911495E0,-9.467303276E0,1.417149425E0
2.987294892E1,2.014496565E0,-9.534125328E0,1.101198196E0
2.989321688E1,1.911424041E0,-9.581093788E0,8.482329249E-1
2.991348485E1,1.827441931E0,-9.610897064E0,6.793475747E-1
2.993375287E1,1.768071771E0,-9.628303528E0,5.831675529E-1
2.995402084E1,1.741956830E0,-9.636190414E0,5.289843082E-1
2.997428876E1,1.753540397E0,-9.636804581E0,4.769652784E-1
2.999455673E1,1.810642719E0,-9.629860878E0,3.971658349E-1
3.001482475E1,1.903712749E0,-9.615788460E0,2.878902256E-1
3.003509272E1,2.003301620E0,-9.598450661E0,1.640301049E-1
3.005536069E1,2.094080210E0,-9.580389023E0,3.691360354E-2
3.007562866E1,2.172632933E0,-9.562491417E0,-9.379165620E-2
3.009589662E1,2.235519171E0,-9.545742989E0,-2.272023857E-1
3.011616459E1,2.279936790E0,-9.531837463E0,-3.410941958E-1
3.013643256E1,2.305264473E0,-9.523326874E0,-4.029592574E-1
3.015670053E1,2.318342447E0,-9.520452499E0,-3.957977891E-1
3.017696845E1,2.328334570E0,-9.520664215E0,-3.258922100E-1
3.019723642E1,2.330076218E0,-9.523194313E0,-2.234134525E-1
3.021750444E1,2.313429594E0,-9.528964996E0,-1.313470900E-1
3.023777241E1,2.288708687E0,-9.535489082E0,-8.150723577E-2
3.025804037E1,2.272085428E0,-9.539516449E0,-7.499493659E-2
3.027830834E1,2.267590284E0,-9.540479660E0,-8.754661679E-2
3.029857631E1,2.279466867E0,-9.537606239E0,-9.222140908E-2
3.031884428E1,2.303910494E0,-9.531962395E0,-6.387379020E-2
3.033911225E1,2.328499794E0,-9.526182175E0,1.818098500E-2
3.035938022E1,2.340939522E0,-9.521667480E0,1.680114418E-1
3.037964819E1,2.336041451E0,-9.517127037E0,3.709117174E-1
3.039991616E1,2.325633049E0,-9.509309769E0,5.786756277E-1
3.042018412E1,2.290676117E0,-9.504729271E0,7.637493014E-1
3.044045209E1,2.182341814E0,-9.515761375E0,9.263224602E-1
3.046072006E1,2.001523733E0,-9.538251877E0,1.089052320E0
3.048098803E1,1.777304053E0,-9.560163498E0,1.270770431E0
3.050125600E1,1.529406548E0,-9.573644638E0,1.475340128E0
3.052152397E1,1.429450393E0,-9.523163795E0,1.853750825E0
3.054179194E1,1.362880349E0,-9.417972565E0,2.369544268E0
3.056205991E1,1.190241337E0,-9.291856766E0,2.900882721E0
3.058232782E1,1.026978612E0,-9.177205086E0,3.300698519E0
3.060259574E1,9.531958103E-1,-9.101367950E0,3.525184870E0
3.062286371E1,1.022574425E0,-9.062695503E0,3.604481220E0
3.064326371E1,1.161944151E0,-9.049503326E0,3.595382690E0
3.066339965E1,1.211073756E0,-9.102064133E0,3.443271875E0
3.068366761E1,1.018540502E0,-9.245396614E0,3.107348442E0
3.070393558E1,6.266159415E-1,-9.379387856E0,2.793712139E0
3.072420350E1,2.579669654E-1,-9.453402519E0,2.595577240E0
3.074460350E1,2.365126275E-2,-9.473883629E0,2.532851219E0
3.076473944E1,-1.208463032E-2,-9.455203056E0,2.601805449E0
3.078500735E1,1.768376976E-1,-9.403126717E0,2.778546810E0
3.080527537E1,5.400286913E-1,-9.316269875E0,3.014275551E0
3.082554329E1,8.647409081E-1,-9.236132622E0,3.180636883E0
3.084594329E1,9.613977671E-1,-9.272470474E0,3.044238091E0
3.086607923E1,1.059103489E0,-9.364729881E0,2.711187601E0
3.088634720E1,1.209741354E0,-9.449533463E0,2.326632023E0
3.090661517E1,1.351293206E0,-9.506056786E0,1.994810462E0
3.092688308E1,1.434568763E0,-9.539023399E0,1.766192913E0
3.094715105E1,1.440433741E0,-9.564568520E0,1.616961837E0
3.096741902E1,1.395931125E0,-9.590009689E0,1.501157403E0
3.098768699E1,1.342879176E0,-9.615664482E0,1.380600333E0
3.100795496E1,1.299531698E0,-9.643735886E0,1.216540098E0
3.102822287E1,1.252428889E0,-9.676411629E0,9.843223095E-1
3.104849084E1,1.171701193E0,-9.709204674E0,7.272257805E-1
3.106875881E1,1.087438107E0,-9.732928276E0,5.079160929E-1
3.108902678E1,1.030371428E0,-9.745633125E0,3.624428213E-1
3.110929470E1,9.839281440E-1,-9.752923012E0,2.876632810E-1
3.112956267E1,9.298610091E-1,-9.758169174E0,2.896073461E-1
3.114983058E1,8.957059979E-1,-9.758535385E0,3.729489446E-1
3.117009860E1,8.909330368E-1,-9.752887726E0,5.077525973E-1
3.119036652E1,9.066612720E-1,-9.741150856E0,6.770153642E-1
3.121063449E1,9.731546044E-1,-9.718894005E0,8.754625320E-1
3.123090246E1,1.217739105E0,-9.667836189E0,1.104734540E0
3.125117043E1,1.567381144E0,-9.597420692E0,1.266181707E0
3.127143834E1,1.777654767E0,-9.568090439E0,1.209124088E0
3.129170631E1,1.897117019E0,-9.562037468E0,1.067132473E0
3.131197428E1,1.925075769E0,-9.558053970E0,1.052646041E0
3.133224225E1,1.900892854E0,-9.546956062E0,1.188539147E0
3.135251017E1,1.851320386E0,-9.525962830E0,1.413870096E0
3.137277814E1,1.797990441E0,-9.502027512E0,1.627599597E0
3.139304610E1,1.769959450E0,-9.487298012E0,1.740343690E0
3.141331402E1,1.788799286E0,-9.491477013E0,1.697782159E0
3.143358199E1,1.853061914E0,-9.514311790E0,1.488095403E0
3.145384996E1,1.883765459E0,-9.550682068E0,1.185865760E0
3.147411787E1,1.851875544E0,-9.590594292E0,8.726077080E-1
3.149438584E1,1.778752327E0,-9.622965813E0,6.363519430E-1
3.151465381E1,1.688858151E0,-9.643404007E0,5.682461858E-1
3.153492178E1,1.620359540E0,-9.652887344E0,6.054560542E-1
3.155518970E1,1.619911075E0,-9.648640633E0,6.708235145E-1
3.157545767E1,1.687920451E0,-9.628428459E0,7.840127945E-1
3.159572564E1,1.757619381E0,-9.598225594E0,9.773508906E-1
3.161599355E1,1.777722478E0,-9.565674782E0,1.227985740E0
3.163626152E1,1.767723083E0,-9.529970169E0,1.491712093E0
3.165652949E1,1.741866708E0,-9.491560936E0,1.745442033E0
3.167679741E1,1.699456215E0,-9.448532104E0,2.001870394E0
3.169706537E1,1.644482017E0,-9.390853882E0,2.297373056E0
3.171733329E1,1.524352312E0,-9.255246162E0,2.861321211E0
3.173760126E1,1.303678632E0,-8.921319962E0,3.857570887E0
3.175786918E1,1.305330873E0,-8.562963486E0,4.598060608E0
3.177813715E1,1.276548624E0,-8.442505836E0,4.823370934E0
3.179840511E1,1.033722281E0,-8.496276855E0,4.786969662E0
3.181867303E1,8.619493246E-1,-8.627905846E0,4.581120968E0
3.183907303E1,7.588782907E-1,-8.784235954E0,4.293213844E0
3.185920897E1,7.198002338E-1,-8.912952423E0,4.026355267E0
3.187947694E1,7.326407433E-1,-8.998531342E0,3.828845978E0
3.189974485E1,7.514190674E-1,-9.047631264E0,3.707575560E0
3.192001282E1,7.642152905E-1,-9.090267181E0,3.599083185E0
3.194028074E1,7.951344848E-1,-9.168207169E0,3.388527632E0
3.196054871E1,8.887774944E-1,-9.286557198E0,3.023293972E0
3.198081668E1,1.058144569E0,-9.400677681E0,2.584177971E0
3.200108459E1,1.255948424E0,-9.487732887E0,2.139135599E0
3.202135256E1,1.465996265E0,-9.543887138E0,1.713316083E0
3.204162048E1,1.669728637E0,-9.572547913E0,1.322393537E0
3.206188845E1,1.835939407E0,-9.582818985E0,9.845316410E-1
3.208215642E1,1.926279783E0,-9.588924408E0,7.157942057E-1
3.210242433E1,1.916055322E0,-9.605028152E0,4.924941063E-1
3.212269230E1,1.809374928E0,-9.633746147E0,2.957634628E-1
3.214309230E1,1.655327797E0,-9.664921761E0,1.399127841E-1
3.216322819E1,1.521731853E0,-9.687687874E0,5.856372043E-2
3.218349610E1,1.438079834E0,-9.699438095E0,1.523686945E-1
3.220376407E1,1.462203503E0,-9.687154770E0,4.374768734E-1
3.222403204E1,1.535641551E0,-9.659178734E0,7.158728242E-1
3.224443204E1,1.551169753E0,-9.630538940E0,1.008447528E0
3.226456793E1,1.556277514E0,-9.599947929E0,1.260702252E0
3.228483590E1,1.846170783E0,-9.528968811E0,1.400279284E0
3.230510381E1,2.068519354E0,-9.479416847E0,1.425578237E0
3.232537178E1,2.208414793E0,-9.465159416E0,1.305387378E0
3.234577178E1,2.299475908E0,-9.463266373E0,1.152991891E0
3.236590767E1,2.374158621E0,-9.453115463E0,1.082757115E0
3.238617564E1,2.461466789E0,-9.423462868E0,1.144511700E0
3.240644355E1,2.560862064E0,-9.379397392E0,1.280344009E0
3.242671147E1,2.657692909E0,-9.336781502E0,1.389814377E0
3.244711147E1,2.740221977E0,-9.310795784E0,1.403795600E0
3.246724741E1,2.810829163E0,-9.306126595E0,1.290593028E0
3.248751537E1,2.858459234E0,-9.319579124E0,1.070071578E0
3.250778329E1,2.839879513E0,-9.353322029E0,7.879294753E-1
3.252805126E1,2.778632402E0,-9.390096664E0,5.250461102E-1
3.254831918E1,2.756536245E0,-9.398044586E0,4.986420870E-1
3.256858714E1,2.758128405E0,-9.389264107E0,6.362522840E-1
3.258885506E1,2.684272528E0,-9.398437500E0,7.965125442E-1
3.260912303E1,2.495287657E0,-9.435620308E0,9.555148482E-1
3.262939095E1,2.246043444E0,-9.478528023E0,1.132769465E0
3.264965892E1,2.044543028E0,-9.496741295E0,1.342437863E0
3.266992688E1,1.903335571E0,-9.484525681E0,1.609805346E0
3.269019480E1,1.773610950E0,-9.426052094E0,2.043094635E0
3.271046277E1,1.589804530E0,-9.284730911E0,2.727026939E0
3.273073069E1,1.440720201E0,-9.069950104E0,3.439581633E0
3.275099866E1,1.252837062E0,-8.876856804E0,3.975198269E0
3.277126657E1,9.425776601E-1,-8.833913803E0,4.152577400E0
3.279153454E1,7.781559825E-1,-8.909758568E0,4.022569656E0
3.281180246E1,6.498018503E-1,-9.025629044E0,3.779701233E0
3.283220246E1,5.249383450E-1,-9.108103752E0,3.596841812E0
3.285233834E1,4.667313695E-1,-9.135204315E0,3.535616875E0
3.287260631E1,4.846390784E-1,-9.122894287E0,3.564871311E0
3.289287423E1,6.015613675E-1,-9.099028587E0,3.607795477E0
3.291314220E1,8.116611242E-1,-9.103617668E0,3.554680824E0
3.293341011E1,1.013136148E0,-9.174605370E0,3.312183857E0
3.295367808E1,1.166673303E0,-9.298146248E0,2.890279531E0
3.297394600E1,1.333325505E0,-9.415122032E0,2.397523403E0
3.299421397E1,1.510701895E0,-9.496932983E0,1.922608972E0
3.301448188E1,1.689290404E0,-9.540088654E0,1.517694235E0
3.303474980E1,1.859367728E0,-9.550655365E0,1.223978400E0
3.305501777E1,1.994808435E0,-9.543693542E0,1.053106904E0
3.307528574E1,2.059931993E0,-9.542146683E0,9.351450801E-1
3.309555366E1,2.003982067E0,-9.565628052E0,8.082165718E-1
3.311582157E1,1.837016463E0,-9.609308243E0,6.759769917E-1
3.313608954E1,1.642632961E0,-9.652658463E0,5.461858511E-1
3.315635746E1,1.470299602E0,-9.684884071E0,4.600277543E-1
3.317662543E1,1.364802718E0,-9.700771332E0,4.502536654E-1
3.319689334E1,1.404624939E0,-9.694515228E0,4.623719752E-1
3.321716131E1,1.566038013E0,-9.663814545E0,5.732277036E-1
3.323742923E1,1.591163158E0,-9.630004883E0,9.495214224E-1
3.325769720E1,1.557498932E0,-9.600319862E0,1.256353855E0
3.327796511E1,1.793523073E0,-9.560116768E0,1.248127580E0
3.329823303E1,2.043810129E0,-9.537707329E0,1.012597442E0
3.331850100E1,2.279761553E0,-9.502117157E0,8.263401389E-1
3.333876892E1,2.512888908E0,-9.442566872E0,8.328899145E-1
3.335903688E1,2.713831663E0,-9.371118546E0,9.937970042E-1
3.337930480E1,2.838326216E0,-9.310513496E0,1.195253968E0
3.339957277E1,2.855273724E0,-9.284338951E0,1.348650932E0
3.341984069E1,2.775665998E0,-9.299588203E0,1.408448100E0
3.344010855E1,2.673699141E0,-9.338561058E0,1.346473098E0
3.346037657E1,2.629572630E0,-9.374702454E0,1.170762897E0
3.348064449E1,2.605400562E0,-9.408679962E0,9.268336296E-1
3.350091246E1,2.578946590E0,-9.438406944E0,6.602147222E-1
3.352118037E1,2.549347162E0,-9.459288597E0,4.394061267E-1
3.354144829E1,2.546977043E0,-9.459802628E0,4.420586228E-1
3.356171626E1,2.540898323E0,-9.453354836E0,5.901632905E-1
3.358198418E1,2.511717319E0,-9.442438126E0,8.378738165E-1
3.360225214E1,2.512436152E0,-9.411072731E0,1.135678768E0
3.362252006E1,2.546435595E0,-9.353237152E0,1.484252095E0
3.364292006E1,2.538758278E0,-9.252857208E0,2.027250051E0
3.366305595E1,2.358084917E0,-9.053676605E0,2.939520597E0
3.368332386E1,1.983735919E0,-8.776190758E0,3.900470972E0
3.370359178E1,1.645312309E0,-8.533388138E0,4.543634892E0
3.372385975E1,1.249659657E0,-8.396993637E0,4.909097672E0
3.374425975E1,8.499245644E-1,-8.462523460E0,4.881978035E0
3.376439564E1,6.484273672E-1,-8.662473679E0,4.550986290E0
3.378466355E1,5.582884550E-1,-8.823580742E0,4.243008137E0
3.380493152E1,6.339960098E-1,-8.868304253E0,4.137828350E0
3.382519944E1,8.367567658E-1,-8.821792603E0,4.200738907E0
3.384559944E1,1.085109591E0,-8.734291077E0,4.324938774E0
3.386573532E1,1.345174551E0,-8.667109489E0,4.386582851E0
3.388600324E1,1.507647753E0,-8.711041451E0,4.244423866E0
3.390627121E1,1.475303411E0,-8.943395615E0,3.742933512E0
3.392653912E1,1.409150720E0,-9.249370575E0,2.938338518E0
3.394680709E1,1.458376050E0,-9.469139099E0,2.092590570E0
3.396707501E1,1.575116396E0,-9.583773613E0,1.356715798E0
3.398734293E1,1.670893312E0,-9.630880356E0,7.903549671E-1
3.400761090E1,1.701312542E0,-9.648981094E0,4.160197377E-1
3.402787881E1,1.648538113E0,-9.664720535E0,2.141778320E-1
3.404814678E1,1.526604295E0,-9.685905457E0,1.519599855E-1
3.406841470E1,1.399212480E0,-9.704269409E0,1.993213296E-1
3.408868261E1,1.372478127E0,-9.704697609E0,3.248665929E-1
3.410895058E1,1.519886851E0,-9.676594734E0,4.731192887E-1
3.412921845E1,1.711787820E0,-9.640616417E0,5.465212464E-1
3.414948647E1,1.779443264E0,-9.618124008E0,7.040362954E-1
3.416975439E1,1.735658526E0,-9.609403610E0,9.040013552E-1
3.419002230E1,1.897887588E0,-9.561858177E0,1.067364812E0
3.421029022E1,2.160462618E0,-9.484545708E0,1.243458629E0
3.423055819E1,2.292651892E0,-9.449243546E0,1.275117278E0
3.425082616E1,2.392276764E0,-9.438501358E0,1.167091489E0
3.427109407E1,2.485527277E0,-9.418330193E0,1.134723783E0
3.429136199E1,2.593353748E0,-9.377682686E0,1.226364613E0
3.431162996E1,2.715473890E0,-9.326302528E0,1.347837448E0
3.433189793E1,2.824845552E0,-9.282804489E0,1.421333909E0
3.435216556E1,2.895200491E0,-9.264894485E0,1.396397829E0
3.437243348E1,2.916111708E0,-9.279044151E0,1.251404405E0
3.439270139E1,2.910080433E0,-9.312069893E0,9.935683012E-1
3.441296936E1,2.863952875E0,-9.354691505E0,6.766850948E-1
3.443323733E1,2.761042833E0,-9.402484894E0,3.745684624E-1
3.445350525E1,2.691295624E0,-9.425808907E0,2.853920758E-1
3.447377322E1,2.696680307E0,-9.413501740E0,5.331985354E-1
3.449404113E1,2.683025122E0,-9.395792007E0,8.311773539E-1
3.451430910E1,2.607150793E0,-9.396942139E0,1.034718752E0
3.453457702E1,2.513624191E0,-9.406758308E0,1.168312907E0
3.455484499E1,2.437444687E0,-9.409580231E0,1.299635530E0
3.457511290E1,2.394607306E0,-9.391295433E0,1.496602058E0
3.459538082E1,2.382797956E0,-9.329120636E0,1.860154510E0
3.461564879E1,2.338704348E0,-9.179201126E0,2.538329840E0
3.463591671E1,2.115032196E0,-8.880409241E0,3.582647085E0
3.465618468E1,1.769685030E0,-8.488336563E0,4.581127167E0
3.467645259E1,1.558727145E0,-8.188180923E0,5.166667938E0
3.469672056E1,1.337340355E0,-8.063037872E0,5.419348717E0
3.471698843E1,9.596254826E-1,-8.197292328E0,5.296592712E0
3.473725645E1,5.627409816E-1,-8.522066116E0,4.819553375E0
3.475752436E1,3.936084807E-1,-8.769965172E0,4.370718956E0
3.477779228E1,5.075520873E-1,-8.879070282E0,4.132176876E0
3.479806025E1,7.730886340E-1,-8.897520065E0,4.050535679E0
3.481832816E1,1.102660418E0,-8.883178711E0,4.005452633E0
3.483872816E1,1.463483810E0,-8.911980629E0,3.821675062E0
3.485886405E1,1.677977443E0,-9.059926987E0,3.357456923E0
3.487913202E1,1.636929393E0,-9.309894562E0,2.610883236E0
3.489939988E1,1.540216208E0,-9.518416405E0,1.788257599E0
3.491966790E1,1.518761516E0,-9.627204895E0,1.086593986E0
3.493993582E1,1.571466923E0,-9.664308548E0,5.495684743E-1
3.496020379E1,1.632432103E0,-9.667817116E0,1.971357614E-1
3.498047171E1,1.670814276E0,-9.663064957E0,6.278492510E-2
3.500073968E1,1.703476906E0,-9.657289505E0,7.277467847E-2
3.502100759E1,1.721885800E0,-9.653236389E0,1.432077438E-1
3.504127556E1,1.697694778E0,-9.656036377E0,2.217765450E-1
3.506154348E1,1.613817215E0,-9.669716835E0,2.501535416E-1
3.508181145E1,1.609379888E0,-9.663985252E0,4.332338870E-1
3.510207936E1,1.783962846E0,-9.602001190E0,8.884933591E-1
3.512234733E1,1.767132401E0,-9.568265915E0,1.223082185E0
3.514274733E1,1.743445635E0,-9.557441711E0,1.336441875E0
3.516288322E1,1.991617680E0,-9.519914627E0,1.255014420E0
3.518315113E1,2.272789478E0,-9.474661827E0,1.111577630E0
3.520341905E1,2.353406191E0,-9.466562271E0,1.008010507E0
3.522368702E1,2.382989407E0,-9.462909698E0,9.721457362E-1
3.524408702E1,2.396855116E0,-9.444200516E0,1.110208035E0
3.526422290E1,2.398560524E0,-9.413760185E0,1.341051817E0
3.528449087E1,2.425076723E0,-9.381147385E0,1.511113644E0
3.530475879E1,2.491856337E0,-9.357446671E0,1.548941135E0
3.532502676E1,2.603755951E0,-9.344914436E0,1.436458230E0
3.534542676E1,2.733310461E0,-9.347307205E0,1.152061343E0
3.536556264E1,2.768065691E0,-9.374962807E0,7.862976789E-1
3.538583056E1,2.717656612E0,-9.408920288E0,5.068812370E-1
3.540609853E1,2.703250647E0,-9.412423134E0,5.187649727E-1
3.542636645E1,2.653236866E0,-9.414875031E0,7.006021142E-1
3.544676645E1,2.549796104E0,-9.421176910E0,9.541149735E-1
3.546690233E1,2.457426548E0,-9.422677994E0,1.159559727E0
3.548717030E1,2.399313688E0,-9.422182083E0,1.279132843E0
3.550743822E1,2.355739594E0,-9.425246239E0,1.336265326E0
3.552770618E1,2.307189465E0,-9.423462868E0,1.430247903E0
3.554797410E1,2.278730154E0,-9.386857986E0,1.692533612E0
3.556824207E1,2.216057062E0,-9.280952454E0,2.263491392E0
3.558850999E1,2.006902933E0,-9.059468269E0,3.173131943E0
3.560877796E1,1.845370412E0,-8.784823418E0,3.948654413E0
3.562904587E1,1.822699428E0,-8.605792999E0,4.334568024E0
3.564931384E1,1.692487478E0,-8.659159660E0,4.280750751E0
3.566958176E1,1.520906806E0,-8.817435265E0,4.013734341E0
3.568984973E1,1.315438986E0,-8.982769966E0,3.708079815E0
3.571011764E1,1.164273500E0,-9.100803375E0,3.462691069E0
3.573038561E1,1.082343817E0,-9.169620514E0,3.304083586E0
3.575065353E1,1.032736301E0,-9.199419022E0,3.236440420E0
3.577092150E1,1.045847416E0,-9.198935509E0,3.233602524E0
3.579118941E1,1.204517841E0,-9.188228607E0,3.208734512E0
3.581145738E1,1.481564164E0,-9.202647209E0,3.047397375E0
3.583172530E1,1.770446301E0,-9.259231567E0,2.702320099E0
3.585199327E1,2.023359299E0,-9.334608078E0,2.222944498E0
3.587226118E1,2.258596897E0,-9.385049820E0,1.729153872E0
3.589252915E1,2.477198601E0,-9.395631790E0,1.325132370E0
3.591279707E1,2.663477659E0,-9.377245903E0,1.069359183E0
3.593306499E1,2.779036522E0,-9.352743149E0,9.866777658E-1
3.595333296E1,2.790051460E0,-9.350205421E0,9.796183109E-1
3.597360092E1,2.684020281E0,-9.381275177E0,9.788294435E-1
3.599386884E1,2.497843742E0,-9.434882164E0,9.561317563E-1
3.601413681E1,2.312088490E0,-9.489956856E0,8.748473525E-1
3.603440478E1,2.134215832E0,-9.547060966E0,6.849256158E-1
3.605467270E1,1.944534183E0,-9.601256371E0,4.528306127E-1
3.607494066E1,1.867857337E0,-9.622313499E0,3.042303920E-1
3.609520858E1,2.005115509E0,-9.594620705E0,3.052257001E-1
3.611547650E1,2.220658064E0,-9.536280632E0,5.462573767E-1
3.613574447E1,2.165422916E0,-9.515784264E0,9.649825692E-1
3.615601244E1,2.237066984E0,-9.472458839E0,1.199355721E0
3.617628035E1,2.414906979E0,-9.435786247E0,1.142172217E0
3.619654832E1,2.577272415E0,-9.405700684E0,1.029976487E0
3.621681624E1,2.706959248E0,-9.368913651E0,1.032583952E0
3.623708421E1,2.839329004E0,-9.322103500E0,1.098625660E0
3.625735212E1,2.959139109E0,-9.276909828E0,1.163113594E0
3.627762009E1,3.013158083E0,-9.258789062E0,1.168802142E0
3.629788801E1,2.986744642E0,-9.279856682E0,1.064889073E0
3.631815598E1,2.889492512E0,-9.333033562E0,8.459885120E-1
3.633842389E1,2.742710114E0,-9.399892807E0,5.384570360E-1
3.635869186E1,2.573773861E0,-9.460878372E0,1.945836544E-1
3.637895978E1,2.414905071E0,-9.504057884E0,-1.072381437E-1
3.639922775E1,2.313773394E0,-9.528690338E0,-1.445632875E-1
3.641949566E1,2.214341879E0,-9.552917480E0,9.410470724E-2
3.643976363E1,2.059401035E0,-9.580750465E0,3.721261024E-1
3.646003155E1,1.869582057E0,-9.605957985E0,6.329506040E-1
3.648029952E1,1.702887297E0,-9.615063667E0,9.061527848E-1
3.650056744E1,1.563169956E0,-9.601903915E0,1.237065196E0
3.652083535E1,1.416617274E0,-9.559582710E0,1.666724324E0
3.654110332E1,1.258628249E0,-9.478080750E0,2.179960012E0
3.656137129E1,1.195674062E0,-9.361263275E0,2.665990114E0
3.658163921E1,1.376625180E0,-9.252489090E0,2.943933249E0
3.660190718E1,1.747900724E0,-9.189309120E0,2.944797516E0
3.662217509E1,1.737293124E0,-9.255037308E0,2.737973213E0
3.664257509E1,1.170288920E0,-9.425551414E0,2.441267967E0
3.666271098E1,6.663635969E-1,-9.534592628E0,2.194970608E0
3.668297895E1,4.382866323E-1,-9.575761795E0,2.069557667E0
3.670324686E1,4.659613967E-1,-9.592393875E0,1.984754205E0
3.672351483E1,6.624408364E-1,-9.614451408E0,1.814904809E0
3.674391483E1,9.561614394E-1,-9.630005836E0,1.587172985E0
3.676405072E1,1.327432752E0,-9.611707687E0,1.422455668E0
3.678431863E1,1.780157685E0,-9.545938492E0,1.369852304E0
3.680458655E1,2.256256819E0,-9.434750557E0,1.437069416E0
3.682485452E1,2.693938017E0,-9.286046982E0,1.637811542E0
3.684525452E1,3.017316341E0,-9.126029968E0,1.944675684E0
3.686539040E1,3.116636992E0,-9.010220528E0,2.296275377E0
3.688565832E1,2.880066395E0,-9.010408401E0,2.586142540E0
3.690592629E1,2.464562654E0,-9.097404480E0,2.708053112E0
3.692619421E1,2.244715929E0,-9.204921722E0,2.530032158E0
3.694646218E1,2.015027523E0,-9.302234650E0,2.361882210E0
3.696673009E1,1.902630925E0,-9.366171837E0,2.196634769E0
3.698699806E1,1.854266405E0,-9.409425735E0,2.048119307E0
3.700726598E1,1.820619106E0,-9.434014320E0,1.963443756E0
3.702753389E1,1.837712884E0,-9.430267334E0,1.965521932E0
3.704793389E1,1.925567150E0,-9.389871597E0,2.071928740E0
3.706806978E1,2.089237452E0,-9.304513931E0,2.287246466E0
3.708833775E1,2.349255562E0,-9.171619415E0,2.555930138E0
3.710860566E1,2.668514490E0,-9.036403656E0,2.718977213E0
3.712887363E1,2.919144630E0,-8.980466843E0,2.645785809E0
3.714914155E1,2.974507093E0,-9.049386024E0,2.330518007E0
3.716940952E1,2.842622042E0,-9.197571754E0,1.869376779E0
3.718967744E1,2.658446074E0,-9.342782974E0,1.347381592E0
3.720994535E1,2.507324457E0,-9.443052292E0,8.440670371E-1
3.723021332E1,2.413773298E0,-9.495002747E0,4.347286820E-1
3.725048124E1,2.373099804E0,-9.514008522E0,1.497731805E-1
3.727074921E1,2.377450466E0,-9.513969421E0,-5.005949363E-2
3.729101712E1,2.423965454E0,-9.499320984E0,-2.401674986E-1
3.731128504E1,2.478251219E0,-9.474840164E0,-5.060383081E-1
3.733168504E1,2.490207911E0,-9.453121185E0,-7.795856595E-1
3.735182093E1,2.485755920E0,-9.439637184E0,-9.405592084E-1
3.737208889E1,2.488795042E0,-9.442235947E0,-9.057915807E-1
3.739235671E1,2.501083851E0,-9.456132889E0,-7.046465278E-1
3.741262478E1,2.510962009E0,-9.470013618E0,-4.293035865E-1
3.743289270E1,2.497659922E0,-9.482467651E0,-1.220198199E-1
3.745316061E1,2.445316553E0,-9.495302200E0,1.733696908E-1
3.747342858E1,2.404123783E0,-9.497169495E0,4.408483803E-1
3.749369650E1,2.410145283E0,-9.480926514E0,6.881930828E-1
3.751396441E1,2.419535160E0,-9.457538605E0,9.333817363E-1
3.753423238E1,2.385693312E0,-9.434334755E0,1.213332534E0
3.755450030E1,2.261995554E0,-9.399074554E0,1.646560431E0
3.757476827E1,2.107741594E0,-9.322497368E0,2.195185661E0
3.759503619E1,1.944843054E0,-9.226652145E0,2.693856001E0
3.761530415E1,1.771857500E0,-9.148309708E0,3.056033134E0
3.763557207E1,1.657965422E0,-9.101703644E0,3.252774477E0
3.765583999E1,1.705146194E0,-9.073061943E0,3.307931185E0
3.767610796E1,1.849285603E0,-9.062743187E0,3.258405924E0
3.769637587E1,1.920107365E0,-9.079898834E0,3.168442249E0
3.771664379E1,1.895223498E0,-9.113317490E0,3.086415768E0
3.773691176E1,1.852345586E0,-9.144913673E0,3.018236160E0
3.775717968E1,1.845336556E0,-9.170378685E0,2.944361687E0
3.777744759E1,1.870548844E0,-9.197068214E0,2.843477964E0
3.779771556E1,1.885694385E0,-9.235424995E0,2.705820799E0
3.781798348E1,1.863653183E0,-9.288815498E0,2.532807589E0
3.783838348E1,1.826444626E0,-9.351189613E0,2.321582317E0
3.785851931E1,1.823298573E0,-9.408729553E0,2.078890800E0
3.787878728E1,1.859020352E0,-9.467576027E0,1.754832745E0
3.789905520E1,1.865497828E0,-9.517772675E0,1.449937582E0
3.791932316E1,1.826914907E0,-9.529335976E0,1.422858477E0
3.793959108E1,1.752153754E0,-9.517306328E0,1.587839484E0
3.795985900E1,1.669892311E0,-9.503390312E0,1.751404166E0
3.798012697E1,1.602385521E0,-9.502246857E0,1.819354892E0
3.800039488E1,1.525716066E0,-9.515199661E0,1.817569733E0
3.802066280E1,1.465559840E0,-9.527194023E0,1.804188132E0
3.804093072E1,1.460201621E0,-9.530875206E0,1.789030790E0
3.806119868E1,1.502321720E0,-9.529748917E0,1.759911418E0
3.808146660E1,1.603993297E0,-9.523672104E0,1.702129126E0
3.810173457E1,1.760353208E0,-9.513660431E0,1.600566149E0
3.812200249E1,1.938208699E0,-9.502203941E0,1.456661940E0
3.814240249E1,2.104588747E0,-9.492837906E0,1.275581121E0
3.816253832E1,2.224910975E0,-9.488916397E0,1.086562872E0
3.818280629E1,2.283001184E0,-9.492042542E0,9.270449281E-1
3.820307421E1,2.280728817E0,-9.503211975E0,8.109320402E-1
3.822334212E1,2.253400803E0,-9.516297340E0,7.298368216E-1
3.824374212E1,2.248635292E0,-9.524487495E0,6.310006976E-1
3.826387801E1,2.271516800E0,-9.527096748E0,4.950066507E-1
3.828414593E1,2.293728828E0,-9.526222229E0,4.003823400E-1
3.830441384E1,2.314712048E0,-9.521505356E0,3.917137980E-1
3.832468181E1,2.337810040E0,-9.513247490E0,4.507312775E-1
3.834508181E1,2.361771584E0,-9.502711296E0,5.393547416E-1
3.836521764E1,2.383498907E0,-9.492244720E0,6.217932701E-1
3.838548556E1,2.403305054E0,-9.482989311E0,6.836873293E-1
3.840575353E1,2.415398598E0,-9.476724625E0,7.265847325E-1
3.842602145E1,2.415546894E0,-9.474235535E0,7.578750849E-1
3.844642145E1,2.398377895E0,-9.476285934E0,7.862417102E-1
3.846655728E1,2.354294538E0,-9.483077049E0,8.360337019E-1
3.848682525E1,2.306351185E0,-9.489332199E0,8.965017200E-1
3.850709316E1,2.288765907E0,-9.488884926E0,9.449863434E-1
3.852736108E1,2.310847998E0,-9.480291367E0,9.769614935E-1
3.854762900E1,2.370931625E0,-9.461311340E0,1.016199827E0
3.856789691E1,2.451487303E0,-9.431303024E0,1.100509048E0
3.858816488E1,2.527505875E0,-9.394556046E0,1.234668612E0
3.860843280E1,2.595863342E0,-9.353944778E0,1.391257167E0
3.862870072E1,2.642254353E0,-9.317066193E0,1.543101072E0
3.864896863E1,2.645952225E0,-9.290647507E0,1.689144731E0
3.866923655E1,2.566992998E0,-9.274473190E0,1.888148427E0
3.868950452E1,2.343775511E0,-9.244414330E0,2.284273863E0
3.870977244E1,2.027675390E0,-9.118510246E0,2.985247135E0
3.873004035E1,1.836537123E0,-8.890534401E0,3.708895683E0
3.875030827E1,1.801675677E0,-8.666470528E0,4.220977306E0
3.877057618E1,1.811030269E0,-8.538407326E0,4.470588207E0
3.879084415E1,1.771932244E0,-8.541574478E0,4.480196953E0
3.881111202E1,1.607825756E0,-8.683949471E0,4.263132095E0
3.883137999E1,1.461214423E0,-8.875429153E0,3.906659365E0
3.885164790E1,1.422585487E0,-9.040268898E0,3.524225473E0
3.887191582E1,1.419950247E0,-9.162514687E0,3.194128752E0
3.889218374E1,1.355169535E0,-9.255724907E0,2.943719625E0
3.891245165E1,1.261301160E0,-9.331794739E0,2.738085032E0
3.893271962E1,1.220664024E0,-9.406460762E0,2.489753008E0
3.895298754E1,1.248376012E0,-9.498864174E0,2.093685627E0
3.897325546E1,1.303566217E0,-9.593245506E0,1.562279940E0
3.899352337E1,1.387997270E0,-9.650686264E0,1.052659988E0
3.901379129E1,1.508358955E0,-9.665447235E0,6.887438297E-1
3.903405921E1,1.628583670E0,-9.656637192E0,5.171672106E-1
3.905432712E1,1.714036226E0,-9.642269135E0,5.090251565E-1
3.907459509E1,1.752318501E0,-9.630793571E0,5.895529389E-1
3.909486301E1,1.737801433E0,-9.627774239E0,6.755606532E-1
3.911513092E1,1.677049518E0,-9.636809349E0,6.998422146E-1
3.913539884E1,1.596985221E0,-9.657210350E0,5.985991955E-1
3.915566676E1,1.503148437E0,-9.682131767E0,4.089877903E-1
3.917593468E1,1.482075334E0,-9.686487198E0,3.818503022E-1
3.919620264E1,1.539044619E0,-9.671468735E0,5.142152309E-1
3.921647056E1,1.531408668E0,-9.665723801E0,6.316205859E-1
3.923673848E1,1.468169212E0,-9.667984009E0,7.382050157E-1
3.925700639E1,1.422660470E0,-9.665974617E0,8.457890153E-1
3.927727431E1,1.523786306E0,-9.640857697E0,9.499138594E-1
3.929754223E1,1.622979999E0,-9.613146782E0,1.060066700E0
3.931781020E1,1.631416559E0,-9.602657318E0,1.139226198E0
3.933807811E1,1.665429115E0,-9.596321106E0,1.143382311E0
3.935834603E1,1.740676403E0,-9.587587357E0,1.103907585E0
3.937861395E1,1.837896943E0,-9.571928978E0,1.081979513E0
3.939888186E1,1.941519856E0,-9.548003197E0,1.111997247E0
3.941914978E1,2.049453497E0,-9.517395973E0,1.178681016E0
3.943941770E1,2.164099932E0,-9.484772682E0,1.235374093E0
3.945968561E1,2.280668020E0,-9.459109306E0,1.222368956E0
3.947995353E1,2.365571022E0,-9.451828003E0,1.112390161E0
3.950022150E1,2.377326727E0,-9.467638016E0,9.394288659E-1
3.952048941E1,2.347141981E0,-9.493302345E0,7.338370681E-1
3.954075733E1,2.301099300E0,-9.518636703E0,5.204559565E-1
3.956102921E1,2.189766645E0,-9.551889420E0,3.697371483E-1
3.958133165E1,1.965532660E0,-9.601079941E0,3.554260731E-1
3.960156046E1,1.720713496E0,-9.646736145E0,3.873143792E-1
3.962182837E1,1.633154988E0,-9.659357071E0,4.472279847E-1
3.964221514E1,1.711790323E0,-9.640879631E0,5.418624282E-1
3.966236441E1,1.854166389E0,-9.605883598E0,6.778327227E-1
3.968263244E1,1.996789336E0,-9.561980247E0,8.670357466E-1
3.970290040E1,2.091675758E0,-9.515642166E0,1.117063284E0
3.972316832E1,2.102383137E0,-9.470787048E0,1.433377504E0
3.974356837E1,2.033232450E0,-9.416601181E0,1.834115624E0
3.976370426E1,1.879149079E0,-9.320969582E0,2.399728775E0
3.978397223E1,1.602271557E0,-9.102690697E0,3.277823687E0
3.980424020E1,1.452231765E0,-8.792851448E0,4.092330933E0
3.982450811E1,1.518826842E0,-8.623430252E0,4.415880680E0
3.984490811E1,1.409550548E0,-8.613121986E0,4.471877575E0
3.986504400E1,1.271935463E0,-8.659873962E0,4.422572136E0
3.988531191E1,1.153336644E0,-8.751492500E0,4.272185326E0
3.990557983E1,1.056757331E0,-8.860291481E0,4.068033218E0
3.992584775E1,9.798195958E-1,-8.956068039E0,3.872876644E0
3.994624775E1,8.964710832E-1,-9.023339272E0,3.734444618E0
3.996638353E1,8.060715795E-1,-9.068466187E0,3.644663334E0
3.998665150E1,7.024560571E-1,-9.124565125E0,3.524099112E0
4.000691941E1,6.923918128E-1,-9.224114418E0,3.256791353E0
4.002718733E1,8.293024302E-1,-9.345005989E0,2.855434179E0
4.004758733E1,1.043435454E0,-9.445799828E0,2.420436859E0
4.006772316E1,1.274385333E0,-9.512890816E0,2.012770176E0
4.008799108E1,1.509813309E0,-9.548238754E0,1.649842262E0
4.010825900E1,1.732117891E0,-9.556762695E0,1.355894208E0
4.012852686E1,1.905757904E0,-9.551776886E0,1.141068101E0
4.014879478E1,2.008333445E0,-9.546711922E0,9.986324906E-1
4.016906270E1,2.013553381E0,-9.560269356E0,8.469005227E-1
4.018933061E1,1.946854234E0,-9.589314461E0,6.520724893E-1
4.020959853E1,1.858295798E0,-9.618529320E0,4.483521283E-1
4.022986639E1,1.717206836E0,-9.650321007E0,3.047537506E-1
4.025013431E1,1.532758832E0,-9.682692528E0,2.578934133E-1
4.027040223E1,1.386016250E0,-9.702534676E0,3.319262266E-1
4.029067014E1,1.373286486E0,-9.692976952E0,5.750293732E-1
4.031093806E1,1.509625912E0,-9.652734756E0,8.462405801E-1
4.033120598E1,1.614326596E0,-9.610272408E0,1.098635674E0
4.035147389E1,1.618126392E0,-9.577392578E0,1.351149201E0
4.037174181E1,1.743824124E0,-9.521656036E0,1.570836306E0
4.039200968E1,2.022596121E0,-9.445246696E0,1.693166733E0
4.041227759E1,2.191360474E0,-9.412616730E0,1.664623022E0
4.043254551E1,2.284206629E0,-9.419106483E0,1.494395852E0
4.045281342E1,2.311846733E0,-9.442560196E0,1.289885998E0
4.047308134E1,2.270357132E0,-9.475223541E0,1.111749530E0
4.049334926E1,2.223719835E0,-9.505941391E0,9.287292957E-1
4.051361712E1,2.225685120E0,-9.517784119E0,7.927786112E-1
4.053388504E1,2.305064440E0,-9.504104614E0,7.273548245E-1
4.055415296E1,2.413775444E0,-9.479203224E0,6.991280913E-1
4.057442087E1,2.438678265E0,-9.475398064E0,6.633745432E-1
4.059468874E1,2.377545118E0,-9.494924545E0,6.033917069E-1
4.061495665E1,2.319461107E0,-9.513095856E0,5.399030447E-1
4.063522457E1,2.339174509E0,-9.511715889E0,4.752905965E-1
4.065549249E1,2.376117468E0,-9.505382538E0,4.149206579E-1
4.067576040E1,2.342546940E0,-9.514560699E0,3.949593902E-1
4.069602827E1,2.287720919E0,-9.526303291E0,4.315838218E-1
4.071629619E1,2.288292408E0,-9.521327972E0,5.276458263E-1
4.073656410E1,2.320785046E0,-9.504712105E0,6.669284701E-1
4.075683202E1,2.341623783E0,-9.487324715E0,8.233241439E-1
4.077709988E1,2.347810268E0,-9.470905304E0,9.798668623E-1
4.079736780E1,2.342489004E0,-9.455825806E0,1.127156973E0
4.081763572E1,2.319864273E0,-9.442790031E0,1.273707271E0
4.083803572E1,2.271406412E0,-9.425076485E0,1.476153255E0
4.085817150E1,2.165776014E0,-9.386981010E0,1.834229112E0
4.087843941E1,1.946559072E0,-9.282892227E0,2.491828203E0
4.089870733E1,1.614524126E0,-9.053318977E0,3.406041861E0
4.091897525E1,1.358328581E0,-8.707305908E0,4.302112103E0
4.093924311E1,1.482488155E0,-8.486755371E0,4.684828758E0
4.095951103E1,1.428006649E0,-8.459188461E0,4.751139164E0
4.097977895E1,1.256313086E0,-8.517867088E0,4.694463730E0
4.100004686E1,1.056684017E0,-8.648005486E0,4.501755238E0
4.102031473E1,8.706253171E-1,-8.803089142E0,4.232969284E0
4.104058264E1,7.262873054E-1,-8.943386078E0,3.957111835E0
4.106085051E1,6.028644443E-1,-9.053428650E0,3.720534563E0
4.108111842E1,4.917734861E-1,-9.130311966E0,3.544847250E0
4.110138634E1,4.510138035E-1,-9.181552887E0,3.415561676E0
4.112165030E1,5.023568273E-1,-9.228768349E0,3.278392553E0
4.114188358E1,6.211290359E-1,-9.290278435E0,3.078197718E0
4.116219056E1,8.059595823E-1,-9.365744591E0,2.793499470E0
4.118245842E1,1.069610953E0,-9.439248085E0,2.434526205E0
4.120272624E1,1.365915418E0,-9.500170708E0,2.012814283E0
4.122299410E1,1.625348687E0,-9.544012070E0,1.562202334E0
4.124339400E1,1.812481880E0,-9.568046570E0,1.156617880E0
4.126352978E1,1.917618275E0,-9.577726364E0,8.719498515E-1
4.128379759E1,1.953535438E0,-9.585729599E0,6.840192080E-1
4.130406546E1,1.934332013E0,-9.600581169E0,5.075464249E-1
4.132433337E1,1.907389879E0,-9.613484383E0,3.364075124E-1
4.134473332E1,1.877083063E0,-9.623044968E0,2.096439898E-1
4.136486910E1,1.769742131E0,-9.644371033E0,1.565843523E-1
4.138513697E1,1.630939841E0,-9.667977333E0,2.015937120E-1
4.140540488E1,1.543964982E0,-9.677462578E0,3.650615513E-1
4.142567280E1,1.543379068E0,-9.662540436E0,6.509010792E-1
4.144607280E1,1.591465950E0,-9.628772736E0,9.614373446E-1
4.146620858E1,1.603693247E0,-9.601940155E0,1.183770776E0
4.148647650E1,1.588132501E0,-9.583136559E0,1.346005559E0
4.150674436E1,1.732271552E0,-9.539440155E0,1.472655177E0
4.152701223E1,1.976837873E0,-9.476527214E0,1.567777753E0
4.154728014E1,2.118041992E0,-9.439331055E0,1.607272387E0
4.156754806E1,2.200854301E0,-9.432681084E0,1.533346653E0
4.158781598E1,2.229153872E0,-9.454379082E0,1.347576380E0
4.160808384E1,2.187435865E0,-9.497059822E0,1.091498375E0
4.162835176E1,2.102697134E0,-9.544775963E0,8.039332032E-1
4.164861962E1,2.045495510E0,-9.572984695E0,5.867732763E-1
4.166888754E1,2.085556507E0,-9.569950104E0,4.867239594E-1
4.168915546E1,2.216036081E0,-9.541411400E0,4.701532423E-1
4.170942337E1,2.304807901E0,-9.520231247E0,4.727086127E-1
4.172969124E1,2.306269169E0,-9.520259857E0,4.649113715E-1
4.174995915E1,2.283884287E0,-9.526438713E0,4.485957921E-1
4.177022707E1,2.286978483E0,-9.529087067E0,3.696106076E-1
4.179049494E1,2.258212328E0,-9.540074348E0,2.405345142E-1
4.181076285E1,2.140600204E0,-9.568676949E0,1.692281365E-1
4.183103077E1,2.027632952E0,-9.592706680E0,1.976758838E-1
4.185129863E1,2.018634319E0,-9.591996193E0,2.985101044E-1
4.187156655E1,2.076236725E0,-9.575225830E0,4.179334044E-1
4.189183447E1,2.142339706E0,-9.556164742E0,5.103893280E-1
4.191210233E1,2.204238653E0,-9.538666725E0,5.705922246E-1
