"Time (s)","Acceleration x (m/s^2)","Acceleration y (m/s^2)","Acceleration z (m/s^2)"
4.013709200E-2,-1.144367456E0,3.169891834E0,9.284152031E0
6.043683100E-2,-1.254437327E0,2.975475073E0,9.147761345E0
8.055016500E-2,-1.529611826E0,2.791227579E0,8.824729919E0
1.009501650E-1,-1.620539188E0,2.666800737E0,8.511270523E0
1.210913620E-1,-1.476969719E0,2.666800737E0,8.700303078E0
1.413619350E-1,-1.563111424E0,2.633301258E0,9.131011009E0
1.616325080E-1,-1.546361685E0,2.506481647E0,8.951549530E0
1.819030810E-1,-1.383649707E0,2.470589399E0,8.530412674E0
2.023030810E-1,-1.165902853E0,2.319841623E0,8.930013657E0
2.224443830E-1,-1.297508121E0,2.386840582E0,8.401200294E0
2.427150080E-1,-1.953739643E0,2.360519648E0,7.890930653E0
2.629856330E-1,-2.008774519E0,2.260020971E0,8.496912956E0
2.832563100E-1,-1.768894196E0,1.902892232E0,9.418747902E0
3.036563100E-1,-1.668395638E0,1.551147223E0,9.178867340E0
3.237976650E-1,-1.788036704E0,1.644467354E0,9.492925644E0
3.440683420E-1,-1.713859200E0,1.331007600E0,1.043868923E1
3.643390710E-1,-1.476969719E0,1.543968797E0,1.090528965E1
3.847390710E-1,-1.189831018E0,1.419542074E0,1.142752266E1
4.050383420E-1,5.982056633E-2,1.587039590E0,1.069232845E1
4.253107900E-1,-2.225325108E-1,1.053440213E0,8.970691681E0
4.454180290E-1,-9.768698215E-1,1.409970760E0,9.303294182E0
4.656894350E-1,-2.488535494E-1,1.290329576E0,9.636494637E0
4.859600600E-1,1.339980662E-1,5.814558864E-1,1.002173901E1
5.063606850E-1,2.805584669E-1,1.051047325E0,1.008156013E1
5.265025600E-1,7.375875711E-1,1.153938770E0,1.070429230E1
5.467736540E-1,7.998009920E-1,5.383850932E-1,1.058465099E1
5.670446960E-1,9.768698215E-1,-1.537388563E-1,9.392427444E0
5.873156330E-1,9.864411354E-1,-2.063809484E-1,9.198010445E0
6.075864670E-1,1.496710539E0,2.273181528E-1,9.574281693E0
6.278573520E-1,1.098903775E0,5.718846321E-1,1.083350468E1
6.481281850E-1,9.218349457E-1,6.340979934E-1,1.068275642E1
6.683989150E-1,1.208973646E0,1.204187989E0,1.033041382E1
6.886697480E-1,1.432104349E0,7.537391186E-1,9.921240807E0
7.089404770E-1,2.063809633E0,2.798406124E0,9.107083321E0
7.292112060E-1,3.181855917E0,3.787240028E0,9.818349838E0
7.494819870E-1,7.710871100E-1,1.091725349E0,9.969097137E0
7.697527170E-1,1.312463164E0,-4.366901144E-2,9.255437851E0
7.900233940E-1,9.433703423E-1,-3.499503136E-1,1.055354404E1
8.104234460E-1,7.399803996E-1,1.531406492E-1,1.126181984E1
8.305648520E-1,1.496710539E0,1.113260746E0,1.067557812E1
8.508355290E-1,1.070189953E0,1.108475089E0,9.569496155E0
8.711062580E-1,1.483550072E-1,9.260223508E-1,9.902098656E0
8.913769870E-1,3.260220885E-1,1.021735311E0,9.557532310E0
9.117829250E-1,-2.775674164E-1,1.412363529E0,9.025727272E0
9.320336540E-1,-4.139583111E-1,1.122832060E0,9.732208252E0
9.522223520E-1,-1.220339537E-1,4.019941986E-1,1.000977516E1
9.724550080E-1,-1.435693540E-2,-7.477571070E-2,1.001695347E1
9.927255810E-1,5.581258535E-1,2.153540403E-2,1.071386337E1
1.013126623E0,1.019940615E0,5.072783828E-1,9.897313118E0
1.033268810E0,8.572286963E-1,8.039883971E-1,8.953942299E0
1.053540060E0,7.998009920E-1,8.805587292E-1,7.883752346E0
1.073811206E0,9.146564603E-1,7.106683254E-1,8.230711937E0
1.094081883E0,1.235294700E0,1.031306505E0,9.394820213E0
1.114482300E0,1.956132531E0,2.012962103E0,8.793622971E0
1.134624071E0,2.370688915E0,2.024926186E0,8.477770805E0
1.154895008E0,2.478366137E0,9.332008362E-1,9.052047729E0
1.175165842E0,2.643470764E0,1.962114573E-1,8.922835350E0
1.195436571E0,1.666600943E0,4.737788737E-1,7.524828911E0
1.215844696E0,8.979067206E-1,1.197009563E0,8.492127419E0
1.236142508E0,1.266401410E0,8.685946465E-1,1.048654556E1
1.256392508E0,1.010369420E0,4.307080805E-1,9.672387123E0
1.276473602E0,6.418746710E-1,1.387837082E-1,8.192426682E0
1.296784956E0,2.225325108E-1,5.503492057E-2,8.082356453E0
1.317056779E0,3.116651475E-1,-3.523431420E-1,9.071190834E0
1.337328446E0,4.241278172E-1,-7.136593461E-1,9.854242325E0
1.357599852E0,-1.076770201E-1,-6.083751321E-1,1.018445110E1
1.377870477E0,-2.392822653E-1,1.866401732E-1,9.569496155E0
1.398271102E0,7.178467698E-3,4.307080805E-1,9.207581520E0
1.418412560E0,-1.674975902E-1,6.508477330E-1,9.236295700E0
1.438685790E0,-8.835497499E-1,1.768894196E0,8.870193481E0
1.458956467E0,-9.960124493E-1,2.036890268E0,8.930013657E0
1.479227144E0,-3.373879790E-1,1.706680775E0,9.849455833E0
1.499627144E0,-6.077769399E-1,1.553540111E0,9.665208817E0
1.519768498E0,-7.878368497E-1,1.929213285E0,9.226723671E0
1.540039175E0,-1.354935765E0,1.962114573E-1,1.022273636E1
1.560309852E0,-1.977667928E0,-1.259821177E0,1.069950676E1
1.580580477E0,-1.228116274E0,2.153540403E-2,7.374081135E0
1.600980477E0,1.415354609E0,-2.681756020E0,7.869395256E0
1.621121883E0,-1.713859200E0,-1.082752228E0,7.177271366E0
1.641392560E0,-4.546362877E0,-1.250249892E-1,7.338188648E0
1.661663237E0,-3.459423304E0,-2.063809484E-1,7.445865631E0
1.681933915E0,-3.279961586E0,-3.786641955E-1,7.241877556E0
1.702333915E0,-5.437091351E0,3.349951655E-2,6.610172749E0
1.722475321E0,-6.535995007E0,1.100698411E-1,6.619743824E0
1.742745998E0,-7.431509018E0,2.273181528E-1,7.393223763E0
1.763016675E0,-8.209774017E0,3.589234054E-1,8.398807526E0
1.783287352E0,-8.951549530E0,7.034898400E-1,8.779266357E0
1.803687352E0,-8.152346611E0,3.780659735E-1,8.506484032E0
1.823986675E0,-7.354938507E0,-1.345962733E-1,8.465806961E0
1.844257456E0,-7.527221680E0,-3.810569942E-1,8.729017258E0
1.864370790E0,-8.255238533E0,-5.318048596E-1,8.539983749E0
1.884641362E0,-9.296713829E0,-6.011967063E-1,7.957930088E0
1.905041362E0,-1.016351414E1,-7.447660565E-1,7.663612843E0
1.925325529E0,-9.820742607E0,-7.854440212E-1,7.764111042E0
1.945447821E0,-8.906085968E0,-9.074779749E-1,8.259425163E0
1.965719487E0,-7.883752346E0,-1.439282775E0,8.310273170E0
1.985990998E0,-7.960322857E0,-1.910668850E0,7.536793232E0
2.006262352E0,-8.724231720E0,-2.155334949E0,6.729813576E0
2.026533550E0,-8.532805443E0,-2.013560295E0,6.392425537E0
2.046804592E0,-7.936394691E0,-1.673779488E0,6.452246189E0
2.067075633E0,-7.096513748E0,-2.025524378E0,6.128616810E0
2.087346623E0,-6.961917400E0,-1.996810555E0,5.544768333E0
2.107617508E0,-7.840681553E0,-2.088335991E0,5.477769375E0
2.127888394E0,-7.893323898E0,-1.807777524E0,5.932405472E0
2.148159175E0,-6.832705021E0,-2.049452543E0,6.263213158E0
2.168429956E0,-6.550352097E0,-2.351546526E0,6.461817741E0
2.188700685E0,-7.508079052E0,-2.657827854E0,6.198009014E0
2.208971467E0,-8.542376518E0,-2.511865616E0,5.585446358E0
2.229242248E0,-8.934800148E0,-2.265404940E0,5.403591633E0
2.249512977E0,-9.320642471E0,-2.255833626E0,5.453841209E0
2.269783706E0,-9.770493507E0,-2.160120726E0,5.020142078E0
2.290054383E0,-1.006002426E1,-2.133799553E0,4.201796532E0
2.310454383E0,-1.006480980E1,-1.702493310E0,3.232105255E0
2.330595790E0,-1.045543861E1,-1.389033556E0,2.874976397E0
2.350866467E0,-1.020897770E1,-1.240678549E0,3.323032379E0
2.371137196E0,-9.430712700E0,-1.173679471E0,4.173082829E0
2.391407873E0,-9.507282257E0,-4.384847581E-1,4.833501816E0
2.411813862E0,-1.056790161E1,-6.520441920E-2,4.532006264E0
2.432060685E0,-1.046022415E1,-2.327020019E-1,3.239283562E0
2.452214800E0,-8.611768723E0,-6.801598072E-1,2.008176327E0
2.472486519E0,-7.661220074E0,-1.276570916E0,1.733001828E0
2.492757144E0,-8.865407944E0,-7.495517135E-1,1.546361685E0
2.513158029E0,-9.734601021E0,-3.619144261E-1,2.348555326E0
2.533300060E0,-9.567103386E0,1.895713687E0,3.514458179E0
2.553571258E0,-8.048856735E0,1.654038668E0,4.151547432E0
2.573842352E0,-5.164309502E0,9.667003751E-1,4.197010994E0
2.594113029E0,-9.025727272E0,8.470591903E-1,2.355733871E0
2.614513394E0,-9.820742607E0,1.479362607E0,1.974676847E0
2.634655112E0,-9.229715347E0,3.509672642E0,3.473780155E0
2.654925946E0,-9.799206734E0,4.036093712E0,4.204189301E0
2.675196779E0,-8.216953278E0,3.258426189E0,2.827120066E0
2.695467508E0,-6.933203697E0,2.193022013E0,1.610967875E0
2.715865112E0,-9.126823425E0,1.414756417E0,5.455635786E-1
2.736173446E0,-1.126002502E1,8.853443861E-1,-2.231307179E-1
2.756427352E0,-8.798408508E0,4.881358147E-1,1.055832982E0
2.776542821E0,-6.579065800E0,1.172483116E-1,3.153141975E0
2.796815165E0,-6.232106686E0,6.460621208E-2,3.696312666E0
2.817087196E0,-1.121695423E1,-4.648058116E-1,4.699503899E0
2.837358915E0,-1.426900005E1,7.441678643E-1,3.165106058E0
2.857630425E0,-9.346963882E0,-3.762713671E-1,1.496112347E0
2.877901779E0,-7.893323898E0,-1.707278967E0,-5.892325640E-1
2.898173029E0,-3.516851187E0,-1.523031592E0,3.995415688E0
2.918443706E0,-4.228117466E0,-2.102692842E0,3.696312666E0
2.938716727E0,-2.028335953E1,-3.431307554E0,1.936391711E0
2.958987404E0,-1.847857285E1,-1.673779488E0,-7.256234884E-1
2.979258081E0,-8.044071198E0,-9.960124493E-1,8.733802438E-1
2.999658081E0,-6.617351055E0,-1.657029629E0,1.051047325E0
3.019799487E0,-9.303893089E0,-2.674577475E0,2.159522533E0
3.040070217E0,-9.571888924E0,-4.005585194E0,2.267199516E0
3.060340894E0,-9.342177391E0,-4.625924587E0,1.783251047E0
3.080740894E0,-8.855836868E0,-3.610769272E0,1.433898926E0
3.101040269E0,-4.244867325E0,-1.360319614E0,2.805584431E0
3.121153602E0,-5.372485161E0,-4.166502476E0,1.637288928E0
3.141424279E0,-1.067318535E1,-8.070990562E0,-2.270190477E0
3.161694852E0,-1.140359497E1,-5.320441246E0,-4.683351994E0
3.181965529E0,-1.303370476E1,-2.806182861E0,-3.986442566E0
3.202365529E0,-1.288295746E1,-3.589233875E0,-9.936196208E-1
3.222506831E0,-9.839884758E0,-5.246263504E0,1.627119333E-1
3.242777456E0,-5.114060402E0,-5.947360516E0,3.629313707E0
3.263048185E0,-3.569493294E0,-6.469594002E0,3.928416491E0
3.283318915E0,-5.032704353E0,-7.604390144E0,3.258426189E0
3.303718915E0,-6.823133945E0,-8.787042618E0,2.283949137E0
3.323860373E0,-7.134799004E0,-7.177869797E0,1.357328653E0
3.344131050E0,-7.713861942E0,-6.622735023E0,6.556333899E-1
3.364401779E0,-6.710670948E0,-7.984848976E0,-2.973082066E-1
3.384672508E0,-5.231308460E0,-7.958528042E0,-1.245464206E0
3.405072508E0,-5.851049423E0,-7.678567886E0,-1.530210137E0
3.425370737E0,-6.440282345E0,-7.225726128E0,-1.307677627E0
3.445484175E0,-6.957131863E0,-6.754340172E0,-2.805584669E-1
3.465755008E0,-7.051050186E0,-5.777470112E0,-5.413761139E-1
3.486025790E0,-6.318248272E0,-5.217549801E0,-1.128215909E0
3.506296623E0,-7.189833641E0,-6.280561447E0,9.379864931E-1
3.526567456E0,-7.252047062E0,-5.822933674E0,2.654836655E0
3.546838237E0,-6.306283951E0,-6.739983082E0,8.255237937E-1
3.567108967E0,-5.556732178E0,-8.082955360E0,-5.126622319E-1
3.587379748E0,-5.116453171E0,-7.963313580E0,-7.806583643E-1
3.607650529E0,-4.481756687E0,-8.526225090E0,4.283152521E-1
3.627921310E0,-4.027120590E0,-9.337391853E0,9.762716293E-1
3.648192092E0,-4.165904045E0,-9.469595909E0,5.551348329E-1
3.668462821E0,-4.395615101E0,-4.891527653E0,4.378865361E-1
3.688737560E0,-4.175475597E0,1.888535261E0,-3.332005441E-1
3.709042925E0,-3.332603693E0,-2.825325251E0,-2.023131609E0
3.729274592E0,-1.022333503E0,-7.288537979E0,-1.609173268E-1
3.749545425E0,-4.450650215E-1,-8.822935104E0,5.551348329E-1
3.769816258E0,-1.842473447E-1,-9.208179474E0,1.565504193E0
3.790086987E0,-1.321436286E0,-1.275434303E1,2.786442041E0
3.810487092E0,-2.173879385E0,-2.347299194E1,7.369893789E-1
3.830628654E0,-3.000001431E0,-2.701616478E1,-5.700899959E-1
3.850899487E0,-1.228116274E0,-1.516032600E1,-1.144965649E0
3.871170321E0,-2.578266382E0,4.283152521E-1,1.618146300E0
3.891441050E0,-2.315055847E0,-1.023529911E1,4.984249592E0
3.911847040E0,2.638086975E-1,-1.068814087E1,5.700301647E0
3.932094071E0,1.070189953E0,-1.096331501E1,4.237689018E0
3.952248290E0,1.074975610E0,-1.028076267E1,3.394817114E0
3.972518915E0,1.579262912E-1,-9.816555023E0,3.260818958E0
3.992928029E0,-8.476574421E-1,-1.006780148E1,3.349353552E0
4.013211102E0,-1.271187067E0,-1.022572803E1,2.958725214E0
4.033327144E0,-9.266205430E-1,-1.030469036E1,1.701895118E0
4.053599800E0,1.435693651E-1,-1.036451149E1,-9.571290575E-3
4.073872144E0,7.136593461E-1,-9.790233612E0,-6.897311211E-1
4.094142821E0,7.686942816E-1,-8.564510345E0,-9.170492887E-1
4.114544123E0,2.344966233E-1,-7.582854748E0,-6.681957245E-1
4.134686675E0,-8.811569214E-1,-7.465606689E0,1.220937729E0
4.154958237E0,-2.367697954E0,-7.843672752E0,1.680359721E0
4.175229592E0,-3.617349625E0,-8.669795036E0,1.866999865E0
4.195500373E0,-4.747360229E0,-9.471988678E0,3.071187973E0
4.215908862E0,-5.176273346E0,-9.754341125E0,4.134199142E0
4.236207248E0,-4.924428940E0,-9.754341125E0,3.890131474E0
4.256461415E0,-4.486542225E0,-9.234500885E0,3.160320520E0
4.276577404E0,-4.278367043E0,-8.018348694E0,2.781656265E0
4.296849904E0,-4.828716278E0,-6.893123627E0,2.683550596E0
4.317122248E0,-5.657230854E0,-6.936194420E0,2.453839540E0
4.337394071E0,-6.040680885E0,-7.300501823E0,2.379662037E0
4.357665842E0,-5.231308460E0,-7.874779224E0,2.786442041E0
4.377937352E0,-4.381258488E0,-8.519046783E0,3.066402197E0
4.398208758E0,-4.242474556E0,-8.712865829E0,2.906083107E0
4.418479592E0,-3.981656790E0,-8.389834404E0,2.228914261E0
4.438752925E0,-3.368496180E0,-7.905886173E0,1.328614831E0
4.459023758E0,-2.709871531E0,-8.614759445E0,1.009771109E0
4.479294540E0,-2.535195589E0,-1.297208977E1,1.158724308E0
4.499694540E0,-3.141177893E0,-1.750409508E1,3.042474031E0
4.519836206E0,-3.248854876E0,-1.220818138E1,4.069592953E0
4.540107040E0,-1.531406492E-1,-8.526225090E0,1.275972724E0
4.560377821E0,2.416152716E0,-8.337192535E0,1.560718536E0
4.580648706E0,1.156331539E0,-8.478368759E0,6.867401004E-1
4.601048706E0,-6.245267391E-1,-9.694520950E0,-1.953739643E0
4.621190425E0,-1.601396561E0,-1.012522888E1,-2.425724030E0
4.641461258E0,-1.972882271E0,-9.823733330E0,-1.934597135E0
4.661732092E0,-2.295913219E0,-9.136395454E0,-1.932204247E0
4.682002977E0,-2.678765059E0,-8.882756233E0,-2.001596212E0
4.702402977E0,-2.995215654E0,-9.448060036E0,-1.934597135E0
4.722544696E0,-2.791227579E0,-1.016112137E1,-1.041476011E0
4.742815581E0,-2.736192703E0,-1.020897770E1,-5.084748194E-2
4.763086467E0,-2.812762976E0,-9.538987160E0,2.632104978E-2
4.783357352E0,-2.372483730E0,-8.588438988E0,-6.999006122E-2
4.803757352E0,-1.975275040E0,-8.361120224E0,-1.585244983E-1
4.824057040E0,-2.061416626E0,-9.346963882E0,-1.130608693E-1
4.844170581E0,-2.154736757E0,-1.010847950E1,1.459621787E-1
4.864441362E0,-1.713859200E0,-1.004626560E1,2.321037948E-1
4.884841362E0,-1.450648785E0,-9.605986595E0,2.871387079E-2
4.905140894E0,-1.563111424E0,-9.361918449E0,-2.901297510E-1
4.925404696E0,-1.666002750E0,-9.248857498E0,-7.615157962E-1
4.945517821E0,-1.773679733E0,-9.529416084E0,-1.348355532E0
4.965790112E0,-1.699502230E0,-9.622735977E0,-1.678565025E0
4.986060894E0,-1.543968797E0,-9.625128746E0,-1.707278967E0
5.006462092E0,-1.421934843E0,-9.905089378E0,-1.575673699E0
5.026604696E0,-1.340578914E0,-1.005823040E1,-1.417747378E0
5.046876258E0,-1.259222865E0,-9.579665184E0,-1.314856052E0
5.067147769E0,-1.151545882E0,-9.483952522E0,-1.259821177E0
5.087419123E0,-1.237687469E0,-1.002951622E1,-1.202393413E0
5.107690373E0,-1.283151150E0,-1.009412193E1,-1.128215909E0
5.127961623E0,-1.187438250E0,-9.759127617E0,-9.696913958E-1
5.148232717E0,-1.249651670E0,-9.629914284E0,-7.782655358E-1
5.168503862E0,-1.500898004E0,-9.756733894E0,-7.399803996E-1
5.188782925E0,-1.860419631E0,-1.005823040E1,-9.505487680E-1
5.209123133E0,-2.190629244E0,-1.008455086E1,-1.036690354E0
5.229315894E0,-2.410768747E0,-9.964909554E0,-1.027119160E0
5.249587144E0,-2.681157827E0,-1.065224838E1,-1.066002488E0
5.269858290E0,-3.095714331E0,-1.100638580E1,-1.255035520E0
5.290129227E0,-2.925823927E0,-1.022333431E1,-1.652244091E0
5.310529435E0,-2.897109985E0,-8.810971260E0,-1.432104349E0
5.330671467E0,-2.949752092E0,-8.118846893E0,-7.567301393E-1
5.350942560E0,-3.303889751E0,-8.705686569E0,-1.704886109E-1
5.371213602E0,-2.750549555E0,-9.067003250E0,3.392424345E0
5.391484592E0,-1.673181176E0,-9.136395454E0,4.785645485E0
5.411890633E0,-1.304686546E0,-9.991230965E0,4.378865361E-1
5.432153810E0,-1.486541033E0,-1.120738316E1,-9.266205430E-1
5.452446831E0,-1.007976532E0,-1.204546928E1,-1.372283816E0
5.472562196E0,-8.356932998E-1,-1.240917778E1,-1.463211060E0
5.492833133E0,-1.029511929E0,-1.249113274E1,-8.045865893E-1
5.513234540E0,-1.661217093E0,-1.166740322E1,-1.896311939E-1
5.533377508E0,-1.884347796E0,-1.027597713E1,-6.490531564E-1
5.553649331E0,-1.905883193E0,-9.016754150E0,-4.719842672E-1
5.573920998E0,-2.169093609E0,-7.728816986E0,9.714859724E-1
5.594191935E0,-2.327019930E0,-6.876374245E0,1.929213285E0
5.614592508E0,-2.097309113E0,-6.797410965E0,1.161117196E0
5.634734904E0,-1.913061738E0,-7.403393269E0,6.699903607E-1
5.655006310E0,-1.975275040E0,-8.260024071E0,6.436693072E-1
5.675273654E0,-2.391626120E0,-8.590831757E0,6.101697683E-1
5.695505269E0,-2.583052158E0,-8.621937752E0,4.689932466E-1
5.715905269E0,-3.067000389E0,-8.511868477E0,7.824530005E-1
5.736252717E0,-3.832703590E0,-7.817351341E0,1.302293777E0
5.756507144E0,-4.333401680E0,-7.017550468E0,1.625324726E0
5.776623550E0,-5.121238708E0,-7.934599876E0,1.893320918E0
5.796896571E0,-6.495316982E0,-9.299106598E0,1.749751568E0
5.817169227E0,-7.309474945E0,-1.073360443E1,1.496112347E0
5.837441519E0,-7.661220074E0,-1.077906799E1,2.374876499E0
5.857713498E0,-6.684350014E0,-9.224929810E0,2.484946251E0
5.877984487E0,-4.828716278E0,-7.463213921E0,8.183453679E-1
5.898385425E0,-3.986442566E0,-7.853243828E0,9.571290761E-2
5.918527352E0,-3.093321562E0,-1.246899891E1,-2.949153781E-1
5.938801935E0,-2.630908489E0,-1.738206100E1,-4.265206456E-1
5.959072925E0,-2.949752092E0,-1.382692528E1,8.829515576E-1
5.979343967E0,-1.548754454E0,-8.224131584E0,-1.479960799E0
5.999743967E0,3.595215976E-1,-7.144370079E0,-1.003190875E0
6.019885946E0,3.165106058E0,-6.842874527E0,4.730610371E0
6.040156987E0,1.134796143E0,-8.490332603E0,9.762716293E-1
6.060428029E0,-7.154539824E-1,-1.100877857E1,-3.134597778E0
6.080699019E0,-6.987041831E-1,-1.296730423E1,-3.304488182E0
6.101099019E0,-9.050851464E-1,-1.160997581E1,-2.940180779E0
6.121241050E0,-6.699903607E-1,-9.725627899E0,-2.882753134E0
6.141512092E0,-6.388836503E-1,-8.581260681E0,-2.509472847E0
6.161783133E0,-9.290133715E-1,-8.281558990E0,-1.977667928E0
6.182054175E0,-1.216152072E0,-8.416155815E0,-1.257428288E0
6.202454175E0,-1.457827210E0,-8.401798248E0,-8.763712645E-1
6.222596310E0,-1.548754454E0,-8.502297401E0,-8.811569214E-1
6.242867352E0,-1.625324726E0,-9.229715347E0,-9.888339639E-1
6.263138394E0,-1.843669891E0,-9.964909554E0,-7.519445419E-1
6.283409435E0,-2.092523336E0,-9.972088814E0,-1.800599098E-1
6.303809435E0,-2.228914261E0,-9.510273933E0,7.657032460E-2
6.323951519E0,-2.288734913E0,-8.889934540E0,-8.434699476E-2
6.344351519E0,-2.303091764E0,-8.758329391E0,-3.164508045E-1
6.364493602E0,-2.324627161E0,-9.071788788E0,-4.336991012E-1
6.384764644E0,-2.504088879E0,-9.220144272E0,-5.724828243E-1
6.405164644E0,-2.688336134E0,-9.306285858E0,-6.897311211E-1
6.425465008E0,-2.616551638E0,-9.282357216E0,-6.370890141E-1
6.445577769E0,-2.350948334E0,-9.663414001E0,-4.791627228E-1
6.465848915E0,-1.989632010E0,-9.842875481E0,-5.006981492E-1
6.486119956E0,-1.934597135E0,-1.030947590E1,-7.088736892E-1
6.506390998E0,-2.209771633E0,-1.140120125E1,-1.336391449E0
6.526662092E0,-2.623729944E0,-1.232782269E1,-1.944168448E0
6.546933133E0,-3.177070379E0,-1.165065384E1,-2.044667006E0
6.567204227E0,-3.612564087E0,-1.137727356E1,-1.348355532E0
6.587475321E0,-4.041477680E0,-1.211725426E1,-7.519445419E-1
6.607746362E0,-3.715455294E0,-1.009890842E1,4.785645287E-3
6.628017456E0,-3.205784082E0,-8.061419487E0,1.737787485E0
6.648288550E0,-2.978466034E0,-7.678567886E0,2.999403238E0
6.668559592E0,-2.726621389E0,-9.165108681E0,2.321037948E-1
6.688830685E0,-1.932204247E0,-1.184447193E1,-1.142572761E0
6.709220581E0,-7.854440212E-1,-1.519382572E1,-1.795813441E0
6.729372873E0,9.242277741E-1,-1.752563095E1,2.360519648E0
6.749643915E0,1.889133453E0,-1.567059517E1,7.608577728E0
6.769915008E0,1.674975902E-1,-1.120738316E1,6.939185411E-2
6.790186102E0,2.153540403E-1,-8.834898949E0,-1.601994753E0
6.810586102E0,-6.699903309E-2,-6.749554634E0,-1.884347796E0
6.830728342E0,-5.790630579E-1,-5.526223660E0,-1.070788145E0
6.850999383E0,-1.003190875E0,-5.684150219E0,-1.734796353E-2
6.871270477E0,-1.244866014E0,-6.460022926E0,-9.152546525E-2
6.891541571E0,-1.831705689E0,-7.429714203E0,-4.935196638E-1
6.911947560E0,-2.614158630E0,-7.905886173E0,3.110669367E-2
6.932195165E0,-2.518445730E0,-7.613961697E0,8.781659007E-1
6.952349696E0,-1.307079315E0,-6.804589272E0,9.667003751E-1
6.972621883E0,-1.113260746E0,-6.357131481E0,7.465606928E-1
6.992892925E0,-1.692323804E0,-6.369095802E0,7.274180651E-1
7.013293810E0,-3.227319479E0,-7.759923935E0,1.000199914E0
7.033436623E0,-5.267200947E0,-1.022333431E1,4.165904045E0
7.053708237E0,-8.024929047E0,-1.268495083E1,8.010572433E0
7.073979800E0,-8.355736732E0,-1.329512119E1,5.740979671E0
7.094250946E0,-7.986643791E0,-1.145922756E1,4.052843571E0
7.114651310E0,-6.035895348E0,-9.303893089E0,3.854238987E0
7.134793758E0,-2.719442844E0,-8.581260681E0,2.858226538E0
7.155065165E0,-1.756929994E0,-1.464347649E1,9.092725813E-2
7.175336415E0,-2.776870728E0,-1.656551170E1,-2.428116798E0
7.195607456E0,-2.291127682E0,-1.028794098E1,-2.763111830E0
7.216015581E0,4.785645381E-2,-6.938587666E0,-1.530210137E0
7.236298550E0,2.473580360E0,-6.596413612E0,1.644467354E0
7.256414279E0,1.597209096E0,-9.395418167E0,-3.355933726E-1
7.276686935E0,4.217349887E-1,-1.178465176E1,-2.617149830E0
7.296959123E0,-2.871387079E-2,-1.206939697E1,-3.347558975E0
7.317231206E0,-2.225325108E-1,-1.122173977E1,-3.105285645E0
7.337503029E0,-2.249253243E-1,-9.431310654E0,-2.542972326E0
7.357774696E0,-4.019941986E-1,-7.872386456E0,-1.891526341E0
7.378046310E0,-6.053841114E-1,-7.220940590E0,-1.400997639E0
7.398317821E0,-9.409775138E-1,-7.369893551E0,-1.027119160E0
7.418588915E0,-1.371685624E0,-8.382656097E0,-7.710871100E-1
7.438861675E0,-1.968096614E0,-9.334999084E0,4.426721931E-1
7.459132821E0,-2.240878344E0,-9.543772697E0,9.667003751E-1
7.479403915E0,-2.233700037E0,-9.584450722E0,2.727817893E-1
7.499803915E0,-2.298306227E0,-9.553344727E0,-1.345962733E-1
7.519946102E0,-2.403590441E0,-9.527023315E0,-4.887340367E-1
7.540346102E0,-2.609373093E0,-9.385847092E0,-4.504488707E-1
7.560488394E0,-2.786442041E0,-9.212965012E0,-3.475574851E-1
7.580888394E0,-2.916252613E0,-8.995218277E0,-4.456632137E-1
7.601188602E0,-3.002394199E0,-8.990432739E0,-7.495517135E-1
7.621302300E0,-3.016751051E0,-1.041775131E1,-8.811569214E-1
7.641573342E0,-2.889931440E0,-1.136291695E1,-1.007976532E0
7.661844383E0,-2.386840582E0,-1.108056355E1,-1.073180914E0
7.682115373E0,-1.901097536E0,-1.018983555E1,-1.003190875E0
7.702515373E0,-2.315055847E0,-9.661021233E0,-7.256234884E-1
7.722657612E0,-2.985644341E0,-1.018026352E1,-2.709871531E-1
7.742928706E0,-4.237689018E0,-1.110688496E1,1.914258115E-2
7.763199748E0,-4.639683247E0,-9.802198410E0,8.398807645E-1
7.783470894E0,-4.213760853E0,-9.486345291E0,1.756929994E0
7.803870894E0,-2.729014158E0,-1.123609734E1,-3.571287692E-1
7.824171050E0,-2.532802820E0,-1.392503166E1,-1.683350682E0
7.844284852E0,-1.809572101E0,-1.721935081E1,-2.231905222E0
7.864555842E0,-6.269195080E-1,-1.737966919E1,-2.227119684E0
7.884826831E0,-9.571290575E-3,-1.352303696E1,-1.836491346E0
7.905226831E0,-1.938186288E-1,-9.438488960E0,-1.403390527E0
7.925515060E0,1.722832322E-1,-7.261618614E0,1.555334777E-1
7.945635790E0,-1.339980662E-1,-5.732006550E0,1.905285001E0
7.965907769E0,-5.000999570E-1,-5.988038540E0,8.494520187E-1
7.986179435E0,-2.656033039E-1,-7.089335442E0,-4.384847581E-1
8.006451102E0,-4.211367965E-1,-8.271987915E0,-6.969096065E-1
8.026722717E0,-8.668000102E-1,-9.356534958E0,-6.562315822E-1
8.046994175E0,-1.594218135E0,-9.320642471E0,-7.178467698E-3
8.067265581E0,-6.317051649E-1,-8.377870560E0,8.183453679E-1
8.087536935E0,4.193421602E-1,-7.960920811E0,1.070189953E0
8.107808290E0,9.332008660E-2,-7.429714203E0,6.675975323E-1
8.128079540E0,-1.433898926E0,-7.101299286E0,4.905286431E-1
8.148350737E0,-3.241676569E0,-8.092526436E0,1.828714728E0
8.168621987E0,-4.956133842E0,-9.397810936E0,4.119842529E0
8.188893133E0,-5.910870075E0,-1.070010471E1,3.409173965E0
8.209293185E0,-5.891727448E0,-1.073599720E1,1.579861164E0
8.229435529E0,-5.963512421E0,-9.294321060E0,-2.931207791E-2
8.249706727E0,-5.274379253E0,-9.574879646E0,-2.039881349E-1
8.269977873E0,-4.651647091E0,-1.523211098E1,-3.332005441E-1
8.290249019E0,-5.367699623E0,-1.530150223E1,1.173081279E0
8.310649071E0,-1.555932879E0,-7.795815945E0,1.914258152E-1
8.330791310E0,2.288734913E0,-6.124429703E0,4.503292084E0
8.351062404E0,1.305284739E0,-8.605188370E0,1.139581800E0
8.371333654E0,-3.134597540E-1,-1.163868904E1,-2.688934565E0
8.391604800E0,-1.247258782E0,-1.285244846E1,-4.326821327E0
8.412010737E0,-1.115653515E0,-1.142512989E1,-3.991228104E0
8.432258446E0,-6.245267391E-1,-9.236893654E0,-3.146561861E0
8.452413029E0,-4.450650215E-1,-7.724031448E0,-2.248655081E0
8.472684071E0,-6.077769399E-1,-7.017550468E0,-1.657029629E0
8.493093185E0,-8.548358679E-1,-6.902695179E0,-1.269392371E0
8.513376935E0,-8.117650747E-1,-7.606783390E0,-1.121037364E0
8.533493342E0,-7.010970116E-1,-8.576474190E0,-7.950153351E-1
8.553766310E0,-9.409775138E-1,-9.299106598E0,-3.308077157E-1
8.574039019E0,-1.297508121E0,-9.677771568E0,-2.470589429E-1
8.594310060E0,-1.381256819E0,-9.818947792E0,-4.097708762E-1
8.614711415E0,-1.867598057E0,-1.006540871E1,-3.954139352E-1
8.634854644E0,-2.350948334E0,-1.028794098E1,-2.039881349E-1
8.655126571E0,-2.642872572E0,-1.036451149E1,4.307080805E-2
8.675398342E0,-2.889931440E0,-1.003190899E1,-9.870393574E-2
8.695669383E0,-3.081357241E0,-1.052782154E1,-4.097708762E-1
8.716077873E0,-3.124428272E0,-1.151904774E1,-5.988038778E-1
8.736357300E0,-3.172284603E0,-1.122652531E1,-3.236292601E-1
8.756438862E0,-3.167499065E0,-1.004387283E1,-1.322034448E-1
8.776750685E0,-3.610171080E0,-9.388239861E0,-3.858426511E-1
8.797022873E0,-4.314259052E0,-1.049671459E1,-4.911268353E-1
8.817295060E0,-4.582255363E0,-9.967302322E0,-4.169493318E-1
8.837566935E0,-4.139583111E0,-9.069396019E0,2.799602449E-1
8.857838706E0,-3.009572744E0,-1.018026352E1,9.332008362E-1
8.878110321E0,-2.520838737E0,-1.223210907E1,-2.470589429E-1
8.898381883E0,-2.032702923E0,-1.545464325E1,-1.628315806E0
8.918652977E0,-7.830511928E-1,-1.812204170E1,-2.267797709E0
8.938925790E0,4.049852192E-1,-1.686042595E1,-1.941775560E0
8.959196935E0,6.418746710E-1,-1.185404301E1,5.705087185E0
8.979468081E0,2.057827413E-1,-9.167501450E0,5.175675392E0
8.999868081E0,6.035895348E-1,-8.157132149E0,-3.762713671E-1
9.020010321E0,4.624129832E-1,-6.634698868E0,-1.523031592E0
9.040281467E0,-1.292124242E-1,-5.521438122E0,-6.466603279E-1
9.060552612E0,-3.302095234E-1,-5.708078384E0,-4.456632137E-1
9.080823758E0,-4.929214716E-1,-6.299703598E0,-7.471588850E-1
9.101223758E0,-9.696913958E-1,-7.158727169E0,-1.255035520E0
9.121366050E0,-1.807179332E0,-7.788637638E0,-1.068395257E0
9.141637196E0,-1.594218135E0,-8.142775536E0,2.344966233E-1
9.161908342E0,-6.460621208E-2,-7.858029366E0,7.872386575E-1
9.182179487E0,1.962114573E-1,-7.563712597E0,7.489534616E-1
9.202579487E0,-4.618147612E-1,-7.769495010E0,1.158724308E0
9.222721727E0,-3.050250769E0,-9.287142754E0,3.167499065E0
9.242992873E0,-7.364510059E0,-1.184207916E1,9.095118523E0
9.263264019E0,-9.959526062E0,-1.290269756E1,9.035298347E0
9.283535165E0,-1.046500969E1,-1.178225899E1,4.321437836E0
9.303935165E0,-1.031426239E1,-8.968897820E0,3.899702787E0
9.324077456E0,-7.692326546E0,-9.291928291E0,1.553540111E0
9.344348602E0,-3.205784082E0,-1.576870155E1,-2.392224550E0
9.364619748E0,-2.013560295E0,-1.537567997E1,-3.175275564E0
9.385019748E0,3.714857101E-1,-8.710473061E0,-6.442674994E-1
9.405320008E0,3.976871252E0,-7.225726128E0,4.359723091E0
9.425594956E0,2.056631088E0,-9.141180992E0,2.225325108E-1
9.445701258E0,1.898704767E0,-1.200479126E1,-3.139383316E0
9.465972977E0,1.568495274E0,-1.183968639E1,-4.377070904E0
9.486244123E0,8.285148144E-1,-1.041296577E1,-4.055834293E0
9.506644644E0,7.232306600E-1,-9.323035240E0,-2.954537868E0
9.526787300E0,2.853440940E-1,-8.231309891E0,-2.013560295E0
9.547058862E0,-1.627119333E-1,-7.286144733E0,-1.518245935E0
9.567330217E0,-6.508477330E-1,-7.125227451E0,-1.147358418E0
9.587601571E0,-1.120439172E0,-7.860422611E0,-9.553344250E-1
9.607872925E0,-1.874776483E0,-9.725627899E0,1.004985496E-1
9.628144123E0,-3.390031576E0,-1.012522888E1,4.103092670E0
9.648415321E0,-2.973680258E0,-9.495916367E0,2.822334290E0
9.668686571E0,-2.082952023E0,-9.150752068E0,2.033899277E-1
9.688957717E0,-2.169093609E0,-9.299106598E0,-4.336991012E-1
9.709357769E0,-2.472982168E0,-9.157930374E0,-8.356932998E-1
9.729500165E0,-2.690729141E0,-9.332606316E0,-8.380861282E-1
9.749771310E0,-2.752942562E0,-9.291928291E0,-8.285148144E-1
9.770042508E0,-2.877967358E0,-9.527023315E0,-8.500502706E-1
9.790313654E0,-2.925823927E0,-1.109252739E1,-1.034297585E0
9.810713706E0,-2.724228621E0,-1.214118195E1,-1.384247899E0
9.830855998E0,-1.905883193E0,-1.146879864E1,-1.012762189E0
9.851127092E0,-2.310270309E0,-1.063789082E1,-5.605186820E-1
9.871398290E0,-3.287140131E0,-1.020419216E1,-5.700899959E-1
9.891669435E0,-4.316651821E0,-1.068574810E1,-1.106680483E-1
9.912075373E0,-5.121238708E0,-1.004626560E1,9.308080077E-1
9.932338915E0,-5.164309502E0,-8.375477791E0,2.331805706E0
9.952632040E0,-3.919443607E0,-9.462417603E0,1.938186288E-1
9.972747612E0,-2.853441000E0,-1.217946720E1,-8.404789567E-1
9.993018602E0,-2.539981127E0,-1.617069626E1,-1.616351724E0
1.001342001E1,-1.584646821E0,-1.857907104E1,-1.850848317E0
1.003356334E1,-2.057827413E-1,-1.626880074E1,-1.901097536E0
1.005383527E1,9.332008660E-2,-1.166501045E1,-1.104287624E0
1.007410704E1,4.265206456E-1,-8.452047348E0,1.895713687E0
1.009437813E1,3.978067636E-1,-6.933801651E0,2.012962103E0
1.011477871E1,1.028913707E-1,-6.649055958E0,5.264209956E-2
1.013492147E1,-5.024927482E-2,-6.330810547E0,-1.322034448E-1
1.015519298E1,-3.254238665E-1,-6.369095802E0,-1.752742529E-1
1.017546433E1,-4.139583111E-1,-6.883552551E0,-6.753742099E-1
1.019573542E1,-4.067798555E-1,-7.223333359E0,-1.075573802E0
1.021614365E1,1.914258115E-2,-7.360322475E0,-9.361918569E-1
1.023642678E1,7.686942816E-1,-6.907480717E0,-5.102694035E-1
1.025654256E1,1.101296663E0,-7.041478634E0,-2.255235314E-1
1.027681522E1,9.002995491E-1,-7.673782349E0,4.450650215E-1
1.029708756E1,-9.720842242E-1,-9.119645119E0,2.458625317E0
1.031735959E1,-6.002395630E0,-1.198086262E1,9.138189316E0
1.033763147E1,-9.787242889E0,-1.442513084E1,1.192283726E1
1.035790319E1,-9.150752068E0,-1.353260803E1,3.361317635E0
1.037817428E1,-9.220144272E0,-9.778269768E0,1.536790371E0
1.039857480E1,-7.469794273E0,-7.377072334E0,2.642872572E0
1.041871709E1,-4.295116425E0,-1.394178104E1,-5.318048596E-1
1.043899037E1,-3.313461065E0,-1.687717628E1,-2.868396044E0
1.045926147E1,-1.252044439E0,-9.921838760E0,-1.659422517E0
1.047953261E1,1.058225870E0,-7.764709473E0,-3.170489892E-2
1.049993261E1,1.858026743E0,-8.106883049E0,3.852444589E-1
1.052007485E1,1.697707653E0,-9.955338478E0,-1.697707653E0
1.054034595E1,1.613958836E0,-1.094656563E1,-3.078964472E0
1.056061709E1,1.122832060E0,-1.086281681E1,-3.397808075E0
1.058088819E1,6.394818425E-1,-1.022812080E1,-2.877967358E0
1.060128819E1,2.781656384E-1,-8.909076691E0,-2.162513494E0
1.062143048E1,7.178468257E-2,-7.752745152E0,-1.479960799E0
1.064170162E1,-3.254238665E-1,-7.424928665E0,-9.266205430E-1
1.066197277E1,-1.125224829E0,-8.035098076E0,2.392822644E-3
1.068224392E1,-2.880360365E0,-9.378668785E0,3.677170277E0
1.070264392E1,-2.776870728E0,-9.351749420E0,3.323032379E0
1.072278615E1,-1.797608018E0,-9.090931892E0,3.589234054E-1
1.074305725E1,-1.759322882E0,-9.248857498E0,-5.796613097E-1
1.076332839E1,-1.867598057E0,-9.217751503E0,-1.111466169E0
1.078359954E1,-2.200200319E0,-9.201001167E0,-1.269392371E0
1.080399954E1,-2.523231506E0,-9.476774216E0,-1.434497118E0
1.082429975E1,-2.904288530E0,-9.505488396E0,-1.357926846E0
1.084457100E1,-3.248854876E0,-9.926624298E0,-1.176072359E0
1.086468480E1,-3.457030535E0,-1.157408333E1,-1.066002488E0
1.088495574E1,-3.064607620E0,-1.204546928E1,-8.045865893E-1
1.090535574E1,-2.518445730E0,-1.096092224E1,-3.332005441E-1
1.092564089E1,-3.191427231E0,-1.011326504E1,-5.700899959E-1
1.094576360E1,-3.626920938E0,-9.584450722E0,-6.442674994E-1
1.096603574E1,-4.374079704E0,-9.728020668E0,-8.673982322E-2
1.098630766E1,-5.011168957E0,-9.534201622E0,3.756731451E-1
1.100657938E1,-4.876572609E0,-8.200202942E0,1.488933921E0
1.102685100E1,-4.201796532E0,-9.424132347E0,9.523434043E-1
1.104712261E1,-2.868396044E0,-1.237807178E1,-6.634100676E-1
1.106739407E1,-2.578266382E0,-1.672403526E1,-1.503889084E0
1.108766542E1,-1.498505235E0,-2.079901314E1,-1.333998680E0
1.110793678E1,4.049852192E-1,-1.845943069E1,1.555932879E0
1.112820813E1,5.796613097E-1,-1.205025482E1,6.555137634E0
1.114847933E1,6.699903309E-2,-8.971290588E0,-4.366901144E-2
1.116875058E1,2.392822644E-3,-6.663413048E0,-1.824527264E0
1.118902168E1,-1.220339537E-1,-5.337191105E0,-1.427318692E0
1.120942178E1,-8.853443712E-2,-4.800600529E0,-7.854440212E-1
1.122956412E1,-4.785645381E-2,-5.265406132E0,-1.027119160E0
1.124983527E1,-8.614161611E-2,-6.239883423E0,-1.774278045E0
1.127010647E1,-4.977070987E-1,-7.381857872E0,-1.872383714E0
1.129037761E1,-7.585247755E-1,-7.259225845E0,-2.255235314E-1
1.131077767E1,2.440679073E-1,-6.771090031E0,7.680960894E-1
1.133091990E1,7.351947427E-1,-6.294918060E0,9.308080077E-1
1.135119105E1,-1.507478207E-1,-6.448058605E0,1.299900889E0
1.137146214E1,-3.150749207E0,-8.317451477E0,2.475374937E0
1.139173329E1,-6.997809887E0,-1.250548935E1,8.441878319E0
1.141213928E1,-9.622138023E0,-1.588116360E1,8.496912956E0
1.143238699E1,-9.964311600E0,-1.483490181E1,3.784847260E0
1.145254152E1,-9.504889488E0,-1.031426239E1,3.124428272E0
1.147281371E1,-6.428318024E0,-1.371685600E1,1.024128079E0
1.149308475E1,-3.382853031E0,-1.739402580E1,-2.251047850E0
1.151348563E1,-1.462612867E0,-9.747162819E0,-2.191227436E0
1.153362855E1,5.318048596E-1,-6.247061729E0,-7.902296782E-1
1.155390016E1,1.762313843E0,-7.690532207E0,3.828516230E-2
1.157417178E1,1.597209096E0,-1.066899776E1,-1.051047325E0
1.159444287E1,1.381855130E0,-1.216989613E1,-2.483151674E0
1.161484324E1,1.305284739E0,-1.132223892E1,-3.404986620E0
1.163498574E1,1.194616675E0,-9.854840279E0,-3.462414265E0
1.165525709E1,8.476574421E-1,-8.056633949E0,-3.002394199E0
1.167553636E1,5.868397355E-1,-6.785446644E0,-2.082952023E0
1.169589266E1,1.555334777E-1,-6.390631199E0,-1.204786181E0
1.171623996E1,-3.349951804E-1,-7.298109055E0,-5.844469070E-1
1.173649329E1,-1.426720500E0,-9.311071396E0,1.268794179E0
1.175660845E1,-2.824727058E0,-1.018026352E1,4.354937077E0
1.177688058E1,-1.903490424E0,-9.795019150E0,1.572682738E0
1.179715251E1,-1.524826288E0,-9.646664619E0,-5.563312769E-2
1.181742423E1,-1.673181176E0,-9.538987160E0,-8.787640929E-1
1.183769589E1,-2.209771633E0,-9.512666702E0,-1.331605792E0
1.185796746E1,-2.695514679E0,-9.510273933E0,-1.494317770E0
1.187823897E1,-3.143570662E0,-9.383454323E0,-1.228714466E0
1.189851027E1,-3.691527128E0,-9.407382011E0,-1.152144074E0
1.191878142E1,-3.984049797E0,-1.072881889E1,-1.173679471E0
1.193905371E1,-3.751347780E0,-1.189232826E1,-1.302891970E0
1.195932475E1,-3.681955814E0,-1.122652531E1,-1.183250785E0
1.197959589E1,-3.758526087E0,-9.976874352E0,-5.437689424E-1
1.199999589E1,-4.019941807E0,-9.694520950E0,3.828516230E-2
1.202013813E1,-4.883750916E0,-1.037886810E1,5.407779217E-1
1.204040923E1,-5.018347263E0,-9.093324661E0,1.405185103E0
1.206068032E1,-4.575077057E0,-8.542975426E0,2.908475876E0
1.208108032E1,-2.559123755E0,-1.196172047E1,1.165902853E0
1.210138048E1,-2.262413740E0,-1.580459309E1,-2.470589429E-1
1.212149428E1,-1.800000787E0,-1.980299950E1,-1.295713425E0
1.214176527E1,-6.915257573E-1,-1.965165329E1,-1.357926846E0
1.216203626E1,3.714857101E-1,-1.407817173E1,5.383850932E-1
1.218230730E1,5.868397355E-1,-8.954540253E0,2.173879385E0
1.220270730E1,5.485545993E-1,-6.385845661E0,3.589234054E-1
1.222284944E1,1.292124242E-1,-5.205585480E0,-7.974081635E-1
1.224312053E1,2.392822690E-2,-4.680959225E0,-4.265206456E-1
1.226339157E1,-2.656033039E-1,-4.791028976E0,-2.973082066E-1
1.228366267E1,-4.929214716E-1,-5.708078384E0,-1.046261668E0
1.230406266E1,-8.404789567E-1,-7.122834682E0,-1.869990945E0
1.232420490E1,-1.206580877E0,-8.020741463E0,-1.482353687E0
1.234447595E1,-4.666004181E-1,-7.551748276E0,-1.872383654E-1
1.236474704E1,7.543373108E-1,-7.043871880E0,8.374879509E-2
1.238501819E1,7.950153351E-1,-6.792625427E0,2.727817893E-1
1.240541818E1,-8.069794178E-1,-7.573283672E0,9.858429432E-1
1.242571720E1,-4.082155228E0,-1.112602711E1,4.462614059E0
1.244583095E1,-9.851848602E0,-1.614437485E1,1.505683613E1
1.246610214E1,-1.088853931E1,-1.622333717E1,6.418746948E0
1.248637329E1,-1.099382401E1,-1.148076344E1,1.625324726E0
1.250664449E1,-8.319844246E0,-8.997611046E0,1.019342422E0
1.252691563E1,-6.000002861E0,-1.570170212E1,-2.056631088E0
1.254718678E1,-4.438685894E0,-1.520818233E1,-3.256631613E0
1.256745793E1,-1.254437327E0,-8.204988480E0,-2.533401012E0
1.258772907E1,7.136593461E-1,-5.877968788E0,-9.577272534E-1
1.260800016E1,2.109273195E0,-7.934599876E0,2.368894368E-1
1.262827126E1,1.848455548E0,-1.138923740E1,-1.479960799E0
1.264854240E1,2.006381750E0,-1.287398434E1,-2.772683144E0
1.266881350E1,1.879562140E0,-1.172722340E1,-3.481556892E0
1.268908459E1,1.467996716E0,-9.083752632E0,-2.621935368E0
1.270948459E1,9.984052777E-1,-7.029514790E0,-1.865205288E0
1.272962678E1,4.983053207E-1,-5.935396671E0,-1.152144074E0
1.274989792E1,6.939185411E-2,-6.424130440E0,-1.417747438E-1
1.277016897E1,-8.955138922E-1,-8.142775536E0,1.216152072E0
1.279044011E1,-2.260020971E0,-9.251250267E0,3.452244759E0
1.281084011E1,-2.030309916E0,-9.536594391E0,1.584646821E0
1.283098235E1,-1.867598057E0,-9.804591179E0,-4.127619043E-2
1.285125339E1,-1.963310957E0,-9.759127617E0,-6.394818425E-1
1.287152449E1,-2.049452543E0,-9.358927727E0,-1.094716311E0
1.289179558E1,-2.348555326E0,-9.210572243E0,-1.293320656E0
1.291219558E1,-2.638087034E0,-9.586843491E0,-1.515853167E0
1.293254267E1,-3.138785124E0,-9.744770050E0,-1.391426325E0
1.295260892E1,-3.760919094E0,-1.043450165E1,-1.195214868E0
1.297288001E1,-3.823132277E0,-1.197368431E1,-1.221535921E0
1.299328798E1,-3.509672642E0,-1.236371422E1,-1.121037364E0
1.301357084E1,-3.768097401E0,-1.094178009E1,-8.261220455E-1
1.303368647E1,-4.386044025E0,-9.811769485E0,-6.107679605E-1
1.305395897E1,-5.190630436E0,-9.862018585E0,-2.392822644E-3
1.307423115E1,-5.793622017E0,-8.968897820E0,1.548754454E0
1.309450214E1,-6.588637352E0,-7.604390144E0,4.014558315E0
1.311490308E1,-4.065405846E0,-1.045125103E1,-2.781656384E-1
1.313504600E1,-3.196212769E0,-1.476551056E1,-6.275177598E-1
1.315531761E1,-2.784049034E0,-2.039641953E1,-2.949153781E-1
1.317558865E1,-1.235294700E0,-2.286940193E1,2.321037948E-1
1.319599709E1,2.528615236E0,-1.776790428E1,6.232106686E0
1.321629600E1,1.249651670E0,-1.157408333E1,1.130010486E0
1.323655048E1,8.165507317E-1,-8.475975990E0,-4.528416991E-1
1.325666662E1,9.050851464E-1,-6.550950050E0,-1.850848317E0
1.327693949E1,1.192223907E0,-5.351547718E0,-1.901097536E0
1.329721199E1,1.415354609E0,-4.460819721E0,-4.217349887E-1
1.331748418E1,1.310070395E0,-4.274179459E0,-4.785645287E-3
1.333775615E1,8.811569214E-1,-5.279763222E0,-7.710871100E-1
1.335802798E1,7.399803996E-1,-6.617949009E0,-1.231107235E0
1.337829964E1,8.548358679E-1,-7.853243828E0,-1.051047325E0
1.339857110E1,1.204187989E0,-8.013563156E0,-1.274178028E-1
1.341884220E1,1.324427366E0,-7.477570534E0,8.231309652E-1
1.343911532E1,-2.584248483E-1,-6.787839413E0,1.510469317E0
1.345938636E1,-2.791227579E0,-8.228917122E0,2.157129526E0
1.347965740E1,-5.530411243E0,-1.186361504E1,5.379663467E0
1.350005740E1,-1.035494041E1,-1.678146362E1,1.001934624E1
1.352019959E1,-1.264128208E1,-1.755434418E1,4.711467743E0
1.354047063E1,-1.153520012E1,-1.170568848E1,3.911666870E0
1.356074173E1,-8.322237015E0,-9.507881165E0,2.968296528E0
1.358101282E1,-4.682754040E0,-1.586202145E1,-1.000798106E0
1.360141282E1,-2.391626120E0,-1.370249844E1,-3.187239647E0
1.362155501E1,-2.847459018E-1,-7.590033531E0,-2.035095692E0
1.364182605E1,8.691928387E-1,-6.493522644E0,-6.035895348E-1
1.366209714E1,1.922633052E0,-8.188239098E0,-3.068794906E-1
1.368236824E1,2.404188633E0,-1.154297638E1,-2.140978098E0
1.370276824E1,2.866003275E0,-1.268734360E1,-3.773481369E0
1.372291042E1,2.111665964E0,-1.120977592E1,-3.584448338E0
1.374318152E1,1.458425403E0,-8.968897820E0,-2.705684185E0
1.376345256E1,1.072582722E0,-7.254439831E0,-1.987239242E0
1.378372360E1,4.145565331E-1,-6.617949009E0,-1.300499082E0
1.380412360E1,-1.890329868E-1,-7.242475986E0,-8.572286963E-1
1.382442376E1,-8.237292171E-1,-8.590831757E0,-2.877369225E-1
1.384453751E1,-1.809572101E0,-9.914660454E0,7.609176040E-1
1.386480850E1,-2.513660192E0,-9.943374634E0,1.905285001E0
1.388520850E1,-2.090130568E0,-9.538987160E0,6.747759581E-1
1.390550839E1,-2.123630047E0,-9.282357216E0,-4.624129832E-1
1.392577246E1,-2.468196630E0,-9.572486877E0,-1.250249863E0
1.394588568E1,-3.208176851E0,-9.835697174E0,-1.884347796E0
1.396615813E1,-3.847060680E0,-9.864411354E0,-1.247856975E0
1.398642912E1,-4.331008911E0,-9.548559189E0,-8.739784956E-1
1.400683027E1,-4.886143684E0,-1.011565781E1,-1.188036442E0
1.402697329E1,-4.606183529E0,-1.182532978E1,-1.405783296E0
1.404724433E1,-3.531208038E0,-1.169372463E1,-8.955138922E-1
1.406757621E1,-3.289532900E0,-1.007976532E1,-5.916253924E-1
1.408797694E1,-3.289532900E0,-9.320642471E0,-6.969096065E-1
1.410805881E1,-4.520041943E0,-9.627521515E0,-3.116651475E-1
1.412833027E1,-5.221737385E0,-9.754341125E0,2.225325108E-1
1.414860183E1,-4.615755081E0,-8.691329956E0,4.290330887E0
1.416887313E1,-2.628515720E0,-1.044646549E1,1.113260746E0
1.418914423E1,-2.688336134E0,-1.381017590E1,-6.490531564E-1
1.420954449E1,-2.415554523E0,-1.872084618E1,-1.274178028E0
1.422968683E1,-1.220937729E0,-2.158625221E1,-1.831705689E0
1.424995803E1,8.853443712E-2,-1.784447479E1,-1.546959877E0
1.427022923E1,1.609173179E0,-1.154297638E1,3.464209080E0
1.429050027E1,2.073380709E0,-7.968099594E0,3.945166349E0
1.431090037E1,1.458425403E0,-6.684948444E0,-5.174478889E-1
1.433104261E1,9.242277741E-1,-5.751149178E0,-1.788634896E0
1.435131381E1,1.483550072E-1,-4.934598446E0,-9.720842242E-1
1.437158496E1,-2.847459018E-1,-4.776672363E0,-2.949153781E-1
1.439185600E1,-2.344966233E-1,-5.447260857E0,-1.017547846E0
1.441225600E1,-2.656033039E-1,-6.701697826E0,-1.884347796E0
1.443239818E1,-3.134597540E-1,-7.743174076E0,-1.345962763E0
1.445279824E1,3.355933726E-1,-7.525427341E0,-2.733799815E-1
1.447294042E1,1.163509965E0,-7.273582458E0,2.009970993E-1
1.449321147E1,6.299105883E-1,-7.654639721E0,8.327022791E-1
1.451361152E1,-2.389233351E0,-9.605986595E0,2.910868645E0
1.453375365E1,-7.252047062E0,-1.305344582E1,9.923633575E0
1.455402475E1,-1.106800079E1,-1.595055580E1,1.151605701E1
1.457429589E1,-1.131027412E1,-1.462433338E1,4.716253281E0
1.459456699E1,-1.024487019E1,-9.852447510E0,3.275176048E0
1.461496699E1,-6.648457527E0,-8.070990562E0,-3.978067636E-1
1.463510912E1,-3.789632797E0,-1.480140305E1,-2.842075109E0
1.465538022E1,-3.009572744E0,-1.504068470E1,-3.261417150E0
1.467565131E1,-1.507478207E-1,-8.375477791E0,-8.979067206E-1
1.469605928E1,1.290329576E0,-7.036693096E0,8.327022791E-1
1.471633428E1,2.006381750E0,-8.770293236E0,4.307080805E-1
1.473638089E1,2.054238319E0,-1.128395367E1,-2.224726915E0
1.475673147E1,1.853241086E0,-1.171286678E1,-3.701696634E0
1.477700339E1,1.235294700E0,-1.107338524E1,-3.605983734E0
1.479727511E1,7.639086246E-1,-9.351749420E0,-2.877967358E0
1.481754673E1,4.336991012E-1,-7.795815945E0,-2.039881229E0
1.483781819E1,1.076770201E-1,-6.962515831E0,-1.444068432E0
1.485808970E1,-2.368894368E-1,-7.031907558E0,-1.240678549E0
1.487836074E1,-6.508477330E-1,-7.884350777E0,-1.066002488E0
1.489876105E1,-1.393221021E0,-9.601201057E0,-1.369891018E-1
1.491890345E1,-2.303091764E0,-9.952945709E0,1.986641049E0
1.493917475E1,-2.114058733E0,-9.515059471E0,1.752144337E0
1.495944595E1,-1.639681697E0,-9.246464729E0,3.996013701E-1
1.497971714E1,-1.807179332E0,-9.143573761E0,-3.930211067E-1
1.499998834E1,-2.233700037E0,-9.088538170E0,-7.639086246E-1
1.502025944E1,-2.595016241E0,-9.284749985E0,-7.351947427E-1
1.504053053E1,-3.007179976E0,-9.512666702E0,-9.553344250E-1
1.506093063E1,-3.370888948E0,-1.099681473E1,-1.348355532E0
1.508107282E1,-3.669991732E0,-1.282373428E1,-1.858026743E0
1.510134392E1,-3.433102369E0,-1.245224857E1,-1.525424480E0
1.512161506E1,-3.512065411E0,-1.100877857E1,-7.543373108E-1
1.514188615E1,-4.314259052E0,-1.027836990E1,-9.625129104E-1
1.516215725E1,-5.281557560E0,-1.076471043E1,-1.154536963E0
1.518242829E1,-5.539982796E0,-9.610772133E0,-6.490531564E-1
1.520269938E1,-4.744967461E0,-7.915457249E0,3.780659735E-1
1.522297053E1,-4.185046673E0,-9.117252350E0,2.334198475E0
1.524324162E1,-2.779263496E0,-1.250070381E1,7.250252366E-1
1.526351272E1,-2.556730986E0,-1.635255051E1,-6.658028960E-1
1.528378376E1,-1.146760225E0,-2.011406708E1,-8.021938205E-1
1.530405485E1,7.878368497E-1,-1.768654823E1,1.287936807E0
1.532432595E1,2.025524378E0,-1.174636650E1,6.985845566E0
1.534459704E1,4.049852192E-1,-8.653044701E0,-2.452643216E-2
1.536486808E1,1.627119333E-1,-6.783053875E0,-1.920240164E0
1.538513918E1,3.349951655E-2,-5.545366287E0,-1.762313843E0
1.540541027E1,1.842473447E-1,-5.171487808E0,-9.290133715E-1
1.542568136E1,3.284149170E-1,-5.660222054E0,-5.198407173E-1
1.544595240E1,2.225325108E-1,-6.828517437E0,-1.061216831E0
1.546622345E1,9.571290575E-3,-7.733603001E0,-1.374676585E0
1.548649459E1,2.973082066E-1,-7.783852100E0,-6.586244106E-1
1.550676563E1,1.319641709E0,-6.838088989E0,1.196411327E-1
1.552703673E1,1.570888042E0,-6.395416737E0,1.770688742E-1
1.554730782E1,1.053440213E0,-6.830910206E0,4.139583111E-1
1.556770782E1,-9.026923180E-1,-8.916254997E0,1.465005636E0
1.558785001E1,-5.341378212E0,-1.336690521E1,7.162914753E0
1.560812110E1,-1.127916813E1,-1.704467392E1,1.333998585E1
1.562839220E1,-1.169791126E1,-1.539003658E1,4.472185612E0
1.564866324E1,-1.090528965E1,-1.047517967E1,1.689931035E0
1.566893433E1,-7.352545738E0,-1.023529911E1,-2.691925503E-2
1.568920542E1,-4.536791801E0,-1.724806404E1,-2.547757864E0
1.570947652E1,-3.033500910E0,-1.373360538E1,-2.899502754E0
1.572974756E1,-3.110669553E-1,-6.735197544E0,-1.436890006E0
1.575001865E1,1.070189953E0,-5.578866005E0,4.785645287E-3
1.577028975E1,2.094916344E0,-8.171489716E0,5.024927258E-1
1.579068975E1,2.356332064E0,-1.228953743E1,-1.477568030E0
1.581083188E1,2.547757864E0,-1.390588856E1,-3.440878868E0
1.583110298E1,1.946561217E0,-1.222732353E1,-3.816552162E0
1.585137407E1,1.415354609E0,-9.371489525E0,-2.990430117E0
1.587164516E1,9.577272534E-1,-7.079763889E0,-2.124228239E0
1.589191621E1,4.815555513E-1,-6.050251961E0,-1.499103427E0
1.591218730E1,-2.632104978E-2,-6.342774391E0,-1.147358418E0
1.593245839E1,-6.747759581E-1,-7.733603001E0,-6.155536175E-1
1.595285839E1,-1.673181176E0,-9.816555023E0,8.494520187E-1
1.597315850E1,-2.822334290E0,-1.036929703E1,3.025724173E0
1.599327225E1,-2.221735716E0,-9.811769485E0,1.029511929E0
1.601354324E1,-1.689931035E0,-9.256035805E0,-3.140579760E-1
1.603381423E1,-1.958525300E0,-9.169894218E0,-9.050851464E-1
1.605408516E1,-2.547159672E0,-9.287142754E0,-1.360319614E0
1.607435621E1,-3.093321562E0,-9.725627899E0,-1.381855130E0
1.609462720E1,-3.672384501E0,-9.728020668E0,-1.048654556E0
1.611489824E1,-4.340580463E0,-1.024008465E1,-1.180858016E0
1.613516933E1,-4.675575256E0,-1.191864967E1,-1.209571838E0
1.615544043E1,-4.278367043E0,-1.161954689E1,-4.959124923E-1
1.617571147E1,-4.060619831E0,-9.471988678E0,-1.010967568E-1
1.619598251E1,-4.165904045E0,-8.397012711E0,-1.058823988E-1
1.621625355E1,-5.094917774E0,-8.693722725E0,3.972085714E-1
1.623652459E1,-5.953940868E0,-9.601201057E0,3.859024763E0
1.625679568E1,-3.569493294E0,-1.019701385E1,1.654038668E0
1.627706678E1,-2.657229662E0,-1.311087322E1,-5.078766346E-1
1.629733782E1,-2.750549555E0,-1.770808411E1,-1.099501967E0
1.631760892E1,-1.862812400E0,-2.234776688E1,-1.697707653E0
1.633788001E1,-4.713860750E-1,-2.062613106E1,-1.826920033E0
1.635815105E1,4.480560422E-1,-1.444666672E1,-1.051047325E0
1.637842214E1,2.219342947E0,-9.294321060E0,5.853442192E0
1.639869324E1,2.164308071E0,-7.345965385E0,2.374876499E0
1.641896423E1,1.606780410E0,-6.294918060E0,-8.811569214E-1
1.643923532E1,1.039083242E0,-4.879563808E0,-1.604387641E0
1.645950636E1,3.308077157E-1,-4.084548473E0,-8.428717852E-1
1.647977746E1,9.571290761E-2,-4.496711731E0,-7.375875711E-1
1.650017746E1,2.614158690E-1,-5.490331650E0,-1.333998680E0
1.652031959E1,7.178468257E-2,-6.771090031E0,-1.836491346E0
1.654059068E1,2.392822644E-3,-7.927421570E0,-1.386640668E0
1.656086178E1,3.595215976E-1,-8.197810173E0,-3.762713671E-1
1.658113282E1,7.208378315E-1,-8.020741463E0,3.086741269E-1
1.660153282E1,-7.585247755E-1,-8.224131584E0,1.213759303E0
1.662167496E1,-4.692325115E0,-1.057089233E1,6.174080849E0
1.664194605E1,-1.007198906E1,-1.453998661E1,1.536551094E1
1.666221714E1,-1.082871914E1,-1.541396523E1,5.949155331E0
1.668248818E1,-1.121456146E1,-1.213400364E1,2.796013355E0
1.670288819E1,-9.373284340E0,-9.160323143E0,2.762513638E0
1.672303032E1,-5.487340450E0,-1.534457302E1,-1.690529227E0
1.674330142E1,-3.459423304E0,-1.596012688E1,-2.856431961E0
1.676357246E1,-7.106683254E-1,-8.487939835E0,-1.386640668E0
1.678384355E1,2.404188633E0,-6.948158741E0,1.859821439E0
1.680424355E1,3.385843992E0,-8.784649849E0,2.245664120E0
1.682454365E1,1.977667928E0,-1.115713406E1,-2.815753937E0
1.684465740E1,1.917847395E0,-1.160519028E1,-4.805386066E0
1.686492834E1,1.511067510E0,-1.083888817E1,-4.700101852E0
1.688519933E1,1.310070395E0,-9.625128746E0,-3.208775282E0
1.690547027E1,7.998009920E-1,-8.389834404E0,-2.212762833E0
1.692574131E1,2.201396823E-1,-7.731209755E0,-1.609173179E0
1.694601230E1,-3.278166950E-1,-7.925028801E0,-1.200000525E0
1.696628334E1,-9.816554785E-1,-8.521439552E0,-6.035895348E-1
1.698655438E1,-2.394019127E0,-9.543772697E0,1.620539188E0
1.700682548E1,-3.736990690E0,-9.553344727E0,5.245665550E0
1.702709647E1,-2.671586514E0,-8.779864311E0,1.776072621E0
1.704736756E1,-2.216950178E0,-8.665008545E0,-5.964110494E-1
1.706763860E1,-2.513660192E0,-9.100502968E0,-1.147358418E0
1.708790964E1,-2.901895761E0,-9.337391853E0,-1.494317770E0
1.710818074E1,-3.165106058E0,-9.565308571E0,-1.496710539E0
1.712845178E1,-3.311068296E0,-9.570094109E0,-1.214357495E0
1.714872282E1,-3.315854073E0,-9.031110764E0,-7.615157962E-1
1.716899392E1,-3.581457376E0,-9.397810936E0,-5.557330847E-1
1.718926501E1,-3.078964472E0,-1.107577801E1,-3.978067636E-1
1.720953605E1,-2.422732830E0,-1.156451225E1,-4.815555513E-1
1.722980714E1,-2.439482689E0,-1.076471043E1,-9.625129104E-1
1.725007818E1,-2.935395241E0,-9.806983948E0,-1.166501045E0
1.727034923E1,-4.106083870E0,-1.013001442E1,-7.926225066E-1
1.729062027E1,-5.030311584E0,-1.092024422E1,-3.786641955E-1
1.731089136E1,-4.778466702E0,-9.543772697E0,1.302293777E0
1.733116240E1,-3.090928555E0,-9.205786705E0,2.882154942E0
1.735143350E1,-2.683550596E0,-1.183729362E1,-4.127619043E-2
1.737170454E1,-2.250449657E0,-1.664028740E1,-1.276570916E0
1.739197563E1,-1.053440213E0,-2.118186378E1,-1.960918188E0
1.741224668E1,3.260220885E-1,-1.880938148E1,-5.772684813E-1
1.743251772E1,5.605186820E-1,-1.178943729E1,8.377271652E0
1.745278881E1,4.001995921E-1,-8.815756798E0,1.371685624E0
1.747305985E1,6.634100676E-1,-7.039085865E0,-8.835497499E-1
1.749333095E1,3.451646566E-1,-5.657829285E0,-1.846062660E0
1.751360199E1,7.178467698E-3,-4.936991215E0,-1.264606714E0
1.753387308E1,-2.847459018E-1,-4.958526611E0,-4.719842672E-1
1.755414412E1,-4.091726840E-1,-5.777470112E0,-4.289134443E-1
1.757441522E1,-5.527420044E-1,-7.213762283E0,-1.190429211E0
1.759481522E1,-9.050851464E-1,-8.087740898E0,-1.039083242E0
1.761495730E1,-4.713860750E-1,-7.365108013E0,2.632105052E-1
1.763522839E1,7.854440212E-1,-6.531807423E0,5.766702294E-1
1.765549944E1,8.261220455E-1,-6.247061729E0,6.939185858E-1
1.767577053E1,-4.857429862E-1,-7.132406235E0,1.048654556E0
1.769604152E1,-3.423531055E0,-1.022094154E1,2.623729944E0
1.771631266E1,-8.140382767E0,-1.459562016E1,9.734601021E0
1.773658371E1,-1.184865952E1,-1.722652817E1,1.089332485E1
1.775685475E1,-1.068514919E1,-1.322094345E1,3.256033421E0
1.777725475E1,-8.635697365E0,-8.779864311E0,2.695514679E0
1.779739688E1,-4.752145767E0,-1.005105114E1,7.322037220E-1
1.781779688E1,-2.861217737E0,-1.742273903E1,-2.365903378E0
1.783793902E1,-1.939382792E0,-1.390828133E1,-3.076571703E0
1.785821006E1,4.067798331E-2,-7.389036179E0,-1.747956991E0
1.787848115E1,1.208973646E0,-6.711269379E0,-3.379862010E-1
1.789875220E1,2.260020971E0,-8.760722160E0,-4.366901144E-2
1.791902329E1,2.461616278E0,-1.156929779E1,-1.688136339E0
1.793929433E1,2.406581402E0,-1.195932770E1,-2.923431158E0
1.795956542E1,1.630708575E0,-1.116191959E1,-2.992822886E0
1.797983647E1,1.168295622E0,-9.344570160E0,-2.554936409E0
1.800023647E1,5.988038778E-1,-7.587640762E0,-1.917847395E0
1.802037860E1,1.268195957E-1,-6.859624386E0,-1.453639746E0
1.804064964E1,-4.307080805E-1,-7.312466145E0,-1.003190875E0
1.806092074E1,-1.252044439E0,-8.600402832E0,-1.872383654E-1
1.808119178E1,-2.319841623E0,-9.823733330E0,1.560718536E0
1.810159178E1,-2.693121910E0,-9.739984512E0,1.960319996E0
1.812173392E1,-2.255235434E0,-9.378668785E0,5.024927482E-2
1.814200496E1,-2.396411896E0,-9.129216194E0,-8.213363886E-1
1.816227600E1,-2.796013355E0,-9.155537605E0,-1.041476011E0
1.818254709E1,-3.062214851E0,-9.045467377E0,-1.015154958E0
1.820294709E1,-3.119642496E0,-9.356534958E0,-8.333004713E-1
1.822308918E1,-3.143570662E0,-9.546165466E0,-7.208378315E-1
1.824336027E1,-3.215355396E0,-9.376275063E0,-9.074779749E-1
1.826363126E1,-3.157927752E0,-1.057567787E1,-1.010369420E0
1.828390235E1,-2.638087034E0,-1.148554897E1,-8.715856671E-1
1.830430235E1,-2.652443886E0,-1.138445187E1,-8.620143533E-1
1.832444449E1,-3.277568817E0,-1.065224838E1,-1.068395257E0
1.834471553E1,-3.955335855E0,-9.730413437E0,-7.040880919E-1
1.836498662E1,-4.855037212E0,-1.039083195E1,-2.949153781E-1
1.838525766E1,-5.322235584E0,-9.976874352E0,5.527420044E-1
1.840552871E1,-5.190630436E0,-9.986445427E0,3.866203070E0
1.842579980E1,-2.688336134E0,-1.183968639E1,-2.853440940E-1
1.844607084E1,-2.169093609E0,-1.501436424E1,-1.286142230E0
1.846634188E1,-1.486541033E0,-1.910848427E1,-1.747956991E0
1.848661298E1,-1.818545163E-1,-1.878306007E1,-1.429711580E0
1.850688402E1,5.222335458E-1,-1.392503166E1,-1.256231871E-2
1.852715506E1,1.067797065E0,-9.260822296E0,6.686742783E0
1.854742610E1,8.715856671E-1,-7.432106972E0,8.303094506E-1
1.856769720E1,7.543373108E-1,-6.186643124E0,-1.003190875E0
1.858796824E1,3.020938635E-1,-5.277370453E0,-1.290927768E0
1.860823928E1,2.632104978E-2,-4.707280159E0,-5.940182209E-1
1.862851032E1,-1.244267747E-1,-5.353940487E0,-3.523431420E-1
1.864878142E1,-2.584248483E-1,-6.570092678E0,-1.029511929E0
1.866905246E1,-6.197410822E-1,-7.692924976E0,-1.077966571E0
1.868932350E1,-6.747759581E-1,-7.910671711E0,-2.015953064E-1
1.870959459E1,1.938186288E-1,-7.539783955E0,1.962114573E-1
1.872986563E1,5.078766346E-1,-6.759125710E0,3.469592929E-1
1.875013668E1,-4.450650215E-1,-6.967301369E0,8.566305041E-1
1.877040772E1,-2.899502754E0,-9.644271851E0,2.499303341E0
1.879067881E1,-7.074978352E0,-1.412602806E1,9.806385040E0
1.881094985E1,-1.089811039E1,-1.693221092E1,1.057986546E1
1.883122089E1,-1.120738316E1,-1.314915848E1,3.442673683E0
1.885149194E1,-8.673981667E0,-8.531010628E0,1.582253933E0
1.887176303E1,-6.303891182E0,-9.558130264E0,-4.839483798E-1
1.889203407E1,-5.001597404E0,-1.808136368E1,-3.261417150E0
1.891230511E1,-3.215355396E0,-1.474158192E1,-3.862015724E0
1.893257615E1,-2.081755698E-1,-7.527820110E0,-1.975275040E0
1.895284720E1,2.219342947E0,-5.854040623E0,1.596610904E0
1.897311829E1,3.634697676E0,-8.377870560E0,1.682752490E0
1.899338933E1,2.394617319E0,-1.119302654E1,-1.965703845E0
1.901366037E1,2.114058733E0,-1.190668583E1,-3.517449379E0
1.903393142E1,1.400997639E0,-1.188275719E1,-3.428914785E0
1.905420246E1,6.801598072E-1,-9.646664619E0,-2.559721947E0
1.907447355E1,3.403790295E-1,-7.523034573E0,-1.786242127E0
1.909474459E1,-8.135596663E-2,-6.625127792E0,-1.106680512E0
1.911501563E1,-6.029912829E-1,-7.130013466E0,-6.179464459E-1
1.913528668E1,-1.297508121E0,-8.483154297E0,-1.585244983E-1
1.915555777E1,-2.295913219E0,-9.718449593E0,1.271187067E0
1.917582881E1,-3.088535786E0,-9.998409271E0,2.587837696E0
1.919609985E1,-2.580659151E0,-9.591629982E0,3.469592929E-1
1.921637089E1,-2.449054003E0,-9.009575844E0,-6.969096065E-1
1.923664194E1,-2.604587555E0,-8.889934540E0,-8.739784956E-1
1.925691298E1,-2.736192703E0,-9.107681274E0,-1.041476011E0
1.927718407E1,-2.913859844E0,-9.522237778E0,-9.816554785E-1
1.929745511E1,-2.942573547E0,-9.236893654E0,-7.615157962E-1
1.931772615E1,-3.031108141E0,-9.993623734E0,-6.346961856E-1
1.933799720E1,-2.587837696E0,-1.112841988E1,-4.480560422E-1
1.935826824E1,-2.056631088E0,-1.113320541E1,-2.207378894E-1
1.937853928E1,-2.544766903E0,-1.083649540E1,-5.102694035E-1
1.939892918E1,-3.619742393E0,-1.019940662E1,-1.089930773E0
1.941908142E1,-4.541577339E0,-9.814162254E0,-8.835497499E-1
1.943935246E1,-5.315057278E0,-9.850054741E0,-5.324030295E-2
1.945962350E1,-5.580660820E0,-8.504690170E0,2.159522533E0
1.947989454E1,-4.015156269E0,-9.064610481E0,1.649253011E0
1.950029454E1,-2.690729141E0,-1.336690521E1,-6.275177598E-1
1.952043662E1,-2.580659151E0,-1.964686775E1,-1.534995675E0
1.954070767E1,-1.280758262E0,-2.381995201E1,-1.903490424E0
1.956097876E1,6.011967063E-1,-1.783250999E1,1.651645780E0
1.958124975E1,1.417747378E0,-1.033819008E1,8.922835350E0
1.960164975E1,6.873382926E-1,-7.881958008E0,8.614161611E-2
1.962179188E1,5.844469070E-1,-5.741578102E0,-1.439282775E0
1.964206292E1,5.030909777E-1,-4.573282242E0,-1.467996716E0
1.966233397E1,4.025924206E-1,-3.766302824E0,-3.499503136E-1
1.968260501E1,2.344966233E-1,-4.446462631E0,1.914258152E-1
1.970300501E1,4.289134443E-1,-5.906682491E0,-4.839483798E-1
1.972314709E1,2.949153781E-1,-7.609176159E0,-1.240678549E0
1.974341813E1,4.785645381E-2,-8.693722725E0,-7.351947427E-1
1.976368918E1,1.363908947E-1,-8.013563156E0,1.411765367E-1
1.978396016E1,5.294120312E-1,-7.053442955E0,6.915257573E-1
1.980423126E1,-3.828516304E-1,-6.840481758E0,1.110867858E0
1.982463126E1,-2.719442844E0,-8.770293236E0,1.938784599E0
1.984477334E1,-5.781657696E0,-1.279980659E1,6.543173313E0
1.986504433E1,-1.153998566E1,-1.690828323E1,1.339502144E1
1.988531542E1,-1.180080318E1,-1.452563000E1,3.174677372E0
1.990558647E1,-1.009113121E1,-1.002712345E1,1.866999865E0
1.992585751E1,-7.041478634E0,-1.147837067E1,-4.911268353E-1
1.994612855E1,-3.610171080E0,-1.714995766E1,-2.806182861E0
1.996639959E1,-1.173081279E0,-1.133659554E1,-2.025524378E0
1.998667063E1,9.768698215E-1,-7.508677483E0,3.254238665E-1
2.000694168E1,1.846062660E0,-8.295916557E0,1.823929071E0
2.002721277E1,1.652244091E0,-1.075753212E1,-5.916253924E-1
2.004748381E1,2.197807550E0,-1.198086262E1,-2.985644341E0
2.006775480E1,1.846062660E0,-1.146879864E1,-3.926621914E0
2.008802584E1,1.609173179E0,-9.962516785E0,-3.694518089E0
2.010829694E1,1.389033556E0,-8.176275253E0,-2.765504837E0
2.012856793E1,9.433703423E-1,-7.060621262E0,-2.152942181E0
2.014883897E1,3.643072546E-1,-6.981658459E0,-1.664208174E0
2.016911001E1,-1.052841991E-1,-7.702496052E0,-1.197607756E0
2.018938105E1,-5.431707501E-1,-9.110074043E0,-6.705885530E-1
2.020965209E1,-1.764108539E0,-1.026640511E1,1.273579836E0
2.022992313E1,-3.375674486E0,-9.933803558E0,5.489733219E0
2.025019418E1,-1.747358680E0,-8.930612564E0,1.307079315E0
2.027046522E1,-1.414756417E0,-8.708079338E0,-8.045865893E-1
2.029073626E1,-1.946561217E0,-9.155537605E0,-1.326820135E0
2.031100730E1,-2.542374134E0,-9.637093544E0,-1.527817249E0
2.033127829E1,-3.172284603E0,-1.012522888E1,-1.436890006E0
2.035154938E1,-3.753740549E0,-1.007737255E1,-1.125823021E0
2.037182043E1,-4.273581028E0,-1.009412193E1,-1.216750264E0
2.039209147E1,-4.625326157E0,-1.102792168E1,-1.496710539E0
2.041236246E1,-3.792025566E0,-1.155494022E1,-1.171286702E0
2.043263350E1,-3.672384501E0,-1.053499985E1,-8.117650747E-1
2.045290454E1,-4.101297855E0,-9.692128181E0,-9.457631707E-1
2.047317558E1,-4.371686935E0,-9.677771568E0,-4.791627228E-1
2.049344662E1,-5.092525005E0,-1.041775131E1,2.871387079E-2
2.051371766E1,-4.826323509E0,-8.861220360E0,1.584646821E0
2.053398871E1,-4.280759811E0,-9.558130264E0,3.332603693E0
2.055425975E1,-2.866003275E0,-1.282373428E1,-3.284149170E-1
2.057453079E1,-2.451446772E0,-1.662293816E1,-9.984052777E-1
2.059480183E1,-1.264008522E0,-2.024567223E1,-9.936196208E-1
2.061507287E1,-3.589234129E-2,-1.847617912E1,-9.242277741E-1
2.063534392E1,5.868397355E-1,-1.312044430E1,-1.992024779E-1
2.065561496E1,1.377069473E0,-8.787042618E0,3.413959742E0
2.067588595E1,1.307677627E0,-7.163512707E0,6.843472719E-1
2.069615699E1,1.240080357E0,-6.239883423E0,-1.003190875E0
2.071642803E1,8.931210637E-1,-5.641079426E0,-1.513460279E0
2.073669907E1,4.456632137E-1,-5.471189022E0,-7.639086246E-1
2.075697011E1,1.722832322E-1,-6.031109333E0,-5.174478889E-1
2.077724115E1,-5.503492057E-2,-7.098906517E0,-1.111466169E0
2.079751220E1,-4.139583111E-1,-8.334799767E0,-1.310070395E0
2.081778318E1,1.387837082E-1,-8.240880966E0,-3.810569942E-1
2.083805423E1,1.225723386E0,-7.436892986E0,5.742774159E-2
2.085832527E1,1.266401410E0,-7.331608772E0,2.919243574E-1
2.087859631E1,1.004985496E-1,-7.755138397E0,1.014556766E0
2.089890673E1,-3.189034462E0,-1.021137047E1,3.744169235E0
2.091913845E1,-9.399605751E0,-1.431266880E1,1.445085430E1
2.093940949E1,-1.093639565E1,-1.560359669E1,7.167700291E0
2.095968048E1,-1.108953667E1,-1.282852077E1,8.446664214E-1
2.097995152E1,-9.134002686E0,-1.060199928E1,2.943171859E-1
2.100035152E1,-6.354140759E0,-1.640758514E1,-1.393819213E0
2.102049360E1,-3.936193228E0,-1.439163208E1,-1.659422517E0
2.104076464E1,-1.213759303E0,-7.264011383E0,-1.017547846E0
2.106103563E1,1.396211982E0,-6.493522644E0,1.264008522E0
2.108130668E1,2.533401012E0,-8.906683922E0,2.585444927E0
2.110170668E1,1.511067510E0,-1.138684464E1,-1.281356573E0
2.112184876E1,1.807777524E0,-1.221775246E1,-3.512663603E0
2.114211980E1,1.946561217E0,-1.171765232E1,-4.685744762E0
2.116239084E1,1.970489502E0,-9.481559753E0,-4.573282242E0
2.118266178E1,1.625923038E0,-7.621140003E0,-3.378665686E0
2.120306178E1,1.048654556E0,-6.737590313E0,-2.126621008E0
2.122320386E1,2.709871531E-1,-6.653841496E0,-1.207179070E0
2.124347490E1,-3.876372576E-1,-7.467999458E0,-7.663014531E-1
2.126374589E1,-1.046261668E0,-9.179466248E0,-3.619144261E-1
2.128401694E1,-2.599801779E0,-1.069771194E1,2.185843468E0
2.130441694E1,-3.521636724E0,-1.035733318E1,4.517649174E0
2.132455902E1,-2.212164640E0,-9.704092026E0,6.939185858E-1
2.134483006E1,-2.288734913E0,-9.308678627E0,-7.878368497E-1
2.136510105E1,-2.580659151E0,-9.270393372E0,-1.147358418E0
2.138537209E1,-2.992822886E0,-9.397810936E0,-1.125823021E0
2.140564308E1,-3.399602890E0,-9.732806206E0,-9.696913958E-1
2.142591412E1,-3.770490170E0,-9.543772697E0,-1.180858016E0
2.144618517E1,-3.917050600E0,-1.059482002E1,-1.678565025E0
2.146645621E1,-3.162713289E0,-1.153819084E1,-1.867598057E0
2.148672725E1,-3.172284603E0,-1.136770248E1,-1.594816327E0
2.150699824E1,-4.082155228E0,-1.102313614E1,-1.554138303E0
2.152726928E1,-4.390829563E0,-1.009890842E1,-1.259821177E0
2.154754032E1,-4.890929699E0,-9.572486877E0,-3.738785386E-1
2.156781131E1,-4.970490932E0,-8.106883049E0,1.443470240E0
2.158808235E1,-4.907679081E0,-6.909873486E0,5.705087185E0
2.160835339E1,-2.779263496E0,-1.036690426E1,3.230310678E-1
2.162862444E1,-2.597409010E0,-1.578784370E1,-2.470589429E-1
2.164889543E1,-1.860419631E0,-2.215394783E1,-8.835497499E-1
2.166916647E1,-3.517449200E-1,-2.256790733E1,-1.125823021E0
2.168943751E1,9.529415965E-1,-1.541157246E1,1.197009563E0
2.170970850E1,1.941775560E0,-9.239286423E0,5.158925533E0
2.172997954E1,1.153938770E0,-6.739983082E0,3.421736360E-1
2.175025058E1,7.328019142E-1,-5.528616905E0,-1.264606714E0
2.177052162E1,4.743770957E-1,-4.965705395E0,-1.477568030E0
2.179079261E1,1.220339537E-1,-4.661816597E0,-8.404789567E-1
2.181106365E1,-1.052841991E-1,-5.181059361E0,-9.266205430E-1
2.183133470E1,-1.914258152E-1,-6.169893265E0,-1.688136339E0
2.185160569E1,-2.488535494E-1,-7.365108013E0,-1.652244091E0
2.187187673E1,4.241278172E-1,-8.035098076E0,-7.950153351E-1
2.189214777E1,1.218544960E0,-7.657032490E0,-3.643072546E-1
2.191241876E1,1.177866936E0,-7.436892986E0,3.110669367E-2
2.193268980E1,-1.674975827E-2,-8.598010063E0,7.609176040E-1
2.195296084E1,-3.689134359E0,-1.141316605E1,5.005784988E0
2.197323183E1,-1.012941647E1,-1.592662716E1,1.511665726E1
2.199350287E1,-1.137488079E1,-1.611805344E1,5.963512421E0
2.201377392E1,-1.097946644E1,-1.198325539E1,2.327019930E0
2.203404490E1,-7.871788502E0,-9.279964447E0,6.939185858E-1
2.205431595E1,-4.895715237E0,-1.543071461E1,-1.913061738E0
2.207458699E1,-3.787240028E0,-1.557907009E1,-2.521436930E0
2.209498699E1,-5.455635786E-1,-8.643473625E0,-7.854440212E-1
2.211512902E1,7.304090858E-1,-6.986443996E0,8.374879509E-2
2.213540006E1,1.400997639E0,-7.496713161E0,3.684946895E-1
2.215567100E1,1.862812400E0,-9.991230965E0,-1.444068432E0
2.217594209E1,2.190629244E0,-1.216032505E1,-3.345165968E0
2.219621313E1,2.128415823E0,-1.242592812E1,-3.909872293E0
2.221648412E1,1.779063582E0,-1.022812080E1,-3.495913982E0
2.223675516E1,1.439282775E0,-8.166703224E0,-2.631506681E0
2.225702615E1,8.356932998E-1,-6.993622303E0,-1.893919110E0
2.227729720E1,2.105683982E-1,-6.677769661E0,-1.345962763E0
2.229756824E1,-5.551348329E-1,-7.463213921E0,-5.772684813E-1
2.231783923E1,-1.632503271E0,-9.359525681E0,9.212366939E-1
2.233811027E1,-3.002394199E0,-1.010369396E1,4.031308174E0
2.235838126E1,-2.257628202E0,-9.696913719E0,1.876571178E0
2.237865230E1,-1.783251047E0,-9.543772697E0,-4.097708762E-1
2.239904209E1,-2.183450699E0,-9.634700775E0,-1.159322619E0
2.241919433E1,-2.628515720E0,-9.589237213E0,-1.377069473E0
2.243946537E1,-2.990430117E0,-9.596415520E0,-1.398604870E0
2.245973636E1,-3.277568817E0,-9.277571678E0,-1.073180914E0
2.248000740E1,-3.794418573E0,-9.062217712E0,-1.360319614E0
2.250040740E1,-4.218546391E0,-1.057089233E1,-1.759921074E0
2.252054944E1,-4.079762459E0,-1.213161087E1,-1.853241086E0
2.254082048E1,-3.595814228E0,-1.147119141E1,-1.745564103E0
2.256109152E1,-3.725026608E0,-9.917053223E0,-9.601200819E-1
2.258136251E1,-3.940979004E0,-9.361918449E0,-4.552344978E-1
2.260176251E1,-4.443471432E0,-9.706484795E0,3.613162339E-1
2.262190459E1,-5.307878971E0,-9.713663101E0,7.359724045E0
2.264217563E1,-3.662813187E0,-8.373085022E0,2.087737799E0
2.266244662E1,-2.264806747E0,-1.153101254E1,-1.680957973E-1
2.268271767E1,-2.611765862E0,-1.538285828E1,-1.381855130E0
2.270311766E1,-2.073380709E0,-2.003031921E1,-1.601994753E0
2.272325970E1,-4.522434771E-1,-2.023370743E1,-2.107478619E0
2.274353074E1,4.815555513E-1,-1.466979790E1,-1.695314884E0
2.276380178E1,4.624129832E-1,-9.263215065E0,-1.228714466E0
2.278407282E1,7.256234884E-1,-6.730412006E0,8.614161611E-2
2.280434381E1,9.912267923E-1,-5.207978249E0,3.042474031E0
2.282474381E1,1.794617027E-1,-5.667400360E0,1.390828133E0
2.284488589E1,-2.392822690E-2,-5.722435474E0,-8.913264424E-2
2.286515688E1,-2.656033039E-1,-6.224927902E0,-9.026923180E-1
2.288542793E1,-5.144568682E-1,-7.271189690E0,-2.049452543E0
2.290569897E1,-7.752745152E-1,-8.339585304E0,-2.131406784E0
2.292597001E1,-4.139583111E-1,-8.478368759E0,-1.283749342E0
2.294624100E1,7.974081635E-1,-7.511070251E0,-1.537388563E-1
2.296651199E1,1.422533035E0,-7.165905476E0,2.129612118E-1
2.298678308E1,1.074975610E0,-7.934599876E0,1.213759303E0
2.300705412E1,-1.980060697E0,-9.943374634E0,5.721837044E0
2.302732511E1,-8.279166222E0,-1.423131275E1,1.356072426E1
2.304759610E1,-1.108475113E1,-1.652004814E1,1.021077251E1
2.306786720E1,-1.011505985E1,-1.301755333E1,2.135594130E0
2.308813824E1,-7.955537319E0,-8.535796165E0,-4.073780477E-1
2.310840928E1,-5.099703312E0,-1.305105305E1,-1.920240164E0
2.312868027E1,-4.357329845E0,-1.704467392E1,-2.586043119E0
2.314895131E1,-2.073380709E0,-1.080299568E1,-1.735992789E0
2.316922235E1,5.629115105E-1,-7.886743546E0,-8.673982322E-2
2.318949339E1,1.034297585E0,-7.089335442E0,1.177866936E0
2.320976444E1,1.146760225E0,-7.690532207E0,2.943171859E-1
2.323003548E1,1.079761267E0,-9.181859016E0,-1.956132531E0
2.325030647E1,7.447660565E-1,-1.126002502E1,-3.247060299E0
2.327057751E1,4.911268353E-1,-1.088674450E1,-3.699303865E0
2.329084855E1,4.839483798E-1,-8.710473061E0,-3.230310678E0
2.331111959E1,5.724828243E-1,-7.177869797E0,-2.504687071E0
2.333139058E1,2.949153781E-1,-6.984051228E0,-1.716850281E0
2.335166168E1,-1.651047617E-1,-7.936992645E0,-1.111466169E0
2.337193267E1,-6.580262184E-1,-9.381061554E0,-6.634100676E-1
2.339220371E1,-1.764108539E0,-1.023290634E1,1.733001828E0
2.341247475E1,-2.944966555E0,-9.771091461E0,5.870192051E0
2.343274579E1,-1.603789330E0,-9.244071960E0,1.419542074E0
2.345301683E1,-1.546361685E0,-9.448060036E0,-4.001995921E-1
2.347328787E1,-1.980060697E0,-9.381061554E0,-1.034297585E0
2.349355892E1,-2.252842426E0,-9.301499367E0,-1.295713425E0
2.351382996E1,-2.458625317E0,-9.291928291E0,-1.274178028E0
2.353410100E1,-2.781656265E0,-9.193822861E0,-1.211964726E0
2.355437199E1,-3.028715372E0,-1.031186962E1,-1.369890928E0
2.357464308E1,-3.129213810E0,-1.215553856E1,-1.623530149E0
2.359491407E1,-2.317448616E0,-1.152861977E1,-1.647458434E0
2.361518511E1,-2.482553482E0,-9.991230965E0,-5.940182209E-1
2.363545615E1,-3.473780155E0,-9.536594391E0,-5.892325640E-1
2.365572720E1,-4.302295208E0,-1.000319481E1,-5.294120312E-1
2.367599824E1,-5.011168957E0,-9.993623734E0,-3.888336942E-2
2.369626928E1,-5.815157413E0,-8.295916557E0,3.760919094E0
2.371654032E1,-5.020740032E0,-9.766305923E0,2.492124796E0
2.373681136E1,-2.755335331E0,-1.340758324E1,-9.601200819E-1
2.375708240E1,-2.305484533E0,-1.752323914E1,-1.594816327E0
2.377735345E1,-1.106082320E0,-1.996810532E1,-1.549352646E0
2.379762449E1,7.657032460E-2,-1.659901047E1,-1.176072359E0
2.381789553E1,2.177468538E-1,-1.125763226E1,-6.490531564E-1
2.383816657E1,6.681957245E-1,-7.996813297E0,2.190629244E0
2.385843761E1,1.434497118E0,-7.146762848E0,2.520838737E0
2.387870865E1,7.974081635E-1,-6.749554634E0,-7.208378315E-1
2.389910865E1,2.057827413E-1,-6.143572330E0,-8.500502706E-1
2.391925074E1,3.589234129E-2,-5.877968788E0,-9.050851464E-1
2.393952178E1,-2.751746178E-1,-6.493522644E0,-1.472782373E0
2.395979282E1,-7.950153351E-1,-7.563712597E0,-1.527817249E0
2.398006386E1,-1.311864972E0,-8.075776100E0,-7.686942816E-1
2.400046386E1,-2.225325108E-1,-7.858029366E0,1.746760458E-1
2.402060595E1,9.146564603E-1,-7.575676441E0,6.556333899E-1
2.404087699E1,1.211366415E0,-7.678567886E0,6.508477330E-1
2.406114808E1,9.098708034E-1,-8.238488197E0,1.165902853E0
2.408141912E1,-1.555932879E0,-9.632308006E0,3.624528170E0
2.410181912E1,-6.985845566E0,-1.286680603E1,1.123071289E1
2.412196121E1,-9.394820213E0,-1.485883045E1,1.113021469E1
2.414223225E1,-8.228917122E0,-1.314198017E1,1.771286964E0
2.416250329E1,-6.423532486E0,-9.100502968E0,-1.465603858E-1
2.418277438E1,-4.364508629E0,-1.008694363E1,6.293123364E-1
2.420317438E1,-3.246462107E0,-1.612044525E1,-8.213363886E-1
2.422331647E1,-2.197807550E0,-1.468415451E1,-3.116651475E-1
2.424358751E1,-4.881358147E-1,-1.137966633E1,2.532802820E0
2.426385855E1,-9.571290575E-3,-7.860422611E0,1.527219057E0
2.428412959E1,6.945167780E-1,-7.960920811E0,-2.853440940E-1
2.430452959E1,5.365904570E-1,-8.638688087E0,-2.827718258E0
2.432467173E1,-1.028913707E-1,-1.043450165E1,-4.400999069E0
2.434494277E1,3.403790295E-1,-1.065464115E1,-4.341178417E0
2.436521381E1,7.950153351E-1,-9.373882294E0,-3.895515203E0
2.438548485E1,8.309076428E-1,-8.032705307E0,-3.256631613E0
2.440575595E1,5.557330847E-1,-7.312466145E0,-2.930609465E0
2.442602699E1,-2.632104978E-2,-7.721638680E0,-2.068595171E0
2.444629803E1,-9.571290761E-2,-8.930612564E0,-1.472782373E0
2.446656907E1,-2.991028428E-1,-9.718449593E0,-1.152144074E0
2.448684016E1,-1.005583763E0,-1.084367371E1,-1.154536903E-1
2.450711115E1,-4.153940201E0,-1.085563850E1,9.370891571E0
2.452738225E1,-3.090928555E0,-9.605986595E0,5.204987526E0
2.454765329E1,-1.491326690E0,-9.234500885E0,-7.238288224E-2
2.456792438E1,-1.901097536E0,-9.440881729E0,-1.458425403E0
2.458819543E1,-2.401197433E0,-9.701699257E0,-1.826920033E0
2.460846652E1,-2.671586514E0,-9.594022751E0,-1.673779488E0
2.462873756E1,-2.724228621E0,-8.916254997E0,-1.523031592E0
2.464900860E1,-3.088535786E0,-8.684151649E0,-1.575673699E0
2.466927964E1,-3.385245800E0,-1.026640511E1,-1.479960799E0
2.468955074E1,-2.913859844E0,-1.159322548E1,-1.697707653E0
2.470982178E1,-2.240878344E0,-1.059721375E1,-9.984052777E-1
2.473009282E1,-3.021536827E0,-9.479166985E0,-2.685943544E-1
2.475036386E1,-3.902693748E0,-9.718449593E0,5.742774159E-2
2.477063496E1,-5.817550182E0,-1.060678482E1,3.308675528E0
2.479090600E1,-7.374081135E0,-9.818947792E0,7.685148239E0
2.481117709E1,-3.320639610E0,-1.021615601E1,-1.345962733E-1
2.483144813E1,-2.444268227E0,-1.246660614E1,-1.331605792E0
2.485171918E1,-2.484946251E0,-1.652004814E1,-1.513460279E0
2.487199022E1,-1.433898926E0,-1.980539322E1,-2.148156643E0
2.489226131E1,2.871387079E-2,-1.738684845E1,-2.341975212E0
2.491253235E1,2.392822690E-2,-1.133659554E1,-2.483151674E0
2.493280339E1,-1.292124242E-1,-7.999206066E0,-2.145763636E0
2.495307449E1,-2.392822644E-3,-6.407381058E0,-2.044667006E0
2.497334553E1,2.153540403E-1,-5.674578667E0,-1.927418590E0
2.499361657E1,4.408775866E-1,-5.401797295E0,-1.537388563E-1
2.501388767E1,-1.316052526E-1,-6.438487530E0,1.699502230E0
2.503415871E1,-6.317051649E-1,-8.322834969E0,9.786644578E-1
2.505442975E1,-1.256830096E0,-9.704092026E0,1.627119333E-1
2.507470084E1,-1.620539188E0,-9.680164337E0,1.339980662E-1
2.509497188E1,-7.657032609E-1,-8.283951759E0,6.077769399E-1
2.511524292E1,3.882354796E-1,-7.532605648E0,8.135597110E-1
2.513551402E1,1.041476011E0,-7.666603565E0,1.299900889E0
2.515578506E1,5.772684813E-1,-8.696115494E0,2.080559254E0
2.517605610E1,-2.209771633E0,-9.950552940E0,3.311068296E0
2.519632720E1,-5.913262844E0,-1.099202919E1,7.491329670E0
2.521659824E1,-8.709874153E0,-1.168415260E1,9.044869423E0
2.523686933E1,-7.713861942E0,-1.056610680E1,2.461018085E0
2.525714037E1,-6.294320107E0,-8.181060791E0,-1.920240223E-1
2.527741142E1,-5.109274387E0,-7.948956966E0,-6.705885530E-1
2.529768251E1,-3.392424345E0,-1.486361599E1,-1.453639746E0
2.531795355E1,-2.408375978E0,-1.708056641E1,-1.616351724E0
2.533822459E1,-1.914258115E-2,-1.090349483E1,4.833501875E-1
2.535849563E1,1.429711580E0,-9.488738060E0,3.559921980E0
2.537876673E1,1.424925923E0,-1.023769188E1,2.060818434E0
2.539916673E1,9.457631707E-1,-1.032622623E1,-1.017547846E0
2.541930886E1,3.427718580E-1,-8.990432739E0,-2.346760750E0
2.543957990E1,3.714857101E-1,-8.330014229E0,-2.877967358E0
2.545985095E1,3.906283081E-1,-8.978468895E0,-2.432902336E0
2.548012204E1,-6.221338734E-2,-9.711270332E0,-2.260619164E0
2.550052204E1,-3.637090325E-1,-9.706484795E0,-2.184048891E0
2.552066412E1,-4.977070987E-1,-9.035896301E0,-1.764706731E0
2.554093522E1,-6.436693072E-1,-8.617152214E0,-1.221535921E0
2.556120626E1,-8.428717852E-1,-8.997611046E0,-5.084748194E-2
2.558147735E1,-1.146760225E0,-9.469595909E0,4.069592953E0
2.560187735E1,-2.185843468E0,-9.498309135E0,5.245665550E0
2.562201944E1,-2.355733871E0,-9.620343208E0,1.144367456E0
2.564229048E1,-2.327019930E0,-9.723235130E0,-1.609173268E-1
2.566256157E1,-2.370090723E0,-9.248857498E0,-6.203392744E-1
2.568283267E1,-2.264806747E0,-8.911469460E0,-1.066002488E0
2.570323266E1,-2.202593327E0,-9.162715912E0,-1.266999602E0
2.572337475E1,-2.216950178E0,-9.455238342E0,-1.214357495E0
2.574364584E1,-1.970489502E0,-9.632308006E0,-1.231107235E0
2.576391688E1,-1.838884234E0,-9.289535522E0,-1.463211060E0
2.578418792E1,-1.716252089E0,-9.045467377E0,-1.582852125E0
2.580458792E1,-1.563111424E0,-1.011565781E1,-1.771885157E0
2.582488803E1,-1.421934843E0,-1.208375454E1,-2.155334949E0
2.584500173E1,-1.877169371E0,-1.416431332E1,-1.946561217E0
2.586527267E1,-2.329412937E0,-1.376231956E1,-1.188036442E0
2.588554365E1,-2.338984251E0,-1.258205986E1,-8.380861282E-1
2.590581459E1,-2.152343988E0,-1.300319672E1,-5.964110494E-1
2.592608558E1,-1.529611826E0,-1.337647724E1,8.901300430E-1
2.594635662E1,-1.031904817E0,-1.134616661E1,5.300700188E0
2.596662756E1,-9.505487680E-1,-9.579665184E0,1.124626622E-1
2.598689871E1,-4.307080805E-1,-8.997611046E0,-1.286142230E0
2.600716975E1,-5.216353536E-1,-1.019940662E1,-1.479960799E0
2.602744074E1,-5.551348329E-1,-1.183968639E1,-1.747956991E0
2.604771183E1,-2.440679073E-1,-1.219621658E1,-2.196012974E0
2.606798287E1,-1.890329868E-1,-1.129831028E1,-2.373081923E0
2.608825392E1,-6.843472719E-1,-9.479166985E0,-2.255833626E0
2.610852496E1,-8.093722463E-1,-8.423334122E0,-2.188834429E0
2.612879600E1,-8.093722463E-1,-8.216953278E0,-2.466402054E0
2.614906709E1,-1.211366415E0,-8.456833839E0,-2.593221426E0
2.616933813E1,-1.958525300E0,-8.861220360E0,-1.041476011E0
2.618960918E1,-4.015156269E0,-9.011968613E0,3.416352510E0
2.620988027E1,-3.614956856E0,-8.810971260E0,1.981855392E0
2.623015131E1,-2.530410051E0,-8.516654015E0,7.058826685E-1
2.625042235E1,-1.747358680E0,-8.255238533E0,-1.298106313E-1
2.627069339E1,-1.019940615E0,-8.032705307E0,-2.590230405E-1
2.629096444E1,-2.368894368E-1,-7.848458290E0,-3.906283081E-1
2.631123548E1,0.000000000E0,-7.776673794E0,-3.044866920E-1
2.633150652E1,-4.211367965E-1,-7.503891945E0,-1.130608693E-1
2.635177761E1,-9.649057388E-1,-7.405786037E0,2.368894368E-1
2.637204865E1,-1.725823283E0,-7.743174076E0,7.633104324E-1
2.639231970E1,-2.774477959E0,-8.397012711E0,9.643075466E-1
2.641259079E1,-3.808775425E0,-8.674580574E0,1.340578914E0
2.643286183E1,-4.333401680E0,-8.901898384E0,1.735394597E0
2.645313293E1,-5.099703312E0,-9.658628464E0,2.666800737E0
2.647340397E1,-5.499304771E0,-1.040818024E1,1.709073544E0
2.649367501E1,-5.729015827E0,-1.008455086E1,1.435693540E-2
2.651394610E1,-5.370092392E0,-9.543772697E0,5.862415433E-1
2.653421714E1,-5.429912567E0,-8.631509781E0,2.051247120E0
2.655448818E1,-4.398007870E0,-8.238488197E0,5.575276613E-1
2.657475928E1,-3.907479286E0,-1.392024612E1,-7.639086246E-1
2.659515928E1,-2.324627161E0,-1.437248898E1,-2.140978098E0
2.661530136E1,2.536391914E-1,-1.012762165E1,-1.075573802E0
2.663557246E1,2.317448616E0,-1.015872860E1,2.065604210E0
2.665584350E1,3.067000389E0,-1.209811115E1,2.891726255E0
2.667611454E1,2.273181528E-1,-9.864411354E0,-1.099501967E0
2.669638558E1,4.121637046E-1,-8.394619942E0,-2.660220623E0
2.671665668E1,3.212364316E-1,-8.283951759E0,-3.287738323E0
2.673692772E1,2.392822653E-1,-9.052646637E0,-2.516651154E0
2.675719881E1,-1.962114573E-1,-9.558130264E0,-1.953739643E0
2.677746985E1,-6.963114142E-1,-9.574879646E0,-1.678565025E0
2.679774089E1,-1.118046403E0,-9.114859581E0,-1.396211982E0
2.681814089E1,-1.572682738E0,-8.755936623E0,-8.213363886E-1
2.683828303E1,-1.855633974E0,-8.368298531E0,3.206382394E-1
2.685855407E1,-2.233700037E0,-8.082955360E0,1.912463546E0
2.687882511E1,-2.367697954E0,-8.576474190E0,1.132403374E0
2.689922511E1,-2.011167526E0,-9.251250267E0,-4.049852192E-1
2.691936725E1,-1.836491346E0,-9.536594391E0,-1.019940615E0
2.693963829E1,-1.889133453E0,-9.431310654E0,-1.314856052E0
2.695990933E1,-1.953739643E0,-9.574879646E0,-1.259821177E0
2.698018042E1,-1.982453585E0,-9.433703423E0,-1.178465128E0
2.700058043E1,-1.713859200E0,-9.191430092E0,-1.010369420E0
2.702072251E1,-1.465005636E0,-9.481559753E0,-6.275177598E-1
2.704099355E1,-1.589432478E0,-9.713663101E0,-6.370890141E-1
2.706126459E1,-1.704287887E0,-1.042492962E1,-1.233500123E0
2.708153569E1,-1.740180254E0,-1.088435173E1,-1.886740685E0
2.710193568E1,-1.860419631E0,-1.024487019E1,-1.901097536E0
2.712207777E1,-2.159522533E0,-9.919445992E0,-1.379462242E0
2.714234886E1,-3.210569859E0,-1.114516926E1,-1.214357495E0
2.716261990E1,-4.378865242E0,-1.133420277E1,-1.786242127E0
2.718289095E1,-4.474578381E0,-9.028717995E0,-1.319641709E0
2.720329095E1,-4.522434711E0,-8.274380684E0,1.759322882E0
2.722343308E1,-3.897309780E0,-1.138445187E1,1.409970760E0
2.724370412E1,-2.513660192E0,-1.651286888E1,-6.993024349E-1
2.726397522E1,-1.962114573E-1,-2.156471634E1,2.413161755E0
2.728424626E1,2.574079037E0,-1.760220146E1,5.606981754E0
2.730464626E1,5.222335458E-1,-1.148794174E1,2.264806747E0
2.732478834E1,-9.571290761E-2,-8.471190453E0,-8.644071817E-1
2.734505938E1,3.355933726E-1,-7.192226887E0,-1.228714466E0
2.736533048E1,9.314061999E-1,-6.023931026E0,-3.403790295E-1
2.738560152E1,1.127617717E0,-5.413761139E0,1.082154036E0
2.740587256E1,3.930211067E-1,-6.795018196E0,1.098903775E0
2.742614360E1,-3.038884699E-1,-8.231309891E0,7.034898400E-1
2.744641470E1,-1.220937729E0,-8.827720642E0,6.819544435E-1
2.746668574E1,-1.831705689E0,-8.288737297E0,7.896314859E-1
2.748695678E1,-1.855633974E0,-7.312466145E0,9.164510965E-1
2.750722782E1,-1.649253011E0,-6.859624386E0,8.374879360E-1
2.752749892E1,-1.922633052E0,-6.682555676E0,3.230310678E-1
2.754776996E1,-2.257628202E0,-6.596413612E0,-6.418746710E-1
2.756804100E1,-2.819941521E0,-7.427321434E0,-1.420140266E0
2.758831204E1,-3.820739508E0,-9.895518303E0,-2.901297510E-1
2.760858313E1,-6.375676155E0,-1.371685600E1,4.259224415E0
2.762885418E1,-9.155537605E0,-1.562752438E1,5.334199905E0
2.764912522E1,-9.677172661E0,-1.350090313E1,3.586242914E0
2.766939631E1,-8.817551613E0,-1.075753212E1,4.062414646E0
2.768966735E1,-6.090929985E0,-1.235414314E1,2.449054003E0
2.770993839E1,-2.846262455E0,-1.468654728E1,-5.389832854E-1
2.773020944E1,-1.084546804E0,-1.291944790E1,-2.047059774E0
2.775048048E1,-1.962114573E-1,-8.023134232E0,-2.562114954E0
2.777075157E1,5.868397355E-1,-6.634698868E0,-2.382653236E0
2.779102261E1,7.686942816E-1,-7.000801086E0,-1.735992789E0
2.781129365E1,7.998009920E-1,-9.016754150E0,-1.659422517E0
2.783156470E1,1.372283816E0,-1.174636650E1,-1.970489502E0
2.785183579E1,2.193022013E0,-1.333101273E1,-2.310868502E0
2.787210683E1,1.673779488E0,-1.056371403E1,-1.992024899E0
2.789237782E1,1.232901812E0,-8.447261810E0,-1.788634896E0
2.791264892E1,6.729813814E-1,-7.254439831E0,-1.092323542E0
2.793291990E1,-2.632104978E-2,-7.405786037E0,-3.379862010E-1
2.795319100E1,-6.293123364E-1,-8.763114929E0,8.853443712E-2
2.797346209E1,-1.134796143E0,-9.620343208E0,3.900300860E-1
2.799373313E1,-1.551147223E0,-9.436096191E0,5.455635786E-1
2.801413313E1,-1.555932879E0,-9.232108116E0,1.220339537E-1
2.803427522E1,-1.479362607E0,-8.990432739E0,-4.432703853E-1
2.805458563E1,-1.486541033E0,-8.729615211E0,-9.290133715E-1
2.807481740E1,-1.759322882E0,-8.839685440E0,-1.097109199E0
2.809508845E1,-2.130808592E0,-9.081359863E0,-1.135394335E0
2.811535949E1,-2.492124796E0,-9.134002686E0,-1.063609719E0
2.813563053E1,-2.827120066E0,-9.481559753E0,-8.955138922E-1
2.815590157E1,-2.985644341E0,-9.692128181E0,-8.835497499E-1
2.817617267E1,-3.157927752E0,-9.905089378E0,-1.005583763E0
2.819644371E1,-3.045464993E0,-1.119063377E1,-1.202393413E0
2.821671475E1,-2.764906645E0,-1.207896900E1,-1.314856052E0
2.823698579E1,-2.702693224E0,-1.184447193E1,-1.326820135E0
2.825725683E1,-2.654836655E0,-1.086760235E1,-9.361918569E-1
2.827752782E1,-3.016751051E0,-9.759127617E0,-3.834498227E-1
2.829779892E1,-4.208974838E0,-1.011565781E1,1.435693651E-1
2.831806996E1,-5.707480431E0,-8.236095428E0,5.212165833E0
2.833834100E1,-4.987240791E0,-7.578069210E0,2.721835852E0
2.835861204E1,-2.525624275E0,-1.183968639E1,-7.998009920E-1
2.837888308E1,-2.432304144E0,-1.605344772E1,-1.601994753E0
2.839928308E1,-1.548754454E0,-2.046820450E1,-1.867598057E0
2.841942522E1,4.067798331E-2,-2.042752647E1,-1.913061738E0
2.843969626E1,8.117650747E-1,-1.497368622E1,-1.345962763E0
2.845996730E1,9.074779749E-1,-9.546165466E0,6.843472719E-1
2.848023834E1,2.099701881E0,-6.512664795E0,5.248058319E0
2.850063834E1,1.637887120E0,-6.090929985E0,6.915257573E-1
2.852078048E1,9.433703423E-1,-5.315655708E0,-4.983053207E-1
2.854105152E1,2.344966233E-1,-5.195415974E0,-6.227321029E-1
2.856132256E1,-5.503492057E-2,-5.956932068E0,-1.089930773E0
2.858159360E1,-5.670989752E-1,-6.955337048E0,-1.597209096E0
2.860199360E1,-9.529415965E-1,-7.786244869E0,-1.582852125E0
2.862213574E1,-6.939185858E-1,-7.735995770E0,-6.203392744E-1
2.864240673E1,4.504488707E-1,-7.120441914E0,2.105683982E-1
2.866267782E1,8.189435601E-1,-7.063014030E0,3.852444589E-1
2.868294892E1,1.387837082E-1,-7.518248558E0,6.508477330E-1
2.870334892E1,-1.780858278E0,-8.956933022E0,1.740180254E0
2.872349095E1,-5.097310543E0,-1.247378445E1,5.626124382E0
2.874376204E1,-1.089332485E1,-1.671446419E1,1.220518970E1
2.876403313E1,-1.283749390E1,-1.596969795E1,3.914059639E0
2.878430418E1,-1.121934700E1,-1.110927773E1,1.610967875E0
2.880457522E1,-8.279166222E0,-9.457631111E0,2.105683982E-1
2.882497522E1,-5.604588985E0,-1.576391602E1,-1.231107235E0
2.884511735E1,-2.980858803E0,-1.371446323E1,-2.404188633E0
2.886538839E1,-1.004985496E-1,-8.137989998E0,-1.647458434E0
2.888565949E1,1.094118118E0,-7.141977310E0,-5.605186820E-1
2.890593053E1,1.865205288E0,-7.841279984E0,4.067798331E-2
2.892620157E1,2.365903378E0,-1.057089233E1,-1.097109199E0
2.894647266E1,3.076571703E0,-1.239242840E1,-3.000001431E0
2.896674371E1,2.880360365E0,-1.184686470E1,-3.577269793E0
2.898701480E1,2.130808592E0,-9.349356651E0,-2.935395241E0
2.900728584E1,1.544566989E0,-7.079763889E0,-2.051845312E0
2.902755694E1,8.165507317E-1,-6.057430744E0,-1.412961721E0
2.904782798E1,5.742774159E-2,-6.304489613E0,-1.121037364E0
2.906809907E1,-6.652047038E-1,-8.130811691E0,-5.629115105E-1
2.908837016E1,-1.390828133E0,-1.010847950E1,2.512463629E-1
2.910864121E1,-2.341377020E0,-1.042492962E1,1.919641972E0
2.912891230E1,-2.403590441E0,-9.778269768E0,1.802393675E0
2.914918339E1,-2.030309916E0,-9.246464729E0,-2.829512656E-1
2.916945444E1,-2.559123755E0,-9.469595909E0,-1.185643673E0
2.918972553E1,-3.043072224E0,-9.885947227E0,-1.266999602E0
2.920999662E1,-3.385245800E0,-1.023290634E1,-1.144965649E0
2.923026767E1,-3.760919094E0,-9.854840279E0,-9.816554785E-1
2.925053876E1,-4.149154663E0,-1.009412193E1,-1.022333503E0
2.927080985E1,-3.882952929E0,-1.156211948E1,-1.389033556E0
2.929108095E1,-3.241676569E0,-1.168893814E1,-1.381855130E0
2.931135204E1,-3.480958700E0,-1.074796104E1,-1.496710539E0
2.933162313E1,-4.031906128E0,-9.455238342E0,-1.190429211E0
2.935189423E1,-4.374079704E0,-8.485547066E0,-2.901297510E-1
2.937216532E1,-5.181059361E0,-8.708079338E0,1.749751568E0
2.939243642E1,-5.913262844E0,-8.901898384E0,5.425127029E0
2.941270751E1,-2.933002472E0,-1.213400364E1,-9.571290575E-3
2.943297860E1,-2.810370207E0,-1.636929893E1,-1.003190875E0
2.945324970E1,-2.214557409E0,-2.159582329E1,-1.501496196E0
2.947352079E1,-9.888339639E-1,-2.330788803E1,-1.726421595E0
2.949379188E1,4.719842672E-1,-1.750409508E1,-8.811569214E-1
2.951406303E1,3.267997503E0,-1.110449123E1,7.804789066E0
2.953433412E1,2.595614433E0,-7.992027760E0,1.773679733E0
2.955460522E1,2.236092806E0,-6.326025009E0,-1.058824062E0
2.957487631E1,1.838884234E0,-4.946562767E0,-2.272583246E0
2.959514746E1,1.400997639E0,-3.842873096E0,-1.599601984E0
2.961541855E1,7.423732281E-1,-3.728017569E0,-7.064808607E-1
2.963568970E1,2.805584669E-1,-4.501497746E0,-1.554138303E0
2.965596079E1,6.939185411E-2,-5.854040623E0,-2.184048891E0
2.967623188E1,-1.938186288E-1,-7.228118896E0,-1.549352646E0
2.969650303E1,2.033899277E-1,-7.960920811E0,-1.034895778E-1
2.971677412E1,9.529415965E-1,-7.972885132E0,1.055832982E0
2.973704527E1,-1.046261668E0,-8.423334122E0,3.001796007E0
2.975731642E1,-6.638886452E0,-1.092024422E1,1.084307575E1
2.977758751E1,-9.545567513E0,-1.462911987E1,1.239900875E1
2.979785865E1,-9.921240807E0,-1.576391602E1,5.537590027E0
2.981812980E1,-1.101057339E1,-1.197846985E1,2.796013355E0
2.983840095E1,-8.506484032E0,-8.090133667E0,1.560718536E0
2.985867209E1,-5.231308460E0,-1.500000668E1,-2.025524378E0
2.987894324E1,-3.794418573E0,-1.715952873E1,-3.242274761E0
2.989934324E1,-8.189435601E-1,-9.272786140E0,-1.735992789E0
2.991948553E1,1.046261668E0,-7.439285755E0,-4.049852192E-1
2.993975668E1,2.044667006E0,-8.097311974E0,-2.231307179E-1
2.996002782E1,2.092523336E0,-1.025683403E1,-1.829312921E0
2.998029897E1,1.925025821E0,-1.112841988E1,-3.083750248E0
3.000069897E1,1.752742529E0,-1.093460083E1,-3.804588079E0
3.002084131E1,1.446461320E0,-9.381061554E0,-3.361915827E0
3.004111246E1,9.744769931E-1,-7.668996811E0,-2.454437733E0
3.006138360E1,4.504488707E-1,-6.476772785E0,-1.630708575E0
3.008165475E1,-1.914258115E-2,-6.181857109E0,-1.106680512E0
3.010205475E1,-6.747759581E-1,-7.613961697E0,-5.198407173E-1
3.012219714E1,-2.047059774E0,-9.852447510E0,2.022533417E0
3.014246834E1,-2.827120066E0,-1.022812080E1,3.619742393E0
3.016273949E1,-1.733001828E0,-1.006540871E1,3.924229145E-1
3.018301069E1,-1.783251047E0,-9.931410789E0,-7.710871100E-1
3.020328188E1,-2.164308071E0,-9.443274498E0,-1.171286702E0
3.022355308E1,-2.525624275E0,-9.327820778E0,-1.200000525E0
3.024382428E1,-2.959323406E0,-9.888339996E0,-1.085145116E0
3.026409548E1,-3.502494097E0,-9.960124016E0,-1.113858938E0
3.028436668E1,-3.924229145E0,-1.068574810E1,-1.336391449E0
3.030476668E1,-4.173082829E0,-1.174636650E1,-1.683350682E0
3.032490907E1,-3.851846218E0,-1.092742252E1,-9.146564603E-1
3.034518032E1,-4.316651821E0,-1.002951622E1,-4.887340367E-1
3.036545152E1,-4.852644444E0,-9.562915802E0,-7.447660565E-1
3.038572272E1,-5.642873764E0,-9.553344727E0,-3.906283081E-1
3.040599397E1,-6.662814617E0,-9.088538170E0,2.614158630E0
3.042626516E1,-5.626124382E0,-9.275178909E0,4.002593994E0
3.044653642E1,-2.685943365E0,-1.277827072E1,-3.690928817E-1
3.046680761E1,-2.707478762E0,-1.689871216E1,-1.195214868E0
3.048707886E1,-2.061416626E0,-2.215873337E1,-1.587637782E0
3.050735011E1,-4.689932466E-1,-2.186680984E1,-1.716850281E0
3.052762136E1,1.599601984E0,-1.540200138E1,2.547159672E0
3.054789256E1,3.131606579E0,-1.009172916E1,6.552744865E0
3.056816386E1,1.850848317E0,-7.561319351E0,-2.392822644E-3
3.058843506E1,1.554138303E0,-6.028716564E0,-1.764706731E0
3.060870631E1,1.175474167E0,-4.877170563E0,-2.025524378E0
3.062897756E1,4.648058116E-1,-4.074976921E0,-1.178465128E0
3.064924881E1,1.674975827E-2,-4.456034184E0,-1.178465128E0
3.066952006E1,-2.799602449E-1,-5.289334297E0,-1.980060697E0
3.068979136E1,-7.345965505E-1,-6.278168201E0,-1.860419631E0
3.071006261E1,-5.383850932E-1,-7.036693096E0,-3.308077157E-1
3.073033386E1,6.634100676E-1,-7.290930748E0,5.742774606E-1
3.075060517E1,1.343569875E0,-7.096513748E0,1.185045362E0
3.077087642E1,-6.293123364E-1,-7.793423176E0,3.126821041E0
3.079114772E1,-5.774479389E0,-1.088195896E1,9.612566948E0
3.081141897E1,-8.781659126E0,-1.525125313E1,1.168116188E1
3.083169027E1,-1.021854877E1,-1.671924973E1,7.469794273E0
3.085196152E1,-1.048654556E1,-1.147358418E1,3.232105255E0
3.087223282E1,-7.362117290E0,-1.106381416E1,4.043870270E-1
3.089250412E1,-5.327021599E0,-1.783490372E1,-3.189632654E0
3.091277543E1,-3.617349625E0,-1.242832088E1,-3.316452265E0
3.093304673E1,2.033899277E-1,-6.993622303E0,-1.501496196E0
3.095331803E1,1.984846354E0,-7.223333359E0,-4.073780477E-1
3.097358933E1,2.377867460E0,-1.014915752E1,-1.731207132E0
3.099386063E1,1.759921074E0,-1.173679543E1,-2.997608662E0
3.101413194E1,1.225723386E0,-1.161236858E1,-3.699303865E0
3.103440324E1,1.098903775E0,-9.917053223E0,-3.201596737E0
3.105467454E1,8.787640929E-1,-8.267202377E0,-2.456830740E0
3.107494584E1,4.959124923E-1,-7.232904434E0,-1.810170293E0
3.109534584E1,1.531406492E-1,-6.625127792E0,-9.409775138E-1
3.111548850E1,-6.077769399E-1,-7.530212879E0,1.938186288E-1
3.113575985E1,-2.291127682E0,-9.069396019E0,3.899702787E0
3.115603115E1,-2.544766903E0,-9.486345291E0,3.751347780E0
3.117630251E1,-1.438684583E0,-9.330213547E0,1.268195957E-1
3.119657381E1,-1.546361685E0,-9.369096756E0,-9.672985673E-1
3.121684517E1,-1.934597135E0,-9.320642471E0,-1.159322619E0
3.123711647E1,-2.178664923E0,-9.136395454E0,-1.269392371E0
3.125738782E1,-2.461018085E0,-9.629914284E0,-1.410568953E0
3.127765918E1,-2.985644341E0,-1.005823040E1,-1.487139225E0
3.129793053E1,-3.535993576E0,-1.063310528E1,-1.204786181E0
3.131820188E1,-4.185046673E0,-1.194018459E1,-9.433703423E-1
3.133847324E1,-4.051048756E0,-1.180140114E1,-6.203392744E-1
3.135874459E1,-3.866203070E0,-9.991230965E0,2.871387079E-2
3.137901595E1,-4.570291042E0,-9.299106598E0,-6.520441920E-2
3.139941595E1,-5.123631477E0,-8.480761528E0,9.092725813E-2
3.141955865E1,-6.492924213E0,-8.370692253E0,2.927618504E0
3.143983001E1,-6.296712875E0,-8.519046783E0,2.999403238E0
3.146010142E1,-3.421138287E0,-1.172483063E1,-4.791627228E-1
3.148037277E1,-3.160320520E0,-1.537567997E1,-1.259821177E0
3.150077277E1,-2.745764017E0,-2.037249184E1,-1.424925923E0
3.152091553E1,-1.560718536E0,-2.308535385E1,-2.143370867E0
3.154118688E1,5.742774159E-2,-1.821057701E1,-1.802991867E0
3.156145829E1,1.637887120E0,-1.255095291E1,6.197410822E-1
3.158172964E1,3.445664644E0,-8.729615211E0,6.107081413E0
3.160212964E1,2.437688112E0,-7.570890903E0,1.007378340E0
3.162227240E1,1.841277003E0,-6.282954216E0,-1.094716311E0
3.164254381E1,1.134796143E0,-4.884349346E0,-1.221535921E0
3.166281522E1,2.344966233E-1,-4.144368649E0,-6.969096065E-1
3.168308662E1,-1.507478207E-1,-4.549354076E0,-1.243071318E0
3.170348662E1,-3.134597540E-1,-5.420939922E0,-2.023131609E0
3.172362938E1,-5.168496966E-1,-6.452844620E0,-1.726421595E0
3.174390079E1,-4.785645381E-2,-6.929016113E0,-2.685943544E-1
3.176417220E1,9.696913958E-1,-7.173084259E0,7.752745152E-1
3.178444360E1,-1.674975827E-2,-7.582854748E0,2.022533417E0
3.180471501E1,-4.072584152E0,-9.419346809E0,6.078367710E0
3.182511501E1,-7.811967850E0,-1.376949787E1,1.161176968E1
3.184525777E1,-9.325428009E0,-1.736052704E1,9.061619759E0
3.186552918E1,-1.035972595E1,-1.364507103E1,4.273581028E0
3.188580063E1,-7.721040249E0,-8.447261810E0,1.381256819E0
3.190620063E1,-5.437091351E0,-1.502872086E1,-2.344367981E0
3.192634339E1,-4.460221291E0,-1.763570023E1,-3.208775282E0
3.194661485E1,-1.388435364E0,-8.104490280E0,-1.738385677E0
3.196688626E1,2.298306227E0,-5.944967747E0,2.327019930E0
3.198715766E1,3.866801500E0,-8.471190453E0,3.265604734E0
3.200742907E1,1.163509965E0,-1.132941723E1,-2.519043922E0
3.202770048E1,4.695914388E-1,-1.179422283E1,-4.525425911E0
3.204797188E1,3.834498227E-1,-1.121456146E1,-4.472783566E0
3.206824334E1,3.954139352E-1,-9.773484230E0,-3.273381472E0
3.208851475E1,5.264209956E-2,-8.392227173E0,-2.349153519E0
3.210878615E1,-3.517449200E-1,-7.326822758E0,-1.795813441E0
3.212905761E1,-6.149554253E-1,-6.907480717E0,-1.482353687E0
3.214932897E1,-1.091725349E0,-7.690532207E0,-9.242277741E-1
3.216960048E1,-2.126022816E0,-9.112466812E0,7.274180651E-1
3.218987188E1,-2.968894720E0,-9.739984512E0,3.863810301E0
3.221014334E1,-2.568695068E0,-9.126823425E0,2.039283037E0
3.223041475E1,-2.219342947E0,-9.014361382E0,1.986042857E-1
3.225068621E1,-2.212164640E0,-9.153144836E0,-1.974078640E-2
3.227095767E1,-2.025524378E0,-8.995218277E0,-7.064808607E-1
3.229122907E1,-2.023131609E0,-9.318249702E0,-1.377069473E0
3.231150053E1,-2.291127682E0,-9.486345291E0,-1.432104349E0
3.233177199E1,-2.657229662E0,-1.035733318E1,-1.087537885E0
3.235204339E1,-2.559123755E0,-1.166501045E1,-9.840483069E-1
3.237231485E1,-2.020738840E0,-1.185165024E1,-1.027119160E0
3.239258631E1,-2.032702923E0,-1.075513935E1,-8.380861282E-1
3.241285777E1,-3.076571703E0,-9.766305923E0,-1.022333503E0
3.243312923E1,-3.854238987E0,-9.346963882E0,-8.715856671E-1
3.245340069E1,-4.900500774E0,-9.761520386E0,-4.791627228E-1
3.247367209E1,-5.669195175E0,-8.949754715E0,1.814357758E0
3.249394355E1,-6.227321148E0,-9.460023880E0,3.557528973E0
3.251421501E1,-3.385245800E0,-1.296730423E1,-8.691928387E-1
3.253448647E1,-2.748156786E0,-1.673360634E1,-1.606780410E0
3.255488647E1,-1.675574064E0,-2.035334969E1,-1.599601984E0
3.257502933E1,-2.751746178E-1,-1.846660805E1,-1.305284739E0
3.259530084E1,2.638086975E-1,-1.333819199E1,-7.974081635E-1
3.261557230E1,8.883354068E-1,-9.306285858E0,2.786442041E0
3.263584381E1,1.441675663E0,-7.570890903E0,2.611765862E0
3.265611527E1,1.070189953E0,-6.531807423E0,-8.285148144E-1
3.267638673E1,7.734799385E-1,-5.526223660E0,-1.570888042E0
3.269665819E1,5.700899959E-1,-4.946562767E0,-1.233500123E0
3.271692964E1,3.499503136E-1,-5.442475319E0,-1.156929731E0
3.273720110E1,2.632104978E-2,-6.804589272E0,-1.719243050E0
3.275747261E1,-3.804588020E-1,-8.147561073E0,-1.479960799E0
3.277774407E1,4.193421602E-1,-8.365905762E0,-3.738785386E-1
3.279801553E1,1.647458434E0,-7.329215527E0,1.316052526E-1
3.281828704E1,1.795813441E0,-7.295716286E0,3.134597540E-1
3.283855850E1,8.021938205E-1,-8.128418922E0,9.379864931E-1
3.285882990E1,-2.193022013E0,-1.037408257E1,2.807977438E0
3.287910147E1,-7.419544697E0,-1.501914978E1,1.067079258E1
3.289950147E1,-1.158544922E1,-1.661815262E1,7.048058987E0
3.291964438E1,-1.140598774E1,-1.354935837E1,1.185045362E0
3.293991589E1,-8.461020470E0,-8.185846329E0,-6.921239495E-1
3.296018735E1,-6.445067883E0,-8.349156380E0,-6.107679605E-1
3.298045886E1,-5.307878971E0,-1.638604927E1,-1.901097536E0
3.300085886E1,-3.607778311E0,-1.408535004E1,-1.996810555E0
3.302100183E1,-7.657032460E-2,-8.307880402E0,-2.452643216E-2
3.304127329E1,2.571686029E0,-7.432106972E0,3.392424345E0
3.306154475E1,2.358724833E0,-8.791828156E0,2.458625317E0
3.308181626E1,1.735992789E0,-1.052542877E1,-1.396211982E0
3.310221626E1,2.202593327E0,-1.213878918E1,-4.262215137E0
3.312235923E1,1.661815286E0,-1.189950657E1,-4.671388149E0
3.314263068E1,1.429711580E0,-9.258428574E0,-3.359523058E0
3.316290220E1,1.079761267E0,-7.384250641E0,-2.318047047E0
3.318317371E1,4.145565331E-1,-6.780661106E0,-1.807777524E0
3.320344517E1,-1.986042857E-1,-7.161119938E0,-1.439282775E0
3.322371668E1,-6.340979934E-1,-8.502297401E0,-1.274178028E0
3.324398813E1,-9.649057388E-1,-9.780662537E0,-1.056431174E0
3.326425964E1,-1.563111424E0,-9.830911636E0,2.919243574E-1
3.328453115E1,-2.157129526E0,-9.339784622E0,2.695514679E0
3.330480261E1,-2.068595171E0,-8.930612564E0,2.142772675E0
3.332507412E1,-1.668395638E0,-9.117252350E0,7.178467698E-3
3.334534563E1,-2.008774519E0,-9.694520950E0,-5.940182209E-1
3.336561709E1,-2.360519648E0,-1.000558758E1,-8.524430394E-1
3.338588860E1,-2.559123755E0,-9.464810371E0,-1.106680512E0
3.340616011E1,-2.843869686E0,-9.560523033E0,-1.470389485E0
3.342643162E1,-3.184248686E0,-1.110209846E1,-1.939382792E0
3.344670303E1,-3.078964472E0,-1.198086262E1,-2.107478619E0
3.346697459E1,-3.191427231E0,-1.120977592E1,-1.831705689E0
3.348724605E1,-3.863810301E0,-1.023769188E1,-1.403390527E0
3.350751756E1,-4.780859470E0,-1.074078274E1,-1.166501045E0
3.352778907E1,-5.231308460E0,-1.042014408E1,-8.021938205E-1
3.354806053E1,-5.135595798E0,-8.822935104E0,9.499505758E-1
3.356833204E1,-5.236093998E0,-9.790233612E0,5.528018475E0
3.358860355E1,-2.592623234E0,-1.287398434E1,1.435693651E-1
3.360887501E1,-1.948953986E0,-1.725524139E1,1.914258115E-2
3.362914652E1,-6.436693072E-1,-2.056631088E1,-2.327020019E-1
3.364941803E1,6.251249313E-1,-1.811964989E1,-6.520441920E-2
3.366968954E1,2.329412937E0,-1.277827072E1,5.420341492E0
3.368996100E1,1.499103427E0,-8.866005898E0,1.823929071E0
3.371023251E1,1.079761267E0,-7.118049145E0,-5.988038778E-1
3.373050402E1,1.110867858E0,-5.978467464E0,-1.719243050E0
3.375077553E1,1.079761267E0,-4.874777794E0,-1.252642632E0
3.377104704E1,5.964110494E-1,-4.274179459E0,-3.810569942E-1
3.379131850E1,2.638086975E-1,-5.178666592E0,-8.835497499E-1
3.381159001E1,-5.742774159E-2,-6.885945320E0,-1.712064624E0
3.383186152E1,-4.666004181E-1,-8.288737297E0,-1.116251707E0
3.385213303E1,-5.192425251E-1,-8.104490280E0,6.652047038E-1
3.387240454E1,3.834498227E-1,-7.331608772E0,1.204187989E0
3.389267600E1,2.584248483E-1,-7.005586624E0,1.627717614E0
3.391294751E1,-1.822134495E0,-8.039883614E0,1.960319996E0
3.393321902E1,-4.321437836E0,-1.092742252E1,2.659622431E0
3.395349053E1,-9.150752068E0,-1.526561069E1,9.286544800E0
3.397376199E1,-1.173619652E1,-1.669053650E1,8.089534760E0
3.399403350E1,-1.036690426E1,-1.218185997E1,3.524029493E0
3.401430501E1,-7.345367432E0,-7.932207108E0,1.144367456E0
3.403457652E1,-4.106083870E0,-1.095135117E1,-5.413761139E-1
3.405484803E1,-2.921038151E0,-1.840918159E1,-2.334796667E0
3.407511954E1,-1.319043517E0,-1.280459213E1,-2.408974171E0
3.409539100E1,7.040880919E-1,-8.983254433E0,-9.840483069E-1
3.411566251E1,1.163509965E0,-7.096513748E0,-4.863412082E-1
3.413593402E1,1.922633052E0,-7.786244869E0,-6.969096065E-1
3.415620548E1,2.509472847E0,-1.010608673E1,-1.762313843E0
3.417647699E1,2.748754978E0,-1.183490086E1,-3.047857761E0
3.419674850E1,2.106880426E0,-1.097527885E1,-3.040679455E0
3.421702001E1,1.704886079E0,-8.609973907E0,-2.471187592E0
3.423729147E1,1.208973646E0,-6.976872444E0,-1.755135417E0
3.425756298E1,3.738785386E-1,-6.524629116E0,-9.744769931E-1
3.427783449E1,-4.809573591E-1,-7.745566845E0,-2.877369225E-1
3.429810600E1,-1.113260746E0,-9.064610481E0,2.847459018E-1
3.431837751E1,-1.680359721E0,-9.670592308E0,9.475577474E-1
3.433864897E1,-1.920240164E0,-9.661021233E0,7.848458290E-1
3.435892048E1,-2.161915302E0,-9.680164337E0,-2.733799815E-1
3.437919199E1,-2.815155745E0,-9.876375198E0,-1.046261668E0
3.439959199E1,-3.397209883E0,-1.005105114E1,-1.479960799E0
3.441973501E1,-3.768097401E0,-1.022812080E1,-1.523031592E0
3.444000647E1,-3.861417532E0,-1.021137047E1,-1.024726272E0
3.446027798E1,-3.753740549E0,-9.028717995E0,-4.815555513E-1
3.448054949E1,-3.689134359E0,-8.516654015E0,-5.772684813E-1
3.450094949E1,-3.162713289E0,-1.042732334E1,-7.399803996E-1
3.452109246E1,-2.551945448E0,-1.135573769E1,-1.024726272E0
3.454136397E1,-2.638087034E0,-1.090110207E1,-1.515853167E0
3.456163548E1,-3.086143017E0,-9.761520386E0,-1.546959877E0
3.458190699E1,-4.060619831E0,-9.383454323E0,-9.194421172E-1
3.460230699E1,-4.926821709E0,-1.010847950E1,-3.475574851E-1
3.462244996E1,-4.505684853E0,-8.956933022E0,1.016949654E0
3.464272147E1,-3.720241070E0,-1.118584728E1,3.258426189E0
3.466299298E1,-2.752942562E0,-1.532064533E1,-9.152546525E-2
3.468326444E1,-2.185843468E0,-1.991067696E1,-1.367498159E0
3.470366444E1,-4.450650215E-1,-2.248176575E1,-1.070788145E0
3.472380746E1,1.199402332E0,-1.797129440E1,1.120439172E0
3.474407892E1,3.031108141E0,-1.145444202E1,8.566305161E0
3.476435042E1,1.613958836E0,-7.893921852E0,2.608176768E-1
3.478462194E1,1.312463164E0,-5.727221012E0,-1.585245013E0
3.480485407E1,8.883354068E-1,-4.917848587E0,-2.270190477E0
3.482525407E1,7.064808607E-1,-4.487140656E0,-1.781456470E0
3.484543647E1,2.488535494E-1,-4.664209366E0,-9.098708034E-1
3.486570792E1,-1.052841991E-1,-5.889933109E0,-1.463211060E0
3.488597944E1,-6.436693072E-1,-7.690532207E0,-1.776670814E0
3.490625089E1,-9.457631707E-1,-8.966505051E0,-1.092323542E0
3.492652240E1,-2.344966233E-1,-8.260024071E0,3.876372576E-1
3.494679386E1,9.864411354E-1,-7.180262566E0,7.178468108E-1
3.496706537E1,1.070189953E0,-6.663413048E0,7.465606928E-1
3.498733683E1,-5.958128572E-1,-7.230511665E0,1.156331539E0
3.500760829E1,-3.801596880E0,-1.038604641E1,3.392424345E0
3.502787980E1,-9.078369141E0,-1.522253990E1,1.166201973E1
3.504815126E1,-1.287338543E1,-1.761895180E1,8.463413239E0
3.506842277E1,-1.205444241E1,-1.381974697E1,2.812762976E0
3.508869423E1,-8.755337715E0,-8.569295883E0,6.891329288E-1
3.510896574E1,-5.178666592E0,-1.094178009E1,-8.117650747E-1
3.512923720E1,-2.755335331E0,-1.585484314E1,-2.708076954E0
3.514950871E1,-9.481559992E-1,-1.111645603E1,-2.454437733E0
3.516978016E1,8.213363886E-1,-8.188239098E0,-8.739784956E-1
3.519005168E1,1.357926846E0,-8.901898384E0,-2.691925503E-2
3.521032313E1,2.154736757E0,-1.049432182E1,-2.781656384E-1
3.523059464E1,2.748754978E0,-1.104945660E1,-1.896311998E0
3.525086610E1,2.413759947E0,-1.096092224E1,-2.949752092E0
3.527113761E1,1.661815286E0,-9.976874352E0,-2.772683144E0
3.529140907E1,1.312463164E0,-7.972885132E0,-2.672184706E0
3.531168053E1,8.596215248E-1,-6.785446644E0,-2.246262312E0
3.533195204E1,1.842473447E-1,-6.527021885E0,-1.511067510E0
3.535222350E1,-2.656033039E-1,-7.616354465E0,-8.596215248E-1
3.537249501E1,-8.596215248E-1,-9.414560318E0,7.896314561E-2
3.539276647E1,-1.800000787E0,-1.011326504E1,1.637288928E0
3.541303798E1,-2.073380709E0,-9.754341125E0,1.991426587E0
3.543330944E1,-1.606182218E0,-9.412167549E0,9.571290761E-2
3.545358089E1,-2.056631088E0,-9.457631111E0,-6.921239495E-1
3.547385240E1,-2.731407166E0,-9.747162819E0,-1.133001566E0
3.549412386E1,-3.267997503E0,-1.034058285E1,-1.496710539E0
3.551439532E1,-3.648456335E0,-1.028315544E1,-1.408176184E0
3.553466683E1,-3.984049797E0,-9.296713829E0,-1.400997639E0
3.555493829E1,-4.484149456E0,-9.479166985E0,-1.429711580E0
3.557520980E1,-4.280759811E0,-1.098245811E1,-1.314856052E0
3.559560980E1,-3.282354355E0,-1.126720333E1,-1.333998680E0
3.561575272E1,-3.102892876E0,-1.042253685E1,-1.144965649E0
3.563602418E1,-3.399602890E0,-9.189037323E0,-6.035895348E-1
3.565629568E1,-4.149154663E0,-8.782257080E0,-2.327020019E-1
3.567656714E1,-5.154737949E0,-9.313464165E0,2.416750938E-1
3.569683860E1,-5.283950806E0,-8.394619942E0,6.478567123E0
3.571711011E1,-2.925823927E0,-1.076949692E1,1.063011408E0
3.573738157E1,-2.614158630E0,-1.582852173E1,-2.374876440E-1
3.575765303E1,-2.066202402E0,-2.103829575E1,-1.003190875E0
3.577792449E1,-6.221339107E-1,-2.304467583E1,-1.226321578E0
3.579819595E1,4.073780477E-1,-1.765962982E1,-7.878368497E-1
3.581859595E1,1.530210137E0,-1.130788136E1,4.354937077E0
3.583873892E1,2.068595171E0,-8.228917122E0,2.906083107E0
3.585901037E1,1.661815286E0,-7.146762848E0,-5.844469070E-1
3.587928188E1,1.412961721E0,-6.222535133E0,-1.657029629E0
3.589968188E1,8.356932998E-1,-4.948955536E0,-1.147358418E0
3.591982480E1,3.260220885E-1,-4.185645103E0,-3.308077157E-1
3.594009626E1,1.435693540E-2,-4.551746845E0,-9.314061999E-1
3.596036772E1,-3.302095234E-1,-5.844469070E0,-1.621137381E0
3.598063923E1,-6.293123364E-1,-7.405786037E0,-1.628315806E0
3.600103923E1,6.460621208E-2,-8.190631866E0,-4.360919297E-1
3.602118214E1,1.175474167E0,-7.697710514E0,5.742774159E-2
3.604145360E1,1.285543919E0,-7.707281590E0,5.120640397E-1
3.606172506E1,-9.433703423E-1,-9.359525681E0,2.126022816E0
3.608199652E1,-6.107679844E0,-1.333340645E1,9.500103951E0
3.610239652E1,-1.135573769E1,-1.673360634E1,1.362054443E1
3.612253944E1,-1.160698414E1,-1.483729458E1,3.222533941E0
3.614281089E1,-9.440283775E0,-9.701699257E0,-2.039881349E-1
3.616308235E1,-6.672386169E0,-7.558926582E0,-1.041476011E0
3.618335381E1,-5.745765209E0,-1.508614826E1,-2.018345833E0
3.620362532E1,-3.686741590E0,-1.620898056E1,-2.746362209E0
3.622389673E1,-6.149554253E-1,-9.224929810E0,-1.259821177E0
3.624416824E1,7.280163169E-1,-7.910671711E0,6.939185411E-2
3.626443970E1,1.860419631E0,-8.255238533E0,1.469791293E0
3.628471110E1,1.917847395E0,-9.842875481E0,-3.619144261E-1
3.630498256E1,2.732005358E0,-1.120738316E1,-2.452044964E0
3.632525402E1,2.492722988E0,-1.181097221E1,-3.309273720E0
3.634552548E1,1.865205288E0,-9.933803558E0,-3.201596737E0
3.636579694E1,1.546959877E0,-7.726424217E0,-2.641077995E0
3.638606839E1,9.050851464E-1,-6.460022926E0,-1.920240164E0
3.640633985E1,1.411765367E-1,-6.720840454E0,-1.322034478E0
3.642661131E1,-5.479564071E-1,-8.392227173E0,-8.213363886E-1
3.644688277E1,-1.189831018E0,-1.017069244E1,-3.762713671E-1
3.646715423E1,-2.173879385E0,-1.080299568E1,2.344966233E-1
3.648742569E1,-2.554338217E0,-1.055892849E1,8.590233326E-1
3.650769714E1,-2.760120869E0,-9.620343208E0,6.508477330E-1
3.652796860E1,-2.807977438E0,-8.868398666E0,-1.345962733E-1
3.654824006E1,-2.995215654E0,-9.177073479E0,-7.351947427E-1
3.656851152E1,-3.105285645E0,-9.763913155E0,-1.082752228E0
3.658878293E1,-3.416352510E0,-9.193822861E0,-1.089930773E0
3.660905438E1,-3.677170277E0,-8.849256516E0,-1.338784218E0
3.662932584E1,-3.634099483E0,-1.045125103E1,-1.427318692E0
3.664959730E1,-2.774477959E0,-1.139880848E1,-1.350748420E0
3.666986876E1,-2.240878344E0,-1.069771194E1,-1.451246977E0
3.669014022E1,-2.496910334E0,-1.007497978E1,-1.580459356E0
3.671041168E1,-2.944966555E0,-9.804591179E0,-1.415354609E0
3.673068308E1,-4.053441525E0,-1.067378330E1,-1.166501045E0
3.675095454E1,-4.280759811E0,-9.555737495E0,-6.227321029E-1
3.677122600E1,-3.720241070E0,-8.090133667E0,1.493719578E0
3.679149746E1,-3.093321562E0,-1.003190899E1,4.979464054E0
3.681176892E1,-2.604587555E0,-1.306540966E1,-1.872383654E-1
3.683204032E1,-1.666002750E0,-1.705663872E1,-1.092323542E0
3.685231178E1,1.004985496E-1,-1.925205231E1,-5.892325640E-1
3.687258324E1,9.481559992E-1,-1.644108391E1,-6.131607890E-1
3.689285464E1,2.201396823E-1,-1.156451225E1,-1.489532143E-1
3.691312610E1,-4.187439680E-1,-8.109275818E0,2.200200319E0
3.693339756E1,5.503492057E-2,-7.458428383E0,1.125224829E0
3.695366902E1,1.818545163E-1,-7.211369038E0,-3.523431420E-1
3.697394042E1,-2.344966233E-1,-6.247061729E0,-4.384847581E-1
3.699421188E1,-6.460621357E-1,-5.574080467E0,-1.872383654E-1
3.701448334E1,-5.790630579E-1,-6.227321148E0,-8.165507317E-1
3.703475475E1,-6.891329288E-1,-7.542177200E0,-1.243071318E0
3.705498688E1,-9.385846853E-1,-8.341978073E0,-9.242277741E-1
3.707529761E1,-1.292124242E-1,-8.176275253E0,1.698904037E-1
3.709556907E1,8.955138922E-1,-7.779066563E0,5.766702294E-1
3.711584048E1,1.256830096E0,-7.817351341E0,7.298108935E-1
3.713611199E1,9.625129104E-1,-8.320442200E0,1.153938770E0
3.715638339E1,-9.696913958E-1,-8.846863747E0,2.410768747E0
3.717665485E1,-4.512863636E0,-1.055892849E1,4.493721008E0
3.719692631E1,-8.918049812E0,-1.356850052E1,8.776873589E0
3.721719772E1,-1.198265743E1,-1.525603867E1,5.487340450E0
3.723746918E1,-1.099382401E1,-1.258445263E1,2.839084148E0
3.725774058E1,-7.548757076E0,-8.442476273E0,1.070189953E0
3.727801204E1,-4.029513359E0,-1.260120201E1,3.038884699E-1
3.729828339E1,-2.882753134E0,-1.658704567E1,-1.245464206E0
3.731855490E1,-1.266401410E0,-1.223689461E1,-1.558923960E0
3.733882636E1,7.280163169E-1,-9.464810371E0,-7.950153351E-1
3.735909777E1,6.993024349E-1,-7.479963779E0,-7.806583643E-1
3.737936923E1,1.341177106E0,-7.266404152E0,-1.319641709E0
3.739976923E1,2.025524378E0,-9.315856934E0,-2.461616278E0
3.741991209E1,2.255235434E0,-1.220818138E1,-3.328416348E0
3.744018350E1,1.869990945E0,-1.213639641E1,-2.913859844E0
3.746045496E1,1.329213023E0,-9.448060036E0,-2.047059774E0
3.748072636E1,8.955138922E-1,-7.652246952E0,-1.417747378E0
3.750112636E1,3.499503136E-1,-7.005586624E0,-8.069794178E-1
3.752126923E1,-4.666004181E-1,-8.228917122E0,-1.465603858E-1
3.754154063E1,-1.302293777E0,-9.361918449E0,5.240281820E-1
3.756181209E1,-1.963310957E0,-9.763913155E0,1.462612867E0
3.758208280E1,-2.051845312E0,-9.491130829E0,1.481755376E0
3.760248311E1,-1.862812400E0,-9.440881729E0,1.746760458E-1
3.762262598E1,-2.013560295E0,-9.644271851E0,-6.275177598E-1
3.764289738E1,-2.305484533E0,-9.397810936E0,-9.314061999E-1
3.766316884E1,-2.614158630E0,-9.339784622E0,-1.043868899E0
3.768344025E1,-2.925823927E0,-9.486345291E0,-8.787640929E-1
3.770384025E1,-3.258426189E0,-9.052646637E0,-8.955138922E-1
3.772398306E1,-3.504886866E0,-8.509475708E0,-1.415354609E0
3.774425452E1,-3.667598963E0,-8.904291153E0,-1.585245013E0
3.776452592E1,-2.779263496E0,-1.057328510E1,-1.188036442E0
3.778479738E1,-2.240878344E0,-1.114516926E1,-1.176072359E0
3.780506879E1,-1.972882271E0,-1.153340530E1,-1.233500123E0
3.782534019E1,-2.271985054E0,-1.120020485E1,-1.190429211E0
3.784561160E1,-2.561516523E0,-9.938589096E0,-1.005583763E0
3.786588306E1,-3.378067255E0,-9.780662537E0,-7.160521746E-1
3.788615447E1,-4.156332970E0,-1.019701385E1,-5.078766346E-1
3.790642587E1,-3.528815269E0,-8.214560509E0,2.943171859E-1
3.792669728E1,-3.547957659E0,-8.877969742E0,3.669991732E0
3.794696874E1,-3.004786968E0,-1.105663490E1,1.280758262E0
3.796724014E1,-2.245664120E0,-1.447777367E1,-9.696913958E-1
3.798751155E1,-1.010369420E0,-1.790668869E1,-1.692921996E0
3.800778296E1,5.557330847E-1,-1.824646950E1,-7.830511928E-1
3.802805436E1,8.907282352E-1,-1.457886982E1,-2.925225794E-1
3.804832577E1,2.685943544E-1,-1.070967579E1,1.986641049E0
3.806859723E1,3.499503136E-1,-8.123632431E0,3.020938635E0
3.808886863E1,8.404789567E-1,-7.448856831E0,-5.892325640E-1
3.810914004E1,5.461617708E-1,-6.976872444E0,-1.036690354E0
3.812941144E1,2.901297510E-1,-6.677769661E0,-6.323033571E-1
3.814968285E1,-1.722832322E-1,-7.017550468E0,-2.781656384E-1
3.816995426E1,-8.069794178E-1,-7.915457249E0,-2.303091735E-1
3.819022572E1,-1.663609982E0,-8.430512428E0,7.178468257E-2
3.821049707E1,-1.386042476E0,-8.533403397E0,8.925228715E-1
3.823076853E1,4.743770957E-1,-8.037490845E0,1.125224829E0
3.825116853E1,1.326820135E0,-7.310073376E0,7.896314859E-1
3.827131134E1,1.456032634E0,-7.106084824E0,4.283152521E-1
3.829158275E1,7.423732281E-1,-7.417750359E0,1.459621787E-1
3.831185415E1,-8.093722463E-1,-8.444869041E0,4.498506486E-1
3.833212556E1,-3.241676569E0,-1.038126087E1,1.965105653E0
3.835239697E1,-6.440282345E0,-1.330229950E1,2.896511793E0
3.837266837E1,-9.370891571E0,-1.548096466E1,5.886343718E-1
3.839293978E1,-1.096989536E1,-1.416670609E1,1.004985496E-1
3.841321118E1,-1.153520012E1,-1.174636650E1,1.852642894E0
3.843348259E1,-1.048893833E1,-1.470090389E1,1.517647743E0
3.845375400E1,-5.781657696E0,-1.437966728E1,5.264209956E-2
3.847402535E1,-7.561319470E-1,-1.005823040E1,1.381256819E0
3.849429676E1,7.543373108E-1,-8.550153732E0,1.637288928E0
3.851456816E1,7.902296782E-1,-7.587640762E0,3.110669553E-1
3.853483957E1,1.575673699E0,-8.209774017E0,-1.029511929E0
3.855511098E1,2.404188633E0,-1.087238789E1,-2.976073265E0
3.857538238E1,3.098107100E0,-1.322572899E1,-4.525425911E0
3.859565379E1,2.928216696E0,-1.127198887E1,-4.103690624E0
3.861592519E1,2.942573547E0,-8.423334122E0,-3.180061340E0
3.863619660E1,2.753540754E0,-7.084549427E0,-2.562114954E0
3.865646801E1,2.133201361E0,-7.494320393E0,-1.920240164E0
3.867673941E1,9.433703423E-1,-9.474381447E0,-7.854440212E-1
3.869701082E1,-3.038884699E-1,-1.045842934E1,9.284151793E-1
3.871728223E1,-8.883354068E-1,-9.909874916E0,2.573480844E0
3.873755363E1,-6.317051649E-1,-9.172286987E0,1.735394597E0
3.875782504E1,-5.982056856E-1,-9.138788223E0,-4.887340367E-1
3.877809644E1,-9.696913958E-1,-9.704092026E0,-1.733600020E0
3.879836785E1,-1.596610904E0,-1.025683403E1,-2.550150633E0
3.881863926E1,-2.554338217E0,-1.040339470E1,-2.937788010E0
3.883891066E1,-3.169891834E0,-1.014915752E1,-2.741576433E0
3.885918202E1,-3.595814228E0,-9.625128746E0,-2.739183664E0
3.887945342E1,-4.022335052E0,-8.937790871E0,-2.918645382E0
3.889985342E1,-4.041477680E0,-8.533403397E0,-2.662613392E0
3.891999624E1,-3.533600807E0,-8.794221878E0,-2.322832584E0
3.894026764E1,-3.162713289E0,-9.424132347E0,-2.373081923E0
3.896053905E1,-2.786442041E0,-1.024247742E1,-2.341975212E0
3.898081046E1,-2.568695068E0,-1.018265629E1,-2.150549412E0
3.900121046E1,-2.394019127E0,-9.114859581E0,-1.735992789E0
3.902135322E1,-2.772084951E0,-9.076574326E0,-1.350748420E0
3.904162462E1,-2.940180779E0,-1.103749275E1,-1.271785259E0
3.906189598E1,-2.429911375E0,-1.175354481E1,-9.170492887E-1
3.908216738E1,-1.858026743E0,-1.114516926E1,1.744965911E0
3.910256738E1,2.536391914E-1,-1.159561825E1,9.818349838E0
3.912271019E1,4.863412082E-1,-1.270648670E1,1.814357758E0
3.914298160E1,7.304090858E-1,-1.386760330E1,1.144367456E0
3.916325296E1,2.303091764E0,-1.458604908E1,3.119642496E0
3.918352436E1,2.511865616E0,-1.301516056E1,2.027318954E0
3.920379577E1,1.879562140E0,-1.059721375E1,4.522434771E-1
3.922406712E1,1.259222865E0,-8.717651367E0,-6.562315822E-1
3.924433853E1,1.094118118E0,-7.642675400E0,-1.173679471E0
3.926460993E1,1.005583763E0,-7.137191772E0,-1.290927768E0
3.928488129E1,6.035895348E-1,-7.149155617E0,-9.337990284E-1
3.930528129E1,6.221338734E-2,-7.604390144E0,-5.413761139E-1
3.932542410E1,-5.168496966E-1,-8.231309891E0,-4.366901144E-2
3.934569546E1,-1.357328653E0,-8.356334686E0,6.317051649E-1
3.936596686E1,-2.018345833E0,-8.202595711E0,6.077769399E-1
3.938623827E1,-2.164308071E0,-8.341978073E0,-9.631111473E-2
3.940650962E1,-2.685943365E0,-8.552546501E0,-8.548358679E-1
3.942678103E1,-3.330210924E0,-8.602795601E0,-1.592423439E0
3.944705243E1,-3.342175007E0,-8.875576973E0,-2.207977057E0
3.946732379E1,-3.770490170E0,-9.361918449E0,-2.298904419E0
3.948759519E1,-5.305486202E0,-1.011087227E1,-1.621137381E0
3.950786660E1,-7.283154011E0,-1.138684464E1,9.882357717E-1
3.952813796E1,-8.465806961E0,-1.192582798E1,2.451446772E0
3.954840936E1,-8.733802795E0,-1.136770248E1,3.210569859E0
3.956868077E1,-8.334200859E0,-9.873982430E0,4.110270977E0
3.958895212E1,-5.712265968E0,-8.621937752E0,3.452244759E0
3.960922353E1,-3.325425386E0,-1.256770229E1,2.051247120E0
3.962949493E1,-1.268794179E0,-1.499522114E1,1.929213285E0
3.964976629E1,8.093722463E-1,-1.183729362E1,5.862415433E-1
3.967003769E1,1.230509043E0,-9.311071396E0,-1.200000525E0
3.969030905E1,1.084546804E0,-8.274380684E0,-1.161715388E0
3.971058046E1,1.213759303E0,-8.454441071E0,-8.380861282E-1
3.973085186E1,1.592423439E0,-9.565308571E0,-1.668993831E0
3.975112322E1,2.082952023E0,-1.098006535E1,-2.684148788E0
3.977139462E1,2.404188633E0,-1.194736385E1,-3.428914785E0
3.979166598E1,2.114058733E0,-1.085324574E1,-3.321237803E0
3.981193738E1,1.731207132E0,-9.303893089E0,-2.516651154E0
3.983220874E1,1.496710539E0,-8.983254433E0,-1.680957913E0
3.985248014E1,1.153938770E0,-9.498309135E0,-8.572286963E-1
3.987275155E1,4.313062727E-1,-1.001515961E1,-2.614158690E-1
3.989302290E1,-2.033899277E-1,-1.011565781E1,-1.734796353E-2
3.991329431E1,-4.666004181E-1,-9.567701340E0,-5.126622319E-1
3.993356572E1,-6.652047038E-1,-9.160323143E0,-1.810170293E0
3.995383707E1,-1.555932879E0,-9.334999084E0,-2.787040234E0
3.997410848E1,-2.834298372E0,-9.952945709E0,-3.531806231E0
3.999437983E1,-3.844667673E0,-1.037168980E1,-3.692125320E0
4.001465124E1,-4.362115860E0,-1.000798035E1,-3.261417150E0
4.003492259E1,-4.414757729E0,-9.354142189E0,-2.239083767E0
4.005519400E1,-4.429114819E0,-8.935398102E0,-1.601994753E0
4.007546535E1,-4.431507587E0,-8.854042053E0,-9.218349457E-1
4.009586535E1,-4.345366001E0,-8.868398666E0,-3.044866920E-1
4.011600811E1,-4.034298897E0,-9.045467377E0,1.220339537E-1
4.013627952E1,-3.246462107E0,-9.148359299E0,2.153540403E-2
4.015655087E1,-2.456232548E0,-9.107681274E0,-7.160521746E-1
4.017682228E1,-1.977667928E0,-9.323035240E0,-1.128215909E0
4.019709363E1,-1.541576028E0,-9.303893089E0,-1.231107235E0
4.021736504E1,-1.182652593E0,-9.014361382E0,-1.266999602E0
4.023763639E1,-8.715856671E-1,-9.201001167E0,-1.489532113E0
4.025790780E1,-1.051047325E0,-1.145444202E1,-2.008774519E0
4.027817915E1,-9.314061999E-1,-1.400399494E1,-2.784647465E0
4.029845056E1,-4.067798555E-1,-1.502632809E1,-2.933002472E0
4.031872191E1,-2.823530734E-1,-1.439163208E1,-2.337189436E0
4.033899332E1,-2.679961324E-1,-1.206461143E1,-1.941775560E0
4.035926467E1,-1.866401732E-1,-9.138788223E0,-1.422533035E0
4.037953603E1,-7.776673436E-1,-6.668198586E0,1.083589745E1
4.039993603E1,1.015154958E0,-8.889934540E0,9.454640388E0
4.042007879E1,1.905883193E0,-1.112841988E1,1.240080357E0
4.044035019E1,7.208378315E-1,-1.285484123E1,-5.653043389E-1
4.046062155E1,2.273181528E-1,-1.391067410E1,-1.592423439E0
4.048089290E1,4.432703853E-1,-1.215793228E1,-2.911466837E0
4.050129290E1,-5.455635786E-1,-8.856434822E0,-3.126821041E0
4.052143566E1,-1.826920033E0,-7.230511665E0,-1.243071318E0
4.054170707E1,-3.105285645E0,-6.102894306E0,1.890329868E-1
4.056197837E1,-3.595814228E0,-5.772684574E0,-3.619144261E-1
4.058224978E1,-4.019941807E0,-6.515058041E0,9.332008660E-2
4.060264978E1,-4.039084435E0,-7.293323517E0,1.615753531E0
4.062279254E1,-2.944966555E0,-7.642675400E0,1.467398524E0
4.064306394E1,-1.699502230E0,-7.503891945E0,9.403793216E-1
4.066333530E1,-1.402792215E0,-7.738388538E0,8.255237937E-1
4.068360670E1,-1.936989903E0,-7.791030407E0,5.144568682E-1
4.070400671E1,-2.769692183E0,-7.951349735E0,4.307080805E-2
4.072414941E1,-3.366103172E0,-8.698508263E0,-2.542374134E-1
4.074442082E1,-4.089334011E0,-1.035494041E1,7.561319470E-1
4.076469217E1,-6.552744865E0,-1.228714466E1,4.972285271E0
4.078496358E1,-8.336593628E0,-1.193300629E1,7.105486870E0
4.080523493E1,-8.346165657E0,-1.017069244E1,5.946762562E0
4.082550624E1,-6.756134510E0,-9.658628464E0,3.404388428E0
4.084577769E1,-4.701896667E0,-1.093938732E1,2.539981127E0
4.086604905E1,-2.683550596E0,-1.599601936E1,7.417750359E-1
4.088632040E1,-1.543968797E0,-1.743709755E1,-1.195214868E0
4.090659181E1,-2.321037948E-1,-1.133420277E1,-2.456830740E0
4.092686316E1,7.782655358E-1,-7.477570534E0,-2.188834429E0
4.094713457E1,9.601200819E-1,-6.143572330E0,-1.228714466E0
4.096740592E1,1.812563181E0,-7.046264648E0,3.637090325E-1
4.098767728E1,1.805384636E0,-9.974481583E0,-7.477571070E-2
4.100794868E1,1.831705689E0,-1.255334568E1,-1.776670814E0
4.102822004E1,1.292722464E0,-1.233978653E1,-3.141776085E0
4.104849139E1,9.553344250E-1,-1.006780148E1,-3.129213810E0
4.106876280E1,8.189435601E-1,-7.980063438E0,-2.375474691E0
4.108903415E1,3.762713671E-1,-7.312466145E0,-1.680957913E0
4.110930551E1,-1.220339537E-1,-7.685746193E0,-1.017547846E0
4.112957691E1,-5.910272002E-1,-8.624331474E0,-6.753742099E-1
4.114984827E1,-9.984052777E-1,-9.414560318E0,-5.126622319E-1
4.117011962E1,-1.572682738E0,-1.013958549E1,-3.212364316E-1
4.119039103E1,-2.279163599E0,-1.030708313E1,-1.226321608E-1
4.121066238E1,-2.921038151E0,-9.933803558E0,-2.015953064E-1
4.123093374E1,-3.533600807E0,-9.388239861E0,-4.791627228E-1
4.125120514E1,-4.077369690E0,-9.083752632E0,-4.839483798E-1
