"Time (s)","Acceleration x (m/s^2)","Acceleration y (m/s^2)","Acceleration z (m/s^2)"
4.013709200E-2,-1.490552902E0,2.911088943E0,9.245225906E0
6.043683100E-2,-1.485821724E0,2.895485401E0,9.250885010E0
8.055016500E-2,-1.519406796E0,2.860879660E0,9.256195068E0
1.009501650E-1,-1.553233027E0,2.808379173E0,9.266653061E0
1.210913620E-1,-1.569883585E0,2.751556158E0,9.280882835E0
1.413619350E-1,-1.570352435E0,2.697133303E0,9.296765327E0
1.616325080E-1,-1.585542083E0,2.641533852E0,9.310141563E0
1.819030810E-1,-1.633504033E0,2.554004669E0,9.326259613E0
2.023030810E-1,-1.727963090E0,2.428251982E0,9.342810631E0
2.224443830E-1,-1.879162312E0,2.282376766E0,9.350396156E0
2.427150080E-1,-1.998845696E0,2.092855930E0,9.369896889E0
2.629856330E-1,-1.981579423E0,1.875966549E0,9.419366837E0
2.832563100E-1,-1.862668514E0,1.696721554E0,9.477446556E0
3.036563100E-1,-1.703305125E0,1.567408800E0,9.529552460E0
3.237976650E-1,-1.546808481E0,1.427282810E0,9.578133583E0
3.440683420E-1,-1.353188157E0,1.312852025E0,9.623703957E0
3.643390710E-1,-1.078406930E0,1.269512296E0,9.664149284E0
3.847390710E-1,-7.726773024E-1,1.292431593E0,9.690354347E0
4.050383420E-1,-4.730570316E-1,1.340308905E0,9.703101158E0
4.253107900E-1,-1.616624594E-1,1.349834085E0,9.711961746E0
4.454180290E-1,4.970660806E-2,1.301323056E0,9.719798088E0
4.656894350E-1,2.624216378E-1,1.210534573E0,9.728110313E0
4.859600600E-1,4.054933786E-1,1.092929840E0,9.737117767E0
5.063606850E-1,5.324194431E-1,9.684897661E-1,9.744174957E0
5.265025600E-1,6.564077139E-1,8.767442107E-1,9.745298386E0
5.467736540E-1,7.751018405E-1,8.712169528E-1,9.737072945E0
5.670446960E-1,8.750662208E-1,9.282083511E-1,9.723327637E0
5.873156330E-1,9.923943877E-1,9.772898555E-1,9.707236290E0
6.075864670E-1,1.116388083E0,9.898462296E-1,9.692484856E0
6.278573520E-1,1.202681780E0,9.951032400E-1,9.681617737E0
6.481281850E-1,1.276457191E0,1.061664343E0,9.665087700E0
6.683989150E-1,1.403657913E0,1.161431193E0,9.635932922E0
6.886697480E-1,1.599433303E0,1.259118319E0,9.593061447E0
7.089404770E-1,1.742294669E0,1.336628199E0,9.557626724E0
7.292112060E-1,1.589641333E0,1.188691974E0,9.603668213E0
7.494819870E-1,1.443972826E0,1.059697866E0,9.641699791E0
7.697527170E-1,1.357542992E0,9.363763928E-1,9.666987419E0
7.900233940E-1,1.287856817E0,8.149284720E-1,9.687501907E0
8.104234460E-1,1.212563753E0,7.588098049E-1,9.701766014E0
8.305648520E-1,1.123079062E0,7.610483766E-1,9.712357521E0
8.508355290E-1,1.006705761E0,7.605124712E-1,9.725151062E0
8.711062580E-1,8.655056953E-1,7.602432966E-1,9.738754272E0
8.913769870E-1,6.765191555E-1,7.558579445E-1,9.754045486E0
9.117829250E-1,5.591368079E-1,7.062134147E-1,9.765193939E0
9.320336540E-1,5.561184287E-1,6.100241542E-1,9.771846771E0
9.522223520E-1,6.736778021E-1,5.615810752E-1,9.767353058E0
9.724550080E-1,8.624519110E-1,5.797193646E-1,9.751435280E0
9.927255810E-1,1.113528013E0,6.163543463E-1,9.723711014E0
1.013126623E0,1.396634459E0,6.577801704E-1,9.684375763E0
1.033268810E0,1.550057530E0,7.375119925E-1,9.655246735E0
1.053540060E0,1.516743660E0,8.828286529E-1,9.648341179E0
1.073811206E0,1.360615492E0,1.085590363E0,9.650938034E0
1.094081883E0,1.281979918E0,1.280848861E0,9.637756348E0
1.114482300E0,1.359322548E0,1.386683226E0,9.612478256E0
1.134624071E0,1.411084175E0,1.416356683E0,9.600685120E0
1.154895008E0,1.472844362E0,1.359384775E0,9.599645615E0
1.175165842E0,1.537308097E0,1.242402196E0,9.605388641E0
1.195436571E0,1.348645449E0,1.144703388E0,9.645787239E0
1.215844696E0,9.331107736E-1,1.088922858E0,9.701234818E0
1.236142508E0,7.408703566E-1,1.040474653E0,9.723112106E0
1.256392508E0,7.119317651E-1,1.027160287E0,9.726688385E0
1.276473602E0,5.836963058E-1,1.031212330E0,9.734798431E0
1.296784956E0,2.425905764E-1,1.068530560E0,9.745244026E0
1.317056779E0,-8.105865121E-2,1.146863222E0,9.739020348E0
1.337328446E0,-3.024638295E-1,1.283545852E0,9.717582703E0
1.357599852E0,-4.594851732E-1,1.500591159E0,9.680263519E0
1.377870477E0,-5.502866507E-1,1.747674227E0,9.633961678E0
1.398271102E0,-6.866361499E-1,1.954074144E0,9.585432053E0
1.418412560E0,-9.270636439E-1,2.084363461E0,9.537629128E0
1.438685790E0,-1.213982344E0,2.104330540E0,9.500968933E0
1.458956467E0,-1.504899740E0,1.975147367E0,9.487067223E0
1.479227144E0,-1.664805889E0,1.778298616E0,9.499287605E0
1.499627144E0,-1.648138523E0,1.628846169E0,9.528949738E0
1.519768498E0,-1.674381375E0,1.553214073E0,9.536998749E0
1.540039175E0,-1.733537555E0,1.581199646E0,9.521820068E0
1.560309852E0,-1.831606388E0,1.666815758E0,9.488800049E0
1.580580477E0,-2.137165070E0,1.726827741E0,9.413871765E0
1.600980477E0,-2.604402304E0,1.709317207E0,9.298693657E0
1.621121883E0,-3.024939537E0,1.616183281E0,9.187387466E0
1.641392560E0,-3.376308203E0,1.478164434E0,9.087681770E0
1.661663237E0,-3.676833153E0,1.316162109E0,8.995498657E0
1.681933915E0,-3.953300714E0,1.118746996E0,8.904503822E0
1.702333915E0,-4.208371639E0,8.750604987E-1,8.814435959E0
1.722475321E0,-4.434735775E0,5.799468756E-1,8.727380753E0
1.742745998E0,-4.644234657E0,2.156450003E-1,8.634522438E0
1.763016675E0,-4.838088512E0,-1.699995995E-1,8.528445244E0
1.783287352E0,-4.995940208E0,-5.255196691E-1,8.422279358E0
1.803687352E0,-5.169162750E0,-8.455604911E-1,8.290667534E0
1.823986675E0,-5.399231434E0,-1.141913891E0,8.106462479E0
1.844257456E0,-5.681756496E0,-1.400847673E0,7.869285583E0
1.864370790E0,-5.973575592E0,-1.620229363E0,7.606682777E0
1.884641362E0,-6.238199234E0,-1.828718662E0,7.342414379E0
1.905041362E0,-6.462639809E0,-2.036192179E0,7.089330196E0
1.925325529E0,-6.655617237E0,-2.218780994E0,6.852017879E0
1.945447821E0,-6.819449425E0,-2.348805428E0,6.644442081E0
1.965719487E0,-6.975337029E0,-2.434099197E0,6.449048042E0
1.985990998E0,-7.134191990E0,-2.512923002E0,6.241707325E0
2.006262352E0,-7.313777447E0,-2.586186171E0,5.999225140E0
2.026533550E0,-7.508972168E0,-2.635389328E0,5.730659485E0
2.046804592E0,-7.712399960E0,-2.644832134E0,5.449231625E0
2.067075633E0,-7.900392532E0,-2.619209051E0,5.185936928E0
2.087346623E0,-8.055845261E0,-2.612701893E0,4.944445610E0
2.107617508E0,-8.180892944E0,-2.630322456E0,4.724910736E0
2.127888394E0,-8.277399063E0,-2.636060238E0,4.550410271E0
2.148159175E0,-8.338386536E0,-2.613651752E0,4.450902462E0
2.168429956E0,-8.361782074E0,-2.597253799E0,4.416476250E0
2.188700685E0,-8.367791176E0,-2.594407558E0,4.406756401E0
2.208971467E0,-8.383571625E0,-2.589000463E0,4.379859924E0
2.229242248E0,-8.425527573E0,-2.555797815E0,4.318421841E0
2.249512977E0,-8.489835739E0,-2.484338999E0,4.233335018E0
2.269783706E0,-8.563799858E0,-2.372738361E0,4.147510052E0
2.290054383E0,-8.639101982E0,-2.235047102E0,4.067045212E0
2.310454383E0,-8.710464478E0,-2.107335329E0,3.982126474E0
2.330595790E0,-8.787208557E0,-1.987284541E0,3.873763084E0
2.350866467E0,-8.877537727E0,-1.828728914E0,3.743723154E0
2.371137196E0,-8.967126846E0,-1.631048203E0,3.619486332E0
2.391407873E0,-9.041231155E0,-1.422256231E0,3.521891117E0
2.411813862E0,-9.104894638E0,-1.166728973E0,3.451090574E0
2.432060685E0,-9.175082207E0,-8.334559202E-1,3.360596180E0
2.452214800E0,-9.254637718E0,-4.801966548E-1,3.208034515E0
2.472486519E0,-9.328955650E0,-1.993517876E-1,3.016825438E0
2.492757144E0,-9.391502380E0,2.066205628E-2,2.823053837E0
2.513158029E0,-9.431618690E0,2.639896274E-1,2.673064470E0
2.533300060E0,-9.440440178E0,5.644969940E-1,2.594185591E0
2.553571258E0,-9.435684204E0,9.550311565E-1,2.495229721E0
2.573842352E0,-9.447787285E0,1.261304617E0,2.306257010E0
2.594113029E0,-9.469926834E0,1.466770887E0,2.083133221E0
2.614513394E0,-9.451960564E0,1.726692796E0,1.961976647E0
2.634655112E0,-9.377326965E0,2.017161608E0,2.041371346E0
2.654925946E0,-9.270007133E0,2.305246830E0,2.218826056E0
2.675196779E0,-9.183558464E0,2.552737236E0,2.305683851E0
2.695467508E0,-9.168739319E0,2.656723976E0,2.246424913E0
2.715865112E0,-9.199177742E0,2.643368483E0,2.134973526E0
2.736173446E0,-9.209237099E0,2.628409624E0,2.109928608E0
2.756427352E0,-9.195911407E0,2.607320309E0,2.192593575E0
2.776542821E0,-9.210517883E0,2.440475702E0,2.319664717E0
2.796815165E0,-9.236046791E0,2.062841654E0,2.571090937E0
2.817087196E0,-9.255239487E0,1.508734941E0,2.869607210E0
2.837358915E0,-9.293517113E0,9.908913374E-1,2.969688892E0
2.857630425E0,-9.370514870E0,5.210943222E-1,2.844698429E0
2.877901779E0,-9.443818092E0,2.878165059E-2,2.642695904E0
2.898173029E0,-9.482354164E0,-5.367097259E-1,2.442803860E0
2.918443706E0,-9.459678650E0,-1.342916012E0,2.209398985E0
2.938716727E0,-9.357275963E0,-2.212779284E0,1.927535057E0
2.958987404E0,-9.306695938E0,-2.511933804E0,1.801663995E0
2.979258081E0,-9.337523460E0,-2.506921768E0,1.642071247E0
2.999658081E0,-9.337320328E0,-2.690279484E0,1.321833253E0
3.019799487E0,-9.299481392E0,-2.954802036E0,9.793781638E-1
3.040070217E0,-9.264513016E0,-3.129627228E0,7.379733324E-1
3.060340894E0,-9.234347343E0,-3.272229671E0,4.355886579E-1
3.080740894E0,-9.178376198E0,-3.453648567E0,9.624379687E-3
3.101040269E0,-9.053210258E0,-3.736287117E0,-4.999209046E-1
3.121153602E0,-8.807172775E0,-4.239177227E0,-7.959226966E-1
3.141424279E0,-8.564930916E0,-4.749717236E0,-5.025252700E-1
3.161694852E0,-8.405733109E0,-5.050785065E0,-5.997094139E-2
3.181965529E0,-8.264677048E0,-5.273264885E0,2.411637008E-1
3.202365529E0,-8.160417557E0,-5.427196503E0,3.514456451E-1
3.222506831E0,-8.114746094E0,-5.498336315E0,2.993156910E-1
3.242777456E0,-8.001245499E0,-5.659667969E0,3.444182575E-1
3.263048185E0,-7.775210857E0,-5.933970451E0,7.102669477E-1
3.283318915E0,-7.553317070E0,-6.182068825E0,9.485808015E-1
3.303718915E0,-7.442370892E0,-6.332218170E0,8.273571134E-1
3.323860373E0,-7.388182640E0,-6.413158417E0,6.756649613E-1
3.344131050E0,-7.361811638E0,-6.451495171E0,5.935593247E-1
3.364401779E0,-7.350187302E0,-6.462569237E0,6.167082787E-1
3.384672508E0,-7.317250252E0,-6.496840477E0,6.475346684E-1
3.405072508E0,-7.244931221E0,-6.581087589E0,6.088050008E-1
3.425370737E0,-7.110811710E0,-6.732790470E0,5.256163478E-1
3.445484175E0,-6.920364380E0,-6.933983803E0,4.458614886E-1
3.465755008E0,-6.727596283E0,-7.123660564E0,4.041038156E-1
3.486025790E0,-6.491937637E0,-7.344939232E0,2.774761915E-1
3.506296623E0,-6.176316261E0,-7.616652012E0,1.006404907E-1
3.526567456E0,-5.767236233E0,-7.930971146E0,9.528036416E-2
3.546838237E0,-5.331456184E0,-8.227317810E0,2.391766012E-1
3.567108967E0,-4.942470551E0,-8.462918282E0,3.484082818E-1
3.587379748E0,-4.673651695E0,-8.615603447E0,3.142106235E-1
3.607650529E0,-4.567172527E0,-8.676275253E0,1.832069457E-1
3.627921310E0,-4.572497845E0,-8.674465179E0,1.276639402E-1
3.648192092E0,-4.582108498E0,-8.668742180E0,1.660536975E-1
3.668462821E0,-4.635952473E0,-8.639290810E0,2.024619728E-1
3.688737560E0,-4.709175587E0,-8.595237732E0,3.405035436E-1
3.709042925E0,-4.697166920E0,-8.597812653E0,4.296705425E-1
3.729274592E0,-4.482704163E0,-8.715876579E0,3.305192888E-1
3.749545425E0,-4.051029682E0,-8.926468849E0,2.787669897E-1
3.769816258E0,-3.320757866E0,-9.218965530E0,3.919560015E-1
3.790086987E0,-2.321616173E0,-9.498899460E0,7.425601482E-1
3.810487092E0,-1.316540599E0,-9.662052155E0,1.040113211E0
3.830628654E0,-9.327983856E-1,-9.705013275E0,1.054982901E0
3.850899487E0,-1.004354119E0,-9.701219559E0,1.023718476E0
3.871170321E0,-7.067052722E-1,-9.734519958E0,9.539853930E-1
3.891441050E0,-5.261387229E-1,-9.759245872E0,8.066595197E-1
3.911847040E0,-6.327964664E-1,-9.752448082E0,8.122261763E-1
3.932094071E0,-6.391031742E-1,-9.742913246E0,9.151886702E-1
3.952248290E0,-5.898607969E-1,-9.723892212E0,1.126223922E0
3.972518915E0,-5.850377679E-1,-9.689236641E0,1.395285010E0
3.992928029E0,-7.594604492E-1,-9.629340172E0,1.693936229E0
4.013211102E0,-1.121266484E0,-9.549948692E0,1.926557899E0
4.033327144E0,-1.614658713E0,-9.450759888E0,2.060680628E0
4.053599800E0,-2.116014957E0,-9.348102570E0,2.075055122E0
4.073872144E0,-2.475047112E0,-9.272223473E0,2.017523527E0
4.094142821E0,-2.605810165E0,-9.239871025E0,2.001234055E0
4.114544123E0,-2.526995420E0,-9.244176865E0,2.080832958E0
4.134686675E0,-2.337856531E0,-9.264338493E0,2.208357573E0
4.154958237E0,-2.174546957E0,-9.279015541E0,2.311190605E0
4.175229592E0,-2.143605232E0,-9.309545517E0,2.215335369E0
4.195500373E0,-2.246576548E0,-9.336497307E0,1.988242626E0
4.215908862E0,-2.466928244E0,-9.321780205E0,1.785798788E0
4.236207248E0,-2.743624210E0,-9.259650230E0,1.703465700E0
4.256461415E0,-2.983059168E0,-9.184772491E0,1.706370592E0
4.276577404E0,-3.119755507E0,-9.138170242E0,1.712119460E0
4.296849904E0,-3.166125774E0,-9.128620148E0,1.677592993E0
4.317122248E0,-3.171408653E0,-9.139108658E0,1.609110832E0
4.337394071E0,-3.170316458E0,-9.152275085E0,1.534710050E0
4.357665842E0,-3.171440601E0,-9.160289764E0,1.483727455E0
4.377937352E0,-3.143859863E0,-9.170799255E0,1.477485299E0
4.398208758E0,-3.089256525E0,-9.186448097E0,1.495340586E0
4.418479592E0,-3.035124540E0,-9.202635765E0,1.506612420E0
4.438752925E0,-2.990054131E0,-9.220602036E0,1.486761451E0
4.459023758E0,-2.946609259E0,-9.244207382E0,1.425666094E0
4.479294540E0,-2.869355440E0,-9.282688141E0,1.329990149E0
4.499694540E0,-2.776114941E0,-9.324430466E0,1.232309461E0
4.519836206E0,-2.818078041E0,-9.307971001E0,1.261149168E0
4.540107040E0,-2.994600773E0,-9.241930962E0,1.337712646E0
4.560377821E0,-3.061113596E0,-9.219503403E0,1.341909528E0
4.580648706E0,-2.939299107E0,-9.262114525E0,1.320654273E0
4.601048706E0,-2.754557371E0,-9.330399513E0,1.235489726E0
4.621190425E0,-2.556890011E0,-9.402839661E0,1.104223728E0
4.641461258E0,-2.363650560E0,-9.464788437E0,1.000655174E0
4.661732092E0,-2.168056250E0,-9.516565323E0,9.512615204E-1
4.682002977E0,-1.988696456E0,-9.560031891E0,9.062411189E-1
4.702402977E0,-1.846876025E0,-9.596219063E0,8.197625279E-1
4.722544696E0,-1.766573906E0,-9.626296043E0,6.196964979E-1
4.742815581E0,-1.714508176E0,-9.650154114E0,3.246270120E-1
4.763086467E0,-1.652665615E0,-9.665740967E0,1.119108498E-1
4.783357352E0,-1.608230829E0,-9.673878670E0,6.994133815E-3
4.803757352E0,-1.575898767E0,-9.678972244E0,-6.655853242E-2
4.824057040E0,-1.532337427E0,-9.684713364E0,-1.692604572E-1
4.844170581E0,-1.491244435E0,-9.688630104E0,-2.775085270E-1
4.864441362E0,-1.460953951E0,-9.690261841E0,-3.672157228E-1
4.884841362E0,-1.424981236E0,-9.692458153E0,-4.428140223E-1
4.905140894E0,-1.384234190E0,-9.695538521E0,-5.008188486E-1
4.925404696E0,-1.347396970E0,-9.699009895E0,-5.330201387E-1
4.945517821E0,-1.312569261E0,-9.703434944E0,-5.393513441E-1
4.965790112E0,-1.283766270E0,-9.706922531E0,-5.458894372E-1
4.986060894E0,-1.268604517E0,-9.706838608E0,-5.816441774E-1
5.006462092E0,-1.265479088E0,-9.702913284E0,-6.499405503E-1
5.026604696E0,-1.269856930E0,-9.697252274E0,-7.219138741E-1
5.046876258E0,-1.278354645E0,-9.691943169E0,-7.761608362E-1
5.067147769E0,-1.286950827E0,-9.687620163E0,-8.149579763E-1
5.087419123E0,-1.288281798E0,-9.684611320E0,-8.479594588E-1
5.107690373E0,-1.281747937E0,-9.682172775E0,-8.848958611E-1
5.127961623E0,-1.261335015E0,-9.680509567E0,-9.312098026E-1
5.148232717E0,-1.218927860E0,-9.682491302E0,-9.664235115E-1
5.168503862E0,-1.156648993E0,-9.690291405E0,-9.647914767E-1
5.188782925E0,-1.075255752E0,-9.703354836E0,-9.268902540E-1
5.209123133E0,-9.788586497E-1,-9.718487740E0,-8.736242652E-1
5.229315894E0,-8.795532584E-1,-9.732303619E0,-8.240321875E-1
5.249587144E0,-7.772704363E-1,-9.744141579E0,-7.860903740E-1
5.269858290E0,-6.756294370E-1,-9.753337860E0,-7.657085657E-1
5.290129227E0,-6.149063706E-1,-9.766872406E0,-6.328455806E-1
5.310529435E0,-5.622150302E-1,-9.779564857E0,-4.630468488E-1
5.330671467E0,-5.366007090E-1,-9.784078598E0,-3.927368224E-1
5.350942560E0,-5.782729387E-1,-9.781663895E0,-3.937561512E-1
5.371213602E0,-7.317243218E-1,-9.770153999E0,-4.231689572E-1
5.391484592E0,-9.869725108E-1,-9.754961014E0,-1.923991591E-1
5.411890633E0,-1.319993854E0,-9.715461731E0,1.944257915E-1
5.432153810E0,-1.703595042E0,-9.644630432E0,4.992588460E-1
5.452446831E0,-2.094079018E0,-9.558681488E0,6.456239820E-1
5.472562196E0,-2.416409254E0,-9.481189728E0,6.621087193E-1
5.492833133E0,-2.672976494E0,-9.415124893E0,6.172556281E-1
5.513234540E0,-2.904800892E0,-9.349276543E0,5.688087940E-1
5.533377508E0,-3.148467064E0,-9.273467064E0,5.102518201E-1
5.553649331E0,-3.414456129E0,-9.183506012E0,4.184392989E-1
5.573920998E0,-3.676201344E0,-9.085816383E0,3.223005831E-1
5.594191935E0,-3.906912565E0,-8.990515709E0,2.775727510E-1
5.614592508E0,-4.066897869E0,-8.918610573E0,2.985347509E-1
5.634734904E0,-4.120945930E0,-8.892290115E0,3.396543264E-1
5.655006310E0,-4.072937012E0,-8.912637711E0,3.826926053E-1
5.675273654E0,-3.961185217E0,-8.959988594E0,4.449743032E-1
5.695505269E0,-3.806055307E0,-9.023069382E0,5.182008147E-1
5.715905269E0,-3.608954906E0,-9.099539757E0,5.867044926E-1
5.736252717E0,-3.406847239E0,-9.174127579E0,6.317963600E-1
5.756507144E0,-3.225324154E0,-9.239898682E0,6.260488033E-1
5.776623550E0,-3.053601742E0,-9.301774025E0,5.682576895E-1
5.796896571E0,-2.897579908E0,-9.355371475E0,5.014533997E-1
5.817169227E0,-2.814153433E0,-9.382672310E0,4.651906192E-1
5.837441519E0,-2.834427118E0,-9.375297546E0,4.900959134E-1
5.857713498E0,-2.971539497E0,-9.328497887E0,5.652113557E-1
5.877984487E0,-3.128517628E0,-9.275178909E0,5.948194265E-1
5.898385425E0,-3.203190327E0,-9.251755714E0,5.612236857E-1
5.918527352E0,-3.171945333E0,-9.263155937E0,5.505437255E-1
5.938801935E0,-3.045476675E0,-9.304896355E0,5.606657863E-1
5.959072925E0,-2.999185324E0,-9.319741249E0,5.636609793E-1
5.979343967E0,-3.162227154E0,-9.268519402E0,5.150386691E-1
5.999743967E0,-3.325979471E0,-9.217989922E0,3.700378239E-1
6.019885946E0,-3.346581221E0,-9.213320732E0,2.924096882E-1
6.040156987E0,-3.208603144E0,-9.259377480E0,3.730767965E-1
6.060428029E0,-3.068557024E0,-9.305728912E0,3.971852362E-1
6.080699019E0,-2.914630413E0,-9.354623795E0,4.078449309E-1
6.101099019E0,-2.756039858E0,-9.401708603E0,4.272070527E-1
6.121241050E0,-2.597195625E0,-9.448156357E0,3.966352940E-1
6.141512092E0,-2.395859003E0,-9.505409241E0,2.782866061E-1
6.161783133E0,-2.169749737E0,-9.563283920E0,7.858677953E-2
6.182054175E0,-1.961752772E0,-9.607117653E0,-1.587255299E-1
6.202454175E0,-1.790348649E0,-9.634538651E0,-3.751018941E-1
6.222596310E0,-1.660066247E0,-9.649728775E0,-5.452436209E-1
6.242867352E0,-1.552978158E0,-9.657251358E0,-7.043843269E-1
6.263138394E0,-1.450662017E0,-9.657799721E0,-8.904401064E-1
6.283409435E0,-1.328269958E0,-9.655655861E0,-1.083688974E0
6.303809435E0,-1.183784604E0,-9.659489632E0,-1.209672928E0
6.323951519E0,-1.037284732E0,-9.669171333E0,-1.265527606E0
6.344351519E0,-8.959794044E-1,-9.678046227E0,-1.305007815E0
6.364493602E0,-7.613192201E-1,-9.682091713E0,-1.359369278E0
6.384764644E0,-6.368421912E-1,-9.680396080E0,-1.433438063E0
6.405164644E0,-5.379749537E-1,-9.671170235E0,-1.532787204E0
6.425465008E0,-4.839366078E-1,-9.653923988E0,-1.654674411E0
6.445577769E0,-4.814995527E-1,-9.634405136E0,-1.765441775E0
6.465848915E0,-5.152004361E-1,-9.620862961E0,-1.828649521E0
6.486119956E0,-5.562527776E-1,-9.619834900E0,-1.822018743E0
6.506390998E0,-5.640963912E-1,-9.635913849E0,-1.732443452E0
6.526662092E0,-5.065494776E-1,-9.663493156E0,-1.590821147E0
6.546933133E0,-4.113706052E-1,-9.685570717E0,-1.480160594E0
6.567204227E0,-3.461093009E-1,-9.691648483E0,-1.456890941E0
6.587475321E0,-3.376817405E-1,-9.689735413E0,-1.471525431E0
6.607746362E0,-4.013187289E-1,-9.688566208E0,-1.463215113E0
6.628017456E0,-4.845134020E-1,-9.697982788E0,-1.372866631E0
6.648288550E0,-5.948911309E-1,-9.732669830E0,-1.044809818E0
6.668559592E0,-9.208447337E-1,-9.748876572E0,-5.308822989E-1
6.688830685E0,-1.524956226E0,-9.687026024E0,-8.004439622E-2
6.709220581E0,-2.258523703E0,-9.541721344E0,1.581770629E-1
6.729372873E0,-2.878019810E0,-9.373729706E0,1.434749067E-1
6.749643915E0,-3.218936443E0,-9.259277344E0,2.731593549E-1
6.769915008E0,-3.392955542E0,-9.183758736E0,5.628814697E-1
6.790186102E0,-3.533316374E0,-9.113795280E0,7.904457450E-1
6.810586102E0,-3.658449173E0,-9.050179482E0,9.382817149E-1
6.830728342E0,-3.789398909E0,-8.985522270E0,1.034997940E0
6.850999383E0,-3.931452751E0,-8.913147926E0,1.126879334E0
6.871270477E0,-4.037564754E0,-8.852806091E0,1.223227978E0
6.891541571E0,-4.069326878E0,-8.830335617E0,1.279115081E0
6.911947560E0,-4.053832531E0,-8.839931488E0,1.261915922E0
6.932195165E0,-4.022750378E0,-8.859307289E0,1.224965930E0
6.952349696E0,-3.922108889E0,-8.903843880E0,1.228419542E0
6.972621883E0,-3.735671282E0,-8.983192444E0,1.231823087E0
6.992892925E0,-3.482749939E0,-9.089166641E0,1.194942951E0
7.013293810E0,-3.190470934E0,-9.210753441E0,1.073919415E0
7.033436623E0,-2.905378580E0,-9.324777603E0,8.818623424E-1
7.053708237E0,-2.709530830E0,-9.390740395E0,8.017665148E-1
7.073979800E0,-2.630595922E0,-9.407451630E0,8.661446571E-1
7.094250946E0,-2.606586695E0,-9.407964706E0,9.307379127E-1
7.114651310E0,-2.675636292E0,-9.384268761E0,9.730631113E-1
7.134793758E0,-2.767999887E0,-9.353481293E0,1.010421991E0
7.155065165E0,-2.796350241E0,-9.339971542E0,1.056289792E0
7.175336415E0,-2.763088226E0,-9.348044395E0,1.072292209E0
7.195607456E0,-2.845499039E0,-9.325078011E0,1.056614995E0
7.216015581E0,-3.021135092E0,-9.278977394E0,9.714491963E-1
7.236298550E0,-3.161542892E0,-9.242980003E0,8.615984917E-1
7.256414279E0,-3.182842970E0,-9.241488457E0,7.967336774E-1
7.276686935E0,-3.113638163E0,-9.268122673E0,7.599722147E-1
7.296959123E0,-2.971250296E0,-9.316032410E0,7.440512180E-1
7.317231206E0,-2.795912981E0,-9.375679016E0,6.707488298E-1
7.337503029E0,-2.580487728E0,-9.447138786E0,5.128708482E-1
7.357774696E0,-2.320256233E0,-9.523560524E0,2.976278365E-1
7.378046310E0,-2.048792362E0,-9.590118408E0,4.962885007E-2
7.398317821E0,-1.812953591E0,-9.635197639E0,-2.157502323E-1
7.418588915E0,-1.638572454E0,-9.655388832E0,-5.088545680E-1
7.438861675E0,-1.501755595E0,-9.654011726E0,-8.456794024E-1
7.459132821E0,-1.365134239E0,-9.648228645E0,-1.103843570E0
7.479403915E0,-1.220140457E0,-9.654422760E0,-1.213989377E0
7.499803915E0,-1.057923794E0,-9.669597626E0,-1.245017529E0
7.519946102E0,-8.708429933E-1,-9.684338570E0,-1.274993062E0
7.540346102E0,-6.575082541E-1,-9.689579010E0,-1.360198021E0
7.560488394E0,-4.530323744E-1,-9.682603836E0,-1.487388372E0
7.580888394E0,-2.837406397E-1,-9.669073105E0,-1.612111330E0
7.601188602E0,-1.720365733E-1,-9.653397560E0,-1.718340874E0
7.621302300E0,-1.179971918E-1,-9.639130592E0,-1.801006675E0
7.641573342E0,-1.034745425E-1,-9.631407738E0,-1.842731476E0
7.661844383E0,-1.326405704E-1,-9.632126808E0,-1.837099314E0
7.682115373E0,-1.594712585E-1,-9.640931129E0,-1.788130164E0
7.702515373E0,-1.580619663E-1,-9.653916359E0,-1.716765761E0
7.722657612E0,-1.745400131E-1,-9.667778969E0,-1.635229111E0
7.742928706E0,-2.346939594E-1,-9.689716339E0,-1.491546154E0
7.763199748E0,-3.785724342E-1,-9.720328331E0,-1.241890430E0
7.783470894E0,-6.288764477E-1,-9.750586510E0,-8.372454047E-1
7.803870894E0,-1.012774467E0,-9.748089790E0,-3.455650210E-1
7.824171050E0,-1.508142710E0,-9.689743042E0,6.915299594E-2
7.844284852E0,-2.046895266E0,-9.583638191E0,3.667273819E-1
7.864555842E0,-2.524874926E0,-9.460700989E0,5.390191078E-1
7.884826831E0,-2.856972218E0,-9.362946510E0,5.859317780E-1
7.905226831E0,-3.117462635E0,-9.282034874E0,5.437298417E-1
7.925515060E0,-3.364087343E0,-9.199592590E0,4.698966444E-1
7.945635790E0,-3.595334053E0,-9.111339569E0,4.769281745E-1
7.965907769E0,-3.827641010E0,-9.009075165E0,5.967530608E-1
7.986179435E0,-4.002246380E0,-8.922170639E0,7.397857904E-1
8.006451102E0,-4.082110882E0,-8.874351501E0,8.675495982E-1
8.026722717E0,-4.081636906E0,-8.864285469E0,9.669947624E-1
8.046994175E0,-4.045639515E0,-8.873143196E0,1.034653425E0
8.067265581E0,-3.996981382E0,-8.887248039E0,1.100606441E0
8.087536935E0,-3.883026838E0,-8.926942825E0,1.184139371E0
8.107808290E0,-3.694579601E0,-8.999974251E0,1.233257294E0
8.128079540E0,-3.455900908E0,-9.098708153E0,1.200268507E0
8.148350737E0,-3.209902525E0,-9.200490952E0,1.103583336E0
8.168621987E0,-2.986721992E0,-9.283396721E0,1.033643842E0
8.188893133E0,-2.791877747E0,-9.348134041E0,9.940829277E-1
8.209293185E0,-2.608537912E0,-9.407624245E0,9.287198186E-1
8.229435529E0,-2.475385666E0,-9.448864937E0,8.728122115E-1
8.249706727E0,-2.407497406E0,-9.470751762E0,8.241411448E-1
8.269977873E0,-2.362920523E0,-9.490262985E0,7.224234939E-1
8.290249019E0,-2.439867496E0,-9.481925011E0,5.572645068E-1
8.310649071E0,-2.741098642E0,-9.411183357E0,2.939469516E-1
8.330791310E0,-2.969932556E0,-9.345744133E0,8.331213146E-2
8.351062404E0,-2.955717087E0,-9.349996567E0,1.081210226E-1
8.371333654E0,-2.752208233E0,-9.407649994E0,3.030714393E-1
8.391604800E0,-2.480803251E0,-9.474019051E0,5.088806748E-1
8.412010737E0,-2.250873327E0,-9.528102875E0,5.649748445E-1
8.432258446E0,-2.049659729E0,-9.579594612E0,4.479637444E-1
8.452413029E0,-1.826916218E0,-9.632299423E0,2.270561904E-1
8.472684071E0,-1.595553875E0,-9.675885201E0,-4.298026487E-2
8.493093185E0,-1.429583907E0,-9.696204185E0,-3.321154416E-1
8.513376935E0,-1.368188620E0,-9.690130234E0,-6.323196292E-1
8.533493342E0,-1.344935775E0,-9.668066025E0,-9.434197545E-1
8.553766310E0,-1.277336001E0,-9.647268295E0,-1.212031603E0
8.574039019E0,-1.167688012E0,-9.638846397E0,-1.378228426E0
8.594310060E0,-1.020855427E0,-9.640814781E0,-1.477479339E0
8.614711415E0,-8.185917139E-1,-9.645414352E0,-1.570435166E0
8.634854644E0,-5.812686086E-1,-9.641097069E0,-1.697573066E0
8.655126571E0,-3.438138366E-1,-9.626796722E0,-1.837652206E0
8.675398342E0,-1.668953449E-1,-9.609288216E0,-1.950412393E0
8.695669383E0,-7.987383008E-2,-9.591446877E0,-2.041604280E0
8.716077873E0,-5.407941714E-2,-9.575589180E0,-2.115551233E0
8.736357300E0,-4.055577889E-2,-9.565830231E0,-2.159547567E0
8.756438862E0,-2.483077534E-2,-9.573813438E0,-2.124119043E0
8.776750685E0,-8.355262689E-3,-9.600475311E0,-2.000297308E0
8.797022873E0,-3.669898212E-2,-9.640048981E0,-1.799583316E0
8.817295060E0,-1.513417363E-1,-9.685430527E0,-1.529680610E0
8.837566935E0,-3.421183825E-1,-9.725878716E0,-1.208565712E0
8.857838706E0,-6.419963241E-1,-9.751941681E0,-8.110830188E-1
8.878110321E0,-1.118247390E0,-9.736081123E0,-3.586509228E-1
8.898381883E0,-1.761718869E0,-9.646995544E0,4.701444879E-2
8.918652977E0,-2.440427780E0,-9.492971420E0,3.133735061E-1
8.938925790E0,-2.976383686E0,-9.336438179E0,3.774226904E-1
8.959196935E0,-3.301930189E0,-9.229559898E0,2.878696918E-1
8.979468081E0,-3.532256126E0,-9.132708549E0,5.359017849E-1
8.999868081E0,-3.706538200E0,-9.037538528E0,8.688290715E-1
9.020010321E0,-3.809605837E0,-8.962454796E0,1.153989315E0
9.040281467E0,-3.864980459E0,-8.903887749E0,1.397532582E0
9.060552612E0,-3.891870022E0,-8.851359367E0,1.636202574E0
9.080823758E0,-3.883507013E0,-8.813329697E0,1.847699523E0
9.101223758E0,-3.840170383E0,-8.798407555E0,2.002870083E0
9.121366050E0,-3.787062883E0,-8.807815552E0,2.061777592E0
9.141637196E0,-3.742630005E0,-8.832648277E0,2.036521673E0
9.161908342E0,-3.647353411E0,-8.885481834E0,1.978740573E0
9.182179487E0,-3.455029249E0,-8.979424477E0,1.898179054E0
9.202579487E0,-3.172388554E0,-9.110488892E0,1.762195468E0
9.222721727E0,-2.846785545E0,-9.261239052E0,1.515135050E0
9.242992873E0,-2.563292265E0,-9.387374878E0,1.215363741E0
9.263264019E0,-2.398690939E0,-9.441812515E0,1.126429558E0
9.283535165E0,-2.299182892E0,-9.465808868E0,1.132521391E0
9.303935165E0,-2.286666155E0,-9.465133667E0,1.163090706E0
9.324077456E0,-2.368016481E0,-9.436015129E0,1.234712958E0
9.344348602E0,-2.398562908E0,-9.417397499E0,1.315262794E0
9.364619748E0,-2.425520897E0,-9.404257774E0,1.359108090E0
9.385019748E0,-2.614668608E0,-9.366335869E0,1.267147541E0
9.405320008E0,-2.892522812E0,-9.308415413E0,1.075686216E0
9.425594956E0,-3.071056366E0,-9.257448196E0,1.019145370E0
9.445701258E0,-3.131444454E0,-9.232458115E0,1.061207533E0
9.465972977E0,-3.016303539E0,-9.263418198E0,1.123119235E0
9.486244123E0,-2.820070028E0,-9.331935883E0,1.064216256E0
9.506644644E0,-2.579262257E0,-9.421017647E0,8.730501533E-1
9.526787300E0,-2.289772034E0,-9.514863014E0,6.282627583E-1
9.547058862E0,-1.970228910E0,-9.599786758E0,3.642434180E-1
9.567330217E0,-1.666498899E0,-9.663566589E0,9.306983650E-2
9.587601571E0,-1.423276424E0,-9.700962067E0,-1.897613853E-1
9.607872925E0,-1.234958649E0,-9.712759018E0,-5.546091199E-1
9.628144123E0,-1.037315369E0,-9.704089165E0,-9.617785215E-1
9.648415321E0,-8.638551235E-1,-9.707317352E0,-1.091847897E0
9.668686571E0,-7.080812454E-1,-9.725198746E0,-1.043792725E0
9.688957717E0,-5.203295946E-1,-9.741532326E0,-1.001090527E0
9.709357769E0,-3.144083917E-1,-9.746784210E0,-1.035238624E0
9.729500165E0,-1.264867932E-1,-9.738470078E0,-1.147423267E0
9.749771310E0,3.293098882E-2,-9.720419884E0,-1.297208905E0
9.770042508E0,1.504067332E-1,-9.698170662E0,-1.446804881E0
9.790313654E0,2.106854469E-1,-9.678489685E0,-1.566155910E0
9.810713706E0,2.186727971E-1,-9.666865349E0,-1.635324597E0
9.830855998E0,2.008857429E-1,-9.663912773E0,-1.654937983E0
9.851127092E0,2.374044508E-1,-9.673649788E0,-1.592021585E0
9.871398290E0,2.806625664E-1,-9.689217567E0,-1.486836553E0
9.891669435E0,2.906553447E-1,-9.706448555E0,-1.367758393E0
9.912075373E0,2.329246849E-1,-9.733303070E0,-1.174284935E0
9.932338915E0,6.042317301E-2,-9.774595261E0,-7.899501324E-1
9.952632040E0,-3.044991493E-1,-9.798090935E0,-2.740388513E-1
9.972747612E0,-8.187550902E-1,-9.771130562E0,1.582220942E-1
9.993018602E0,-1.424177885E0,-9.692390442E0,4.468328655E-1
1.001342001E1,-2.029676676E0,-9.574244499E0,6.201955676E-1
1.003356334E1,-2.530431032E0,-9.450118065E0,6.801279783E-1
1.005383527E1,-2.906761169E0,-9.343725204E0,6.449245811E-1
1.007410704E1,-3.243101835E0,-9.235037804E0,6.055940390E-1
1.009437813E1,-3.558630466E0,-9.112770081E0,6.811359525E-1
1.011477871E1,-3.849458694E0,-8.982789993E0,8.133444786E-1
1.013492147E1,-4.063949108E0,-8.870131493E0,9.876580834E-1
1.015519298E1,-4.191032887E0,-8.782827377E0,1.211429834E0
1.017546433E1,-4.232830048E0,-8.727077484E0,1.446254849E0
1.019573542E1,-4.201168060E0,-8.707367897E0,1.643876433E0
1.021614365E1,-4.104339123E0,-8.725057602E0,1.788340807E0
1.023642678E1,-3.959312916E0,-8.774630547E0,1.870855927E0
1.025654256E1,-3.765056610E0,-8.854734421E0,1.894306898E0
1.027681522E1,-3.494385004E0,-8.974487305E0,1.848851204E0
1.029708756E1,-3.152927160E0,-9.133625031E0,1.675209165E0
1.031735959E1,-2.830607414E0,-9.292470932E0,1.344632626E0
1.033763147E1,-2.661052942E0,-9.357354164E0,1.236575842E0
1.035790319E1,-2.546807766E0,-9.374549866E0,1.342374206E0
1.037817428E1,-2.413272381E0,-9.403381348E0,1.386699080E0
1.039857480E1,-2.368078709E0,-9.415740013E0,1.380736828E0
1.041871709E1,-2.354773045E0,-9.413309097E0,1.419523239E0
1.043899037E1,-2.365911722E0,-9.405980110E0,1.449274063E0
1.045926147E1,-2.581163168E0,-9.365091324E0,1.342778325E0
1.047953261E1,-2.899688244E0,-9.307994843E0,1.059925675E0
1.049993261E1,-3.122458220E0,-9.260241508E0,8.176561594E-1
1.052007485E1,-3.204236746E0,-9.238471031E0,7.442495823E-1
1.054034595E1,-3.143998623E0,-9.256430626E0,7.772784829E-1
1.056061709E1,-2.991255522E0,-9.307029724E0,7.758774161E-1
1.058088819E1,-2.795611620E0,-9.375761032E0,6.708506942E-1
1.060128819E1,-2.563966751E0,-9.454016685E0,4.669497013E-1
1.062143048E1,-2.307821274E0,-9.529040337E0,2.043379396E-1
1.064170162E1,-2.035331488E0,-9.592698097E0,-8.919708431E-2
1.066197277E1,-1.767866850E0,-9.637500763E0,-4.044961035E-1
1.068224392E1,-1.517126083E0,-9.659518242E0,-7.499592304E-1
1.070264392E1,-1.307662964E0,-9.672813416E0,-9.471377730E-1
1.072278615E1,-1.119271755E0,-9.691139221E0,-9.997247458E-1
1.074305725E1,-9.221159220E-1,-9.711015701E0,-1.008093119E0
1.076332839E1,-7.152214050E-1,-9.727837563E0,-1.013916492E0
1.078359954E1,-5.003050566E-1,-9.737848282E0,-1.046125293E0
1.080399954E1,-2.832746804E-1,-9.737294197E0,-1.129266024E0
1.082429975E1,-8.575750887E-2,-9.723533630E0,-1.271188617E0
1.084457100E1,6.682132930E-2,-9.699857712E0,-1.441767931E0
1.086468480E1,1.586835384E-1,-9.674349785E0,-1.597551107E0
1.088495574E1,2.035313696E-1,-9.654959679E0,-1.706086516E0
1.090535574E1,2.605094314E-1,-9.653061867E0,-1.709069371E0
1.092564089E1,3.369454741E-1,-9.666333199E0,-1.618291855E0
1.094576360E1,3.909506500E-1,-9.679238319E0,-1.526392817E0
1.096603574E1,4.178158641E-1,-9.691772461E0,-1.437133670E0
1.098630766E1,3.521030843E-1,-9.715858459E0,-1.283938885E0
1.100657938E1,1.524777859E-1,-9.753463745E0,-1.008502245E0
1.102685100E1,-2.470873147E-1,-9.786574364E0,-5.764349103E-1
1.104712261E1,-8.553071022E-1,-9.767955780E0,-1.608838439E-1
1.106739407E1,-1.568296790E0,-9.679659843E0,1.225201935E-1
1.108766542E1,-2.278332233E0,-9.535151482E0,2.459261119E-1
1.110793678E1,-2.860217333E0,-9.378633499E0,1.754371673E-1
1.112820813E1,-3.238047600E0,-9.252551079E0,2.752359807E-1
1.114847933E1,-3.535560131E0,-9.132275581E0,5.212871432E-1
1.116875058E1,-3.808257341E0,-9.010498047E0,6.917324662E-1
1.118902168E1,-4.070723057E0,-8.885870934E0,8.005694151E-1
1.120942178E1,-4.305194855E0,-8.760250092E0,9.453641772E-1
1.122956412E1,-4.471875191E0,-8.651800156E0,1.148508310E0
1.124983527E1,-4.548152447E0,-8.583495140E0,1.344733119E0
1.127010647E1,-4.532305717E0,-8.572044373E0,1.465828657E0
1.129037761E1,-4.459907055E0,-8.604181290E0,1.499226570E0
1.131077767E1,-4.324264526E0,-8.672072411E0,1.505413771E0
1.133091990E1,-4.065317631E0,-8.798132896E0,1.495479345E0
1.135119105E1,-3.671684265E0,-8.978640556E0,1.439841509E0
1.137146214E1,-3.220650673E0,-9.180545807E0,1.231004238E0
1.139173329E1,-2.817975998E0,-9.345589638E0,9.430435896E-1
1.141213928E1,-2.585182428E0,-9.412323952E0,9.462457895E-1
1.143238699E1,-2.475757122E0,-9.430856705E0,1.048791051E0
1.145254152E1,-2.421642780E0,-9.447278023E0,1.027120590E0
1.147281371E1,-2.440960169E0,-9.441380501E0,1.035584569E0
1.149308475E1,-2.463274956E0,-9.425671577E0,1.122218847E0
1.151348563E1,-2.629012346E0,-9.375630379E0,1.164578795E0
1.153362855E1,-2.893140316E0,-9.312170982E0,1.040957570E0
1.155390016E1,-3.124314785E0,-9.259284019E0,8.213971853E-1
1.157417178E1,-3.219551086E0,-9.238921165E0,6.687343121E-1
1.159444287E1,-3.174104929E0,-9.253966331E0,6.778928638E-1
1.161484324E1,-3.043269396E0,-9.294985771E0,7.156438231E-1
1.163498574E1,-2.844213009E0,-9.362687111E0,6.488053203E-1
1.165525709E1,-2.597173214E0,-9.446220398E0,4.404495358E-1
1.167553636E1,-2.336483240E0,-9.523458481E0,1.223606989E-1
1.169589266E1,-2.089308977E0,-9.578689575E0,-2.321225703E-1
1.171623996E1,-1.875805378E0,-9.609132767E0,-5.624080300E-1
1.173649329E1,-1.676773190E0,-9.622492790E0,-8.754752278E-1
1.175660845E1,-1.468306661E0,-9.627107620E0,-1.154666662E0
1.177688058E1,-1.265991688E0,-9.642334938E0,-1.262148142E0
1.179715251E1,-1.040017724E0,-9.669747353E0,-1.258860588E0
1.181742423E1,-7.906236053E-1,-9.701181412E0,-1.196825743E0
1.183769589E1,-5.217812061E-1,-9.724584579E0,-1.153514266E0
1.185796746E1,-2.364055067E-1,-9.728845596E0,-1.209985495E0
1.187823897E1,4.680481553E-2,-9.711456299E0,-1.362278342E0
1.189851027E1,2.782848179E-1,-9.679792404E0,-1.547432661E0
1.191878142E1,4.070632756E-1,-9.645295143E0,-1.724225521E0
1.193905371E1,4.467186034E-1,-9.618983269E0,-1.856338501E0
1.195932475E1,4.616394937E-1,-9.605569839E0,-1.921018124E0
1.197959589E1,4.713527560E-1,-9.606294632E0,-1.915023923E0
1.199999589E1,4.519214928E-1,-9.621991158E0,-1.839415669E0
1.202013813E1,3.752592504E-1,-9.657772064E0,-1.660416126E0
1.204040923E1,1.958356053E-1,-9.712915421E0,-1.338392615E0
1.206068032E1,-1.296626031E-1,-9.770277023E0,-8.338261247E-1
1.208108032E1,-6.507229805E-1,-9.780356407E0,-3.026332259E-1
1.210138048E1,-1.298420429E0,-9.720313072E0,2.314264711E-4
1.212149428E1,-1.961993814E0,-9.607449532E0,1.336690634E-1
1.214176527E1,-2.531690359E0,-9.471299171E0,2.354206741E-1
1.216203626E1,-2.957216024E0,-9.344330788E0,3.297371566E-1
1.218230730E1,-3.299013615E0,-9.222365379E0,4.846562445E-1
1.220270730E1,-3.619520426E0,-9.091555595E0,6.427049041E-1
1.222284944E1,-3.914547682E0,-8.959426880E0,7.585378885E-1
1.224312053E1,-4.170402050E0,-8.830405235E0,8.955894709E-1
1.226339157E1,-4.359917641E0,-8.713907242E0,1.108743906E0
1.228366267E1,-4.461431980E0,-8.626794815E0,1.358099580E0
1.230406266E1,-4.465558529E0,-8.591241837E0,1.555550218E0
1.232420490E1,-4.391153812E0,-8.612612724E0,1.646528482E0
1.234447595E1,-4.275544643E0,-8.667062759E0,1.664970994E0
1.236474704E1,-4.099171162E0,-8.756730080E0,1.639161468E0
1.238501819E1,-3.826143503E0,-8.894005775E0,1.558099985E0
1.240541818E1,-3.462945938E0,-9.071148872E0,1.375739217E0
1.242571720E1,-3.054939032E0,-9.260738373E0,1.037517905E0
1.244583095E1,-2.691539288E0,-9.393738747E0,8.268513680E-1
1.246610214E1,-2.486584902E0,-9.432826042E0,1.004532099E0
1.248637329E1,-2.404180527E0,-9.450189590E0,1.041267633E0
1.250664449E1,-2.428107738E0,-9.449919701E0,9.867584705E-1
1.252691563E1,-2.415930510E0,-9.446181297E0,1.050394177E0
1.254718678E1,-2.457212448E0,-9.419446945E0,1.185963869E0
1.256745793E1,-2.690052271E0,-9.351039886E0,1.221490741E0
1.258772907E1,-2.973994732E0,-9.277381897E0,1.120680690E0
1.260800016E1,-3.230910063E0,-9.215224266E0,9.006955624E-1
1.262827126E1,-3.372525215E0,-9.183216095E0,6.819162369E-1
1.264854240E1,-3.360923290E0,-9.193957329E0,5.879963040E-1
1.266881350E1,-3.234222174E0,-9.243019104E0,5.261139274E-1
1.268908459E1,-3.017020702E0,-9.322675705E0,3.945645690E-1
1.270948459E1,-2.729930401E0,-9.417319298E0,1.787914187E-1
1.272962678E1,-2.423414707E0,-9.501953125E0,-1.016006470E-1
1.274989792E1,-2.138468742E0,-9.560824394E0,-4.335610867E-1
1.277016897E1,-1.867218614E0,-9.597508430E0,-7.561112642E-1
1.279044011E1,-1.610805273E0,-9.623177528E0,-9.849590659E-1
1.281084011E1,-1.379076123E0,-9.648603439E0,-1.083045721E0
1.283098235E1,-1.144752622E0,-9.670777321E0,-1.155852795E0
1.285125339E1,-9.003362656E-1,-9.691141129E0,-1.200654507E0
1.287152449E1,-6.555176377E-1,-9.711670876E0,-1.193372130E0
1.289179558E1,-3.951672316E-1,-9.727618217E0,-1.177988052E0
1.291219558E1,-1.103975251E-1,-9.730424881E0,-1.215331554E0
1.293254267E1,1.780674607E-1,-9.712871552E0,-1.341193795E0
1.295260892E1,4.072889984E-1,-9.679325104E0,-1.521570086E0
1.297288001E1,5.310934186E-1,-9.644164085E0,-1.696596026E0
1.299328798E1,5.979710817E-1,-9.621265411E0,-1.801130772E0
1.301357084E1,6.900114417E-1,-9.614839554E0,-1.802541375E0
1.303368647E1,7.826693058E-1,-9.619040489E0,-1.741228223E0
1.305395897E1,8.410149813E-1,-9.633479118E0,-1.630694747E0
1.307423115E1,8.054476976E-1,-9.670414925E0,-1.415876746E0
1.309450214E1,5.779818892E-1,-9.747885704E0,-9.028001428E-1
1.311490308E1,3.815773129E-2,-9.802289963E0,-2.899167836E-1
1.313504600E1,-6.896338463E-1,-9.782036781E0,8.095314354E-2
1.315531761E1,-1.528661847E0,-9.685290337E0,1.695295125E-1
1.317558865E1,-2.346021175E0,-9.521496773E0,8.757477254E-2
1.319599709E1,-2.966665030E0,-9.346092224E0,1.408692747E-1
1.321629600E1,-3.350250483E0,-9.205373764E0,4.553177357E-1
1.323655048E1,-3.693152905E0,-9.057915688E0,6.965469122E-1
1.325666662E1,-4.016673565E0,-8.906392097E0,8.443305492E-1
1.327693949E1,-4.302405357E0,-8.762168884E0,9.402729273E-1
1.329721199E1,-4.525691986E0,-8.633409500E0,1.073654294E0
1.331748418E1,-4.658103466E0,-8.527953148E0,1.321546793E0
1.333775615E1,-4.704005718E0,-8.452707291E0,1.610728145E0
1.335802798E1,-4.681887627E0,-8.419301987E0,1.834577918E0
1.337829964E1,-4.601334572E0,-8.437780380E0,1.949864388E0
1.339857110E1,-4.462326527E0,-8.513091087E0,1.945589304E0
1.341884220E1,-4.254449368E0,-8.642486572E0,1.837792873E0
1.343911532E1,-3.963600397E0,-8.821105003E0,1.627383709E0
1.345938636E1,-3.604637146E0,-9.027531624E0,1.296399355E0
1.347965740E1,-3.167878389E0,-9.237511635E0,8.962809443E-1
1.350005740E1,-2.716514111E0,-9.399470329E0,6.640070677E-1
1.352019959E1,-2.437738419E0,-9.474662781E0,6.771816015E-1
1.354047063E1,-2.362713099E0,-9.496718407E0,6.327069402E-1
1.356074173E1,-2.391064167E0,-9.491369247E0,6.058959365E-1
1.358101282E1,-2.418552876E0,-9.475896835E0,7.268925309E-1
1.360141282E1,-2.515067339E0,-9.438856125E0,8.676609993E-1
1.362155501E1,-2.738583088E0,-9.375933647E0,8.731724024E-1
1.364182605E1,-3.053808689E0,-9.290481567E0,7.290862799E-1
1.366209714E1,-3.358078241E0,-9.197145462E0,5.533657670E-1
1.368236824E1,-3.545780420E0,-9.132928848E0,4.329413176E-1
1.370276824E1,-3.535290718E0,-9.140141487E0,3.604505956E-1
1.372291042E1,-3.364885092E0,-9.208249092E0,2.368076891E-1
1.374318152E1,-3.122811317E0,-9.296088219E0,3.427075595E-2
1.376345256E1,-2.833034515E0,-9.385840416E0,-2.242899239E-1
1.378372360E1,-2.509222507E0,-9.466812134E0,-5.036300421E-1
1.380412360E1,-2.191725254E0,-9.527248383E0,-7.734796405E-1
1.382442376E1,-1.904825687E0,-9.565955162E0,-1.017122149E0
1.384453751E1,-1.612629533E0,-9.586133957E0,-1.294547081E0
1.386480850E1,-1.298477411E0,-9.591892242E0,-1.574782968E0
1.388520850E1,-9.921860099E-1,-9.605827332E0,-1.707056284E0
1.390550839E1,-6.972957253E-1,-9.633614540E0,-1.696361184E0
1.392577246E1,-4.044094980E-1,-9.662426949E0,-1.626145601E0
1.394588568E1,-7.876542211E-2,-9.668441772E0,-1.638723016E0
1.396615813E1,2.742563188E-1,-9.638542175E0,-1.787091255E0
1.398642912E1,5.655721426E-1,-9.592834473E0,-1.956535220E0
1.400683027E1,7.308282852E-1,-9.550941467E0,-2.101381063E0
1.402697329E1,7.618719935E-1,-9.522563934E0,-2.216008186E0
1.404724433E1,7.568485141E-1,-9.514336586E0,-2.252768755E0
1.406757621E1,7.657181025E-1,-9.534189224E0,-2.164093733E0
1.408797694E1,7.501372695E-1,-9.566846848E0,-2.020673752E0
1.410805881E1,7.006076574E-1,-9.602425575E0,-1.863586187E0
1.412833027E1,5.459478498E-1,-9.650393486E0,-1.655965090E0
1.414860183E1,2.730993032E-1,-9.716131210E0,-1.300999165E0
1.416887313E1,-1.542263180E-1,-9.778349876E0,-7.283368111E-1
1.418914423E1,-7.514293194E-1,-9.773453712E0,-2.921167612E-1
1.420954449E1,-1.476437569E0,-9.694869995E0,-4.149179440E-3
1.422968683E1,-2.186139107E0,-9.558198929E0,1.789340377E-1
1.424995803E1,-2.799796343E0,-9.395642281E0,2.311658710E-1
1.427022923E1,-3.285429001E0,-9.237854004E0,1.959635168E-1
1.429050027E1,-3.657592773E0,-9.091141701E0,3.788862526E-1
1.431090037E1,-3.951603174E0,-8.952641487E0,6.367356777E-1
1.433104261E1,-4.157742023E0,-8.839602470E0,8.631234765E-1
1.435131381E1,-4.294052124E0,-8.747898102E0,1.098080993E0
1.437158496E1,-4.381872654E0,-8.664184570E0,1.378942609E0
1.439185600E1,-4.427198887E0,-8.591928482E0,1.658031583E0
1.441225600E1,-4.410855293E0,-8.558502197E0,1.861925364E0
1.443239818E1,-4.334103107E0,-8.580256462E0,1.940396070E0
1.445279824E1,-4.212438583E0,-8.644489288E0,1.923160076E0
1.447294042E1,-4.030422211E0,-8.751947403E0,1.824690819E0
1.449321147E1,-3.740304232E0,-8.916494370E0,1.636041999E0
1.451361152E1,-3.349887133E0,-9.121956825E0,1.318537354E0
1.453375365E1,-2.948224068E0,-9.305263519E0,9.436318874E-1
1.455402475E1,-2.661649466E0,-9.399951935E0,8.525965810E-1
1.457429589E1,-2.508982897E0,-9.435682297E0,9.183073044E-1
1.459456699E1,-2.450685740E0,-9.445370674E0,9.744279981E-1
1.461496699E1,-2.469427109E0,-9.434645653E0,1.029461384E0
1.463510912E1,-2.411504984E0,-9.437385559E0,1.136124969E0
1.465538022E1,-2.383302450E0,-9.430541992E0,1.247050047E0
1.467565131E1,-2.593633652E0,-9.388792992E0,1.137544751E0
1.469605928E1,-2.948129654E0,-9.319025993E0,7.966613173E-1
1.471633428E1,-3.217957735E0,-9.245865822E0,5.736814141E-1
1.473638089E1,-3.322335482E0,-9.210640907E0,5.445778370E-1
1.475673147E1,-3.239861250E0,-9.237871170E0,5.791700482E-1
1.477700339E1,-3.031131983E0,-9.311145782E0,5.340400338E-1
1.479727511E1,-2.776601315E0,-9.397847176E0,3.759469688E-1
1.481754673E1,-2.500113964E0,-9.481640816E0,1.352992356E-1
1.483781819E1,-2.219781399E0,-9.551134109E0,-1.371642202E-1
1.485808970E1,-1.964546680E0,-9.599144936E0,-4.091092944E-1
1.487836074E1,-1.748611927E0,-9.625532150E0,-6.796289086E-1
1.489876105E1,-1.539665580E0,-9.630635262E0,-1.025026321E0
1.491890345E1,-1.290725827E0,-9.619065285E0,-1.406413078E0
1.493917475E1,-1.035017014E0,-9.620603561E0,-1.594722271E0
1.495944595E1,-7.869426012E-1,-9.644563675E0,-1.591699123E0
1.497971714E1,-5.181720257E-1,-9.672600746E0,-1.530579448E0
1.499998834E1,-2.221684158E-1,-9.684307098E0,-1.528150439E0
1.502025944E1,6.447856128E-2,-9.678067207E0,-1.581529379E0
1.504053053E1,2.939551175E-1,-9.660263062E0,-1.662313700E0
1.506093063E1,4.458963573E-1,-9.636803627E0,-1.761697412E0
1.508107282E1,5.365639329E-1,-9.613427162E0,-1.861320972E0
1.510134392E1,6.088371277E-1,-9.592329979E0,-1.945996284E0
1.512161506E1,7.267035246E-1,-9.589685440E0,-1.918391109E0
1.514188615E1,8.356445432E-1,-9.606295586E0,-1.786380768E0
1.516215725E1,8.809725046E-1,-9.628815651E0,-1.637125134E0
1.518242829E1,8.402954936E-1,-9.657226562E0,-1.484005213E0
1.520269938E1,7.104065418E-1,-9.696294785E0,-1.283580422E0
1.522297053E1,4.276164174E-1,-9.751033783E0,-9.512423277E-1
1.524324162E1,-1.335968971E-1,-9.793716431E0,-4.854409099E-1
1.526351272E1,-9.143009782E-1,-9.763648033E0,-7.490719855E-2
1.528378376E1,-1.749849200E0,-9.648022652E0,1.551678777E-1
1.530405485E1,-2.447632551E0,-9.496031761E0,6.965437531E-2
1.532432595E1,-2.881402254E0,-9.373317719E0,9.394100308E-2
1.534459704E1,-3.170420170E0,-9.273015976E0,3.605342507E-1
1.536486808E1,-3.457460642E0,-9.159289360E0,5.689901710E-1
1.538513918E1,-3.755146265E0,-9.031644821E0,7.061539888E-1
1.540541027E1,-4.027245045E0,-8.900948524E0,8.513464928E-1
1.542568136E1,-4.224100590E0,-8.788941383E0,1.040132880E0
1.544595240E1,-4.318115711E0,-8.716251373E0,1.245486975E0
1.546622345E1,-4.327904224E0,-8.687356949E0,1.403371811E0
1.548649459E1,-4.285323620E0,-8.693752289E0,1.491663694E0
1.550676563E1,-4.188351154E0,-8.735856056E0,1.520824909E0
1.552703673E1,-3.999293327E0,-8.828454018E0,1.494805574E0
1.554730782E1,-3.704741478E0,-8.973535538E0,1.385980248E0
1.556770782E1,-3.302611351E0,-9.163691521E0,1.135739088E0
1.558785001E1,-2.832311630E0,-9.358551025E0,7.522798777E-1
1.560812110E1,-2.461271524E0,-9.472278595E0,6.232719421E-1
1.562839220E1,-2.273858309E0,-9.509681702E0,7.522761822E-1
1.564866324E1,-2.223488569E0,-9.520138741E0,7.703462839E-1
1.566893433E1,-2.234072447E0,-9.516091347E0,7.894963622E-1
1.568920542E1,-2.204206228E0,-9.508308411E0,9.507626295E-1
1.570947652E1,-2.319332123E0,-9.465527534E0,1.093104959E0
1.572974756E1,-2.663385153E0,-9.384732246E0,1.001779079E0
1.575001865E1,-3.054651737E0,-9.290202141E0,7.291342020E-1
1.577028975E1,-3.354672194E0,-9.203931808E0,4.518871605E-1
1.579068975E1,-3.482708693E0,-9.160899162E0,3.450576961E-1
1.581083188E1,-3.411845684E0,-9.185236931E0,4.013786614E-1
1.583110298E1,-3.207731009E0,-9.258200645E0,4.081401229E-1
1.585137407E1,-2.941748142E0,-9.350979805E0,2.750746310E-1
1.587164516E1,-2.633783340E0,-9.446247101E0,4.457589239E-2
1.589191621E1,-2.303627968E0,-9.529274940E0,-2.379151583E-1
1.591218730E1,-1.986883879E0,-9.587981224E0,-5.415742397E-1
1.593245839E1,-1.709084988E0,-9.620176315E0,-8.376273513E-1
1.595285839E1,-1.441323161E0,-9.630804062E0,-1.157837033E0
1.597315850E1,-1.157778502E0,-9.628865242E0,-1.454262257E0
1.599327225E1,-8.950057626E-1,-9.637022972E0,-1.580232978E0
1.601354324E1,-6.376923323E-1,-9.655679703E0,-1.591089606E0
1.603381423E1,-3.648990393E-1,-9.675990105E0,-1.553202629E0
1.605408516E1,-7.978283614E-2,-9.682851791E0,-1.551259756E0
1.607435621E1,2.150240839E-1,-9.662362099E0,-1.662199616E0
1.609462720E1,4.881233871E-1,-9.616613388E0,-1.858189225E0
1.611489824E1,6.798371077E-1,-9.563408852E0,-2.061415672E0
1.613516933E1,7.673351169E-1,-9.518398285E0,-2.231969357E0
1.615544043E1,8.043941855E-1,-9.497401237E0,-2.307100058E0
1.617571147E1,8.342533112E-1,-9.514334679E0,-2.225276470E0
1.619598251E1,8.437236547E-1,-9.554164886E0,-2.043634176E0
1.621625355E1,8.072976470E-1,-9.606859207E0,-1.796361208E0
1.623652459E1,5.890759230E-1,-9.686301231E0,-1.413840890E0
1.625679568E1,1.347684413E-1,-9.772436142E0,-8.072921038E-1
1.627706678E1,-4.485926032E-1,-9.791793823E0,-2.998897731E-1
1.629733782E1,-1.163022041E0,-9.737405777E0,2.641533688E-2
1.631760892E1,-1.908332825E0,-9.616033554E0,2.460963428E-1
1.633788001E1,-2.573425531E0,-9.456064224E0,3.615514636E-1
1.635815105E1,-3.116433620E0,-9.291334152E0,3.596515059E-1
1.637842214E1,-3.558917284E0,-9.131455421E0,3.478631079E-1
1.639869324E1,-3.883484840E0,-8.984474182E0,6.067485213E-1
1.641896423E1,-4.104378700E0,-8.861526489E0,8.932047486E-1
1.643923532E1,-4.228306770E0,-8.772827148E0,1.152953148E0
1.645950636E1,-4.284900188E0,-8.705275536E0,1.424148798E0
1.647977746E1,-4.300421238E0,-8.645339966E0,1.713141918E0
1.650017746E1,-4.284549713E0,-8.599424362E0,1.965430975E0
1.652031959E1,-4.214758873E0,-8.593561172E0,2.134689808E0
1.654059068E1,-4.080845356E0,-8.642401695E0,2.196809292E0
1.656086178E1,-3.890098810E0,-8.742774963E0,2.145087481E0
1.658113282E1,-3.643150806E0,-8.886127472E0,1.983577847E0
1.660153282E1,-3.319750309E0,-9.072875023E0,1.683029771E0
1.662167496E1,-2.962013960E0,-9.264506340E0,1.251319885E0
1.664194605E1,-2.678585052E0,-9.381139755E0,9.948791862E-1
1.666221714E1,-2.516057491E0,-9.410245895E0,1.134505987E0
1.668248818E1,-2.397658348E0,-9.434675217E0,1.186820626E0
1.670288819E1,-2.398814440E0,-9.433521271E0,1.193630815E0
1.672303032E1,-2.420880795E0,-9.417640686E0,1.271919131E0
1.674330142E1,-2.475980520E0,-9.390271187E0,1.364819527E0
1.676357246E1,-2.720829964E0,-9.329362869E0,1.315468311E0
1.678384355E1,-3.030365229E0,-9.263083458E0,1.087456107E0
1.680424355E1,-3.209735155E0,-9.216823578E0,9.582000375E-1
1.682454365E1,-3.247293234E0,-9.199815750E0,9.944167137E-1
1.684465740E1,-3.155492306E0,-9.221188545E0,1.087627649E0
1.686492834E1,-2.998414755E0,-9.277467728E0,1.052844167E0
1.688519933E1,-2.810208082E0,-9.354061127E0,8.801465034E-1
1.690547027E1,-2.567769289E0,-9.444097519E0,6.212556362E-1
1.692574131E1,-2.274693727E0,-9.533806801E0,3.204517365E-1
1.694601230E1,-1.962244391E0,-9.608327866E0,3.747323994E-3
1.696628334E1,-1.663412690E0,-9.659070015E0,-3.252828717E-1
1.698655438E1,-1.372056484E0,-9.682788849E0,-7.290028930E-1
1.700682548E1,-1.097525597E0,-9.687099457E0,-1.061088562E0
1.702709647E1,-8.750566244E-1,-9.703654289E0,-1.115233660E0
1.704736756E1,-6.708806157E-1,-9.723788261E0,-1.080855608E0
1.706763860E1,-4.666424990E-1,-9.737173080E0,-1.067740321E0
1.708790964E1,-2.691817582E-1,-9.741805077E0,-1.093242049E0
1.710818074E1,-7.978615165E-2,-9.733793259E0,-1.190497518E0
1.712845178E1,1.079520285E-1,-9.711502075E0,-1.358482599E0
1.714872282E1,2.822968662E-1,-9.678862572E0,-1.552519917E0
1.716899392E1,4.080529511E-1,-9.644943237E0,-1.725958943E0
1.718926501E1,4.446329772E-1,-9.621412277E0,-1.844209075E0
1.720953605E1,4.559106231E-1,-9.618331909E0,-1.857476234E0
1.722980714E1,4.779357314E-1,-9.633834839E0,-1.769513130E0
1.725007818E1,5.069763064E-1,-9.651608467E0,-1.661269546E0
1.727034923E1,5.146607757E-1,-9.666274071E0,-1.571191192E0
1.729062027E1,4.306277633E-1,-9.687954903E0,-1.458930969E0
1.731089136E1,2.443020642E-1,-9.721983910E0,-1.262434244E0
1.733116240E1,-6.149568781E-2,-9.770936012E0,-8.339085579E-1
1.735143350E1,-5.991956592E-1,-9.783280373E0,-3.142807782E-1
1.737170454E1,-1.340130687E0,-9.714453697E0,6.184510142E-2
1.739197563E1,-2.078454971E0,-9.580141068E0,2.670547068E-1
1.741224668E1,-2.651810408E0,-9.437899590E0,2.536634505E-1
1.743251772E1,-3.029727221E0,-9.323893547E0,2.370094955E-1
1.745278881E1,-3.321036577E0,-9.210682869E0,5.517423749E-1
1.747305985E1,-3.571115017E0,-9.097285271E0,8.105096817E-1
1.749333095E1,-3.782498360E0,-8.995316505E0,9.733278155E-1
1.751360199E1,-3.956394911E0,-8.905377388E0,1.100715041E0
1.753387308E1,-4.094796181E0,-8.821254730E0,1.260356069E0
1.755414412E1,-4.187739372E0,-8.746129990E0,1.462342381E0
1.757441522E1,-4.227320671E0,-8.695841789E0,1.637832403E0
1.759481522E1,-4.211830616E0,-8.687931061E0,1.717764974E0
1.761495730E1,-4.150963306E0,-8.718682289E0,1.710109115E0
1.763522839E1,-4.012884140E0,-8.792130470E0,1.663006783E0
1.765549944E1,-3.758040667E0,-8.918770790E0,1.582097650E0
1.767577053E1,-3.381788969E0,-9.091917038E0,1.439068556E0
1.769604152E1,-2.929342985E0,-9.285929680E0,1.166551709E0
1.771631266E1,-2.490731478E0,-9.446942329E0,8.496639729E-1
1.773658371E1,-2.267620564E0,-9.500182152E0,8.802356124E-1
1.775685475E1,-2.189584255E0,-9.508045197E0,9.865075350E-1
1.777725475E1,-2.198229551E0,-9.502604485E0,1.019159913E0
1.779739688E1,-2.229263067E0,-9.491982460E0,1.050258279E0
1.781779688E1,-2.240129709E0,-9.477684975E0,1.151393414E0
1.783793902E1,-2.400272369E0,-9.433945656E0,1.187327385E0
1.785821006E1,-2.714630365E0,-9.366137505E0,1.037612438E0
1.787848115E1,-3.038057327E0,-9.290261269E0,7.947613001E-1
1.789875220E1,-3.280218840E0,-9.222788811E0,5.922267437E-1
1.791902329E1,-3.375886202E0,-9.193386078E0,5.053938031E-1
1.793929433E1,-3.303459883E0,-9.221403122E0,4.725145400E-1
1.795956542E1,-3.117478848E0,-9.290234566E0,3.784812093E-1
1.797983647E1,-2.866935492E0,-9.375556946E0,2.236099690E-1
1.800023647E1,-2.561686277E0,-9.466112137E0,2.929998003E-2
1.802037860E1,-2.234347343E0,-9.546922684E0,-1.853078455E-1
1.804064964E1,-1.916899323E0,-9.608315468E0,-4.196958542E-1
1.806092074E1,-1.628891349E0,-9.645431519E0,-6.947896481E-1
1.808119178E1,-1.351716638E0,-9.658202171E0,-1.030724764E0
1.810159178E1,-1.093060851E0,-9.664797783E0,-1.251921058E0
1.812173392E1,-8.611193299E-1,-9.680852890E0,-1.307646513E0
1.814200496E1,-6.205281615E-1,-9.699385643E0,-1.306625724E0
1.816227600E1,-3.754589558E-1,-9.708816528E0,-1.329774857E0
1.818254709E1,-1.380283833E-1,-9.703143120E0,-1.414334059E0
1.820294709E1,8.389007300E-2,-9.682910919E0,-1.550666809E0
1.822308918E1,2.678775787E-1,-9.655261993E0,-1.695450425E0
1.824336027E1,4.036822915E-1,-9.626501083E0,-1.826992989E0
1.826363126E1,4.659751952E-1,-9.600252151E0,-1.946387649E0
1.828390235E1,4.816210568E-1,-9.584023476E0,-2.021119118E0
1.830430235E1,4.951805472E-1,-9.586321831E0,-2.006891012E0
1.832444449E1,5.193988085E-1,-9.602371216E0,-1.922261000E0
1.834471553E1,5.414299965E-1,-9.619621277E0,-1.827597499E0
1.836498662E1,5.128142834E-1,-9.645123482E0,-1.696762443E0
1.838525766E1,3.911040127E-1,-9.686067581E0,-1.482407928E0
1.840552871E1,1.304706633E-1,-9.747978210E0,-1.063152671E0
1.842579980E1,-3.540388346E-1,-9.786324501E0,-5.223953724E-1
1.844607084E1,-9.887552261E-1,-9.755753517E0,-1.342710853E-1
1.846634188E1,-1.666554570E0,-9.663515091E0,9.724625945E-2
1.848661298E1,-2.282077551E0,-9.536167145E0,1.550654322E-1
1.850688402E1,-2.748102188E0,-9.413151741E0,1.043392494E-1
1.852715506E1,-3.106220007E0,-9.299902916E0,1.833118945E-1
1.854742610E1,-3.418811560E0,-9.178517342E0,4.867654741E-1
1.856769720E1,-3.693849564E0,-9.056870461E0,7.063853741E-1
1.858796824E1,-3.922636986E0,-8.947157860E0,8.553786874E-1
1.860823928E1,-4.100463390E0,-8.850767136E0,1.010201573E0
1.862851032E1,-4.212636471E0,-8.772560120E0,1.210893631E0
1.864878142E1,-4.235059261E0,-8.732091904E0,1.408982038E0
1.866905246E1,-4.180119991E0,-8.737427711E0,1.534391284E0
1.868932350E1,-4.079108238E0,-8.776021957E0,1.585155129E0
1.870959459E1,-3.940747976E0,-8.839878082E0,1.580337167E0
1.872986563E1,-3.726031065E0,-8.942932129E0,1.520209551E0
1.875013668E1,-3.407778740E0,-9.089276314E0,1.393737197E0
1.877040772E1,-3.006812334E0,-9.260691643E0,1.170070767E0
1.879067881E1,-2.587033987E0,-9.413580894E0,9.285103083E-1
1.881094985E1,-2.330654621E0,-9.470751762E0,1.021417260E0
1.883122089E1,-2.252272844E0,-9.481512070E0,1.094799280E0
1.885149194E1,-2.309326649E0,-9.471690178E0,1.060420632E0
1.887176303E1,-2.353737593E0,-9.461244583E0,1.056017160E0
1.889203407E1,-2.331012964E0,-9.455473900E0,1.153587461E0
1.891230511E1,-2.433875799E0,-9.419232368E0,1.234783411E0
1.893257615E1,-2.722986937E0,-9.349584579E0,1.158014059E0
1.895284720E1,-3.074944019E0,-9.263297081E0,9.520714283E-1
1.897311829E1,-3.357754469E0,-9.187989235E0,6.904453635E-1
1.899338933E1,-3.450820684E0,-9.163387299E0,5.427139997E-1
1.901366037E1,-3.354419947E0,-9.199831963E0,5.304201245E-1
1.903393142E1,-3.137474298E0,-9.277197838E0,5.101373792E-1
1.905420246E1,-2.854797840E0,-9.373331070E0,4.014692903E-1
1.907447355E1,-2.529744387E0,-9.472162247E0,2.211819291E-1
1.909474459E1,-2.178451538E0,-9.561628342E0,-1.013714820E-3
1.911501563E1,-1.840959191E0,-9.628821373E0,-2.589685321E-1
1.913528668E1,-1.536943913E0,-9.669592857E0,-5.542241335E-1
1.915555777E1,-1.258569956E0,-9.686082840E0,-8.753166795E-1
1.917582881E1,-9.969935417E-1,-9.693546295E0,-1.100698829E0
1.919609985E1,-7.586546540E-1,-9.708389282E0,-1.158456922E0
1.921637089E1,-5.283493400E-1,-9.722947121E0,-1.164277315E0
1.923664194E1,-3.032130897E-1,-9.728899956E0,-1.194548965E0
1.925691298E1,-8.582766354E-2,-9.723050117E0,-1.274885654E0
1.927718407E1,1.137293503E-1,-9.702577591E0,-1.420366049E0
1.929745511E1,2.764146328E-1,-9.671281815E0,-1.600089550E0
1.931772615E1,3.815508783E-1,-9.638278008E0,-1.768725276E0
1.933799720E1,4.207057357E-1,-9.614226341E0,-1.886808276E0
1.935826824E1,4.399498999E-1,-9.610258102E0,-1.902569175E0
1.937853928E1,4.933752120E-1,-9.630528450E0,-1.783227801E0
1.939892918E1,5.558626056E-1,-9.659143448E0,-1.600736141E0
1.941908142E1,5.945211649E-1,-9.682379723E0,-1.438217878E0
1.943935246E1,5.697489381E-1,-9.707725525E0,-1.267221570E0
1.945962350E1,4.117624164E-1,-9.746708870E0,-1.001257300E0
1.947989454E1,8.217156865E-3,-9.792015076E0,-5.355048180E-1
1.950029454E1,-6.484718919E-1,-9.784657478E0,-1.017813012E-1
1.952043662E1,-1.441088080E0,-9.698157310E0,1.984991133E-1
1.954070767E1,-2.221544743E0,-9.546691895E0,3.095187545E-1
1.956097876E1,-2.827973127E0,-9.388759613E0,1.554247737E-1
1.958124975E1,-3.223827600E0,-9.259955406E0,1.748115569E-1
1.960164975E1,-3.534129620E0,-9.138523102E0,4.095096290E-1
1.962179188E1,-3.803093672E0,-9.021874428E0,5.591462255E-1
1.964206292E1,-4.041026592E0,-8.911487579E0,6.525881886E-1
1.966233397E1,-4.231606960E0,-8.811347961E0,7.899643779E-1
1.968260501E1,-4.362484455E0,-8.721035004E0,1.040507436E0
1.970300501E1,-4.417607784E0,-8.652512550E0,1.337588310E0
1.972314709E1,-4.403988838E0,-8.623953819E0,1.550060153E0
1.974341813E1,-4.333209515E0,-8.648115158E0,1.613625407E0
1.976368918E1,-4.204157829E0,-8.724170685E0,1.544117928E0
1.978396016E1,-3.992280006E0,-8.846408844E0,1.404679775E0
1.980423126E1,-3.658793449E0,-9.014984131E0,1.230317235E0
1.982463126E1,-3.219053268E0,-9.210726738E0,9.851819277E-1
1.984477334E1,-2.718659639E0,-9.397996902E0,6.759613156E-1
1.986504433E1,-2.343269825E0,-9.498446465E0,6.774922609E-1
1.988531542E1,-2.201639891E0,-9.522485733E0,8.033956289E-1
1.990558647E1,-2.205671787E0,-9.524051666E0,7.732064128E-1
1.992585751E1,-2.258599281E0,-9.509305000E0,8.013945818E-1
1.994612855E1,-2.306550264E0,-9.483875275E0,9.520107508E-1
1.996639959E1,-2.485940456E0,-9.430198669E0,1.030454755E0
1.998667063E1,-2.817033529E0,-9.358855247E0,8.040776849E-1
2.000694168E1,-3.110366583E0,-9.286039352E0,5.152488947E-1
2.002721277E1,-3.284034491E0,-9.229407310E0,4.511584938E-1
2.004748381E1,-3.298215151E0,-9.218070030E0,5.651150942E-1
2.006775480E1,-3.182766914E0,-9.253397942E0,6.442077756E-1
2.008802584E1,-3.007706642E0,-9.315045357E0,5.949943066E-1
2.010829694E1,-2.789881945E0,-9.392148972E0,4.176969826E-1
2.012856793E1,-2.531449080E0,-9.472988129E0,1.569871455E-1
2.014883897E1,-2.266412735E0,-9.540011406E0,-1.481535882E-1
2.016911001E1,-2.028470278E0,-9.583358765E0,-4.636121094E-1
2.018938105E1,-1.809806347E0,-9.606461525E0,-7.815868258E-1
2.020965209E1,-1.542396784E0,-9.611384392E0,-1.188567877E0
2.022992313E1,-1.253570795E0,-9.603920937E0,-1.537409663E0
2.025019418E1,-1.018688679E0,-9.625163078E0,-1.577623367E0
2.027046522E1,-7.718821168E-1,-9.658004761E0,-1.515756249E0
2.029073626E1,-5.054082274E-1,-9.685250282E0,-1.452882886E0
2.031100730E1,-2.134922296E-1,-9.695133209E0,-1.459175944E0
2.033127829E1,1.074481010E-1,-9.680707932E0,-1.562925935E0
2.035154938E1,4.122990370E-1,-9.648802757E0,-1.703228712E0
2.037182043E1,6.521925926E-1,-9.611097336E0,-1.836256862E0
2.039209147E1,7.831906080E-1,-9.576929092E0,-1.959447980E0
2.041236246E1,8.123524189E-1,-9.555166245E0,-2.051654577E0
2.043263350E1,8.467891812E-1,-9.557337761E0,-2.027470112E0
2.045290454E1,8.543934822E-1,-9.577240944E0,-1.927912474E0
2.047317558E1,8.247715831E-1,-9.601880074E0,-1.814949989E0
2.049344662E1,7.253556252E-1,-9.638644218E0,-1.655533195E0
2.051371766E1,5.173875690E-1,-9.692367554E0,-1.400258541E0
2.053398871E1,1.760714352E-1,-9.763520241E0,-9.016963243E-1
2.055425975E1,-3.790619969E-1,-9.792617798E0,-3.624288738E-1
2.057453079E1,-1.094045758E0,-9.745431900E0,-2.504783915E-3
2.059480183E1,-1.849310517E0,-9.629446983E0,1.555484235E-1
2.061507287E1,-2.487306833E0,-9.484306335E0,1.778273731E-1
2.063534392E1,-2.952214956E0,-9.349978447E0,1.808466166E-1
2.065561496E1,-3.317795515E0,-9.223956108E0,2.850629687E-1
2.067588595E1,-3.629512310E0,-9.093186378E0,5.576713681E-1
2.069615699E1,-3.885383129E0,-8.965023994E0,8.381700516E-1
2.071642803E1,-4.074723721E0,-8.853917122E0,1.084056258E0
2.073669907E1,-4.197475433E0,-8.766106606E0,1.306508780E0
2.075697011E1,-4.262614727E0,-8.701716423E0,1.510173082E0
2.077724115E1,-4.269619942E0,-8.669263840E0,1.668712735E0
2.079751220E1,-4.220751762E0,-8.677936554E0,1.746151328E0
2.081778318E1,-4.137183189E0,-8.720047951E0,1.736333966E0
2.083805423E1,-4.000753880E0,-8.796192169E0,1.670733571E0
2.085832527E1,-3.764210463E0,-8.920511246E0,1.557427049E0
2.087859631E1,-3.414135456E0,-9.090390205E0,1.370714307E0
2.089890673E1,-2.981835842E0,-9.283601761E0,1.045842409E0
2.091913845E1,-2.548601866E0,-9.441585541E0,7.290210724E-1
2.093940949E1,-2.277426481E0,-9.501173973E0,8.434564471E-1
2.095968048E1,-2.143912554E0,-9.530570984E0,8.615338802E-1
2.097995152E1,-2.127053738E0,-9.540443420E0,7.911886573E-1
2.100035152E1,-2.139555216E0,-9.535854340E0,8.125188351E-1
2.102049360E1,-2.249314070E0,-9.505461693E0,8.701579571E-1
2.104076464E1,-2.574576616E0,-9.432192802E0,7.587372661E-1
2.106103563E1,-2.910682917E0,-9.351984978E0,4.885652959E-1
2.108130668E1,-3.099595070E0,-9.300004959E0,2.698180676E-1
2.110170668E1,-3.155273914E0,-9.280303955E0,3.009814322E-1
2.112184876E1,-3.110998869E0,-9.286658287E0,5.000600219E-1
2.114211980E1,-2.986090183E0,-9.320230484E0,6.220738292E-1
2.116239084E1,-2.802872419E0,-9.381789207E0,5.443570018E-1
2.118266178E1,-2.559294462E0,-9.462815285E0,2.747998834E-1
2.120306178E1,-2.269013882E0,-9.540115356E0,-9.043440968E-2
2.122320386E1,-1.974103451E0,-9.595459938E0,-4.477112293E-1
2.124347490E1,-1.700076461E0,-9.628833771E0,-7.521292567E-1
2.126374589E1,-1.447969437E0,-9.645241737E0,-1.021312594E0
2.128401694E1,-1.149236917E0,-9.639577866E0,-1.388582349E0
2.130441694E1,-8.361535072E-1,-9.631299973E0,-1.645994186E0
2.132455902E1,-5.808109045E-1,-9.651743889E0,-1.636116743E0
2.134483006E1,-3.393119574E-1,-9.677092552E0,-1.552138329E0
2.136510105E1,-8.843655139E-2,-9.686998367E0,-1.524670959E0
2.138537209E1,1.785872430E-1,-9.673834801E0,-1.598569393E0
2.140564308E1,4.235374928E-1,-9.644450188E0,-1.724985838E0
2.142591412E1,6.007341146E-1,-9.610961914E0,-1.854434848E0
2.144618517E1,6.699070930E-1,-9.582198143E0,-1.975624800E0
2.146645621E1,6.636137962E-1,-9.565057755E0,-2.059048176E0
2.148672725E1,6.805202365E-1,-9.566301346E0,-2.047719002E0
2.150699824E1,7.186509967E-1,-9.583723068E0,-1.950940728E0
2.152726928E1,7.247335911E-1,-9.599115372E0,-1.871398807E0
2.154754032E1,6.974048018E-1,-9.614573479E0,-1.801108479E0
2.156781131E1,5.830358863E-1,-9.647781372E0,-1.658542395E0
2.158808235E1,3.261618316E-1,-9.728172302E0,-1.194436193E0
2.160835339E1,-2.035713643E-1,-9.787291527E0,-5.812637210E-1
2.162862444E1,-9.513347745E-1,-9.759059906E0,-1.615379006E-1
2.164889543E1,-1.777359843E0,-9.644119263E0,4.846698046E-2
2.166916647E1,-2.486196518E0,-9.485692024E0,1.042075530E-1
2.168943751E1,-2.989939451E0,-9.339058876E0,1.123803258E-1
2.170970850E1,-3.356933355E0,-9.209915161E0,2.807860970E-1
2.172997954E1,-3.679466724E0,-9.075003624E0,5.255632997E-1
2.175025058E1,-3.968607903E0,-8.939985275E0,7.051272392E-1
2.177052162E1,-4.196725368E0,-8.820433617E0,8.705404401E-1
2.179079261E1,-4.341046810E0,-8.725744247E0,1.089533806E0
2.181106365E1,-4.407252789E0,-8.656534195E0,1.345707655E0
2.183133470E1,-4.413108826E0,-8.615943909E0,1.568553686E0
2.185160569E1,-4.374382973E0,-8.612103462E0,1.693173409E0
2.187187673E1,-4.283938408E0,-8.651431084E0,1.723657489E0
2.189214777E1,-4.111375332E0,-8.745351791E0,1.669070721E0
2.191241876E1,-3.834303617E0,-8.895116806E0,1.531474948E0
2.193268980E1,-3.439681053E0,-9.094562531E0,1.275898576E0
2.195296084E1,-2.957381487E0,-9.310161591E0,8.632270098E-1
2.197323183E1,-2.518786192E0,-9.457347870E0,6.202214360E-1
2.199350287E1,-2.262003660E0,-9.513001442E0,7.460207939E-1
2.201377392E1,-2.176214695E0,-9.531870842E0,7.602040768E-1
2.203404490E1,-2.188089371E0,-9.530746460E0,7.399438620E-1
2.205431595E1,-2.179681063E0,-9.525974274E0,8.217070103E-1
2.207458699E1,-2.262066841E0,-9.498619080E0,9.108695984E-1
2.209498699E1,-2.597654819E0,-9.427172661E0,7.422952652E-1
2.211512902E1,-2.935002089E0,-9.348018646E0,4.131624699E-1
2.213540006E1,-3.162954330E0,-9.280105591E0,2.139192075E-1
2.215567100E1,-3.265283346E0,-9.243900299E0,2.421389967E-1
2.217594209E1,-3.240938902E0,-9.247681618E0,3.835123181E-1
2.219621313E1,-3.114322901E0,-9.288438797E0,4.430406392E-1
2.221648412E1,-2.935996294E0,-9.350391388E0,3.471352458E-1
2.223675516E1,-2.695428848E0,-9.427997589E0,1.337698251E-1
2.225702615E1,-2.402383327E0,-9.506552696E0,-1.562408656E-1
2.227729720E1,-2.099898100E0,-9.566740036E0,-4.881546199E-1
2.229756824E1,-1.812204719E0,-9.601671219E0,-8.331868649E-1
2.231783923E1,-1.525167108E0,-9.611750603E0,-1.207687020E0
2.233811027E1,-1.231180191E0,-9.607141495E0,-1.535389543E0
2.235838126E1,-9.787299037E-1,-9.621008873E0,-1.627475142E0
2.237865230E1,-7.328011394E-1,-9.648315430E0,-1.594803572E0
2.239904209E1,-4.732954502E-1,-9.671014786E0,-1.554944873E0
2.241919433E1,-2.171350271E-1,-9.679052353E0,-1.561792850E0
2.243946537E1,4.770171642E-2,-9.665763855E0,-1.655631900E0
2.245973636E1,3.069334328E-1,-9.632966995E0,-1.811661720E0
2.248000740E1,5.121673942E-1,-9.594881058E0,-1.961207986E0
2.250040740E1,6.165998578E-1,-9.561802864E0,-2.088567019E0
2.252054944E1,6.330994964E-1,-9.544305801E0,-2.162354946E0
2.254082048E1,6.219764352E-1,-9.541522026E0,-2.177820206E0
2.256109152E1,6.320615411E-1,-9.547074318E0,-2.150407076E0
2.258136251E1,6.124556661E-1,-9.559762001E0,-2.099106312E0
2.260176251E1,5.528667569E-1,-9.584748268E0,-1.999331236E0
2.262190459E1,4.033885002E-1,-9.654299736E0,-1.673967600E0
2.264217563E1,5.119358003E-2,-9.762895584E0,-9.239221811E-1
2.266244662E1,-4.714421034E-1,-9.790261269E0,-3.145014048E-1
2.268271767E1,-1.101685405E0,-9.744308472E0,7.155628502E-2
2.270311766E1,-1.786900043E0,-9.635435104E0,3.684648871E-1
2.272325970E1,-2.396881580E0,-9.489378929E0,6.140307188E-1
2.274353074E1,-2.864864349E0,-9.346029282E0,7.840124369E-1
2.276380178E1,-3.238486528E0,-9.215342522E0,8.718041182E-1
2.278407282E1,-3.578181028E0,-9.086938858E0,8.913691044E-1
2.280434381E1,-3.879111290E0,-8.960376740E0,9.135328531E-1
2.282474381E1,-4.100207329E0,-8.843767166E0,1.070739031E0
2.284488589E1,-4.212106228E0,-8.754984856E0,1.333705068E0
2.286515688E1,-4.222808838E0,-8.695254326E0,1.652523875E0
2.288542793E1,-4.156767845E0,-8.669007301E0,1.933902621E0
2.290569897E1,-4.051604748E0,-8.682528496E0,2.090115786E0
2.292597001E1,-3.928151846E0,-8.732468605E0,2.117546797E0
2.294624100E1,-3.772979736E0,-8.817068100E0,2.048003197E0
2.296651199E1,-3.539608240E0,-8.946600914E0,1.897340178E0
2.298678308E1,-3.207030773E0,-9.120630264E0,1.642997026E0
2.300705412E1,-2.785896301E0,-9.312354088E0,1.299698234E0
2.302732511E1,-2.412289381E0,-9.445480347E0,1.064962029E0
2.304759610E1,-2.179147243E0,-9.487067223E0,1.190486550E0
2.306786720E1,-2.017149925E0,-9.500830650E0,1.354879260E0
2.308813824E1,-1.955238223E0,-9.513627052E0,1.355854273E0
2.310840928E1,-1.905042291E0,-9.530468941E0,1.308188438E0
2.312868027E1,-1.865223527E0,-9.530204773E0,1.366210818E0
2.314895131E1,-2.086124420E0,-9.491194725E0,1.317453980E0
2.316922235E1,-2.425854683E0,-9.448447227E0,1.006212115E0
2.318949339E1,-2.637697458E0,-9.420622826E0,6.817713380E-1
2.320976444E1,-2.711302042E0,-9.405878067E0,5.905037522E-1
2.323003548E1,-2.646240234E0,-9.415112495E0,7.235000134E-1
2.325030647E1,-2.472072363E0,-9.447954178E0,8.918591142E-1
2.327057751E1,-2.257200956E0,-9.495588303E0,9.535464048E-1
2.329084855E1,-2.062847137E0,-9.550268173E0,8.410899043E-1
2.331111959E1,-1.871134400E0,-9.608322144E0,5.910926461E-1
2.333139058E1,-1.685346603E0,-9.657243729E0,2.600999177E-1
2.335166168E1,-1.522128582E0,-9.687375069E0,-9.094739705E-2
2.337193267E1,-1.364428997E0,-9.701187134E0,-4.423590600E-1
2.339220371E1,-1.160444856E0,-9.698471069E0,-8.737415075E-1
2.341247475E1,-9.361504316E-1,-9.691177368E0,-1.172639132E0
2.343274579E1,-7.389297485E-1,-9.708477974E0,-1.170393586E0
2.345301683E1,-5.058966279E-1,-9.732007980E0,-1.096572280E0
2.347328787E1,-2.560947835E-1,-9.745858192E0,-1.059739947E0
2.349355892E1,-1.221635100E-2,-9.744466782E0,-1.102540016E0
2.351382996E1,2.141685635E-1,-9.728502274E0,-1.216866970E0
2.353410100E1,4.076729119E-1,-9.702848434E0,-1.363424182E0
2.355437199E1,5.446618795E-1,-9.676232338E0,-1.498085976E0
2.357464308E1,6.138986945E-1,-9.657962799E0,-1.586591125E0
2.359491407E1,6.153196096E-1,-9.646486282E0,-1.654406667E0
2.361518511E1,6.624184847E-1,-9.644337654E0,-1.648740768E0
2.363545615E1,7.061889172E-1,-9.656519890E0,-1.556695819E0
2.365572720E1,7.074548602E-1,-9.677111626E0,-1.422464252E0
2.367599824E1,6.468853951E-1,-9.707570076E0,-1.230854869E0
2.369626928E1,4.938395023E-1,-9.752086639E0,-9.073786139E-1
2.371654032E1,8.161590248E-2,-9.802426338E0,-2.759970725E-1
2.373681136E1,-5.490556359E-1,-9.787648201E0,2.661933899E-1
2.375708240E1,-1.285867214E0,-9.705939293E0,5.582794547E-1
2.377735345E1,-1.984390140E0,-9.581127167E0,6.592196226E-1
2.379762449E1,-2.533726931E0,-9.451063156E0,6.542403102E-1
2.381789553E1,-2.944979668E0,-9.333465576E0,6.196107864E-1
2.383816657E1,-3.314546824E0,-9.209145546E0,6.130226254E-1
2.385843761E1,-3.630357742E0,-9.075690269E0,7.891392708E-1
2.387870865E1,-3.849118710E0,-8.960969925E0,1.027467251E0
2.389910865E1,-3.978230000E0,-8.873569489E0,1.266420364E0
2.391925074E1,-4.031816006E0,-8.812261581E0,1.502966762E0
2.393952178E1,-4.029951572E0,-8.776879311E0,1.701840997E0
2.395979282E1,-3.979380131E0,-8.774395943E0,1.828906655E0
2.398006386E1,-3.900634766E0,-8.800227165E0,1.873881698E0
2.400046386E1,-3.806149721E0,-8.846925735E0,1.848110676E0
2.402060595E1,-3.650546074E0,-8.926387787E0,1.778619647E0
2.404087699E1,-3.403646708E0,-9.043531418E0,1.673360467E0
2.406114808E1,-3.060615301E0,-9.194864273E0,1.502498984E0
2.408141912E1,-2.626105070E0,-9.368068695E0,1.230140448E0
2.410181912E1,-2.202628851E0,-9.506072998E0,9.764167666E-1
2.412196121E1,-1.940979123E0,-9.548636436E0,1.107490182E0
2.414223225E1,-1.784365892E0,-9.552226067E0,1.319619775E0
2.416250329E1,-1.724588513E0,-9.570246696E0,1.267502785E0
2.418277438E1,-1.685466647E0,-9.593674660E0,1.136216879E0
2.420317438E1,-1.688931942E0,-9.589294434E0,1.167614937E0
2.422331647E1,-1.898726225E0,-9.559427261E0,1.087459087E0
2.424358751E1,-2.202180147E0,-9.521473885E0,8.138386011E-1
2.426385855E1,-2.367403984E0,-9.487870216E0,7.389874458E-1
2.428412959E1,-2.415349483E0,-9.465300560E0,8.628759384E-1
2.430452959E1,-2.315074444E0,-9.467214584E0,1.087504268E0
2.432467173E1,-2.154300928E0,-9.483420372E0,1.262586832E0
2.434494277E1,-2.002632380E0,-9.506416321E0,1.337129235E0
2.436521381E1,-1.862247586E0,-9.541567802E0,1.288768649E0
2.438548485E1,-1.721473336E0,-9.585515976E0,1.151003599E0
2.440575595E1,-1.591517568E0,-9.631001472E0,9.387679100E-1
2.442602699E1,-1.512879491E0,-9.666249275E0,6.672435999E-1
2.444629803E1,-1.482738495E0,-9.687678337E0,3.475210965E-1
2.446656907E1,-1.420045733E0,-9.703253746E0,-2.700430341E-2
2.448684016E1,-1.262318134E0,-9.710388184E0,-5.341395736E-1
2.450711115E1,-1.009642005E0,-9.695834160E0,-1.068546891E0
2.452738225E1,-8.527528644E-1,-9.711849213E0,-1.059804082E0
2.454765329E1,-6.756907701E-1,-9.740606308E0,-9.134710431E-1
2.456792438E1,-4.361880124E-1,-9.759860039E0,-8.516334891E-1
2.458819543E1,-1.929591447E-1,-9.764439583E0,-8.881896734E-1
2.460846652E1,2.470157854E-2,-9.754440308E0,-1.010279655E0
2.462873756E1,2.150942832E-1,-9.734601021E0,-1.166902304E0
2.464900860E1,3.642604649E-1,-9.710094452E0,-1.323547959E0
2.466927964E1,4.292543828E-1,-9.690657616E0,-1.441278338E0
2.468955074E1,4.047108293E-1,-9.682001114E0,-1.505141973E0
2.470982178E1,3.721111119E-1,-9.676490784E0,-1.548367262E0
2.473009282E1,3.640801609E-1,-9.678493500E0,-1.537723780E0
2.475036386E1,3.343857825E-1,-9.691009521E0,-1.463867545E0
2.477063496E1,2.597306073E-1,-9.717411041E0,-1.294160724E0
2.479090600E1,-2.160583250E-2,-9.780268669E0,-7.185201645E-1
2.481117709E1,-4.785589576E-1,-9.794726372E0,-6.854719669E-2
2.483144813E1,-9.539138079E-1,-9.752901077E0,3.759754300E-1
2.485171918E1,-1.504395366E0,-9.664825439E0,7.059282660E-1
2.487199022E1,-2.058256149E0,-9.534473419E0,1.013798356E0
2.489226131E1,-2.482433319E0,-9.400484085E0,1.280164957E0
2.491253235E1,-2.759321213E0,-9.297626495E0,1.452818751E0
2.493280339E1,-3.016599178E0,-9.207456589E0,1.514353275E0
2.495307449E1,-3.268979788E0,-9.122988701E0,1.501739979E0
2.497334553E1,-3.496001244E0,-9.047782898E0,1.444293380E0
2.499361657E1,-3.669885159E0,-8.989681244E0,1.374031782E0
2.501388767E1,-3.799803734E0,-8.943431854E0,1.321705937E0
2.503415871E1,-3.874133825E0,-8.909606934E0,1.334310293E0
2.505442975E1,-3.863711357E0,-8.900925636E0,1.419729710E0
2.507470084E1,-3.779011011E0,-8.922600746E0,1.508861661E0
2.509497188E1,-3.651284933E0,-8.967258453E0,1.557811022E0
2.511524292E1,-3.472070456E0,-9.037950516E0,1.559023499E0
2.513551402E1,-3.221376419E0,-9.138072014E0,1.512871504E0
2.515578506E1,-2.884190559E0,-9.260908127E0,1.444790363E0
2.517605610E1,-2.502297163E0,-9.386614799E0,1.341773510E0
2.519632720E1,-2.176840544E0,-9.486694336E0,1.197660089E0
2.521659824E1,-1.994979739E0,-9.520605087E0,1.244393945E0
2.523686933E1,-1.918055773E0,-9.520342827E0,1.361813664E0
2.525714037E1,-1.885040998E0,-9.523138046E0,1.388112068E0
2.527741142E1,-1.888254166E0,-9.525661469E0,1.366258502E0
2.529768251E1,-1.930317283E0,-9.513694763E0,1.390639305E0
2.531795355E1,-2.078558445E0,-9.484321594E0,1.377541900E0
2.533822459E1,-2.350227118E0,-9.454668999E0,1.120736718E0
2.535849563E1,-2.528838396E0,-9.434995651E0,8.696058989E-1
2.537876673E1,-2.563143015E0,-9.426863670E0,8.572782278E-1
2.539916673E1,-2.486420393E0,-9.437764168E0,9.574477673E-1
2.541930886E1,-2.337127209E0,-9.463829994E0,1.069655418E0
2.543957990E1,-2.187456846E0,-9.491815567E0,1.136163712E0
2.545985095E1,-2.024329424E0,-9.527233124E0,1.142067194E0
2.548012204E1,-1.823048234E0,-9.573129654E0,1.096389055E0
2.550052204E1,-1.617381215E0,-9.623578072E0,9.701556563E-1
2.552066412E1,-1.435066938E0,-9.671641350E0,7.552067637E-1
2.554093522E1,-1.276773214E0,-9.712327957E0,4.592655599E-1
2.556120626E1,-1.120496511E0,-9.742236137E0,6.093953177E-2
2.558147735E1,-9.523149729E-1,-9.753830910E0,-3.553398848E-1
2.560187735E1,-7.824929953E-1,-9.763722420E0,-4.773069322E-1
2.562201944E1,-6.389139295E-1,-9.777657509E0,-3.995000422E-1
2.564229048E1,-4.822737575E-1,-9.787874222E0,-3.678605258E-1
2.566256157E1,-3.291130662E-1,-9.793590546E0,-3.842715025E-1
2.568283267E1,-1.926106364E-1,-9.794791222E0,-4.420100451E-1
2.570323266E1,-6.880410761E-2,-9.790685654E0,-5.550860763E-1
2.572337475E1,1.696068607E-2,-9.781774521E0,-6.978425980E-1
2.574364584E1,6.364989281E-2,-9.770712852E0,-8.363624811E-1
2.576391688E1,8.962480724E-2,-9.758762360E0,-9.638028145E-1
2.578418792E1,1.018216088E-1,-9.745265961E0,-1.090789795E0
2.580458792E1,1.023803353E-1,-9.730793953E0,-1.213073134E0
2.582488803E1,1.100201756E-1,-9.715250015E0,-1.331241012E0
2.584500173E1,1.461107135E-1,-9.699128151E0,-1.440819025E0
2.586527267E1,1.835147142E-1,-9.687287331E0,-1.514323950E0
2.588554365E1,1.789072901E-1,-9.680144310E0,-1.559862852E0
2.590581459E1,1.181490496E-1,-9.669606209E0,-1.629462004E0
2.592608558E1,1.737479679E-2,-9.659831047E0,-1.690489292E0
2.594635662E1,-1.050283760E-1,-9.683640480E0,-1.544815779E0
2.596662756E1,-2.922357321E-1,-9.736002922E0,-1.138081312E0
2.598689871E1,-5.355657935E-1,-9.762913704E0,-7.543765903E-1
2.600716975E1,-8.026633263E-1,-9.765085220E0,-4.113716781E-1
2.602744074E1,-1.092366815E0,-9.745219231E0,-8.837533742E-2
2.604771183E1,-1.368290424E0,-9.708727837E0,1.968824863E-1
2.606798287E1,-1.583853960E0,-9.669322968E0,4.074080586E-1
2.608825392E1,-1.768978238E0,-9.631119728E0,5.316364169E-1
2.610852496E1,-1.965882897E0,-9.589333534E0,5.919350982E-1
2.612879600E1,-2.153203011E0,-9.548677444E0,5.973985791E-1
2.614906709E1,-2.327763557E0,-9.511491776E0,5.323880315E-1
2.616933813E1,-2.507848978E0,-9.472772598E0,3.842850327E-1
2.618960918E1,-2.735875607E0,-9.415736198E0,1.711565405E-1
2.620988027E1,-3.021847486E0,-9.329394341E0,3.508844972E-2
2.623015131E1,-3.280573845E0,-9.241627693E0,2.337863483E-2
2.625042235E1,-3.479235172E0,-9.168277740E0,8.953298628E-2
2.627069339E1,-3.633885860E0,-9.107116699E0,1.602624208E-1
2.629096444E1,-3.747782469E0,-9.059502602E0,2.234360874E-1
2.631123548E1,-3.797904730E0,-9.037112236E0,2.773298621E-1
2.633150652E1,-3.785950899E0,-9.040111542E0,3.366775811E-1
2.635177761E1,-3.722429514E0,-9.063822746E0,4.012766778E-1
2.637204865E1,-3.607152700E0,-9.106399536E0,4.820043445E-1
2.639231970E1,-3.443480730E0,-9.163855553E0,5.801525712E-1
2.641259079E1,-3.245911360E0,-9.229184151E0,6.757298708E-1
2.643286183E1,-3.010925770E0,-9.304693222E0,7.262207866E-1
2.645313293E1,-2.739725828E0,-9.387158394E0,7.386117578E-1
2.647340397E1,-2.490262747E0,-9.452346802E0,7.887417674E-1
2.649367501E1,-2.311611414E0,-9.493822098E0,8.331733346E-1
2.651394610E1,-2.215201616E0,-9.518404007E0,8.143931627E-1
2.653421714E1,-2.199935675E0,-9.527767181E0,7.431832552E-1
2.655448818E1,-2.277245760E0,-9.520317078E0,5.900078416E-1
2.657475928E1,-2.354553699E0,-9.509914398E0,4.336022139E-1
2.659515928E1,-2.430039167E0,-9.488904953E0,4.753709137E-1
2.661530136E1,-2.562509298E0,-9.453454018E0,4.859302640E-1
2.663557246E1,-2.712531805E0,-9.418954849E0,3.095932305E-1
2.665584350E1,-2.749248028E0,-9.412815094E0,1.045624837E-1
2.667611454E1,-2.667689085E0,-9.436032295E0,1.229624674E-1
2.669638558E1,-2.574813604E0,-9.460981369E0,1.747606397E-1
2.671665668E1,-2.446672916E0,-9.495368958E0,1.488215625E-1
2.673692772E1,-2.268618584E0,-9.540266991E0,8.396671712E-2
2.675719881E1,-2.016470909E0,-9.597060204E0,2.592007071E-2
2.677746985E1,-1.715500236E0,-9.655319214E0,-4.748455435E-2
2.679774089E1,-1.421322465E0,-9.701347351E0,-1.846380532E-1
2.681814089E1,-1.160123825E0,-9.726732254E0,-4.638837576E-1
2.683828303E1,-9.349082112E-1,-9.728867531E0,-8.033983111E-1
2.685855407E1,-7.535566688E-1,-9.722523689E0,-1.036848783E0
2.687882511E1,-6.291349530E-1,-9.725462914E0,-1.090856314E0
2.689922511E1,-5.519913435E-1,-9.729631424E0,-1.095428467E0
2.691936725E1,-4.779370129E-1,-9.731809616E0,-1.110785723E0
2.693963829E1,-3.894960880E-1,-9.731031418E0,-1.151385784E0
2.695990933E1,-3.001754582E-1,-9.726115227E0,-1.217769623E0
2.698018042E1,-2.296296656E-1,-9.717255592E0,-1.300996661E0
2.700058043E1,-1.854278892E-1,-9.703985214E0,-1.403092027E0
2.702072251E1,-1.490404159E-1,-9.691700935E0,-1.489661098E0
2.704099355E1,-1.108213067E-1,-9.689305305E0,-1.508464932E0
2.706126459E1,-8.479426801E-2,-9.696851730E0,-1.460911155E0
2.708153569E1,-6.032870337E-2,-9.706866264E0,-1.394092679E0
2.710193568E1,-2.688216791E-2,-9.713009834E0,-1.351704836E0
2.712207777E1,2.502617054E-2,-9.715763092E0,-1.331803322E0
2.714234886E1,7.126079500E-2,-9.718800545E0,-1.307757616E0
2.716261990E1,3.701561317E-2,-9.722008705E0,-1.285135865E0
2.718289095E1,-1.073153242E-1,-9.721356392E0,-1.286112428E0
2.720329095E1,-3.424366713E-1,-9.718847275E0,-1.263777494E0
2.722343308E1,-7.659885883E-1,-9.723937035E0,-1.014245272E0
2.724370412E1,-1.414086699E0,-9.669954300E0,-8.140775561E-1
2.726397522E1,-2.131116390E0,-9.529446602E0,-9.046333432E-1
2.728424626E1,-2.695894718E0,-9.363774300E0,-1.105563998E0
2.730464626E1,-3.050959349E0,-9.260450363E0,-1.051715732E0
2.732478834E1,-3.381428242E0,-9.155404091E0,-9.565060735E-1
2.734505938E1,-3.734090567E0,-9.017923355E0,-9.507980347E-1
2.736533048E1,-4.058362961E0,-8.871656418E0,-9.968836308E-1
2.738560152E1,-4.306647301E0,-8.752793312E0,-1.005877256E0
2.740587256E1,-4.458839417E0,-8.685048103E0,-9.268715978E-1
2.742614360E1,-4.533091545E0,-8.658498764E0,-8.073863387E-1
2.744641470E1,-4.561473846E0,-8.653223038E0,-6.964793205E-1
2.746668574E1,-4.551549911E0,-8.665838242E0,-5.975095630E-1
2.748695678E1,-4.489118099E0,-8.704274178E0,-5.037984848E-1
2.750722782E1,-4.355160713E0,-8.777662277E0,-3.944786489E-1
2.752749892E1,-4.136179924E0,-8.887606621E0,-2.699067891E-1
2.754776996E1,-3.817892075E0,-9.031723022E0,-1.485285312E-1
2.756804100E1,-3.387635469E0,-9.202710152E0,-6.661110371E-2
2.758831204E1,-2.864289284E0,-9.378944397E0,-4.048127681E-2
2.760858313E1,-2.322232723E0,-9.527491570E0,-6.716611236E-2
2.762885418E1,-1.947438836E0,-9.610980988E0,-8.318655193E-2
2.764912522E1,-1.831361175E0,-9.633476257E0,-1.123995930E-1
2.766939631E1,-1.870356798E0,-9.626211166E0,-9.070111811E-2
2.768966735E1,-1.925267100E0,-9.615673065E0,5.057824403E-2
2.770993839E1,-1.975678563E0,-9.601963997E0,2.633841336E-1
2.773020944E1,-2.098859549E0,-9.571559906E0,3.878407776E-1
2.775048048E1,-2.297321081E0,-9.525073051E0,4.070474803E-1
2.777075157E1,-2.484277010E0,-9.479909897E0,3.606436849E-1
2.779102261E1,-2.606092215E0,-9.448055267E0,3.360829949E-1
2.781129365E1,-2.709218025E0,-9.418795586E0,3.417640626E-1
2.783156470E1,-2.820741892E0,-9.387227058E0,3.061992526E-1
2.785183579E1,-2.884876966E0,-9.372063637E0,1.108663678E-1
2.787210683E1,-2.802131891E0,-9.396239281E0,-1.706968397E-1
2.789237782E1,-2.610558510E0,-9.443419456E0,-4.209465683E-1
2.791264892E1,-2.355985641E0,-9.497911453E0,-6.398497224E-1
2.793291990E1,-2.098475695E0,-9.541651726E0,-8.506972790E-1
2.795319100E1,-1.849433661E0,-9.571043968E0,-1.070090413E0
2.797346209E1,-1.594771862E0,-9.589459419E0,-1.292038441E0
2.799373313E1,-1.337894201E0,-9.600545883E0,-1.486591816E0
2.801413313E1,-1.087902188E0,-9.608849525E0,-1.629989386E0
2.803427522E1,-8.537864089E-1,-9.618597031E0,-1.709984064E0
2.805458563E1,-6.234605312E-1,-9.629510880E0,-1.747630596E0
2.807481740E1,-3.953143060E-1,-9.636766434E0,-1.773935556E0
2.809508845E1,-1.632536650E-1,-9.633970261E0,-1.824926138E0
2.811535949E1,6.532729417E-2,-9.616899490E0,-1.918686748E0
2.813563053E1,2.619328201E-1,-9.588119507E0,-2.041993380E0
2.815590157E1,4.090676308E-1,-9.556357384E0,-2.163117409E0
2.817617267E1,4.956565797E-1,-9.530777931E0,-2.255879879E0
2.819644371E1,5.083542466E-1,-9.517930031E0,-2.306721687E0
2.821671475E1,4.952566922E-1,-9.521636963E0,-2.294243336E0
2.823698579E1,4.888150096E-1,-9.537240028E0,-2.229908943E0
2.825725683E1,4.836352766E-1,-9.550030708E0,-2.175638676E0
2.827752782E1,4.804949462E-1,-9.557268143E0,-2.144324541E0
2.829779892E1,4.395518899E-1,-9.573484421E0,-2.079801798E0
2.831806996E1,3.152023554E-1,-9.624109268E0,-1.856763005E0
2.833834100E1,1.978614135E-3,-9.731459618E0,-1.212052703E0
2.835861204E1,-4.894263148E-1,-9.774736404E0,-6.207764745E-1
2.837888308E1,-1.101531386E0,-9.741962433E0,-2.262694389E-1
2.839928308E1,-1.809661746E0,-9.638218880E0,1.543575618E-2
2.841942522E1,-2.459428549E0,-9.492330551E0,1.313325912E-1
2.843969626E1,-2.958784103E0,-9.348358154E0,1.554963440E-1
2.845996730E1,-3.371979237E0,-9.207835197E0,1.260887384E-1
2.848023834E1,-3.759552717E0,-9.055163383E0,2.004239708E-1
2.850063834E1,-4.075517178E0,-8.907678604E0,4.623872042E-1
2.852078048E1,-4.280873775E0,-8.790137291E0,7.602596879E-1
2.854105152E1,-4.386576653E0,-8.704382896E0,1.077979207E0
2.856132256E1,-4.408548355E0,-8.653023720E0,1.363915801E0
2.858159360E1,-4.381515026E0,-8.631195068E0,1.573273778E0
2.860199360E1,-4.338856697E0,-8.633432388E0,1.675877094E0
2.862213574E1,-4.282983303E0,-8.662343979E0,1.670395374E0
2.864240673E1,-4.180827141E0,-8.725371361E0,1.599677682E0
2.866267782E1,-3.984073400E0,-8.836411476E0,1.488417983E0
2.868294892E1,-3.675243139E0,-8.995580673E0,1.320034146E0
2.870334892E1,-3.250413656E0,-9.193092346E0,1.045112967E0
2.872349095E1,-2.734162807E0,-9.394914627E0,6.559944153E-1
2.874376204E1,-2.263154030E0,-9.529516220E0,4.866710603E-1
2.876403313E1,-2.051490784E0,-9.571250916E0,5.940802097E-1
2.878430418E1,-2.044000149E0,-9.574293137E0,5.703883767E-1
2.880457522E1,-2.060467958E0,-9.574661255E0,5.007112622E-1
2.882497522E1,-2.050231457E0,-9.572651863E0,5.755463243E-1
2.884511735E1,-2.145186424E0,-9.543456078E0,7.007198930E-1
2.886538839E1,-2.414860487E0,-9.480871201E0,6.722443104E-1
2.888565949E1,-2.738561630E0,-9.404399872E0,4.774469733E-1
2.890593053E1,-3.032897949E0,-9.322474480E0,2.517646253E-1
2.892620157E1,-3.237204313E0,-9.256162643E0,1.198404133E-1
2.894647266E1,-3.280099392E0,-9.241236687E0,1.042391285E-1
2.896674371E1,-3.151238918E0,-9.286479950E0,3.696832061E-2
2.898701480E1,-2.923003912E0,-9.360113144E0,-1.212668866E-1
2.900728584E1,-2.618587255E0,-9.445142746E0,-3.204199970E-1
2.902755694E1,-2.272499084E0,-9.524681091E0,-5.353344679E-1
2.904782798E1,-1.938268304E0,-9.582734108E0,-7.646710277E-1
2.906809907E1,-1.635034323E0,-9.614183426E0,-1.031763315E0
2.908837016E1,-1.321851015E0,-9.621188164E0,-1.362290740E0
2.910864121E1,-9.941522479E-1,-9.612978935E0,-1.665136933E0
2.912891230E1,-6.924318671E-1,-9.619950294E0,-1.774111867E0
2.914918339E1,-4.008205533E-1,-9.640970230E0,-1.749692202E0
2.916945444E1,-1.077589393E-1,-9.652938843E0,-1.726137757E0
2.918972553E1,1.802516133E-1,-9.644148827E0,-1.768698215E0
2.920999662E1,4.650707543E-1,-9.612518311E0,-1.885095716E0
2.923026767E1,7.104842067E-1,-9.564621925E0,-2.045387745E0
2.925053876E1,8.499711156E-1,-9.518175125E0,-2.202786922E0
2.927080985E1,8.646945953E-1,-9.490498543E0,-2.313680172E0
2.929108095E1,8.369401693E-1,-9.490559578E0,-2.323616505E0
2.931135204E1,8.371723294E-1,-9.515832901E0,-2.217761040E0
2.933162313E1,8.349050283E-1,-9.545598030E0,-2.086836100E0
2.935189423E1,8.160699606E-1,-9.574189186E0,-1.959423184E0
2.937216532E1,7.349699140E-1,-9.619506836E0,-1.759346008E0
2.939243642E1,4.624327719E-1,-9.716826439E0,-1.240896344E0
2.941270751E1,-7.836633921E-2,-9.786666870E0,-6.207977533E-1
2.943297860E1,-7.904809117E-1,-9.772442818E0,-2.118692994E-1
2.945324970E1,-1.586903453E0,-9.677399635E0,7.579733152E-3
2.947352079E1,-2.351557732E0,-9.520219803E0,7.739462703E-2
2.949379188E1,-3.009149313E0,-9.333470345E0,4.151370749E-2
2.951406303E1,-3.540656567E0,-9.144924164E0,6.709692627E-2
2.953433412E1,-3.941210508E0,-8.971524239E0,3.860188127E-1
2.955460522E1,-4.250528336E0,-8.811102867E0,6.840016246E-1
2.957487631E1,-4.456339359E0,-8.684404373E0,9.447477460E-1
2.959514746E1,-4.555571556E0,-8.593703270E0,1.251174569E0
2.961541855E1,-4.540558338E0,-8.533075333E0,1.655398607E0
2.963568970E1,-4.449460983E0,-8.498054504E0,2.038566589E0
2.965596079E1,-4.341992855E0,-8.496412277E0,2.264612913E0
2.967623188E1,-4.243165016E0,-8.536623955E0,2.300431728E0
2.969650303E1,-4.122862816E0,-8.623586655E0,2.192288160E0
2.971677412E1,-3.916866064E0,-8.773006439E0,1.965426087E0
2.973704527E1,-3.583306789E0,-8.984550476E0,1.614980698E0
2.975731642E1,-3.226828098E0,-9.180152893E0,1.217693925E0
2.977758751E1,-2.979012012E0,-9.280920982E0,1.077207685E0
2.979785865E1,-2.727651358E0,-9.341433525E0,1.211574554E0
2.981812980E1,-2.487573624E0,-9.393989563E0,1.317312956E0
2.983840095E1,-2.443838358E0,-9.403408051E0,1.331902623E0
2.985867209E1,-2.444721699E0,-9.401401520E0,1.344385386E0
2.987894324E1,-2.510376453E0,-9.380934715E0,1.366182208E0
2.989934324E1,-2.794620275E0,-9.322884560E0,1.201795220E0
2.991948553E1,-3.117511988E0,-9.255542755E0,8.868169785E-1
2.993975668E1,-3.317926168E0,-9.206092834E0,6.400126219E-1
2.996002782E1,-3.349852324E0,-9.198665619E0,5.774281025E-1
2.998029897E1,-3.241559267E0,-9.234555244E0,6.210217476E-1
3.000069897E1,-3.039451361E0,-9.303589821E0,6.126522422E-1
3.002084131E1,-2.786856174E0,-9.390464783E0,4.722174406E-1
3.004111246E1,-2.502220631E0,-9.479636192E0,2.139243037E-1
3.006138360E1,-2.211438417E0,-9.553467751E0,-1.057477146E-1
3.008165475E1,-1.935748100E0,-9.603525162E0,-4.422511756E-1
3.010205475E1,-1.677198172E0,-9.629441261E0,-7.945174575E-1
3.012219714E1,-1.395759225E0,-9.632153511E0,-1.201613545E0
3.014246834E1,-1.096931934E0,-9.634130478E0,-1.466513276E0
3.016273949E1,-8.248600960E-1,-9.655314445E0,-1.504952192E0
3.018301069E1,-5.456063151E-1,-9.681576729E0,-1.462797046E0
3.020328188E1,-2.591494322E-1,-9.696559906E0,-1.442207336E0
3.022355308E1,2.955231257E-2,-9.690217972E0,-1.506384492E0
3.024382428E1,3.056685925E-1,-9.662948608E0,-1.644501686E0
3.026409548E1,5.259599090E-1,-9.623207092E0,-1.813185096E0
3.028436668E1,6.603921056E-1,-9.581716537E0,-1.981153369E0
3.030476668E1,7.240203023E-1,-9.547036171E0,-2.121384621E0
3.032490907E1,7.740140557E-1,-9.526443481E0,-2.195033550E0
3.034518032E1,8.449503183E-1,-9.536487579E0,-2.124114513E0
3.036545152E1,8.846753240E-1,-9.565476418E0,-1.972150326E0
3.038572272E1,8.902717233E-1,-9.599075317E0,-1.798769593E0
3.040599397E1,7.755142450E-1,-9.648525238E0,-1.573191643E0
3.042626516E1,4.090096951E-1,-9.741583824E0,-1.051013470E0
3.044653642E1,-1.813786030E-1,-9.790895462E0,-5.252105594E-1
3.046680761E1,-9.189819694E-1,-9.761775017E0,-1.833271831E-1
3.048707886E1,-1.721263885E0,-9.654270172E0,5.201081187E-2
3.050735011E1,-2.465984821E0,-9.489937782E0,1.743046641E-1
3.052762136E1,-3.082825422E0,-9.308226585E0,1.532852352E-1
3.054789256E1,-3.542143822E0,-9.139681816E0,2.996945381E-1
3.056816386E1,-3.911592245E0,-8.975205421E0,5.617161393E-1
3.058843506E1,-4.210503101E0,-8.821797371E0,7.860968709E-1
3.060870631E1,-4.419714451E0,-8.693019867E0,1.033405066E0
3.062897756E1,-4.521657944E0,-8.591353416E0,1.383340240E0
3.064924881E1,-4.539001942E0,-8.509833336E0,1.774987221E0
3.066952006E1,-4.503375053E0,-8.458402634E0,2.084565401E0
3.068979136E1,-4.441782475E0,-8.451732635E0,2.238118172E0
3.071006261E1,-4.355678082E0,-8.491824150E0,2.255524874E0
3.073033386E1,-4.195607185E0,-8.588663101E0,2.191377640E0
3.075060517E1,-3.912174463E0,-8.753893852E0,2.057820320E0
3.077087642E1,-3.510554314E0,-8.974554062E0,1.817625999E0
3.079114772E1,-3.113485336E0,-9.178995132E0,1.490853667E0
3.081141897E1,-2.839148283E0,-9.290757179E0,1.338454604E0
3.083169027E1,-2.598796129E0,-9.343320847E0,1.455679774E0
3.085196152E1,-2.417345762E0,-9.373734474E0,1.568414450E0
3.087223282E1,-2.397495747E0,-9.385847092E0,1.525866151E0
3.089250412E1,-2.391018867E0,-9.386884689E0,1.529645562E0
3.091277543E1,-2.563996315E0,-9.327927589E0,1.608127117E0
3.093304673E1,-2.894352913E0,-9.242224693E0,1.540907502E0
3.095331803E1,-3.187410355E0,-9.180384636E0,1.315811515E0
3.097358933E1,-3.325010538E0,-9.162334442E0,1.079967976E0
3.099386063E1,-3.241596699E0,-9.201505661E0,9.973620176E-1
3.101413194E1,-3.054107189E0,-9.268388748E0,9.694247246E-1
3.103440324E1,-2.836401939E0,-9.347339630E0,8.674420118E-1
3.105467454E1,-2.582062006E0,-9.437852859E0,6.559592485E-1
3.107494584E1,-2.292589426E0,-9.528316498E0,3.543894589E-1
3.109534584E1,-2.003263474E0,-9.599839211E0,-2.051663212E-2
3.111548850E1,-1.727201343E0,-9.642819405E0,-4.507704377E-1
3.113575985E1,-1.441068292E0,-9.660888672E0,-8.723261952E-1
3.115603115E1,-1.198608518E0,-9.675574303E0,-1.056880236E0
3.117630251E1,-9.686431289E-1,-9.697652817E0,-1.089796901E0
3.119657381E1,-7.041614652E-1,-9.717550278E0,-1.115238190E0
3.121684517E1,-4.274740517E-1,-9.729702950E0,-1.149149179E0
3.123711647E1,-1.630141437E-1,-9.731165886E0,-1.203425884E0
3.125738782E1,1.007439867E-1,-9.719392776E0,-1.301399708E0
3.127765918E1,3.717422783E-1,-9.690377235E0,-1.459035516E0
3.129793053E1,6.086874604E-1,-9.644515038E0,-1.668295145E0
3.131820188E1,7.696459293E-1,-9.595563889E0,-1.871680260E0
3.133847324E1,8.441877961E-1,-9.558150291E0,-2.024717808E0
3.135874459E1,9.152880907E-1,-9.548107147E0,-2.041151762E0
3.137901595E1,9.755377769E-1,-9.569650650E0,-1.908011556E0
3.139941595E1,1.016330719E0,-9.606261253E0,-1.690324068E0
3.141955865E1,9.687235355E-1,-9.662584305E0,-1.366170883E0
3.143983001E1,6.467541456E-1,-9.753000259E0,-7.944079638E-1
3.146010142E1,1.358655393E-1,-9.802654266E0,-2.447246760E-1
3.148037277E1,-4.990668893E-1,-9.793364525E0,1.064102650E-1
3.150077277E1,-1.259880424E0,-9.719917297E0,3.260391355E-1
3.152091553E1,-2.024295092E0,-9.583262444E0,4.834482372E-1
3.154118688E1,-2.730959177E0,-9.402927399E0,5.451552868E-1
3.156145829E1,-3.339646101E0,-9.206114769E0,5.143983960E-1
3.158172964E1,-3.821271420E0,-9.016612053E0,5.186338425E-1
3.160212964E1,-4.194637775E0,-8.841026306E0,6.416055560E-1
3.162227240E1,-4.444955826E0,-8.704131126E0,8.067581058E-1
3.164254381E1,-4.576724052E0,-8.606699944E0,1.071773291E0
3.166281522E1,-4.607268810E0,-8.534607887E0,1.450488091E0
3.168308662E1,-4.580194950E0,-8.476341248E0,1.828611493E0
3.170348662E1,-4.518721581E0,-8.449260712E0,2.088425159E0
3.172362938E1,-4.424610615E0,-8.477250099E0,2.174725056E0
3.174390079E1,-4.279552460E0,-8.562717438E0,2.129717350E0
3.176417220E1,-4.044446468E0,-8.707277298E0,1.999042511E0
3.178444360E1,-3.690556288E0,-8.909006119E0,1.783196330E0
3.180471501E1,-3.293128967E0,-9.118270874E0,1.477438927E0
3.182511501E1,-2.977102041E0,-9.252931595E0,1.300195932E0
3.184525777E1,-2.743709087E0,-9.312216759E0,1.387467623E0
3.186552918E1,-2.557738066E0,-9.351540565E0,1.475478888E0
3.188580063E1,-2.540060043E0,-9.360759735E0,1.447289467E0
3.190620063E1,-2.540287495E0,-9.368156433E0,1.398202777E0
3.192634339E1,-2.595809221E0,-9.352612495E0,1.400284171E0
3.194661485E1,-2.879488230E0,-9.285138130E0,1.290407896E0
3.196688626E1,-3.188447952E0,-9.217267036E0,1.022821426E0
3.198715766E1,-3.273791313E0,-9.201471329E0,8.863470554E-1
3.200742907E1,-3.184059381E0,-9.228613853E0,9.299643040E-1
3.202770048E1,-2.988599539E0,-9.277325630E0,1.081609726E0
3.204797188E1,-2.746040106E0,-9.346424103E0,1.128718853E0
3.206824334E1,-2.455065489E0,-9.439108849E0,1.022868991E0
3.208851475E1,-2.110965252E0,-9.542407036E0,8.103554249E-1
3.210878615E1,-1.747448683E0,-9.635380745E0,5.255932808E-1
3.212905761E1,-1.415747046E0,-9.702364922E0,1.737268120E-1
3.214932897E1,-1.139689922E0,-9.736534119E0,-2.671976089E-1
3.216960048E1,-8.997850418E-1,-9.736300468E0,-7.518092990E-1
3.218987188E1,-6.775230765E-1,-9.723343849E0,-1.080716848E0
3.221014334E1,-4.660737813E-1,-9.730291367E0,-1.128979683E0
3.223041475E1,-2.544588447E-1,-9.739840508E0,-1.114066958E0
3.225068621E1,-3.650930151E-2,-9.739688873E0,-1.143462300E0
3.227095767E1,1.538973898E-1,-9.733253479E0,-1.187643766E0
3.229122907E1,3.256254792E-1,-9.718638420E0,-1.269812465E0
3.231150053E1,4.882177711E-1,-9.692568779E0,-1.409305573E0
3.233177199E1,6.059523225E-1,-9.662969589E0,-1.558922648E0
3.235204339E1,6.538190842E-1,-9.643416405E0,-1.657541633E0
3.237231485E1,6.605355144E-1,-9.639945030E0,-1.674973845E0
3.239258631E1,6.971884370E-1,-9.652160645E0,-1.587483406E0
3.241285777E1,7.518523932E-1,-9.670440674E0,-1.444882751E0
3.243312923E1,7.749621868E-1,-9.687534332E0,-1.312059879E0
3.245340069E1,7.447032332E-1,-9.709113121E0,-1.161427379E0
3.247367209E1,6.206952929E-1,-9.742516518E0,-9.319356680E-1
3.249394355E1,2.851471901E-1,-9.793352127E0,-4.234885573E-1
3.251421501E1,-3.081336617E-1,-9.801341057E0,9.576290846E-2
3.253448647E1,-1.026972055E0,-9.744380951E0,4.034337103E-1
3.255488647E1,-1.766950965E0,-9.633472443E0,4.944384396E-1
3.257502933E1,-2.376446486E0,-9.503293991E0,4.585647285E-1
3.259530084E1,-2.832504988E0,-9.380346298E0,3.954661191E-1
3.261557230E1,-3.226386547E0,-9.253813744E0,3.574086726E-1
3.263584381E1,-3.586250067E0,-9.112621307E0,5.189667344E-1
3.265611527E1,-3.898344278E0,-8.969376564E0,7.235929966E-1
3.267638673E1,-4.156595230E0,-8.837069511E0,8.940379024E-1
3.269665819E1,-4.353805065E0,-8.722590446E0,1.063568473E0
3.271692964E1,-4.482158661E0,-8.633677483E0,1.241069317E0
3.273720110E1,-4.528000355E0,-8.587502480E0,1.386505008E0
3.275747261E1,-4.506170750E0,-8.589225769E0,1.445692539E0
3.277774407E1,-4.443378925E0,-8.623714447E0,1.434680700E0
3.279801553E1,-4.319123268E0,-8.694254875E0,1.387624860E0
3.281828704E1,-4.086717606E0,-8.817949295E0,1.308778286E0
3.283855850E1,-3.724798203E0,-8.993126869E0,1.191608429E0
3.285882990E1,-3.248916864E0,-9.199802399E0,9.892243743E-1
3.287910147E1,-2.701735735E0,-9.399286270E0,7.241542935E-1
3.289950147E1,-2.283478022E0,-9.508472443E0,7.382836938E-1
3.291964438E1,-2.150705814E0,-9.539907455E0,7.314466834E-1
3.293991589E1,-2.143399000E0,-9.547937393E0,6.427351832E-1
3.296018735E1,-2.098929167E0,-9.562747002E0,5.645931363E-1
3.298045886E1,-2.002737761E0,-9.578382492E0,6.434332728E-1
3.300085886E1,-2.052770853E0,-9.564458847E0,6.911221147E-1
3.302100183E1,-2.357118368E0,-9.507915497E0,4.625217319E-1
3.304127329E1,-2.671216726E0,-9.434706688E0,1.459428519E-1
3.306154475E1,-2.867624044E0,-9.377975464E0,2.640802413E-2
3.308181626E1,-2.986331940E0,-9.339783669E0,1.436688453E-1
3.310221626E1,-2.952568293E0,-9.346610069E0,3.059439659E-1
3.312235923E1,-2.789867640E0,-9.396041870E0,3.184787333E-1
3.314263068E1,-2.582699537E0,-9.458318710E0,2.005900890E-1
3.316290220E1,-2.317995548E0,-9.528736115E0,2.156158909E-2
3.318317371E1,-2.004858255E0,-9.597684860E0,-1.881059855E-1
3.320344517E1,-1.712184787E0,-9.646816254E0,-4.216093123E-1
3.322371668E1,-1.479794025E0,-9.670743942E0,-6.762483120E-1
3.324398813E1,-1.270740747E0,-9.674093246E0,-9.836263657E-1
3.326425964E1,-1.024031758E0,-9.654476166E0,-1.383046389E0
3.328453115E1,-7.583037019E-1,-9.630450249E0,-1.688131213E0
3.330480261E1,-5.213100910E-1,-9.638973236E0,-1.728817582E0
3.332507412E1,-2.930732369E-1,-9.659496307E0,-1.666921377E0
3.334534563E1,-5.002557114E-2,-9.667222977E0,-1.647025466E0
3.336561709E1,1.812491268E-1,-9.663195610E0,-1.661381841E0
3.338588860E1,3.886986077E-1,-9.650648117E0,-1.698320985E0
3.340616011E1,5.624134541E-1,-9.630270004E0,-1.764077544E0
3.342643162E1,6.774564981E-1,-9.607160568E0,-1.847675920E0
3.344670303E1,7.367945313E-1,-9.590756416E0,-1.909166574E0
3.346697459E1,8.063932061E-1,-9.589670181E0,-1.886356711E0
3.348724605E1,8.773154616E-1,-9.602733612E0,-1.785554409E0
3.350751756E1,8.931698799E-1,-9.625156403E0,-1.651964784E0
3.352778907E1,8.264155984E-1,-9.656961441E0,-1.493492842E0
3.354806053E1,6.892415285E-1,-9.697178841E0,-1.288427591E0
3.356833204E1,3.883315325E-1,-9.764499664E0,-8.210622072E-1
3.358860355E1,-2.138304561E-1,-9.801170349E0,-2.484755516E-1
3.360887501E1,-1.020558000E0,-9.752988815E0,8.985841274E-2
3.362914652E1,-1.862706661E0,-9.627074242E0,1.419595033E-1
3.364941803E1,-2.539214134E0,-9.471832275E0,8.465269208E-2
3.366968954E1,-3.008738279E0,-9.332454681E0,1.522521079E-1
3.368996100E1,-3.365688086E0,-9.200927734E0,4.306406677E-1
3.371023251E1,-3.720879555E0,-9.051590919E0,6.278090477E-1
3.373050402E1,-4.034289360E0,-8.906851768E0,7.502574921E-1
3.375077553E1,-4.262268066E0,-8.788836479E0,8.716719747E-1
3.377104704E1,-4.390619755E0,-8.705072403E0,1.055728555E0
3.379131850E1,-4.438471317E0,-8.652431488E0,1.267201543E0
3.381159001E1,-4.427250385E0,-8.635900497E0,1.411051869E0
3.383186152E1,-4.375971317E0,-8.658657074E0,1.431403637E0
3.385213303E1,-4.272426128E0,-8.721297264E0,1.362251043E0
3.387240454E1,-4.088296413E0,-8.822607040E0,1.271939516E0
3.389267600E1,-3.781745195E0,-8.973338127E0,1.161029696E0
3.391294751E1,-3.350647688E0,-9.162442207E0,9.965819716E-1
3.393321902E1,-2.850494862E0,-9.355150223E0,7.254191041E-1
3.395349053E1,-2.372987747E0,-9.502883911E0,4.842865765E-1
3.397376199E1,-2.163077593E0,-9.545948982E0,6.052502990E-1
3.399403350E1,-2.133757591E0,-9.545578003E0,7.066900730E-1
3.401430501E1,-2.191753864E0,-9.533547401E0,6.914306879E-1
3.403457652E1,-2.217647552E0,-9.527931213E0,6.862675548E-1
3.405484803E1,-2.194944859E0,-9.524009705E0,8.036457300E-1
3.407511954E1,-2.326066017E0,-9.488872528E0,8.491848111E-1
3.409539100E1,-2.603843212E0,-9.430744171E0,6.719030738E-1
3.411566251E1,-2.877233267E0,-9.364148140E0,4.523952603E-1
3.413593402E1,-3.098681450E0,-9.300179482E0,2.742578983E-1
3.415620548E1,-3.189353466E0,-9.271784782E0,1.800439507E-1
3.417647699E1,-3.115705490E0,-9.297817230E0,1.155338064E-1
3.419674850E1,-2.937982082E0,-9.356206894E0,6.232630927E-3
3.421702001E1,-2.712832689E0,-9.422678947E0,-1.550974101E-1
3.423729147E1,-2.420692682E0,-9.496699333E0,-3.512068093E-1
3.425756298E1,-2.088319063E0,-9.564251900E0,-5.782554150E-1
3.427783449E1,-1.755328655E0,-9.611338615E0,-8.434256315E-1
3.429810600E1,-1.435656786E0,-9.637474060E0,-1.108318210E0
3.431837751E1,-1.134783506E0,-9.651690483E0,-1.314354658E0
3.433864897E1,-8.381401896E-1,-9.666652679E0,-1.422579050E0
3.435892048E1,-5.299380422E-1,-9.682711601E0,-1.461040258E0
3.437919199E1,-2.215149701E-1,-9.692228317E0,-1.477169991E0
3.439959199E1,7.161099464E-2,-9.690597534E0,-1.502524972E0
3.441973501E1,3.598823249E-1,-9.672345161E0,-1.576893210E0
3.444000647E1,6.571962833E-1,-9.632786751E0,-1.716944933E0
3.446027798E1,9.157405496E-1,-9.581958771E0,-1.875598669E0
3.448054949E1,1.064038873E0,-9.537890434E0,-2.016647577E0
3.450094949E1,1.074090362E0,-9.515997887E0,-2.112465382E0
3.452109246E1,1.035730124E0,-9.521687508E0,-2.105971575E0
3.454136397E1,1.009879470E0,-9.549375534E0,-1.989962935E0
3.456163548E1,9.971277118E-1,-9.580380440E0,-1.841856599E0
3.458190699E1,9.689218402E-1,-9.607143402E0,-1.712999582E0
3.460230699E1,8.397360444E-1,-9.644058228E0,-1.567603350E0
3.462244996E1,5.943108201E-1,-9.694757462E0,-1.352344871E0
3.464272147E1,1.908440739E-1,-9.761684418E0,-9.184092283E-1
3.466299298E1,-4.480126202E-1,-9.788711548E0,-3.883256316E-1
3.468326444E1,-1.277280688E0,-9.723093987E0,1.963383146E-2
3.470366444E1,-2.125768661E0,-9.572083473E0,1.634294242E-1
3.472380746E1,-2.799863815E0,-9.398402214E0,3.438446298E-2
3.474407892E1,-3.254682541E0,-9.249605179E0,1.491480619E-1
3.476435042E1,-3.580702782E0,-9.113875389E0,5.350111127E-1
3.478462194E1,-3.873155832E0,-8.971575737E0,8.245438933E-1
3.480485407E1,-4.118479252E0,-8.839092255E0,1.038724184E0
3.482525407E1,-4.292499542E0,-8.725929260E0,1.266098499E0
3.484543647E1,-4.382230282E0,-8.637563705E0,1.535878778E0
3.486570792E1,-4.420837879E0,-8.570729256E0,1.780223489E0
3.488597944E1,-4.443117142E0,-8.533523560E0,1.899494171E0
3.490625089E1,-4.448658943E0,-8.539009094E0,1.861491203E0
3.492652240E1,-4.396070480E0,-8.595737457E0,1.719957948E0
3.494679386E1,-4.239517212E0,-8.703402519E0,1.564501166E0
3.496706537E1,-3.956576109E0,-8.865247726E0,1.386822104E0
3.498733683E1,-3.556047916E0,-9.069134712E0,1.129476428E0
3.500760829E1,-3.073026419E0,-9.281805992E0,7.582631707E-1
3.502787980E1,-2.560630083E0,-9.453809738E0,4.889101684E-1
3.504815126E1,-2.236797571E0,-9.525225639E0,6.612105370E-1
3.506842277E1,-2.106225491E0,-9.547716141E0,7.584965825E-1
3.508869423E1,-2.108613014E0,-9.547254562E0,7.576649189E-1
3.510896574E1,-2.113300085E0,-9.542676926E0,8.010447025E-1
3.512923720E1,-2.119840145E0,-9.526448250E0,9.609545469E-1
3.514950871E1,-2.280304432E0,-9.483015060E0,1.021279335E0
3.516978016E1,-2.600407124E0,-9.422513962E0,7.902622223E-1
3.519005168E1,-2.927819967E0,-9.348943710E0,4.421681762E-1
3.521032313E1,-3.163317919E0,-9.279580116E0,2.306546718E-1
3.523059464E1,-3.209072113E0,-9.265052795E0,1.762018204E-1
3.525086610E1,-3.069189072E0,-9.313169479E0,1.237684265E-1
3.527113761E1,-2.832956076E0,-9.388452530E0,4.115416855E-2
3.529140907E1,-2.570205450E0,-9.463601112E0,-6.844050437E-2
3.531168053E1,-2.284959555E0,-9.533762932E0,-2.381679565E-1
3.533195204E1,-2.014626265E0,-9.586466789E0,-4.596952796E-1
3.535222350E1,-1.775896549E0,-9.615826607E0,-7.432783246E-1
3.537249501E1,-1.521012664E0,-9.625349998E0,-1.099786520E0
3.539276647E1,-1.244182110E0,-9.624073029E0,-1.414081097E0
3.541303798E1,-9.790102839E-1,-9.633123398E0,-1.553981781E0
3.543330944E1,-7.034232020E-1,-9.657169342E0,-1.553917408E0
3.545358089E1,-3.969230950E-1,-9.682031631E0,-1.507017732E0
3.547385240E1,-9.122110158E-2,-9.696649551E0,-1.461866736E0
3.549412386E1,2.099981755E-1,-9.691225052E0,-1.485405684E0
3.551439532E1,5.079220533E-1,-9.661095619E0,-1.604878426E0
3.553466683E1,7.714169621E-1,-9.612909317E0,-1.779680729E0
3.555493829E1,9.498901367E-1,-9.561357498E0,-1.961772799E0
3.557520980E1,9.984091520E-1,-9.529788971E0,-2.087265015E0
3.559560980E1,9.780564308E-1,-9.529440880E0,-2.098466158E0
3.561575272E1,9.815879464E-1,-9.546732903E0,-2.016626120E0
3.563602418E1,9.836256504E-1,-9.570591927E0,-1.899111271E0
3.565629568E1,9.545000792E-1,-9.599120140E0,-1.765280366E0
3.567656714E1,8.350992799E-1,-9.642367363E0,-1.580423474E0
3.569683860E1,5.592143536E-1,-9.719137192E0,-1.181542635E0
3.571711011E1,4.929108918E-2,-9.792740822E0,-5.198034048E-1
3.573738157E1,-6.806142330E-1,-9.782778740E0,-6.640741974E-2
3.575765303E1,-1.520343900E0,-9.686981201E0,1.460154504E-1
3.577792449E1,-2.275881052E0,-9.536087036E0,2.319495231E-1
3.579819595E1,-2.859275341E0,-9.377610207E0,2.352721244E-1
3.581859595E1,-3.329357862E0,-9.221045494E0,2.410119325E-1
3.583873892E1,-3.716335058E0,-9.063362122E0,4.633605778E-1
3.585901037E1,-4.039851665E0,-8.908793449E0,6.952622533E-1
3.587928188E1,-4.278454304E0,-8.779542923E0,8.859102130E-1
3.589968188E1,-4.429998398E0,-8.680172920E0,1.095490932E0
3.591982480E1,-4.506465435E0,-8.603049278E0,1.360038400E0
3.594009626E1,-4.527893066E0,-8.544501305E0,1.630973101E0
3.596036772E1,-4.499681473E0,-8.521030426E0,1.820796371E0
3.598063923E1,-4.436326504E0,-8.541113853E0,1.881159782E0
3.600103923E1,-4.334306240E0,-8.605108261E0,1.826550722E0
3.602118214E1,-4.148789883E0,-8.722729683E0,1.694671869E0
3.604145360E1,-3.837740660E0,-8.900429726E0,1.491472483E0
3.606172506E1,-3.389722586E0,-9.125612259E0,1.184635878E0
3.608199652E1,-2.874879360E0,-9.341060638E0,8.062577844E-1
3.610239652E1,-2.471783400E0,-9.455625534E0,8.073521256E-1
3.612253944E1,-2.262141466E0,-9.496970177E0,9.277262092E-1
3.614281089E1,-2.169917822E0,-9.523749352E0,8.717972636E-1
3.616308235E1,-2.095840693E0,-9.548840523E0,7.729718685E-1
3.618335381E1,-2.004654884E0,-9.565921783E0,8.030408621E-1
3.620362532E1,-2.047335863E0,-9.551627159E0,8.632677794E-1
3.622389673E1,-2.353931904E0,-9.497978210E0,6.463817358E-1
3.624416824E1,-2.697576523E0,-9.423646927E0,2.972187400E-1
3.626443970E1,-2.968615055E0,-9.346424103E0,4.524948448E-2
3.628471110E1,-3.150635242E0,-9.286758423E0,-2.894766629E-3
3.630498256E1,-3.192033291E0,-9.272217751E0,8.533603698E-2
3.632525402E1,-3.073674917E0,-9.311510086E0,1.367557347E-1
3.634552548E1,-2.883490801E0,-9.372626305E0,9.874649346E-2
3.636579694E1,-2.637184381E0,-9.445373535E0,-2.382260747E-2
3.638606839E1,-2.346932173E0,-9.519357681E0,-2.100132853E-1
3.640633985E1,-2.047444820E0,-9.580559731E0,-4.372968078E-1
3.642661131E1,-1.759504676E0,-9.624511719E0,-6.658134460E-1
3.644688277E1,-1.457501054E0,-9.656299591E0,-8.955160379E-1
3.646715423E1,-1.121818900E0,-9.673134804E0,-1.158611774E0
3.648742569E1,-7.815088630E-1,-9.676918983E0,-1.384513617E0
3.650769714E1,-4.628045857E-1,-9.683215141E0,-1.480389476E0
3.652796860E1,-1.805707067E-1,-9.691940308E0,-1.484619260E0
3.654824006E1,7.725962996E-2,-9.692457199E0,-1.490201473E0
3.656851152E1,3.186489940E-1,-9.680272102E0,-1.536609769E0
3.658878293E1,5.373357534E-1,-9.655414581E0,-1.629304767E0
3.660905438E1,6.918715835E-1,-9.623512268E0,-1.754908323E0
3.662932584E1,7.459783554E-1,-9.596781731E0,-1.875013232E0
3.664959730E1,7.237321734E-1,-9.591879845E0,-1.908516765E0
3.666986876E1,6.871447563E-1,-9.612667084E0,-1.815166354E0
3.669014022E1,6.664883494E-1,-9.644027710E0,-1.648911595E0
3.671041168E1,6.398937702E-1,-9.669121742E0,-1.506321669E0
3.673068308E1,5.816065669E-1,-9.688376427E0,-1.402665257E0
3.675095454E1,4.366820455E-1,-9.709297180E0,-1.307378888E0
3.677122600E1,2.347925901E-1,-9.736194611E0,-1.149678469E0
3.679149746E1,-7.988995314E-2,-9.781142235E0,-7.023329735E-1
3.681176892E1,-6.640019417E-1,-9.783164024E0,-1.385459304E-1
3.683204032E1,-1.459412932E0,-9.694543839E0,2.372870147E-1
3.685231178E1,-2.215601921E0,-9.546279907E0,3.606050909E-1
3.687258324E1,-2.710851669E0,-9.417732239E0,3.577384949E-1
3.689285464E1,-3.008028746E0,-9.326304436E0,3.770795763E-1
3.691312610E1,-3.301114798E0,-9.222069740E0,4.758745432E-1
3.693339756E1,-3.617111921E0,-9.091713905E0,6.539376378E-1
3.695366902E1,-3.852509975E0,-8.981280327E0,8.155725002E-1
3.697394042E1,-4.016038895E0,-8.894739151E0,9.619957805E-1
3.699421188E1,-4.144096851E0,-8.816241264E0,1.127272248E0
3.701448334E1,-4.241850853E0,-8.747565269E0,1.287318707E0
3.703475475E1,-4.289957523E0,-8.708296776E0,1.390043020E0
3.705498688E1,-4.284403324E0,-8.705573082E0,1.423824787E0
3.707529761E1,-4.234732628E0,-8.732842445E0,1.405310035E0
3.709556907E1,-4.117946148E0,-8.795473099E0,1.361085176E0
3.711584048E1,-3.904877424E0,-8.903632164E0,1.283611894E0
3.713611199E1,-3.580585241E0,-9.055782318E0,1.158710718E0
3.715638339E1,-3.139913559E0,-9.238954544E0,9.762423038E-1
3.717665485E1,-2.634503365E0,-9.416798592E0,7.440970540E-1
3.719692631E1,-2.154943943E0,-9.547554016E0,6.089468002E-1
3.721719772E1,-1.879127741E0,-9.598974228E0,7.063620090E-1
3.723746918E1,-1.861416817E0,-9.597232819E0,7.737152576E-1
3.725774058E1,-1.965953708E0,-9.577139854E0,7.640666962E-1
3.727801204E1,-2.044532776E0,-9.562894821E0,7.357333899E-1
3.729828339E1,-2.092475176E0,-9.545861244E0,8.176122904E-1
3.731855490E1,-2.263888597E0,-9.504617691E0,8.410914540E-1
3.733882636E1,-2.488901615E0,-9.459424019E0,7.036063075E-1
3.735909777E1,-2.677503347E0,-9.414590836E0,6.056795716E-1
3.737936923E1,-2.857275724E0,-9.361900330E0,6.009775400E-1
3.739976923E1,-2.970302820E0,-9.325329781E0,6.212387085E-1
3.741991209E1,-2.972226143E0,-9.327052116E0,5.851184726E-1
3.744018350E1,-2.869760752E0,-9.367191315E0,4.365659356E-1
3.746045496E1,-2.702563763E0,-9.424390793E0,2.176708430E-1
3.748072636E1,-2.460650921E0,-9.492922783E0,-4.069877788E-3
3.750112636E1,-2.164204597E0,-9.561867714E0,-2.393431515E-1
3.752126923E1,-1.853201389E0,-9.616718292E0,-5.047258735E-1
3.754154063E1,-1.539505720E0,-9.654003143E0,-7.749364376E-1
3.756181209E1,-1.253588200E0,-9.674457550E0,-1.001883507E0
3.758208311E1,-9.974358082E-1,-9.689115524E0,-1.138665915E0
3.760248311E1,-7.468579412E-1,-9.706328392E0,-1.183125973E0
3.762262598E1,-4.970807731E-1,-9.724602699E0,-1.164212704E0
3.764289738E1,-2.484404892E-1,-9.738913536E0,-1.123492002E0
3.766316884E1,8.532309905E-3,-9.742610931E0,-1.118860006E0
3.768344025E1,2.828238010E-1,-9.731182098E0,-1.180888772E0
3.770384025E1,5.388751030E-1,-9.709158897E0,-1.269735932E0
3.772398306E1,7.328003049E-1,-9.682917595E0,-1.369129777E0
3.774425452E1,8.334016800E-1,-9.657309532E0,-1.487350106E0
3.776452592E1,8.359783292E-1,-9.645344734E0,-1.561683536E0
3.778479738E1,8.094898462E-1,-9.652915001E0,-1.528515100E0
3.780506879E1,7.893852592E-1,-9.674507141E0,-1.396845937E0
3.782534019E1,8.104078770E-1,-9.695176125E0,-1.231745481E0
3.784561160E1,8.559170365E-1,-9.705557823E0,-1.113535881E0
3.786588306E1,8.932022452E-1,-9.706615448E0,-1.074327588E0
3.788615447E1,8.255907893E-1,-9.711625099E0,-1.083108902E0
3.790642587E1,6.533206105E-1,-9.727877617E0,-1.054497957E0
3.792669728E1,4.057907164E-1,-9.761322021E0,-8.498932123E-1
3.794696874E1,-8.022122830E-2,-9.800312042E0,-3.432683051E-1
3.796724014E1,-8.541592956E-1,-9.768703461E0,1.150847524E-1
3.798751155E1,-1.710539699E0,-9.649065018E0,3.741277456E-1
3.800778296E1,-2.408666849E0,-9.499348640E0,3.620694578E-1
3.802805436E1,-2.858622551E0,-9.378669739E0,1.980101317E-1
3.804832577E1,-3.183511734E0,-9.274994850E0,1.006166413E-1
3.806859723E1,-3.510753632E0,-9.152447701E0,2.787512243E-1
3.808886863E1,-3.823262215E0,-9.014879227E0,5.338611603E-1
3.810914004E1,-4.070878029E0,-8.896013260E0,6.776983142E-1
3.812941144E1,-4.254181385E0,-8.804168701E0,7.476215363E-1
3.814968285E1,-4.372442722E0,-8.742251396E0,7.906851768E-1
3.816995426E1,-4.431405067E0,-8.710330009E0,8.143648505E-1
3.819022572E1,-4.454509735E0,-8.699357986E0,8.055491447E-1
3.821049707E1,-4.463175774E0,-8.697297096E0,7.794018984E-1
3.823076853E1,-4.426121712E0,-8.717063904E0,7.698273063E-1
3.825116853E1,-4.314908028E0,-8.772489548E0,7.716210485E-1
3.827131134E1,-4.119663239E0,-8.866385460E0,7.654736638E-1
3.829158275E1,-3.819699764E0,-9.002131462E0,7.361463308E-1
3.831185415E1,-3.413025141E0,-9.169926643E0,6.588500142E-1
3.833212556E1,-2.902729988E0,-9.353896141E0,4.991557896E-1
3.835239697E1,-2.319438934E0,-9.523792267E0,2.966395617E-1
3.837266837E1,-1.781589270E0,-9.642797470E0,1.131508797E-1
3.839293978E1,-1.429807425E0,-9.701856613E0,4.854695871E-3
3.841321118E1,-1.253567934E0,-9.725893021E0,-7.719594985E-2
3.843348259E1,-1.216848016E0,-9.729580879E0,-1.578521430E-1
3.845375400E1,-1.412724018E0,-9.702953339E0,-1.652621627E-1
3.847402535E1,-1.747557282E0,-9.645914078E0,-2.697887719E-1
3.849429676E1,-2.138437986E0,-9.555034637E0,-5.466213822E-1
3.851456816E1,-2.493629932E0,-9.463203430E0,-6.324362755E-1
3.853483957E1,-2.787784815E0,-9.388536453E0,-5.040140748E-1
3.855511098E1,-2.980149746E0,-9.338306427E0,-2.917898297E-1
3.857538238E1,-3.054146051E0,-9.317883492E0,-1.400476396E-1
3.859565379E1,-3.073025465E0,-9.311433792E0,-1.552960575E-1
3.861592519E1,-3.088232756E0,-9.303023338E0,-2.949234843E-1
3.863619660E1,-3.057688236E0,-9.303796768E0,-5.101882219E-1
3.865646801E1,-2.965245962E0,-9.314612389E0,-7.846776247E-1
3.867673941E1,-2.807673216E0,-9.331296921E0,-1.101926804E0
3.869701082E1,-2.586110830E0,-9.344392776E0,-1.471304178E0
3.871728223E1,-2.366718054E0,-9.353878975E0,-1.753276706E0
3.873755363E1,-2.167467117E0,-9.393767357E0,-1.797106028E0
3.875782504E1,-1.931721210E0,-9.463281631E0,-1.698569179E0
3.877809644E1,-1.665391326E0,-9.534358025E0,-1.578890324E0
3.879836785E1,-1.382235527E0,-9.593208313E0,-1.493375421E0
3.881863926E1,-1.099902987E0,-9.631147385E0,-1.483779073E0
3.883891066E1,-8.393774033E-1,-9.650450706E0,-1.527946234E0
3.885918202E1,-6.066381931E-1,-9.657978058E0,-1.589294553E0
3.887945342E1,-4.146449566E-1,-9.656303406E0,-1.659597754E0
3.889985342E1,-2.826582491E-1,-9.649345398E0,-1.726449132E0
3.891999624E1,-2.116067559E-1,-9.647542953E0,-1.746576309E0
3.894026764E1,-1.732155383E-1,-9.655534744E0,-1.706174612E0
3.896053905E1,-1.550679356E-1,-9.667158127E0,-1.640850782E0
3.898081046E1,-1.424614489E-1,-9.676608086E0,-1.585350990E0
3.900121046E1,-1.363919973E-1,-9.682084084E0,-1.552110553E0
3.902135322E1,-1.660462916E-1,-9.684958458E0,-1.531139731E0
3.904162462E1,-2.986870408E-1,-9.685009956E0,-1.510551929E0
3.906189598E1,-4.920462072E-1,-9.684938431E0,-1.459536314E0
3.908216738E1,-7.160699964E-1,-9.685503006E0,-1.359653592E0
3.910256738E1,-9.980211854E-1,-9.709866524E0,-9.448992610E-1
3.912271019E1,-1.387897372E0,-9.695377350E0,-4.937314987E-1
3.914298160E1,-1.842290401E0,-9.625704765E0,-3.495210707E-1
3.916325296E1,-2.224586964E0,-9.549033165E0,-1.938702315E-1
3.918352436E1,-2.504336596E0,-9.481353760E0,5.116355047E-2
3.920379577E1,-2.749426365E0,-9.410599709E0,2.272549272E-1
3.922406712E1,-2.959150314E0,-9.343965530E0,3.226968944E-1
3.924433853E1,-3.133700132E0,-9.284871101E0,3.761378229E-1
3.926460993E1,-3.260346174E0,-9.239321709E0,4.188922048E-1
3.928488129E1,-3.323868752E0,-9.216062546E0,4.318239987E-1
3.930528129E1,-3.333099127E0,-9.214077950E0,4.019967914E-1
3.932542410E1,-3.301297188E0,-9.228377342E0,3.299915791E-1
3.934569546E1,-3.224143505E0,-9.257528305E0,2.710081041E-1
3.936596686E1,-3.113350153E0,-9.295762062E0,2.573734522E-1
3.938623827E1,-2.974749565E0,-9.340764999E0,2.671805024E-1
3.940650962E1,-2.802371502E0,-9.394269943E0,2.545509636E-1
3.942678103E1,-2.606070757E0,-9.452092171E0,1.916909069E-1
3.944705243E1,-2.376733303E0,-9.513975143E0,7.623818517E-2
3.946732379E1,-2.086132765E0,-9.581969261E0,-6.554519385E-2
3.948759519E1,-1.754570961E0,-9.644980431E0,-2.573230863E-1
3.950786660E1,-1.436224818E0,-9.686446190E0,-5.295161009E-1
3.952813796E1,-1.166578293E0,-9.707810402E0,-7.535857558E-1
3.954840936E1,-9.592275620E-1,-9.717910767E0,-9.013834596E-1
3.956868077E1,-8.440675735E-1,-9.722157478E0,-9.682940841E-1
3.958895212E1,-8.514307141E-1,-9.724411011E0,-9.387620687E-1
3.960922353E1,-9.162949324E-1,-9.725858688E0,-8.593434095E-1
3.962949493E1,-1.076140523E0,-9.716974258E0,-7.698951960E-1
3.964976629E1,-1.367223740E0,-9.687270164E0,-6.766700149E-1
3.967003769E1,-1.647005081E0,-9.650846481E0,-5.647283196E-1
3.969030905E1,-1.863489151E0,-9.617480278E0,-4.493016005E-1
3.971058046E1,-2.069356203E0,-9.577735901E0,-3.938809931E-1
3.973085186E1,-2.267152548E0,-9.531943321E0,-4.152748287E-1
3.975112322E1,-2.395591974E0,-9.499053001E0,-4.466645718E-1
3.977139462E1,-2.444760084E0,-9.484284401E0,-4.918190837E-1
3.979166598E1,-2.453157425E0,-9.476275444E0,-5.938173532E-1
3.981193738E1,-2.444304466E0,-9.466012955E0,-7.683451176E-1
3.983220874E1,-2.389638424E0,-9.459439278E0,-9.894594550E-1
3.985248014E1,-2.286392689E0,-9.457073212E0,-1.227423549E0
3.987275155E1,-2.118822336E0,-9.464096069E0,-1.453229070E0
3.989302290E1,-1.881145716E0,-9.485763550E0,-1.628492355E0
3.991329431E1,-1.620035291E0,-9.521026611E0,-1.701738715E0
3.993356572E1,-1.356830478E0,-9.563680649E0,-1.692749023E0
3.995383707E1,-1.092276931E0,-9.600837708E0,-1.673689246E0
3.997410848E1,-8.423718214E-1,-9.621068954E0,-1.701712012E0
3.999437983E1,-6.006849408E-1,-9.624339104E0,-1.783718348E0
4.001465124E1,-3.503940701E-1,-9.613636971E0,-1.904096961E0
4.003492259E1,-8.987602592E-2,-9.596316338E0,-2.018174171E0
4.005519400E1,1.553773880E-1,-9.577513695E0,-2.101780176E0
4.007546535E1,3.644021749E-1,-9.554677963E0,-2.178465128E0
4.009586535E1,5.166647434E-1,-9.530746460E0,-2.251293898E0
4.011600811E1,6.000654101E-1,-9.513092995E0,-2.304636955E0
4.013627952E1,6.115331054E-1,-9.511950493E0,-2.306342602E0
4.015655087E1,5.827854276E-1,-9.523632050E0,-2.265206337E0
4.017682228E1,5.125790238E-1,-9.538733482E0,-2.218151093E0
4.019709363E1,4.124860764E-1,-9.556989670E0,-2.159672499E0
4.021736504E1,2.901481688E-1,-9.580240250E0,-2.074896574E0
4.023763639E1,1.529874057E-1,-9.608123779E0,-1.957281590E0
4.025790780E1,-9.339296259E-3,-9.637691498E0,-1.812514067E0
4.027817915E1,-2.277695835E-1,-9.661217690E0,-1.667147517E0
4.029845056E1,-4.800556302E-1,-9.670245171E0,-1.557651639E0
4.031872191E1,-7.251770496E-1,-9.667599678E0,-1.477164149E0
4.033899332E1,-9.754759669E-1,-9.653873444E0,-1.421809793E0
4.035926467E1,-1.263610244E0,-9.622100830E0,-1.410270929E0
4.037953603E1,-1.605975389E0,-9.568575859E0,-1.426042438E0
4.039993603E1,-2.027450323E0,-9.552578926E0,-8.989292979E-1
4.042007879E1,-2.312209845E0,-9.516058922E0,-5.183472037E-1
4.044035019E1,-2.529592752E0,-9.472535133E0,-2.065169960E-1
4.046062155E1,-2.750569582E0,-9.411285400E0,1.801453829E-1
4.048089290E1,-2.934744358E0,-9.341279030E0,5.460672379E-1
4.050129290E1,-3.021405220E0,-9.303853989E0,6.926770210E-1
4.052143566E1,-3.093308687E0,-9.285091400E0,6.236169338E-1
4.054170707E1,-3.200885296E0,-9.257362366E0,4.753466845E-1
4.056197837E1,-3.336377382E0,-9.214500427E0,3.632713258E-1
4.058224978E1,-3.428587437E0,-9.183955193E0,2.648488879E-1
4.060264978E1,-3.441529512E0,-9.181161880E0,1.803747267E-1
4.062279254E1,-3.431198359E0,-9.184779167E0,1.925988048E-1
4.064306394E1,-3.366311073E0,-9.207525253E0,2.445641458E-1
4.066333530E1,-3.238748074E0,-9.251650810E0,2.964128256E-1
4.068360670E1,-3.047977209E0,-9.314556122E0,3.453510702E-1
4.070400671E1,-2.810317278E0,-9.387753487E0,3.775957227E-1
4.072414941E1,-2.544396162E0,-9.464138985E0,3.556602895E-1
4.074442082E1,-2.258772135E0,-9.540004730E0,2.379802763E-1
4.076469217E1,-2.014998198E0,-9.597344398E0,3.411401063E-2
4.078496358E1,-1.926792145E0,-9.615237236E0,-7.130283862E-2
4.080523493E1,-2.014369488E0,-9.597535133E0,-5.495495629E-3
4.082550624E1,-2.165303707E0,-9.563994408E0,1.088351607E-1
4.084577769E1,-2.264864922E0,-9.539487839E0,1.973557919E-1
4.086604905E1,-2.297690153E0,-9.528882980E0,3.023231030E-1
4.088632040E1,-2.355500460E0,-9.510558128E0,4.138697982E-1
4.090659181E1,-2.523396969E0,-9.464851379E0,4.684392512E-1
4.092686316E1,-2.741499662E0,-9.406792641E0,4.084521532E-1
4.094713457E1,-2.928630829E0,-9.354213715E0,3.036582172E-1
4.096740592E1,-3.071039200E0,-9.312058449E0,1.570552289E-1
4.098767728E1,-3.138349295E0,-9.290890694E0,-2.221467718E-2
4.100794868E1,-3.090100050E0,-9.306804657E0,-7.111716270E-2
4.102822004E1,-2.958829403E0,-9.349484444E0,-5.347365513E-2
4.104849139E1,-2.807615280E0,-9.395524025E0,-1.087074652E-1
4.106876280E1,-2.595871449E0,-9.453203201E0,-2.622798383E-1
4.108903415E1,-2.336749077E0,-9.512057304E0,-4.803636670E-1
4.110930551E1,-2.077863455E0,-9.556307793E0,-7.279005051E-1
4.112957691E1,-1.826398253E0,-9.587220192E0,-9.590983987E-1
4.114984827E1,-1.566265583E0,-9.610711098E0,-1.162509680E0
4.117011962E1,-1.268404245E0,-9.627869606E0,-1.365886807E0
4.119039103E1,-9.422401786E-1,-9.639146805E0,-1.539291978E0
4.121066238E1,-6.181375980E-1,-9.646007538E0,-1.656150699E0
4.123093374E1,-3.041578531E-1,-9.645056725E0,-1.746636748E0
